// Start Time: Unknown
// Update Rate: 60.0Hz
// Filter Profile: human (46.1)
// Firmware Version: 4.6.0
PacketCounter	SampleTimeFine	Acc_X	Acc_Y	Acc_Z	Gyr_X	Gyr_Y	Gyr_Z	Mag_X	Mag_Y	Mag_Z	Quat_q0	Quat_q1	Quat_q2	Quat_q3
15358		9.414461	1.766943	-1.471100	0.070382	0.004214	0.038721	-0.740479	0.211426	0.256348	0.299977	-0.597334	-0.468033	-0.578058
15359		9.436860	1.756907	-1.452088	0.058542	0.005507	0.038839	-0.738525	0.212402	0.255127	0.300477	-0.597312	-0.468108	-0.577760
15360		9.558734	1.732563	-1.561174	0.079109	-0.001823	0.034954	-0.736572	0.217773	0.258301	0.301033	-0.597259	-0.468319	-0.577355
15361		9.645119	1.793705	-1.624828	0.102037	-0.004429	0.026043	-0.737305	0.213135	0.255127	0.301649	-0.597127	-0.468691	-0.576868
15362		9.610618	1.823703	-1.629462	0.106448	0.004052	0.020123	-0.738525	0.220947	0.249023	0.302290	-0.596920	-0.469093	-0.576419
15363		9.642192	1.862139	-1.574533	0.086312	-0.001732	0.016821	-0.743408	0.217773	0.248779	0.302790	-0.596781	-0.469432	-0.576025
15364		9.705262	1.848767	-1.537612	0.045741	-0.009160	0.022361	-0.738037	0.216064	0.255859	0.303083	-0.596800	-0.469569	-0.575739
15365		9.686586	1.858759	-1.582328	0.006537	-0.013699	0.030311	-0.747559	0.212891	0.258545	0.303198	-0.596970	-0.469493	-0.575564
15366		9.661949	1.887131	-1.596317	-0.019712	-0.011683	0.038658	-0.738770	0.214355	0.255371	0.303227	-0.597229	-0.469247	-0.575481
15367		9.589699	1.825077	-1.548190	-0.048985	-0.013345	0.043314	-0.745361	0.217041	0.251465	0.303119	-0.597587	-0.468847	-0.575491
15368		9.520778	1.729945	-1.528547	-0.063441	-0.016716	0.045574	-0.734619	0.219727	0.251709	0.302933	-0.598006	-0.468379	-0.575537
15369		9.503978	1.636945	-1.542850	-0.058147	-0.019358	0.042285	-0.736816	0.218506	0.261475	0.302747	-0.598411	-0.467958	-0.575555
15370		9.444247	1.596199	-1.570047	-0.034715	-0.012036	0.041154	-0.739746	0.221436	0.256104	0.302705	-0.598723	-0.467634	-0.575516
15371		9.424459	1.585213	-1.507144	-0.023390	-0.007331	0.038249	-0.736084	0.224365	0.257568	0.302730	-0.598980	-0.467364	-0.575455
15372		9.522675	1.591279	-1.502348	-0.007801	-0.007131	0.032490	-0.740967	0.215332	0.266357	0.302815	-0.599179	-0.467190	-0.575345
15373		9.566208	1.600440	-1.589449	0.012299	-0.005448	0.029789	-0.738281	0.215332	0.255371	0.302998	-0.599314	-0.467117	-0.575167
15374		9.627570	1.640640	-1.627927	0.031169	-0.003626	0.019592	-0.748779	0.228271	0.258789	0.303243	-0.599356	-0.467176	-0.574946
15375		9.636525	1.623299	-1.597310	0.039766	-0.000617	0.010843	-0.731689	0.220947	0.256104	0.303504	-0.599345	-0.467307	-0.574713
15376		9.627279	1.576517	-1.615657	0.041112	-0.003794	0.003235	-0.737549	0.229736	0.259033	0.303725	-0.599309	-0.467493	-0.574483
15377		9.631037	1.600437	-1.662044	0.042656	-0.015024	0.000565	-0.729492	0.227295	0.258789	0.303908	-0.599332	-0.467717	-0.574179
15378		9.687434	1.618455	-1.659542	0.036240	-0.021306	0.001352	-0.742676	0.223633	0.257080	0.304038	-0.599405	-0.467928	-0.573863
15379		9.669587	1.578217	-1.629100	0.019113	-0.026320	0.011810	-0.730225	0.218750	0.264893	0.304115	-0.599603	-0.468013	-0.573545
15380		9.636223	1.624911	-1.657546	0.011741	-0.031476	0.017031	-0.733887	0.222168	0.256836	0.304156	-0.599855	-0.468070	-0.573213
15381		9.553353	1.684024	-1.654539	0.011893	-0.038529	0.016977	-0.731201	0.224121	0.260742	0.304176	-0.600145	-0.468128	-0.572852
15382		9.492989	1.647537	-1.666076	-0.007566	-0.042268	0.019429	-0.740723	0.224121	0.264160	0.304090	-0.600515	-0.468099	-0.572533
15383		9.482627	1.590781	-1.627038	-0.010772	-0.053954	0.019842	-0.732910	0.220215	0.256348	0.303944	-0.600981	-0.468082	-0.572136
15384		9.533830	1.533064	-1.633846	-0.011708	-0.061901	0.015241	-0.737061	0.229004	0.258301	0.303732	-0.601422	-0.468109	-0.571762
15385		9.563273	1.583052	-1.669294	-0.004770	-0.054706	0.006174	-0.733398	0.223877	0.258545	0.303562	-0.601818	-0.468160	-0.571395
15386		9.516335	1.611889	-1.626074	-0.008876	-0.056256	-0.005091	-0.733398	0.230469	0.260254	0.303303	-0.602162	-0.468273	-0.571077
15387		9.523215	1.609642	-1.665337	-0.018198	-0.049152	-0.019109	-0.729004	0.228516	0.264404	0.302971	-0.602462	-0.468369	-0.570858
15388		9.536119	1.571715	-1.607189	-0.015169	-0.043498	-0.027480	-0.728027	0.226807	0.267578	0.302631	-0.602683	-0.468530	-0.570674
15389		9.552530	1.569444	-1.654896	0.015557	-0.029033	-0.036961	-0.734619	0.223877	0.260986	0.302457	-0.602718	-0.468857	-0.570459
15390		9.578270	1.544504	-1.605940	0.054798	-0.011543	-0.046174	-0.732910	0.218994	0.264404	0.302508	-0.602530	-0.469350	-0.570226
15391		9.659207	1.489214	-1.617623	0.071847	0.004506	-0.059725	-0.737793	0.225342	0.270508	0.302637	-0.602153	-0.469980	-0.570036
15392		9.659598	1.510197	-1.640048	0.092840	0.015045	-0.071980	-0.742432	0.229736	0.267090	0.302884	-0.601691	-0.470709	-0.569791
15393		9.701844	1.631953	-1.630151	0.104928	0.025612	-0.079323	-0.729004	0.214600	0.266602	0.303225	-0.601147	-0.471453	-0.569569
15394		9.750457	1.678975	-1.612585	0.105997	0.039476	-0.082861	-0.727539	0.228027	0.262451	0.303556	-0.600385	-0.472304	-0.569491
15395		9.769906	1.677120	-1.545224	0.087900	0.052557	-0.084046	-0.738770	0.219238	0.262695	0.303886	-0.599647	-0.472947	-0.569560
15396		9.741109	1.602131	-1.559700	0.080631	0.070393	-0.087008	-0.742432	0.221680	0.256104	0.304221	-0.598833	-0.473543	-0.569742
15397		9.682339	1.581207	-1.533639	0.104287	0.083698	-0.082354	-0.737793	0.223877	0.265869	0.304771	-0.597917	-0.474136	-0.569917
15398		9.630494	1.647358	-1.504535	0.141792	0.096413	-0.075681	-0.740723	0.219727	0.256104	0.305599	-0.596895	-0.474888	-0.569919
15399		9.585078	1.692604	-1.504382	0.155616	0.106799	-0.069715	-0.737305	0.230469	0.260986	0.306554	-0.595766	-0.475621	-0.569976
15400		9.549483	1.676362	-1.497956	0.156769	0.111466	-0.075248	-0.740723	0.228271	0.256836	0.307547	-0.594644	-0.476359	-0.569997
15401		9.552867	1.591724	-1.516736	0.153576	0.112480	-0.089887	-0.736816	0.217529	0.254639	0.308454	-0.593451	-0.477142	-0.570094
15402		9.520730	1.602810	-1.554505	0.170040	0.107317	-0.096853	-0.741455	0.218018	0.255127	0.309328	-0.592137	-0.478127	-0.570161
15403		9.548921	1.600718	-1.614687	0.186576	0.108144	-0.102913	-0.742676	0.220459	0.247559	0.310275	-0.590778	-0.479210	-0.570148
15404		9.607120	1.703177	-1.635403	0.203714	0.108806	-0.112205	-0.739746	0.218018	0.248291	0.311276	-0.589337	-0.480362	-0.570124
15405		9.641026	1.789388	-1.591809	0.208845	0.104668	-0.127257	-0.749023	0.217041	0.240479	0.312186	-0.587831	-0.481669	-0.570079
15406		9.631064	1.813392	-1.529440	0.190705	0.105202	-0.139498	-0.745361	0.218994	0.244385	0.312966	-0.586316	-0.482885	-0.570182
15407		9.630837	1.841096	-1.560797	0.160538	0.105256	-0.144647	-0.742432	0.217285	0.244629	0.313573	-0.584875	-0.484026	-0.570361
15408		9.657660	1.781535	-1.539435	0.139862	0.106455	-0.141883	-0.743652	0.214600	0.233643	0.314074	-0.583486	-0.485086	-0.570608
15409		9.672307	1.770623	-1.501983	0.132859	0.108310	-0.132942	-0.746094	0.222656	0.241211	0.314576	-0.582108	-0.486004	-0.570957
15410		9.651229	1.793955	-1.467775	0.116274	0.107380	-0.119911	-0.748047	0.215332	0.235107	0.315127	-0.580910	-0.486793	-0.571201
15411		9.642020	1.821964	-1.486225	0.104986	0.111719	-0.112283	-0.734619	0.212158	0.234619	0.315634	-0.579702	-0.487480	-0.571563
15412		9.641886	1.839138	-1.450792	0.096680	0.111939	-0.098811	-0.745361	0.210693	0.231201	0.316095	-0.578552	-0.488123	-0.571924
15413		9.605067	1.823576	-1.357593	0.079911	0.118006	-0.088007	-0.750977	0.223145	0.225586	0.316585	-0.577459	-0.488579	-0.572369
15414		9.588871	1.731519	-1.347035	0.056901	0.126044	-0.068728	-0.749023	0.204346	0.229004	0.317218	-0.576527	-0.488686	-0.572865
15415		9.615023	1.635443	-1.292576	0.040089	0.138548	-0.045236	-0.741211	0.202637	0.230713	0.317768	-0.575585	-0.488726	-0.573473
15416		9.706885	1.609845	-1.276822	0.014416	0.153980	-0.022209	-0.749023	0.218506	0.220947	0.318326	-0.574746	-0.488535	-0.574168
15417		9.800560	1.636003	-1.400888	-0.012577	0.167702	0.005357	-0.750244	0.205078	0.225342	0.319136	-0.574088	-0.487860	-0.574951
15418		9.736198	1.664890	-1.323365	0.002621	0.193105	0.043055	-0.746094	0.209229	0.214355	0.320170	-0.573370	-0.487142	-0.575701
15419		9.846546	1.482693	-1.110651	0.038212	0.211948	0.071688	-0.757568	0.212402	0.211914	0.321628	-0.572572	-0.486319	-0.576377
15420		10.027492	1.374471	-1.103098	0.097355	0.243057	0.101347	-0.745117	0.212891	0.207520	0.323705	-0.571585	-0.485518	-0.576869
15421		10.193633	1.344814	-1.153536	0.190795	0.284354	0.110012	-0.751709	0.221680	0.205322	0.326391	-0.570190	-0.485016	-0.577158
15422		10.205416	1.416970	-1.068984	0.270877	0.314438	0.105808	-0.754883	0.215332	0.207764	0.329656	-0.568457	-0.484788	-0.577204
15423		10.279324	1.505943	-0.898459	0.297827	0.346084	0.097110	-0.754639	0.221924	0.194092	0.333032	-0.566435	-0.484743	-0.577292
15424		10.283856	1.561062	-0.940013	0.378628	0.384368	0.094774	-0.750732	0.224365	0.180908	0.337000	-0.563969	-0.484877	-0.577290
15425		10.224925	1.640168	-0.699378	0.423909	0.430887	0.082481	-0.753662	0.228516	0.179688	0.341307	-0.561061	-0.485086	-0.577418
15426		10.279671	1.746701	-0.557792	0.411362	0.475999	0.068938	-0.760010	0.226318	0.171387	0.345677	-0.557932	-0.485192	-0.577761
15427		10.113167	1.761341	-0.506640	0.380846	0.531578	0.045835	-0.755859	0.229736	0.165771	0.349979	-0.554458	-0.485099	-0.578594
15428		10.108784	1.753387	-0.434323	0.356743	0.585733	0.013290	-0.760498	0.228516	0.146729	0.354206	-0.550675	-0.484883	-0.579813
15429		10.293414	1.923912	-0.382716	0.344669	0.633095	-0.041202	-0.755371	0.233887	0.145264	0.358310	-0.546370	-0.484617	-0.581584
15430		10.221109	1.931102	-0.390074	0.140081	0.659523	-0.124934	-0.765869	0.231445	0.128662	0.361173	-0.542279	-0.483699	-0.584400
15431		10.140686	1.927374	-0.360377	-0.116191	0.703986	-0.189279	-0.764893	0.221436	0.123291	0.362779	-0.538370	-0.481614	-0.588725
15432		10.201856	2.060655	-0.117459	-0.216374	0.743375	-0.216306	-0.771240	0.223389	0.119141	0.363799	-0.534429	-0.479090	-0.593725
15433		10.373661	2.007742	0.214761	-0.252776	0.753617	-0.235856	-0.771729	0.224854	0.112061	0.364659	-0.530475	-0.476452	-0.598844
15434		10.409927	2.012847	0.085631	-0.281845	0.814054	-0.260380	-0.768555	0.221436	0.095215	0.365543	-0.526220	-0.473563	-0.604325
15435		10.319670	1.979053	0.321713	-0.163727	0.935235	-0.274769	-0.771240	0.214111	0.089111	0.367332	-0.520878	-0.470855	-0.609959
15436		10.587055	1.859866	0.833364	0.017366	1.015719	-0.276253	-0.770996	0.218262	0.071289	0.370100	-0.514546	-0.468861	-0.615173
15437		10.751296	1.751493	0.665272	0.116448	1.119881	-0.287306	-0.776367	0.213867	0.058594	0.373755	-0.507295	-0.466975	-0.620398
15438		10.463305	1.558321	0.701055	0.173910	1.235805	-0.312198	-0.778076	0.203125	0.041992	0.377929	-0.499114	-0.465108	-0.625882
15439		10.573085	1.485365	0.990767	0.310682	1.288210	-0.331382	-0.774170	0.206299	0.016602	0.382599	-0.490073	-0.463832	-0.631115
15440		10.800406	1.540596	1.129028	0.463842	1.354256	-0.340704	-0.781006	0.192139	0.007812	0.388194	-0.480091	-0.462999	-0.635964
15441		10.475032	1.672207	1.439536	0.564114	1.443081	-0.352522	-0.779053	0.185791	-0.023926	0.394191	-0.469222	-0.462532	-0.640709
15442		10.292949	2.030166	1.676450	0.677944	1.467943	-0.386798	-0.779785	0.196045	-0.045654	0.400495	-0.457528	-0.462525	-0.645246
15443		10.254564	2.515125	1.502330	0.662110	1.483452	-0.410091	-0.780518	0.178223	-0.067383	0.406914	-0.445687	-0.462317	-0.649652
15444		9.884537	2.864118	1.475987	0.580482	1.488923	-0.412685	-0.780273	0.176514	-0.092773	0.412698	-0.433937	-0.461622	-0.654435
15445		9.800128	2.992078	1.763661	0.517221	1.482397	-0.404415	-0.775391	0.164795	-0.112305	0.418308	-0.422356	-0.460450	-0.659257
15446		10.070878	3.369609	1.986369	0.411243	1.499943	-0.434588	-0.774902	0.165039	-0.139893	0.423193	-0.410858	-0.458695	-0.664607
15447		9.666742	3.542395	1.957719	0.093902	1.520577	-0.431740	-0.767578	0.170166	-0.148438	0.427217	-0.400233	-0.454957	-0.671054
15448		9.376245	3.679082	2.172360	-0.079202	1.518078	-0.374386	-0.768066	0.156982	-0.162842	0.430980	-0.390593	-0.450064	-0.677596
15449		9.627301	3.652792	2.803586	-0.202178	1.546566	-0.303407	-0.767578	0.149902	-0.197754	0.434524	-0.381439	-0.444188	-0.684390
15450		9.500567	3.333575	2.906825	-0.399772	1.567112	-0.283361	-0.754639	0.146240	-0.217773	0.437592	-0.372671	-0.436872	-0.691934
15451		8.711179	2.708722	3.382960	-0.430669	1.567771	-0.254375	-0.745605	0.147461	-0.235596	0.440568	-0.364060	-0.429196	-0.699393
15452		9.679090	2.195340	3.466219	-0.256816	1.576967	-0.331620	-0.750732	0.154785	-0.251221	0.443605	-0.354452	-0.422670	-0.706349
15453		9.032878	2.116048	3.880639	-0.059186	1.630762	-0.388418	-0.738770	0.154297	-0.272705	0.447176	-0.343624	-0.417257	-0.712638
15454		9.030829	2.532279	4.062593	0.138119	1.595488	-0.481433	-0.731689	0.147949	-0.295898	0.450525	-0.331904	-0.413312	-0.718359
15455		8.673293	2.671853	4.331969	0.225722	1.551515	-0.543650	-0.721680	0.136475	-0.315674	0.453426	-0.319837	-0.410177	-0.723784
15456		8.692541	2.775314	4.359690	0.294466	1.540787	-0.620228	-0.711914	0.124023	-0.336914	0.455819	-0.307265	-0.407667	-0.729126
15457		8.194795	2.937688	4.691695	0.400485	1.492713	-0.659462	-0.709717	0.110596	-0.357666	0.457959	-0.294398	-0.406031	-0.733990
15458		7.962034	3.120741	4.864138	0.492083	1.409281	-0.729442	-0.697998	0.098633	-0.375488	0.459525	-0.281405	-0.405386	-0.738451
15459		7.798538	3.465774	4.958885	0.532595	1.317631	-0.820298	-0.687988	0.089111	-0.388428	0.460234	-0.268466	-0.405475	-0.742765
15460		7.751457	4.040818	4.983390	0.550543	1.251943	-0.887272	-0.684570	0.076660	-0.418457	0.460264	-0.255597	-0.406003	-0.746987
15461		7.560755	4.972194	4.941510	0.350795	1.183588	-0.904232	-0.673096	0.063232	-0.429688	0.459449	-0.243808	-0.405519	-0.751677
15462		7.368890	5.198632	5.053037	-0.017789	1.102819	-0.858075	-0.675537	0.053955	-0.435059	0.457821	-0.234051	-0.402902	-0.757159
15463		7.373812	4.394878	4.866558	-0.246643	1.030621	-0.763907	-0.676270	0.035400	-0.447021	0.456030	-0.225906	-0.398903	-0.762811
15464		7.372970	3.565799	4.530344	-0.312249	0.986315	-0.658360	-0.647461	0.037354	-0.456299	0.454582	-0.218613	-0.394430	-0.768107
15465		6.870911	3.036704	4.435033	-0.280341	0.933757	-0.558455	-0.650146	0.046631	-0.473389	0.453625	-0.211852	-0.390133	-0.772748
15466		6.548620	2.734760	4.559491	-0.150783	0.859774	-0.506673	-0.652588	0.025635	-0.474609	0.452952	-0.205252	-0.386826	-0.776577
15467		6.172479	3.067485	4.625216	-0.002525	0.806188	-0.494918	-0.641602	0.037354	-0.478271	0.452408	-0.198471	-0.384657	-0.779728
15468		6.047065	3.675317	4.773449	0.027523	0.799935	-0.482499	-0.638916	0.034180	-0.491211	0.451952	-0.191665	-0.382642	-0.782680
15469		5.729333	4.198774	4.753932	-0.047458	0.762860	-0.456510	-0.622803	0.027588	-0.503174	0.451400	-0.185455	-0.380221	-0.785670
15470		5.292278	4.406807	4.674815	-0.122464	0.673680	-0.407276	-0.618896	0.022705	-0.507324	0.450751	-0.180243	-0.377558	-0.788534
15471		5.221504	4.054012	4.838334	-0.226960	0.596487	-0.336905	-0.620361	0.021484	-0.513672	0.450139	-0.176143	-0.374395	-0.791313
15472		5.157984	3.515291	4.793137	-0.261401	0.522845	-0.281714	-0.616211	0.012695	-0.519043	0.449592	-0.172825	-0.371194	-0.793860
15473		5.294225	3.286508	4.732564	-0.169648	0.463413	-0.260563	-0.607666	0.019531	-0.531494	0.449124	-0.169610	-0.368793	-0.795935
15474		5.517865	3.510762	4.804827	-0.113864	0.377225	-0.265768	-0.597656	0.009766	-0.529541	0.448428	-0.166745	-0.367067	-0.797728
15475		4.986978	3.704400	4.796275	-0.154001	0.236142	-0.262219	-0.603027	0.018311	-0.540771	0.447270	-0.164974	-0.365609	-0.799414
15476		4.561505	3.290379	4.872153	-0.025822	0.062285	-0.239373	-0.603271	0.016357	-0.534180	0.445896	-0.163966	-0.365609	-0.800389
15477		5.190996	2.952913	5.090500	0.131768	0.007691	-0.221363	-0.610352	0.014648	-0.539551	0.444693	-0.162789	-0.366845	-0.800733
15478		5.149823	3.194140	4.675391	0.070601	-0.055770	-0.170326	-0.608398	0.008057	-0.534912	0.443551	-0.162424	-0.367831	-0.800988
15479		4.611548	3.350599	4.562761	0.127297	-0.214715	-0.117490	-0.599365	-0.001221	-0.530029	0.442356	-0.163069	-0.369718	-0.800649
15480		4.606254	3.370189	4.885671	0.222964	-0.396342	-0.059439	-0.614990	0.000244	-0.519043	0.441123	-0.164737	-0.372833	-0.799542
15481		5.318309	3.482676	4.941232	0.214823	-0.503992	0.002600	-0.621826	-0.006592	-0.516846	0.439938	-0.167365	-0.376199	-0.798071
15482		5.961634	3.850158	4.680152	0.039479	-0.553214	0.080063	-0.619873	-0.000732	-0.519287	0.438860	-0.171196	-0.378468	-0.796778
15483		5.708778	4.073746	4.615714	-0.139429	-0.648839	0.194112	-0.626221	0.000244	-0.504150	0.437972	-0.176670	-0.379703	-0.795484
15484		5.188551	3.492684	4.814071	-0.177937	-0.794637	0.311396	-0.639648	0.009277	-0.494873	0.437324	-0.183621	-0.381050	-0.793619
15485		5.424078	3.039401	5.085976	-0.074021	-0.907804	0.393894	-0.639160	0.010254	-0.489258	0.436982	-0.191216	-0.383340	-0.790907
15486		6.279822	3.390424	5.112318	-0.067261	-0.946207	0.447100	-0.647217	0.025879	-0.471191	0.436862	-0.199163	-0.385694	-0.787861
15487		6.406792	3.558758	4.930313	-0.112578	-1.000562	0.504606	-0.652100	0.022949	-0.463135	0.436830	-0.207848	-0.387795	-0.784598
15488		6.213047	3.268868	5.029267	-0.070104	-1.095889	0.508579	-0.666748	0.030762	-0.453369	0.436559	-0.216953	-0.390509	-0.780929
15489		6.445633	3.158409	5.414436	0.067708	-1.155196	0.482606	-0.671387	0.035156	-0.434326	0.436109	-0.225857	-0.394333	-0.776724
15490		7.258504	3.539760	5.367861	0.239615	-1.151141	0.467298	-0.679932	0.036621	-0.426514	0.435864	-0.234032	-0.399245	-0.771916
15491		7.404265	4.064652	4.891298	0.212836	-1.170794	0.514810	-0.685059	0.040283	-0.411621	0.435754	-0.242548	-0.403913	-0.766905
15492		7.650617	4.008614	5.156013	0.209937	-1.255451	0.566126	-0.693115	0.042480	-0.385254	0.435632	-0.251750	-0.408721	-0.761442
15493		7.967869	3.794201	4.898109	0.002277	-1.299057	0.594099	-0.700195	0.052490	-0.381592	0.435046	-0.262056	-0.412308	-0.756350
15494		7.558167	3.465602	4.699922	0.069291	-1.325746	0.611828	-0.713135	0.056641	-0.373779	0.434556	-0.272297	-0.416253	-0.750832
15495		7.603137	3.302663	4.820128	0.340333	-1.332041	0.575981	-0.724609	0.060059	-0.347900	0.434347	-0.281414	-0.421930	-0.744395
15496		8.674821	3.727487	4.615518	0.494276	-1.340187	0.480708	-0.718018	0.063721	-0.327637	0.433797	-0.289681	-0.428796	-0.737590
15497		8.480747	4.485201	4.182572	0.276269	-1.301542	0.486571	-0.734863	0.074219	-0.317139	0.432887	-0.298443	-0.434098	-0.731505
15498		8.227210	4.831327	3.880702	0.112734	-1.327026	0.546230	-0.740479	0.071533	-0.300781	0.431728	-0.308182	-0.438230	-0.725665
15499		8.392131	4.183702	3.758515	-0.126959	-1.384101	0.551122	-0.743652	0.084229	-0.275879	0.429702	-0.319034	-0.441118	-0.720408
15500		8.704525	3.170540	3.701311	-0.164002	-1.427423	0.528632	-0.753906	0.092041	-0.260986	0.427220	-0.330194	-0.443914	-0.715119
15501		8.863691	2.489055	3.457585	0.112184	-1.328840	0.492621	-0.750488	0.101562	-0.240234	0.425558	-0.339609	-0.448018	-0.709116
15502		8.826673	2.280453	3.794278	0.384774	-1.249426	0.420020	-0.763916	0.101074	-0.224609	0.424527	-0.347283	-0.453567	-0.702459
15503		10.217252	2.858112	3.457392	0.429349	-1.300644	0.303106	-0.770508	0.103760	-0.206543	0.422633	-0.354620	-0.459877	-0.695801
15504		9.373788	4.039155	2.109392	0.024644	-1.273471	0.263719	-0.773926	0.112793	-0.193115	0.419348	-0.363053	-0.463804	-0.690815
15505		8.077448	4.200366	2.266824	-0.002915	-1.347014	0.291159	-0.774170	0.115967	-0.173340	0.415806	-0.372097	-0.467616	-0.685554
15506		9.295766	3.282970	2.179579	0.255613	-1.379061	0.324128	-0.770996	0.111328	-0.156494	0.413086	-0.380484	-0.472874	-0.678956
15507		10.282864	2.550795	2.461502	0.586133	-1.275262	0.334671	-0.781738	0.118896	-0.143799	0.411865	-0.387018	-0.479638	-0.671217
15508		10.488014	2.643263	2.573084	0.783904	-1.196472	0.313137	-0.781982	0.127197	-0.127930	0.411361	-0.392368	-0.487151	-0.662958
15509		10.275248	3.971725	2.434114	0.579556	-1.159509	0.306490	-0.784668	0.125488	-0.112061	0.410269	-0.398192	-0.493299	-0.655575
15510		9.754704	5.208575	0.925588	-0.128860	-1.244499	0.300329	-0.786621	0.128418	-0.094482	0.406375	-0.406789	-0.495894	-0.650746
15511		8.797896	5.727393	0.188169	-0.608759	-1.273163	0.370866	-0.778809	0.130615	-0.082520	0.401045	-0.417389	-0.495711	-0.647472
15512		9.324195	4.472048	1.085853	-0.812450	-1.342625	0.453006	-0.787109	0.139404	-0.049316	0.395167	-0.429182	-0.494332	-0.644423
15513		10.879846	3.527243	1.238722	-0.904786	-1.331281	0.483016	-0.789551	0.152344	-0.024902	0.388960	-0.441405	-0.492262	-0.641522
15514		11.227003	3.273601	0.962667	-0.649139	-1.244412	0.501947	-0.792969	0.155518	-0.018799	0.384042	-0.452439	-0.491054	-0.637713
15515		10.269765	2.595255	1.326572	-0.483236	-1.060219	0.474315	-0.784180	0.153076	0.009033	0.380308	-0.461681	-0.490145	-0.634015
15516		9.777445	2.131428	0.994404	-0.507894	-1.029208	0.400437	-0.790527	0.167969	0.013428	0.376180	-0.470428	-0.489428	-0.630592
15517		9.562644	1.908457	0.506303	-0.605977	-1.085345	0.402450	-0.781006	0.164551	0.041504	0.371404	-0.479800	-0.488083	-0.627396
15518		9.927185	1.990504	0.252475	-0.580824	-1.171181	0.470934	-0.780029	0.169189	0.054199	0.366699	-0.489708	-0.486964	-0.623365
15519		10.406282	2.479596	0.290977	-0.484753	-1.184072	0.556972	-0.774170	0.185791	0.077148	0.362751	-0.499634	-0.485924	-0.618592
15520		10.660987	2.918459	0.618151	-0.514849	-1.098594	0.561681	-0.774414	0.185547	0.088867	0.359015	-0.509262	-0.484275	-0.614198
15521		10.547576	3.074351	0.554340	-0.677539	-1.005487	0.504332	-0.772949	0.200684	0.104004	0.354632	-0.518507	-0.481730	-0.611002
15522		10.227896	2.746006	-0.207249	-0.912924	-0.975378	0.418376	-0.766602	0.208252	0.126221	0.348886	-0.527920	-0.478123	-0.609079
15523		9.950705	2.169947	-0.898861	-1.076504	-0.992435	0.355107	-0.770508	0.205322	0.147705	0.341985	-0.537564	-0.473951	-0.607817
15524		9.820942	1.644948	-0.855777	-1.176755	-0.982313	0.330862	-0.766602	0.204346	0.161621	0.334479	-0.547223	-0.469297	-0.606985
15525		9.898852	1.305354	-0.359162	-1.203506	-0.921204	0.310822	-0.753906	0.209717	0.186523	0.326960	-0.556447	-0.464355	-0.606496
15526		10.195543	1.215615	-0.100047	-1.090599	-0.836332	0.253976	-0.752441	0.219727	0.197998	0.319967	-0.564633	-0.459942	-0.606023
15527		10.321827	1.136867	-0.131681	-0.886389	-0.741199	0.175172	-0.748779	0.209473	0.201660	0.313873	-0.571419	-0.456619	-0.605362
15528		10.156275	0.911292	-0.464438	-0.636072	-0.649127	0.092218	-0.746094	0.205811	0.222168	0.308882	-0.576722	-0.454674	-0.604363
15529		9.877164	0.855612	-0.693832	-0.417849	-0.582938	0.028721	-0.750488	0.211426	0.223389	0.304858	-0.580868	-0.453936	-0.602989
15530		9.966155	0.989749	-0.833675	-0.247976	-0.530701	-0.004371	-0.744873	0.202148	0.234131	0.301687	-0.584175	-0.454062	-0.601292
15531		10.139533	1.294559	-0.822527	-0.142798	-0.448061	-0.017851	-0.743408	0.201416	0.252197	0.299268	-0.586743	-0.454560	-0.599622
15532		10.107644	1.637330	-0.679024	-0.085748	-0.359421	-0.058760	-0.746826	0.202881	0.250000	0.297259	-0.588565	-0.455313	-0.598262
15533		10.077719	1.928959	-0.468878	-0.120056	-0.302434	-0.112941	-0.739258	0.201416	0.256836	0.295031	-0.589974	-0.456014	-0.597444
15534		9.890219	1.858493	-0.614623	-0.163812	-0.268931	-0.143841	-0.740479	0.196533	0.259766	0.292559	-0.591199	-0.456561	-0.597031
15535		9.763768	1.645167	-1.041677	-0.152463	-0.247786	-0.170835	-0.747803	0.201904	0.263184	0.290089	-0.592181	-0.457239	-0.596743
15536		9.880177	1.537084	-1.302553	-0.128144	-0.223678	-0.193252	-0.738281	0.197998	0.262451	0.287719	-0.592895	-0.458087	-0.596532
15537		9.977248	1.661478	-1.305394	-0.117960	-0.202619	-0.205921	-0.739746	0.193604	0.266846	0.285418	-0.593427	-0.458992	-0.596412
15538		9.921854	1.810522	-1.147992	-0.124542	-0.179566	-0.206563	-0.747314	0.184326	0.273682	0.283168	-0.593855	-0.459809	-0.596429
15539		9.881512	1.999969	-1.100260	-0.138254	-0.157988	-0.207212	-0.736816	0.185303	0.274658	0.280928	-0.594202	-0.460506	-0.596606
15540		9.800764	2.060946	-1.171169	-0.141741	-0.143922	-0.215324	-0.745850	0.182129	0.279785	0.278686	-0.594451	-0.461190	-0.596880
15541		9.618504	1.987866	-1.256681	-0.124339	-0.117274	-0.223037	-0.742188	0.179932	0.279785	0.276593	-0.594493	-0.461933	-0.597237
15542		9.517946	1.963827	-1.247394	-0.098139	-0.097162	-0.227693	-0.743652	0.178955	0.281006	0.274684	-0.594354	-0.462780	-0.597601
15543		9.523045	1.954634	-1.301471	-0.064406	-0.092737	-0.217020	-0.738770	0.177979	0.280273	0.273013	-0.594153	-0.463730	-0.597830
15544		9.428076	2.072072	-1.404370	-0.033231	-0.074275	-0.197976	-0.736572	0.169434	0.285400	0.271663	-0.593861	-0.464696	-0.597985
15545		9.253022	2.285013	-1.388342	-0.046623	-0.055734	-0.196781	-0.741943	0.169434	0.278320	0.270322	-0.593510	-0.465546	-0.598280
15546		9.154699	2.356744	-1.382615	-0.072379	-0.064217	-0.206852	-0.744141	0.166504	0.283447	0.268772	-0.593216	-0.466335	-0.598655
15547		9.267423	2.303599	-1.528175	-0.085887	-0.073610	-0.209218	-0.750488	0.160156	0.290283	0.267104	-0.592989	-0.467088	-0.599040
15548		9.515418	2.251676	-1.689442	-0.074212	-0.078708	-0.195371	-0.747559	0.159424	0.291504	0.265540	-0.592813	-0.467841	-0.599321
15549		9.761089	2.316273	-1.644703	-0.065409	-0.081821	-0.172263	-0.746338	0.155273	0.283447	0.264125	-0.592722	-0.468531	-0.599498
15550		9.674659	2.367449	-1.547954	-0.083425	-0.069333	-0.162189	-0.742920	0.151611	0.285645	0.262720	-0.592644	-0.469051	-0.599785
15551		9.535428	2.407881	-1.457713	-0.108048	-0.068343	-0.161481	-0.745361	0.150391	0.291992	0.261199	-0.592618	-0.469442	-0.600169
15552		9.529569	2.316878	-1.392770	-0.131339	-0.073804	-0.145495	-0.742920	0.145752	0.293945	0.259621	-0.592732	-0.469648	-0.600580
15553		9.527005	2.179382	-1.462931	-0.129046	-0.065636	-0.120310	-0.741943	0.148438	0.302734	0.258212	-0.592896	-0.469721	-0.600968
15554		9.448161	2.088198	-1.508545	-0.091717	-0.051950	-0.093243	-0.747559	0.139648	0.300293	0.257179	-0.593016	-0.469818	-0.601217
15555		9.383862	2.019849	-1.544290	-0.034125	-0.047932	-0.069252	-0.743652	0.141846	0.296631	0.256566	-0.593086	-0.470073	-0.601211
15556		9.379022	1.999253	-1.531241	0.024402	-0.047942	-0.042790	-0.749268	0.144043	0.296387	0.256378	-0.593135	-0.470489	-0.600917
15557		9.367003	2.105968	-1.476989	0.063769	-0.057117	-0.018198	-0.743896	0.150391	0.299316	0.256473	-0.593242	-0.471000	-0.600370
15558		9.355238	2.224631	-1.464999	0.068532	-0.048568	-0.008079	-0.750732	0.146973	0.298096	0.256679	-0.593337	-0.471466	-0.599823
15559		9.409586	2.263195	-1.465924	0.051889	-0.045086	-0.000715	-0.741943	0.148682	0.302002	0.256850	-0.593478	-0.471802	-0.599346
15560		9.516464	2.208061	-1.531365	0.032875	-0.045739	0.017604	-0.735352	0.146484	0.302246	0.257018	-0.593736	-0.471954	-0.598898
15561		9.469435	2.148149	-1.558133	0.030329	-0.033087	0.038009	-0.744629	0.146240	0.296387	0.257324	-0.594016	-0.471964	-0.598481
15562		9.387931	2.162940	-1.581271	0.060850	-0.022302	0.035860	-0.741943	0.148682	0.302490	0.257816	-0.594167	-0.472111	-0.598003
15563		9.389333	2.156035	-1.566568	0.102364	-0.016775	0.022761	-0.742676	0.141113	0.302490	0.258470	-0.594151	-0.472519	-0.597414
15564		9.496037	2.140989	-1.495228	0.131968	-0.019830	0.010706	-0.739258	0.143066	0.298340	0.259195	-0.594039	-0.473137	-0.596722
15565		9.609566	2.156229	-1.559391	0.142954	-0.014176	0.000993	-0.741943	0.150391	0.294189	0.259953	-0.593835	-0.473845	-0.596033
15566		9.608492	2.271163	-1.575660	0.131035	-0.000488	-0.011530	-0.742188	0.141602	0.298584	0.260650	-0.593536	-0.474526	-0.595484
15567		9.592974	2.315674	-1.537621	0.108087	0.006514	-0.014335	-0.740723	0.152344	0.300049	0.261236	-0.593245	-0.475087	-0.595070
15568		9.667143	2.308841	-1.491220	0.092897	0.013055	-0.008555	-0.743164	0.152100	0.301758	0.261813	-0.592975	-0.475535	-0.594727
15569		9.677162	2.262956	-1.418384	0.087336	0.036165	-0.000750	-0.746338	0.162109	0.293457	0.262488	-0.592634	-0.475863	-0.594508
15570		9.623003	2.207157	-1.380265	0.105854	0.064340	-0.002450	-0.739502	0.151611	0.299561	0.263370	-0.592100	-0.476229	-0.594356
15571		9.622774	2.189140	-1.393159	0.122413	0.083356	0.010577	-0.746582	0.151611	0.303955	0.264455	-0.591494	-0.476566	-0.594208
15572		9.709330	2.219247	-1.449788	0.137464	0.089384	0.026088	-0.749023	0.158203	0.293213	0.265718	-0.590884	-0.476885	-0.593995
15573		9.727621	2.239250	-1.388594	0.152481	0.103400	0.040712	-0.743896	0.158691	0.291748	0.267194	-0.590222	-0.477175	-0.593758
15574		9.667346	2.323929	-1.364928	0.157891	0.121106	0.030570	-0.737305	0.160400	0.292236	0.268712	-0.589421	-0.477500	-0.593607
15575		9.605596	2.278457	-1.346145	0.150608	0.151414	0.015058	-0.736816	0.158691	0.286377	0.270237	-0.588425	-0.477797	-0.593665
15576		9.568863	2.173005	-1.353784	0.153880	0.174074	0.010860	-0.742920	0.163818	0.281006	0.271846	-0.587287	-0.478074	-0.593834
15577		9.567297	2.107792	-1.369913	0.183491	0.201289	0.016301	-0.745605	0.158203	0.287598	0.273740	-0.585964	-0.478407	-0.594003
15578		9.620672	2.051859	-1.333194	0.230232	0.218552	0.023339	-0.743408	0.156006	0.272461	0.275950	-0.584481	-0.478891	-0.594052
15579		9.675756	2.009196	-1.293901	0.266417	0.247188	0.023034	-0.745361	0.168457	0.275146	0.278453	-0.582758	-0.479482	-0.594100
15580		9.680941	1.986352	-1.239930	0.291150	0.274275	0.014670	-0.747314	0.167969	0.262695	0.281156	-0.580808	-0.480176	-0.594175
15581		9.690738	2.020250	-1.246639	0.302288	0.298943	0.012045	-0.744141	0.165283	0.260986	0.283995	-0.578685	-0.480868	-0.594336
15582		9.791423	2.016158	-1.258600	0.285797	0.325020	0.011996	-0.751221	0.164551	0.264893	0.286842	-0.576472	-0.481408	-0.594683
15583		9.820522	2.016757	-1.337153	0.170423	0.334735	0.005254	-0.744385	0.168945	0.257812	0.289124	-0.574462	-0.481378	-0.595547
15584		9.677818	2.068573	-1.320119	0.093408	0.353458	0.013073	-0.758057	0.174072	0.250000	0.291165	-0.572567	-0.480883	-0.596776
15585		9.708562	2.114719	-1.040291	0.138924	0.367486	0.049939	-0.751953	0.168213	0.250244	0.293674	-0.570623	-0.480397	-0.597799
15586		9.865366	2.252626	-0.958865	0.081015	0.368434	0.070428	-0.752441	0.172119	0.237061	0.295984	-0.568904	-0.479514	-0.599005
15587		9.931538	2.341540	-1.130342	-0.100875	0.366564	0.070246	-0.751953	0.173828	0.232910	0.297441	-0.567623	-0.477723	-0.600927
15588		9.865246	2.328191	-0.994276	-0.119256	0.373021	0.067709	-0.758301	0.173828	0.231934	0.298822	-0.566341	-0.475833	-0.602948
15589		9.885421	2.348458	-0.877376	-0.084400	0.383346	0.079642	-0.753174	0.169922	0.224609	0.300456	-0.564965	-0.474029	-0.604845
15590		10.018932	2.496238	-0.915087	-0.149001	0.392473	0.084202	-0.757568	0.172363	0.219238	0.301829	-0.563715	-0.471845	-0.607030
15591		9.917720	2.668886	-0.966797	-0.275951	0.414893	0.075282	-0.762207	0.179199	0.208496	0.302653	-0.562624	-0.469000	-0.609832
15592		9.667579	2.586486	-0.854465	-0.316865	0.423292	0.064553	-0.770996	0.182129	0.205566	0.303297	-0.561522	-0.465971	-0.612842
15593		9.733388	2.679176	-0.703040	-0.237764	0.404218	0.064085	-0.760010	0.184814	0.206055	0.304234	-0.560305	-0.463392	-0.615441
15594		9.933547	2.708922	-0.635003	-0.165474	0.427748	0.070542	-0.761963	0.179443	0.199951	0.305630	-0.558823	-0.461099	-0.617815
15595		9.828863	2.565631	-0.506607	-0.142347	0.467884	0.055553	-0.757568	0.183105	0.197266	0.307170	-0.557007	-0.458874	-0.620342
15596		9.802668	2.549127	-0.435069	-0.083948	0.502249	0.015079	-0.760986	0.186035	0.187988	0.308910	-0.554712	-0.457053	-0.622874
15597		9.799590	2.274207	-0.152549	-0.065165	0.539735	-0.022388	-0.765625	0.180908	0.183594	0.310701	-0.552007	-0.455396	-0.625593
15598		9.864346	2.038563	-0.130024	-0.104456	0.557189	-0.075202	-0.769287	0.183350	0.169922	0.312053	-0.549107	-0.453716	-0.628686
15599		9.930904	2.044289	-0.274140	-0.051638	0.603304	-0.117336	-0.770996	0.178955	0.165283	0.313636	-0.545629	-0.452368	-0.631889
15600		10.193422	2.199868	-0.160649	0.100193	0.671692	-0.134838	-0.768799	0.178955	0.157715	0.316031	-0.541326	-0.451707	-0.634863
15601		10.194462	2.297583	0.046487	0.169077	0.732472	-0.143735	-0.772461	0.177246	0.141113	0.318914	-0.536478	-0.451277	-0.637836
15602		10.145949	2.376021	0.402036	0.155847	0.780001	-0.170471	-0.781006	0.180176	0.135742	0.321777	-0.531259	-0.450739	-0.641138
15603		10.202261	2.563902	0.578854	0.132952	0.805544	-0.194326	-0.775391	0.174561	0.125000	0.324509	-0.525867	-0.450105	-0.644642
15604		10.405662	2.650937	0.688959	0.134102	0.860236	-0.193027	-0.777832	0.170166	0.116699	0.327409	-0.520165	-0.449296	-0.648355
15605		10.374377	2.701192	0.795784	0.052950	0.938722	-0.200656	-0.780273	0.174072	0.097168	0.330155	-0.514217	-0.447844	-0.652698
15606		10.056151	2.716202	0.945505	-0.095602	1.004351	-0.195372	-0.781738	0.167969	0.093506	0.332603	-0.508269	-0.445337	-0.657809
15607		10.183972	2.616514	1.195073	-0.181402	1.054104	-0.192505	-0.782715	0.166992	0.062256	0.334786	-0.502308	-0.442192	-0.663379
15608		10.245242	2.386734	1.318471	-0.186906	1.091389	-0.183579	-0.780762	0.164307	0.056885	0.337195	-0.496046	-0.438794	-0.669102
15609		10.177886	2.373711	1.348182	-0.139154	1.160673	-0.199355	-0.791992	0.161621	0.038574	0.339893	-0.489218	-0.435509	-0.674885
15610		10.228323	2.371870	1.689928	-0.046641	1.248913	-0.230828	-0.788086	0.159180	0.022949	0.343082	-0.481435	-0.432571	-0.680733
15611		10.401841	2.456709	2.043919	-0.079167	1.311284	-0.285740	-0.791748	0.156982	0.012451	0.346015	-0.473150	-0.429435	-0.687014
15612		9.902301	2.375720	1.766909	-0.023767	1.322957	-0.303125	-0.787354	0.153564	-0.019531	0.349048	-0.464561	-0.426615	-0.693072
15613		9.974604	2.232917	1.964737	0.165722	1.326315	-0.341207	-0.787842	0.146729	-0.029541	0.352631	-0.455113	-0.424913	-0.698550
15614		10.032490	2.101982	2.107618	0.252968	1.377691	-0.363899	-0.788086	0.140137	-0.055908	0.356474	-0.445024	-0.423625	-0.703862
15615		9.977898	2.278746	2.612909	0.380496	1.427038	-0.390178	-0.790283	0.142334	-0.079346	0.360770	-0.434045	-0.422944	-0.708921
15616		10.112870	2.549238	2.642229	0.422813	1.428111	-0.470617	-0.779785	0.129883	-0.095459	0.364798	-0.422565	-0.422696	-0.713925
15617		9.785601	2.777145	2.917779	0.386705	1.408323	-0.529781	-0.777344	0.126953	-0.119385	0.368107	-0.411066	-0.422438	-0.719075
15618		9.175197	2.697584	2.575775	0.399503	1.423054	-0.571624	-0.784912	0.119873	-0.133301	0.371274	-0.399198	-0.422241	-0.724230
15619		9.043086	2.592413	3.398675	0.679080	1.431331	-0.587138	-0.783447	0.106934	-0.149658	0.375220	-0.386334	-0.423725	-0.728295
15620		9.524291	2.522360	3.591342	0.858333	1.467232	-0.644636	-0.779053	0.091064	-0.174316	0.379363	-0.372429	-0.426315	-0.731872
15621		9.364369	2.947247	3.615889	0.884509	1.488382	-0.647551	-0.774902	0.089600	-0.196289	0.383505	-0.358163	-0.428907	-0.735311
15622		8.946076	3.548126	3.568414	0.759617	1.482986	-0.650229	-0.754883	0.075684	-0.220947	0.387276	-0.344269	-0.430594	-0.738976
15623		8.546604	3.668719	4.093213	0.725167	1.400197	-0.667566	-0.764160	0.059570	-0.237793	0.390405	-0.330814	-0.432234	-0.742509
15624		8.904297	3.542233	4.183780	0.722615	1.366702	-0.829025	-0.759277	0.042725	-0.255127	0.392276	-0.316922	-0.434425	-0.746294
15625		8.781431	4.389268	4.188748	0.732722	1.396354	-0.964286	-0.751465	0.039062	-0.278320	0.393310	-0.302245	-0.436875	-0.750397
15626		8.531665	5.647396	3.802427	0.542539	1.409692	-1.020519	-0.746094	0.016846	-0.296875	0.393615	-0.287856	-0.438002	-0.755222
15627		7.780930	6.163991	3.840256	0.138579	1.366265	-0.950265	-0.736084	0.007080	-0.320801	0.393067	-0.275222	-0.436535	-0.761044
15628		7.229482	5.121315	4.490959	-0.121446	1.310380	-0.824342	-0.734619	-0.001221	-0.338623	0.392486	-0.264162	-0.433164	-0.767165
15629		7.623325	3.411721	5.112926	-0.022599	1.238145	-0.776974	-0.725586	-0.011719	-0.354736	0.392118	-0.253386	-0.430506	-0.772466
15630		8.272876	3.161845	4.869987	0.346959	1.210520	-0.841714	-0.719482	-0.025391	-0.366455	0.391922	-0.241319	-0.430403	-0.776477
15631		7.931045	4.266780	4.109861	0.527114	1.269803	-0.910940	-0.712646	-0.034668	-0.372803	0.391754	-0.228033	-0.431389	-0.780021
15632		6.925566	5.817924	4.321023	0.489477	1.250276	-0.943021	-0.705078	-0.052002	-0.391357	0.391162	-0.214947	-0.432201	-0.783576
15633		6.341666	6.663241	4.612157	0.110910	1.187492	-0.868131	-0.686768	-0.059082	-0.405518	0.390078	-0.203693	-0.430554	-0.788018
15634		5.858059	5.961422	4.869822	-0.225347	1.082304	-0.669138	-0.688721	-0.067139	-0.416748	0.389283	-0.194911	-0.426591	-0.792773
15635		5.988940	4.297931	5.346966	-0.227001	0.975341	-0.498492	-0.671387	-0.075439	-0.436768	0.389204	-0.187448	-0.422713	-0.796679
15636		6.636450	4.269060	4.825040	-0.130869	0.955151	-0.535704	-0.661377	-0.075928	-0.447021	0.388901	-0.179563	-0.419521	-0.800322
15637		6.567286	5.169821	4.392280	-0.222358	0.953524	-0.612683	-0.660645	-0.073975	-0.449707	0.387914	-0.171744	-0.415773	-0.804462
15638		5.656722	5.162872	4.557193	-0.408041	0.891339	-0.591320	-0.654297	-0.081543	-0.464355	0.386564	-0.165113	-0.410938	-0.808972
15639		4.768977	4.365022	4.665313	-0.449169	0.794755	-0.450969	-0.648438	-0.093506	-0.464844	0.385738	-0.159682	-0.405941	-0.812970
15640		4.524658	3.423127	4.859518	-0.410375	0.697710	-0.249868	-0.643555	-0.076416	-0.478760	0.385980	-0.155427	-0.401359	-0.815949
15641		4.878097	3.178016	4.694258	-0.140602	0.596385	-0.190651	-0.633057	-0.087158	-0.490723	0.386604	-0.151270	-0.398671	-0.817750
15642		5.455884	3.782575	4.594297	0.104167	0.569269	-0.272959	-0.636719	-0.082031	-0.500488	0.386883	-0.146126	-0.397882	-0.818938
15643		5.425972	5.027422	4.699081	0.074725	0.566104	-0.333066	-0.624756	-0.089111	-0.500488	0.386682	-0.140977	-0.396900	-0.820410
15644		4.493905	5.566251	4.739919	-0.170231	0.447109	-0.267823	-0.621338	-0.099609	-0.502441	0.386242	-0.137616	-0.394593	-0.822299
15645		3.738567	4.513474	4.596359	-0.448089	0.248985	-0.089209	-0.617920	-0.085205	-0.506836	0.386077	-0.137042	-0.390907	-0.824231
15646		3.992588	2.691965	4.804157	-0.275871	0.139256	0.085587	-0.615234	-0.087891	-0.513428	0.386908	-0.137308	-0.388440	-0.824962
15647		4.930583	2.172985	4.749251	0.201839	0.056382	0.090644	-0.619385	-0.078857	-0.517578	0.388065	-0.136554	-0.389546	-0.824022
15648		5.388838	3.672068	4.602406	0.420643	0.036431	0.029148	-0.615723	-0.091309	-0.512695	0.388950	-0.135109	-0.392197	-0.822584
15649		4.640443	5.209522	4.160474	0.147987	-0.040053	0.047960	-0.611328	-0.092041	-0.511230	0.389448	-0.135069	-0.393313	-0.821822
15650		3.636939	5.287698	4.284934	-0.115468	-0.229132	0.181377	-0.614502	-0.089600	-0.507324	0.389939	-0.137604	-0.393082	-0.821279
15651		3.587533	3.737362	4.523929	-0.227078	-0.392560	0.338075	-0.629150	-0.074219	-0.510254	0.390834	-0.142142	-0.392452	-0.820382
15652		4.546833	3.073105	4.841811	-0.008714	-0.517636	0.383002	-0.622314	-0.068115	-0.504150	0.391836	-0.147053	-0.393573	-0.818499
15653		6.008539	3.950532	4.803422	0.168020	-0.575768	0.348416	-0.641357	-0.066406	-0.487793	0.392615	-0.151629	-0.396098	-0.816069
15654		6.211148	5.069947	4.595094	0.054965	-0.610135	0.383380	-0.641357	-0.069580	-0.489990	0.393389	-0.156974	-0.398008	-0.813753
15655		5.051513	5.131134	4.554654	-0.160420	-0.688646	0.507132	-0.648682	-0.060547	-0.484131	0.394455	-0.163869	-0.398541	-0.811614
15656		4.406800	3.789569	4.629327	-0.163290	-0.839361	0.642505	-0.656006	-0.050781	-0.462402	0.395895	-0.172247	-0.399322	-0.808789
15657		5.013931	2.922967	5.022586	0.086194	-0.968118	0.662245	-0.668701	-0.049316	-0.464600	0.397371	-0.180754	-0.402185	-0.804780
15658		6.386926	3.838019	4.914211	0.277297	-1.019584	0.597895	-0.662842	-0.038818	-0.451416	0.398491	-0.188689	-0.406545	-0.800201
15659		7.037542	5.081357	4.572777	0.213508	-1.047623	0.587458	-0.677979	-0.035156	-0.439453	0.399297	-0.196973	-0.410486	-0.795780
15660		6.179839	5.127221	4.373910	0.066890	-1.098636	0.665317	-0.687012	-0.035156	-0.413574	0.400162	-0.206340	-0.413485	-0.791406
15661		5.741434	4.318540	4.623984	0.037467	-1.204434	0.757891	-0.696289	-0.032471	-0.409912	0.401195	-0.216791	-0.416542	-0.786471
15662		6.387681	3.499076	4.939313	0.047402	-1.291642	0.828931	-0.705811	-0.010010	-0.389404	0.402346	-0.227933	-0.419758	-0.781004
15663		7.660026	3.566194	4.575081	0.111566	-1.361478	0.814480	-0.708008	-0.001953	-0.366211	0.403180	-0.239331	-0.423491	-0.775127
15664		8.433489	4.108768	4.100882	0.263447	-1.363065	0.761338	-0.723633	-0.000977	-0.349609	0.403909	-0.249999	-0.428268	-0.768729
15665		7.941701	4.234519	4.208745	0.402970	-1.324436	0.771050	-0.732178	0.006592	-0.333496	0.405061	-0.259916	-0.433791	-0.761705
15666		7.713144	4.006254	4.582255	0.505310	-1.302679	0.823661	-0.727295	0.017578	-0.321533	0.406767	-0.269500	-0.439691	-0.754044
15667		8.577767	4.413417	3.918018	0.351613	-1.334350	0.822274	-0.748291	0.031494	-0.301270	0.407941	-0.279726	-0.444571	-0.746790
15668		8.051561	4.246360	3.628700	0.170035	-1.326819	0.840655	-0.746338	0.037842	-0.284912	0.408723	-0.290649	-0.448165	-0.740012
15669		7.959290	2.941802	3.821252	0.380164	-1.337320	0.787233	-0.754639	0.038086	-0.270264	0.409594	-0.300611	-0.453163	-0.732468
15670		8.593784	2.600171	3.778303	0.763462	-1.280803	0.641195	-0.763672	0.040527	-0.249512	0.410675	-0.308241	-0.460675	-0.723955
15671		8.931425	3.592987	4.081082	1.036544	-1.256226	0.557140	-0.757080	0.054443	-0.242920	0.411948	-0.314425	-0.469937	-0.714560
15672		9.537417	4.814556	3.576814	0.807499	-1.268185	0.573122	-0.777344	0.053711	-0.230225	0.412624	-0.321493	-0.477521	-0.705944
15673		9.601663	5.809548	2.703427	0.059838	-1.265187	0.633812	-0.765869	0.060059	-0.201660	0.411551	-0.331289	-0.480533	-0.699972
15674		9.368080	5.115932	2.395855	-0.404639	-1.327619	0.688529	-0.773682	0.064453	-0.187744	0.409226	-0.343215	-0.480909	-0.695316
15675		9.552291	3.960150	3.366891	-0.302542	-1.393333	0.727074	-0.775146	0.082275	-0.171387	0.407059	-0.355198	-0.481970	-0.689813
15676		10.076995	3.492663	3.689761	-0.301797	-1.422476	0.727196	-0.785156	0.104004	-0.145020	0.404719	-0.367346	-0.482920	-0.684140
15677		10.024589	3.617673	2.965008	-0.319365	-1.390792	0.741420	-0.782715	0.103027	-0.127930	0.402429	-0.379562	-0.483426	-0.678442
15678		9.908391	3.570445	2.309670	-0.088873	-1.340594	0.774886	-0.788086	0.110596	-0.119629	0.401186	-0.390629	-0.485030	-0.671717
15679		9.875703	3.631545	1.588457	-0.245495	-1.347191	0.788573	-0.787842	0.129395	-0.092285	0.399417	-0.402147	-0.485633	-0.665510
15680		9.618151	3.604756	1.389199	-0.706184	-1.374627	0.802258	-0.794189	0.139160	-0.059814	0.395977	-0.415500	-0.483569	-0.660850
15681		9.941370	3.179765	1.469457	-0.806243	-1.498274	0.779943	-0.793457	0.149902	-0.048584	0.391370	-0.429787	-0.481445	-0.655990
15682		10.237210	2.665254	1.839350	-0.746553	-1.440098	0.698103	-0.788818	0.166992	-0.027588	0.386716	-0.443023	-0.479570	-0.651301
15683		10.497530	2.979677	1.500715	-0.583743	-1.357474	0.597572	-0.788086	0.171631	-0.005615	0.382413	-0.454875	-0.478459	-0.646472
15684		10.303578	3.267751	1.065229	-0.666277	-1.301197	0.541933	-0.787842	0.175781	0.012939	0.377622	-0.466360	-0.476928	-0.642222
15685		9.947609	3.473174	0.103520	-0.565920	-1.295459	0.558483	-0.779297	0.178467	0.026611	0.373249	-0.477439	-0.475820	-0.637442
15686		9.680584	2.712834	0.367873	-0.562858	-1.237136	0.575971	-0.783447	0.181885	0.051025	0.369211	-0.488060	-0.474461	-0.632746
15687		10.361827	2.589863	0.180693	-0.582165	-1.269283	0.541827	-0.768555	0.192627	0.079834	0.364605	-0.498745	-0.473244	-0.627978
15688		10.594278	2.741384	-0.507352	-0.671184	-1.261665	0.518150	-0.777588	0.202881	0.088623	0.359482	-0.509650	-0.471513	-0.623462
15689		10.279247	2.762540	-0.042203	-0.671400	-1.175109	0.485205	-0.765381	0.204834	0.108398	0.354486	-0.519837	-0.469463	-0.619446
15690		10.443640	2.820671	0.451250	-0.808998	-1.081134	0.437277	-0.763916	0.205811	0.128174	0.348993	-0.529647	-0.466634	-0.616385
15691		10.646833	3.109207	-0.125922	-0.840988	-1.002862	0.396447	-0.761963	0.215088	0.150391	0.343344	-0.538913	-0.463566	-0.613836
15692		9.779146	2.445507	-0.204737	-0.962822	-0.893668	0.348610	-0.767578	0.216064	0.165283	0.337241	-0.547840	-0.459608	-0.612291
15693		9.843240	1.647828	-0.026327	-0.979019	-0.856969	0.280510	-0.758545	0.220215	0.184326	0.330781	-0.556239	-0.455709	-0.611156
15694		10.393206	1.139374	0.021659	-0.798397	-0.813320	0.254743	-0.757568	0.223877	0.190674	0.325222	-0.563756	-0.452648	-0.609524
15695		10.566917	1.017279	0.001220	-0.542819	-0.708748	0.229734	-0.743408	0.229980	0.203125	0.321203	-0.569797	-0.450681	-0.607492
15696		10.434831	1.119813	-0.014158	-0.316073	-0.593011	0.168250	-0.746582	0.229248	0.220703	0.318423	-0.574372	-0.449831	-0.605273
15697		10.314697	1.173995	-0.166062	-0.129561	-0.507081	0.082807	-0.735840	0.217773	0.216797	0.316381	-0.577669	-0.450107	-0.602997
15698		10.267909	1.173034	-0.539486	0.034512	-0.439441	-0.009231	-0.755371	0.221680	0.230713	0.314945	-0.579777	-0.451491	-0.600686
15699		10.189301	1.100143	-0.834028	0.198426	-0.403450	-0.088012	-0.747803	0.220703	0.233643	0.314022	-0.580995	-0.453952	-0.598133
15700		10.148918	1.092057	-0.955260	0.327844	-0.346594	-0.165437	-0.737793	0.223877	0.237793	0.313564	-0.581284	-0.457281	-0.595551
15701		10.108061	1.286412	-0.970276	0.408329	-0.303809	-0.221609	-0.736084	0.220703	0.242432	0.313383	-0.580927	-0.461160	-0.592998
15702		10.121909	1.597437	-0.983266	0.434684	-0.264927	-0.244078	-0.746338	0.217285	0.239502	0.313357	-0.580210	-0.465164	-0.590582
15703		9.952217	1.874064	-1.007674	0.414202	-0.223017	-0.248207	-0.743408	0.217529	0.239258	0.313369	-0.579305	-0.468967	-0.588453
15704		9.702161	2.260031	-1.107579	0.342059	-0.211027	-0.247902	-0.744141	0.215088	0.243164	0.313080	-0.578521	-0.472376	-0.586648
15705		9.498158	2.468117	-1.081002	0.187302	-0.213048	-0.249121	-0.740479	0.211426	0.241455	0.312023	-0.578141	-0.475032	-0.585440
15706		9.552768	2.468199	-1.105974	-0.002429	-0.222664	-0.235058	-0.745605	0.214355	0.248291	0.310081	-0.578348	-0.476718	-0.584896
15707		9.700204	2.335878	-1.220749	-0.197311	-0.226319	-0.197788	-0.738281	0.207520	0.247070	0.307368	-0.579222	-0.477282	-0.585003
15708		9.723347	2.079093	-1.419636	-0.293435	-0.205976	-0.164615	-0.748047	0.199951	0.244385	0.304428	-0.580365	-0.477161	-0.585506
15709		9.657473	1.761179	-1.470081	-0.307844	-0.196753	-0.130913	-0.743164	0.202637	0.262695	0.301613	-0.581616	-0.476776	-0.586035
15710		9.495973	1.614459	-1.435207	-0.322486	-0.196479	-0.115909	-0.737305	0.195312	0.258545	0.298789	-0.582986	-0.476240	-0.586555
15711		9.492796	1.582736	-1.383658	-0.274562	-0.191685	-0.115757	-0.745117	0.192383	0.266113	0.296221	-0.584194	-0.475923	-0.586914
15712		9.548192	1.501691	-1.249805	-0.188161	-0.188702	-0.120743	-0.737549	0.197021	0.272461	0.294051	-0.585154	-0.476037	-0.586956
15713		9.653262	1.499510	-1.285041	-0.122613	-0.171435	-0.129999	-0.741455	0.193848	0.282227	0.292240	-0.585836	-0.476480	-0.586821
15714		9.701783	1.676948	-1.394559	-0.065068	-0.143768	-0.124004	-0.736328	0.188721	0.287354	0.290837	-0.586268	-0.477098	-0.586585
15715		9.683762	1.801050	-1.416957	-0.019751	-0.124346	-0.113023	-0.740723	0.195557	0.280273	0.289788	-0.586530	-0.477837	-0.586240
15716		9.569185	1.757072	-1.349686	0.008221	-0.103915	-0.112684	-0.729004	0.191895	0.273438	0.288974	-0.586615	-0.478664	-0.585881
15717		9.536627	1.704106	-1.364416	0.014597	-0.099277	-0.119307	-0.739990	0.189697	0.287598	0.288176	-0.586636	-0.479541	-0.585537
15718		9.547727	1.690458	-1.463414	0.017616	-0.102460	-0.123581	-0.734131	0.187500	0.281006	0.287348	-0.586654	-0.480456	-0.585175
15719		9.602743	1.702408	-1.543132	0.031987	-0.097294	-0.113704	-0.732666	0.183594	0.284180	0.286667	-0.586646	-0.481381	-0.584757
15720		9.615701	1.700728	-1.620785	0.056790	-0.080642	-0.099245	-0.744141	0.185791	0.284180	0.286240	-0.586559	-0.482313	-0.584286
15721		9.608300	1.804318	-1.585310	0.082923	-0.073901	-0.099369	-0.742676	0.181641	0.284424	0.285972	-0.586371	-0.483356	-0.583743
15722		9.599845	1.892035	-1.549708	0.090824	-0.074367	-0.087790	-0.735352	0.181885	0.289062	0.285794	-0.586216	-0.484379	-0.583138
15723		9.589535	1.948910	-1.512849	0.079814	-0.066020	-0.077083	-0.752197	0.186523	0.287109	0.285647	-0.586093	-0.485276	-0.582587
15724		9.618541	1.985354	-1.536511	0.071707	-0.050792	-0.069599	-0.740479	0.182617	0.289062	0.285568	-0.585937	-0.486062	-0.582128
15725		9.587953	2.025887	-1.493673	0.078325	-0.027214	-0.049484	-0.736084	0.182373	0.285156	0.285707	-0.585739	-0.486723	-0.581707
15726		9.562460	1.987482	-1.497443	0.076158	-0.010210	-0.023635	-0.743652	0.175293	0.287354	0.286034	-0.585564	-0.487207	-0.581317
15727		9.518138	1.974183	-1.560575	0.077773	0.011639	-0.003407	-0.740234	0.176025	0.288818	0.286540	-0.585364	-0.487539	-0.580990
15728		9.477371	1.987664	-1.601895	0.110783	0.023167	0.007368	-0.739502	0.180176	0.288330	0.287310	-0.585076	-0.487952	-0.580553
15729		9.502353	2.011043	-1.561788	0.123838	0.028570	0.025694	-0.736816	0.190430	0.282959	0.288265	-0.584802	-0.488330	-0.580037
15730		9.577053	2.023973	-1.635461	0.121373	0.040617	0.039671	-0.741455	0.186768	0.286133	0.289349	-0.584522	-0.488609	-0.579545
15731		9.601669	2.039996	-1.674642	0.119576	0.057590	0.045360	-0.740479	0.178711	0.284668	0.290495	-0.584196	-0.488797	-0.579141
15732		9.565170	2.047583	-1.648211	0.111149	0.060919	0.050938	-0.742920	0.177002	0.281738	0.291620	-0.583900	-0.488898	-0.578789
15733		9.550561	2.068374	-1.621879	0.089122	0.063865	0.050347	-0.738525	0.187256	0.276611	0.292648	-0.583636	-0.488888	-0.578545
15734		9.620293	2.123844	-1.680563	0.062456	0.065072	0.050728	-0.729980	0.190430	0.280029	0.293591	-0.583422	-0.488761	-0.578391
15735		9.623625	2.113394	-1.691986	0.047305	0.074705	0.049138	-0.737549	0.190186	0.274170	0.294485	-0.583206	-0.488545	-0.578336
15736		9.545889	1.993153	-1.685434	0.044882	0.076738	0.043188	-0.732422	0.187988	0.279785	0.295349	-0.582947	-0.488338	-0.578332
15737		9.513895	1.930006	-1.661931	0.050768	0.069411	0.036771	-0.736572	0.179688	0.276855	0.296153	-0.582705	-0.488199	-0.578282
15738		9.527141	1.921566	-1.663035	0.063393	0.071719	0.033417	-0.737549	0.189209	0.276123	0.296986	-0.582403	-0.488116	-0.578229
15739		9.493485	1.976381	-1.656025	0.075350	0.075028	0.028357	-0.736084	0.196533	0.270020	0.297906	-0.582027	-0.488126	-0.578126
15740		9.524811	2.067821	-1.693511	0.082854	0.073644	0.032176	-0.736572	0.196533	0.271973	0.298912	-0.581637	-0.488171	-0.577961
15741		9.555688	2.144476	-1.709496	0.071610	0.077239	0.042839	-0.738037	0.197510	0.273926	0.299910	-0.581313	-0.488094	-0.577835
15742		9.527468	2.124487	-1.687351	0.042301	0.084664	0.043141	-0.736084	0.196045	0.275879	0.300785	-0.581035	-0.487851	-0.577865
15743		9.497993	2.090946	-1.663232	-0.001584	0.076968	0.043693	-0.738525	0.191406	0.271973	0.301398	-0.580919	-0.487405	-0.578038
15744		9.516258	2.009387	-1.647218	-0.037684	0.069941	0.050891	-0.732178	0.203613	0.264648	0.301828	-0.580946	-0.486759	-0.578331
15745		9.509643	2.003497	-1.624638	-0.049706	0.065613	0.055945	-0.740967	0.200195	0.265625	0.302287	-0.581017	-0.486077	-0.578593
15746		9.576243	2.004734	-1.633992	-0.057627	0.064967	0.051310	-0.736572	0.200684	0.271973	0.302646	-0.581098	-0.485363	-0.578924
15747		9.605470	2.057058	-1.583090	-0.068966	0.063522	0.048098	-0.742676	0.205566	0.272217	0.302904	-0.581231	-0.484606	-0.579290
15748		9.521310	2.002634	-1.525623	-0.086785	0.070343	0.042558	-0.747803	0.195801	0.266602	0.303096	-0.581344	-0.483781	-0.579766
15749		9.506906	1.915934	-1.413154	-0.112316	0.081567	0.044163	-0.737549	0.192627	0.270020	0.303174	-0.581460	-0.482772	-0.580449
15750		9.491443	1.810977	-1.358667	-0.120889	0.111741	0.055535	-0.739014	0.198242	0.266113	0.303363	-0.581525	-0.481583	-0.581272
15751		9.423993	1.695716	-1.246106	-0.119278	0.162155	0.074575	-0.743164	0.209229	0.267822	0.303903	-0.581395	-0.480202	-0.582262
15752		9.456594	1.524704	-1.081201	-0.108713	0.230813	0.105832	-0.743896	0.205322	0.253418	0.304964	-0.581027	-0.478563	-0.583422
15753		9.538702	1.432457	-0.866386	-0.051901	0.319535	0.141051	-0.736572	0.199463	0.256592	0.306834	-0.580178	-0.476800	-0.584729
15754		9.748250	1.531912	-0.895092	0.059341	0.385132	0.177133	-0.736328	0.203125	0.255615	0.309596	-0.578914	-0.475200	-0.585827
15755		10.053813	1.510968	-0.907009	0.117738	0.442344	0.211121	-0.741943	0.207275	0.247803	0.313024	-0.577361	-0.473564	-0.586862
15756		10.186731	1.328013	-0.829874	0.146460	0.524542	0.216698	-0.742920	0.215820	0.238281	0.316951	-0.575324	-0.471820	-0.588158
15757		10.316488	1.235642	-0.710178	0.217062	0.602752	0.186261	-0.747070	0.216797	0.227539	0.321416	-0.572564	-0.470366	-0.589591
15758		10.438085	1.282649	-0.584830	0.291698	0.653541	0.132049	-0.739990	0.216553	0.219971	0.326151	-0.569110	-0.469378	-0.591120
15759		10.609518	1.403340	-0.494331	0.364273	0.682315	0.090930	-0.748047	0.221924	0.216309	0.331099	-0.565160	-0.468834	-0.592590
15760		10.503554	1.536738	-0.335394	0.437767	0.710474	0.044094	-0.751953	0.223145	0.192627	0.336241	-0.560684	-0.468764	-0.593999
15761		10.514590	1.566560	-0.148856	0.515431	0.745318	-0.033104	-0.764893	0.214355	0.183350	0.341553	-0.555403	-0.469342	-0.595473
15762		10.812696	1.803552	-0.153278	0.518523	0.775552	-0.133521	-0.757812	0.224121	0.179443	0.346365	-0.549550	-0.470246	-0.597406
15763		10.785047	2.105680	-0.206860	0.332821	0.800062	-0.229494	-0.762695	0.222656	0.158691	0.349973	-0.543763	-0.470579	-0.600330
15764		10.584775	2.304829	-0.327416	-0.040281	0.778010	-0.325286	-0.758057	0.220947	0.151123	0.351378	-0.538694	-0.469546	-0.604871
15765		10.346032	2.570130	-0.358959	-0.380199	0.750953	-0.363699	-0.759766	0.221436	0.139160	0.350951	-0.534607	-0.467025	-0.610668
15766		10.026812	2.589476	-0.221835	-0.510473	0.751951	-0.346311	-0.760498	0.217773	0.133301	0.350107	-0.530899	-0.463758	-0.616847
15767		9.838131	2.173557	0.481984	-0.496154	0.836729	-0.299457	-0.769775	0.207031	0.126709	0.349872	-0.526879	-0.460076	-0.623152
15768		10.163369	2.005526	0.915724	-0.321232	0.921097	-0.268442	-0.767578	0.209961	0.107666	0.350760	-0.522013	-0.456859	-0.629086
15769		10.250409	2.018267	0.992808	-0.227953	0.977046	-0.264423	-0.767578	0.199951	0.099854	0.352424	-0.516486	-0.453950	-0.634798
15770		9.944048	2.038213	0.740891	-0.277119	1.012979	-0.252319	-0.776123	0.191162	0.084961	0.353920	-0.510976	-0.450550	-0.640819
15771		10.049628	2.182651	0.860454	-0.136840	1.069705	-0.247795	-0.783936	0.194092	0.080811	0.356157	-0.504698	-0.447662	-0.646554
15772		10.278883	2.203024	1.046723	0.010756	1.115775	-0.237362	-0.780029	0.192871	0.062988	0.359227	-0.497800	-0.445359	-0.651772
15773		10.433851	2.265770	0.964551	0.111987	1.142976	-0.196913	-0.780762	0.192139	0.045166	0.363062	-0.490534	-0.443317	-0.656531
15774		10.435702	2.172437	0.930479	0.160585	1.223305	-0.142069	-0.780762	0.191895	0.021484	0.367704	-0.482810	-0.441031	-0.661196
15775		10.509201	2.029586	1.139719	0.176719	1.300581	-0.119430	-0.779053	0.188232	0.000000	0.372867	-0.474564	-0.438459	-0.665968
15776		10.172507	1.998396	1.319283	0.224206	1.366890	-0.096576	-0.782959	0.187256	-0.011963	0.378530	-0.465792	-0.435784	-0.670705
15777		10.169503	1.842389	1.579671	0.275509	1.419540	-0.086273	-0.778076	0.188232	-0.029053	0.384521	-0.456609	-0.433124	-0.675318
15778		9.881634	1.922128	1.792767	0.276881	1.465512	-0.061961	-0.779297	0.187988	-0.054199	0.390777	-0.447222	-0.430154	-0.679892
15779		9.757050	2.307667	1.957421	0.171898	1.443479	-0.041954	-0.777100	0.185059	-0.073975	0.396677	-0.438241	-0.426517	-0.684599
15780		9.961199	2.986570	2.473629	0.114224	1.437924	-0.016470	-0.771240	0.185547	-0.094971	0.402381	-0.429511	-0.422402	-0.689337
15781		9.421992	3.011353	2.865287	-0.064874	1.506515	-0.002989	-0.765869	0.189453	-0.107910	0.407733	-0.420953	-0.416898	-0.694801
15782		9.664657	2.955596	3.882094	-0.031760	1.552062	-0.022081	-0.770752	0.195801	-0.139648	0.413186	-0.411979	-0.411417	-0.700205
15783		10.023699	2.417073	3.779006	-0.117404	1.597822	-0.074833	-0.761963	0.187744	-0.149170	0.418386	-0.402609	-0.405383	-0.706062
15784		9.774411	2.334077	3.648245	-0.185633	1.585900	-0.112814	-0.751221	0.184570	-0.174072	0.422705	-0.393515	-0.399036	-0.712206
15785		9.751830	2.349354	3.681770	-0.210624	1.569905	-0.170759	-0.754883	0.184326	-0.190674	0.426448	-0.384282	-0.392675	-0.718524
15786		9.047103	2.168518	4.005129	-0.148862	1.547235	-0.164696	-0.744629	0.181396	-0.213867	0.430276	-0.374953	-0.386712	-0.724380
15787		9.718136	2.071909	4.319791	-0.031569	1.508367	-0.215643	-0.739258	0.190918	-0.238281	0.433958	-0.365160	-0.381661	-0.729845
15788		9.225237	1.765763	4.680239	0.045123	1.512641	-0.257293	-0.734619	0.177979	-0.255127	0.437861	-0.354826	-0.377061	-0.734984
15789		8.900968	1.742622	4.798103	0.224499	1.490495	-0.336312	-0.731689	0.176514	-0.274658	0.441386	-0.343702	-0.373862	-0.739780
15790		8.737823	2.001407	4.771110	0.449694	1.463041	-0.445912	-0.720703	0.163330	-0.290039	0.444774	-0.331537	-0.372403	-0.744027
15791		8.195023	2.585437	5.115580	0.564591	1.396727	-0.513359	-0.722656	0.166504	-0.302734	0.447592	-0.319142	-0.372040	-0.747927
15792		7.857985	3.272141	5.401608	0.545185	1.329044	-0.546271	-0.710205	0.149170	-0.335693	0.450010	-0.307200	-0.371815	-0.751581
15793		7.600162	3.634785	6.109660	0.453750	1.285409	-0.569764	-0.709229	0.149902	-0.346924	0.451812	-0.295544	-0.371177	-0.755478
15794		7.078741	2.534494	6.882896	0.540507	1.172541	-0.621297	-0.702393	0.129883	-0.355957	0.453133	-0.284190	-0.371563	-0.758846
15795		7.664627	0.856406	6.745779	0.943378	1.088528	-0.837668	-0.687988	0.122559	-0.377930	0.453518	-0.271157	-0.375348	-0.761518
15796		8.483196	1.484181	5.029672	1.165132	1.169983	-1.110921	-0.694336	0.092041	-0.392822	0.452910	-0.255815	-0.380662	-0.764544
15797		7.610027	4.258698	3.356195	1.019067	1.157765	-1.110607	-0.680176	0.074463	-0.412109	0.451767	-0.241029	-0.385119	-0.767785
15798		7.431768	5.773837	3.495085	0.543093	1.015350	-0.862741	-0.680176	0.062012	-0.418213	0.450731	-0.229673	-0.386452	-0.771198
15799		6.945919	4.806719	4.531218	-0.149240	1.029137	-0.543991	-0.672607	0.055176	-0.434082	0.450378	-0.221895	-0.382663	-0.775559
15800		6.557132	3.843265	5.334758	-0.295900	0.975308	-0.478210	-0.662598	0.054932	-0.444092	0.449982	-0.215170	-0.377975	-0.779970
15801		7.370766	3.372492	5.372740	-0.243217	1.027764	-0.609951	-0.648438	0.047852	-0.467041	0.448942	-0.207488	-0.373609	-0.784739
15802		7.085047	3.619141	5.309952	-0.245610	1.044105	-0.718101	-0.655029	0.045410	-0.474121	0.447234	-0.199270	-0.369294	-0.789870
15803		6.332922	3.789327	4.920672	-0.291569	0.989875	-0.675186	-0.648926	0.036377	-0.484131	0.445483	-0.191786	-0.364796	-0.794788
15804		5.723828	3.567821	5.134505	-0.256227	0.868405	-0.494125	-0.633057	0.040527	-0.491455	0.444575	-0.185499	-0.360695	-0.798650
15805		5.702869	2.675289	5.248840	-0.008118	0.789879	-0.361364	-0.631104	0.038818	-0.493408	0.444652	-0.179230	-0.358249	-0.801136
15806		5.804532	2.676482	5.073598	0.325870	0.789040	-0.408384	-0.625488	0.030273	-0.515869	0.444863	-0.171621	-0.358106	-0.802747
15807		5.414128	3.929457	5.306472	0.518264	0.751376	-0.531534	-0.614990	0.013428	-0.516846	0.444418	-0.163109	-0.359531	-0.804130
15808		5.089794	5.244582	5.526495	0.305450	0.695485	-0.593743	-0.619141	0.016846	-0.520264	0.443082	-0.155546	-0.359852	-0.806220
15809		4.778294	5.672625	5.066117	-0.114744	0.618711	-0.525071	-0.598633	0.010742	-0.532471	0.441348	-0.150344	-0.357481	-0.809207
15810		4.470145	4.507333	5.408079	-0.458425	0.484700	-0.314045	-0.601318	0.008057	-0.540771	0.440221	-0.147854	-0.352995	-0.812243
15811		4.408950	2.558403	5.694083	-0.413925	0.344238	-0.122160	-0.593994	0.016602	-0.539795	0.440033	-0.146705	-0.349117	-0.814227
15812		4.628019	1.584075	5.255045	-0.191113	0.221605	-0.102188	-0.595215	0.014893	-0.534424	0.439869	-0.145657	-0.347149	-0.815344
15813		5.055346	2.131898	4.837698	0.190191	0.203813	-0.166156	-0.602295	0.012939	-0.539795	0.439687	-0.143153	-0.347944	-0.815547
15814		5.248550	3.677465	4.775275	0.287404	0.163001	-0.154404	-0.592529	0.013184	-0.545654	0.439575	-0.140614	-0.349530	-0.815371
15815		4.486734	4.538713	5.419589	-0.071017	0.011024	-0.037752	-0.600098	0.003662	-0.547607	0.439390	-0.140745	-0.349070	-0.815646
15816		3.746757	3.465556	5.708148	-0.170284	-0.137477	0.087881	-0.586914	0.007568	-0.538818	0.439544	-0.142586	-0.348384	-0.815536
15817		3.980288	2.801582	5.273660	-0.107278	-0.265698	0.152114	-0.600586	0.005859	-0.541016	0.439830	-0.145249	-0.348499	-0.814862
15818		4.854201	2.972813	5.143166	0.101030	-0.362745	0.162924	-0.602783	0.014893	-0.528564	0.440161	-0.147839	-0.350389	-0.813406
15819		5.442906	3.802350	5.364448	0.104633	-0.461473	0.180770	-0.609375	0.007324	-0.535645	0.440280	-0.151189	-0.352608	-0.811765
15820		5.143583	4.155530	5.607504	-0.041633	-0.557379	0.241331	-0.608154	0.007812	-0.524170	0.440381	-0.155835	-0.354136	-0.810165
15821		4.846713	3.561811	5.381282	-0.163574	-0.633512	0.320996	-0.611572	0.018799	-0.513184	0.440632	-0.161664	-0.355018	-0.808499
15822		4.883393	3.203595	5.061639	-0.137065	-0.735508	0.382714	-0.620850	0.027100	-0.513428	0.440974	-0.168303	-0.356319	-0.806383
15823		5.099421	3.010093	5.069820	-0.001286	-0.830494	0.411799	-0.634766	0.037109	-0.505859	0.441382	-0.175161	-0.358790	-0.803598
15824		5.611104	3.070034	5.348592	0.219323	-0.921983	0.400001	-0.637207	0.040527	-0.487061	0.441688	-0.181826	-0.363041	-0.800033
15825		6.089936	3.605913	5.532828	0.380746	-0.992589	0.391312	-0.649658	0.035889	-0.481445	0.441926	-0.188344	-0.368621	-0.795831
15826		6.586659	4.151462	5.105401	0.305139	-1.050009	0.440684	-0.659180	0.034180	-0.460205	0.442201	-0.195602	-0.373848	-0.791477
15827		6.357159	4.055288	4.882736	0.113684	-1.107542	0.519272	-0.656982	0.040771	-0.459473	0.442473	-0.204178	-0.377923	-0.787213
15828		6.541900	3.612378	5.154314	0.125929	-1.163872	0.558088	-0.674316	0.048584	-0.443359	0.442815	-0.213110	-0.382108	-0.782619
15829		6.815802	3.186965	4.996943	0.113112	-1.161363	0.551091	-0.680908	0.050049	-0.426758	0.443001	-0.222092	-0.386174	-0.778007
15830		6.728313	2.847352	5.113357	0.360902	-1.220924	0.507195	-0.683594	0.049805	-0.414307	0.443141	-0.230352	-0.392146	-0.772519
15831		7.331094	3.112843	4.988971	0.673053	-1.257434	0.469884	-0.691650	0.049072	-0.399170	0.443495	-0.237483	-0.400295	-0.765949
15832		7.563609	3.999660	3.914785	0.466859	-1.242512	0.519933	-0.698730	0.056641	-0.381592	0.443744	-0.245407	-0.406931	-0.759786
15833		7.008414	3.885346	4.182470	0.393191	-1.305433	0.591444	-0.708496	0.062500	-0.363037	0.443968	-0.254274	-0.413084	-0.753391
15834		7.544759	2.895058	4.154383	0.304413	-1.426528	0.536638	-0.710205	0.052734	-0.347412	0.443143	-0.264041	-0.419178	-0.747125
15835		8.003040	2.748643	4.503179	0.501504	-1.474752	0.445948	-0.721191	0.068115	-0.334229	0.442060	-0.272830	-0.426961	-0.740169
15836		8.510596	2.926508	4.595788	0.801392	-1.452848	0.381891	-0.735107	0.067871	-0.315430	0.441161	-0.280236	-0.436399	-0.732393
15837		9.628190	3.794288	3.761282	0.929848	-1.398114	0.354651	-0.733398	0.065674	-0.292969	0.440480	-0.286710	-0.446421	-0.724213
15838		8.549996	4.611873	2.704308	0.566564	-1.395621	0.431225	-0.749512	0.064697	-0.285645	0.439330	-0.294726	-0.454003	-0.716943
15839		7.447376	3.873453	3.211014	0.275333	-1.493247	0.536313	-0.758545	0.068604	-0.271484	0.437669	-0.304653	-0.459901	-0.710016
15840		8.566865	2.659927	3.736091	0.424693	-1.595695	0.514948	-0.759766	0.074219	-0.235352	0.435792	-0.314455	-0.467033	-0.702199
15841		10.402146	3.593702	3.312259	0.848770	-1.585872	0.468507	-0.763916	0.079346	-0.219238	0.434608	-0.322553	-0.476654	-0.692732
15842		10.079121	5.249562	3.091628	0.685876	-1.515184	0.489888	-0.771484	0.079834	-0.199951	0.433300	-0.330845	-0.484859	-0.683890
15843		8.748217	5.538405	2.260180	0.271858	-1.533679	0.550247	-0.773926	0.088623	-0.186768	0.431022	-0.340882	-0.490565	-0.676288
15844		9.363891	4.518897	2.159563	0.209025	-1.582221	0.583309	-0.781738	0.091553	-0.162842	0.428500	-0.351452	-0.495835	-0.668594
15845		10.294578	3.651647	2.451813	-0.061201	-1.564494	0.594279	-0.781982	0.095947	-0.141602	0.425190	-0.362860	-0.499485	-0.661862
15846		9.985285	3.813288	2.513110	-0.412567	-1.560899	0.584262	-0.790283	0.104248	-0.116699	0.420697	-0.375327	-0.501167	-0.656487
15847		10.189059	4.229911	2.297303	-0.479505	-1.625262	0.558087	-0.797363	0.113281	-0.094482	0.415405	-0.388264	-0.502688	-0.651149
15848		10.938782	4.577562	1.462286	-0.178814	-1.554257	0.550398	-0.788330	0.122314	-0.070801	0.411204	-0.399698	-0.505488	-0.644697
15849		10.522718	4.374417	1.541820	-0.065375	-1.312192	0.552475	-0.787842	0.124023	-0.054443	0.408361	-0.409415	-0.507939	-0.638450
15850		10.192149	4.134718	1.756918	-0.460330	-1.317471	0.513858	-0.788086	0.143799	-0.042969	0.403897	-0.420171	-0.508458	-0.633872
15851		9.584782	3.572489	1.268117	-1.059832	-1.385301	0.485399	-0.782227	0.145020	-0.004883	0.396878	-0.433200	-0.505798	-0.631660
15852		10.002248	3.369597	1.278549	-0.998638	-1.469220	0.458961	-0.786133	0.151855	0.020020	0.389289	-0.446439	-0.503793	-0.628760
15853		10.716371	3.321098	1.034952	-0.862292	-1.433517	0.424691	-0.785889	0.159180	0.035156	0.382009	-0.458872	-0.502362	-0.625410
15854		10.718949	3.165121	0.952784	-0.736248	-1.295041	0.375854	-0.787109	0.164062	0.058105	0.375555	-0.469797	-0.501203	-0.622130
15855		10.591097	2.914664	0.751071	-0.613889	-1.160437	0.343738	-0.780029	0.161865	0.084229	0.369858	-0.479493	-0.500268	-0.618889
15856		10.346062	2.833067	0.231339	-0.678413	-1.143080	0.276674	-0.784180	0.167969	0.096924	0.363572	-0.488925	-0.499215	-0.616078
15857		9.859350	2.676230	-0.113551	-0.915459	-1.134974	0.237837	-0.775879	0.171875	0.112793	0.356224	-0.498701	-0.496941	-0.614371
15858		9.868643	2.559720	0.013221	-0.940375	-1.131716	0.250612	-0.773682	0.170410	0.137939	0.348921	-0.508424	-0.494396	-0.612643
15859		10.428013	2.523786	0.358196	-0.852864	-1.082370	0.262907	-0.776611	0.172607	0.151123	0.342203	-0.517601	-0.492038	-0.610643
15860		10.621099	2.424452	0.210405	-0.774632	-0.977459	0.262707	-0.770752	0.181152	0.163330	0.336256	-0.525906	-0.489723	-0.608708
15861		10.436960	2.197817	-0.139377	-0.633194	-0.867436	0.248865	-0.762695	0.181641	0.176270	0.331303	-0.533139	-0.487828	-0.606651
15862		10.107387	1.737446	-0.461154	-0.492838	-0.796894	0.231613	-0.764404	0.177490	0.190430	0.327147	-0.539512	-0.486494	-0.604338
15863		9.918768	1.210228	-0.652421	-0.357829	-0.743829	0.213776	-0.766602	0.179932	0.198486	0.323689	-0.545149	-0.485745	-0.601739
15864		10.023106	1.045682	-0.646079	-0.212000	-0.677728	0.202887	-0.748291	0.189453	0.209229	0.321102	-0.549987	-0.485577	-0.598851
15865		10.163434	1.191087	-0.503189	-0.129731	-0.582089	0.183140	-0.760010	0.182617	0.218506	0.319183	-0.554037	-0.485640	-0.596087
15866		10.137597	1.421110	-0.372304	-0.069238	-0.487337	0.135985	-0.749268	0.193604	0.228271	0.317665	-0.557251	-0.485948	-0.593645
15867		10.163241	1.639562	-0.348827	-0.015255	-0.416443	0.073472	-0.747314	0.193359	0.236084	0.316387	-0.559713	-0.486622	-0.591455
15868		10.079626	1.760443	-0.671642	0.032522	-0.353838	0.031684	-0.753174	0.183838	0.236572	0.315371	-0.561565	-0.487552	-0.589474
15869		9.699177	1.789917	-0.841805	0.061799	-0.308163	-0.015930	-0.748535	0.188232	0.251465	0.314435	-0.562911	-0.488721	-0.587719
15870		9.584927	1.827688	-0.969924	0.047217	-0.285563	-0.055519	-0.745605	0.187744	0.251709	0.313331	-0.564027	-0.489941	-0.586221
15871		9.837507	1.900124	-0.933998	0.035159	-0.265884	-0.075458	-0.748047	0.178955	0.250000	0.312157	-0.564988	-0.491144	-0.584914
15872		10.115588	1.979515	-0.740395	0.012067	-0.247777	-0.088125	-0.746094	0.183350	0.254883	0.310883	-0.565864	-0.492243	-0.583820
15873		10.002528	2.004661	-0.678875	-0.036623	-0.213211	-0.114394	-0.752930	0.194092	0.262695	0.309397	-0.566589	-0.493138	-0.583151
15874		9.799492	1.912435	-0.888293	-0.063587	-0.176291	-0.135424	-0.741211	0.186279	0.262207	0.307835	-0.567115	-0.493904	-0.582819
15875		9.701732	1.891090	-1.070864	-0.024586	-0.158821	-0.140169	-0.741455	0.179932	0.261963	0.306501	-0.567435	-0.494832	-0.582423
15876		9.789691	1.922499	-1.144839	0.010597	-0.143055	-0.129638	-0.743164	0.177979	0.266846	0.305448	-0.567630	-0.495839	-0.581929
15877		9.885360	1.955547	-1.082160	0.013199	-0.123423	-0.116983	-0.744873	0.182861	0.272949	0.304550	-0.567775	-0.496746	-0.581484
15878		9.792915	1.921086	-1.018883	0.033983	-0.103282	-0.115591	-0.741211	0.173096	0.262695	0.303843	-0.567775	-0.497696	-0.581043
15879		9.664698	2.018566	-0.977818	0.044712	-0.082891	-0.117095	-0.743896	0.171631	0.263916	0.303263	-0.567638	-0.498651	-0.580660
15880		9.559787	2.125504	-1.037021	0.039453	-0.063973	-0.104262	-0.740967	0.174561	0.271240	0.302799	-0.567477	-0.499470	-0.580356
15881		9.494147	2.125251	-1.130539	0.013523	-0.050499	-0.090941	-0.743164	0.172363	0.264404	0.302332	-0.567375	-0.500065	-0.580186
15882		9.647693	2.145389	-1.250201	-0.017041	-0.050764	-0.078575	-0.746826	0.169189	0.270752	0.301784	-0.567395	-0.500456	-0.580115
15883		9.655722	2.139338	-1.392199	-0.017124	-0.056721	-0.078483	-0.747314	0.171387	0.270020	0.301203	-0.567451	-0.500856	-0.580017
15884		9.505771	2.081038	-1.483392	0.009786	-0.049491	-0.090450	-0.741943	0.165039	0.273438	0.300728	-0.567351	-0.501427	-0.579867
15885		9.479583	2.036211	-1.532288	0.030930	-0.054957	-0.098977	-0.744385	0.172119	0.282471	0.300281	-0.567193	-0.502150	-0.579628
15886		9.391091	2.023647	-1.543459	0.039937	-0.069026	-0.100511	-0.739990	0.174072	0.277588	0.299817	-0.567073	-0.502961	-0.579282
15887		9.387657	2.095087	-1.599254	0.031069	-0.075761	-0.092868	-0.752197	0.170654	0.276123	0.299323	-0.567034	-0.503712	-0.578923
15888		9.436106	2.178672	-1.645612	0.012211	-0.087127	-0.073174	-0.740723	0.165771	0.271729	0.298784	-0.567180	-0.504304	-0.578544
15889		9.411453	2.232826	-1.661383	-0.024942	-0.096179	-0.049965	-0.743652	0.173340	0.277344	0.298142	-0.567559	-0.504629	-0.578220
15890		9.324635	2.256277	-1.697100	-0.058383	-0.101483	-0.037191	-0.738770	0.164551	0.272705	0.297386	-0.568100	-0.504748	-0.577973
15891		9.381392	2.188963	-1.687311	-0.081548	-0.105920	-0.018716	-0.742432	0.168945	0.275879	0.296583	-0.568798	-0.504675	-0.577764
15892		9.439288	2.132692	-1.698923	-0.099161	-0.109386	0.008378	-0.749756	0.158691	0.276611	0.295819	-0.569667	-0.504400	-0.577539
15893		9.467870	2.116434	-1.722218	-0.092518	-0.104312	0.036294	-0.736328	0.162842	0.288330	0.295223	-0.570617	-0.504000	-0.577256
15894		9.487294	2.111601	-1.734718	-0.070805	-0.090686	0.049975	-0.737305	0.159912	0.287842	0.294853	-0.571518	-0.503606	-0.576897
15895		9.558721	2.074664	-1.714542	-0.066837	-0.085718	0.064148	-0.746338	0.165527	0.294189	0.294596	-0.572435	-0.503154	-0.576513
15896		9.537209	2.021943	-1.724029	-0.061316	-0.074863	0.074659	-0.736816	0.154297	0.295410	0.294469	-0.573326	-0.502655	-0.576128
15897		9.581313	2.098277	-1.694949	-0.025573	-0.071406	0.086537	-0.741699	0.168945	0.284912	0.294577	-0.574165	-0.502257	-0.575584
15898		9.668226	2.200847	-1.666867	-0.013040	-0.065674	0.090203	-0.736572	0.174072	0.291260	0.294809	-0.574946	-0.501900	-0.574997
15899		9.619541	2.246572	-1.686541	-0.023367	-0.045708	0.088437	-0.741455	0.172363	0.292725	0.295058	-0.575657	-0.501448	-0.574551
15900		9.611080	2.234278	-1.701991	-0.044650	-0.034521	0.077422	-0.740723	0.166504	0.293945	0.295192	-0.576322	-0.500915	-0.574282
15901		9.557540	2.093041	-1.712492	-0.045833	-0.027610	0.071927	-0.740723	0.170410	0.297607	0.295313	-0.576937	-0.500379	-0.574068
15902		9.505646	2.011885	-1.682337	-0.024929	-0.023074	0.067125	-0.741699	0.173340	0.292725	0.295538	-0.577458	-0.499958	-0.573795
15903		9.541437	2.103643	-1.677040	0.004190	-0.015711	0.062840	-0.732422	0.179199	0.298584	0.295921	-0.577846	-0.499685	-0.573446
15904		9.566272	2.153171	-1.618034	0.011410	-0.002984	0.055793	-0.738037	0.168701	0.289795	0.296357	-0.578133	-0.499447	-0.573139
15905		9.463059	2.090894	-1.574413	-0.006368	0.006239	0.041366	-0.735596	0.182617	0.296143	0.296666	-0.578355	-0.499163	-0.573002
15906		9.524287	2.037601	-1.676232	-0.000436	0.009041	0.026957	-0.738525	0.176514	0.293945	0.296964	-0.578489	-0.498981	-0.572871
15907		9.577362	2.031285	-1.684406	0.015481	0.026582	0.026183	-0.738525	0.176025	0.294678	0.297394	-0.578498	-0.498826	-0.572773
15908		9.517066	2.028527	-1.679411	0.042578	0.042882	0.023714	-0.735107	0.173584	0.290771	0.298008	-0.578355	-0.498770	-0.572648
15909		9.530040	2.038573	-1.643767	0.076699	0.045100	0.017375	-0.734863	0.179688	0.288330	0.298765	-0.578088	-0.498901	-0.572409
15910		9.522872	2.065509	-1.567062	0.078026	0.048983	0.010850	-0.738281	0.181396	0.291992	0.299531	-0.577763	-0.499071	-0.572188
15911		9.594629	1.986623	-1.549615	0.062091	0.052277	0.010539	-0.735107	0.176514	0.285400	0.300224	-0.577469	-0.499152	-0.572051
15912		9.585381	1.955207	-1.509836	0.046602	0.069473	0.012934	-0.732178	0.181396	0.294678	0.300918	-0.577138	-0.499099	-0.572067
15913		9.502675	1.884346	-1.413401	0.021714	0.088823	0.009294	-0.745117	0.189941	0.288330	0.301548	-0.576781	-0.498892	-0.572275
15914		9.428783	1.754918	-1.300206	0.002241	0.124978	0.020143	-0.737305	0.183105	0.283936	0.302330	-0.576311	-0.498474	-0.572701
15915		9.479007	1.588062	-1.221236	0.024605	0.171121	0.045307	-0.729980	0.181396	0.286377	0.303502	-0.575681	-0.497906	-0.573208
15916		9.674336	1.379622	-1.155302	0.115806	0.214670	0.088677	-0.735840	0.182617	0.276611	0.305475	-0.574812	-0.497438	-0.573438
15917		9.830018	1.176543	-1.081795	0.239293	0.278019	0.149478	-0.734131	0.185791	0.275146	0.308614	-0.573548	-0.497116	-0.573302
15918		10.004122	1.121166	-1.053821	0.322428	0.345714	0.196201	-0.742188	0.196289	0.268799	0.312641	-0.571944	-0.496778	-0.573015
15919		10.304847	1.334259	-0.993262	0.227236	0.368481	0.205861	-0.743896	0.193604	0.260010	0.316385	-0.570489	-0.495890	-0.573180
15920		10.453827	1.537613	-1.066237	-0.120093	0.316344	0.182806	-0.744141	0.200439	0.261719	0.318126	-0.570098	-0.493568	-0.574609
15921		10.229303	1.547414	-1.066851	-0.168759	0.328249	0.183359	-0.738770	0.201172	0.258545	0.319689	-0.569787	-0.490975	-0.576268
15922		10.369721	1.848123	-0.942513	0.062856	0.354544	0.204102	-0.741455	0.204834	0.247559	0.322547	-0.568822	-0.489313	-0.577043
15923		10.559949	2.235923	-1.071344	0.155330	0.459586	0.182032	-0.739014	0.214111	0.242676	0.326195	-0.566969	-0.487930	-0.577986
15924		10.239288	2.265596	-1.061092	0.184531	0.540754	0.150589	-0.742432	0.204102	0.236816	0.330188	-0.564499	-0.486625	-0.579234
15925		10.278024	2.021747	-0.920944	0.253479	0.573609	0.088835	-0.747803	0.205078	0.223145	0.334216	-0.561465	-0.485772	-0.580588
15926		10.098448	1.693972	-0.921142	0.258658	0.584127	0.015465	-0.748291	0.210205	0.217773	0.337975	-0.558015	-0.485263	-0.582162
15927		9.909712	1.605387	-0.775442	0.292247	0.626519	-0.049108	-0.758789	0.208252	0.213379	0.341754	-0.553994	-0.485090	-0.583937
15928		9.972641	1.628276	-0.611002	0.417309	0.670505	-0.101924	-0.756592	0.217041	0.201416	0.345959	-0.549200	-0.485592	-0.585570
15929		9.884763	1.811854	-0.549753	0.410292	0.699772	-0.168801	-0.759766	0.213623	0.187256	0.350010	-0.543947	-0.486314	-0.587464
15930		9.596075	1.935940	-0.607696	0.358964	0.750085	-0.227360	-0.757568	0.212646	0.186279	0.353731	-0.538311	-0.486882	-0.589950
15931		9.793079	2.019042	-0.316648	0.417838	0.809788	-0.283684	-0.766846	0.208252	0.163086	0.357577	-0.532044	-0.487735	-0.592606
15932		9.766626	1.997889	-0.507897	0.441503	0.849840	-0.310834	-0.773926	0.204834	0.155273	0.361619	-0.525252	-0.488729	-0.595388
15933		9.699707	2.134250	-0.433620	0.541568	0.877680	-0.339398	-0.764648	0.201904	0.142578	0.365981	-0.517909	-0.490190	-0.597947
15934		9.908629	2.179670	-0.282228	0.624172	0.911045	-0.354163	-0.770020	0.198486	0.124268	0.370731	-0.510066	-0.491978	-0.600291
15935		10.013213	2.226808	0.074268	0.593524	0.956885	-0.370210	-0.769287	0.197021	0.108887	0.375470	-0.501919	-0.493520	-0.602941
15936		10.146485	2.388584	0.212815	0.498784	0.973408	-0.383184	-0.773682	0.189697	0.085449	0.379820	-0.493869	-0.494556	-0.606007
15937		9.962455	2.430827	0.240620	0.382985	0.985001	-0.377225	-0.781982	0.187500	0.075195	0.383807	-0.486002	-0.494942	-0.609530
15938		9.807283	2.433763	0.459347	0.336672	0.963874	-0.372072	-0.778076	0.187744	0.054932	0.387482	-0.478409	-0.495077	-0.613092
15939		9.839034	2.432067	0.678985	0.327549	0.943722	-0.367096	-0.784912	0.177979	0.046387	0.391198	-0.470828	-0.495232	-0.616466
15940		9.905738	2.494772	0.716116	0.248194	0.922535	-0.369042	-0.774170	0.168945	0.034912	0.394300	-0.463667	-0.494947	-0.620135
15941		9.694657	2.438429	0.721165	0.191380	0.898434	-0.364890	-0.785156	0.172852	0.020752	0.396970	-0.456875	-0.494345	-0.623942
15942		9.567584	2.284362	0.884066	0.271180	0.831051	-0.366755	-0.791748	0.163086	0.013672	0.399824	-0.450033	-0.494430	-0.627017
15943		9.781460	2.208777	0.781261	0.338428	0.778554	-0.355515	-0.789062	0.163086	-0.000732	0.402565	-0.443359	-0.494906	-0.629637
15944		9.731575	2.218382	0.852631	0.378348	0.819270	-0.331943	-0.788574	0.150635	-0.009033	0.405868	-0.436333	-0.495381	-0.632046
15945		9.604631	2.404523	1.114820	0.349759	0.819018	-0.331870	-0.792236	0.156738	-0.031494	0.408802	-0.429495	-0.495600	-0.634662
15946		9.632906	2.740530	1.208417	0.233459	0.799824	-0.318696	-0.788818	0.149658	-0.042969	0.411708	-0.422921	-0.495328	-0.637404
15947		9.624821	3.009707	1.199619	0.147461	0.801929	-0.292950	-0.785889	0.144775	-0.054443	0.414369	-0.416739	-0.494448	-0.640428
15948		9.246451	2.858830	1.471185	0.157072	0.799696	-0.280581	-0.783691	0.143066	-0.069824	0.417073	-0.410576	-0.493542	-0.643346
15949		9.154431	2.664916	1.638138	0.242959	0.828478	-0.310361	-0.788086	0.132568	-0.077637	0.420132	-0.403724	-0.493100	-0.646025
15950		9.570668	2.668998	1.968266	0.470600	0.893102	-0.380147	-0.782471	0.131836	-0.088379	0.423570	-0.395534	-0.493794	-0.648313
15951		9.705966	2.496463	1.740307	0.562171	0.969618	-0.471290	-0.784912	0.116455	-0.105225	0.427173	-0.386211	-0.494965	-0.650672
15952		9.294013	2.687723	1.712578	0.634260	0.992345	-0.515914	-0.788086	0.112549	-0.124023	0.430635	-0.376289	-0.496509	-0.653023
15953		9.665318	3.482713	2.013746	0.666551	1.008009	-0.538708	-0.783936	0.101562	-0.128906	0.434316	-0.365877	-0.498248	-0.655174
15954		9.836242	4.325421	2.632038	0.595132	1.032372	-0.534865	-0.788574	0.089600	-0.146973	0.437535	-0.355817	-0.499348	-0.657730
15955		9.553200	4.801883	2.890151	0.371702	1.032308	-0.531750	-0.777588	0.086426	-0.169678	0.440065	-0.346466	-0.499195	-0.661142
15956		9.171288	4.574700	3.115167	0.166530	1.040024	-0.531373	-0.781250	0.085938	-0.169678	0.442332	-0.337561	-0.497880	-0.665215
15957		9.273914	4.337265	3.169188	0.157345	1.031723	-0.563671	-0.773926	0.080566	-0.194092	0.444156	-0.328866	-0.496522	-0.669357
15958		9.302768	4.478439	3.149922	0.205317	1.032558	-0.602161	-0.768066	0.071045	-0.217285	0.446173	-0.319531	-0.495526	-0.673263
15959		8.852119	4.558250	3.131628	0.027753	1.024223	-0.585417	-0.771484	0.064697	-0.223877	0.447895	-0.310746	-0.493487	-0.677715
15960		8.558383	4.699893	3.272447	-0.098724	0.978367	-0.546612	-0.768311	0.064941	-0.234375	0.449126	-0.303003	-0.490730	-0.682393
15961		8.465979	4.682744	3.746860	-0.203408	0.905666	-0.516848	-0.760498	0.052002	-0.244385	0.450047	-0.296190	-0.487519	-0.687062
15962		8.440356	4.660971	3.765629	-0.442544	0.855347	-0.493469	-0.756104	0.055420	-0.251709	0.449934	-0.290777	-0.482983	-0.692629
15963		8.673187	5.161218	3.746530	-0.640772	0.792675	-0.475631	-0.759766	0.045166	-0.268555	0.449288	-0.286555	-0.477442	-0.698624
15964		8.522472	5.481166	4.006600	-0.795060	0.733416	-0.426984	-0.751221	0.038086	-0.275391	0.448225	-0.283326	-0.471098	-0.704902
15965		8.238871	5.321348	3.822304	-0.983155	0.690312	-0.364793	-0.753174	0.042725	-0.291748	0.446606	-0.281389	-0.463583	-0.711656
15966		7.935965	4.585316	3.639876	-1.218375	0.700315	-0.269377	-0.753174	0.052246	-0.295166	0.445308	-0.280415	-0.454389	-0.718748
15967		7.736991	3.647294	3.852155	-1.281302	0.727961	-0.172840	-0.742920	0.053223	-0.294189	0.444571	-0.279915	-0.444421	-0.725599
15968		8.065555	2.909271	4.293862	-1.103488	0.750864	-0.156292	-0.737061	0.053223	-0.305908	0.444032	-0.278870	-0.435303	-0.731833
15969		8.296106	2.802599	4.600698	-0.959674	0.795867	-0.197525	-0.737061	0.074219	-0.312744	0.443620	-0.276809	-0.426937	-0.737769
15970		8.438867	3.700488	4.830053	-0.776100	0.825023	-0.251171	-0.734375	0.066406	-0.324463	0.443771	-0.273653	-0.419647	-0.743019
15971		8.330531	4.104556	5.017891	-0.698778	0.859277	-0.241593	-0.722900	0.068115	-0.336426	0.444027	-0.270015	-0.412676	-0.748085
15972		8.273997	3.801447	4.922336	-0.704622	0.922355	-0.221610	-0.715332	0.071533	-0.348877	0.444533	-0.266043	-0.405320	-0.753212
15973		8.301368	3.290040	4.878083	-0.745341	0.978151	-0.220132	-0.707764	0.065430	-0.354980	0.445113	-0.261843	-0.397442	-0.758520
15974		8.141358	2.743159	5.298869	-0.629293	1.014607	-0.194472	-0.705078	0.072998	-0.377441	0.445946	-0.257126	-0.390096	-0.763442
15975		8.187068	2.372259	5.686244	-0.419636	1.089180	-0.215665	-0.702148	0.073730	-0.375000	0.447515	-0.250944	-0.383801	-0.767759
15976		7.928362	2.574949	5.550954	-0.217089	1.162216	-0.283430	-0.698730	0.077637	-0.383789	0.449096	-0.243481	-0.378656	-0.771783
15977		7.623460	3.510066	5.715777	-0.120239	1.202339	-0.327475	-0.686279	0.073242	-0.408691	0.450678	-0.235283	-0.374021	-0.775654
15978		6.902538	3.990938	6.041496	-0.262369	1.144541	-0.285299	-0.674561	0.072266	-0.420898	0.452072	-0.227987	-0.368554	-0.779629
15979		6.592969	3.340727	5.835653	-0.328495	1.115258	-0.261819	-0.668701	0.077148	-0.441406	0.453326	-0.221187	-0.362683	-0.783602
15980		6.572804	2.495948	5.791873	-0.282257	1.111162	-0.241238	-0.666748	0.070557	-0.447510	0.454790	-0.214255	-0.357039	-0.787264
15981		6.627224	2.300553	5.748569	-0.208986	1.085843	-0.222316	-0.649170	0.071045	-0.451172	0.456324	-0.207285	-0.351967	-0.790519
15982		6.528556	2.776202	5.674816	-0.064193	1.038218	-0.252601	-0.646484	0.062744	-0.465088	0.457688	-0.200002	-0.348041	-0.793340
15983		6.205585	3.363077	5.529311	-0.039612	0.977840	-0.294627	-0.638916	0.063965	-0.488525	0.458635	-0.192853	-0.344589	-0.796065
15984		5.616048	3.369817	5.425221	-0.026907	0.927264	-0.282512	-0.634033	0.066406	-0.493408	0.459548	-0.185980	-0.341340	-0.798570
15985		5.305395	2.772702	5.408355	-0.115564	0.793452	-0.241665	-0.616211	0.064453	-0.498291	0.460142	-0.180497	-0.337918	-0.800938
15986		4.888849	2.037609	5.349028	-0.186162	0.668172	-0.154293	-0.617432	0.071777	-0.493164	0.460844	-0.176346	-0.334361	-0.802949
15987		4.844557	2.011657	5.359820	0.053089	0.549025	-0.099649	-0.610107	0.067383	-0.517090	0.461859	-0.172286	-0.332768	-0.803908
15988		4.979718	2.845107	4.991020	0.210007	0.443822	-0.092006	-0.612793	0.064697	-0.512939	0.462925	-0.168269	-0.332625	-0.804206
15989		4.888981	3.386420	5.071635	0.209103	0.342945	-0.096945	-0.611816	0.059570	-0.521484	0.463645	-0.164944	-0.332884	-0.804372
15990		4.598398	3.599496	5.205622	0.086829	0.207453	-0.072658	-0.601807	0.054199	-0.523193	0.463998	-0.163048	-0.332818	-0.804583
15991		4.555670	3.215866	5.041096	-0.031694	0.091007	-0.003098	-0.610840	0.064209	-0.521973	0.464350	-0.162567	-0.332316	-0.804685
15992		4.400977	2.483394	4.985817	-0.061350	-0.050143	0.095365	-0.604248	0.054199	-0.525391	0.464881	-0.163463	-0.332009	-0.804323
15993		4.408242	2.150149	4.803046	0.113476	-0.224919	0.150919	-0.609619	0.060547	-0.518799	0.465598	-0.164955	-0.333502	-0.802985
15994		4.770892	2.656475	4.584720	0.166335	-0.351756	0.167874	-0.609375	0.063965	-0.522705	0.466103	-0.167172	-0.335798	-0.801275
15995		5.039682	3.218899	4.731449	0.112487	-0.429724	0.193993	-0.614990	0.067871	-0.508301	0.466488	-0.170180	-0.337983	-0.799497
15996		5.332215	3.461189	5.035661	0.042328	-0.541642	0.230528	-0.615967	0.065918	-0.509033	0.466663	-0.174336	-0.340080	-0.797608
15997		5.334572	3.150107	5.386689	-0.043945	-0.681169	0.295898	-0.626221	0.068359	-0.507080	0.466777	-0.179897	-0.342054	-0.795459
15998		5.383448	2.428804	5.452898	-0.019343	-0.811660	0.331945	-0.636719	0.073486	-0.486816	0.466777	-0.186319	-0.344633	-0.792863
15999		5.814987	2.366534	5.267453	0.163460	-0.857654	0.309451	-0.634521	0.071777	-0.480225	0.466718	-0.192294	-0.348615	-0.789724
16000		6.013110	2.798758	4.825685	0.249763	-0.908478	0.311549	-0.640137	0.078369	-0.472900	0.466671	-0.198227	-0.353342	-0.786176
16001		5.687408	3.005525	4.898230	0.298119	-1.015965	0.343824	-0.652344	0.072754	-0.459229	0.466543	-0.204772	-0.358703	-0.782137
16002		5.856508	2.860390	5.169198	0.369022	-1.135593	0.380768	-0.662354	0.080322	-0.447998	0.466391	-0.211896	-0.364926	-0.777437
16003		6.619338	3.087899	5.486816	0.522563	-1.213863	0.388227	-0.668457	0.071289	-0.437012	0.466231	-0.218956	-0.372363	-0.772031
16004		7.162486	3.718399	4.961518	0.510097	-1.244102	0.405386	-0.678955	0.091797	-0.429688	0.466061	-0.226227	-0.379797	-0.766396
16005		6.792444	3.688554	4.763367	0.489581	-1.300103	0.430956	-0.689209	0.081787	-0.405518	0.465683	-0.234067	-0.387121	-0.760585
16006		6.989484	3.642695	4.502334	0.443063	-1.354309	0.443947	-0.691895	0.080078	-0.399658	0.465084	-0.242405	-0.394346	-0.754604
16007		7.056574	3.573258	4.511969	0.286759	-1.400173	0.466346	-0.697510	0.081543	-0.377686	0.464146	-0.251611	-0.400673	-0.748813
16008		7.308140	2.933354	4.866221	0.314728	-1.483704	0.440269	-0.708984	0.082275	-0.345703	0.462732	-0.261113	-0.407495	-0.742729
16009		8.110690	2.316918	4.743907	0.529874	-1.527648	0.310930	-0.719971	0.085205	-0.332031	0.460695	-0.269623	-0.416038	-0.736190
16010		8.754806	2.464029	4.139273	1.004155	-1.433768	0.223191	-0.732910	0.083984	-0.321533	0.459419	-0.275378	-0.427224	-0.728410
16011		9.202064	2.581665	4.287183	1.357290	-1.338856	0.223416	-0.735107	0.076904	-0.307129	0.459188	-0.279136	-0.440078	-0.719417
16012		9.089492	3.251076	3.022545	1.134251	-1.375087	0.238002	-0.743896	0.076660	-0.293701	0.458308	-0.283922	-0.451606	-0.710910
16013		7.855720	3.867528	2.768583	0.957548	-1.483861	0.266448	-0.749023	0.066895	-0.265869	0.456657	-0.290084	-0.462318	-0.702551
16014		7.572166	3.381950	2.654713	1.017516	-1.589641	0.286009	-0.760986	0.063477	-0.257080	0.454738	-0.296631	-0.473685	-0.693430
16015		8.500704	3.659664	2.872941	1.346994	-1.613786	0.273890	-0.763916	0.063232	-0.239258	0.453383	-0.301871	-0.486958	-0.682781
16016		9.802927	4.764239	2.738031	1.641760	-1.572747	0.321240	-0.773193	0.059814	-0.214600	0.453046	-0.305854	-0.501448	-0.670635
16017		10.642816	6.224719	2.848525	1.559642	-1.544980	0.450299	-0.774170	0.055176	-0.198486	0.453120	-0.310466	-0.514872	-0.658179
16018		9.078459	7.023639	0.915545	0.471441	-1.563361	0.561220	-0.776611	0.063721	-0.177002	0.450812	-0.319607	-0.522002	-0.649718
16019		8.355907	6.384416	1.717246	-0.065626	-1.614575	0.614505	-0.781982	0.072754	-0.154053	0.447012	-0.331248	-0.526142	-0.643141
16020		10.063371	4.980376	2.390434	-0.152199	-1.618615	0.700190	-0.786865	0.077637	-0.127930	0.443285	-0.343569	-0.529473	-0.636488
16021		11.065125	4.520697	2.850354	-0.210258	-1.544470	0.695780	-0.794434	0.091309	-0.105225	0.439553	-0.355631	-0.532151	-0.630186
16022		11.824444	4.967353	2.447209	-0.326679	-1.522945	0.639652	-0.795898	0.099121	-0.096680	0.435136	-0.367763	-0.534150	-0.624572
16023		10.292393	5.342357	0.088347	-0.883207	-1.503194	0.621171	-0.793213	0.112061	-0.061523	0.429027	-0.381499	-0.533152	-0.621404
16024		9.023946	4.656072	0.379937	-0.899367	-1.541838	0.601003	-0.785156	0.119873	-0.040527	0.422335	-0.395507	-0.532071	-0.618149
16025		10.174677	2.829108	0.954736	-0.934342	-1.565736	0.614139	-0.790039	0.128418	-0.013428	0.415421	-0.409675	-0.530729	-0.614751
16026		11.095626	2.225310	1.191437	-0.672005	-1.497829	0.574713	-0.797363	0.132812	0.005615	0.409320	-0.422392	-0.530475	-0.610441
16027		10.718807	2.738839	1.526854	-0.314254	-1.346563	0.462503	-0.785156	0.143799	0.031250	0.404495	-0.432500	-0.531853	-0.605360
16028		10.753478	4.010381	1.209153	-0.232236	-1.292559	0.393421	-0.791016	0.148926	0.052246	0.399745	-0.441829	-0.533541	-0.600271
16029		9.974126	4.342466	0.243058	-0.728854	-1.267364	0.362764	-0.789307	0.160400	0.070312	0.392993	-0.452540	-0.532660	-0.597526
16030		9.435334	3.488334	0.183490	-1.133623	-1.260960	0.320470	-0.785645	0.148682	0.091309	0.384481	-0.464310	-0.529728	-0.596639
16031		10.104875	2.619495	0.401560	-1.235564	-1.267448	0.327724	-0.782227	0.154053	0.106689	0.375563	-0.476173	-0.526329	-0.595978
16032		10.575194	2.260058	0.358097	-1.241088	-1.204735	0.337459	-0.787109	0.172119	0.130371	0.366970	-0.487610	-0.522544	-0.595414
16033		10.379260	2.215651	0.149416	-1.116043	-1.095759	0.311080	-0.774170	0.161133	0.151367	0.359114	-0.498050	-0.518903	-0.594746
16034		10.368225	2.312279	-0.158812	-0.893281	-1.010122	0.260950	-0.766846	0.166260	0.161621	0.352317	-0.506972	-0.516354	-0.593490
16035		10.329129	2.108043	-0.544043	-0.725924	-0.951709	0.225157	-0.768555	0.164795	0.181152	0.346351	-0.514835	-0.514576	-0.591775
16036		10.191305	1.627434	-0.840274	-0.620109	-0.923289	0.182290	-0.767822	0.165527	0.191650	0.340688	-0.522033	-0.513361	-0.589808
16037		10.279037	1.338371	-0.851281	-0.536497	-0.890215	0.137536	-0.768066	0.163818	0.213867	0.335316	-0.528566	-0.512632	-0.587698
16038		10.432823	1.474298	-0.651452	-0.517419	-0.793030	0.098097	-0.766602	0.172119	0.223633	0.330201	-0.534390	-0.511846	-0.586011
16039		10.436192	1.665984	-0.553340	-0.502862	-0.675855	0.036726	-0.760742	0.170654	0.235352	0.325374	-0.539284	-0.511070	-0.584904
16040		10.212382	1.874969	-0.566218	-0.443951	-0.593022	-0.046115	-0.758545	0.162354	0.244629	0.320747	-0.543235	-0.510707	-0.584119
16041		9.777232	1.883096	-0.800347	-0.367302	-0.545280	-0.122617	-0.756836	0.164795	0.258789	0.316282	-0.546405	-0.510916	-0.583414
16042		9.410891	1.876373	-0.830464	-0.282965	-0.495621	-0.185764	-0.759521	0.154541	0.261963	0.312102	-0.548827	-0.511679	-0.582723
16043		9.402817	1.999528	-0.824787	-0.174709	-0.446733	-0.214338	-0.750732	0.155029	0.267090	0.308481	-0.550592	-0.512960	-0.581859
16044		9.766033	2.149535	-0.778482	-0.037027	-0.370218	-0.229469	-0.752441	0.152588	0.275146	0.305745	-0.551558	-0.514774	-0.580785
16045		9.935824	2.253937	-0.785543	0.035406	-0.294179	-0.257705	-0.753906	0.146973	0.273682	0.303526	-0.551846	-0.516867	-0.579816
16046		9.758525	2.306724	-0.939284	0.059815	-0.236438	-0.290620	-0.748291	0.147705	0.279297	0.301508	-0.551643	-0.519077	-0.579088
16047		9.736311	2.368262	-1.154261	0.093493	-0.202078	-0.318279	-0.750244	0.141113	0.282959	0.299659	-0.551065	-0.521485	-0.578433
16048		9.813669	2.494568	-1.405839	0.121250	-0.181385	-0.326753	-0.742676	0.134521	0.278320	0.297980	-0.550278	-0.524005	-0.577772
16049		9.697329	2.466720	-1.501304	0.104772	-0.155722	-0.334331	-0.752686	0.139648	0.278564	0.296301	-0.549367	-0.526413	-0.577313
16050		9.613530	2.398025	-1.498147	0.073390	-0.147244	-0.340567	-0.752441	0.133789	0.288330	0.294493	-0.548454	-0.528678	-0.577037
16051		9.561310	2.492177	-1.411156	0.055111	-0.145819	-0.317375	-0.748779	0.128662	0.286865	0.292704	-0.547688	-0.530732	-0.576789
16052		9.441813	2.679478	-1.428488	0.067664	-0.135556	-0.297995	-0.750977	0.122559	0.291992	0.291112	-0.546919	-0.532730	-0.576482
16053		9.399056	2.795684	-1.391043	0.084926	-0.120193	-0.283638	-0.756836	0.125977	0.286133	0.289729	-0.546098	-0.534701	-0.576132
16054		9.380895	2.867390	-1.433211	0.075795	-0.100145	-0.287312	-0.743164	0.112549	0.289307	0.288392	-0.545171	-0.536603	-0.575914
16055		9.385226	2.793867	-1.459462	0.040857	-0.091566	-0.275161	-0.756592	0.114502	0.297607	0.286969	-0.544353	-0.538244	-0.575867
16056		9.390577	2.730683	-1.587112	0.037187	-0.082334	-0.247148	-0.758301	0.104492	0.294922	0.285713	-0.543617	-0.539720	-0.575804
16057		9.375816	2.675872	-1.693013	0.066318	-0.068732	-0.220897	-0.753906	0.113770	0.293945	0.284773	-0.542863	-0.541180	-0.575612
16058		9.348340	2.660586	-1.684662	0.097731	-0.052900	-0.193692	-0.751465	0.104004	0.296875	0.284191	-0.542071	-0.542639	-0.575272
16059		9.346689	2.715780	-1.665688	0.112770	-0.034448	-0.157823	-0.753418	0.097656	0.298828	0.283917	-0.541326	-0.543950	-0.574870
16060		9.289575	2.817364	-1.677042	0.126550	-0.017887	-0.120401	-0.746826	0.102539	0.305420	0.283956	-0.540638	-0.545117	-0.574393
16061		9.247482	2.986750	-1.709456	0.127887	-0.006595	-0.077662	-0.748779	0.105957	0.298584	0.284265	-0.540084	-0.546074	-0.573852
16062		9.256165	3.081036	-1.738639	0.103001	0.001621	-0.033870	-0.753662	0.108887	0.295166	0.284714	-0.539742	-0.546698	-0.573357
16063		9.212957	2.987068	-1.791723	0.060647	0.002821	0.000539	-0.750000	0.105469	0.295654	0.285143	-0.539649	-0.546962	-0.572979
16064		9.111161	2.767480	-1.787047	0.030307	0.008022	0.018902	-0.752686	0.106201	0.302002	0.285539	-0.539694	-0.546981	-0.572722
16065		9.085129	2.625190	-1.825212	0.034121	0.003138	0.044294	-0.753418	0.104248	0.299316	0.286048	-0.539872	-0.546913	-0.572364
16066		9.105391	2.643385	-1.911108	0.063466	-0.003351	0.076023	-0.749756	0.109131	0.300293	0.286814	-0.540152	-0.546858	-0.571769
16067		9.237157	2.802082	-1.921298	0.105692	-0.010572	0.100442	-0.745850	0.104248	0.292969	0.287857	-0.540475	-0.546914	-0.570886
16068		9.294984	2.978860	-1.944897	0.117647	-0.009954	0.105374	-0.747314	0.102051	0.295898	0.288975	-0.540788	-0.546998	-0.569943
16069		9.370973	3.084192	-1.935798	0.077938	-0.021403	0.111368	-0.753418	0.115234	0.303955	0.289885	-0.541283	-0.546889	-0.569115
16070		9.289580	3.098402	-1.984718	0.014703	-0.029380	0.128017	-0.740234	0.115234	0.298584	0.290564	-0.542037	-0.546433	-0.568489
16071		9.217152	3.026114	-1.987153	-0.031549	-0.032628	0.145385	-0.742188	0.109131	0.303711	0.291098	-0.542996	-0.545685	-0.568019
16072		9.294652	3.024483	-2.001569	-0.074982	-0.043486	0.168816	-0.739014	0.114746	0.296875	0.291486	-0.544224	-0.544642	-0.567645
16073		9.296902	2.941584	-1.990874	-0.121693	-0.040909	0.183213	-0.737793	0.117432	0.297119	0.291754	-0.545607	-0.543315	-0.567452
16074		9.201845	2.775663	-2.017625	-0.133798	-0.044535	0.182410	-0.747314	0.128906	0.303955	0.291944	-0.547032	-0.541940	-0.567297
16075		9.213787	2.694734	-1.955757	-0.130147	-0.059182	0.192258	-0.743164	0.123779	0.303711	0.292136	-0.548557	-0.540576	-0.567027
16076		9.231308	2.670065	-1.927781	-0.135279	-0.057164	0.206244	-0.741943	0.130371	0.306885	0.292364	-0.550154	-0.539105	-0.566762
16077		9.287265	2.690530	-1.901419	-0.129759	-0.061020	0.211970	-0.739746	0.124023	0.309082	0.292633	-0.551775	-0.537647	-0.566432
16078		9.327171	2.650300	-1.873191	-0.144780	-0.054774	0.212124	-0.741943	0.128906	0.310547	0.292845	-0.553411	-0.536088	-0.566205
16079		9.376853	2.626212	-1.812153	-0.166507	-0.041804	0.210974	-0.739990	0.128418	0.311279	0.293018	-0.555023	-0.534405	-0.566128
16080		9.437266	2.587196	-1.821654	-0.152335	-0.031878	0.202797	-0.740234	0.129150	0.314453	0.293258	-0.556516	-0.532798	-0.566053
16081		9.496268	2.564396	-1.830597	-0.114166	-0.015629	0.176476	-0.743652	0.137207	0.304932	0.293622	-0.557720	-0.531450	-0.565946
16082		9.520846	2.411118	-1.816465	-0.087697	-0.008664	0.145336	-0.737061	0.137207	0.314941	0.294012	-0.558671	-0.530367	-0.565822
16083		9.429110	2.270318	-1.811098	-0.065811	0.008124	0.110996	-0.740967	0.131836	0.308350	0.294396	-0.559355	-0.529492	-0.565767
16084		9.468769	2.184936	-1.755508	-0.006631	0.018136	0.086940	-0.737305	0.137451	0.315186	0.294985	-0.559736	-0.528980	-0.565562
16085		9.546484	2.335922	-1.776226	0.077779	0.029983	0.078097	-0.741699	0.143799	0.306641	0.295981	-0.559817	-0.528879	-0.565055
16086		9.511722	2.467098	-1.764970	0.127222	0.049595	0.055018	-0.739014	0.146240	0.300537	0.297204	-0.559564	-0.529083	-0.564472
16087		9.441042	2.499007	-1.667857	0.117647	0.062622	0.021065	-0.743896	0.148682	0.306396	0.298284	-0.559120	-0.529368	-0.564075
16088		9.395812	2.404013	-1.690613	0.095753	0.076463	-0.006759	-0.741455	0.147217	0.304688	0.299179	-0.558553	-0.529637	-0.563910
16089		9.300526	2.282228	-1.636054	0.106546	0.108019	-0.026769	-0.751221	0.136719	0.308105	0.300162	-0.557727	-0.529964	-0.563898
16090		9.283479	2.254200	-1.600317	0.133368	0.136029	-0.039519	-0.743896	0.149902	0.304688	0.301288	-0.556674	-0.530370	-0.563956
16091		9.286028	2.255661	-1.603314	0.169354	0.166450	-0.037289	-0.745117	0.147461	0.300781	0.302783	-0.555361	-0.530900	-0.563952
16092		9.313437	2.200419	-1.496681	0.189503	0.208568	-0.024802	-0.749756	0.148438	0.297852	0.304604	-0.553856	-0.531349	-0.564029
16093		9.342630	2.128717	-1.361839	0.211657	0.260717	-0.004522	-0.750244	0.146240	0.290771	0.306852	-0.552134	-0.531672	-0.564194
16094		9.382355	2.093108	-1.355301	0.257184	0.312473	0.026906	-0.744629	0.145020	0.289551	0.309679	-0.550187	-0.531922	-0.564316
16095		9.530802	2.010875	-1.358692	0.268143	0.362023	0.080343	-0.746582	0.153564	0.285156	0.313001	-0.548228	-0.531826	-0.564479
16096		9.661940	1.904225	-1.330599	0.198268	0.403656	0.148721	-0.747070	0.158691	0.287354	0.316535	-0.546533	-0.530993	-0.564938
16097		9.705262	1.973329	-1.341992	0.068875	0.452050	0.206761	-0.751465	0.152588	0.262939	0.319946	-0.545216	-0.529137	-0.566029
16098		9.890364	2.217724	-1.366653	0.023353	0.491891	0.237261	-0.756836	0.165283	0.261963	0.323486	-0.543918	-0.526825	-0.567420
16099		10.165540	2.453962	-1.203627	0.070227	0.509533	0.251811	-0.748535	0.164307	0.252197	0.327399	-0.542458	-0.524624	-0.568611
16100		10.392638	2.433589	-1.128121	0.030466	0.528922	0.225301	-0.747314	0.170410	0.245117	0.331064	-0.540899	-0.522275	-0.570135
16101		10.401159	2.404657	-1.220583	-0.080721	0.559936	0.175542	-0.753174	0.176025	0.237549	0.334134	-0.539262	-0.519533	-0.572396
16102		10.304868	2.461496	-1.162575	-0.070431	0.571641	0.142953	-0.757812	0.172852	0.229248	0.337159	-0.537371	-0.516956	-0.574729
16103		10.236893	2.400973	-0.911660	0.007191	0.576922	0.115042	-0.756592	0.174561	0.235107	0.340383	-0.535116	-0.514827	-0.576839
16104		10.126810	2.400654	-0.730011	0.018004	0.599070	0.072462	-0.765137	0.175781	0.222168	0.343466	-0.532598	-0.512817	-0.579128
16105		10.040621	2.448885	-0.630591	0.004192	0.605422	0.025667	-0.760986	0.169434	0.202881	0.346315	-0.529838	-0.510938	-0.581618
16106		10.000112	2.604532	-0.613678	-0.004144	0.616730	-0.017354	-0.764893	0.176514	0.195801	0.348976	-0.526815	-0.509179	-0.584311
16107		9.749943	2.477583	-0.450308	-0.025179	0.634485	-0.069678	-0.765137	0.178223	0.185547	0.351412	-0.523500	-0.507516	-0.587269
16108		9.705757	2.242139	-0.348669	0.040969	0.683364	-0.116848	-0.766113	0.177490	0.182129	0.354138	-0.519514	-0.506247	-0.590259
16109		10.008348	2.154334	-0.221519	0.171288	0.713973	-0.157547	-0.766846	0.171143	0.171143	0.357302	-0.514844	-0.505656	-0.592944
16110		9.813970	1.986603	-0.385867	0.163762	0.782748	-0.186060	-0.770264	0.173584	0.168213	0.360520	-0.509737	-0.504894	-0.596050
16111		9.800072	1.969484	-0.122395	0.263383	0.843783	-0.244090	-0.778564	0.166504	0.145996	0.364090	-0.503796	-0.504647	-0.599132
16112		10.172506	2.103925	0.094940	0.355877	0.871940	-0.292352	-0.781494	0.158691	0.137939	0.367951	-0.497128	-0.504980	-0.602056
16113		10.220659	2.375790	0.188337	0.414896	0.906294	-0.312716	-0.777344	0.161377	0.122070	0.371961	-0.490060	-0.505488	-0.604953
16114		10.154914	2.660127	0.248858	0.476628	0.949718	-0.336812	-0.785645	0.159180	0.105713	0.376367	-0.482376	-0.506292	-0.607725
16115		10.086521	2.801462	0.483480	0.446229	1.011563	-0.369202	-0.778564	0.158447	0.091064	0.380761	-0.474252	-0.506858	-0.610901
16116		10.360068	3.031747	0.796862	0.447005	1.058748	-0.387212	-0.794678	0.150635	0.074219	0.385275	-0.465749	-0.507318	-0.614223
16117		10.458811	3.274853	0.692510	0.380137	1.097991	-0.375313	-0.790283	0.145264	0.056152	0.389683	-0.457255	-0.507197	-0.617913
16118		9.926390	3.277951	0.815319	0.221988	1.143849	-0.357004	-0.787354	0.139404	0.040771	0.393755	-0.449051	-0.505996	-0.622317
16119		10.032375	3.310686	1.173506	0.165569	1.148737	-0.366103	-0.786621	0.140869	0.027100	0.397516	-0.440944	-0.504450	-0.626961
16120		10.290802	3.454772	1.474536	0.173321	1.155372	-0.379940	-0.793213	0.136475	0.010742	0.401295	-0.432654	-0.502947	-0.631520
16121		10.236771	3.530597	1.354405	0.170057	1.192941	-0.378213	-0.795898	0.128174	-0.011475	0.405201	-0.424123	-0.501245	-0.636149
16122		10.183981	3.289393	1.685580	0.094578	1.261916	-0.385593	-0.793457	0.125488	-0.028809	0.409071	-0.415345	-0.498890	-0.641295
16123		10.044519	3.022771	1.723353	0.141113	1.256927	-0.429015	-0.784912	0.119141	-0.039551	0.412847	-0.406184	-0.496900	-0.646268
16124		9.979069	2.988197	1.944782	0.237002	1.261279	-0.479469	-0.790527	0.122070	-0.060791	0.416505	-0.396531	-0.495450	-0.651011
16125		9.941871	3.026435	1.961118	0.337178	1.234505	-0.489004	-0.786865	0.102783	-0.079102	0.420564	-0.386424	-0.494702	-0.655037
16126		9.671650	2.778949	2.109077	0.313230	1.269113	-0.466645	-0.793701	0.102295	-0.099365	0.424465	-0.376374	-0.493457	-0.659297
16127		9.697862	2.603474	2.552492	0.450490	1.319509	-0.456630	-0.791992	0.089844	-0.116455	0.429212	-0.365427	-0.492756	-0.662897
16128		9.793620	2.551052	2.894853	0.602386	1.368749	-0.478279	-0.787842	0.083496	-0.139893	0.434259	-0.353605	-0.492642	-0.666098
16129		9.841353	3.042477	2.787838	0.667561	1.375992	-0.515897	-0.775391	0.078125	-0.155029	0.439357	-0.341202	-0.492912	-0.669018
16130		9.521409	3.865304	2.801590	0.580860	1.383329	-0.554661	-0.782715	0.073975	-0.179443	0.443912	-0.328916	-0.492660	-0.672341
16131		9.300242	4.686015	2.754957	0.353679	1.330808	-0.607884	-0.775879	0.058350	-0.196777	0.447512	-0.317327	-0.491455	-0.676393
16132		8.832075	5.004189	2.529161	0.045427	1.274641	-0.603504	-0.769531	0.051025	-0.211182	0.449798	-0.307278	-0.488574	-0.681585
16133		8.676320	4.699154	2.889389	-0.085451	1.198555	-0.588180	-0.774170	0.051514	-0.225342	0.451416	-0.298224	-0.485108	-0.686991
16134		8.832246	4.194551	2.865069	-0.268151	1.126321	-0.626817	-0.760254	0.044678	-0.238770	0.452226	-0.290015	-0.480948	-0.692872
16135		8.376749	4.090707	3.228060	-0.428132	1.089111	-0.640569	-0.771729	0.031494	-0.255615	0.452289	-0.282589	-0.475937	-0.699330
16136		8.285182	4.167652	3.505919	-0.325935	1.064855	-0.652753	-0.754883	0.022461	-0.272949	0.452297	-0.274829	-0.471604	-0.705327
16137		8.138456	4.350351	3.879760	-0.298348	1.089275	-0.651318	-0.751221	0.018311	-0.279053	0.452359	-0.266785	-0.467243	-0.711254
16138		7.603177	4.087590	4.026056	-0.293440	1.114645	-0.635831	-0.751221	0.014648	-0.296143	0.452482	-0.258726	-0.462709	-0.717092
16139		7.638298	3.300148	4.681675	-0.056123	1.107088	-0.643241	-0.736816	0.007568	-0.314697	0.453164	-0.249671	-0.459609	-0.721849
16140		7.769521	2.960343	4.157691	0.172894	1.153068	-0.664807	-0.738281	-0.002197	-0.324707	0.454366	-0.239298	-0.457675	-0.725825
16141		7.615461	3.785188	3.574987	0.276885	1.242643	-0.723336	-0.728516	-0.015137	-0.334961	0.455614	-0.227824	-0.456088	-0.729723
16142		7.343524	4.719082	4.033776	0.307362	1.192948	-0.746470	-0.719482	-0.019043	-0.354248	0.456313	-0.216540	-0.454832	-0.733496
16143		7.375830	5.318817	4.740104	0.152793	1.058513	-0.738655	-0.712891	-0.027832	-0.369141	0.456478	-0.206543	-0.453057	-0.737365
16144		7.185502	5.339817	4.798838	-0.036722	1.015681	-0.685476	-0.700684	-0.037109	-0.382568	0.456478	-0.197676	-0.450128	-0.741577
16145		7.400976	4.652176	4.766830	-0.060250	1.063025	-0.633558	-0.701416	-0.043213	-0.396240	0.456818	-0.188785	-0.446718	-0.745735
16146		7.487847	4.676365	4.933391	0.005102	1.058150	-0.614465	-0.690430	-0.047363	-0.405273	0.457392	-0.179715	-0.443671	-0.749434
16147		6.939650	4.827684	4.439406	-0.218899	1.022188	-0.568800	-0.688477	-0.054688	-0.420410	0.457678	-0.171949	-0.439223	-0.753689
16148		6.295539	4.333037	4.193327	-0.431072	0.974563	-0.468366	-0.677979	-0.058594	-0.444336	0.458103	-0.165609	-0.433458	-0.758175
16149		5.746214	3.677015	4.532015	-0.236252	0.884701	-0.328064	-0.676270	-0.051758	-0.445801	0.459458	-0.159415	-0.429008	-0.761208
16150		5.511586	3.379214	5.189175	-0.037615	0.803286	-0.233119	-0.657471	-0.062744	-0.457031	0.461363	-0.153476	-0.425974	-0.762978
16151		5.746301	4.051487	5.110550	0.132990	0.767730	-0.289163	-0.656006	-0.063721	-0.461182	0.462669	-0.146926	-0.424208	-0.764459
16152		5.585891	5.379855	4.781214	0.219852	0.731165	-0.393043	-0.656982	-0.071533	-0.469482	0.463267	-0.139982	-0.423262	-0.765923
16153		5.100587	5.612473	5.134639	0.034073	0.603509	-0.427560	-0.648438	-0.079834	-0.479492	0.462964	-0.134452	-0.421681	-0.767966
16154		5.046008	5.448128	4.888062	-0.344317	0.513611	-0.335560	-0.642578	-0.081299	-0.479248	0.462450	-0.131248	-0.417910	-0.770886
16155		5.004595	4.690401	4.900148	-0.443211	0.425846	-0.114588	-0.637939	-0.080078	-0.488770	0.462835	-0.129828	-0.413606	-0.773213
16156		4.948211	2.643264	4.746066	-0.290670	0.357884	0.026528	-0.631592	-0.068848	-0.492920	0.464090	-0.128696	-0.410381	-0.774368
16157		4.818451	2.259029	4.376241	0.097445	0.271607	-0.030283	-0.629150	-0.064209	-0.498535	0.465110	-0.126466	-0.409997	-0.774327
16158		4.801526	3.371223	4.270735	0.291988	0.232449	-0.125047	-0.625000	-0.076904	-0.501221	0.465604	-0.123425	-0.411083	-0.773945
16159		4.644853	4.717654	4.107651	0.366292	0.112899	-0.148227	-0.630127	-0.073975	-0.498047	0.465585	-0.120739	-0.413189	-0.773258
16160		4.267729	5.218427	4.108567	0.202041	-0.101186	-0.031744	-0.638916	-0.080566	-0.499023	0.465380	-0.120562	-0.414936	-0.772472
16161		3.776659	4.292672	3.918506	-0.053311	-0.220424	0.154691	-0.631348	-0.076904	-0.500732	0.465729	-0.122760	-0.415354	-0.771691
16162		3.901802	2.875220	4.105615	0.078969	-0.319069	0.266854	-0.645508	-0.072266	-0.497314	0.466582	-0.125433	-0.416857	-0.769934
16163		4.830590	2.995292	4.262803	0.470047	-0.392029	0.282619	-0.635010	-0.079346	-0.485107	0.467668	-0.127154	-0.421137	-0.766656
16164		5.970947	5.048336	4.663419	0.441651	-0.454569	0.226894	-0.643799	-0.077881	-0.486816	0.468128	-0.129141	-0.425557	-0.763597
16165		5.859418	6.467678	4.506801	0.151152	-0.520526	0.260078	-0.643555	-0.073486	-0.468262	0.468250	-0.132797	-0.428317	-0.761348
16166		5.280474	6.020148	4.389315	-0.209854	-0.614082	0.418520	-0.648438	-0.069092	-0.463135	0.468571	-0.139077	-0.428974	-0.759658
16167		4.820321	4.296516	4.478821	-0.405610	-0.693296	0.580847	-0.659668	-0.060059	-0.461914	0.469407	-0.147166	-0.428497	-0.757885
16168		5.259820	2.814924	4.673416	-0.150050	-0.802822	0.641982	-0.662109	-0.052979	-0.458984	0.470533	-0.155139	-0.429954	-0.754765
16169		6.572029	3.054793	4.739722	0.243741	-0.905407	0.608176	-0.673828	-0.053467	-0.439209	0.471583	-0.162036	-0.434290	-0.750164
16170		7.314100	4.600833	4.681140	0.281882	-0.944899	0.569576	-0.682373	-0.044678	-0.425049	0.472261	-0.168885	-0.439088	-0.745419
16171		6.724257	5.365326	5.003070	0.191648	-0.969818	0.625555	-0.686035	-0.033936	-0.414307	0.472973	-0.176491	-0.443280	-0.740710
16172		6.257976	4.843299	4.659360	0.057630	-1.014285	0.701041	-0.701416	-0.024658	-0.403076	0.473709	-0.185190	-0.446627	-0.736090
16173		6.337065	3.962005	4.606735	0.105414	-1.099008	0.760988	-0.699219	-0.021240	-0.385498	0.474489	-0.194454	-0.450452	-0.730850
16174		7.036312	3.575985	4.681925	0.252846	-1.175926	0.762101	-0.715576	-0.005615	-0.375977	0.475216	-0.203518	-0.455451	-0.724786
16175		7.667771	3.908410	4.341719	0.388634	-1.231010	0.722633	-0.710449	-0.002686	-0.358643	0.475570	-0.212294	-0.461419	-0.718232
16176		7.837438	4.112884	4.601844	0.559472	-1.215972	0.678855	-0.729492	-0.002930	-0.341797	0.476013	-0.220029	-0.468381	-0.711068
16177		8.011381	4.441462	3.856264	0.337304	-1.213871	0.636156	-0.732666	-0.000977	-0.335205	0.475744	-0.228421	-0.474079	-0.704798
16178		7.347164	4.774654	4.127855	0.115340	-1.231928	0.668161	-0.740234	0.006348	-0.309326	0.475196	-0.237784	-0.478438	-0.699103
16179		7.487433	4.020463	4.129370	0.034351	-1.341658	0.678621	-0.747070	0.017578	-0.299072	0.473974	-0.248180	-0.482685	-0.693376
16180		8.322311	3.168727	4.204184	0.094442	-1.401047	0.572577	-0.750977	0.019043	-0.278564	0.471949	-0.258215	-0.487617	-0.687618
16181		8.936234	3.577559	3.257169	0.513441	-1.357226	0.474426	-0.762695	0.026123	-0.260254	0.470405	-0.265854	-0.494962	-0.680481
16182		8.440594	4.060944	2.822993	0.796046	-1.248987	0.450560	-0.763184	0.026855	-0.256592	0.469650	-0.271709	-0.503419	-0.672438
16183		8.273773	3.792737	2.881194	1.016681	-1.252635	0.452170	-0.773682	0.030762	-0.230469	0.469415	-0.276544	-0.513040	-0.663297
16184		9.206988	3.732472	3.336022	1.038608	-1.299367	0.493907	-0.767090	0.034424	-0.216064	0.469040	-0.281813	-0.522744	-0.653698
16185		9.247706	4.736473	1.649631	0.348595	-1.366594	0.590479	-0.775635	0.044434	-0.199951	0.467228	-0.290479	-0.528613	-0.646443
16186		8.885528	5.174599	2.119305	0.149691	-1.520420	0.648360	-0.778076	0.049561	-0.179688	0.464452	-0.301001	-0.533739	-0.639379
16187		10.052501	4.562655	1.921461	0.365650	-1.521881	0.686287	-0.792480	0.057129	-0.153809	0.462342	-0.310761	-0.539852	-0.631052
16188		10.730857	4.862353	2.109762	0.468931	-1.369224	0.724515	-0.789307	0.063965	-0.135254	0.461206	-0.319521	-0.545715	-0.622407
16189		9.778691	5.424612	1.314747	-0.000124	-1.237150	0.757625	-0.802979	0.079834	-0.119629	0.459532	-0.329470	-0.548472	-0.616002
16190		8.843718	5.601049	1.256463	-0.345998	-1.276431	0.753379	-0.792236	0.082520	-0.098389	0.456558	-0.340985	-0.549458	-0.611048
16191		9.229743	4.861969	1.332851	-0.621776	-1.423317	0.717218	-0.798096	0.094971	-0.085205	0.451911	-0.353958	-0.549690	-0.606903
16192		10.725553	4.285470	1.328848	-0.604884	-1.531858	0.675080	-0.802734	0.103271	-0.057861	0.446547	-0.367107	-0.550408	-0.602395
16193		11.031102	4.379311	1.185552	-0.629833	-1.436480	0.676047	-0.785400	0.115479	-0.027100	0.441363	-0.379872	-0.550516	-0.598188
16194		10.139372	4.340849	0.607458	-0.890458	-1.235307	0.651299	-0.794678	0.126953	-0.018799	0.435953	-0.392567	-0.548474	-0.595829
16195		9.472845	3.782938	0.210935	-1.068369	-1.136879	0.587168	-0.797607	0.126465	-0.001221	0.430096	-0.404953	-0.545297	-0.594711
16196		9.452121	2.737855	0.150686	-1.186599	-1.173566	0.511780	-0.788086	0.144043	0.026123	0.423243	-0.417397	-0.541918	-0.594113
16197		9.889246	1.954990	0.377251	-1.094165	-1.241029	0.455291	-0.788818	0.149902	0.047119	0.415831	-0.429832	-0.539090	-0.593052
16198		10.622537	2.116267	0.568607	-0.771121	-1.271031	0.412390	-0.790527	0.133057	0.060791	0.409094	-0.441073	-0.537975	-0.590492
16199		11.117397	3.096966	0.705867	-0.413535	-1.217224	0.373694	-0.791992	0.155029	0.083740	0.403908	-0.450123	-0.538874	-0.586398
16200		10.569865	3.728972	0.331826	-0.441575	-1.098280	0.353828	-0.792725	0.162354	0.092529	0.398723	-0.458994	-0.538871	-0.583063
16201		10.020393	3.447865	-0.171198	-0.583048	-1.011605	0.301237	-0.783447	0.154541	0.120850	0.393204	-0.467528	-0.538053	-0.580781
16202		9.936919	2.881048	-0.272313	-0.700158	-0.978085	0.282515	-0.769775	0.159180	0.129883	0.387092	-0.476222	-0.536594	-0.579171
16203		9.875550	2.366358	-0.203211	-0.860616	-0.968115	0.310533	-0.782959	0.162354	0.156006	0.380680	-0.485302	-0.534218	-0.578079
16204		9.851363	2.201091	-0.139895	-0.916809	-0.917744	0.326801	-0.774658	0.178223	0.163330	0.374065	-0.494536	-0.531108	-0.577437
16205		9.926918	2.231261	-0.040084	-0.755897	-0.852952	0.315527	-0.766846	0.170410	0.177734	0.368518	-0.502744	-0.528556	-0.576256
16206		9.969899	2.156517	-0.155669	-0.524259	-0.781177	0.261556	-0.765137	0.175781	0.190430	0.364117	-0.509408	-0.527254	-0.574391
16207		9.910411	1.850262	-0.539882	-0.327900	-0.708348	0.189238	-0.760986	0.176270	0.201172	0.360530	-0.514770	-0.526941	-0.572157
16208		9.815842	1.390192	-0.998083	-0.225683	-0.659349	0.135646	-0.756836	0.183105	0.206055	0.357370	-0.519290	-0.527209	-0.569803
16209		9.851622	1.129593	-1.298644	-0.193304	-0.600879	0.113427	-0.755859	0.175293	0.219727	0.354548	-0.523282	-0.527561	-0.567584
16210		9.961561	1.271152	-1.310744	-0.124262	-0.527465	0.104803	-0.747070	0.177002	0.230957	0.352265	-0.526681	-0.528042	-0.565410
16211		9.948318	1.745559	-1.007901	-0.056309	-0.468607	0.087100	-0.755127	0.171631	0.227539	0.350451	-0.529524	-0.528731	-0.563233
16212		9.865762	2.145046	-0.739059	-0.073441	-0.409326	0.044655	-0.757324	0.183594	0.241943	0.348663	-0.531890	-0.529384	-0.561498
16213		9.907806	2.412116	-0.745013	-0.120933	-0.368172	-0.011347	-0.749512	0.177490	0.241699	0.346569	-0.533978	-0.529917	-0.560308
16214		10.032400	2.306047	-0.804797	-0.142999	-0.333670	-0.043267	-0.753906	0.183350	0.242188	0.344387	-0.535805	-0.530395	-0.559457
16215		10.005353	1.988615	-0.944254	-0.139633	-0.289288	-0.053654	-0.742676	0.176514	0.255859	0.342392	-0.537344	-0.530822	-0.558799
16216		9.865430	1.773767	-1.004523	-0.145295	-0.240921	-0.061681	-0.744385	0.178955	0.258789	0.340496	-0.538681	-0.531079	-0.558427
16217		9.797264	1.778276	-1.216373	-0.136588	-0.201218	-0.075873	-0.744385	0.168457	0.262207	0.338768	-0.539726	-0.531339	-0.558222
16218		9.768405	1.809072	-1.224246	-0.090685	-0.170822	-0.098164	-0.746582	0.171631	0.265625	0.337254	-0.540411	-0.531809	-0.558028
16219		9.795979	1.833543	-1.101192	-0.053871	-0.147943	-0.106035	-0.739990	0.177246	0.260010	0.335991	-0.540837	-0.532433	-0.557781
16220		9.839363	1.855787	-1.067804	-0.006281	-0.117767	-0.108476	-0.743164	0.172363	0.270752	0.335097	-0.540952	-0.533229	-0.557448
16221		9.779177	1.943520	-1.099611	0.056010	-0.077458	-0.112989	-0.750244	0.169434	0.271484	0.334605	-0.540716	-0.534191	-0.557050
16222		9.771320	2.047821	-1.156650	0.103127	-0.047406	-0.124195	-0.749023	0.165527	0.270508	0.334409	-0.540154	-0.535338	-0.556612
16223		9.745969	2.092723	-1.209196	0.117687	-0.019723	-0.125704	-0.748535	0.169922	0.266113	0.334394	-0.539415	-0.536481	-0.556237
16224		9.689303	2.108068	-1.206271	0.106607	0.004530	-0.125061	-0.751709	0.162598	0.263428	0.334463	-0.538579	-0.537517	-0.556006
16225		9.636713	2.092690	-1.239838	0.099092	0.022929	-0.125655	-0.740723	0.161377	0.274170	0.334563	-0.537684	-0.538457	-0.555903
16226		9.670152	2.065730	-1.307703	0.131073	0.044291	-0.123024	-0.743652	0.168213	0.275879	0.334890	-0.536638	-0.539453	-0.555750
16227		9.713020	1.974516	-1.474963	0.167129	0.053124	-0.115684	-0.749756	0.168701	0.264160	0.335474	-0.535464	-0.540575	-0.555440
16228		9.614455	1.919696	-1.535750	0.206173	0.063096	-0.105613	-0.745605	0.170654	0.267090	0.336344	-0.534157	-0.541817	-0.554963
16229		9.431934	2.019017	-1.576560	0.236070	0.068674	-0.101673	-0.749512	0.160889	0.264160	0.337377	-0.532768	-0.543152	-0.554365
16230		9.378078	2.198479	-1.606472	0.250033	0.063494	-0.086246	-0.753174	0.163818	0.259521	0.338499	-0.531443	-0.544480	-0.553650
16231		9.324062	2.348283	-1.595996	0.232509	0.053653	-0.071238	-0.749268	0.168457	0.258057	0.339583	-0.530264	-0.545699	-0.552916
16232		9.306408	2.412491	-1.570738	0.206359	0.036365	-0.066316	-0.750244	0.160889	0.255859	0.340504	-0.529254	-0.546829	-0.552200
16233		9.257641	2.488829	-1.580159	0.157146	0.023619	-0.080199	-0.746094	0.163574	0.255615	0.341062	-0.528393	-0.547811	-0.551707
16234		9.132925	2.367967	-1.653138	0.105650	0.021141	-0.104480	-0.755859	0.164795	0.265137	0.341278	-0.527574	-0.548676	-0.551498
16235		9.166305	2.218368	-1.725156	0.082856	0.008036	-0.118658	-0.755859	0.161621	0.256592	0.341247	-0.526835	-0.549519	-0.551384
16236		9.169895	2.145084	-1.743066	0.114572	-0.005121	-0.121358	-0.752197	0.167236	0.258057	0.341305	-0.526028	-0.550573	-0.551067
16237		9.152140	2.201247	-1.763288	0.174086	-0.008404	-0.117550	-0.752930	0.163574	0.263916	0.341643	-0.525074	-0.551905	-0.550434
16238		9.299588	2.360761	-1.732745	0.235051	-0.006554	-0.109660	-0.761230	0.165771	0.264404	0.342255	-0.524005	-0.553447	-0.549524
16239		9.439203	2.644690	-1.777268	0.255026	-0.006627	-0.098685	-0.754639	0.163330	0.256592	0.343015	-0.522914	-0.555040	-0.548482
16240		9.418793	2.815630	-1.761433	0.223392	-0.010089	-0.089281	-0.760010	0.165771	0.252441	0.343675	-0.521955	-0.556465	-0.547538
16241		9.413177	2.813039	-1.730082	0.129871	-0.026265	-0.085753	-0.747070	0.157959	0.256836	0.343885	-0.521335	-0.557506	-0.546937
16242		9.454576	2.794689	-1.775095	0.012446	-0.036531	-0.072352	-0.759766	0.158936	0.260498	0.343547	-0.521207	-0.557944	-0.546825
16243		9.412545	2.783794	-1.822679	-0.076521	-0.055619	-0.054592	-0.759521	0.162842	0.260010	0.342820	-0.521498	-0.557958	-0.546990
16244		9.432864	2.702774	-1.715466	-0.130271	-0.076805	-0.037481	-0.760254	0.154297	0.246338	0.341866	-0.522095	-0.557734	-0.547245
16245		9.473092	2.637082	-1.608722	-0.164401	-0.077393	-0.029179	-0.749512	0.156738	0.252686	0.340817	-0.522799	-0.557335	-0.547634
16246		9.476401	2.573792	-1.607367	-0.161737	-0.070849	-0.034537	-0.750732	0.158936	0.274658	0.339772	-0.523461	-0.556942	-0.548050
16247		9.390510	2.448208	-1.573591	-0.160840	-0.061683	-0.061981	-0.757812	0.149658	0.266602	0.338581	-0.524022	-0.556594	-0.548604
16248		9.327958	2.310618	-1.579392	-0.156491	-0.065854	-0.084106	-0.751709	0.145996	0.270020	0.337302	-0.524458	-0.556385	-0.549188
16249		9.331230	2.240269	-1.578266	-0.122669	-0.070856	-0.086164	-0.750732	0.147705	0.264648	0.336133	-0.524818	-0.556348	-0.549597
16250		9.363642	2.315961	-1.628642	-0.077282	-0.061581	-0.087617	-0.747314	0.143799	0.263672	0.335248	-0.524958	-0.556537	-0.549814
16251		9.357669	2.449144	-1.653135	-0.034017	-0.048210	-0.104230	-0.743896	0.152832	0.261230	0.334530	-0.524843	-0.556953	-0.549939
16252		9.255223	2.476004	-1.612522	-0.007339	-0.046537	-0.126555	-0.750244	0.149170	0.268799	0.333887	-0.524502	-0.557624	-0.549975
16253		9.323667	2.499223	-1.689625	0.005728	-0.050587	-0.136370	-0.750732	0.140625	0.272461	0.333194	-0.524134	-0.558375	-0.549984
16254		9.510723	2.591316	-1.809894	0.021955	-0.065392	-0.129105	-0.754883	0.137939	0.269043	0.332487	-0.523862	-0.559171	-0.549862
16255		9.641008	2.619129	-1.909313	0.020244	-0.063087	-0.120687	-0.757080	0.143555	0.266846	0.331841	-0.523602	-0.559930	-0.549728
16256		9.665789	2.603948	-1.822006	-0.006159	-0.054139	-0.116749	-0.750732	0.139404	0.269287	0.331193	-0.523347	-0.560568	-0.549712
16257		9.625644	2.635547	-1.800418	-0.023890	-0.045577	-0.108302	-0.750488	0.133301	0.279541	0.330513	-0.523170	-0.561038	-0.549809
16258		9.550839	2.704697	-1.791357	-0.049615	-0.044602	-0.088387	-0.757568	0.137939	0.278320	0.329740	-0.523224	-0.561242	-0.550015
16259		9.472152	2.713160	-1.746419	-0.076382	-0.047101	-0.058980	-0.750488	0.132080	0.278564	0.329034	-0.523446	-0.561248	-0.550220
16260		9.413549	2.658097	-1.748151	-0.095291	-0.048865	-0.039602	-0.757324	0.134033	0.273926	0.328301	-0.523838	-0.561068	-0.550469
16261		9.390798	2.473406	-1.719909	-0.090200	-0.046823	-0.023973	-0.747070	0.137939	0.279053	0.327724	-0.524229	-0.560877	-0.550634
16262		9.353820	2.339797	-1.747589	-0.070420	-0.039297	-0.010495	-0.760498	0.138916	0.272949	0.327328	-0.524606	-0.560696	-0.550695
16263		9.318914	2.355022	-1.721637	-0.047046	-0.031778	-0.000409	-0.755371	0.131836	0.275879	0.327159	-0.524886	-0.560590	-0.550637
16264		9.364088	2.406081	-1.715629	-0.015968	-0.024323	0.001701	-0.757812	0.148438	0.280762	0.327102	-0.525114	-0.560544	-0.550499
16265		9.400068	2.465608	-1.782865	0.009653	-0.013483	-0.002110	-0.751709	0.132080	0.281250	0.327281	-0.525142	-0.560673	-0.550235
16266		9.373045	2.508392	-1.768207	0.021429	-0.013352	-0.009738	-0.749756	0.134521	0.277832	0.327347	-0.525204	-0.560787	-0.550021
16267		9.366439	2.477157	-1.800776	0.027209	-0.013107	-0.010066	-0.753174	0.131836	0.285400	0.327479	-0.525210	-0.560961	-0.549759
16268		9.484278	2.523603	-1.761093	0.028421	-0.013745	-0.004590	-0.754395	0.138672	0.283936	0.327584	-0.525292	-0.561075	-0.549502
16269		9.585182	2.549463	-1.761597	0.012415	-0.005890	0.008232	-0.738770	0.125000	0.286133	0.327780	-0.525388	-0.561088	-0.549279
16270		9.498433	2.469836	-1.666048	-0.010329	0.012917	0.010298	-0.755859	0.128418	0.283203	0.327873	-0.525551	-0.560861	-0.549299
16271		9.465067	2.381818	-1.554718	-0.027692	0.023637	0.022514	-0.760010	0.144287	0.279297	0.328073	-0.525700	-0.560529	-0.549377
16272		9.544647	2.419019	-1.505747	-0.070549	0.041541	0.043444	-0.753662	0.132812	0.287598	0.328358	-0.525909	-0.559930	-0.549617
16273		9.488097	2.391098	-1.494511	-0.093887	0.069931	0.060034	-0.749756	0.126953	0.273193	0.328645	-0.526216	-0.558994	-0.550104
