// Start Time: Unknown
// Update Rate: 60.0Hz
// Filter Profile: human (46.1)
// Firmware Version: 4.6.0
PacketCounter	SampleTimeFine	Acc_X	Acc_Y	Acc_Z	Gyr_X	Gyr_Y	Gyr_Z	Mag_X	Mag_Y	Mag_Z	Quat_q0	Quat_q1	Quat_q2	Quat_q3
18650		8.084516	-5.588333	0.073593	-0.020876	0.005567	-0.005682	-0.570557	0.696045	0.322266	0.409970	-0.704391	-0.007699	-0.579395
18651		8.073942	-5.621913	0.026134	-0.004404	-0.004818	-0.002975	-0.563721	0.698730	0.327881	0.409930	-0.704429	-0.007712	-0.579377
18652		8.042801	-5.577011	0.018747	0.024239	-0.019645	-0.005614	-0.561768	0.687744	0.326660	0.410066	-0.704438	-0.007919	-0.579267
18653		8.083900	-5.500527	0.008493	0.029075	-0.020436	-0.003512	-0.557129	0.696045	0.317627	0.410168	-0.704459	-0.008161	-0.579166
18654		8.053424	-5.542982	0.158616	0.011821	-0.007864	-0.001382	-0.565186	0.688477	0.319092	0.410332	-0.704413	-0.008230	-0.579105
18655		8.013753	-5.570231	0.133080	0.008285	-0.000089	-0.000400	-0.559570	0.696533	0.324219	0.410366	-0.704390	-0.008277	-0.579109
18656		8.025882	-5.579482	0.174634	0.006688	-0.005115	-0.002058	-0.564209	0.693359	0.327637	0.410436	-0.704372	-0.008331	-0.579080
18657		8.026061	-5.580668	0.101583	0.011062	-0.004549	0.000294	-0.562012	0.699707	0.318359	0.410475	-0.704363	-0.008404	-0.579062
18658		8.039012	-5.541565	0.106976	0.005603	-0.003546	-0.001153	-0.569092	0.694092	0.320068	0.410592	-0.704317	-0.008429	-0.579034
18659		8.034472	-5.556236	0.063148	-0.004685	0.000827	0.000653	-0.568115	0.696289	0.328125	0.410570	-0.704323	-0.008399	-0.579044
18660		8.075993	-5.616473	0.078597	-0.010140	0.004407	0.004561	-0.561035	0.694336	0.328125	0.410505	-0.704344	-0.008314	-0.579065
18661		8.125422	-5.559314	0.097883	-0.007331	0.004202	0.005872	-0.564209	0.688477	0.326416	0.410484	-0.704347	-0.008230	-0.579077
18662		8.050801	-5.597854	0.068978	-0.024285	0.014817	0.006577	-0.567139	0.692627	0.320801	0.410327	-0.704372	-0.008035	-0.579161
18663		8.039066	-5.631653	0.095254	-0.024481	0.009413	0.006361	-0.558105	0.694824	0.324219	0.410216	-0.704402	-0.007849	-0.579206
18664		8.068083	-5.589523	0.110916	-0.021235	0.004154	0.005224	-0.558594	0.690918	0.328369	0.410155	-0.704444	-0.007682	-0.579200
18665		8.113973	-5.544575	0.065274	-0.025999	0.013474	0.004359	-0.558350	0.697754	0.331787	0.410015	-0.704473	-0.007477	-0.579266
18666		8.057800	-5.573043	0.079382	-0.037693	0.017132	0.007873	-0.563477	0.696777	0.324463	0.409847	-0.704531	-0.007171	-0.579319
18667		8.038519	-5.628975	0.123271	-0.035777	0.020780	0.006529	-0.564941	0.692871	0.326904	0.409696	-0.704520	-0.006893	-0.579442
18668		7.989823	-5.635387	0.119629	-0.025527	0.012138	0.004102	-0.559326	0.694580	0.327637	0.409556	-0.704531	-0.006710	-0.579530
18669		7.994095	-5.622545	0.089352	-0.023044	0.010187	0.004641	-0.564209	0.699951	0.324463	0.409469	-0.704546	-0.006521	-0.579576
18670		8.006705	-5.630110	0.108831	-0.035184	0.013209	0.001466	-0.565430	0.700439	0.330078	0.409327	-0.704565	-0.006279	-0.579655
18671		8.015583	-5.694790	0.151932	-0.050419	0.020979	0.003762	-0.561768	0.694092	0.322998	0.409085	-0.704626	-0.005910	-0.579756
18672		7.975523	-5.722530	0.123440	-0.049360	0.015171	0.002224	-0.565918	0.698242	0.331543	0.408855	-0.704670	-0.005588	-0.579868
18673		7.914551	-5.813109	0.128268	-0.019436	0.005811	-0.005826	-0.568848	0.691406	0.326172	0.408744	-0.704696	-0.005462	-0.579915
18674		7.891689	-5.746349	0.029752	0.026364	-0.025415	-0.012805	-0.569824	0.690918	0.323975	0.408849	-0.704683	-0.005710	-0.579854
18675		7.986624	-5.649450	-0.007511	0.026637	-0.031613	-0.014867	-0.564697	0.692871	0.319092	0.408955	-0.704693	-0.005982	-0.579766
18676		8.041204	-5.624275	0.090357	0.002890	-0.013272	-0.009488	-0.561279	0.694336	0.327148	0.408999	-0.704684	-0.006039	-0.579744
18677		7.982807	-5.707858	0.127556	-0.014530	-0.005509	-0.009151	-0.557617	0.693115	0.331299	0.408923	-0.704749	-0.005968	-0.579719
18678		7.969098	-5.704190	0.145805	0.000536	-0.017540	-0.014843	-0.555420	0.704590	0.327393	0.408896	-0.704847	-0.006034	-0.579619
18679		8.029078	-5.665716	0.140364	0.021057	-0.030583	-0.019087	-0.550293	0.696045	0.332275	0.409084	-0.704908	-0.006244	-0.579410
18680		8.035630	-5.603304	0.093813	0.031508	-0.033807	-0.021301	-0.555664	0.692627	0.319824	0.409247	-0.704986	-0.006546	-0.579196
18681		7.991487	-5.600974	0.048147	0.032446	-0.035941	-0.023390	-0.560303	0.695801	0.328857	0.409408	-0.704982	-0.006879	-0.579084
18682		7.985256	-5.622566	0.084663	0.032275	-0.038201	-0.019836	-0.563721	0.693604	0.325439	0.409565	-0.705041	-0.007199	-0.578896
18683		8.034214	-5.616886	0.106482	0.031081	-0.029828	-0.015700	-0.560303	0.687012	0.326172	0.409720	-0.705036	-0.007461	-0.578790
18684		8.094013	-5.625766	0.043666	0.008039	-0.018558	-0.014176	-0.563477	0.691895	0.330811	0.409690	-0.705072	-0.007581	-0.578766
18685		8.068793	-5.658047	0.036093	0.010492	-0.027877	-0.018048	-0.563232	0.698486	0.325928	0.409673	-0.705167	-0.007763	-0.578660
18686		8.038245	-5.660751	-0.010153	0.029049	-0.036005	-0.022486	-0.555420	0.696777	0.327881	0.409825	-0.705203	-0.008072	-0.578504
18687		8.051156	-5.578519	-0.054052	0.061793	-0.051358	-0.025204	-0.559082	0.690186	0.329102	0.410148	-0.705241	-0.008611	-0.578221
18688		8.134774	-5.514321	0.028970	0.063721	-0.045114	-0.021201	-0.562988	0.687988	0.329590	0.410416	-0.705251	-0.009135	-0.578011
18689		8.086547	-5.522632	0.067483	0.042875	-0.026510	-0.013296	-0.560303	0.692383	0.325439	0.410560	-0.705240	-0.009465	-0.577916
18690		8.046100	-5.553517	0.082819	0.012146	-0.012324	-0.008200	-0.554932	0.694092	0.329102	0.410614	-0.705243	-0.009559	-0.577872
18691		8.011384	-5.660976	0.078516	0.008090	-0.011151	-0.009771	-0.553955	0.696533	0.331299	0.410652	-0.705294	-0.009633	-0.577782
18692		8.059896	-5.561607	0.049448	0.025713	-0.021892	-0.011184	-0.558350	0.691406	0.329834	0.410804	-0.705353	-0.009827	-0.577599
18693		8.074121	-5.519209	0.033628	0.005457	-0.004111	-0.002346	-0.556885	0.697510	0.324219	0.410820	-0.705376	-0.009831	-0.577559
18694		8.071986	-5.525637	0.001459	-0.022301	0.014677	0.005857	-0.556885	0.694336	0.327393	0.410806	-0.705360	-0.009571	-0.577594
18695		8.063218	-5.551054	0.039597	-0.055364	0.031943	0.010022	-0.564209	0.693115	0.323486	0.410568	-0.705404	-0.009086	-0.577717
18696		8.103943	-5.566239	0.039270	-0.059994	0.041286	0.011918	-0.555664	0.698486	0.322021	0.410294	-0.705364	-0.008551	-0.577968
18697		8.108058	-5.551222	0.062584	-0.066821	0.048394	0.018171	-0.556396	0.687256	0.322266	0.410112	-0.705320	-0.007897	-0.578160
18698		8.119694	-5.512658	0.048045	-0.089334	0.069952	0.024476	-0.563965	0.693848	0.327637	0.409703	-0.705256	-0.007053	-0.578539
18699		8.135686	-5.507353	0.019108	-0.129470	0.085971	0.028084	-0.557129	0.694336	0.320312	0.409092	-0.705268	-0.005951	-0.578969
18700		8.115453	-5.564114	0.042473	-0.159400	0.100286	0.032444	-0.559082	0.693115	0.325684	0.408413	-0.705261	-0.004620	-0.579469
18701		8.054248	-5.651068	0.059988	-0.141196	0.096824	0.032024	-0.561279	0.695068	0.333740	0.407793	-0.705245	-0.003402	-0.579934
18702		7.942805	-5.797426	0.077846	-0.104897	0.072814	0.018218	-0.558105	0.698242	0.334229	0.407293	-0.705278	-0.002524	-0.580249
18703		7.837207	-5.928317	0.065990	-0.038777	0.027332	0.007319	-0.564453	0.686768	0.334961	0.407191	-0.705311	-0.002164	-0.580282
18704		7.885827	-5.874363	0.033912	-0.003538	0.007228	0.002596	-0.564941	0.696533	0.331787	0.407106	-0.705319	-0.002083	-0.580332
18705		7.890229	-5.768462	-0.024752	-0.027415	0.021925	0.003025	-0.558594	0.701416	0.330322	0.407019	-0.705293	-0.001810	-0.580425
18706		7.834280	-5.843098	0.003724	-0.059293	0.029427	0.004893	-0.560059	0.699707	0.332031	0.406859	-0.705340	-0.001318	-0.580483
18707		7.799130	-5.994830	0.064115	-0.011790	0.001714	-0.006202	-0.558594	0.691406	0.329102	0.406894	-0.705370	-0.001214	-0.580422
18708		7.847092	-5.897278	0.131329	0.062083	-0.041537	-0.020343	-0.552246	0.690674	0.322754	0.407221	-0.705344	-0.001688	-0.580222
18709		7.939471	-5.763805	0.017853	0.087270	-0.055435	-0.025246	-0.555420	0.691162	0.331543	0.407736	-0.705257	-0.002328	-0.579964
18710		8.011958	-5.641450	0.026883	0.066041	-0.045195	-0.026903	-0.550537	0.697998	0.326416	0.408051	-0.705281	-0.002860	-0.579711
18711		7.959073	-5.711995	0.056775	0.060641	-0.040424	-0.026149	-0.560059	0.697998	0.320312	0.408481	-0.705255	-0.003317	-0.579438
18712		7.993749	-5.657104	0.085852	0.061879	-0.045614	-0.026529	-0.559814	0.698975	0.329102	0.408880	-0.705153	-0.003811	-0.579276
18713		8.032387	-5.637111	0.120658	0.054921	-0.041047	-0.028398	-0.550537	0.690674	0.332031	0.409196	-0.705154	-0.004293	-0.579050
18714		8.015692	-5.645703	0.096875	0.046069	-0.036450	-0.026722	-0.556152	0.697754	0.331543	0.409396	-0.705244	-0.004707	-0.578795
18715		7.985069	-5.649774	0.073166	0.047665	-0.034519	-0.028838	-0.554443	0.696045	0.323975	0.409658	-0.705280	-0.005139	-0.578562
18716		7.958123	-5.737157	0.091340	0.044722	-0.037971	-0.035122	-0.556641	0.695312	0.329590	0.409890	-0.705268	-0.005577	-0.578409
18717		7.890905	-5.903059	0.067188	0.094306	-0.062790	-0.044490	-0.556396	0.691406	0.331299	0.410317	-0.705265	-0.006421	-0.578100
18718		7.883012	-5.936621	-0.009232	0.169224	-0.102881	-0.054105	-0.558838	0.692383	0.322998	0.411072	-0.705231	-0.007827	-0.577588
18719		7.915445	-5.847201	-0.109774	0.215613	-0.131610	-0.063272	-0.562500	0.697998	0.331787	0.412076	-0.705077	-0.009575	-0.577033
18720		7.942559	-5.821589	-0.124384	0.224637	-0.140401	-0.066870	-0.557617	0.698975	0.325928	0.413114	-0.705032	-0.011459	-0.576313
18721		7.809311	-5.960450	-0.068970	0.260019	-0.162231	-0.072199	-0.553955	0.700684	0.321533	0.414387	-0.704930	-0.013582	-0.575476
18722		7.793277	-5.976668	0.038374	0.340911	-0.194466	-0.081879	-0.557129	0.700928	0.319824	0.416133	-0.704674	-0.016227	-0.574460
18723		7.783589	-6.024930	0.156305	0.417686	-0.235020	-0.098010	-0.558105	0.692627	0.318848	0.418205	-0.704329	-0.019481	-0.573276
18724		7.646822	-6.137213	0.060037	0.516955	-0.296495	-0.122380	-0.552246	0.700684	0.311035	0.420572	-0.703945	-0.023585	-0.571861
18725		7.712444	-6.050201	-0.031831	0.617168	-0.361653	-0.144478	-0.553955	0.697021	0.305908	0.423554	-0.703447	-0.028454	-0.570047
18726		7.880443	-5.784817	-0.028635	0.607474	-0.360736	-0.149149	-0.557861	0.697510	0.311768	0.426355	-0.702942	-0.033303	-0.568317
18727		7.847422	-5.823964	0.101782	0.545785	-0.336284	-0.144077	-0.551025	0.704346	0.296631	0.428717	-0.702627	-0.037802	-0.566647
18728		7.854867	-5.879094	0.137966	0.564168	-0.348534	-0.146350	-0.557861	0.708252	0.307617	0.431352	-0.702150	-0.042350	-0.564914
18729		8.011004	-5.748772	0.151543	0.598521	-0.367807	-0.160227	-0.553711	0.705811	0.291016	0.434008	-0.701759	-0.047290	-0.562969
18730		8.113696	-5.585768	0.069368	0.624203	-0.390277	-0.174992	-0.560059	0.714600	0.293457	0.436763	-0.701207	-0.052446	-0.561066
18731		8.257771	-5.340682	0.097088	0.607467	-0.384934	-0.169652	-0.560791	0.706055	0.286133	0.439459	-0.700710	-0.057519	-0.559083
18732		8.367830	-5.150861	0.097789	0.542874	-0.339830	-0.157311	-0.555908	0.706543	0.275635	0.441710	-0.700186	-0.062068	-0.557476
18733		8.360420	-5.154322	0.149413	0.502432	-0.312717	-0.151578	-0.552490	0.715820	0.280762	0.443822	-0.699601	-0.066256	-0.556049
18734		8.562313	-4.861279	0.223485	0.497296	-0.310146	-0.156803	-0.548828	0.714111	0.275146	0.445961	-0.699111	-0.070451	-0.554436
18735		8.396600	-5.195013	0.211304	0.438808	-0.269792	-0.162578	-0.558105	0.718506	0.274170	0.447745	-0.698617	-0.074249	-0.553123
18736		7.717160	-6.016915	-0.069569	0.556879	-0.335355	-0.168327	-0.565674	0.722412	0.270264	0.450120	-0.697943	-0.078922	-0.551397
18737		8.008139	-5.594526	-0.217725	0.684232	-0.412832	-0.185709	-0.562988	0.718994	0.266113	0.453086	-0.697075	-0.084589	-0.549221
18738		8.335572	-5.087898	-0.020815	0.580108	-0.355344	-0.177528	-0.560059	0.726562	0.268311	0.455453	-0.696342	-0.089504	-0.547411
18739		8.235207	-5.351959	0.198351	0.469825	-0.290852	-0.156512	-0.550781	0.717041	0.269043	0.457388	-0.695810	-0.093554	-0.545795
18740		7.995362	-5.701160	0.187870	0.526572	-0.334742	-0.166977	-0.561279	0.717041	0.260010	0.459446	-0.695332	-0.098065	-0.543881
18741		8.137013	-5.441354	0.177624	0.609932	-0.396681	-0.184238	-0.563477	0.721191	0.260986	0.461808	-0.694662	-0.103309	-0.541762
18742		8.483654	-4.991777	0.211920	0.595620	-0.387986	-0.186441	-0.556885	0.730957	0.247559	0.464073	-0.694023	-0.108486	-0.539628
18743		8.580303	-4.874603	0.139002	0.499069	-0.332909	-0.171992	-0.559326	0.722656	0.249756	0.466115	-0.693394	-0.112831	-0.537783
18744		8.204130	-5.494512	0.022682	0.463140	-0.308541	-0.168311	-0.569824	0.727051	0.240234	0.467800	-0.692847	-0.116960	-0.536140
18745		8.013728	-5.643705	0.103561	0.557729	-0.371989	-0.190603	-0.552979	0.727539	0.245361	0.469899	-0.692046	-0.121905	-0.534234
18746		8.414688	-5.050680	0.208596	0.582116	-0.403339	-0.194635	-0.566162	0.726807	0.245850	0.472124	-0.691438	-0.127024	-0.531862
18747		8.603278	-4.777209	0.035957	0.506793	-0.348104	-0.181967	-0.562744	0.716553	0.232666	0.473893	-0.690863	-0.131618	-0.529915
18748		8.224837	-5.358080	-0.107996	0.503475	-0.335843	-0.179383	-0.566162	0.730957	0.233887	0.475596	-0.690134	-0.136082	-0.528209
18749		8.109608	-5.523719	-0.021521	0.661190	-0.416762	-0.208450	-0.565186	0.717529	0.227783	0.478123	-0.689105	-0.141730	-0.525781
18750		8.616360	-4.748276	0.130039	0.715768	-0.441862	-0.217622	-0.568115	0.729492	0.218506	0.480702	-0.687925	-0.147768	-0.523307
18751		8.715392	-4.515442	0.141766	0.593284	-0.366084	-0.198468	-0.564453	0.728027	0.218994	0.482914	-0.686818	-0.152832	-0.521264
18752		8.393819	-4.932775	-0.025650	0.552308	-0.344409	-0.179905	-0.562012	0.724854	0.216553	0.484949	-0.685856	-0.157519	-0.519244
18753		8.360575	-5.053846	-0.004137	0.615705	-0.383000	-0.190397	-0.567139	0.730225	0.212891	0.487193	-0.684797	-0.162681	-0.516944
18754		8.691335	-4.588530	0.113629	0.605425	-0.374923	-0.191699	-0.570068	0.730957	0.213135	0.489406	-0.683697	-0.167789	-0.514673
18755		8.731100	-4.527249	0.266432	0.484135	-0.299890	-0.169313	-0.569092	0.729980	0.196045	0.491069	-0.682818	-0.171972	-0.512871
18756		8.565740	-4.601932	0.363829	0.412036	-0.265719	-0.146685	-0.568848	0.733398	0.199951	0.492566	-0.681941	-0.175519	-0.511398
18757		8.636014	-4.562800	0.301102	0.401777	-0.255314	-0.130905	-0.575928	0.724609	0.190674	0.494073	-0.681153	-0.178902	-0.509820
18758		8.799995	-4.261578	0.396445	0.351574	-0.229677	-0.125662	-0.575439	0.730713	0.189941	0.495245	-0.680358	-0.181977	-0.508655
18759		8.930469	-4.137684	0.180585	0.271276	-0.172421	-0.113783	-0.569580	0.739014	0.194580	0.496171	-0.679677	-0.184404	-0.507787
18760		8.553089	-4.818738	0.067905	0.239844	-0.159480	-0.112731	-0.578369	0.734619	0.198975	0.497033	-0.679164	-0.186610	-0.506824
18761		8.410557	-5.031183	0.116703	0.307562	-0.203083	-0.120805	-0.565918	0.733887	0.192627	0.498014	-0.678577	-0.189408	-0.505609
18762		8.579285	-4.812183	0.044306	0.295881	-0.189296	-0.119699	-0.572266	0.729004	0.186523	0.499058	-0.677977	-0.191985	-0.504411
18763		8.476883	-4.866264	-0.115756	0.222545	-0.145203	-0.096790	-0.576660	0.728271	0.182129	0.499784	-0.677460	-0.193969	-0.503626
18764		8.405345	-4.943831	-0.102042	0.206647	-0.148331	-0.086072	-0.575684	0.732910	0.190430	0.500451	-0.676989	-0.195856	-0.502867
18765		8.550420	-4.683021	0.181694	0.228312	-0.163409	-0.076887	-0.573242	0.730469	0.188721	0.501246	-0.676617	-0.197862	-0.501789
18766		9.037150	-3.883554	0.302959	0.221282	-0.157714	-0.067166	-0.571045	0.730957	0.191650	0.502034	-0.676271	-0.199742	-0.500723
18767		9.028792	-4.218386	0.209682	0.110646	-0.066104	-0.053303	-0.582764	0.734375	0.185303	0.502388	-0.676078	-0.200703	-0.500243
18768		8.386867	-4.949469	0.114987	0.172344	-0.106586	-0.054680	-0.572510	0.729004	0.190918	0.503034	-0.675673	-0.202156	-0.499555
18769		8.487671	-4.760082	0.076102	0.240061	-0.153038	-0.066915	-0.580322	0.735840	0.184814	0.503870	-0.675280	-0.204109	-0.498449
18770		8.697756	-4.325756	-0.003230	0.171838	-0.116497	-0.063077	-0.576904	0.733398	0.188477	0.504473	-0.674933	-0.205627	-0.497684
18771		8.775942	-4.261863	0.005096	0.055901	-0.049360	-0.030237	-0.583008	0.734131	0.187012	0.504627	-0.674919	-0.206196	-0.497312
18772		8.857569	-4.237464	0.112085	0.001726	-0.010104	-0.004800	-0.579102	0.729492	0.175049	0.504633	-0.674972	-0.206274	-0.497201
18773		8.855177	-4.370906	0.303977	-0.002758	-0.018712	-0.011202	-0.579590	0.734863	0.179688	0.504626	-0.674954	-0.206344	-0.497204
18774		9.152880	-4.189151	0.737101	0.010136	-0.034468	-0.009501	-0.572021	0.731934	0.181396	0.504699	-0.674992	-0.206537	-0.496998
18775		9.071712	-4.156213	0.422244	-0.093315	0.037028	0.007627	-0.570312	0.728760	0.182861	0.504377	-0.675244	-0.205862	-0.497263
18776		8.483738	-4.664452	0.049042	-0.123602	0.048860	0.031211	-0.571045	0.727051	0.178223	0.503965	-0.675628	-0.204880	-0.497565
18777		8.355452	-4.773946	-0.039985	-0.080290	0.034020	0.026009	-0.567139	0.736816	0.185791	0.503766	-0.675818	-0.204161	-0.497803
18778		8.413707	-4.681247	-0.092114	-0.068736	0.022474	0.004005	-0.575928	0.734131	0.191650	0.503604	-0.676051	-0.203641	-0.497864
18779		8.424863	-4.814190	-0.015137	-0.096951	0.041514	0.022207	-0.575439	0.734619	0.184814	0.503264	-0.676381	-0.202913	-0.498057
18780		8.463984	-4.976059	0.096707	-0.099793	0.046715	0.026322	-0.572510	0.730957	0.189941	0.502997	-0.676625	-0.202095	-0.498328
18781		8.448401	-4.990043	0.121899	-0.103953	0.037635	0.016339	-0.577148	0.735107	0.188232	0.502587	-0.676970	-0.201355	-0.498572
18782		8.348220	-5.036671	0.128024	-0.087605	0.014246	0.002301	-0.567627	0.730225	0.189209	0.502214	-0.677268	-0.200876	-0.498737
18783		8.392192	-4.946826	0.187629	-0.045570	-0.009089	-0.006811	-0.571533	0.723633	0.184326	0.501997	-0.677514	-0.200654	-0.498710
18784		8.632171	-4.534321	0.052715	-0.077956	0.000834	0.001429	-0.574707	0.730469	0.190430	0.501591	-0.677804	-0.200233	-0.498894
18785		8.667076	-4.517255	0.056504	-0.160697	0.042749	0.019329	-0.574219	0.729248	0.189209	0.500886	-0.678328	-0.199221	-0.499294
18786		8.620186	-4.766748	0.116068	-0.141513	0.035104	0.018313	-0.576904	0.716309	0.187744	0.500282	-0.678775	-0.198320	-0.499651
18787		8.664907	-4.818406	0.082592	-0.066265	0.007292	0.005155	-0.575195	0.723145	0.200684	0.499864	-0.678978	-0.197965	-0.499935
18788		8.684317	-4.733519	-0.025977	-0.079352	0.002932	0.005659	-0.580566	0.735352	0.197754	0.499360	-0.679382	-0.197565	-0.500048
18789		8.572953	-4.891739	-0.033759	-0.138974	0.035363	0.018634	-0.570068	0.729736	0.201416	0.498768	-0.679841	-0.196721	-0.500348
18790		8.393799	-5.022741	-0.026526	-0.146197	0.029123	0.017959	-0.578613	0.724609	0.192383	0.498096	-0.680423	-0.195805	-0.500585
18791		8.446619	-4.929507	-0.015588	-0.115134	0.010251	0.004535	-0.577148	0.728516	0.201416	0.497502	-0.680795	-0.195244	-0.500889
18792		8.556442	-4.959159	-0.059055	-0.103967	0.001656	-0.010038	-0.572021	0.731689	0.201904	0.496885	-0.681216	-0.194832	-0.501089
18793		8.514332	-5.008130	-0.078247	-0.070693	-0.011828	-0.008789	-0.571045	0.722412	0.197998	0.496510	-0.681564	-0.194553	-0.501096
18794		8.433429	-4.878307	-0.331441	-0.052611	-0.018025	-0.006033	-0.569824	0.729492	0.203369	0.496188	-0.681832	-0.194371	-0.501121
18795		8.704992	-4.429879	-0.289075	-0.097187	-0.000433	0.001653	-0.572021	0.723877	0.200684	0.495717	-0.682268	-0.193862	-0.501191
18796		8.849385	-4.303354	-0.104976	-0.173563	0.062917	0.018652	-0.573730	0.726318	0.206055	0.494947	-0.682740	-0.192710	-0.501754
18797		8.752405	-4.584155	-0.029840	-0.185379	0.082251	0.026370	-0.569824	0.729736	0.212158	0.494158	-0.683220	-0.191399	-0.502380
18798		8.809868	-4.536559	-0.120928	-0.142532	0.065139	0.027675	-0.569580	0.729736	0.208008	0.493608	-0.683651	-0.190292	-0.502755
18799		9.082445	-4.216286	-0.068505	-0.206946	0.114590	0.042992	-0.565918	0.725098	0.214355	0.492874	-0.684107	-0.188623	-0.503482
18800		9.017664	-4.342850	-0.100325	-0.332130	0.189703	0.065801	-0.559082	0.730225	0.212158	0.491567	-0.684858	-0.185980	-0.504720
18801		8.856401	-4.453693	0.032655	-0.379677	0.222132	0.080551	-0.564941	0.728271	0.217529	0.490213	-0.685653	-0.182847	-0.506101
18802		8.720840	-4.682391	-0.007679	-0.376851	0.241487	0.084385	-0.565918	0.726562	0.218994	0.488845	-0.686358	-0.179687	-0.507598
18803		8.575720	-4.789264	-0.095618	-0.361898	0.246129	0.074072	-0.567139	0.723633	0.220947	0.487507	-0.686945	-0.176644	-0.509157
18804		8.567404	-4.764986	-0.171427	-0.366941	0.249039	0.078422	-0.566406	0.725098	0.227539	0.486126	-0.687533	-0.173560	-0.510742
18805		8.499097	-4.889026	-0.098414	-0.396779	0.277029	0.089096	-0.572021	0.727783	0.230469	0.484642	-0.688170	-0.170165	-0.512434
18806		8.256491	-5.286058	-0.083417	-0.376096	0.270300	0.089716	-0.564941	0.730225	0.232178	0.483262	-0.688724	-0.166921	-0.514057
18807		8.183268	-5.295674	-0.132804	-0.292125	0.221073	0.072537	-0.563477	0.724854	0.229980	0.482274	-0.689135	-0.164255	-0.515291
18808		8.311011	-5.180069	-0.130725	-0.266662	0.191061	0.065086	-0.573975	0.733398	0.228027	0.481338	-0.689531	-0.161862	-0.516392
18809		8.350094	-5.057620	-0.126970	-0.291353	0.194050	0.075268	-0.559082	0.722412	0.229980	0.480361	-0.689947	-0.159348	-0.517527
18810		8.507788	-4.764668	-0.213346	-0.344904	0.224742	0.096138	-0.569092	0.724121	0.231445	0.479164	-0.690527	-0.156269	-0.518802
18811		8.842974	-4.414362	-0.032950	-0.463696	0.294727	0.106574	-0.567139	0.723877	0.231934	0.477389	-0.691240	-0.152422	-0.520629
18812		8.961016	-4.525748	0.238538	-0.532987	0.328302	0.118974	-0.563721	0.715332	0.239746	0.475323	-0.692065	-0.148048	-0.522681
18813		8.977363	-4.325123	0.316901	-0.532508	0.340570	0.131235	-0.566406	0.716064	0.249023	0.473233	-0.692887	-0.143564	-0.524735
18814		9.102765	-3.997986	-0.020418	-0.611602	0.402849	0.156493	-0.562744	0.719727	0.254883	0.470820	-0.693796	-0.138369	-0.527096
18815		9.078973	-3.774715	-0.269240	-0.794259	0.528002	0.199052	-0.563477	0.728516	0.246094	0.467694	-0.694906	-0.131589	-0.530144
18816		9.131082	-3.739218	-0.198174	-1.001474	0.659169	0.253320	-0.558838	0.721680	0.258057	0.463868	-0.696111	-0.123019	-0.533969
18817		9.039044	-4.149523	-0.010227	-1.190006	0.786478	0.296057	-0.566162	0.715820	0.269043	0.459147	-0.697506	-0.112858	-0.538453
18818		8.753778	-4.531603	0.000087	-1.254054	0.831191	0.317341	-0.558105	0.716309	0.268555	0.454038	-0.698875	-0.102194	-0.543120
18819		8.659016	-4.582538	-0.123717	-1.255700	0.846815	0.323919	-0.559326	0.711182	0.279785	0.448981	-0.700020	-0.091319	-0.547767
18820		8.645719	-4.552268	-0.265432	-1.320508	0.901291	0.338750	-0.561523	0.704102	0.293701	0.443527	-0.701084	-0.079876	-0.552616
18821		8.526918	-4.606347	-0.303364	-1.415288	0.974349	0.369155	-0.563477	0.702637	0.297852	0.437543	-0.702101	-0.067583	-0.557711
18822		8.384790	-4.868688	-0.305001	-1.492672	1.039441	0.393974	-0.561035	0.707031	0.294189	0.431184	-0.702915	-0.054540	-0.563042
18823		8.194727	-5.184083	-0.301579	-1.545899	1.089805	0.408480	-0.567383	0.699707	0.311279	0.424626	-0.703410	-0.040902	-0.568537
18824		8.158009	-5.202065	-0.234260	-1.607916	1.114109	0.410438	-0.576172	0.695557	0.318604	0.417515	-0.703897	-0.026937	-0.574008
18825		8.074386	-5.327591	-0.190996	-1.693739	1.163274	0.419673	-0.566650	0.692383	0.318359	0.409809	-0.704219	-0.012394	-0.579637
18826		7.860431	-5.685886	-0.181555	-1.696434	1.173503	0.413142	-0.567871	0.688477	0.334229	0.402030	-0.704229	0.002267	-0.585173
18827		7.800516	-5.872434	-0.232974	-1.640736	1.146266	0.404676	-0.577637	0.678223	0.344482	0.394401	-0.704044	0.016515	-0.590337
18828		7.792724	-5.696868	-0.392451	-1.616167	1.134238	0.401265	-0.575928	0.673584	0.355713	0.386698	-0.703654	0.030498	-0.595320
18829		7.820914	-5.711379	-0.493285	-1.649419	1.160212	0.410723	-0.578369	0.666016	0.357666	0.378740	-0.703080	0.044804	-0.600189
18830		7.927209	-5.606504	-0.447823	-1.738067	1.202987	0.422617	-0.583496	0.661865	0.356201	0.370189	-0.702306	0.059741	-0.605109
18831		7.834886	-5.765219	-0.353808	-1.853131	1.260079	0.440131	-0.582520	0.653320	0.362305	0.360934	-0.701255	0.075512	-0.610136
18832		7.638777	-6.123938	-0.284758	-1.860729	1.267713	0.435744	-0.584229	0.650635	0.374512	0.351489	-0.699931	0.091313	-0.614992
18833		7.722953	-6.058906	-0.193743	-1.786411	1.230103	0.427872	-0.582764	0.643555	0.382080	0.342382	-0.698374	0.106568	-0.619428
18834		7.527114	-6.306859	-0.315181	-1.679922	1.179509	0.410416	-0.595947	0.644531	0.389648	0.333768	-0.696583	0.121018	-0.623479
18835		7.313241	-6.633417	-0.272903	-1.478701	1.078330	0.364452	-0.596191	0.639648	0.392334	0.326106	-0.694581	0.133808	-0.627143
18836		7.422171	-6.212251	-0.403597	-1.329456	0.997663	0.329855	-0.597656	0.625732	0.401855	0.319181	-0.692461	0.145393	-0.630461
18837		7.827512	-5.847162	-0.460764	-1.524663	1.087392	0.357612	-0.607422	0.620850	0.408691	0.311002	-0.690293	0.158353	-0.633797
18838		7.109418	-6.677183	-0.612297	-1.674410	1.166894	0.392606	-0.602295	0.612061	0.404297	0.301926	-0.687856	0.172437	-0.637150
18839		6.720282	-6.992733	-0.682528	-1.480565	1.047256	0.357365	-0.604004	0.613281	0.415039	0.293927	-0.685355	0.185001	-0.640055
18840		7.410243	-6.511864	-0.522677	-1.373708	0.977026	0.332485	-0.616943	0.603760	0.416504	0.286547	-0.682905	0.196655	-0.642541
18841		7.194526	-6.685030	-0.485969	-1.389448	0.998981	0.330047	-0.612549	0.597656	0.420166	0.278846	-0.680194	0.208359	-0.645111
18842		6.787435	-7.094454	-0.562428	-1.253841	0.915114	0.308232	-0.619629	0.593506	0.417969	0.271959	-0.677554	0.219003	-0.647300
18843		7.092685	-6.648518	-0.687992	-1.124731	0.826508	0.274547	-0.618896	0.594238	0.415039	0.265717	-0.674971	0.228539	-0.649290
18844		7.366378	-6.585381	-0.581023	-1.198456	0.854350	0.274334	-0.618896	0.580078	0.420898	0.259071	-0.672226	0.238541	-0.651224
18845		7.029665	-6.964714	-0.477124	-1.228565	0.865923	0.282586	-0.631104	0.582031	0.427002	0.252160	-0.669455	0.248717	-0.652982
18846		6.946562	-7.085539	-0.467618	-1.107950	0.784011	0.253933	-0.629395	0.581787	0.424072	0.245911	-0.666815	0.257858	-0.654519
18847		7.293226	-6.680078	-0.349923	-1.091608	0.768731	0.228839	-0.637207	0.586670	0.432373	0.239726	-0.664120	0.266743	-0.655991
18848		7.097273	-6.773794	-0.192345	-1.161559	0.814754	0.220862	-0.632324	0.568604	0.428467	0.233072	-0.661268	0.276008	-0.657436
18849		6.901419	-7.142017	-0.513814	-1.024927	0.735063	0.183321	-0.651611	0.570312	0.438232	0.227019	-0.658602	0.284144	-0.658763
18850		6.989318	-7.101409	-0.249192	-0.855590	0.623777	0.126434	-0.639648	0.565430	0.437988	0.221752	-0.656316	0.290773	-0.659944
18851		6.922183	-6.965268	-0.276599	-0.767129	0.577386	0.103595	-0.644287	0.559814	0.432861	0.217101	-0.654196	0.296678	-0.660966
18852		6.782977	-7.379188	-0.566984	-0.670155	0.509641	0.069507	-0.652588	0.560791	0.423828	0.212855	-0.652243	0.301763	-0.661975
18853		6.684213	-7.133384	-0.538061	-0.532150	0.409823	0.041153	-0.653076	0.561279	0.442871	0.209371	-0.650487	0.305813	-0.662954
18854		6.832632	-6.851168	-0.525020	-0.484743	0.371764	0.059677	-0.653076	0.557617	0.432129	0.206459	-0.649090	0.309474	-0.663538
18855		6.348042	-7.733593	-0.819245	-0.335747	0.272604	0.063044	-0.649170	0.553467	0.439209	0.204514	-0.647868	0.312211	-0.664052
18856		5.924694	-8.212959	-0.817398	0.214857	-0.039177	0.008944	-0.656250	0.556885	0.432373	0.206047	-0.647690	0.311017	-0.664312
18857		6.728464	-6.801033	-0.988755	0.478584	-0.182574	-0.064540	-0.648926	0.557129	0.430908	0.208868	-0.647972	0.307765	-0.664670
18858		7.346558	-5.992340	-1.169461	0.139060	-0.010866	-0.000553	-0.653564	0.558594	0.425781	0.209779	-0.647767	0.307014	-0.664931
18859		6.924732	-6.741275	-0.992301	-0.215169	0.173134	0.079092	-0.657227	0.560059	0.430420	0.208707	-0.646933	0.308992	-0.665164
18860		7.149952	-6.743012	-0.348793	-0.338356	0.225399	0.085854	-0.656006	0.550293	0.427734	0.206875	-0.646022	0.311767	-0.665326
18861		7.187740	-7.123970	0.326135	-0.320810	0.204977	0.062054	-0.658691	0.563232	0.434570	0.205022	-0.645245	0.314292	-0.665467
18862		6.752847	-7.578300	0.415368	-0.071488	0.071070	-0.003218	-0.656982	0.552002	0.425537	0.204564	-0.644966	0.314825	-0.665626
18863		6.984914	-7.022038	0.112600	0.152497	-0.071737	-0.072409	-0.655518	0.551270	0.423096	0.205248	-0.645252	0.313529	-0.665749
18864		7.509715	-6.175095	-0.531275	0.025767	-0.030683	-0.065918	-0.662598	0.555664	0.429199	0.205183	-0.645509	0.313042	-0.665750
18865		7.090255	-6.957717	-0.692323	-0.082454	0.020731	-0.038904	-0.653320	0.554932	0.427979	0.204553	-0.645606	0.313380	-0.665691
18866		6.713854	-6.904864	-0.780341	0.087780	-0.047721	-0.058121	-0.655518	0.552490	0.442383	0.204947	-0.645855	0.312537	-0.665724
18867		7.405187	-6.110679	-0.951263	0.104467	-0.071875	-0.034059	-0.656250	0.555664	0.436279	0.205618	-0.646184	0.311675	-0.665602
18868		7.245135	-6.332827	-1.017221	-0.004708	-0.007660	0.000606	-0.662109	0.552734	0.429932	0.205726	-0.646229	0.311726	-0.665502
18869		6.972961	-6.870622	-0.610845	0.086708	-0.045299	-0.000998	-0.652832	0.554443	0.423828	0.206372	-0.646297	0.311226	-0.665469
18870		7.569899	-6.324075	-0.158306	0.076882	-0.031391	0.004352	-0.665527	0.552002	0.431641	0.206992	-0.646291	0.310824	-0.665470
18871		7.303829	-6.468593	-0.020362	-0.078088	0.058595	0.032528	-0.658447	0.552490	0.425049	0.206645	-0.645984	0.311602	-0.665513
18872		6.768560	-6.910278	-0.108515	0.011945	0.013017	0.001012	-0.660156	0.556396	0.431152	0.206755	-0.645849	0.311626	-0.665598
18873		7.571533	-6.288760	-0.076486	0.048788	-0.013278	-0.015748	-0.652588	0.554199	0.431885	0.207056	-0.645859	0.311295	-0.665649
18874		7.433760	-6.302997	-0.181951	-0.125197	0.088103	0.015951	-0.652832	0.560791	0.424072	0.206355	-0.645546	0.312254	-0.665722
18875		6.695188	-7.011127	-0.336518	-0.122037	0.085983	0.006884	-0.655029	0.553223	0.435059	0.205648	-0.645230	0.313149	-0.665826
18876		7.044803	-6.844200	-0.483482	0.041196	-0.021359	-0.020184	-0.659180	0.548584	0.427002	0.205920	-0.645340	0.312798	-0.665801
18877		7.321405	-6.655872	-0.478514	0.027921	-0.004057	-0.006387	-0.657959	0.550293	0.425293	0.206096	-0.645294	0.312669	-0.665851
18878		6.611799	-7.257647	-0.784922	0.110596	-0.048420	-0.017153	-0.662354	0.560303	0.427490	0.206786	-0.645378	0.311943	-0.665897
18879		6.902142	-7.069777	-0.680611	0.218898	-0.129787	-0.046791	-0.655273	0.556641	0.424561	0.208134	-0.645802	0.310309	-0.665829
18880		7.181415	-6.644527	-0.553354	0.141124	-0.094718	-0.022899	-0.661865	0.549316	0.427246	0.209108	-0.646110	0.309292	-0.665698
18881		6.896015	-7.000618	-0.461058	0.079742	-0.060877	-0.016102	-0.658936	0.555664	0.430908	0.209624	-0.646313	0.308739	-0.665596
18882		6.789911	-7.315195	-0.369605	0.263722	-0.167583	-0.053167	-0.665771	0.556885	0.427246	0.211253	-0.646905	0.306748	-0.665426
18883		6.985459	-7.026470	-0.347100	0.387022	-0.243313	-0.090548	-0.655273	0.556885	0.423584	0.213484	-0.647748	0.303775	-0.665258
18884		7.032791	-6.803343	-0.358558	0.341599	-0.228185	-0.088770	-0.653320	0.561523	0.426514	0.215479	-0.648591	0.301065	-0.665025
18885		7.147735	-6.634786	-0.361494	0.242205	-0.182942	-0.076390	-0.657715	0.557617	0.427979	0.216921	-0.649347	0.299029	-0.664737
18886		7.083357	-6.789105	-0.352298	0.205043	-0.163245	-0.071888	-0.647705	0.566895	0.425049	0.218078	-0.650037	0.297281	-0.664468
18887		6.987848	-6.904718	-0.407656	0.307356	-0.220689	-0.090254	-0.649658	0.564209	0.419678	0.219935	-0.650917	0.294715	-0.664138
18888		7.397166	-6.562244	-0.329870	0.373991	-0.256110	-0.099928	-0.647461	0.567139	0.436523	0.222131	-0.651847	0.291701	-0.663825
18889		7.575301	-6.293881	-0.316222	0.259678	-0.190845	-0.082997	-0.647461	0.560547	0.427002	0.223685	-0.652688	0.289445	-0.663464
18890		7.213241	-6.638365	-0.323745	0.193654	-0.157340	-0.077450	-0.643799	0.560791	0.426758	0.224758	-0.653389	0.287703	-0.663169
18891		7.299912	-6.724097	-0.211055	0.243756	-0.188040	-0.090939	-0.653320	0.559570	0.433594	0.226120	-0.654205	0.285539	-0.662837
18892		7.293503	-6.607039	-0.185298	0.263436	-0.198677	-0.099425	-0.652588	0.573242	0.425781	0.227500	-0.655062	0.283216	-0.662515
18893		6.987852	-6.921677	-0.352630	0.290457	-0.214855	-0.107778	-0.642090	0.566650	0.426270	0.229090	-0.655922	0.280673	-0.662198
18894		6.845338	-7.091769	-0.446681	0.425472	-0.301308	-0.128231	-0.656006	0.562744	0.422607	0.231522	-0.657084	0.277069	-0.661718
18895		7.168678	-6.547111	-0.459228	0.464528	-0.323977	-0.131605	-0.641357	0.575928	0.422607	0.234047	-0.658208	0.273289	-0.661285
18896		7.281833	-6.440072	-0.469871	0.336485	-0.249382	-0.101610	-0.647461	0.573730	0.422363	0.236039	-0.659154	0.270416	-0.660816
18897		7.048490	-6.685848	-0.393908	0.300599	-0.227930	-0.099018	-0.639404	0.568115	0.419434	0.237720	-0.660011	0.267839	-0.660407
18898		7.305809	-6.600824	-0.115569	0.314207	-0.239187	-0.101211	-0.647705	0.567139	0.412842	0.239487	-0.660913	0.265142	-0.659954
18899		7.411295	-6.456512	-0.093733	0.272881	-0.219360	-0.094464	-0.640381	0.572998	0.422363	0.240920	-0.661683	0.262840	-0.659582
18900		7.257329	-6.676261	-0.168848	0.271486	-0.220702	-0.096962	-0.637451	0.576172	0.419922	0.242441	-0.662564	0.260416	-0.659101
18901		7.134903	-6.816391	-0.360278	0.414192	-0.301711	-0.119623	-0.641846	0.578125	0.418701	0.244828	-0.663637	0.256909	-0.658516
18902		6.982860	-7.215284	-0.427084	0.621240	-0.425964	-0.152075	-0.635986	0.580322	0.419434	0.248397	-0.664988	0.251862	-0.657765
18903		6.430420	-8.052652	-0.470957	0.948602	-0.642129	-0.204792	-0.632812	0.581543	0.422119	0.253962	-0.666948	0.244229	-0.656533
18904		5.792273	-8.731394	-0.659601	1.477649	-0.966341	-0.298764	-0.632324	0.589355	0.414795	0.262561	-0.669682	0.232440	-0.654645
18905		5.877297	-8.488217	-1.015581	1.956882	-1.269318	-0.385473	-0.618652	0.594727	0.408691	0.273838	-0.672940	0.216871	-0.652021
18906		6.290276	-7.810339	-1.263893	2.125563	-1.387023	-0.397316	-0.618652	0.600342	0.398193	0.286133	-0.676225	0.199925	-0.648751
18907		6.403731	-7.506740	-1.204167	2.093654	-1.408796	-0.381447	-0.606934	0.613037	0.396240	0.298150	-0.679315	0.183185	-0.645043
18908		6.587099	-7.355912	-0.930664	2.110101	-1.436387	-0.369909	-0.614746	0.623779	0.390625	0.310309	-0.682250	0.166197	-0.640798
18909		6.883303	-7.093184	-0.597075	2.177321	-1.501357	-0.384175	-0.607422	0.630127	0.391357	0.322605	-0.685001	0.148615	-0.636093
18910		7.345797	-6.566907	-0.427630	2.252359	-1.545297	-0.403077	-0.598389	0.639160	0.376465	0.335099	-0.687521	0.130310	-0.630906
18911		7.789294	-5.837678	-0.377649	2.229509	-1.537928	-0.413224	-0.594482	0.642578	0.361084	0.347252	-0.689690	0.112031	-0.625455
18912		8.190499	-5.299065	-0.153202	2.095539	-1.450974	-0.403352	-0.590332	0.654053	0.351074	0.358385	-0.691397	0.094757	-0.620122
18913		8.375344	-4.938418	-0.019053	1.964074	-1.349623	-0.382736	-0.578857	0.670410	0.348877	0.368665	-0.692655	0.078529	-0.614938
18914		8.436319	-4.763667	0.069971	1.852698	-1.252616	-0.363865	-0.585693	0.663574	0.349609	0.378319	-0.693561	0.063153	-0.609803
18915		8.531005	-4.669135	0.179662	1.742354	-1.164921	-0.352677	-0.568604	0.672363	0.341064	0.386993	-0.694152	0.048756	-0.604990
18916		8.595354	-4.687661	0.224342	1.614200	-1.076170	-0.344682	-0.575195	0.691162	0.331787	0.394955	-0.694556	0.035243	-0.600301
18917		8.411139	-4.888046	0.180527	1.510881	-1.002399	-0.321817	-0.579346	0.689453	0.316406	0.402362	-0.694707	0.022609	-0.595798
18918		8.539009	-4.765009	0.132450	1.420399	-0.921327	-0.295092	-0.563232	0.692139	0.318848	0.409219	-0.694530	0.010885	-0.591650
18919		8.438546	-4.798323	-0.008901	1.285296	-0.820286	-0.265947	-0.567139	0.696045	0.313232	0.415398	-0.694294	0.000292	-0.587708
18920		8.248824	-5.171082	0.065438	1.177859	-0.758230	-0.238735	-0.559326	0.694824	0.301758	0.420988	-0.694006	-0.009385	-0.583983
18921		8.232371	-5.324219	0.085972	1.182247	-0.742158	-0.228301	-0.560791	0.699463	0.290039	0.426638	-0.693510	-0.018978	-0.580228
18922		8.379280	-5.160519	0.165817	1.153779	-0.712780	-0.216091	-0.560791	0.709473	0.291504	0.432149	-0.692836	-0.028255	-0.576564
18923		8.317226	-5.205400	0.211014	1.064369	-0.654622	-0.205392	-0.560791	0.713379	0.283447	0.437153	-0.692165	-0.036822	-0.573104
18924		8.224960	-5.251244	0.186623	0.971725	-0.604918	-0.184829	-0.561523	0.712891	0.274902	0.441703	-0.691509	-0.044645	-0.569843
18925		8.250599	-5.135271	0.345170	0.819098	-0.520338	-0.150812	-0.568115	0.712891	0.271240	0.445524	-0.690944	-0.051231	-0.566992
18926		8.272353	-5.146577	0.456300	0.692319	-0.451996	-0.131122	-0.562256	0.717285	0.267822	0.448663	-0.690483	-0.056840	-0.564538
18927		8.222327	-5.319711	0.558186	0.684643	-0.439643	-0.136449	-0.552979	0.720947	0.266113	0.451757	-0.689968	-0.062398	-0.562109
18928		8.351875	-5.151236	0.596080	0.702498	-0.448321	-0.144496	-0.560791	0.719727	0.255615	0.454930	-0.689411	-0.068111	-0.559564
18929		8.457382	-4.821296	0.449773	0.626038	-0.398474	-0.128339	-0.560547	0.718506	0.260254	0.457729	-0.688837	-0.073195	-0.557342
18930		8.568008	-4.645839	0.403648	0.457628	-0.313190	-0.101157	-0.554199	0.720947	0.249268	0.459679	-0.688547	-0.077002	-0.555580
18931		8.672462	-4.689050	0.558936	0.317901	-0.237151	-0.080625	-0.555176	0.726074	0.256592	0.461034	-0.688403	-0.079763	-0.554244
18932		8.434197	-5.123051	0.600799	0.286256	-0.210134	-0.086658	-0.565430	0.720703	0.255127	0.462167	-0.688284	-0.082291	-0.553078
18933		8.191474	-5.429893	0.405982	0.376276	-0.251259	-0.098088	-0.554932	0.720947	0.250977	0.463675	-0.687972	-0.085474	-0.551719
18934		8.337871	-5.070365	0.141429	0.377733	-0.243968	-0.090537	-0.555664	0.722900	0.248291	0.465273	-0.687617	-0.088581	-0.550324
18935		8.359015	-4.873112	0.106245	0.213428	-0.148166	-0.055175	-0.552490	0.719971	0.247559	0.466163	-0.687472	-0.090360	-0.549462
18936		8.293593	-5.114623	0.289045	0.098327	-0.075067	-0.019687	-0.557861	0.731201	0.251465	0.466610	-0.687466	-0.091127	-0.548964
18937		8.307053	-5.273447	0.443837	0.106207	-0.060166	-0.014154	-0.552979	0.724609	0.248535	0.467138	-0.687370	-0.091825	-0.548519
18938		8.477589	-4.963747	0.519093	0.119154	-0.062350	-0.011241	-0.558838	0.727783	0.245605	0.467756	-0.687225	-0.092584	-0.548046
18939		8.704463	-4.605562	0.586982	0.008382	0.003436	0.001380	-0.558594	0.723389	0.250977	0.467847	-0.687202	-0.092519	-0.548008
18940		8.584687	-4.712220	0.540786	-0.132883	0.098490	0.032289	-0.560547	0.733643	0.244873	0.467315	-0.687337	-0.091259	-0.548503
18941		8.438428	-4.922616	0.502995	-0.191484	0.132109	0.039978	-0.551758	0.726318	0.252686	0.466554	-0.687517	-0.089559	-0.549206
18942		8.465893	-4.988877	0.539161	-0.224464	0.154568	0.040853	-0.548096	0.721436	0.243652	0.465604	-0.687750	-0.087600	-0.550036
18943		8.332618	-5.203813	0.498399	-0.256179	0.179049	0.044335	-0.560791	0.717529	0.248047	0.464534	-0.687958	-0.085402	-0.551025
18944		8.167890	-5.366081	0.496253	-0.261818	0.191642	0.049901	-0.558105	0.718262	0.252930	0.463417	-0.688131	-0.083116	-0.552098
18945		8.047248	-5.585203	0.430842	-0.225570	0.165752	0.044007	-0.558105	0.723389	0.256104	0.462460	-0.688287	-0.081113	-0.553003
18946		7.914429	-5.804964	0.457561	-0.181399	0.141182	0.039080	-0.558838	0.729248	0.247070	0.461724	-0.688381	-0.079424	-0.553746
18947		7.956961	-5.732014	0.360314	-0.170470	0.136179	0.037743	-0.551514	0.722412	0.248047	0.461081	-0.688420	-0.077827	-0.554459
18948		7.935720	-5.807772	0.394963	-0.216242	0.146821	0.045474	-0.560791	0.726074	0.254395	0.460215	-0.688596	-0.075928	-0.555223
18949		7.805152	-6.017014	0.424911	-0.204930	0.129806	0.038710	-0.552490	0.720215	0.256592	0.459343	-0.688809	-0.074183	-0.555916
18950		7.718233	-6.116736	0.459370	-0.082794	0.054720	0.016470	-0.558594	0.718506	0.260010	0.459025	-0.688896	-0.073408	-0.556175
18951		7.747816	-5.997016	0.455242	0.048172	-0.015971	-0.006879	-0.555664	0.723389	0.246826	0.459282	-0.688800	-0.073646	-0.556050
18952		7.856764	-5.807958	0.448147	0.099762	-0.057624	-0.024130	-0.552246	0.721191	0.260254	0.459781	-0.688652	-0.074399	-0.555720
18953		7.910161	-5.791521	0.530173	0.089498	-0.064159	-0.028415	-0.552979	0.719238	0.265381	0.460159	-0.688612	-0.075119	-0.555359
18954		7.945763	-5.719663	0.536625	0.091107	-0.073272	-0.031639	-0.552734	0.720215	0.253906	0.460504	-0.688621	-0.075889	-0.554957
18955		8.031549	-5.565073	0.506488	0.092554	-0.070332	-0.037286	-0.553223	0.722656	0.254150	0.460866	-0.688573	-0.076711	-0.554603
18956		8.106672	-5.451008	0.456790	0.094482	-0.078145	-0.038239	-0.563721	0.729248	0.252686	0.461232	-0.688553	-0.077573	-0.554204
18957		8.187544	-5.378753	0.449586	0.101086	-0.075814	-0.040410	-0.554443	0.718506	0.251465	0.461622	-0.688485	-0.078483	-0.553836
18958		8.280306	-5.256598	0.429195	0.081593	-0.066539	-0.039603	-0.547363	0.717773	0.249512	0.461905	-0.688456	-0.079258	-0.553525
18959		8.389159	-5.128705	0.417702	0.027012	-0.029023	-0.025373	-0.550781	0.721191	0.255615	0.461984	-0.688472	-0.079548	-0.553398
18960		8.379927	-5.118994	0.499197	-0.051302	0.020387	-0.012654	-0.550537	0.730225	0.256104	0.461687	-0.688584	-0.079203	-0.553555
18961		8.281584	-5.267728	0.445743	-0.080655	0.038759	-0.003798	-0.556152	0.723633	0.254150	0.461297	-0.688724	-0.078594	-0.553793
18962		8.263430	-5.283268	0.466575	-0.077502	0.043238	-0.007409	-0.549072	0.721924	0.250000	0.460891	-0.688823	-0.078026	-0.554089
18963		8.290739	-5.284081	0.371353	-0.072945	0.040791	0.000497	-0.553955	0.725098	0.246338	0.460571	-0.688910	-0.077443	-0.554329
18964		8.224586	-5.302525	0.343326	-0.084486	0.059080	0.008909	-0.555176	0.720947	0.258789	0.460242	-0.688947	-0.076704	-0.554658
18965		8.153601	-5.404482	0.360598	-0.115011	0.079490	0.016962	-0.557861	0.724365	0.255127	0.459743	-0.689048	-0.075678	-0.555087
18966		8.096199	-5.518372	0.449956	-0.141640	0.099519	0.019239	-0.560303	0.725098	0.260986	0.459128	-0.689143	-0.074451	-0.555644
18967		8.013762	-5.669824	0.519739	-0.131875	0.087803	0.013775	-0.550781	0.712402	0.256592	0.458519	-0.689263	-0.073336	-0.556146
18968		8.014810	-5.662011	0.529003	-0.106397	0.070413	0.009031	-0.554443	0.717529	0.259277	0.458028	-0.689358	-0.072437	-0.556550
18969		8.013856	-5.663538	0.527115	-0.112225	0.055805	-0.000589	-0.557129	0.720947	0.262451	0.457450	-0.689538	-0.071617	-0.556909
18970		8.034427	-5.701476	0.513745	-0.102440	0.045071	-0.006509	-0.545898	0.723145	0.263916	0.456891	-0.689729	-0.070912	-0.557222
18971		7.975501	-5.760259	0.523802	-0.059479	0.015989	-0.015167	-0.549072	0.724609	0.264404	0.456552	-0.689890	-0.070539	-0.557347
18972		7.888060	-5.866683	0.422651	0.014111	-0.027136	-0.029685	-0.551758	0.722656	0.259521	0.456540	-0.689960	-0.070760	-0.557243
18973		7.951150	-5.731122	0.290940	0.074308	-0.070600	-0.042485	-0.564209	0.718506	0.258545	0.456793	-0.689979	-0.071520	-0.556915
18974		7.982846	-5.677796	0.317598	0.068024	-0.066214	-0.038281	-0.556885	0.717041	0.259277	0.456993	-0.689999	-0.072242	-0.556633
18975		7.954320	-5.748119	0.359758	0.065831	-0.066922	-0.038534	-0.556396	0.708496	0.262695	0.457189	-0.690038	-0.072940	-0.556332
18976		7.988839	-5.747539	0.397804	0.104631	-0.095137	-0.048712	-0.563721	0.715332	0.259277	0.457511	-0.690072	-0.073980	-0.555888
18977		8.046322	-5.654758	0.422297	0.156185	-0.123193	-0.061200	-0.557617	0.723877	0.251709	0.458065	-0.690011	-0.075454	-0.555309
18978		8.059771	-5.623289	0.461278	0.188041	-0.140877	-0.068354	-0.556641	0.716064	0.263184	0.458816	-0.689877	-0.077178	-0.554618
18979		8.020091	-5.621959	0.462283	0.201082	-0.149405	-0.075398	-0.556641	0.719727	0.257568	0.459542	-0.689774	-0.079005	-0.553887
18980		7.990585	-5.699192	0.414493	0.225261	-0.168204	-0.080798	-0.552490	0.718506	0.258789	0.460392	-0.689640	-0.081054	-0.553051
18981		7.925887	-5.863119	0.363160	0.263119	-0.188911	-0.093394	-0.552490	0.731934	0.254150	0.461383	-0.689454	-0.083413	-0.552106
18982		7.829837	-5.982599	0.366344	0.342321	-0.237182	-0.107966	-0.550537	0.723145	0.248047	0.462772	-0.689147	-0.086395	-0.550866
18983		7.832970	-5.878264	0.364733	0.403449	-0.287170	-0.118951	-0.556396	0.720459	0.248047	0.464411	-0.688809	-0.089930	-0.549343
18984		7.957987	-5.761111	0.312331	0.439474	-0.312637	-0.132675	-0.551758	0.730225	0.245361	0.466133	-0.688433	-0.093819	-0.547703
18985		7.902242	-5.851529	0.306155	0.507298	-0.342594	-0.160990	-0.564697	0.726318	0.243164	0.468120	-0.687885	-0.098266	-0.545913
18986		7.729522	-5.984084	0.213270	0.668058	-0.441499	-0.190181	-0.555664	0.729736	0.233398	0.470748	-0.687111	-0.104035	-0.543554
18987		8.142808	-5.451720	0.354392	0.757830	-0.488080	-0.200638	-0.553223	0.729248	0.234863	0.473831	-0.686131	-0.110430	-0.540845
18988		8.351468	-4.988794	0.376920	0.668959	-0.442628	-0.194286	-0.555664	0.724121	0.229736	0.476431	-0.685296	-0.116179	-0.538410
18989		8.242483	-5.306481	0.518477	0.606901	-0.398974	-0.183718	-0.556152	0.725586	0.229736	0.478725	-0.684491	-0.121432	-0.536236
18990		8.074825	-5.529018	0.548858	0.698488	-0.446500	-0.214236	-0.561279	0.727539	0.229736	0.481325	-0.683486	-0.127440	-0.533790
18991		8.366860	-5.101343	0.584438	0.778523	-0.498546	-0.243524	-0.560303	0.723633	0.220215	0.484144	-0.682339	-0.134172	-0.531052
18992		8.536537	-4.764340	0.475087	0.656652	-0.436682	-0.247174	-0.557617	0.727051	0.222900	0.486306	-0.681351	-0.140145	-0.528798
18993		8.330034	-5.115694	0.325165	0.581430	-0.392628	-0.232355	-0.562256	0.731201	0.210938	0.488131	-0.680495	-0.145476	-0.526775
18994		8.109046	-5.374871	-0.032031	0.622018	-0.424875	-0.223391	-0.567383	0.731201	0.208496	0.490208	-0.679551	-0.151087	-0.524480
18995		8.374782	-5.082240	0.094890	0.648866	-0.457046	-0.224757	-0.574951	0.729492	0.202881	0.492352	-0.678609	-0.156965	-0.521959
18996		8.974714	-4.353414	0.290669	0.540708	-0.389988	-0.212523	-0.565674	0.723633	0.199219	0.493990	-0.677793	-0.162067	-0.519908
18997		8.662951	-4.837413	0.268841	0.369312	-0.281972	-0.187332	-0.562744	0.725586	0.198730	0.494917	-0.677241	-0.165806	-0.518565
18998		8.021283	-5.752436	0.176866	0.495522	-0.356728	-0.204719	-0.565186	0.721924	0.196533	0.496380	-0.676462	-0.170459	-0.516671
18999		8.224864	-5.358098	0.230136	0.739110	-0.474135	-0.251835	-0.569092	0.733154	0.200195	0.498808	-0.675089	-0.176923	-0.513949
19000		8.968789	-4.290694	-0.028952	0.694272	-0.425753	-0.237154	-0.573730	0.729980	0.189453	0.501082	-0.673721	-0.182845	-0.511453
19001		8.563276	-4.752930	0.100045	0.459370	-0.309093	-0.186318	-0.575195	0.726807	0.182129	0.502425	-0.672849	-0.187043	-0.509762
19002		8.259390	-5.085252	0.110933	0.537513	-0.381538	-0.195311	-0.580322	0.731689	0.184814	0.504054	-0.671897	-0.191951	-0.507581
19003		8.677951	-4.680713	0.450966	0.634852	-0.444349	-0.222545	-0.575439	0.725342	0.187012	0.505970	-0.670761	-0.197666	-0.504978
19004		8.835441	-4.183565	0.497678	0.600895	-0.417241	-0.226719	-0.570801	0.743896	0.178711	0.507667	-0.669667	-0.203112	-0.502559
19005		8.822756	-4.201018	0.434790	0.487704	-0.353930	-0.208874	-0.571777	0.732910	0.174561	0.509008	-0.668764	-0.207579	-0.500577
19006		8.914409	-4.222403	0.483234	0.372650	-0.310202	-0.182827	-0.573242	0.730713	0.173096	0.509853	-0.668188	-0.211292	-0.498929
19007		8.835450	-4.366295	0.449134	0.297530	-0.247698	-0.135862	-0.580078	0.733398	0.172363	0.510570	-0.667745	-0.214174	-0.497558
19008		8.495635	-4.714768	0.240989	0.296536	-0.191215	-0.095471	-0.579346	0.732422	0.168945	0.511535	-0.667130	-0.216614	-0.496334
19009		8.388578	-4.722926	0.102217	0.300577	-0.194584	-0.092332	-0.580322	0.726318	0.167480	0.512533	-0.666502	-0.219064	-0.495071
19010		8.568380	-4.447471	0.330157	0.269121	-0.189889	-0.092645	-0.586182	0.722412	0.170898	0.513335	-0.665985	-0.221410	-0.493892
19011		8.830685	-4.343660	0.315861	0.209505	-0.148606	-0.081397	-0.580078	0.727295	0.156494	0.513867	-0.665596	-0.223334	-0.492996
19012		8.606495	-4.714089	0.401369	0.221060	-0.158014	-0.087769	-0.584229	0.727783	0.157715	0.514533	-0.665090	-0.225314	-0.492082
19013		8.599183	-4.482564	0.077636	0.326287	-0.218459	-0.092137	-0.584961	0.723877	0.160889	0.515623	-0.664380	-0.228030	-0.490647
19014		8.923598	-3.885568	0.027610	0.314975	-0.216153	-0.079673	-0.588379	0.733643	0.163330	0.516653	-0.663765	-0.230639	-0.489174
19015		9.028858	-4.181349	0.205164	0.176595	-0.136789	-0.060433	-0.580566	0.725342	0.156494	0.517145	-0.663482	-0.232187	-0.488304
19016		8.862212	-4.434877	0.512183	0.113773	-0.104385	-0.052440	-0.586670	0.727051	0.152588	0.517417	-0.663319	-0.233292	-0.487712
19017		9.013024	-4.103662	0.435784	0.055682	-0.020070	-0.025021	-0.578613	0.732422	0.156982	0.517652	-0.663074	-0.233698	-0.487601
19018		8.880551	-3.828142	0.266736	0.009587	-0.009084	-0.024169	-0.582275	0.737061	0.158203	0.517673	-0.663045	-0.233729	-0.487604
19019		9.200453	-3.552000	0.362404	-0.019948	-0.003098	-0.014633	-0.586914	0.725342	0.153809	0.517578	-0.663140	-0.233559	-0.487656
19020		9.103631	-4.303277	0.443918	-0.114137	0.066106	0.013519	-0.584229	0.724854	0.154053	0.517180	-0.663363	-0.232705	-0.488183
19021		8.595104	-4.943715	0.308538	-0.097112	0.061671	0.024878	-0.584473	0.732178	0.153076	0.516923	-0.663555	-0.231853	-0.488600
19022		8.515303	-4.726654	0.079349	-0.096224	0.063009	0.019254	-0.583740	0.727051	0.166260	0.516688	-0.663711	-0.230978	-0.489050
19023		8.386038	-4.626568	-0.152708	-0.140772	0.073021	0.018941	-0.575439	0.733154	0.160645	0.516120	-0.664131	-0.229890	-0.489593
19024		8.576141	-4.496100	-0.041181	-0.135342	0.081224	0.027664	-0.581299	0.721436	0.160400	0.515730	-0.664468	-0.228613	-0.490145
19025		8.732073	-4.337645	0.205867	-0.150495	0.117958	0.043421	-0.583740	0.728760	0.161133	0.515326	-0.664725	-0.227202	-0.490876
19026		8.687856	-4.366154	0.352083	-0.140788	0.114070	0.046135	-0.582031	0.726318	0.156982	0.514998	-0.664954	-0.225799	-0.491556
19027		8.764337	-4.452145	0.379838	-0.116270	0.116026	0.043161	-0.578857	0.728760	0.166992	0.514822	-0.665023	-0.224524	-0.492231
19028		8.908024	-4.515795	0.430407	-0.163158	0.137151	0.049175	-0.583984	0.729492	0.163086	0.514402	-0.665311	-0.222855	-0.493039
19029		8.764828	-4.606818	0.506443	-0.244689	0.167306	0.057159	-0.577881	0.732910	0.158447	0.513630	-0.665782	-0.220747	-0.494155
19030		8.592844	-4.839318	0.364286	-0.283454	0.175329	0.060315	-0.580566	0.732666	0.167236	0.512742	-0.666344	-0.218341	-0.495387
19031		8.494549	-4.942754	0.160788	-0.234436	0.137812	0.042047	-0.577148	0.731201	0.166504	0.511919	-0.666872	-0.216419	-0.496370
19032		8.747740	-4.534789	0.107178	-0.226809	0.142952	0.043266	-0.576660	0.730957	0.172119	0.511170	-0.667332	-0.214478	-0.497366
19033		8.846299	-4.202872	0.015978	-0.308946	0.202700	0.068189	-0.578857	0.728271	0.167480	0.510140	-0.667973	-0.211792	-0.498712
19034		8.805286	-4.388099	0.085646	-0.375347	0.241115	0.092792	-0.580811	0.724365	0.171631	0.508928	-0.668708	-0.208599	-0.500309
19035		8.600340	-4.748102	0.171109	-0.361735	0.230072	0.099415	-0.578857	0.728760	0.171143	0.507753	-0.669448	-0.205532	-0.501779
19036		8.624816	-4.697341	0.324955	-0.338190	0.212159	0.097519	-0.582764	0.727783	0.187744	0.506708	-0.670128	-0.202598	-0.503120
19037		8.694717	-4.587651	0.310557	-0.368036	0.234213	0.105441	-0.574707	0.726807	0.175293	0.505439	-0.670972	-0.199424	-0.504537
19038		8.578709	-4.668749	0.386935	-0.401542	0.255299	0.118962	-0.578125	0.725098	0.178955	0.504189	-0.671759	-0.195900	-0.506118
19039		8.590046	-4.663464	0.305708	-0.396722	0.267206	0.125817	-0.577148	0.726074	0.190674	0.502975	-0.672481	-0.192371	-0.507720
19040		8.804590	-4.240466	0.186461	-0.452310	0.286451	0.134713	-0.575928	0.735596	0.188232	0.501447	-0.673443	-0.188429	-0.509431
19041		8.960317	-4.096999	0.103469	-0.575722	0.354555	0.168219	-0.566406	0.731445	0.190918	0.499541	-0.674609	-0.183411	-0.511587
19042		8.749636	-4.382685	-0.012431	-0.699497	0.441187	0.216768	-0.565430	0.731934	0.199951	0.497275	-0.675976	-0.177161	-0.514187
19043		8.465092	-4.725786	-0.011973	-0.742725	0.500341	0.249752	-0.572998	0.723633	0.200195	0.494933	-0.677321	-0.170270	-0.516997
19044		8.753297	-4.304090	-0.005171	-0.784913	0.536687	0.248616	-0.572266	0.723633	0.210693	0.492327	-0.678594	-0.163255	-0.520070
19045		8.987799	-4.296657	0.206540	-0.928925	0.608720	0.255812	-0.568359	0.726807	0.210693	0.488955	-0.680155	-0.155248	-0.523650
19046		8.930223	-4.551267	0.423326	-1.001976	0.650099	0.270447	-0.558838	0.725586	0.214600	0.485304	-0.681735	-0.146607	-0.527470
19047		8.899948	-4.371047	0.405326	-1.056626	0.663090	0.286662	-0.562256	0.723145	0.228027	0.481416	-0.683416	-0.137468	-0.531304
19048		8.895935	-4.036396	0.147795	-1.253990	0.772958	0.316785	-0.558594	0.728271	0.230225	0.476528	-0.685400	-0.126867	-0.535773
19049		8.818225	-4.227321	0.033703	-1.459189	0.900213	0.350570	-0.564209	0.718994	0.243164	0.470742	-0.687479	-0.114564	-0.540971
19050		8.583574	-4.768596	-0.010192	-1.562439	0.960170	0.368378	-0.567139	0.726074	0.251465	0.464314	-0.689591	-0.101563	-0.546408
19051		8.317839	-5.123078	0.121155	-1.544562	0.953914	0.358153	-0.558838	0.722412	0.262207	0.457871	-0.691449	-0.088671	-0.551716
19052		8.388216	-4.982848	0.170607	-1.535733	0.958252	0.356839	-0.569580	0.716553	0.268066	0.451383	-0.693107	-0.075688	-0.556891
19053		8.271266	-5.055297	0.003540	-1.593049	1.002668	0.368275	-0.563965	0.716797	0.281250	0.444505	-0.694575	-0.062370	-0.562219
19054		8.232713	-5.137586	0.018140	-1.596638	1.025885	0.383205	-0.561279	0.703857	0.297607	0.437591	-0.695803	-0.048723	-0.567449
19055		8.217564	-5.109147	-0.015159	-1.613487	1.063944	0.395494	-0.555664	0.697998	0.301514	0.430448	-0.696817	-0.034765	-0.572671
19056		8.060495	-5.428892	-0.068041	-1.645837	1.104522	0.406167	-0.568115	0.695557	0.311279	0.423106	-0.697527	-0.020410	-0.577946
19057		7.805409	-5.944902	-0.036906	-1.597463	1.090567	0.397483	-0.562256	0.692383	0.308838	0.415841	-0.697931	-0.006504	-0.583032
19058		7.762342	-5.957325	-0.079714	-1.555444	1.086330	0.385068	-0.571289	0.694336	0.326904	0.408757	-0.697933	0.007127	-0.588010
19059		7.924605	-5.779109	-0.195201	-1.644458	1.121490	0.385397	-0.571045	0.690430	0.332031	0.400978	-0.697937	0.021342	-0.592996
19060		7.736720	-6.002469	-0.211326	-1.732789	1.171680	0.397977	-0.572266	0.687012	0.337158	0.392656	-0.697746	0.036231	-0.598045
19061		7.735038	-5.892306	-0.093000	-1.771705	1.190347	0.402429	-0.570312	0.677979	0.346436	0.384042	-0.697327	0.051382	-0.602997
19062		7.827860	-5.726429	-0.218078	-1.821365	1.213642	0.409544	-0.573730	0.660400	0.355225	0.375033	-0.696732	0.066909	-0.607815
19063		7.675030	-6.065976	-0.235449	-1.842507	1.224237	0.411766	-0.578857	0.661865	0.363281	0.365686	-0.695944	0.082502	-0.612478
19064		7.605520	-6.019427	-0.110656	-1.751906	1.191510	0.406182	-0.582031	0.661621	0.373291	0.356793	-0.694777	0.097484	-0.616831
19065		7.788197	-5.693352	-0.074364	-1.810489	1.254061	0.414987	-0.589355	0.652588	0.370361	0.347473	-0.693218	0.113008	-0.621241
19066		7.546967	-6.059469	-0.172644	-1.911596	1.292590	0.425407	-0.581299	0.642090	0.390381	0.337485	-0.691401	0.129075	-0.625626
19067		7.304854	-6.591345	-0.280654	-1.783197	1.224661	0.403202	-0.593750	0.639404	0.392090	0.328055	-0.689488	0.144262	-0.629424
19068		7.554595	-6.300317	-0.187988	-1.647340	1.168186	0.376295	-0.595459	0.627441	0.395020	0.319244	-0.687236	0.158301	-0.633033
19069		7.583329	-6.093963	-0.446555	-1.650822	1.181858	0.371173	-0.596436	0.624023	0.403076	0.310253	-0.684723	0.172305	-0.636560
19070		7.213478	-6.652114	-0.572261	-1.614080	1.160434	0.363490	-0.611816	0.620117	0.403076	0.301426	-0.682061	0.185999	-0.639797
19071		7.120503	-6.671982	-0.494405	-1.538928	1.134445	0.340281	-0.605713	0.615967	0.399170	0.292823	-0.679109	0.198977	-0.643019
19072		7.367021	-6.109253	-0.638259	-1.676970	1.202130	0.358481	-0.610840	0.607910	0.415283	0.283510	-0.675845	0.212914	-0.646160
19073		7.331757	-6.468778	-0.838564	-1.885511	1.302240	0.400811	-0.623047	0.607422	0.418945	0.272923	-0.672355	0.228422	-0.649057
19074		6.889001	-7.041716	-0.730078	-1.841910	1.292789	0.393038	-0.626465	0.593506	0.425537	0.262500	-0.668508	0.243527	-0.651832
19075		6.965838	-6.991751	-0.518723	-1.619224	1.167925	0.352595	-0.633545	0.591064	0.427490	0.253210	-0.664770	0.256861	-0.654209
19076		6.976848	-7.132612	-0.546951	-1.471035	1.095575	0.323447	-0.628662	0.587402	0.425049	0.244721	-0.660953	0.269004	-0.656422
19077		6.640383	-7.477380	-0.567946	-1.338982	1.034557	0.301912	-0.635742	0.585938	0.427490	0.237089	-0.657076	0.280120	-0.658462
19078		6.283309	-7.693535	-0.546122	-1.194917	0.928251	0.265709	-0.646240	0.570557	0.429688	0.230264	-0.653454	0.289992	-0.660213
19079		6.035292	-7.999719	-0.760310	-0.977965	0.758021	0.217771	-0.647949	0.566406	0.422852	0.224481	-0.650416	0.298071	-0.661605
19080		5.902399	-8.393591	-0.793256	-0.654300	0.556567	0.165061	-0.643066	0.567139	0.423340	0.220639	-0.647893	0.303700	-0.662811
19081		6.067465	-8.043084	-0.853255	-0.341682	0.370193	0.100179	-0.645996	0.564697	0.419189	0.218697	-0.646034	0.306875	-0.663807
19082		6.266107	-7.691305	-1.065546	-0.226674	0.287756	0.070853	-0.655518	0.564941	0.414795	0.217338	-0.644480	0.309121	-0.664721
19083		6.466007	-7.469891	-0.873199	-0.205170	0.264779	0.090955	-0.650391	0.569092	0.422607	0.216153	-0.642927	0.311346	-0.665572
19084		6.223899	-7.564117	-0.215605	-0.237950	0.299037	0.092275	-0.658936	0.563721	0.422119	0.214802	-0.641379	0.313756	-0.666371
19085		6.151365	-7.209507	-0.725180	-0.152711	0.194174	0.048706	-0.649902	0.568604	0.424072	0.213804	-0.640365	0.315309	-0.666934
19086		6.534157	-7.660145	-0.506892	-0.046479	0.090233	0.027064	-0.654297	0.570068	0.423828	0.213626	-0.639849	0.315926	-0.667194
19087		6.765786	-7.194222	-0.244575	0.001316	0.074538	-0.004030	-0.659424	0.572754	0.408203	0.213526	-0.639401	0.316102	-0.667573
19088		6.759687	-7.010979	-0.547715	-0.016352	0.053527	-0.005940	-0.649658	0.566162	0.419678	0.213335	-0.639039	0.316365	-0.667855
19089		6.880292	-7.289711	-0.340779	-0.049607	0.052793	0.000541	-0.650879	0.569336	0.422119	0.213022	-0.638810	0.316809	-0.667964
19090		6.483556	-7.859248	-0.177071	0.170137	-0.076052	-0.041831	-0.649902	0.574463	0.413330	0.213983	-0.639015	0.315575	-0.668045
19091		6.019946	-8.150273	-0.557523	0.662596	-0.391187	-0.135915	-0.651855	0.573975	0.413330	0.217870	-0.640305	0.310540	-0.667913
19092		6.738681	-7.447329	-0.872331	0.987211	-0.577043	-0.193957	-0.661133	0.574707	0.417236	0.223605	-0.642148	0.303041	-0.667692
19093		7.576544	-5.925071	-0.997172	0.694976	-0.401088	-0.135493	-0.647461	0.578613	0.405518	0.227608	-0.643362	0.297806	-0.667526
19094		7.435722	-5.579370	-0.805761	0.047880	-0.068381	-0.020530	-0.641846	0.583008	0.411865	0.227986	-0.643653	0.297395	-0.667299
19095		6.959322	-6.808126	-0.296807	-0.168381	0.038337	0.038380	-0.643066	0.573242	0.416260	0.227292	-0.643636	0.298684	-0.666977
19096		6.899795	-7.427102	0.584226	0.152588	-0.120240	-0.019034	-0.642578	0.578125	0.418701	0.228363	-0.644032	0.297592	-0.666717
19097		7.106214	-6.955083	0.552012	0.545728	-0.323478	-0.113287	-0.642090	0.583252	0.415283	0.231532	-0.645035	0.293413	-0.666507
19098		7.654565	-6.126926	0.219515	0.503715	-0.313587	-0.122969	-0.651855	0.583496	0.414062	0.234396	-0.646063	0.289429	-0.666252
19099		7.532665	-6.042640	-0.034094	0.207134	-0.149874	-0.074269	-0.647705	0.585205	0.410889	0.235499	-0.646618	0.287690	-0.666078
19100		7.082990	-6.678961	0.105567	0.025698	-0.043130	-0.043038	-0.642334	0.589600	0.407471	0.235557	-0.646861	0.287326	-0.665979
19101		6.834156	-6.905379	-0.002353	0.115336	-0.079675	-0.058716	-0.640381	0.593994	0.418701	0.236131	-0.647171	0.286294	-0.665919
19102		7.332123	-6.401328	-0.240905	0.128373	-0.100216	-0.068118	-0.633545	0.586182	0.412598	0.236791	-0.647625	0.285072	-0.665767
19103		7.371949	-6.441504	-0.530124	0.024393	-0.035357	-0.039246	-0.646973	0.587891	0.403076	0.236884	-0.647846	0.284718	-0.665671
19104		7.118196	-6.851003	-0.382252	-0.018190	0.004060	-0.031587	-0.646240	0.584717	0.411621	0.236653	-0.647862	0.284766	-0.665717
19105		6.887082	-7.059609	-0.261268	0.073283	-0.052458	-0.039305	-0.648682	0.583984	0.407715	0.237006	-0.648059	0.284136	-0.665669
19106		6.939963	-6.931191	-0.273497	0.144684	-0.092397	-0.054314	-0.642822	0.579346	0.405273	0.237744	-0.648356	0.282965	-0.665615
19107		7.056069	-6.702222	-0.342366	0.104696	-0.072275	-0.049915	-0.643066	0.580811	0.410889	0.238246	-0.648614	0.282075	-0.665562
19108		7.129602	-6.618089	-0.200690	-0.020196	-0.010896	-0.026744	-0.642822	0.583740	0.407471	0.238064	-0.648743	0.282112	-0.665485
19109		6.919258	-6.951774	-0.005887	-0.033077	-0.005650	-0.026317	-0.634033	0.578369	0.412109	0.237816	-0.648858	0.282233	-0.665411
19110		6.751167	-7.253726	0.092806	0.130521	-0.102498	-0.061651	-0.644531	0.580078	0.402832	0.238499	-0.649300	0.281038	-0.665241
19111		6.794238	-7.163162	-0.139042	0.328716	-0.214260	-0.101901	-0.644287	0.580811	0.409180	0.240250	-0.649999	0.278357	-0.665056
19112		7.197237	-6.625704	-0.222655	0.305021	-0.208207	-0.104407	-0.638672	0.586670	0.408936	0.241842	-0.650736	0.275788	-0.664828
19113		7.237309	-6.600158	-0.378547	0.143223	-0.122015	-0.077264	-0.645508	0.594482	0.401367	0.242553	-0.651274	0.274405	-0.664615
19114		7.007295	-7.013559	-0.288236	0.086770	-0.086520	-0.061817	-0.641846	0.585693	0.409668	0.242961	-0.651648	0.273517	-0.664465
19115		6.705752	-7.452122	-0.009844	0.244199	-0.199350	-0.096935	-0.637451	0.590332	0.411133	0.244263	-0.652445	0.271322	-0.664105
19116		6.468565	-7.889933	-0.151799	0.564999	-0.394945	-0.165100	-0.635742	0.587402	0.405029	0.247408	-0.653832	0.266550	-0.663509
19117		6.753774	-7.421585	-0.348406	0.810637	-0.543733	-0.210549	-0.631592	0.583008	0.402832	0.251928	-0.655577	0.259881	-0.662731
19118		6.893368	-7.033470	-0.523212	0.811309	-0.559605	-0.207884	-0.634277	0.591064	0.402100	0.256455	-0.657359	0.253185	-0.661821
19119		6.639398	-7.187680	-0.558284	0.762582	-0.554446	-0.197920	-0.637451	0.596680	0.404785	0.260745	-0.659146	0.246810	-0.660775
19120		6.379326	-7.719117	-0.475319	0.929121	-0.668621	-0.216052	-0.628662	0.594238	0.401855	0.266053	-0.661189	0.239156	-0.659431
19121		6.378078	-7.872544	-0.327615	1.265203	-0.865546	-0.267623	-0.631592	0.602783	0.403320	0.273285	-0.663599	0.228899	-0.657691
19122		6.492841	-7.700092	-0.416577	1.543014	-1.034487	-0.317405	-0.624268	0.608887	0.393555	0.282028	-0.666262	0.216424	-0.655527
19123		6.578461	-7.411668	-0.535683	1.687259	-1.135765	-0.338476	-0.620117	0.608398	0.390381	0.291580	-0.668986	0.202752	-0.652940
19124		6.855278	-7.040766	-0.537697	1.687731	-1.143624	-0.329243	-0.611328	0.618652	0.379639	0.301062	-0.671544	0.189074	-0.650108
19125		7.115725	-6.729411	-0.554859	1.638545	-1.114467	-0.300464	-0.618408	0.624756	0.383057	0.310344	-0.673825	0.175826	-0.647095
19126		7.209874	-6.520894	-0.438461	1.591286	-1.095212	-0.285417	-0.604004	0.625244	0.375244	0.319247	-0.675925	0.162961	-0.643933
19127		7.284255	-6.422622	-0.359556	1.627116	-1.125771	-0.288595	-0.609131	0.647217	0.372559	0.328316	-0.677939	0.149739	-0.640458
19128		7.615738	-6.222649	-0.112833	1.685523	-1.156255	-0.295612	-0.597412	0.642334	0.371094	0.337658	-0.679765	0.136029	-0.636712
19129		7.789723	-5.986474	0.007525	1.676904	-1.138216	-0.301331	-0.596924	0.649170	0.361572	0.346761	-0.681371	0.122345	-0.632868
19130		7.862704	-5.858099	0.257529	1.617823	-1.115828	-0.296996	-0.588135	0.657715	0.351562	0.355420	-0.682810	0.109048	-0.628932
19131		8.051770	-5.484108	0.316636	1.531596	-1.077745	-0.296138	-0.583984	0.663574	0.352783	0.363522	-0.684129	0.096264	-0.624942
19132		8.235993	-5.346181	0.423308	1.411487	-0.995893	-0.280922	-0.578369	0.677979	0.341064	0.370854	-0.685255	0.084414	-0.621101
19133		8.205866	-5.193102	0.408081	1.305671	-0.913610	-0.261933	-0.588379	0.675537	0.336914	0.377642	-0.686120	0.073418	-0.617443
19134		8.307581	-5.103022	0.399156	1.194772	-0.821197	-0.242664	-0.576904	0.677002	0.336914	0.383661	-0.686699	0.063450	-0.614184
19135		8.395855	-4.908234	0.323530	1.060614	-0.739593	-0.225729	-0.581055	0.682617	0.331787	0.388925	-0.687242	0.054492	-0.611119
19136		8.361619	-5.036108	0.447706	0.922708	-0.641261	-0.197340	-0.577881	0.681152	0.330322	0.393443	-0.687628	0.046725	-0.608430
19137		8.263460	-5.291482	0.387272	0.811503	-0.561881	-0.170240	-0.578369	0.685791	0.318848	0.397377	-0.687927	0.039941	-0.606014
19138		8.050673	-5.598368	0.484815	0.760688	-0.532593	-0.161422	-0.582520	0.685791	0.315674	0.401065	-0.688158	0.033550	-0.603705
19139		7.920239	-5.790610	0.527981	0.818075	-0.550167	-0.170340	-0.575439	0.687012	0.310791	0.404980	-0.688231	0.026777	-0.601342
19140		7.919844	-5.791756	0.255568	0.926350	-0.596530	-0.180795	-0.577393	0.698975	0.299805	0.409472	-0.688132	0.019228	-0.598696
19141		8.033004	-5.481475	0.103097	0.938220	-0.596199	-0.168703	-0.567871	0.702148	0.304443	0.414115	-0.687898	0.011670	-0.595961
19142		7.947230	-5.551344	0.173251	0.830612	-0.530002	-0.143850	-0.561523	0.694336	0.302734	0.418223	-0.687715	0.005018	-0.593390
19143		7.785884	-5.835278	0.459037	0.760368	-0.482644	-0.121217	-0.567627	0.699219	0.290771	0.421976	-0.687521	-0.000982	-0.590974
19144		7.722385	-5.867002	0.637884	0.769867	-0.487961	-0.116622	-0.569824	0.704834	0.292725	0.425797	-0.687225	-0.007026	-0.588531
19145		7.922966	-5.576398	0.649547	0.769735	-0.491310	-0.123552	-0.563477	0.702393	0.281006	0.429530	-0.686929	-0.013104	-0.586056
19146		7.992704	-5.443836	0.747761	0.681684	-0.446078	-0.124336	-0.567139	0.707520	0.281250	0.432777	-0.686664	-0.018614	-0.583823
19147		8.061047	-5.324758	0.736591	0.605199	-0.394720	-0.111301	-0.562256	0.710449	0.276611	0.435617	-0.686409	-0.023478	-0.581832
19148		8.142826	-5.202925	0.733631	0.497059	-0.324607	-0.089222	-0.560547	0.717285	0.274658	0.437976	-0.686192	-0.027442	-0.580142
19149		8.131567	-5.150185	0.742867	0.363249	-0.256068	-0.074914	-0.570801	0.703369	0.271484	0.439669	-0.686126	-0.030426	-0.578788
19150		8.099390	-5.383348	0.770231	0.294638	-0.220643	-0.069868	-0.564453	0.719482	0.275391	0.440903	-0.686106	-0.032922	-0.577736
19151		8.229865	-5.299749	0.698502	0.260670	-0.197181	-0.068529	-0.561768	0.716064	0.271240	0.442014	-0.686129	-0.035142	-0.576729
19152		8.337885	-5.244621	0.613899	0.226663	-0.176780	-0.056213	-0.560547	0.710938	0.273682	0.443002	-0.686166	-0.037064	-0.575805
19153		8.453475	-5.146875	0.767574	0.196669	-0.160610	-0.051511	-0.562500	0.710205	0.269287	0.443812	-0.686251	-0.038747	-0.574969
19154		8.101987	-5.537674	0.524321	0.287039	-0.198824	-0.077877	-0.554932	0.713379	0.268799	0.445004	-0.686149	-0.041169	-0.574001
19155		7.826215	-5.867589	0.241249	0.496808	-0.302911	-0.112326	-0.564453	0.718994	0.270020	0.447222	-0.685759	-0.045166	-0.572440
19156		7.788432	-5.870173	0.033957	0.595435	-0.358428	-0.117001	-0.560303	0.720215	0.266113	0.449908	-0.685248	-0.049857	-0.570555
19157		7.716476	-5.964509	0.150652	0.555777	-0.324419	-0.097072	-0.557617	0.725586	0.266113	0.452479	-0.684713	-0.054113	-0.568773
19158		7.594098	-6.227433	0.364982	0.515175	-0.316203	-0.078381	-0.571289	0.715820	0.257080	0.454904	-0.684300	-0.058018	-0.566948
19159		7.773847	-6.065587	0.588356	0.494257	-0.315222	-0.071744	-0.560791	0.720703	0.249756	0.457177	-0.683899	-0.061840	-0.565197
19160		8.039254	-5.578574	0.855073	0.421245	-0.289283	-0.062420	-0.562256	0.729980	0.240967	0.459150	-0.683635	-0.065154	-0.563541
19161		8.281207	-5.171171	0.833860	0.293305	-0.213857	-0.048894	-0.552734	0.724609	0.248291	0.460544	-0.683470	-0.067514	-0.562325
19162		8.352273	-4.988641	0.757490	0.137715	-0.132032	-0.034566	-0.565430	0.725586	0.245117	0.461127	-0.683578	-0.068710	-0.561571
19163		8.579104	-4.696055	0.669722	-0.001661	-0.043444	-0.015639	-0.565430	0.721191	0.258545	0.461030	-0.683785	-0.068842	-0.561382
19164		8.771046	-4.436678	0.751060	-0.183686	0.060888	0.013827	-0.554688	0.720703	0.252686	0.460019	-0.684279	-0.067516	-0.561771
19165		8.780274	-4.464345	0.831656	-0.331522	0.163544	0.040767	-0.559326	0.724609	0.244385	0.458419	-0.684845	-0.064955	-0.562690
19166		8.600175	-4.661378	0.832198	-0.362329	0.199723	0.049646	-0.559082	0.726562	0.252686	0.456753	-0.685298	-0.062106	-0.563813
19167		8.453136	-4.973702	0.750815	-0.320204	0.192802	0.044738	-0.568359	0.719727	0.257568	0.455277	-0.685640	-0.059482	-0.564874
19168		8.410400	-5.147359	0.652593	-0.280359	0.185355	0.040900	-0.558350	0.723145	0.264404	0.453944	-0.685861	-0.057118	-0.565921
19169		8.206010	-5.371664	0.517169	-0.288573	0.208931	0.059018	-0.555908	0.718262	0.255615	0.452677	-0.686036	-0.054470	-0.566984
19170		7.946829	-5.848766	0.392481	-0.306815	0.218513	0.060286	-0.564453	0.717773	0.264404	0.451356	-0.686185	-0.051735	-0.568112
19171		7.664864	-6.158820	0.354611	-0.248727	0.181447	0.048958	-0.560059	0.714600	0.268066	0.450235	-0.686303	-0.049471	-0.569060
19172		7.551033	-6.248696	0.333048	-0.180796	0.135922	0.045547	-0.560791	0.725586	0.263184	0.449460	-0.686391	-0.047701	-0.569717
19173		7.419393	-6.354429	0.332693	-0.124737	0.101871	0.037919	-0.562988	0.723389	0.261719	0.449016	-0.686393	-0.046374	-0.570174
19174		7.403251	-6.483098	0.291519	-0.028938	0.041322	0.024497	-0.551025	0.718262	0.269775	0.449027	-0.686308	-0.045823	-0.570313
19175		7.471217	-6.373289	0.356666	0.051131	-0.013100	0.008593	-0.555908	0.717529	0.266357	0.449382	-0.686224	-0.045891	-0.570128
19176		7.529757	-6.248523	0.555933	0.064576	-0.046473	-0.004342	-0.556885	0.715820	0.262207	0.449733	-0.686225	-0.046249	-0.569821
19177		7.537178	-6.225679	0.660198	0.120314	-0.095926	-0.026033	-0.567139	0.724854	0.260254	0.450288	-0.686225	-0.047202	-0.569304
19178		7.737890	-5.943784	0.742253	0.185671	-0.136214	-0.046320	-0.558594	0.726074	0.255615	0.451105	-0.686141	-0.048750	-0.568628
19179		7.975210	-5.634969	0.811229	0.196828	-0.150737	-0.050648	-0.555908	0.719482	0.258789	0.452004	-0.686070	-0.050420	-0.567855
19180		8.216781	-5.296427	0.741676	0.130473	-0.108088	-0.044633	-0.564941	0.720215	0.259766	0.452532	-0.686073	-0.051568	-0.567327
19181		8.262535	-5.373574	0.686218	0.049664	-0.062536	-0.034184	-0.555908	0.719482	0.261719	0.452632	-0.686166	-0.052118	-0.567084
19182		8.208128	-5.430080	0.694173	0.043558	-0.054893	-0.031427	-0.557373	0.722900	0.255859	0.452731	-0.686265	-0.052563	-0.566843
19183		8.223067	-5.365129	0.586928	0.046285	-0.046223	-0.037332	-0.557373	0.717041	0.259521	0.452857	-0.686280	-0.053048	-0.566680
19184		8.147349	-5.513696	0.484248	0.023279	-0.029976	-0.036618	-0.554688	0.727783	0.257568	0.452823	-0.686326	-0.053349	-0.566623
19185		8.118267	-5.514135	0.411163	-0.000943	-0.002673	-0.026376	-0.560059	0.726318	0.266113	0.452769	-0.686327	-0.053361	-0.566664
19186		8.148625	-5.517811	0.409489	-0.074069	0.035419	-0.013190	-0.554199	0.719482	0.256592	0.452313	-0.686464	-0.052788	-0.566916
19187		8.012885	-5.668045	0.462627	-0.127887	0.068572	-0.000329	-0.556641	0.721436	0.265869	0.451669	-0.686615	-0.051801	-0.567338
19188		7.980405	-5.756169	0.554030	-0.098360	0.047747	-0.003683	-0.558350	0.722656	0.269775	0.451129	-0.686786	-0.051016	-0.567631
19189		7.900661	-5.854119	0.564216	-0.002372	-0.005114	-0.022437	-0.553467	0.714844	0.263428	0.451013	-0.686850	-0.050979	-0.567650
19190		7.953268	-5.681330	0.490171	0.078976	-0.046379	-0.033300	-0.557373	0.717529	0.266602	0.451312	-0.686777	-0.051570	-0.567446
19191		8.020874	-5.511029	0.456855	0.016285	-0.021281	-0.025789	-0.556885	0.718994	0.259033	0.451279	-0.686836	-0.051718	-0.567388
19192		8.043252	-5.555214	0.496030	-0.078551	0.030617	-0.009522	-0.555176	0.724854	0.272217	0.450846	-0.686976	-0.051161	-0.567613
19193		7.975209	-5.750619	0.681190	-0.114301	0.052127	-0.006816	-0.558350	0.722412	0.260010	0.450198	-0.687207	-0.050264	-0.567927
19194		7.953134	-5.787480	0.677965	-0.069673	0.024805	-0.018819	-0.557129	0.728760	0.269287	0.449784	-0.687328	-0.049825	-0.568148
19195		8.017333	-5.628954	0.632123	-0.032749	0.003541	-0.027326	-0.557617	0.722412	0.271973	0.449520	-0.687447	-0.049633	-0.568230
19196		8.041177	-5.514626	0.493319	-0.067049	0.012466	-0.026495	-0.557129	0.713135	0.271484	0.449032	-0.687667	-0.049242	-0.568384
19197		8.029323	-5.572899	0.406184	-0.093864	0.030763	-0.022180	-0.556641	0.721924	0.263428	0.448392	-0.687903	-0.048648	-0.568655
19198		8.104098	-5.512009	0.473133	-0.107477	0.039814	-0.017495	-0.557129	0.714600	0.265381	0.447782	-0.688096	-0.047954	-0.568960
19199		8.099280	-5.615645	0.551541	-0.131138	0.060070	-0.011308	-0.564209	0.714355	0.268311	0.447040	-0.688294	-0.047043	-0.569380
19200		7.867395	-5.873191	0.601793	-0.073910	0.035926	-0.016116	-0.565430	0.719727	0.266846	0.446562	-0.688393	-0.046534	-0.569677
19201		7.838192	-5.873897	0.527667	0.017685	-0.024056	-0.035298	-0.555908	0.717529	0.272949	0.446524	-0.688413	-0.046796	-0.569661
19202		7.937564	-5.761211	0.401968	0.045950	-0.034437	-0.040846	-0.559570	0.714111	0.274902	0.446614	-0.688417	-0.047204	-0.569552
19203		7.912404	-5.750007	0.380993	0.027178	-0.028563	-0.033899	-0.567871	0.717773	0.267334	0.446594	-0.688476	-0.047466	-0.569474
19204		7.954302	-5.700797	0.348334	0.006934	-0.014942	-0.029373	-0.559570	0.712891	0.266846	0.446510	-0.688496	-0.047614	-0.569504
19205		8.011200	-5.655358	0.398676	0.003078	-0.005426	-0.026775	-0.563232	0.715332	0.276123	0.446433	-0.688497	-0.047675	-0.569558
19206		7.991518	-5.699633	0.553090	0.009733	-0.020208	-0.033670	-0.562988	0.718750	0.272461	0.446306	-0.688583	-0.047822	-0.569542
19207		8.015604	-5.740552	0.530842	0.060207	-0.046174	-0.043726	-0.569336	0.712891	0.271484	0.446447	-0.688578	-0.048374	-0.569391
19208		8.039562	-5.642003	0.540477	0.081177	-0.064049	-0.054961	-0.562744	0.717529	0.277344	0.446603	-0.688568	-0.049191	-0.569210
19209		8.109847	-5.531411	0.486347	0.039310	-0.040901	-0.050498	-0.555664	0.717285	0.272217	0.446562	-0.688643	-0.049631	-0.569113
19210		8.091500	-5.562641	0.463675	-0.007146	-0.015227	-0.043339	-0.557861	0.708252	0.266602	0.446354	-0.688753	-0.049717	-0.569137
19211		8.054075	-5.612356	0.440619	-0.009911	-0.017494	-0.038033	-0.566650	0.713623	0.270508	0.446142	-0.688858	-0.049823	-0.569166
19212		7.992395	-5.783789	0.418601	0.042544	-0.040548	-0.043755	-0.558350	0.711914	0.272217	0.446167	-0.688880	-0.050296	-0.569077
19213		7.964967	-5.790996	0.418839	0.122891	-0.084748	-0.058279	-0.565430	0.711914	0.264404	0.446580	-0.688829	-0.051360	-0.568721
19214		8.032301	-5.625376	0.417755	0.150042	-0.103631	-0.059507	-0.561768	0.713867	0.269531	0.447149	-0.688715	-0.052695	-0.568290
19215		8.013310	-5.517060	0.427573	0.101962	-0.080626	-0.051145	-0.559326	0.715332	0.266357	0.447478	-0.688711	-0.053617	-0.567949
19216		8.022689	-5.573537	0.529579	0.056143	-0.056926	-0.039674	-0.570557	0.712891	0.266602	0.447641	-0.688757	-0.054172	-0.567712
19217		7.984228	-5.716861	0.602682	0.069902	-0.054407	-0.037908	-0.563232	0.714111	0.267578	0.447835	-0.688730	-0.054815	-0.567530
19218		8.027464	-5.590629	0.600686	0.134984	-0.090845	-0.052761	-0.562012	0.723877	0.270996	0.448342	-0.688641	-0.055949	-0.567127
19219		8.117695	-5.377189	0.585592	0.137075	-0.099649	-0.053368	-0.562012	0.708252	0.267334	0.448878	-0.688602	-0.057084	-0.566637
19220		8.173163	-5.263116	0.570820	0.090367	-0.073863	-0.047668	-0.565674	0.717529	0.262695	0.449129	-0.688614	-0.057914	-0.566339
19221		8.193374	-5.332934	0.600803	0.023180	-0.025251	-0.039271	-0.561279	0.714600	0.268066	0.449112	-0.688613	-0.058220	-0.566323
19222		7.989409	-5.616783	0.495693	0.021798	-0.026107	-0.037418	-0.567871	0.713867	0.266357	0.449068	-0.688663	-0.058466	-0.566271
19223		8.049430	-5.632038	0.503615	0.051083	-0.041916	-0.044984	-0.558350	0.718994	0.267090	0.449130	-0.688656	-0.058989	-0.566176
19224		8.145195	-5.472206	0.580361	0.046879	-0.039595	-0.048568	-0.558105	0.715576	0.269531	0.449212	-0.688666	-0.059451	-0.566051
19225		8.095491	-5.583228	0.500509	0.055468	-0.039114	-0.047816	-0.565186	0.723389	0.266357	0.449317	-0.688661	-0.059937	-0.565922
19226		8.079562	-5.529519	0.501015	0.094816	-0.054005	-0.054889	-0.563721	0.719971	0.266846	0.449634	-0.688541	-0.060734	-0.565732
19227		8.156219	-5.451601	0.435816	0.088270	-0.060622	-0.061596	-0.562988	0.710938	0.264648	0.449862	-0.688485	-0.061557	-0.565530
19228		8.250104	-5.317712	0.606013	0.075112	-0.053681	-0.055356	-0.557861	0.718750	0.265625	0.450018	-0.688446	-0.062281	-0.565373
19229		8.469193	-5.201583	0.595860	0.000635	-0.002272	-0.062741	-0.558350	0.715332	0.259277	0.449792	-0.688450	-0.062457	-0.565529
19230		7.758654	-6.147359	0.487120	0.060835	-0.030939	-0.082003	-0.560059	0.709717	0.267334	0.449831	-0.688314	-0.063181	-0.565583
19231		7.385842	-6.573260	0.312153	0.363993	-0.199773	-0.131956	-0.573242	0.718506	0.257812	0.451199	-0.687865	-0.066216	-0.564691
19232		7.622853	-5.975534	0.186053	0.514500	-0.314096	-0.178360	-0.569580	0.716797	0.254150	0.453169	-0.687278	-0.070727	-0.563280
19233		7.758659	-5.785283	0.161656	0.450264	-0.302245	-0.161911	-0.566895	0.719971	0.251221	0.454855	-0.686876	-0.074785	-0.561886
19234		7.625400	-6.122967	0.263054	0.423753	-0.293456	-0.135610	-0.575928	0.715088	0.255127	0.456538	-0.686536	-0.078517	-0.560426
19235		7.710661	-6.033142	0.552486	0.499041	-0.345202	-0.140964	-0.572266	0.712646	0.250000	0.458477	-0.686166	-0.082836	-0.558672
19236		8.092121	-5.492139	0.688271	0.533249	-0.379464	-0.148709	-0.563721	0.713135	0.246582	0.460554	-0.685791	-0.087491	-0.556710
19237		8.189444	-5.376744	0.767214	0.526794	-0.377766	-0.155235	-0.566162	0.708984	0.238525	0.462592	-0.685417	-0.092111	-0.554732
19238		8.091594	-5.602563	0.751237	0.595902	-0.426483	-0.182091	-0.568848	0.720215	0.246826	0.464847	-0.684921	-0.097443	-0.552545
19239		8.044045	-5.701613	0.675066	0.691992	-0.475011	-0.215862	-0.565918	0.715820	0.244873	0.467402	-0.684287	-0.103507	-0.550066
19240		8.064454	-5.416380	0.441070	0.733791	-0.510181	-0.238380	-0.573242	0.718750	0.233643	0.470014	-0.683619	-0.110005	-0.547404
19241		8.041276	-5.382143	0.211845	0.689061	-0.493636	-0.227436	-0.566650	0.718506	0.230225	0.472442	-0.682956	-0.116241	-0.544846
19242		7.973609	-5.497013	0.130472	0.667814	-0.487700	-0.209474	-0.573730	0.727783	0.233154	0.474840	-0.682348	-0.122212	-0.542211
19243		8.004358	-5.504188	0.298045	0.697136	-0.527547	-0.219158	-0.569824	0.713867	0.221436	0.477266	-0.681790	-0.128488	-0.539324
19244		8.165437	-5.475705	0.487009	0.742370	-0.552634	-0.238325	-0.575928	0.719238	0.218994	0.479815	-0.681056	-0.135248	-0.536328
19245		8.157781	-5.460416	0.603478	0.765391	-0.585331	-0.263317	-0.575439	0.718018	0.219238	0.482307	-0.680301	-0.142381	-0.533196
19246		8.274688	-5.297456	0.547410	0.799244	-0.619053	-0.272557	-0.571777	0.721680	0.214111	0.484844	-0.679536	-0.149814	-0.529824
19247		8.413565	-4.919564	0.311325	0.784479	-0.588087	-0.265983	-0.579834	0.727051	0.215088	0.487379	-0.678649	-0.156974	-0.526552
19248		8.482801	-4.647342	0.161639	0.746777	-0.553113	-0.255775	-0.576416	0.722412	0.202637	0.489716	-0.677755	-0.163752	-0.523461
19249		8.632878	-4.473194	0.184708	0.725539	-0.541330	-0.246458	-0.576660	0.721680	0.202393	0.492026	-0.676803	-0.170378	-0.520404
19250		8.855412	-4.309958	0.311050	0.668909	-0.499966	-0.236545	-0.580566	0.716553	0.199707	0.494063	-0.675911	-0.176502	-0.517584
19251		8.760123	-4.456473	0.289826	0.631345	-0.450286	-0.211125	-0.572266	0.730225	0.198486	0.496006	-0.674965	-0.182155	-0.514996
19252		8.663206	-4.564527	0.233102	0.630860	-0.440180	-0.204774	-0.588135	0.720947	0.195312	0.498056	-0.673997	-0.187562	-0.512336
19253		8.785912	-4.455066	0.250809	0.615436	-0.438958	-0.208109	-0.581299	0.724365	0.194336	0.499876	-0.673020	-0.193083	-0.509790
19254		8.838786	-4.473171	0.218203	0.510365	-0.373470	-0.205468	-0.581055	0.724609	0.188232	0.501238	-0.672224	-0.197765	-0.507705
19255		8.568051	-4.826907	0.123203	0.466845	-0.359385	-0.194861	-0.580322	0.725342	0.178223	0.502449	-0.671518	-0.202148	-0.505711
19256		8.520103	-4.836711	0.113052	0.524214	-0.390746	-0.189123	-0.590088	0.721191	0.181641	0.504020	-0.670624	-0.206893	-0.503411
19257		8.694554	-4.558428	0.063087	0.541324	-0.373354	-0.182075	-0.590576	0.723633	0.178467	0.505621	-0.669610	-0.211660	-0.501169
19258		8.541712	-4.531409	0.122020	0.491848	-0.341043	-0.168020	-0.585205	0.719727	0.177490	0.507064	-0.668675	-0.215979	-0.499112
19259		8.511172	-4.538774	-0.014849	0.485336	-0.342306	-0.151006	-0.584473	0.731445	0.171875	0.508521	-0.667818	-0.220138	-0.496956
19260		8.666883	-4.546133	0.038381	0.480097	-0.331592	-0.135491	-0.588135	0.730469	0.170166	0.510110	-0.666930	-0.224056	-0.494764
19261		8.854287	-4.262779	0.225931	0.422051	-0.301011	-0.108348	-0.584229	0.718018	0.161133	0.511508	-0.666198	-0.227483	-0.492739
19262		8.840132	-4.348171	0.380386	0.362712	-0.259973	-0.091534	-0.592529	0.723389	0.167969	0.512734	-0.665503	-0.230494	-0.491000
19263		8.777104	-4.387895	0.419919	0.373098	-0.252699	-0.091513	-0.591064	0.721924	0.163574	0.513935	-0.664797	-0.233501	-0.489279
19264		8.908788	-4.097312	0.273589	0.384038	-0.231242	-0.081394	-0.586182	0.727783	0.149902	0.515293	-0.663945	-0.236411	-0.487606
19265		8.934627	-4.068409	0.139765	0.312294	-0.193002	-0.074187	-0.588623	0.722656	0.157471	0.516509	-0.663150	-0.238790	-0.486241
19266		8.952057	-4.199642	0.196222	0.223912	-0.161307	-0.060207	-0.584961	0.725830	0.154785	0.517225	-0.662723	-0.240609	-0.485164
19267		9.200110	-4.010579	0.372112	0.171209	-0.124886	-0.045212	-0.594482	0.714600	0.151611	0.517829	-0.662401	-0.241919	-0.484307
19268		9.018625	-4.022879	0.228245	0.134730	-0.084112	-0.024560	-0.581299	0.735596	0.160156	0.518314	-0.662047	-0.242995	-0.483732
19269		9.018145	-3.879977	0.076413	0.117471	-0.064247	-0.007766	-0.591064	0.726807	0.150146	0.518894	-0.661884	-0.243461	-0.483100
19270		9.171219	-3.719902	0.198640	0.025430	-0.011415	0.006142	-0.596924	0.724121	0.150635	0.519120	-0.661791	-0.243486	-0.482973
19271		9.068559	-3.971499	0.354310	-0.103807	0.084040	0.037997	-0.589355	0.729248	0.152588	0.518903	-0.661923	-0.242488	-0.483526
19272		8.850660	-4.317636	0.395350	-0.152925	0.110716	0.051905	-0.587891	0.718262	0.145996	0.518570	-0.662232	-0.240972	-0.484218
19273		8.750042	-4.524337	0.344833	-0.146510	0.092667	0.039437	-0.580811	0.725830	0.157715	0.518198	-0.662472	-0.239753	-0.484892
19274		8.672558	-4.608869	0.260580	-0.144890	0.093401	0.038706	-0.588623	0.730225	0.165283	0.517800	-0.662851	-0.238342	-0.485494
19275		8.657272	-4.595936	0.063524	-0.159074	0.109968	0.048620	-0.586182	0.726562	0.161133	0.517313	-0.663294	-0.236761	-0.486181
19276		8.605452	-4.455463	0.044432	-0.205401	0.136303	0.063083	-0.580566	0.725342	0.152832	0.516717	-0.663802	-0.234838	-0.487054
19277		8.729187	-4.357153	0.304414	-0.226983	0.146454	0.073616	-0.588379	0.725830	0.157227	0.516170	-0.664286	-0.232736	-0.487983
19278		8.802404	-4.465861	0.382533	-0.252851	0.158905	0.075464	-0.583008	0.738770	0.153809	0.515436	-0.664839	-0.230537	-0.489047
19279		8.525187	-4.931271	0.366135	-0.206958	0.132971	0.070929	-0.577637	0.729980	0.168945	0.515030	-0.665252	-0.228532	-0.489854
19280		8.540633	-4.705848	0.263093	-0.134080	0.097666	0.066262	-0.579346	0.724854	0.166260	0.514774	-0.665658	-0.226942	-0.490312
19281		8.661664	-4.421533	0.125654	-0.179581	0.139087	0.079372	-0.583252	0.733887	0.169189	0.514383	-0.666063	-0.225006	-0.491063
19282		8.628503	-4.459368	0.092259	-0.246276	0.180240	0.088696	-0.581055	0.728027	0.162598	0.513741	-0.666610	-0.222538	-0.492116
19283		8.777275	-4.399143	0.227445	-0.261779	0.194453	0.084864	-0.579834	0.730713	0.163818	0.513066	-0.667067	-0.220045	-0.493321
19284		8.825928	-4.372378	0.266055	-0.272650	0.215787	0.091329	-0.574707	0.729980	0.174316	0.512408	-0.667490	-0.217352	-0.494624
19285		8.710683	-4.641529	0.201414	-0.310672	0.240284	0.101094	-0.575439	0.731934	0.164307	0.511546	-0.668103	-0.214245	-0.496042
19286		8.655797	-4.706067	0.160926	-0.347846	0.256251	0.103790	-0.579590	0.733643	0.172363	0.510620	-0.668670	-0.210969	-0.497633
19287		8.875650	-4.393736	0.209047	-0.428207	0.305502	0.112956	-0.577148	0.730469	0.176758	0.509288	-0.669437	-0.207102	-0.499588
19288		8.960281	-4.300480	0.253985	-0.575406	0.385666	0.140891	-0.585205	0.735352	0.171631	0.507344	-0.670553	-0.202114	-0.502105
19289		8.746403	-4.452358	0.076623	-0.658441	0.428974	0.170902	-0.577148	0.726074	0.185547	0.505179	-0.671745	-0.196528	-0.504906
19290		8.870594	-4.165103	-0.121282	-0.711854	0.457650	0.199894	-0.570801	0.720703	0.189941	0.502748	-0.673187	-0.190354	-0.507768
19291		9.241639	-3.800901	0.015396	-0.853893	0.543396	0.231419	-0.572510	0.727783	0.198486	0.499751	-0.674885	-0.183012	-0.511162
19292		9.075567	-4.188770	0.333046	-0.973978	0.635947	0.260976	-0.569824	0.725098	0.199463	0.496301	-0.676696	-0.174546	-0.515075
19293		8.702709	-4.886683	0.489147	-0.911187	0.609220	0.246902	-0.559326	0.734619	0.208008	0.493097	-0.678229	-0.166557	-0.518768
19294		8.691668	-4.914244	0.475576	-0.839580	0.563582	0.220220	-0.562500	0.725342	0.203613	0.490152	-0.679618	-0.158998	-0.522101
19295		8.673852	-4.640324	0.323221	-0.949669	0.621689	0.235643	-0.569580	0.732666	0.217285	0.486696	-0.681066	-0.150800	-0.525867
19296		8.687530	-4.408430	0.099838	-1.181269	0.761504	0.282794	-0.570068	0.730957	0.221924	0.482189	-0.682877	-0.140711	-0.530447
19297		8.666471	-4.339072	0.008414	-1.426813	0.905291	0.328099	-0.571289	0.721191	0.234131	0.476582	-0.684942	-0.128712	-0.535871
19298		8.615375	-4.592154	0.068478	-1.543199	0.976153	0.358819	-0.564941	0.724121	0.250244	0.470330	-0.687072	-0.115758	-0.541591
19299		8.567182	-4.665622	0.242261	-1.492828	0.969666	0.363564	-0.564209	0.720947	0.243652	0.464272	-0.688945	-0.102854	-0.547016
19300		8.602402	-4.678677	0.286318	-1.440416	0.963760	0.365990	-0.567383	0.709961	0.260986	0.458545	-0.690333	-0.090298	-0.552289
19301		8.479744	-4.786978	0.207762	-1.449098	0.986917	0.383920	-0.565186	0.711670	0.270264	0.452612	-0.691608	-0.077512	-0.557506
19302		8.342874	-4.890238	0.125805	-1.521546	1.053968	0.408704	-0.566406	0.715576	0.277344	0.446338	-0.692700	-0.063920	-0.562906
19303		8.231729	-5.194061	0.030529	-1.614952	1.124668	0.426751	-0.574219	0.703857	0.286377	0.439574	-0.693603	-0.049493	-0.568542
19304		7.958402	-5.485827	-0.036926	-1.667133	1.159449	0.432369	-0.563721	0.705322	0.289062	0.432318	-0.694341	-0.034766	-0.574267
19305		7.748585	-5.755409	0.046555	-1.699107	1.158547	0.411259	-0.566895	0.695557	0.304688	0.424789	-0.694926	-0.019917	-0.579858
19306		7.963809	-5.720847	0.074198	-1.677419	1.147772	0.385865	-0.565918	0.697998	0.311768	0.417020	-0.695344	-0.005343	-0.585289
19307		7.919984	-5.879547	0.076327	-1.660958	1.142887	0.380899	-0.560547	0.686035	0.312744	0.409278	-0.695488	0.009144	-0.590512
19308		7.701027	-6.167089	0.025065	-1.603867	1.121938	0.371874	-0.576172	0.682373	0.321045	0.401752	-0.695303	0.023184	-0.595493
19309		7.547755	-6.289858	-0.109301	-1.502557	1.075901	0.358950	-0.571533	0.681641	0.325928	0.394572	-0.694810	0.036377	-0.600191
19310		7.400696	-6.333509	-0.280011	-1.452474	1.045998	0.351502	-0.570801	0.674316	0.340820	0.387648	-0.694116	0.049217	-0.604574
19311		7.221155	-6.418993	-0.281540	-1.449176	1.004018	0.327974	-0.570068	0.669922	0.342041	0.380474	-0.693564	0.061846	-0.608592
19312		7.320276	-6.557218	-0.345172	-1.408954	0.960195	0.308763	-0.583008	0.677734	0.357178	0.373442	-0.692918	0.073975	-0.612318
19313		7.248416	-6.631897	-0.183559	-1.362519	0.941796	0.298501	-0.580811	0.662598	0.358154	0.366538	-0.692108	0.085761	-0.615859
19314		7.157955	-6.791917	-0.079875	-1.258593	0.875513	0.282750	-0.582520	0.647461	0.358643	0.360103	-0.691197	0.096671	-0.619054
19315		7.070751	-6.854837	-0.080933	-1.121787	0.794549	0.261402	-0.585449	0.651611	0.367188	0.354286	-0.690191	0.106444	-0.621922
19316		7.185974	-6.662651	-0.061493	-1.033618	0.730413	0.232866	-0.591553	0.646484	0.365723	0.348888	-0.689203	0.115433	-0.624461
19317		7.238572	-6.614916	-0.059434	-0.994241	0.690984	0.220906	-0.591309	0.643555	0.369385	0.343645	-0.688182	0.123957	-0.626855
19318		7.149205	-6.746816	-0.036685	-0.930198	0.649810	0.208525	-0.596436	0.649414	0.378906	0.338742	-0.687135	0.131958	-0.629036
19319		7.131768	-6.787833	-0.022663	-0.855095	0.605540	0.194271	-0.587402	0.642822	0.367676	0.334248	-0.686082	0.139383	-0.630985
19320		7.178409	-6.658849	-0.109339	-0.824516	0.579633	0.180853	-0.592529	0.646240	0.382324	0.330025	-0.684946	0.146414	-0.632847
19321		7.192393	-6.642247	-0.177791	-0.810621	0.555784	0.183494	-0.595459	0.633301	0.389160	0.325868	-0.683929	0.153381	-0.634449
19322		7.332137	-6.427676	-0.175535	-0.807831	0.553563	0.178684	-0.597900	0.634766	0.394287	0.321520	-0.682936	0.160324	-0.636018
19323		7.629495	-6.014940	-0.091690	-0.868488	0.584509	0.188647	-0.596924	0.638184	0.388672	0.316854	-0.681882	0.167718	-0.637582
19324		7.620063	-6.110061	-0.019209	-1.008671	0.646106	0.203242	-0.589600	0.628906	0.393555	0.311528	-0.680690	0.176023	-0.639240
19325		7.361292	-6.431513	-0.018655	-1.019466	0.648480	0.212927	-0.596436	0.624756	0.403564	0.306187	-0.679489	0.184444	-0.640722
19326		7.436185	-6.293160	-0.029990	-0.934214	0.606203	0.200853	-0.606934	0.611816	0.398438	0.301221	-0.678295	0.192234	-0.642050
19327		7.926670	-5.774967	0.102877	-0.981372	0.651510	0.201680	-0.601074	0.621338	0.405518	0.295710	-0.676808	0.200368	-0.643692
19328		7.871711	-5.684288	0.070877	-1.166706	0.774341	0.220863	-0.607178	0.613770	0.407715	0.289294	-0.675045	0.209849	-0.645435
19329		7.648915	-5.882955	-0.100514	-1.319321	0.866243	0.255726	-0.607178	0.611572	0.409180	0.281939	-0.672963	0.220537	-0.647298
19330		7.644464	-6.011303	-0.003119	-1.402334	0.926693	0.267600	-0.608887	0.610352	0.410645	0.274131	-0.670573	0.231816	-0.649188
19331		7.541415	-6.309455	0.022848	-1.363076	0.921463	0.259916	-0.613525	0.599609	0.405518	0.266572	-0.667968	0.242758	-0.651019
19332		7.369808	-6.596270	-0.215756	-1.252554	0.869788	0.228076	-0.623291	0.595459	0.422363	0.259447	-0.665238	0.252790	-0.652872
19333		7.219936	-6.769107	-0.360496	-1.185476	0.836375	0.217445	-0.618896	0.593994	0.416260	0.252593	-0.662611	0.262290	-0.654482
19334		7.184226	-6.732688	-0.570395	-1.208311	0.869799	0.231186	-0.631104	0.585938	0.429932	0.245751	-0.659646	0.271994	-0.656119
19335		6.849367	-6.923445	-0.729265	-1.235648	0.894360	0.238147	-0.634277	0.581543	0.426514	0.238525	-0.656600	0.281916	-0.657651
19336		6.763416	-7.155382	-0.667826	-1.191612	0.854609	0.207383	-0.641846	0.577148	0.420410	0.231433	-0.653584	0.291325	-0.659088
19337		6.500033	-7.518545	-0.475108	-1.087115	0.775084	0.190883	-0.643066	0.574219	0.435547	0.224908	-0.650638	0.299933	-0.660399
19338		6.230572	-7.869555	-0.324381	-0.871072	0.649487	0.161023	-0.650391	0.562500	0.441650	0.219734	-0.648197	0.306846	-0.661364
19339		6.000291	-8.236806	-0.217990	-0.505024	0.434326	0.100317	-0.650146	0.568604	0.432617	0.216563	-0.646441	0.311039	-0.662170
19340		5.602800	-8.449574	-0.294957	-0.093645	0.182137	0.003890	-0.648926	0.563232	0.431152	0.215798	-0.645475	0.311999	-0.662911
19341		5.996533	-7.536532	-0.917112	0.081440	0.034934	-0.045815	-0.648193	0.562012	0.421143	0.216016	-0.645167	0.311470	-0.663387
19342		6.500369	-7.221830	-1.005869	-0.121686	0.112895	-0.002595	-0.648193	0.565430	0.424561	0.215139	-0.644633	0.312468	-0.663722
19343		6.312572	-7.319828	-0.856899	-0.271311	0.198844	0.026881	-0.659912	0.559814	0.435547	0.213426	-0.643859	0.314578	-0.664030
19344		6.216672	-7.482677	-0.912739	-0.201138	0.134490	0.017823	-0.651855	0.562500	0.434082	0.212111	-0.643375	0.316151	-0.664173
19345		6.611445	-7.615561	-0.765573	-0.052833	0.035906	-0.011725	-0.650635	0.557373	0.426514	0.211759	-0.643262	0.316547	-0.664207
19346		6.667813	-7.572121	-0.766610	0.108356	-0.046083	-0.040995	-0.646240	0.560547	0.430176	0.212288	-0.643359	0.315775	-0.664311
19347		6.966257	-7.078003	-0.654200	0.104821	-0.069399	-0.052047	-0.658691	0.564941	0.429688	0.212834	-0.643652	0.314899	-0.664269
19348		7.134197	-7.054016	-0.551895	0.048280	-0.059283	-0.042145	-0.647949	0.557373	0.422119	0.213058	-0.643928	0.314434	-0.664149
19349		6.991794	-7.065872	-0.526318	0.133339	-0.101162	-0.051472	-0.649902	0.564697	0.421875	0.213802	-0.644308	0.313374	-0.664043
19350		7.108552	-6.842048	-0.384189	0.286649	-0.185073	-0.079586	-0.650879	0.561035	0.421631	0.215453	-0.644948	0.311155	-0.663931
19351		7.448643	-6.419923	-0.365380	0.331788	-0.209682	-0.081968	-0.648926	0.563477	0.428711	0.217362	-0.645647	0.308638	-0.663805
19352		7.343313	-6.297264	-0.422442	0.272401	-0.160241	-0.073227	-0.646729	0.561279	0.427002	0.218884	-0.646185	0.306564	-0.663742
19353		7.374284	-6.160874	-0.297704	0.196093	-0.108071	-0.058180	-0.645020	0.563232	0.418701	0.219935	-0.646530	0.305090	-0.663738
19354		7.424402	-6.307982	-0.102796	0.074706	-0.033496	-0.029333	-0.649414	0.568848	0.420410	0.220310	-0.646587	0.304583	-0.663790
19355		7.124878	-6.752055	0.046839	0.040194	-0.002077	-0.020867	-0.650391	0.564697	0.420654	0.220474	-0.646512	0.304366	-0.663909
19356		6.775716	-6.975397	-0.102837	0.147460	-0.067270	-0.048844	-0.651855	0.565430	0.426514	0.221201	-0.646672	0.303294	-0.664001
19357		7.074115	-6.850414	-0.427616	0.200743	-0.132181	-0.065549	-0.652832	0.565186	0.415771	0.222283	-0.647153	0.301711	-0.663893
19358		7.257176	-6.809935	-0.353002	0.132398	-0.093758	-0.052147	-0.647949	0.575684	0.433105	0.222963	-0.647472	0.300669	-0.663827
19359		6.909446	-6.843732	-0.444957	0.078623	-0.063815	-0.046794	-0.644287	0.568359	0.413330	0.223379	-0.647791	0.299948	-0.663702
19360		6.678313	-7.247171	-0.459909	0.150685	-0.121714	-0.057848	-0.645996	0.571045	0.427246	0.224238	-0.648252	0.298700	-0.663525
19361		6.721649	-7.319944	-0.403880	0.331025	-0.221600	-0.087673	-0.635986	0.570312	0.417725	0.226157	-0.649047	0.296084	-0.663268
19362		6.869304	-7.068577	-0.514469	0.441089	-0.279688	-0.104262	-0.641357	0.569824	0.422852	0.228742	-0.649973	0.292654	-0.662997
19363		6.788736	-7.054984	-0.576239	0.440700	-0.290483	-0.107497	-0.644043	0.562012	0.423584	0.231288	-0.650959	0.289198	-0.662663
19364		6.709555	-7.260665	-0.431172	0.452350	-0.303055	-0.108508	-0.639648	0.582031	0.419434	0.233852	-0.651973	0.285673	-0.662296
19365		6.535418	-7.533222	-0.261631	0.560561	-0.380320	-0.129453	-0.637451	0.573975	0.418457	0.237172	-0.653235	0.281236	-0.661770
19366		6.314859	-7.757611	-0.302754	0.800674	-0.532195	-0.181140	-0.638428	0.578125	0.410156	0.241805	-0.654947	0.274905	-0.661061
19367		6.572586	-7.559315	-0.381781	1.019818	-0.685854	-0.235136	-0.625000	0.575684	0.416992	0.247656	-0.657098	0.266762	-0.660096
19368		6.526139	-7.570144	-0.469984	1.133553	-0.766573	-0.255064	-0.628906	0.584961	0.412842	0.254183	-0.659486	0.257655	-0.658850
19369		6.287728	-7.704850	-0.604503	1.285193	-0.868206	-0.282525	-0.629639	0.593506	0.412354	0.261563	-0.662044	0.247328	-0.657352
19370		6.387457	-7.546055	-0.680254	1.458138	-0.980752	-0.315622	-0.626465	0.599121	0.411133	0.269889	-0.664781	0.235584	-0.655535
19371		6.669585	-7.382577	-0.582888	1.563952	-1.068361	-0.337423	-0.629395	0.601807	0.395264	0.278782	-0.667652	0.222894	-0.653330
19372		6.800942	-7.135364	-0.555249	1.609906	-1.110756	-0.338510	-0.614746	0.604248	0.408936	0.287879	-0.670408	0.209844	-0.650879
19373		6.892571	-6.970989	-0.417216	1.619512	-1.129324	-0.338445	-0.619385	0.613525	0.398682	0.296994	-0.673159	0.196603	-0.648073
19374		7.190719	-6.593877	-0.214435	1.611727	-1.129857	-0.342089	-0.606689	0.624512	0.392090	0.305941	-0.675708	0.183361	-0.645134
19375		7.443972	-6.313785	-0.132818	1.582696	-1.110055	-0.341861	-0.600830	0.626465	0.385254	0.314685	-0.678063	0.170236	-0.642047
19376		7.610319	-6.070867	-0.001545	1.519191	-1.071640	-0.339380	-0.607422	0.628906	0.381348	0.322937	-0.680199	0.157530	-0.638925
19377		7.788111	-5.824570	-0.060493	1.458258	-1.037748	-0.339871	-0.596680	0.637207	0.369629	0.330647	-0.682135	0.145248	-0.635821
19378		7.935466	-5.677610	-0.032320	1.347082	-0.962021	-0.330913	-0.594482	0.645752	0.377686	0.337684	-0.683821	0.133743	-0.632828
19379		8.085775	-5.541477	-0.072762	1.249652	-0.882769	-0.309668	-0.589844	0.647217	0.372803	0.344117	-0.685264	0.123068	-0.629961
19380		8.159044	-5.408180	-0.023860	1.150186	-0.805603	-0.282904	-0.590332	0.646240	0.365967	0.349987	-0.686458	0.113272	-0.627260
19381		8.249079	-5.186410	0.040512	1.035033	-0.729008	-0.257266	-0.587891	0.653320	0.362549	0.355184	-0.687457	0.104454	-0.624769
19382		8.278619	-5.180204	0.175832	0.908381	-0.650206	-0.229063	-0.588867	0.658203	0.353271	0.359723	-0.688333	0.096665	-0.622457
19383		8.133678	-5.482142	0.317153	0.876979	-0.607260	-0.213668	-0.585938	0.659912	0.356445	0.364115	-0.688985	0.089240	-0.620287
19384		8.070148	-5.679883	0.381742	0.960110	-0.647553	-0.235395	-0.588379	0.656494	0.351318	0.368851	-0.689575	0.081138	-0.617942
19385		7.921866	-5.779238	0.338399	1.079051	-0.718132	-0.258383	-0.584717	0.663818	0.345703	0.374111	-0.690089	0.072097	-0.615320
19386		7.792955	-5.814012	0.246768	1.143612	-0.758463	-0.259601	-0.579590	0.662842	0.342285	0.379750	-0.690529	0.062563	-0.612410
19387		7.849907	-5.737900	0.163330	1.091633	-0.717341	-0.255153	-0.580078	0.674805	0.337891	0.385027	-0.690846	0.053450	-0.609614
19388		7.542580	-6.016823	-0.037022	0.994236	-0.681874	-0.250192	-0.574951	0.671143	0.336182	0.389745	-0.691218	0.044951	-0.606874
19389		7.339682	-6.503083	-0.130969	1.007456	-0.684412	-0.241311	-0.571045	0.680420	0.329834	0.394518	-0.691501	0.036440	-0.604032
19390		7.453661	-6.383210	-0.052645	1.073246	-0.725373	-0.236899	-0.575195	0.683594	0.321777	0.399711	-0.691697	0.027459	-0.600860
19391		7.888056	-5.854943	0.199126	1.039861	-0.701730	-0.227204	-0.571533	0.679443	0.319580	0.404698	-0.691782	0.018784	-0.597750
19392		8.216095	-5.410255	0.469258	0.975966	-0.661956	-0.218592	-0.575195	0.679199	0.315674	0.409274	-0.691823	0.010630	-0.594780
19393		8.430362	-5.127170	0.530294	0.882097	-0.593059	-0.215677	-0.579590	0.686768	0.314697	0.413246	-0.691774	0.003212	-0.592171
19394		8.148594	-5.496029	0.456107	0.843636	-0.581712	-0.218004	-0.577637	0.692627	0.308105	0.416943	-0.691752	-0.003982	-0.589594
19395		7.946868	-5.757436	0.450489	0.943915	-0.627795	-0.238998	-0.564941	0.696045	0.295898	0.421118	-0.691546	-0.011971	-0.586755
19396		8.251375	-5.194220	0.448486	0.985360	-0.647108	-0.245986	-0.567383	0.690918	0.301025	0.425546	-0.691217	-0.020318	-0.583710
19397		8.512500	-4.956142	0.306822	0.843427	-0.550786	-0.213251	-0.562500	0.698486	0.285889	0.429202	-0.690900	-0.027386	-0.581113
19398		7.943997	-5.552960	0.175104	0.772512	-0.496828	-0.192768	-0.564697	0.700195	0.285889	0.432630	-0.690503	-0.033858	-0.578698
19399		7.745907	-5.795164	0.192782	0.883471	-0.559805	-0.207222	-0.562256	0.704346	0.294434	0.436548	-0.689968	-0.041152	-0.575913
19400		8.178990	-5.355335	0.078011	0.920261	-0.586703	-0.203506	-0.568115	0.699951	0.285889	0.440604	-0.689426	-0.048647	-0.572882
19401		8.488789	-4.991153	0.248633	0.736108	-0.481058	-0.164310	-0.572998	0.702637	0.277588	0.443779	-0.688994	-0.054656	-0.570403
19402		8.279264	-5.235054	0.394009	0.554756	-0.374225	-0.129536	-0.565674	0.707275	0.271729	0.446125	-0.688685	-0.059228	-0.568487
19403		8.183757	-5.336494	0.628775	0.495324	-0.340492	-0.116621	-0.564697	0.704590	0.272461	0.448249	-0.688420	-0.063335	-0.566692
19404		8.521477	-4.890870	0.598799	0.420397	-0.303832	-0.109109	-0.561768	0.714844	0.273193	0.449967	-0.688258	-0.066896	-0.565115
19405		8.813054	-4.478453	0.668036	0.245549	-0.196700	-0.082200	-0.564697	0.710938	0.262451	0.450891	-0.688262	-0.069073	-0.564112
19406		8.715320	-4.511135	0.750541	0.089050	-0.107031	-0.040863	-0.566406	0.706299	0.262207	0.451185	-0.688414	-0.069979	-0.563579
19407		8.605729	-4.592318	0.776006	0.058541	-0.074004	-0.035245	-0.559570	0.707275	0.267090	0.451332	-0.688526	-0.070588	-0.563249
19408		8.661780	-4.551754	0.589133	0.045465	-0.046659	-0.040967	-0.565918	0.711914	0.263184	0.451395	-0.688574	-0.071049	-0.563080
19409		8.631583	-4.756350	0.516649	-0.026053	0.003972	-0.022211	-0.571533	0.713623	0.265137	0.451179	-0.688647	-0.070894	-0.563185
19410		8.393454	-5.063131	0.445220	-0.075849	0.055768	0.001795	-0.566162	0.709473	0.267578	0.450807	-0.688676	-0.070171	-0.563537
19411		8.159637	-5.275655	0.265393	-0.096381	0.072732	0.022502	-0.569824	0.708740	0.267334	0.450420	-0.688725	-0.069162	-0.563911
19412		8.007182	-5.578409	0.166506	-0.087097	0.066578	0.016156	-0.572021	0.708252	0.265137	0.450046	-0.688758	-0.068259	-0.564280
19413		8.103708	-5.624598	0.173498	-0.043133	0.041322	0.013364	-0.561523	0.709717	0.268555	0.449901	-0.688733	-0.067683	-0.564495
19414		8.190275	-5.455907	0.275927	-0.075020	0.066746	0.026724	-0.572754	0.710938	0.269043	0.449667	-0.688733	-0.066772	-0.564790
19415		8.040954	-5.574708	0.323854	-0.116286	0.094353	0.034709	-0.575195	0.711914	0.268799	0.449225	-0.688751	-0.065521	-0.565266
19416		8.008155	-5.650659	0.495594	-0.106583	0.070592	0.027613	-0.562256	0.706055	0.277344	0.448791	-0.688836	-0.064449	-0.565631
19417		8.101032	-5.537130	0.587442	-0.089327	0.047505	0.016214	-0.569580	0.709473	0.268311	0.448379	-0.688990	-0.063578	-0.565868
19418		8.128184	-5.476669	0.685676	-0.079313	0.047571	0.017025	-0.564941	0.704834	0.264404	0.448054	-0.689072	-0.062784	-0.566114
19419		8.150119	-5.409716	0.670602	-0.053716	0.032543	0.007965	-0.565430	0.703857	0.270264	0.447839	-0.689116	-0.062230	-0.566292
19420		8.121683	-5.387488	0.650273	-0.035262	0.021299	0.006870	-0.558594	0.704346	0.275879	0.447695	-0.689159	-0.061792	-0.566402
19421		8.058251	-5.478905	0.543017	-0.023037	0.015824	0.002897	-0.563232	0.709229	0.271729	0.447600	-0.689200	-0.061436	-0.566466
19422		8.085682	-5.437041	0.404635	-0.030053	0.017222	0.002688	-0.573730	0.699219	0.272217	0.447481	-0.689242	-0.061060	-0.566549
19423		8.137637	-5.325474	0.272428	-0.072764	0.044007	0.009713	-0.569824	0.707764	0.263184	0.447107	-0.689315	-0.060340	-0.566833
19424		8.193519	-5.355235	0.311192	-0.132644	0.086126	0.022360	-0.567383	0.711182	0.275391	0.446539	-0.689391	-0.059144	-0.567313
19425		8.125699	-5.536172	0.382649	-0.146423	0.096649	0.029188	-0.570068	0.705322	0.277100	0.445906	-0.689506	-0.057765	-0.567814
19426		8.045673	-5.713682	0.495226	-0.100781	0.064347	0.016614	-0.568604	0.708740	0.270020	0.445432	-0.689597	-0.056788	-0.568174
19427		8.058355	-5.613064	0.490749	-0.036116	0.019865	0.004007	-0.560547	0.706299	0.273926	0.445292	-0.689631	-0.056385	-0.568283
19428		8.163714	-5.482255	0.459751	-0.022471	0.007254	-0.004727	-0.559814	0.713867	0.274658	0.445183	-0.689687	-0.056126	-0.568326
19429		8.047505	-5.552288	0.404420	-0.043125	0.018507	0.006396	-0.571045	0.708252	0.281982	0.445037	-0.689771	-0.055667	-0.568383
19430		8.017648	-5.549647	0.404409	-0.050410	0.024025	0.009364	-0.559570	0.706543	0.270996	0.444792	-0.689870	-0.055110	-0.568510
19431		8.058052	-5.472536	0.419523	-0.054607	0.026820	0.006977	-0.561523	0.709961	0.275146	0.444580	-0.689945	-0.054574	-0.568636
19432		8.027628	-5.613152	0.506853	-0.029667	0.020843	0.003950	-0.567627	0.708984	0.277344	0.444485	-0.689963	-0.054185	-0.568724
19433		7.996472	-5.619818	0.499755	0.030364	0.000750	-0.001269	-0.564697	0.700439	0.281250	0.444674	-0.689853	-0.054178	-0.568712
19434		8.090659	-5.465582	0.472336	0.026746	-0.009099	-0.005311	-0.562256	0.711182	0.274414	0.444782	-0.689818	-0.054189	-0.568668
19435		8.095983	-5.443571	0.513142	-0.031128	0.013535	-0.002018	-0.566162	0.706299	0.274658	0.444649	-0.689871	-0.053857	-0.568740
19436		8.127612	-5.512932	0.449857	-0.057491	0.031126	0.001028	-0.564697	0.713867	0.279053	0.444359	-0.689936	-0.053313	-0.568938
19437		8.118409	-5.594280	0.493074	-0.041691	0.026846	-0.002931	-0.568848	0.700928	0.274902	0.444156	-0.689973	-0.052875	-0.569093
19438		8.075196	-5.578073	0.463236	-0.013157	0.001534	-0.009840	-0.570557	0.708008	0.277832	0.444031	-0.690008	-0.052710	-0.569164
19439		8.156399	-5.496561	0.362509	-0.011460	-0.004957	-0.010676	-0.561523	0.706299	0.274414	0.443919	-0.690071	-0.052577	-0.569187
19440		8.196118	-5.418153	0.336559	-0.046220	0.022299	-0.003554	-0.565674	0.710205	0.279297	0.443690	-0.690134	-0.052151	-0.569328
19441		8.129217	-5.491213	0.381796	-0.066695	0.034034	-0.003250	-0.564697	0.701172	0.275879	0.443332	-0.690227	-0.051569	-0.569547
19442		8.116574	-5.583153	0.372457	-0.023561	0.004587	-0.009886	-0.570557	0.710938	0.276611	0.443165	-0.690288	-0.051345	-0.569624
19443		8.135314	-5.572458	0.402005	0.023144	-0.011652	-0.016722	-0.565430	0.706543	0.284424	0.443243	-0.690243	-0.051450	-0.569608
19444		8.077008	-5.572610	0.395116	0.038669	-0.025554	-0.015125	-0.565186	0.702881	0.275146	0.443381	-0.690241	-0.051633	-0.569487
19445		8.045995	-5.606785	0.438793	0.013348	-0.014347	-0.012218	-0.567383	0.710205	0.280762	0.443414	-0.690251	-0.051672	-0.569445
19446		7.981859	-5.658392	0.463832	0.014511	-0.008764	-0.009731	-0.561523	0.706299	0.271240	0.443466	-0.690245	-0.051665	-0.569413
19447		8.005707	-5.701737	0.443105	0.039825	-0.026840	-0.018871	-0.556396	0.708252	0.274170	0.443655	-0.690203	-0.051935	-0.569292
19448		7.989779	-5.631648	0.484120	0.066314	-0.047885	-0.029621	-0.562988	0.703369	0.276367	0.443948	-0.690173	-0.052460	-0.569051
19449		8.076511	-5.544934	0.445986	0.078595	-0.062504	-0.036004	-0.566650	0.703125	0.275146	0.444220	-0.690168	-0.053113	-0.568784
19450		8.099628	-5.520161	0.484659	0.050077	-0.044670	-0.033653	-0.566162	0.700928	0.271240	0.444336	-0.690178	-0.053554	-0.568640
19451		7.999208	-5.617384	0.460778	0.045008	-0.037151	-0.030963	-0.563232	0.710205	0.272705	0.444448	-0.690160	-0.053941	-0.568538
19452		8.025901	-5.666851	0.470039	0.070405	-0.063660	-0.044232	-0.560303	0.708008	0.275879	0.444673	-0.690174	-0.054630	-0.568280
19453		8.050863	-5.620716	0.465823	0.083598	-0.074335	-0.051650	-0.569824	0.709473	0.278809	0.444921	-0.690201	-0.055445	-0.567973
19454		8.056871	-5.574414	0.379708	0.089218	-0.074335	-0.053370	-0.557861	0.705811	0.270508	0.445150	-0.690207	-0.056279	-0.567705
19455		8.090000	-5.552295	0.313487	0.085394	-0.073120	-0.048015	-0.564697	0.700439	0.272705	0.445447	-0.690209	-0.057097	-0.567387
19456		8.095212	-5.573853	0.385358	0.094590	-0.075754	-0.046672	-0.573975	0.705322	0.278564	0.445741	-0.690193	-0.057936	-0.567091
19457		8.019523	-5.628202	0.401416	0.125466	-0.098572	-0.056870	-0.566406	0.710938	0.271973	0.446109	-0.690176	-0.059037	-0.566708
19458		7.991734	-5.656420	0.403974	0.167856	-0.122489	-0.064405	-0.563232	0.698730	0.271973	0.446756	-0.690093	-0.060513	-0.566144
19459		8.060896	-5.632359	0.419560	0.191002	-0.138897	-0.069860	-0.572754	0.704102	0.277344	0.447453	-0.690007	-0.062166	-0.565518
19460		7.976918	-5.784707	0.463917	0.227964	-0.158964	-0.080179	-0.569336	0.706299	0.270264	0.448257	-0.689882	-0.064099	-0.564818
19461		7.853217	-5.871719	0.427861	0.311624	-0.210213	-0.095067	-0.563232	0.709717	0.264648	0.449493	-0.689653	-0.066737	-0.563810
19462		7.875894	-5.841197	0.347276	0.406824	-0.261232	-0.114986	-0.560791	0.709717	0.273682	0.451206	-0.689276	-0.070156	-0.562485
19463		7.912190	-5.784322	0.192042	0.472907	-0.311481	-0.131960	-0.561768	0.708984	0.264404	0.453129	-0.688913	-0.074103	-0.560876
19464		7.920733	-5.834311	0.233364	0.519488	-0.341843	-0.140974	-0.566895	0.706055	0.269287	0.455269	-0.688466	-0.078466	-0.559095
19465		7.872819	-5.884687	0.291971	0.564964	-0.374628	-0.150186	-0.568604	0.707031	0.258789	0.457513	-0.688001	-0.083164	-0.557153
19466		7.792522	-5.943351	0.305451	0.634104	-0.415457	-0.172998	-0.562256	0.721191	0.255615	0.460035	-0.687389	-0.088510	-0.555005
19467		7.850578	-5.819102	0.280014	0.736455	-0.481495	-0.193416	-0.562500	0.714111	0.255615	0.463061	-0.686646	-0.094706	-0.552379
19468		7.992640	-5.634870	0.277776	0.784604	-0.514311	-0.207657	-0.569580	0.719238	0.252197	0.466182	-0.685839	-0.101290	-0.549581
19469		8.062614	-5.667416	0.379090	0.787389	-0.527713	-0.215522	-0.568604	0.714111	0.235107	0.469224	-0.685029	-0.107976	-0.546722
19470		8.217706	-5.382425	0.381563	0.789035	-0.531202	-0.215875	-0.566895	0.721924	0.231201	0.472290	-0.684128	-0.114752	-0.543822
19471		8.230695	-5.267286	0.346758	0.765259	-0.518492	-0.228105	-0.571533	0.721191	0.224854	0.475184	-0.683211	-0.121433	-0.540997
19472		8.320254	-5.245562	0.292166	0.777006	-0.533377	-0.235935	-0.570801	0.718018	0.221436	0.478051	-0.682248	-0.128278	-0.538098
19473		8.443188	-5.211804	0.365932	0.754504	-0.526759	-0.230565	-0.569092	0.719238	0.224854	0.480773	-0.681316	-0.134949	-0.535215
19474		8.508524	-5.012949	0.531033	0.731090	-0.525393	-0.239226	-0.571533	0.726562	0.212158	0.483262	-0.680464	-0.141499	-0.532357
19475		8.588508	-4.869356	0.421613	0.699930	-0.504157	-0.250487	-0.566895	0.720703	0.219238	0.485604	-0.679538	-0.147946	-0.529650
19476		8.278299	-5.109996	0.260696	0.709933	-0.509468	-0.247083	-0.577881	0.722900	0.213135	0.487910	-0.678632	-0.154349	-0.526857
19477		8.350243	-4.975227	0.304405	0.753426	-0.542499	-0.260865	-0.567871	0.726318	0.209229	0.490312	-0.677609	-0.161178	-0.523891
19478		8.514495	-4.877588	0.205978	0.755628	-0.532274	-0.273659	-0.573242	0.715088	0.198975	0.492718	-0.676487	-0.168018	-0.520927
19479		8.348743	-4.996619	0.055325	0.757069	-0.529439	-0.260485	-0.577881	0.719482	0.202148	0.495131	-0.675282	-0.174822	-0.517955
19480		8.358205	-4.888701	0.103762	0.761996	-0.530552	-0.250693	-0.574219	0.718018	0.197998	0.497537	-0.674074	-0.181541	-0.514902
19481		8.408181	-4.777369	0.128888	0.768240	-0.532338	-0.243689	-0.574463	0.728516	0.191162	0.499988	-0.672824	-0.188236	-0.511749
19482		8.513635	-4.710521	0.152165	0.766455	-0.526164	-0.233634	-0.583740	0.722900	0.186523	0.502526	-0.671509	-0.194838	-0.508510
19483		8.600535	-4.651448	0.437873	0.760518	-0.526791	-0.244868	-0.576904	0.722900	0.184570	0.504887	-0.670146	-0.201502	-0.505362
19484		8.934530	-4.264875	0.537061	0.723128	-0.517968	-0.247057	-0.578369	0.727051	0.172119	0.507034	-0.668889	-0.207931	-0.502264
19485		8.993256	-4.156034	0.454784	0.619266	-0.459016	-0.227693	-0.580811	0.720459	0.178711	0.508848	-0.667756	-0.213615	-0.499544
19486		8.831087	-4.408549	0.278217	0.562009	-0.423279	-0.208534	-0.583496	0.726074	0.162109	0.510352	-0.666798	-0.218740	-0.497066
19487		8.757557	-4.528047	0.123441	0.557566	-0.414255	-0.203011	-0.589355	0.716553	0.166992	0.511987	-0.665693	-0.223863	-0.494578
19488		8.664717	-4.477560	-0.091256	0.527083	-0.390884	-0.188994	-0.586182	0.717529	0.172607	0.513405	-0.664679	-0.228657	-0.492274
19489		8.529682	-4.393142	-0.228423	0.467425	-0.349438	-0.167618	-0.594727	0.719238	0.167969	0.514603	-0.663848	-0.232828	-0.490184
19490		8.663173	-4.358111	-0.298001	0.433230	-0.326491	-0.140127	-0.584229	0.722900	0.164307	0.515755	-0.663072	-0.236652	-0.488188
19491		8.895401	-4.073329	-0.121624	0.437135	-0.322128	-0.124906	-0.583252	0.724121	0.159424	0.517073	-0.662288	-0.240340	-0.486052
19492		9.054619	-3.966861	0.057168	0.394623	-0.290940	-0.114157	-0.578369	0.724365	0.158936	0.518291	-0.661548	-0.243669	-0.484102
19493		9.089180	-3.887716	0.286646	0.379957	-0.271631	-0.094217	-0.587646	0.724609	0.153809	0.519552	-0.660848	-0.246705	-0.482165
19494		9.273343	-3.534856	0.428837	0.337545	-0.227708	-0.078703	-0.595215	0.714600	0.153320	0.520710	-0.660128	-0.249358	-0.480534
19495		9.388492	-3.418940	0.559316	0.230461	-0.148393	-0.058688	-0.591064	0.722656	0.158691	0.521416	-0.659585	-0.251185	-0.479562
19496		9.315181	-3.704577	0.309497	0.113760	-0.073293	-0.041291	-0.596924	0.720703	0.153809	0.521709	-0.659358	-0.252029	-0.479112
19497		9.138285	-4.000835	0.136489	0.029005	-0.023830	-0.030499	-0.585693	0.719727	0.142822	0.521686	-0.659269	-0.252330	-0.479102
19498		9.100279	-3.929793	0.140430	-0.052796	0.026814	-0.005878	-0.588379	0.725830	0.156982	0.521570	-0.659307	-0.251967	-0.479366
19499		8.965320	-3.884353	0.033243	-0.145281	0.086085	0.014502	-0.587891	0.724121	0.154297	0.521041	-0.659683	-0.250758	-0.480057
19500		8.822056	-4.156748	-0.065851	-0.128683	0.089542	0.028447	-0.586182	0.728271	0.155762	0.520692	-0.659966	-0.249553	-0.480674
19501		8.895783	-4.166640	0.048200	-0.100903	0.093764	0.043203	-0.588623	0.728760	0.153320	0.520585	-0.660153	-0.248331	-0.481165
19502		8.732098	-4.382322	0.142699	-0.155052	0.138984	0.066940	-0.595947	0.720703	0.156006	0.520380	-0.660407	-0.246601	-0.481928
19503		8.590211	-4.511814	0.023954	-0.167939	0.150657	0.072888	-0.587158	0.728271	0.156738	0.520039	-0.660681	-0.244796	-0.482841
19504		8.602944	-4.688293	0.090075	-0.163724	0.145824	0.065981	-0.592773	0.725830	0.145508	0.519764	-0.660962	-0.242989	-0.483664
19505		8.719761	-4.648791	0.250763	-0.150997	0.135207	0.056126	-0.584961	0.725098	0.150635	0.519558	-0.661076	-0.241462	-0.484493
19506		8.634002	-4.675648	0.303316	-0.163473	0.145512	0.058981	-0.590576	0.727051	0.157471	0.519301	-0.661273	-0.239750	-0.485350
19507		8.587026	-4.734891	0.169339	-0.173633	0.137410	0.050277	-0.594971	0.718018	0.151611	0.518852	-0.661576	-0.238062	-0.486247
19508		8.634636	-4.671844	0.175403	-0.161857	0.117317	0.036761	-0.581787	0.722900	0.158203	0.518351	-0.661804	-0.236687	-0.487141
19509		8.787375	-4.424828	0.234395	-0.188490	0.128409	0.039727	-0.583252	0.729248	0.162598	0.517780	-0.662196	-0.235004	-0.488029
19510		8.846024	-4.369690	0.171622	-0.246585	0.172946	0.057332	-0.583008	0.721680	0.164795	0.517043	-0.662718	-0.232759	-0.489178
19511		8.738079	-4.431696	0.032223	-0.293067	0.183648	0.071435	-0.590576	0.719971	0.159912	0.516065	-0.663427	-0.230219	-0.490449
19512		8.838020	-4.290598	0.048836	-0.296685	0.194944	0.082459	-0.584961	0.721191	0.174316	0.515139	-0.664034	-0.227655	-0.491796
19513		9.071510	-4.018724	0.196069	-0.317842	0.204776	0.085351	-0.578857	0.727295	0.165527	0.514035	-0.664831	-0.224813	-0.493180
19514		9.090416	-4.077810	0.263880	-0.362225	0.248009	0.097828	-0.583740	0.723877	0.160645	0.512981	-0.665557	-0.221561	-0.494767
19515		8.926179	-4.351350	0.339784	-0.398834	0.268519	0.111566	-0.583008	0.728516	0.172607	0.511823	-0.666291	-0.218089	-0.496519
19516		8.858756	-4.360269	0.236783	-0.436443	0.296060	0.128621	-0.583252	0.724609	0.169922	0.510502	-0.667186	-0.214154	-0.498386
19517		8.925042	-4.263889	0.093003	-0.543903	0.357127	0.160411	-0.574951	0.726074	0.177246	0.508827	-0.668272	-0.209389	-0.500663
19518		8.780460	-4.356307	0.018976	-0.644462	0.423659	0.189188	-0.574463	0.721924	0.175049	0.506818	-0.669589	-0.203676	-0.503292
19519		8.535343	-4.653175	0.173550	-0.662224	0.431982	0.188526	-0.576416	0.727051	0.187500	0.504721	-0.670857	-0.197911	-0.506003
19520		8.608318	-4.574985	0.272316	-0.625815	0.408014	0.167714	-0.577637	0.727783	0.187988	0.502615	-0.672084	-0.192443	-0.508574
19521		8.805797	-4.474964	0.314713	-0.643408	0.417645	0.169325	-0.573242	0.727295	0.197510	0.500434	-0.673281	-0.186878	-0.511210
19522		8.744594	-4.428795	0.227616	-0.738189	0.492261	0.210680	-0.577393	0.727539	0.193848	0.497953	-0.674646	-0.180293	-0.514188
19523		8.807687	-4.362825	0.088591	-0.863468	0.582953	0.250729	-0.571045	0.720215	0.205078	0.495087	-0.676069	-0.172648	-0.517699
19524		8.499767	-4.619904	0.109650	-0.973447	0.638198	0.275796	-0.562744	0.722900	0.207520	0.491667	-0.677758	-0.164083	-0.521522
19525		8.377206	-4.764823	0.367279	-0.957812	0.636925	0.267866	-0.572998	0.719482	0.215820	0.488342	-0.679288	-0.155603	-0.525240
19526		8.576897	-4.767445	0.362415	-0.896478	0.623563	0.238738	-0.563232	0.729248	0.217773	0.485064	-0.680532	-0.147639	-0.528953
19527		8.600672	-5.165195	0.492218	-0.889264	0.610249	0.217840	-0.571533	0.722656	0.229004	0.481827	-0.681699	-0.139824	-0.532520
19528		8.257458	-5.299514	0.414815	-0.879622	0.602913	0.223100	-0.569092	0.720459	0.229492	0.478474	-0.682854	-0.132045	-0.536039
19529		8.319585	-4.997615	0.181064	-0.968293	0.622447	0.236002	-0.562500	0.717773	0.243896	0.474693	-0.684191	-0.123735	-0.539666
19530		8.373900	-4.969495	0.047316	-1.101246	0.699064	0.253707	-0.563232	0.711914	0.243164	0.470212	-0.685737	-0.114314	-0.543689
19531		8.101714	-5.368381	0.109535	-1.103618	0.724540	0.268822	-0.565918	0.716064	0.248047	0.465778	-0.687042	-0.104755	-0.547769
19532		8.160490	-5.342519	0.007908	-0.957767	0.661141	0.254721	-0.568604	0.719482	0.254395	0.462042	-0.687954	-0.096194	-0.551347
19533		8.432642	-5.079009	-0.001150	-0.887079	0.622527	0.241677	-0.570557	0.703613	0.267090	0.458584	-0.688693	-0.088172	-0.554643
19534		8.487361	-4.990610	0.054332	-0.933663	0.652851	0.250970	-0.562500	0.711182	0.272705	0.454697	-0.689494	-0.079720	-0.558116
19535		8.350937	-5.216488	0.177990	-1.002705	0.704150	0.266388	-0.566895	0.716064	0.271973	0.450582	-0.690258	-0.070607	-0.561724
19536		8.083451	-5.488635	0.252484	-1.040493	0.722281	0.271646	-0.566650	0.708008	0.272461	0.446302	-0.690936	-0.061277	-0.565392
19537		7.988925	-5.624321	0.304546	-1.033421	0.722321	0.273896	-0.568115	0.706055	0.281494	0.442017	-0.691475	-0.052007	-0.569015
19538		8.109428	-5.535032	0.333452	-1.019823	0.716817	0.262016	-0.565918	0.703857	0.283203	0.437664	-0.691931	-0.042860	-0.572577
19539		8.088867	-5.534272	0.396207	-1.031460	0.709006	0.259504	-0.566162	0.700928	0.279297	0.433220	-0.692362	-0.033715	-0.576037
19540		8.022845	-5.622700	0.324907	-1.011736	0.703483	0.252499	-0.566406	0.699951	0.306885	0.428873	-0.692599	-0.024798	-0.579448
19541		7.923061	-5.629618	0.222825	-0.998776	0.701782	0.254112	-0.566895	0.696777	0.294189	0.424400	-0.692889	-0.015754	-0.582702
19542		8.066234	-5.488006	0.154309	-1.064948	0.737506	0.259841	-0.564697	0.687012	0.309570	0.419656	-0.693026	-0.006373	-0.586143
19543		8.023715	-5.534681	0.143259	-1.174995	0.792554	0.278407	-0.563721	0.688965	0.316406	0.414199	-0.693277	0.003939	-0.589738
19544		7.921143	-5.683854	0.181565	-1.218406	0.816434	0.286336	-0.571533	0.687744	0.313721	0.408516	-0.693454	0.014596	-0.593315
19545		7.862905	-5.812848	0.247439	-1.193119	0.808665	0.283083	-0.568115	0.684570	0.331055	0.402938	-0.693394	0.024989	-0.596843
19546		7.776281	-5.912383	0.343513	-1.151097	0.794069	0.277934	-0.571533	0.682129	0.329590	0.397472	-0.693254	0.035189	-0.600147
19547		7.763646	-5.959371	0.209272	-1.075029	0.770253	0.270162	-0.574219	0.677490	0.323975	0.392403	-0.692832	0.044817	-0.603321
19548		7.808609	-5.822047	0.162334	-1.063509	0.775101	0.273238	-0.573242	0.679443	0.338379	0.387412	-0.692181	0.054334	-0.606503
19549		7.733140	-5.693091	0.151836	-1.146509	0.811503	0.286219	-0.572021	0.675293	0.339111	0.381936	-0.691583	0.064525	-0.609652
19550		7.754730	-5.839503	0.003006	-1.222929	0.851257	0.294315	-0.571289	0.667480	0.345703	0.376026	-0.690891	0.075236	-0.612873
19551		7.766954	-5.945864	0.068987	-1.279984	0.894649	0.305232	-0.568359	0.660156	0.360352	0.369726	-0.690055	0.086441	-0.616162
19552		7.752020	-6.140061	0.215539	-1.332195	0.926046	0.310571	-0.580566	0.660889	0.360596	0.363015	-0.689173	0.098092	-0.619386
19553		7.545298	-6.311811	0.170988	-1.298664	0.911531	0.306177	-0.583008	0.655273	0.360107	0.356421	-0.688062	0.109428	-0.622544
19554		7.528167	-6.275483	0.141594	-1.210200	0.856249	0.284854	-0.587158	0.650146	0.372803	0.350234	-0.686831	0.119967	-0.625465
19555		7.543045	-6.255281	0.093801	-1.150750	0.816580	0.269195	-0.587891	0.657227	0.370361	0.344219	-0.685601	0.130025	-0.628139
19556		7.473524	-6.373887	0.018196	-1.124370	0.800316	0.262669	-0.581787	0.651367	0.370850	0.338475	-0.684221	0.139760	-0.630669
19557		7.370338	-6.386295	-0.079848	-1.144539	0.805441	0.258011	-0.595947	0.645996	0.374756	0.332624	-0.682782	0.149546	-0.633093
19558		7.431809	-6.264713	-0.150396	-1.204699	0.851599	0.266162	-0.587158	0.636230	0.384277	0.326232	-0.681112	0.159825	-0.635700
19559		7.374368	-6.370379	-0.096383	-1.322872	0.915411	0.290858	-0.597656	0.638428	0.384033	0.319197	-0.679373	0.171037	-0.638210
19560		7.036285	-6.918795	-0.149585	-1.291379	0.902896	0.295443	-0.601807	0.633057	0.393311	0.312362	-0.677398	0.182009	-0.640651
19561		6.873186	-6.913142	-0.165623	-1.090435	0.791344	0.258624	-0.604492	0.630371	0.387207	0.306547	-0.675486	0.191407	-0.642737
19562		7.487373	-6.156882	-0.271709	-1.029583	0.760048	0.234438	-0.606445	0.624268	0.389648	0.301013	-0.673447	0.200209	-0.644808
19563		7.700875	-5.978518	-0.250050	-1.221940	0.875059	0.262628	-0.605225	0.620361	0.398682	0.294299	-0.671133	0.210474	-0.647047
19564		7.268515	-6.526624	-0.213162	-1.364312	0.958706	0.299181	-0.612549	0.613281	0.399170	0.286847	-0.668608	0.221866	-0.649197
19565		6.919226	-6.975551	-0.136145	-1.257237	0.904085	0.286131	-0.613037	0.611572	0.398926	0.279906	-0.665967	0.232459	-0.651232
19566		7.000634	-6.951959	0.026747	-1.116380	0.820324	0.248762	-0.616455	0.605713	0.406982	0.273761	-0.663392	0.241819	-0.653061
