// Start Time: Unknown
// Update Rate: 60.0Hz
// Filter Profile: human (46.1)
// Firmware Version: 4.6.0
PacketCounter	SampleTimeFine	Acc_X	Acc_Y	Acc_Z	Gyr_X	Gyr_Y	Gyr_Z	Mag_X	Mag_Y	Mag_Z	Quat_q0	Quat_q1	Quat_q2	Quat_q3
07456		6.582561	-4.235044	5.810578	0.029435	0.033346	-0.036979	-0.220703	0.515137	-0.240479	0.716783	-0.420858	-0.158094	-0.533016
07457		6.602026	-4.158243	5.903652	0.038403	0.033624	-0.052455	-0.231445	0.522705	-0.244629	0.716729	-0.420410	-0.158248	-0.533397
07458		6.698915	-4.159559	5.846514	0.030162	0.024936	-0.049541	-0.228516	0.528076	-0.237549	0.716643	-0.420055	-0.158412	-0.533744
07459		6.706990	-4.238714	5.797356	0.023214	0.022238	-0.046252	-0.229004	0.523438	-0.245850	0.716547	-0.419755	-0.158546	-0.534068
07460		6.671053	-4.097771	5.910697	0.016791	0.020032	-0.043837	-0.230957	0.527344	-0.240967	0.716436	-0.419509	-0.158658	-0.534378
07461		6.707948	-4.114354	5.891878	-0.000479	0.002328	-0.026889	-0.221680	0.517822	-0.245117	0.716315	-0.419463	-0.158742	-0.534550
07462		6.730070	-4.197255	5.815475	-0.008396	-0.014508	-0.017484	-0.225098	0.528564	-0.248047	0.716185	-0.419550	-0.158864	-0.534621
07463		6.722707	-4.234344	5.793725	-0.010990	-0.014069	-0.017540	-0.228027	0.519775	-0.250488	0.716044	-0.419651	-0.158977	-0.534696
07464		6.700870	-4.125652	5.857260	-0.010459	-0.008463	-0.014773	-0.223877	0.525635	-0.243652	0.715921	-0.419733	-0.159053	-0.534774
07465		6.736178	-4.202619	5.857089	-0.010820	-0.015582	-0.008819	-0.222656	0.524170	-0.241455	0.715813	-0.419854	-0.159155	-0.534794
07466		6.724550	-4.210567	5.777541	-0.014137	-0.007515	-0.007248	-0.226318	0.527344	-0.246338	0.715707	-0.419962	-0.159194	-0.534838
07467		6.671176	-4.188952	5.805739	-0.009149	0.000442	-0.011486	-0.225098	0.519531	-0.239746	0.715607	-0.420004	-0.159229	-0.534929
07468		6.706442	-4.188954	5.854840	-0.010611	0.003276	-0.016221	-0.225098	0.522705	-0.245605	0.715483	-0.420038	-0.159261	-0.535059
07469		6.707729	-4.180622	5.806770	-0.009017	0.007666	-0.015916	-0.234375	0.518799	-0.250488	0.715369	-0.420042	-0.159276	-0.535203
07470		6.727264	-4.172546	5.750706	-0.006310	0.013745	-0.015176	-0.219482	0.518799	-0.253174	0.715274	-0.420006	-0.159272	-0.535361
07471		6.668853	-4.121744	5.870526	-0.006960	0.014048	-0.010628	-0.231689	0.515137	-0.244873	0.715192	-0.419983	-0.159255	-0.535492
07472		6.710302	-4.145714	5.863084	-0.013125	0.000786	-0.004615	-0.230957	0.524414	-0.242920	0.715097	-0.420059	-0.159272	-0.535555
07473		6.730341	-4.203299	5.808744	-0.015269	-0.001895	-0.003321	-0.231201	0.522705	-0.246582	0.714992	-0.420158	-0.159298	-0.535610
07474		6.707269	-4.152937	5.828751	-0.014374	-0.000105	-0.001369	-0.232422	0.525635	-0.243896	0.714899	-0.420250	-0.159317	-0.535656
07475		6.697411	-4.191876	5.808552	-0.010687	0.004064	-0.005254	-0.232422	0.522217	-0.247559	0.714803	-0.420295	-0.159345	-0.535740
07476		6.692573	-4.177032	5.846274	-0.014728	0.004421	-0.005662	-0.229492	0.515869	-0.241455	0.714693	-0.420364	-0.159360	-0.535829
07477		6.697073	-4.165080	5.829769	-0.012917	0.000688	-0.006125	-0.227051	0.528320	-0.238525	0.714590	-0.420436	-0.159393	-0.535899
07478		6.700266	-4.201219	5.787796	-0.009629	0.002854	-0.007713	-0.223877	0.523682	-0.244629	0.714484	-0.420478	-0.159437	-0.535995
07479		6.700301	-4.200835	5.788035	-0.003083	0.009391	-0.010155	-0.225830	0.520996	-0.244873	0.714407	-0.420448	-0.159485	-0.536108
07480		6.682563	-4.186736	5.848818	-0.002870	0.009292	-0.011669	-0.229492	0.517090	-0.241943	0.714323	-0.420419	-0.159541	-0.536225
07481		6.706303	-4.201249	5.802767	-0.001592	0.007982	-0.015644	-0.230469	0.522461	-0.249268	0.714225	-0.420384	-0.159619	-0.536361
07482		6.716760	-4.161484	5.822860	-0.000892	0.002560	-0.016545	-0.234131	0.520996	-0.247559	0.714110	-0.420365	-0.159757	-0.536487
07483		6.730225	-4.158062	5.801075	-0.005677	0.001802	-0.009466	-0.227783	0.521484	-0.237061	0.714003	-0.420390	-0.159854	-0.536581
07484		6.716428	-4.208186	5.797324	-0.000107	0.002225	-0.006539	-0.228516	0.515869	-0.243652	0.713936	-0.420394	-0.159925	-0.536645
07485		6.712079	-4.156508	5.809890	-0.004447	0.001982	-0.007598	-0.231934	0.515869	-0.247070	0.713861	-0.420416	-0.160000	-0.536705
07486		6.710485	-4.176458	5.806582	-0.005081	0.002994	-0.008164	-0.230957	0.517822	-0.249023	0.713775	-0.420432	-0.160088	-0.536780
07487		6.705107	-4.201456	5.771354	-0.004305	0.006292	-0.007641	-0.226562	0.515869	-0.245605	0.713700	-0.420427	-0.160162	-0.536862
07488		6.712984	-4.182689	5.788501	0.002819	0.008924	-0.012411	-0.227051	0.519531	-0.240723	0.713647	-0.420365	-0.160245	-0.536957
07489		6.706080	-4.150597	5.799113	0.004516	0.011090	-0.005564	-0.238770	0.517334	-0.242676	0.713619	-0.420309	-0.160279	-0.537028
07490		6.671844	-4.171981	5.827905	0.000651	0.013549	-0.006751	-0.223877	0.528320	-0.239014	0.713542	-0.420271	-0.160321	-0.537148
07491		6.690608	-4.199072	5.798534	0.002537	0.014149	-0.014530	-0.224609	0.527100	-0.250977	0.713462	-0.420208	-0.160335	-0.537299
07492		6.691667	-4.148658	5.825803	0.004018	0.012026	-0.014909	-0.226318	0.516602	-0.242432	0.713400	-0.420117	-0.160414	-0.537428
07493		6.731261	-4.190788	5.816713	0.003463	0.013734	-0.013308	-0.224854	0.520752	-0.236328	0.713358	-0.420033	-0.160447	-0.537541
07494		6.699383	-4.155057	5.823515	0.004663	0.016836	-0.015809	-0.228516	0.523926	-0.250000	0.713296	-0.419951	-0.160441	-0.537688
07495		6.698889	-4.152891	5.825629	0.003847	0.015743	-0.015594	-0.228516	0.517334	-0.252441	0.713233	-0.419843	-0.160500	-0.537839
07496		6.710866	-4.184080	5.831808	0.006060	0.019125	-0.014712	-0.230225	0.523926	-0.245361	0.713210	-0.419686	-0.160560	-0.537973
07497		6.722564	-4.179720	5.812802	0.001810	0.025395	-0.015078	-0.222900	0.524414	-0.251221	0.713141	-0.419567	-0.160526	-0.538168
07498		6.708769	-4.144192	5.811801	0.007372	0.020721	-0.015775	-0.223877	0.525635	-0.238525	0.713129	-0.419403	-0.160545	-0.538305
07499		6.711185	-4.137107	5.846611	0.004885	0.018927	-0.009301	-0.219727	0.524414	-0.248047	0.713099	-0.419329	-0.160485	-0.538421
07500		6.675757	-4.170544	5.824911	0.009304	0.014767	-0.009704	-0.229736	0.513916	-0.247803	0.713125	-0.419196	-0.160496	-0.538487
07501		6.690827	-4.133379	5.859427	0.004743	0.008794	-0.007790	-0.227539	0.519775	-0.250488	0.713113	-0.419112	-0.160565	-0.538548
07502		6.717089	-4.155628	5.794645	0.005033	0.003570	-0.005671	-0.229736	0.515625	-0.241211	0.713109	-0.419048	-0.160649	-0.538579
07503		6.706945	-4.124073	5.871386	0.002255	0.001179	0.000146	-0.228027	0.518066	-0.247803	0.713088	-0.419063	-0.160690	-0.538582
07504		6.674088	-4.174550	5.876312	0.001057	-0.001924	0.002644	-0.228027	0.522705	-0.244629	0.713096	-0.419066	-0.160751	-0.538551
07505		6.699315	-4.142246	5.854543	0.000027	-0.008742	0.005834	-0.220947	0.513672	-0.246826	0.713085	-0.419140	-0.160808	-0.538491
07506		6.725325	-4.138321	5.810176	-0.000017	-0.006536	0.006570	-0.233643	0.514648	-0.243408	0.713158	-0.419151	-0.160852	-0.538373
07507		6.707408	-4.126151	5.869397	0.000144	-0.005144	0.010897	-0.222900	0.524414	-0.248779	0.713151	-0.419210	-0.160910	-0.538319
07508		6.705022	-4.148062	5.865707	-0.000548	-0.002641	0.016170	-0.229004	0.519287	-0.245850	0.713240	-0.419240	-0.160880	-0.538186
07509		6.668634	-4.233444	5.815758	-0.002199	-0.001910	0.012225	-0.225586	0.515625	-0.247314	0.713265	-0.419286	-0.160880	-0.538116
07510		6.699250	-4.168144	5.782335	0.006940	0.005639	-0.000340	-0.224121	0.519043	-0.244873	0.713317	-0.419200	-0.160920	-0.538104
07511		6.688956	-4.164511	5.837905	0.011364	0.012405	0.001423	-0.231689	0.517578	-0.246826	0.713392	-0.419089	-0.160902	-0.538096
07512		6.659968	-4.124733	5.876609	0.010638	0.006900	0.000164	-0.232910	0.518066	-0.246338	0.713405	-0.419001	-0.160966	-0.538127
07513		6.685423	-4.183211	5.837808	0.005572	0.006253	0.001469	-0.231689	0.522461	-0.249268	0.713393	-0.418954	-0.161006	-0.538168
07514		6.699569	-4.159756	5.820480	0.012759	0.003766	0.000353	-0.225830	0.528809	-0.254883	0.713413	-0.418864	-0.161085	-0.538188
07515		6.676954	-4.122837	5.871625	0.009002	0.003999	0.005690	-0.234863	0.517578	-0.242676	0.713503	-0.418772	-0.161096	-0.538137
07516		6.687408	-4.176298	5.872927	0.006876	-0.003796	0.003339	-0.218262	0.516846	-0.242676	0.713455	-0.418800	-0.161185	-0.538152
07517		6.697951	-4.166005	5.870176	0.005134	-0.004477	0.002331	-0.230713	0.524658	-0.245117	0.713538	-0.418803	-0.161188	-0.538039
07518		6.704729	-4.160790	5.835660	0.006545	0.003633	0.001952	-0.223877	0.513916	-0.247314	0.713523	-0.418798	-0.161194	-0.538061
07519		6.663984	-4.151956	5.872913	0.006205	0.005242	0.002036	-0.229736	0.524414	-0.239502	0.713606	-0.418707	-0.161210	-0.538017
07520		6.636175	-4.141101	5.888133	-0.000678	0.003217	0.000167	-0.228760	0.521484	-0.245605	0.713532	-0.418798	-0.161159	-0.538060
07521		6.689073	-4.147659	5.829952	-0.002861	-0.003083	0.003656	-0.225098	0.518555	-0.247559	0.713510	-0.418858	-0.161159	-0.538042
07522		6.679062	-4.157962	5.832083	-0.002290	-0.004081	-0.003045	-0.227295	0.527588	-0.248291	0.713511	-0.418869	-0.161191	-0.538022
07523		6.677036	-4.150016	5.850703	0.000259	-0.002306	-0.002247	-0.231445	0.518311	-0.243408	0.713490	-0.418899	-0.161191	-0.538027
07524		6.679901	-4.157563	5.831408	-0.000889	-0.001792	-0.001953	-0.229492	0.524414	-0.248291	0.713422	-0.418946	-0.161235	-0.538067
07525		6.673302	-4.162240	5.866101	-0.001011	-0.000283	-0.003382	-0.223145	0.514404	-0.244873	0.713384	-0.418962	-0.161249	-0.538102
07526		6.674378	-4.190247	5.843468	-0.003439	-0.003567	-0.002750	-0.227539	0.518311	-0.250977	0.713399	-0.418978	-0.161266	-0.538063
07527		6.677874	-4.197557	5.823618	-0.003759	-0.006356	-0.011403	-0.234375	0.520752	-0.243896	0.713360	-0.418960	-0.161363	-0.538100
07528		6.694838	-4.160695	5.855707	-0.001660	-0.000751	-0.017053	-0.232178	0.518311	-0.248047	0.713192	-0.419003	-0.161455	-0.538263
07529		6.679706	-4.166567	5.845058	-0.006040	0.001204	-0.017386	-0.224854	0.521240	-0.253662	0.713067	-0.418997	-0.161533	-0.538408
07530		6.687690	-4.159930	5.810156	-0.000467	0.002351	-0.019549	-0.230469	0.517578	-0.247803	0.713063	-0.418886	-0.161590	-0.538483
07531		6.692860	-4.180707	5.820468	0.002080	0.004128	-0.018750	-0.221680	0.530273	-0.249023	0.712983	-0.418814	-0.161679	-0.538619
07532		6.651876	-4.114431	5.901797	-0.003972	0.005385	-0.012826	-0.222656	0.519531	-0.250000	0.712986	-0.418818	-0.161572	-0.538644
07533		6.694384	-4.137211	5.894212	-0.008608	-0.001285	-0.013076	-0.225342	0.526367	-0.241699	0.712981	-0.418808	-0.161561	-0.538661
07534		6.744059	-4.195989	5.777774	-0.007668	-0.000986	-0.016957	-0.225830	0.515869	-0.238525	0.712867	-0.418928	-0.161509	-0.538734
07535		6.698980	-4.142838	5.874302	-0.005632	0.006115	-0.016767	-0.232178	0.517334	-0.251221	0.712760	-0.418987	-0.161476	-0.538840
07536		6.689910	-4.143905	5.829654	-0.003553	0.011011	-0.017310	-0.232178	0.516602	-0.247314	0.712687	-0.418872	-0.161522	-0.539012
07537		6.686969	-4.142412	5.897029	-0.007422	0.001818	-0.015567	-0.224609	0.510986	-0.249023	0.712569	-0.418870	-0.161584	-0.539151
07538		6.668591	-4.078289	5.901094	-0.016062	-0.008148	-0.006775	-0.233398	0.511719	-0.245605	0.712557	-0.418901	-0.161619	-0.539133
07539		6.715411	-4.138853	5.849623	-0.023462	-0.016501	-0.006310	-0.227051	0.519287	-0.247314	0.712379	-0.419080	-0.161716	-0.539199
07540		6.724508	-4.171277	5.836503	-0.028230	-0.021663	-0.007981	-0.225830	0.519531	-0.244141	0.712254	-0.419313	-0.161738	-0.539177
07541		6.748062	-4.145282	5.779492	-0.023055	-0.011589	-0.005687	-0.220703	0.513184	-0.240723	0.712163	-0.419509	-0.161688	-0.539159
07542		6.692241	-4.181589	5.829222	-0.017238	0.003295	-0.004296	-0.228760	0.519043	-0.244629	0.712162	-0.419599	-0.161557	-0.539130
07543		6.662629	-4.200152	5.887313	-0.019194	-0.002392	-0.007422	-0.226562	0.515381	-0.254639	0.712060	-0.419721	-0.161509	-0.539183
07544		6.663776	-4.137380	5.881274	-0.026423	-0.018842	-0.014997	-0.229492	0.526855	-0.249268	0.711997	-0.419777	-0.161608	-0.539194
07545		6.697590	-4.184576	5.820929	-0.029242	-0.023418	-0.017170	-0.233154	0.517090	-0.247070	0.711823	-0.420017	-0.161649	-0.539225
07546		6.749642	-4.203508	5.774275	-0.026234	-0.018211	-0.021586	-0.231445	0.517090	-0.245361	0.711588	-0.420185	-0.161770	-0.539367
07547		6.761610	-4.205331	5.717791	-0.013901	-0.001859	-0.026243	-0.231445	0.512207	-0.246826	0.711412	-0.420218	-0.161843	-0.539553
07548		6.684647	-4.167197	5.793265	-0.009053	0.003997	-0.022405	-0.223877	0.526367	-0.234619	0.711295	-0.420149	-0.161927	-0.539735
07549		6.674439	-4.115193	5.939065	-0.016675	-0.004265	-0.020424	-0.228516	0.528809	-0.238525	0.711138	-0.420415	-0.161799	-0.539773
07550		6.704300	-4.165967	5.847945	-0.026345	-0.018904	-0.023728	-0.234619	0.514893	-0.245605	0.710892	-0.420761	-0.161768	-0.539837
07551		6.755659	-4.196449	5.750306	-0.026367	-0.018173	-0.028810	-0.228027	0.530029	-0.237305	0.710618	-0.420911	-0.161933	-0.540032
07552		6.776420	-4.167447	5.761660	-0.016514	0.002200	-0.028459	-0.236084	0.515869	-0.241943	0.710419	-0.421113	-0.161815	-0.540170
07553		6.776853	-4.137811	5.783808	-0.008972	0.008322	-0.022412	-0.231201	0.525879	-0.233887	0.710231	-0.421106	-0.161869	-0.540406
07554		6.713161	-4.078209	5.841532	-0.015550	0.004689	-0.008337	-0.225342	0.521240	-0.246338	0.710066	-0.421348	-0.161708	-0.540484
07555		6.718265	-4.063058	5.922615	-0.033052	-0.018124	0.007848	-0.223145	0.527588	-0.239014	0.710070	-0.421580	-0.161584	-0.540335
07556		6.773042	-4.149552	5.810519	-0.041218	-0.035616	0.013614	-0.229736	0.526367	-0.241211	0.710009	-0.422087	-0.161410	-0.540071
07557		6.764545	-4.137930	5.828254	-0.046774	-0.041900	0.020891	-0.230957	0.515625	-0.237305	0.709894	-0.422628	-0.161312	-0.539828
07558		6.737119	-4.311660	5.635945	-0.046202	-0.035613	0.020032	-0.224609	0.519531	-0.238281	0.709749	-0.423114	-0.161263	-0.539653
07559		6.737286	-4.261101	5.674977	-0.033954	-0.020648	0.006668	-0.229736	0.516846	-0.231689	0.709695	-0.423433	-0.161143	-0.539510
07560		6.726112	-4.218707	5.719559	-0.017950	-0.002985	0.008329	-0.232910	0.524658	-0.232178	0.709611	-0.423669	-0.161031	-0.539467
07561		6.693355	-4.204333	5.818107	-0.021058	-0.016175	0.013496	-0.234619	0.517822	-0.232178	0.709485	-0.424038	-0.160943	-0.539370
07562		6.724527	-4.114062	5.803193	-0.025137	-0.029662	0.015278	-0.234131	0.518066	-0.238281	0.709321	-0.424443	-0.160983	-0.539255
07563		6.762683	-4.242925	5.705775	-0.026897	-0.033255	0.015742	-0.231445	0.523193	-0.237061	0.709213	-0.424773	-0.161057	-0.539116
07564		6.798331	-4.251250	5.651599	-0.011702	-0.021774	0.009592	-0.228027	0.516357	-0.234619	0.709165	-0.424995	-0.161080	-0.538997
07565		6.770525	-4.290455	5.638727	0.003506	-0.003022	0.007812	-0.231445	0.533936	-0.239258	0.709218	-0.425021	-0.161078	-0.538907
07566		6.705199	-4.167862	5.695277	0.009586	0.010310	0.004780	-0.227051	0.519775	-0.240967	0.709274	-0.425008	-0.160950	-0.538883
07567		6.702534	-4.116280	5.888900	0.005156	0.003519	0.014672	-0.229492	0.524658	-0.243164	0.709433	-0.424929	-0.160885	-0.538755
07568		6.764013	-4.273350	5.777318	-0.004841	-0.024096	0.015800	-0.231934	0.517822	-0.238037	0.709505	-0.425040	-0.160932	-0.538558
07569		6.813020	-4.364832	5.536690	0.006683	-0.013895	0.004777	-0.230957	0.526855	-0.241699	0.709516	-0.425058	-0.161071	-0.538488
07570		6.722831	-4.177872	5.733771	0.025599	0.016326	-0.000879	-0.232910	0.520996	-0.245361	0.709642	-0.424828	-0.161067	-0.538504
07571		6.678898	-4.195367	5.818991	0.022669	0.026377	-0.011745	-0.222900	0.530273	-0.238525	0.709733	-0.424468	-0.161112	-0.538655
07572		6.693706	-4.121393	5.829478	0.006472	0.007341	-0.013341	-0.229736	0.526611	-0.239502	0.709785	-0.424442	-0.160990	-0.538642
07573		6.722449	-3.979539	5.910980	-0.016930	-0.014347	0.004425	-0.226562	0.523682	-0.244385	0.709733	-0.424649	-0.160935	-0.538564
07574		6.764231	-4.198989	5.728050	-0.032521	-0.027116	0.016517	-0.225098	0.514404	-0.235596	0.709744	-0.424914	-0.160853	-0.538366
07575		6.755985	-4.269357	5.681362	-0.027462	-0.009693	0.013033	-0.237061	0.523926	-0.235840	0.709734	-0.425128	-0.160731	-0.538247
07576		6.744460	-4.254518	5.705135	-0.011746	0.008112	0.006017	-0.231445	0.518799	-0.241455	0.709625	-0.425242	-0.160657	-0.538323
07577		6.709889	-4.175427	5.803356	-0.015306	0.006046	0.007679	-0.228271	0.519775	-0.229980	0.709627	-0.425252	-0.160575	-0.538336
07578		6.705229	-4.191206	5.817465	-0.025418	-0.009141	0.009583	-0.228027	0.524902	-0.239746	0.709521	-0.425570	-0.160445	-0.538263
07579		6.769005	-4.293323	5.681871	-0.022938	-0.016059	0.004548	-0.220459	0.523193	-0.235107	0.709477	-0.425773	-0.160386	-0.538178
07580		6.737909	-4.217432	5.612783	-0.008197	0.013836	-0.000722	-0.220215	0.523682	-0.247314	0.709558	-0.425788	-0.160152	-0.538129
07581		6.737561	-4.201382	5.765844	0.001873	0.033404	0.000318	-0.223633	0.531738	-0.228760	0.709806	-0.425472	-0.159888	-0.538131
07582		6.735206	-4.264931	5.772232	0.001500	0.031387	-0.001771	-0.228760	0.521973	-0.237061	0.709845	-0.425515	-0.159556	-0.538144
07583		6.738639	-4.307161	5.714198	-0.000477	0.019896	-0.007833	-0.234375	0.515625	-0.232910	0.709835	-0.425430	-0.159460	-0.538254
07584		6.722764	-4.256482	5.684786	0.009836	0.024080	-0.014897	-0.224854	0.521729	-0.241455	0.709733	-0.425290	-0.159501	-0.538485
07585		6.737809	-4.237686	5.652103	0.025757	0.038865	-0.014660	-0.225342	0.524170	-0.239990	0.709893	-0.424883	-0.159408	-0.538624
07586		6.719162	-4.169162	5.843121	0.022176	0.030975	-0.011550	-0.226807	0.528320	-0.240234	0.710019	-0.424585	-0.159316	-0.538719
07587		6.706014	-4.197557	5.845038	0.007781	-0.000537	0.000876	-0.226807	0.519775	-0.238770	0.710089	-0.424563	-0.159287	-0.538654
07588		6.717488	-4.120290	5.936601	-0.016984	-0.036172	0.005814	-0.229248	0.518799	-0.242188	0.710033	-0.424819	-0.159397	-0.538493
07589		6.830253	-4.265332	5.652941	-0.024297	-0.043893	0.020096	-0.238281	0.522705	-0.239014	0.710004	-0.425113	-0.159514	-0.538265
07590		6.799126	-4.307543	5.458704	-0.000302	-0.004294	0.023372	-0.233398	0.520508	-0.236328	0.709996	-0.425179	-0.159548	-0.538213
07591		6.678733	-4.256808	5.773217	0.024111	0.036590	0.020716	-0.225586	0.513916	-0.234619	0.710154	-0.424932	-0.159418	-0.538239
07592		6.584987	-4.219307	5.974450	0.011020	0.004546	0.012418	-0.227539	0.521729	-0.241455	0.710263	-0.424866	-0.159411	-0.538148
07593		6.737458	-4.206151	5.806704	-0.012588	-0.041793	0.015580	-0.227295	0.523682	-0.229736	0.710271	-0.425104	-0.159551	-0.537909
07594		6.803244	-4.244478	5.665606	-0.014131	-0.049125	0.015248	-0.230469	0.523682	-0.243652	0.710166	-0.425571	-0.159664	-0.537644
07595		6.750664	-4.285420	5.547801	0.009007	-0.001123	0.015115	-0.218262	0.520752	-0.230713	0.710289	-0.425472	-0.159690	-0.537552
07596		6.707681	-4.312523	5.614103	0.038723	0.048342	0.007427	-0.218994	0.524902	-0.230957	0.710588	-0.425122	-0.159432	-0.537510
07597		6.628750	-4.196374	5.926498	0.037224	0.041722	0.004905	-0.233398	0.524170	-0.236816	0.710845	-0.424840	-0.159195	-0.537464
07598		6.717198	-4.195714	5.954088	0.018516	-0.001689	0.006076	-0.219482	0.524414	-0.243896	0.710850	-0.424806	-0.159302	-0.537452
07599		6.787981	-4.225438	5.782959	-0.000269	-0.033392	0.000008	-0.216553	0.518555	-0.233643	0.710944	-0.424884	-0.159418	-0.537232
07600		6.839292	-4.172224	5.686025	0.000984	-0.029593	0.006975	-0.230469	0.527588	-0.239502	0.711033	-0.425056	-0.159470	-0.536963
07601		6.689390	-4.239097	5.658839	0.013037	0.009481	0.011898	-0.227051	0.525391	-0.239502	0.711117	-0.424985	-0.159424	-0.536922
07602		6.644241	-4.231237	5.765203	0.015441	0.020806	0.006188	-0.230713	0.523926	-0.245117	0.711236	-0.424822	-0.159325	-0.536922
07603		6.609779	-4.212589	5.868866	0.007596	0.012656	-0.004883	-0.231689	0.522705	-0.242432	0.711263	-0.424646	-0.159345	-0.537019
07604		6.741935	-4.240984	5.785871	0.003274	-0.007279	-0.003783	-0.229248	0.522217	-0.238770	0.711221	-0.424623	-0.159467	-0.537057
07605		6.774164	-4.313365	5.706431	0.009130	-0.007687	-0.011874	-0.224854	0.524170	-0.239258	0.711164	-0.424603	-0.159610	-0.537105
07606		6.692048	-4.263303	5.722622	0.015657	0.001807	-0.021582	-0.220459	0.527344	-0.241211	0.711157	-0.424487	-0.159704	-0.537179
07607		6.640076	-4.189205	5.780115	0.018734	0.011381	-0.036212	-0.224609	0.522217	-0.235352	0.711174	-0.424276	-0.159747	-0.537311
07608		6.651788	-4.209080	5.805499	0.011195	0.017649	-0.044423	-0.228027	0.520020	-0.239258	0.711043	-0.424134	-0.159801	-0.537579
07609		6.717288	-4.226100	5.724470	0.013223	0.012376	-0.046405	-0.225830	0.522217	-0.241211	0.710896	-0.423939	-0.159959	-0.537881
07610		6.680417	-4.163409	5.789200	0.011923	0.012220	-0.048241	-0.224609	0.521973	-0.238281	0.710778	-0.423735	-0.160083	-0.538160
07611		6.767346	-4.156455	5.800968	0.011971	-0.002376	-0.027873	-0.235107	0.517090	-0.239014	0.710727	-0.423665	-0.160197	-0.538249
07612		6.779583	-4.218330	5.750396	0.012579	-0.004103	-0.026574	-0.231934	0.521729	-0.236572	0.710565	-0.423580	-0.160452	-0.538453
07613		6.771232	-4.188304	5.728408	0.015385	0.000475	-0.025846	-0.230469	0.516113	-0.234619	0.710445	-0.423519	-0.160615	-0.538611
07614		6.735428	-4.143638	5.820767	0.015030	0.000630	-0.018473	-0.227539	0.523193	-0.240723	0.710362	-0.423461	-0.160763	-0.538722
07615		6.741246	-4.163547	5.830984	0.012511	-0.008444	-0.013448	-0.231445	0.519531	-0.244873	0.710362	-0.423418	-0.160879	-0.538722
07616		6.746100	-4.236617	5.715567	0.015962	-0.009971	-0.014345	-0.232910	0.519775	-0.236572	0.710357	-0.423286	-0.161099	-0.538767
07617		6.736219	-4.187699	5.763206	0.016900	-0.010386	-0.013132	-0.227783	0.516357	-0.239746	0.710278	-0.423278	-0.161297	-0.538817
07618		6.766675	-4.258254	5.751547	0.020329	-0.011179	-0.019116	-0.233398	0.515625	-0.245850	0.710272	-0.423169	-0.161524	-0.538843
07619		6.786919	-4.189748	5.740482	0.032419	-0.009249	-0.022266	-0.232666	0.520752	-0.242676	0.710282	-0.422899	-0.161882	-0.538934
07620		6.739596	-4.138370	5.806900	0.032044	-0.006169	-0.016347	-0.232910	0.517822	-0.248535	0.710302	-0.422707	-0.162138	-0.538981
07621		6.740028	-4.154467	5.804179	0.021654	-0.016130	-0.013619	-0.236084	0.518311	-0.241943	0.710331	-0.422529	-0.162439	-0.538992
07622		6.745013	-4.158472	5.784766	0.021647	-0.016129	-0.013613	-0.228516	0.515625	-0.244141	0.710268	-0.422457	-0.162732	-0.539044
07623		6.773374	-4.185524	5.766196	0.020435	-0.018512	-0.016199	-0.222900	0.518066	-0.245117	0.710298	-0.422339	-0.163003	-0.539015
07624		6.780634	-4.161044	5.702331	0.023479	-0.010404	-0.017736	-0.226074	0.516113	-0.246826	0.710418	-0.422158	-0.163182	-0.538943
07625		6.736726	-4.097982	5.752948	0.029970	0.002753	-0.010731	-0.238525	0.522461	-0.240723	0.710586	-0.421863	-0.163333	-0.538908
07626		6.728711	-4.119618	5.786984	0.031741	0.002715	-0.004642	-0.238770	0.517822	-0.239014	0.710579	-0.421723	-0.163500	-0.538975
07627		6.767209	-4.144468	5.749440	0.031063	0.000107	-0.002999	-0.234131	0.518311	-0.244385	0.710557	-0.421601	-0.163695	-0.539041
07628		6.738342	-4.234598	5.763111	0.031243	-0.000745	-0.015404	-0.228516	0.520264	-0.239014	0.710580	-0.421386	-0.163921	-0.539109
07629		6.754118	-4.129656	5.794777	0.035723	0.000873	-0.026026	-0.233643	0.527832	-0.249023	0.710594	-0.421204	-0.164106	-0.539178
07630		6.735176	-4.067496	5.850523	0.030547	0.000990	-0.021037	-0.230469	0.520020	-0.247803	0.710631	-0.420980	-0.164280	-0.539251
07631		6.753053	-4.131556	5.814736	0.023274	-0.003077	-0.020579	-0.236572	0.524414	-0.247070	0.710668	-0.420786	-0.164463	-0.539297
07632		6.792467	-4.127227	5.798301	0.017238	-0.002625	-0.025553	-0.230469	0.513672	-0.245361	0.710585	-0.420672	-0.164647	-0.539441
07633		6.801705	-4.152973	5.789936	0.015650	-0.002692	-0.033134	-0.239746	0.520508	-0.238525	0.710523	-0.420506	-0.164863	-0.539585
07634		6.788926	-4.099506	5.758064	0.012959	0.002132	-0.031728	-0.228271	0.510498	-0.245361	0.710305	-0.420489	-0.165030	-0.539834
07635		6.712424	-4.051135	5.787947	0.014065	0.008933	-0.027685	-0.226318	0.516846	-0.239746	0.710312	-0.420267	-0.165149	-0.539961
07636		6.785898	-4.124093	5.773644	0.002560	0.005274	-0.026131	-0.233154	0.513916	-0.242188	0.710254	-0.420246	-0.165145	-0.540056
07637		6.812972	-4.067291	5.756607	0.006064	0.010273	-0.026337	-0.229736	0.522217	-0.252197	0.710157	-0.420144	-0.165212	-0.540241
07638		6.802329	-4.081673	5.809613	0.009615	0.019659	-0.017860	-0.237305	0.513184	-0.242920	0.710241	-0.419901	-0.165165	-0.540334
07639		6.780648	-4.099128	5.818747	0.010382	0.031683	-0.015942	-0.231201	0.520020	-0.247803	0.710193	-0.419691	-0.165124	-0.540573
07640		6.736790	-4.073336	5.830281	0.004186	0.030016	-0.020137	-0.232910	0.515137	-0.248291	0.710208	-0.419486	-0.165004	-0.540749
07641		6.722243	-4.121659	5.830022	-0.000861	0.027843	-0.024627	-0.233154	0.515869	-0.244385	0.710166	-0.419286	-0.164937	-0.540979
07642		6.761387	-4.133719	5.844307	-0.003105	0.023674	-0.036366	-0.235107	0.513428	-0.255859	0.710024	-0.419160	-0.164905	-0.541274
07643		6.757059	-4.106800	5.836987	-0.006253	0.027917	-0.042831	-0.230713	0.519775	-0.251709	0.709917	-0.418866	-0.164929	-0.541634
07644		6.748887	-3.960354	5.870420	-0.010479	0.023997	-0.034452	-0.238281	0.517334	-0.251709	0.709847	-0.418711	-0.164835	-0.541875
07645		6.743750	-4.032623	5.810682	-0.015148	0.010134	-0.021558	-0.234375	0.518555	-0.254150	0.709711	-0.418667	-0.164825	-0.542090
07646		6.777624	-4.093110	5.783381	-0.017050	0.003715	-0.019581	-0.236816	0.518555	-0.258301	0.709634	-0.418633	-0.164809	-0.542221
07647		6.773114	-4.125380	5.795369	-0.018400	0.006448	-0.025776	-0.237061	0.511475	-0.246582	0.709530	-0.418540	-0.164823	-0.542425
07648		6.723819	-4.042397	5.833811	-0.017506	0.006762	-0.029632	-0.242920	0.514404	-0.248047	0.709322	-0.418546	-0.164850	-0.542684
07649		6.756374	-4.086871	5.777388	-0.024463	0.010501	-0.032934	-0.240479	0.515869	-0.246826	0.709027	-0.418579	-0.164860	-0.543040
07650		6.793862	-4.057163	5.782182	-0.019687	0.013500	-0.031994	-0.236816	0.516846	-0.252197	0.708784	-0.418588	-0.164840	-0.543357
07651		6.802718	-4.072947	5.824607	-0.015804	0.014705	-0.032992	-0.236328	0.506836	-0.244629	0.708640	-0.418496	-0.164825	-0.543621
07652		6.765122	-4.083947	5.791172	-0.021017	0.015516	-0.033100	-0.237305	0.521240	-0.251465	0.708426	-0.418471	-0.164804	-0.543925
07653		6.717343	-4.064689	5.833229	-0.025056	0.007106	-0.034920	-0.241211	0.512451	-0.245605	0.708227	-0.418498	-0.164768	-0.544174
07654		6.765704	-4.073308	5.808556	-0.029151	0.000899	-0.036010	-0.236084	0.517090	-0.245605	0.707909	-0.418609	-0.164805	-0.544491
07655		6.795808	-4.130508	5.766093	-0.025188	-0.007337	-0.033365	-0.237061	0.518555	-0.244385	0.707675	-0.418747	-0.164838	-0.544679
07656		6.819001	-4.060050	5.783963	-0.024564	-0.004718	-0.034979	-0.241211	0.514160	-0.248047	0.707424	-0.418890	-0.164856	-0.544891
07657		6.813533	-3.987679	5.864676	-0.018999	-0.007803	-0.021174	-0.234131	0.512207	-0.243164	0.707234	-0.418969	-0.164935	-0.545051
07658		6.804649	-4.058810	5.788341	-0.016243	-0.008246	-0.013907	-0.239990	0.512451	-0.245117	0.707137	-0.419077	-0.164950	-0.545090
07659		6.803798	-4.043888	5.757796	-0.012347	-0.004096	-0.003328	-0.238770	0.525635	-0.245117	0.707055	-0.419144	-0.164964	-0.545140
07660		6.789237	-4.088166	5.771334	-0.007404	-0.012742	0.000502	-0.231689	0.511475	-0.236328	0.707013	-0.419293	-0.164953	-0.545083
07661		6.793213	-4.055926	5.823097	-0.007797	-0.027790	0.001381	-0.237305	0.510254	-0.240234	0.706968	-0.419530	-0.165031	-0.544937
07662		6.783598	-4.003981	5.818702	-0.012793	-0.029234	0.007752	-0.242188	0.514893	-0.248047	0.706899	-0.419765	-0.165131	-0.544814
07663		6.796924	-4.072881	5.763570	-0.016239	-0.029891	0.016623	-0.241211	0.511230	-0.240479	0.706865	-0.419972	-0.165224	-0.544670
07664		6.822565	-4.087045	5.811507	-0.019402	-0.026327	0.023959	-0.238525	0.516113	-0.247803	0.706812	-0.420259	-0.165241	-0.544514
07665		6.840710	-4.159918	5.769705	-0.013564	-0.024511	0.022446	-0.244629	0.514648	-0.244629	0.706866	-0.420428	-0.165269	-0.544304
07666		6.858346	-4.140154	5.681155	-0.013009	-0.012442	0.017191	-0.237305	0.517334	-0.243652	0.706819	-0.420573	-0.165278	-0.544250
07667		6.768059	-3.993642	5.832564	-0.007621	-0.004624	0.017221	-0.231201	0.512451	-0.241455	0.706879	-0.420661	-0.165204	-0.544127
07668		6.796816	-4.071127	5.819007	-0.019065	-0.012696	0.026021	-0.239014	0.514893	-0.249023	0.706982	-0.420851	-0.165083	-0.543883
07669		6.827615	-4.121372	5.759912	-0.022892	-0.011053	0.021212	-0.240723	0.521484	-0.245117	0.707020	-0.420984	-0.165018	-0.543750
07670		6.801073	-4.135447	5.702331	-0.016611	0.000714	0.015198	-0.235352	0.525879	-0.242188	0.707015	-0.421102	-0.164888	-0.543704
07671		6.791604	-4.163873	5.733561	-0.008562	0.009547	0.012360	-0.231934	0.509766	-0.244141	0.707076	-0.421172	-0.164686	-0.543632
07672		6.803915	-4.102543	5.789104	-0.007052	0.003818	0.014158	-0.241699	0.515625	-0.238525	0.707198	-0.421149	-0.164605	-0.543516
07673		6.804478	-4.076476	5.744619	-0.004800	0.005017	0.014296	-0.236816	0.526123	-0.242920	0.707169	-0.421225	-0.164521	-0.543521
07674		6.808449	-4.081506	5.758458	-0.006061	0.015006	0.019683	-0.235840	0.523193	-0.246094	0.707262	-0.421260	-0.164287	-0.543443
07675		6.762755	-4.117529	5.789553	-0.007574	0.015651	0.014273	-0.236572	0.518311	-0.242676	0.707359	-0.421239	-0.164090	-0.543392
07676		6.751511	-4.109749	5.796915	-0.007931	0.017256	0.014364	-0.235840	0.520508	-0.241211	0.707423	-0.421230	-0.163900	-0.543374
07677		6.767465	-4.208412	5.737611	-0.011442	0.014415	0.006576	-0.232178	0.527344	-0.248291	0.707429	-0.421270	-0.163718	-0.543389
07678		6.793987	-4.123217	5.775384	-0.007231	0.011127	0.002586	-0.229248	0.518066	-0.239258	0.707514	-0.421241	-0.163558	-0.543349
07679		6.756840	-4.055750	5.822812	-0.005326	0.010302	0.004996	-0.231445	0.514404	-0.245850	0.707586	-0.421259	-0.163407	-0.543288
07680		6.762000	-4.100452	5.762316	-0.009131	0.002533	0.012524	-0.235352	0.521729	-0.243164	0.707687	-0.421256	-0.163316	-0.543186
07681		6.785210	-4.113329	5.814099	-0.011889	0.000829	0.013243	-0.235352	0.509766	-0.242188	0.707717	-0.421350	-0.163193	-0.543110
07682		6.829629	-4.138519	5.738558	-0.014500	0.001238	0.013196	-0.237549	0.515625	-0.244873	0.707729	-0.421411	-0.163118	-0.543070
07683		6.864481	-4.065143	5.769716	-0.006146	0.013577	0.022628	-0.227539	0.515625	-0.242188	0.707825	-0.421380	-0.162966	-0.543015
07684		6.806347	-4.077660	5.778464	-0.005894	0.025095	0.050138	-0.245117	0.513428	-0.246094	0.708151	-0.421344	-0.162592	-0.542729
07685		6.670094	-4.324637	5.645847	0.002763	0.033653	0.042819	-0.231934	0.515625	-0.245850	0.708308	-0.421191	-0.162350	-0.542716
07686		6.685181	-4.258442	5.671155	0.014229	0.039530	0.017354	-0.237549	0.527100	-0.243652	0.708541	-0.420898	-0.162139	-0.542702
07687		6.734906	-4.113523	5.795360	0.022609	0.035144	0.010114	-0.235352	0.519775	-0.240234	0.708681	-0.420661	-0.161977	-0.542752
07688		6.740793	-4.150514	5.772185	0.022350	0.032349	0.008736	-0.222656	0.524902	-0.238525	0.708805	-0.420438	-0.161849	-0.542801
07689		6.748098	-4.127047	5.825581	0.016971	0.027436	0.011582	-0.233643	0.520264	-0.243652	0.709038	-0.420295	-0.161618	-0.542676
07690		6.733293	-4.157162	5.828795	0.015827	0.022851	0.008253	-0.230713	0.521973	-0.242920	0.709157	-0.420121	-0.161522	-0.542683
07691		6.726174	-4.133780	5.822367	0.013564	0.018032	0.010292	-0.231201	0.525879	-0.241943	0.709295	-0.419998	-0.161410	-0.542632
07692		6.738184	-4.111117	5.806464	0.008637	0.012201	0.015192	-0.232910	0.511963	-0.247314	0.709415	-0.419968	-0.161273	-0.542539
07693		6.716603	-4.208416	5.765349	0.010556	0.009909	0.011798	-0.226562	0.522217	-0.250732	0.709537	-0.419815	-0.161270	-0.542499
07694		6.721806	-4.202808	5.732728	0.013847	0.014273	0.002243	-0.231201	0.515869	-0.250488	0.709717	-0.419613	-0.161216	-0.542435
07695		6.697822	-4.117170	5.811880	0.018473	0.023133	-0.005479	-0.230225	0.517578	-0.245361	0.709836	-0.419319	-0.161212	-0.542508
07696		6.697718	-4.130357	5.844475	0.015357	0.023041	-0.004677	-0.230469	0.524902	-0.252441	0.709925	-0.419108	-0.161159	-0.542571
07697		6.732370	-4.148897	5.827006	0.010463	0.015744	-0.005593	-0.234375	0.527588	-0.243652	0.710022	-0.418921	-0.161120	-0.542600
07698		6.728079	-4.152485	5.796978	0.007556	0.011934	-0.004120	-0.230469	0.516602	-0.239990	0.710018	-0.418882	-0.161063	-0.542651
07699		6.716091	-4.133022	5.823930	0.012588	0.009733	-0.008307	-0.238037	0.529297	-0.240723	0.710024	-0.418801	-0.161078	-0.542702
07700		6.710990	-4.156599	5.790071	0.008825	0.007025	-0.005890	-0.225830	0.522949	-0.238037	0.709957	-0.418819	-0.161064	-0.542780
07701		6.721424	-4.132060	5.840304	0.010630	0.009136	-0.007804	-0.221436	0.524902	-0.250977	0.709993	-0.418793	-0.161010	-0.542769
07702		6.721073	-4.129985	5.842175	0.010038	0.011567	-0.011282	-0.233154	0.517090	-0.240234	0.710124	-0.418628	-0.160954	-0.542741
07703		6.706227	-4.114913	5.836850	0.009149	0.009776	-0.013228	-0.229736	0.514893	-0.248535	0.710072	-0.418566	-0.160984	-0.542848
07704		6.714905	-4.122927	5.832446	0.007342	0.007665	-0.011312	-0.228760	0.521729	-0.243652	0.710095	-0.418431	-0.161024	-0.542911
07705		6.757077	-4.143945	5.826511	0.005534	0.009178	-0.011577	-0.219971	0.516846	-0.240967	0.710097	-0.418378	-0.160997	-0.542957
07706		6.720077	-4.134489	5.797228	0.006417	0.010971	-0.009628	-0.231689	0.519775	-0.245117	0.710183	-0.418305	-0.160927	-0.542922
07707		6.676352	-4.117480	5.854390	0.005761	0.015604	-0.012366	-0.232178	0.520752	-0.250000	0.710169	-0.418203	-0.160895	-0.543027
07708		6.702181	-4.145818	5.838450	0.006950	0.010004	-0.016286	-0.235107	0.515625	-0.250244	0.710154	-0.418073	-0.160924	-0.543139
07709		6.712821	-4.132932	5.837181	0.002634	0.008249	-0.023160	-0.232422	0.516113	-0.249756	0.710061	-0.417950	-0.161005	-0.543331
07710		6.716420	-4.137612	5.819221	0.002837	0.008158	-0.024659	-0.227783	0.513428	-0.247070	0.709987	-0.417828	-0.161074	-0.543501
07711		6.707473	-4.096265	5.848523	0.004049	0.005452	-0.025687	-0.237061	0.522949	-0.245117	0.709940	-0.417718	-0.161149	-0.543625
07712		6.744811	-4.113592	5.829014	0.004369	0.005320	-0.019966	-0.232422	0.521484	-0.250732	0.709829	-0.417688	-0.161204	-0.543777
07713		6.710898	-4.118262	5.827973	0.008243	0.003628	-0.023846	-0.234863	0.520508	-0.241699	0.709781	-0.417572	-0.161295	-0.543900
07714		6.703397	-4.104463	5.835051	0.006332	0.008074	-0.028438	-0.232178	0.522217	-0.244385	0.709649	-0.417527	-0.161361	-0.544089
07715		6.671302	-4.123623	5.863460	0.006018	0.011102	-0.031259	-0.229004	0.519775	-0.246338	0.709545	-0.417444	-0.161400	-0.544276
07716		6.699017	-4.101377	5.872688	0.005759	0.005408	-0.035526	-0.234863	0.514648	-0.248535	0.709452	-0.417350	-0.161485	-0.544444
07717		6.740430	-4.124528	5.833953	0.003688	0.001222	-0.040060	-0.228271	0.515381	-0.245850	0.709283	-0.417249	-0.161657	-0.544690
07718		6.737666	-4.104211	5.872386	0.004447	-0.000565	-0.043140	-0.235352	0.515381	-0.248291	0.709151	-0.417167	-0.161808	-0.544880
07719		6.757798	-4.083923	5.834831	-0.002862	-0.002472	-0.042000	-0.231445	0.513916	-0.254883	0.708946	-0.417126	-0.161973	-0.545129
07720		6.744019	-4.051477	5.798646	0.002286	0.001824	-0.038239	-0.224365	0.524414	-0.244629	0.708850	-0.416969	-0.162121	-0.545331
07721		6.720245	-4.052688	5.842478	0.006053	0.001666	-0.027605	-0.238281	0.508789	-0.247803	0.708840	-0.416931	-0.162146	-0.545366
07722		6.732811	-4.074589	5.865656	0.001633	-0.002946	-0.028642	-0.227295	0.520996	-0.244385	0.708683	-0.416869	-0.162322	-0.545564
07723		6.779639	-4.065349	5.813913	0.006152	0.000887	-0.031242	-0.238037	0.511475	-0.242676	0.708630	-0.416822	-0.162391	-0.545648
07724		6.762602	-4.110189	5.797556	0.004443	0.005978	-0.026476	-0.236084	0.513916	-0.251953	0.708491	-0.416764	-0.162492	-0.545843
07725		6.753639	-4.055611	5.878446	0.008098	0.010910	-0.028135	-0.233643	0.515381	-0.248047	0.708426	-0.416583	-0.162586	-0.546038
07726		6.739803	-4.087765	5.847369	0.001200	0.015324	-0.029292	-0.229980	0.511963	-0.245361	0.708344	-0.416459	-0.162597	-0.546235
07727		6.761273	-3.995365	5.872705	-0.001858	0.014483	-0.023447	-0.237305	0.519043	-0.238770	0.708298	-0.416371	-0.162571	-0.546369
07728		6.738533	-4.067313	5.821405	-0.002034	0.010950	-0.019773	-0.235352	0.519775	-0.248291	0.708173	-0.416405	-0.162540	-0.546515
07729		6.741856	-4.060603	5.854456	-0.010348	0.011632	-0.019118	-0.232910	0.508057	-0.246094	0.708083	-0.416399	-0.162473	-0.546656
07730		6.758265	-4.063824	5.814196	-0.004886	0.005653	-0.024097	-0.234131	0.518066	-0.250000	0.707989	-0.416350	-0.162517	-0.546801
07731		6.749535	-4.059418	5.868166	-0.008781	0.004434	-0.023108	-0.224609	0.511475	-0.245117	0.707897	-0.416339	-0.162517	-0.546929
07732		6.750173	-4.021994	5.842300	-0.009208	0.001723	-0.022991	-0.237305	0.515869	-0.252686	0.707863	-0.416344	-0.162506	-0.546973
07733		6.745350	-4.018217	5.828729	-0.009065	0.001679	-0.015793	-0.236328	0.508057	-0.249512	0.707783	-0.416329	-0.162523	-0.547083
07734		6.720795	-4.010716	5.922234	-0.014532	-0.006808	-0.009328	-0.231689	0.512207	-0.248779	0.707693	-0.416390	-0.162564	-0.547142
07735		6.750007	-4.090103	5.875711	-0.021171	-0.027102	-0.009044	-0.240234	0.510742	-0.252686	0.707598	-0.416596	-0.162655	-0.547080
07736		6.785843	-4.088007	5.840222	-0.028034	-0.037201	-0.017401	-0.230713	0.508789	-0.251221	0.707365	-0.416850	-0.162853	-0.547129
07737		6.788890	-4.073118	5.805259	-0.024385	-0.038775	-0.019760	-0.232666	0.518311	-0.243652	0.707220	-0.417071	-0.163052	-0.547088
07738		6.797299	-4.060565	5.784215	-0.019947	-0.028370	-0.012948	-0.233887	0.516846	-0.244141	0.707096	-0.417331	-0.163141	-0.547023
07739		6.726026	-4.041713	5.817980	-0.016719	-0.016733	-0.010899	-0.231201	0.516357	-0.246826	0.707001	-0.417511	-0.163180	-0.546998
07740		6.781902	-4.089799	5.830347	-0.016286	-0.020537	-0.011721	-0.236084	0.520752	-0.247070	0.706936	-0.417672	-0.163245	-0.546939
07741		6.771303	-4.056923	5.822938	-0.016320	-0.023423	-0.014596	-0.239258	0.512451	-0.246094	0.706817	-0.417863	-0.163340	-0.546919
07742		6.785270	-4.094912	5.790444	-0.017176	-0.028845	-0.014362	-0.236084	0.528076	-0.251465	0.706645	-0.418065	-0.163501	-0.546939
07743		6.800807	-4.056203	5.739203	-0.015845	-0.022910	-0.015433	-0.243164	0.508057	-0.241943	0.706557	-0.418234	-0.163581	-0.546900
07744		6.811625	-4.017500	5.756468	-0.005238	-0.010075	-0.009488	-0.231689	0.513184	-0.250488	0.706420	-0.418309	-0.163689	-0.546987
07745		6.794264	-4.109207	5.811884	-0.001329	0.000553	-0.006893	-0.236084	0.518311	-0.244629	0.706475	-0.418243	-0.163701	-0.546963
07746		6.816796	-4.103463	5.835238	-0.004559	-0.001679	-0.005340	-0.241211	0.516846	-0.245850	0.706465	-0.418283	-0.163693	-0.546947
07747		6.773518	-4.052840	5.864404	-0.003066	-0.006663	-0.008603	-0.246826	0.515625	-0.244873	0.706394	-0.418325	-0.163758	-0.546987
07748		6.797062	-4.051496	5.787958	-0.005721	-0.002641	-0.010825	-0.225342	0.518555	-0.238525	0.706252	-0.418374	-0.163818	-0.547115
07749		6.784887	-4.053875	5.809232	-0.005098	0.001440	-0.006654	-0.239502	0.514648	-0.240479	0.706316	-0.418434	-0.163741	-0.547010
07750		6.822592	-4.053347	5.791936	-0.006252	0.003390	-0.000578	-0.237793	0.513672	-0.245117	0.706279	-0.418492	-0.163696	-0.547027
07751		6.816604	-4.043757	5.731203	-0.004075	0.008259	0.006087	-0.240723	0.516846	-0.242920	0.706318	-0.418479	-0.163615	-0.547010
07752		6.742782	-3.981033	5.875526	-0.006908	0.008763	0.016211	-0.237549	0.522949	-0.246338	0.706363	-0.418528	-0.163479	-0.546955
07753		6.823608	-4.082179	5.802028	-0.016788	-0.004364	0.021653	-0.231934	0.517578	-0.237061	0.706428	-0.418690	-0.163332	-0.546791
07754		6.827202	-4.061328	5.835395	-0.023190	-0.011028	0.024028	-0.241211	0.515381	-0.240479	0.706480	-0.418970	-0.163170	-0.546558
07755		6.756587	-4.095308	5.777071	-0.024446	-0.016276	0.027254	-0.238770	0.509277	-0.242188	0.706462	-0.419262	-0.163071	-0.546388
07756		6.808450	-4.125001	5.712167	-0.026844	-0.014536	0.022809	-0.237305	0.516357	-0.245605	0.706436	-0.419512	-0.162983	-0.546255
07757		6.731570	-4.094583	5.718989	-0.014872	0.001313	0.016110	-0.235107	0.515625	-0.241455	0.706478	-0.419602	-0.162857	-0.546168
07758		6.725023	-4.070099	5.808139	-0.009756	0.006357	0.014796	-0.238281	0.518799	-0.241943	0.706541	-0.419664	-0.162719	-0.546081
07759		6.764935	-4.115568	5.796848	-0.010447	-0.000582	0.016426	-0.236572	0.512695	-0.241455	0.706574	-0.419775	-0.162614	-0.545983
07760		6.799753	-4.158173	5.771550	-0.008624	-0.010049	0.010177	-0.233887	0.517090	-0.244141	0.706579	-0.419890	-0.162611	-0.545891
07761		6.817245	-4.191779	5.706968	-0.002014	-0.004926	0.000519	-0.234131	0.520020	-0.242920	0.706608	-0.419917	-0.162622	-0.545828
07762		6.784072	-4.066138	5.665684	0.010305	0.019461	-0.007718	-0.231445	0.510742	-0.247559	0.706672	-0.419771	-0.162564	-0.545875
07763		6.738019	-3.997828	5.849699	0.011152	0.027785	0.003639	-0.243408	0.520020	-0.242920	0.706833	-0.419526	-0.162452	-0.545889
07764		6.762743	-4.063822	5.859907	0.004513	0.013265	0.009690	-0.240967	0.520264	-0.246338	0.706861	-0.419483	-0.162375	-0.545908
07765		6.750862	-4.151852	5.880445	-0.011160	-0.019818	0.002868	-0.235840	0.516357	-0.244873	0.706794	-0.419644	-0.162443	-0.545852
07766		6.811082	-4.148078	5.704089	-0.014762	-0.024796	-0.012846	-0.233643	0.523193	-0.241943	0.706671	-0.419817	-0.162572	-0.545839
07767		6.818872	-4.057988	5.667775	-0.006054	0.000415	-0.013641	-0.242920	0.518555	-0.243896	0.706627	-0.419864	-0.162559	-0.545863
07768		6.750324	-4.028122	5.771660	0.005561	0.028728	-0.002161	-0.241455	0.521484	-0.242432	0.706638	-0.419711	-0.162443	-0.546001
07769		6.710689	-4.060358	5.916042	-0.003294	0.015881	0.006626	-0.234619	0.510254	-0.240479	0.706650	-0.419701	-0.162314	-0.546032
07770		6.727398	-4.090465	5.950668	-0.022569	-0.022894	0.006512	-0.242432	0.512939	-0.246338	0.706582	-0.419948	-0.162338	-0.545923
07771		6.830624	-4.159465	5.738963	-0.028621	-0.039118	0.002284	-0.230957	0.516113	-0.243652	0.706410	-0.420271	-0.162473	-0.545856
07772		6.832148	-4.082374	5.635641	-0.024885	-0.011778	0.001329	-0.230469	0.523438	-0.240723	0.706377	-0.420458	-0.162415	-0.545772
07773		6.761396	-4.096092	5.730512	-0.005961	0.020640	0.005153	-0.234619	0.519531	-0.249268	0.706471	-0.420437	-0.162207	-0.545730
07774		6.724569	-4.089323	5.880386	-0.013700	0.012375	0.008588	-0.235840	0.521484	-0.248779	0.706532	-0.420430	-0.162044	-0.545703
07775		6.730333	-4.094874	5.891721	-0.028484	-0.018200	0.007310	-0.230713	0.521240	-0.240234	0.706483	-0.420660	-0.161996	-0.545604
07776		6.804012	-4.123150	5.815341	-0.042154	-0.049981	0.007920	-0.232910	0.524170	-0.244873	0.706360	-0.421170	-0.162042	-0.545356
07777		6.871798	-4.225211	5.496837	-0.028480	-0.031955	0.002251	-0.237793	0.514893	-0.245361	0.706286	-0.421482	-0.162071	-0.545203
07778		6.799942	-4.163316	5.639612	-0.003082	0.025920	0.008059	-0.234375	0.514648	-0.239014	0.706356	-0.421360	-0.161900	-0.545257
07779		6.722642	-4.128586	5.831874	0.009385	0.035053	0.009200	-0.236572	0.519287	-0.241455	0.706494	-0.421167	-0.161709	-0.545284
07780		6.730415	-4.106397	5.883602	-0.002609	0.012693	0.003582	-0.232178	0.518555	-0.235840	0.706527	-0.421141	-0.161612	-0.545291
07781		6.789050	-4.122578	5.885318	-0.015967	-0.022843	0.007703	-0.228760	0.517578	-0.249023	0.706500	-0.421393	-0.161629	-0.545125
07782		6.871412	-4.166913	5.606236	-0.019364	-0.031517	0.002781	-0.231201	0.522949	-0.238525	0.706498	-0.421592	-0.161714	-0.544949
07783		6.821372	-4.127562	5.570591	0.001290	0.016814	0.004033	-0.231201	0.519043	-0.247314	0.706595	-0.421546	-0.161581	-0.544899
07784		6.723975	-4.065509	5.793782	0.008077	0.036323	0.017513	-0.228516	0.515137	-0.238525	0.706821	-0.421315	-0.161341	-0.544855
07785		6.714360	-4.096773	5.908474	-0.004147	0.019841	0.020642	-0.231445	0.521973	-0.240723	0.706985	-0.421284	-0.161124	-0.544730
07786		6.767918	-4.119916	5.878558	-0.019666	-0.016218	0.023858	-0.232666	0.513672	-0.239990	0.707049	-0.421522	-0.161033	-0.544489
07787		6.840569	-4.188480	5.730049	-0.022675	-0.033749	0.021712	-0.239990	0.523926	-0.235596	0.707041	-0.421835	-0.161061	-0.544249
07788		6.804359	-4.188585	5.596786	-0.008342	-0.005868	0.018795	-0.233154	0.519531	-0.246582	0.707050	-0.422001	-0.160991	-0.544129
07789		6.738751	-4.205171	5.705704	0.008752	0.012864	0.015869	-0.235107	0.520508	-0.236084	0.707213	-0.421877	-0.160907	-0.544040
07790		6.687803	-4.176554	5.801879	0.009710	0.017536	0.007668	-0.230469	0.517578	-0.239258	0.707300	-0.421796	-0.160817	-0.544015
07791		6.726643	-4.191446	5.814441	0.001214	-0.005588	-0.001048	-0.240234	0.522461	-0.246826	0.707330	-0.421822	-0.160856	-0.543945
07792		6.801372	-4.173982	5.750254	0.006018	-0.017056	-0.005930	-0.230957	0.521240	-0.239502	0.707284	-0.421839	-0.161023	-0.543941
07793		6.805245	-4.191996	5.678893	0.013331	-0.009337	-0.005629	-0.234619	0.510010	-0.241455	0.707334	-0.421814	-0.161147	-0.543859
07794		6.802254	-4.145938	5.674250	0.026470	0.010366	-0.008260	-0.229736	0.517822	-0.247559	0.707401	-0.421578	-0.161262	-0.543921
07795		6.778698	-4.143505	5.753823	0.029108	0.025157	-0.006017	-0.233643	0.515869	-0.248047	0.707579	-0.421240	-0.161273	-0.543949
07796		6.787443	-4.165780	5.781289	0.031600	0.021906	-0.001590	-0.235840	0.520264	-0.234375	0.707744	-0.420906	-0.161311	-0.543980
07797		6.757420	-4.116949	5.774903	0.029156	0.016437	-0.001687	-0.228760	0.518311	-0.250000	0.707840	-0.420726	-0.161346	-0.543985
07798		6.771118	-4.174915	5.759508	0.026613	0.013184	-0.002481	-0.235352	0.516846	-0.242432	0.708021	-0.420453	-0.161402	-0.543943
07799		6.753518	-4.131099	5.778947	0.030273	0.021748	-0.007753	-0.228027	0.520752	-0.243408	0.708120	-0.420173	-0.161449	-0.544018
07800		6.731559	-4.052138	5.839953	0.019618	0.016187	-0.005020	-0.228516	0.524902	-0.235840	0.708258	-0.419982	-0.161448	-0.543986
07801		6.735474	-4.073354	5.851771	0.005110	0.007217	-0.004925	-0.229736	0.514648	-0.247070	0.708315	-0.419982	-0.161415	-0.543920
07802		6.796346	-4.155465	5.759114	-0.000027	0.002908	-0.002887	-0.222168	0.517334	-0.243896	0.708358	-0.419932	-0.161417	-0.543903
07803		6.769346	-4.136853	5.726613	0.008717	0.006391	-0.003677	-0.227295	0.515137	-0.246826	0.708495	-0.419834	-0.161416	-0.543801
07804		6.733458	-4.139210	5.825419	0.008824	0.009964	-0.004426	-0.238037	0.524902	-0.243652	0.708591	-0.419699	-0.161416	-0.543780
07805		6.757382	-4.152305	5.780378	0.011506	0.008813	-0.006560	-0.238037	0.522461	-0.237793	0.708605	-0.419614	-0.161441	-0.543820
07806		6.706157	-4.165865	5.769723	0.012011	0.010044	-0.012477	-0.226807	0.515381	-0.241943	0.708576	-0.419545	-0.161480	-0.543899
07807		6.734485	-4.160065	5.808469	0.016452	0.007414	-0.020124	-0.228271	0.515381	-0.249756	0.708615	-0.419392	-0.161576	-0.543937
07808		6.746980	-4.173203	5.785514	0.020908	0.007671	-0.026324	-0.232910	0.514893	-0.249756	0.708649	-0.419155	-0.161723	-0.544033
07809		6.751364	-4.162820	5.820248	0.019938	0.011700	-0.035477	-0.235596	0.523682	-0.239746	0.708602	-0.418900	-0.161883	-0.544243
07810		6.753664	-4.088198	5.852136	0.011563	0.014558	-0.042739	-0.239990	0.523193	-0.239990	0.708474	-0.418766	-0.161992	-0.544480
07811		6.787529	-4.127114	5.798392	0.007152	0.016437	-0.051733	-0.230225	0.520264	-0.245361	0.708257	-0.418639	-0.162109	-0.544824
07812		6.760827	-4.118408	5.863500	0.006650	0.022424	-0.058827	-0.225830	0.514648	-0.250244	0.708105	-0.418425	-0.162204	-0.545158
07813		6.789353	-4.141203	5.848443	-0.002715	0.025684	-0.067275	-0.239502	0.517090	-0.242920	0.707925	-0.418190	-0.162272	-0.545553
07814		6.769423	-4.022396	5.882582	-0.011236	0.029303	-0.070874	-0.235596	0.525879	-0.246582	0.707581	-0.418055	-0.162305	-0.546093
07815		6.776771	-4.043611	5.795332	-0.011086	0.024179	-0.058608	-0.238281	0.517334	-0.249023	0.707354	-0.417952	-0.162308	-0.546464
07816		6.794224	-4.043064	5.756246	-0.007063	0.015969	-0.047332	-0.227783	0.521973	-0.239014	0.707145	-0.417845	-0.162357	-0.546802
07817		6.794376	-4.059174	5.754383	-0.001488	0.016495	-0.035739	-0.239746	0.525391	-0.250732	0.707092	-0.417780	-0.162353	-0.546920
07818		6.762663	-4.010595	5.811997	0.005672	0.008408	-0.025268	-0.235352	0.518311	-0.240967	0.707035	-0.417673	-0.162420	-0.547056
07819		6.809103	-4.093235	5.808630	0.005413	0.002744	-0.020865	-0.243408	0.511230	-0.239746	0.706992	-0.417638	-0.162500	-0.547115
07820		6.846655	-4.065471	5.716467	0.017212	0.011460	-0.021690	-0.237061	0.522461	-0.256348	0.706912	-0.417492	-0.162609	-0.547297
07821		6.753999	-3.942344	5.849430	0.020334	0.020257	-0.005160	-0.235840	0.508545	-0.237305	0.707039	-0.417231	-0.162602	-0.547334
07822		6.780054	-4.074759	5.830789	0.016565	0.011752	0.000134	-0.238037	0.514404	-0.239990	0.707107	-0.417120	-0.162617	-0.547326
07823		6.731628	-4.028240	5.830312	0.014489	0.006133	-0.001500	-0.230469	0.516113	-0.245850	0.707155	-0.417047	-0.162659	-0.547308
07824		6.761289	-4.051726	5.845868	0.010178	-0.000705	-0.003289	-0.233643	0.512695	-0.248047	0.707245	-0.416988	-0.162713	-0.547220
07825		6.798526	-4.069686	5.826033	0.005269	0.000640	-0.011435	-0.237793	0.509277	-0.242676	0.707252	-0.416923	-0.162778	-0.547242
07826		6.763250	-4.028432	5.850190	0.000528	0.003376	-0.006633	-0.236816	0.517334	-0.240479	0.707216	-0.416911	-0.162797	-0.547291
07827		6.755372	-4.066053	5.830573	-0.003342	0.003567	-0.008544	-0.236572	0.509033	-0.254150	0.707184	-0.416949	-0.162790	-0.547305
07828		6.834155	-4.126649	5.800168	-0.001149	0.008397	-0.019207	-0.237793	0.517822	-0.243896	0.707123	-0.416835	-0.162823	-0.547462
07829		6.779563	-4.096902	5.782987	0.001798	0.025175	-0.029351	-0.240479	0.516602	-0.250977	0.707044	-0.416698	-0.162787	-0.547678
07830		6.697981	-3.999385	5.937842	-0.006110	0.017692	-0.029508	-0.237793	0.515869	-0.246582	0.706916	-0.416601	-0.162772	-0.547922
07831		6.789344	-4.020198	5.860483	-0.015494	0.005782	-0.030011	-0.232666	0.519775	-0.246094	0.706751	-0.416633	-0.162777	-0.548109
07832		6.806508	-3.966738	5.797578	-0.008350	0.005660	-0.021708	-0.234619	0.516113	-0.242676	0.706699	-0.416642	-0.162771	-0.548171
07833		6.740174	-3.977591	5.825842	-0.002854	0.006966	-0.006502	-0.243652	0.520264	-0.246826	0.706709	-0.416645	-0.162737	-0.548166
07834		6.717179	-4.003910	5.798562	-0.004403	-0.004625	0.007605	-0.237549	0.517822	-0.243164	0.706708	-0.416726	-0.162730	-0.548108
07835		6.755476	-4.072709	5.751072	0.004424	-0.018443	0.011170	-0.232178	0.512695	-0.240723	0.706771	-0.416830	-0.162821	-0.547920
07836		6.796483	-4.050301	5.914927	0.003152	-0.021519	0.006446	-0.234131	0.506836	-0.244385	0.706828	-0.416946	-0.162936	-0.547725
07837		6.796503	-4.040149	5.785275	0.003018	-0.009916	0.010794	-0.242676	0.512695	-0.245605	0.706895	-0.416981	-0.162981	-0.547598
07838		6.811353	-4.053298	5.792065	0.011945	-0.006467	0.014311	-0.238525	0.507324	-0.247070	0.706964	-0.416970	-0.163044	-0.547499
07839		6.764188	-4.044796	5.815096	0.014162	-0.006678	0.017361	-0.243896	0.516357	-0.243652	0.707076	-0.416925	-0.163109	-0.547369
07840		6.738042	-4.051498	5.858117	0.010243	-0.012237	0.018360	-0.233398	0.514404	-0.242676	0.707143	-0.416979	-0.163179	-0.547221
07841		6.781995	-4.054165	5.853296	0.007792	-0.016255	0.016823	-0.233398	0.517334	-0.252686	0.707263	-0.417052	-0.163250	-0.546988
07842		6.786440	-4.042913	5.835921	0.000308	-0.018139	0.019439	-0.239014	0.519287	-0.242676	0.707393	-0.417130	-0.163294	-0.546748
07843		6.785829	-4.065516	5.830524	0.001265	-0.018543	0.020644	-0.239014	0.513672	-0.242920	0.707471	-0.417274	-0.163339	-0.546523
07844		6.807843	-4.086671	5.750233	0.005413	-0.010210	0.012365	-0.235840	0.519287	-0.244873	0.707523	-0.417330	-0.163392	-0.546397
07845		6.773490	-4.062837	5.803099	0.008161	0.006672	0.012362	-0.240967	0.514893	-0.250000	0.707649	-0.417291	-0.163345	-0.546278
07846		6.755201	-4.078966	5.841835	0.007412	0.008422	0.006774	-0.230957	0.507324	-0.244873	0.707708	-0.417207	-0.163326	-0.546271
07847		6.777027	-4.065722	5.818800	0.004293	0.005408	0.004680	-0.236328	0.512207	-0.244873	0.707793	-0.417154	-0.163307	-0.546207
07848		6.783212	-4.047971	5.836168	0.003802	0.004896	0.005527	-0.232422	0.520752	-0.241211	0.707847	-0.417125	-0.163288	-0.546165
07849		6.759830	-4.005557	5.838679	0.002294	-0.000957	0.008085	-0.238525	0.512939	-0.239502	0.707939	-0.417173	-0.163261	-0.546018
07850		6.737280	-4.000028	5.866007	-0.007311	-0.000481	0.015564	-0.231934	0.505615	-0.248047	0.707964	-0.417283	-0.163185	-0.545923
07851		6.776115	-4.098317	5.796326	-0.009309	-0.008302	0.013196	-0.240479	0.507324	-0.246094	0.708014	-0.417363	-0.163166	-0.545803
07852		6.779770	-4.075259	5.830771	-0.007902	-0.001678	0.014274	-0.239502	0.520752	-0.248535	0.708016	-0.417431	-0.163119	-0.545763
07853		6.751416	-4.067808	5.844366	-0.007429	-0.004051	0.010549	-0.230469	0.514648	-0.248291	0.708038	-0.417517	-0.163080	-0.545680
07854		6.738184	-4.085061	5.813672	-0.010609	-0.003431	0.006298	-0.233154	0.519287	-0.241455	0.708087	-0.417590	-0.163035	-0.545574
07855		6.736538	-4.058798	5.834747	-0.014494	-0.006122	0.001509	-0.230957	0.512695	-0.249023	0.708069	-0.417744	-0.162991	-0.545493
07856		6.743091	-4.063118	5.845950	-0.017051	-0.009367	0.003606	-0.242920	0.518555	-0.244385	0.708068	-0.417869	-0.162966	-0.545405
07857		6.802331	-4.091710	5.795738	-0.020410	-0.007227	-0.002044	-0.229004	0.516113	-0.252686	0.707943	-0.418048	-0.162937	-0.545440
07858		6.778266	-4.090560	5.789513	-0.012295	-0.001292	-0.009160	-0.233643	0.516357	-0.240234	0.707943	-0.418073	-0.162928	-0.545423
07859		6.766122	-4.093759	5.810075	-0.014242	-0.001910	-0.008665	-0.240723	0.524170	-0.245605	0.707874	-0.418189	-0.162902	-0.545431
07860		6.801828	-4.085833	5.810857	-0.012240	-0.004925	-0.007002	-0.233398	0.522217	-0.246826	0.707791	-0.418303	-0.162903	-0.545451
07861		6.768969	-4.074007	5.810966	-0.012595	-0.001888	-0.009802	-0.233154	0.519043	-0.248535	0.707752	-0.418382	-0.162888	-0.545446
07862		6.741422	-4.072546	5.871905	-0.014680	-0.007505	-0.011434	-0.239502	0.518066	-0.250732	0.707690	-0.418479	-0.162909	-0.545446
07863		6.796574	-4.088677	5.760765	-0.020581	-0.007176	-0.017878	-0.236816	0.512207	-0.248535	0.707535	-0.418592	-0.162937	-0.545552
07864		6.799948	-4.115956	5.736861	-0.013986	0.003744	-0.021722	-0.233887	0.514160	-0.245361	0.707405	-0.418606	-0.162948	-0.545706
07865		6.781033	-4.066605	5.771525	-0.003947	0.010323	-0.020661	-0.238770	0.511475	-0.242188	0.707346	-0.418551	-0.162951	-0.545825
07866		6.767267	-4.087978	5.790935	-0.002461	0.014746	-0.020316	-0.237061	0.514648	-0.244873	0.707250	-0.418484	-0.162940	-0.546002
07867		6.781969	-4.098046	5.800035	0.000690	0.020628	-0.024002	-0.231445	0.511719	-0.245361	0.707184	-0.418357	-0.162918	-0.546192
07868		6.763740	-4.075463	5.814278	-0.001934	0.021013	-0.024055	-0.239258	0.511719	-0.247070	0.707147	-0.418230	-0.162879	-0.546349
07869		6.775674	-4.077660	5.842544	-0.002351	0.016855	-0.029717	-0.236084	0.517578	-0.247314	0.707023	-0.418116	-0.162895	-0.546592
07870		6.770309	-4.072079	5.830848	-0.003845	0.012432	-0.030055	-0.230469	0.512207	-0.246826	0.706923	-0.418039	-0.162918	-0.546773
07871		6.751142	-4.033954	5.815057	-0.004734	0.012086	-0.026220	-0.242920	0.515381	-0.247803	0.706871	-0.417959	-0.162926	-0.546899
07872		6.805462	-4.091015	5.780407	-0.002124	0.011705	-0.026155	-0.236084	0.516846	-0.243896	0.706741	-0.417881	-0.162959	-0.547117
07873		6.804689	-4.040377	5.807774	-0.002215	0.015350	-0.019639	-0.241943	0.504883	-0.250244	0.706693	-0.417814	-0.162931	-0.547239
07874		6.822791	-4.037967	5.801547	0.001606	0.024559	-0.014114	-0.240234	0.520996	-0.248779	0.706644	-0.417635	-0.162882	-0.547454
07875		6.829554	-4.033612	5.850780	0.005356	0.038843	-0.013617	-0.245361	0.506592	-0.246582	0.706670	-0.417412	-0.162734	-0.547633
07876		6.800967	-4.029991	5.851569	0.007221	0.050313	-0.004709	-0.241699	0.507324	-0.245117	0.706687	-0.417124	-0.162523	-0.547893
07877		6.755493	-4.103368	5.813393	0.009490	0.056562	-0.003827	-0.231934	0.509766	-0.245605	0.706751	-0.416803	-0.162275	-0.548129
07878		6.737294	-4.116559	5.791483	0.019752	0.065212	-0.010712	-0.229980	0.520020	-0.244873	0.706909	-0.416367	-0.162033	-0.548328
07879		6.684557	-4.056116	5.847893	0.015743	0.051755	-0.017624	-0.231445	0.505859	-0.248291	0.707029	-0.416034	-0.161851	-0.548479
07880		6.694709	-4.037394	5.882887	0.011501	0.025431	-0.017279	-0.235596	0.510010	-0.246338	0.707075	-0.415801	-0.161839	-0.548600
07881		6.748694	-4.005650	5.882553	0.004498	0.006036	-0.009047	-0.238525	0.520752	-0.249023	0.707076	-0.415735	-0.161871	-0.548640
07882		6.751999	-4.011689	5.864220	0.005166	0.001432	-0.007772	-0.229492	0.510254	-0.236328	0.707082	-0.415700	-0.161918	-0.548645
07883		6.729473	-4.024066	5.888499	0.003597	-0.002231	-0.004499	-0.236572	0.511230	-0.245361	0.707109	-0.415732	-0.161952	-0.548576
07884		6.764268	-4.047809	5.835748	-0.000391	-0.005600	-0.002784	-0.246582	0.519287	-0.246582	0.707098	-0.415766	-0.162005	-0.548549
07885		6.746872	-4.027751	5.846956	0.002794	-0.006216	0.001466	-0.232422	0.515625	-0.247803	0.707055	-0.415812	-0.162057	-0.548554
07886		6.768287	-4.042549	5.866769	0.001725	-0.007929	0.001012	-0.242188	0.507324	-0.248535	0.707112	-0.415841	-0.162114	-0.548441
07887		6.768294	-4.075311	5.811373	0.001828	-0.005811	0.000266	-0.234131	0.516357	-0.250244	0.707083	-0.415847	-0.162187	-0.548453
07888		6.751151	-4.022260	5.877845	0.003883	0.001251	-0.000969	-0.235596	0.509521	-0.248779	0.707146	-0.415809	-0.162212	-0.548392
07889		6.767414	-4.026326	5.837328	-0.000383	-0.001281	-0.002786	-0.238037	0.514648	-0.251465	0.707157	-0.415800	-0.162250	-0.548373
07890		6.769601	-4.041773	5.865789	-0.000696	-0.004750	0.002336	-0.238037	0.510254	-0.247314	0.707183	-0.415816	-0.162287	-0.548318
07891		6.765838	-4.067483	5.829952	-0.000292	0.002285	0.002234	-0.238770	0.512939	-0.247803	0.707199	-0.415810	-0.162284	-0.548302
07892		6.750549	-4.055093	5.823104	0.002626	0.003941	0.000064	-0.230713	0.509766	-0.250000	0.707218	-0.415780	-0.162289	-0.548300
07893		6.729659	-4.007446	5.858128	0.002902	0.005988	0.006479	-0.236572	0.519287	-0.249023	0.707336	-0.415720	-0.162268	-0.548199
07894		6.743599	-4.020506	5.866073	0.002786	0.002435	0.010112	-0.235107	0.516846	-0.249023	0.707428	-0.415716	-0.162237	-0.548093
07895		6.759751	-4.061570	5.851403	0.001634	0.004359	0.007517	-0.243896	0.509521	-0.245850	0.707513	-0.415699	-0.162202	-0.548005
07896		6.758755	-4.062086	5.852194	0.004354	0.006098	0.006839	-0.231201	0.514404	-0.239502	0.707515	-0.415669	-0.162182	-0.548032
07897		6.747717	-4.016424	5.833868	0.007562	0.008352	0.005318	-0.236084	0.514404	-0.248779	0.707610	-0.415637	-0.162137	-0.547946
07898		6.747037	-4.052817	5.860751	0.003366	0.010838	0.014290	-0.233154	0.515625	-0.247559	0.707726	-0.415588	-0.162053	-0.547858
07899		6.761023	-4.045766	5.872924	0.006088	0.009692	0.010731	-0.231934	0.511475	-0.249268	0.707853	-0.415530	-0.161993	-0.547756
07900		6.741244	-4.026903	5.886031	0.005857	0.006908	0.017996	-0.234375	0.510742	-0.248535	0.708016	-0.415477	-0.161936	-0.547603
07901		6.741714	-4.056297	5.864468	0.003718	0.003483	0.017089	-0.233398	0.516602	-0.245605	0.708138	-0.415456	-0.161892	-0.547474
07902		6.760169	-4.036811	5.860180	0.007004	0.002100	0.017714	-0.231934	0.512939	-0.250244	0.708277	-0.415451	-0.161851	-0.547310
07903		6.752970	-4.048293	5.796575	0.005359	0.006395	0.018844	-0.232178	0.513672	-0.255127	0.708441	-0.415404	-0.161792	-0.547152
07904		6.710721	-4.079017	5.859245	0.003750	0.013558	0.014200	-0.237061	0.510498	-0.248779	0.708600	-0.415305	-0.161709	-0.547045
07905		6.722745	-4.056703	5.842674	0.004426	0.009668	0.011871	-0.229248	0.514648	-0.244385	0.708678	-0.415249	-0.161652	-0.547003
07906		6.751002	-4.081999	5.858705	0.010150	0.006533	0.008287	-0.235596	0.516113	-0.248291	0.708810	-0.415192	-0.161631	-0.546881
07907		6.724737	-4.079877	5.855614	0.009977	0.012371	0.006889	-0.236084	0.512939	-0.242676	0.708906	-0.415098	-0.161589	-0.546841
07908		6.699174	-4.057076	5.856398	0.011734	0.014512	0.005012	-0.228516	0.517822	-0.245850	0.708973	-0.415005	-0.161540	-0.546839
07909		6.672422	-4.041937	5.905046	0.010087	0.011603	0.003260	-0.244629	0.511719	-0.252197	0.709099	-0.414919	-0.161503	-0.546751
07910		6.733035	-4.062883	5.891497	0.006499	0.008070	0.001989	-0.236816	0.514404	-0.250488	0.709084	-0.414843	-0.161507	-0.546828
07911		6.719688	-4.077841	5.862824	0.005729	0.004070	-0.000701	-0.231689	0.516357	-0.249756	0.709109	-0.414792	-0.161528	-0.546827
07912		6.726630	-4.059089	5.879837	0.005726	-0.003138	-0.003581	-0.235840	0.516357	-0.246338	0.709152	-0.414772	-0.161595	-0.546767
07913		6.698949	-4.036496	5.944952	0.000757	-0.007526	-0.000184	-0.241699	0.519775	-0.249756	0.709144	-0.414828	-0.161645	-0.546721
07914		6.754693	-4.108774	5.856959	-0.005917	-0.016967	-0.006453	-0.234863	0.517578	-0.252197	0.709041	-0.414955	-0.161747	-0.546727
07915		6.777093	-4.099740	5.798747	-0.001038	-0.013262	-0.011988	-0.242432	0.508789	-0.251221	0.708995	-0.415003	-0.161877	-0.546712
07916		6.715633	-4.015818	5.890070	0.001038	-0.004771	-0.016110	-0.238037	0.512451	-0.254883	0.708879	-0.414989	-0.162000	-0.546837
07917		6.749091	-4.067003	5.881583	-0.003336	-0.006530	-0.014302	-0.228027	0.518555	-0.254639	0.708806	-0.414996	-0.162109	-0.546894
07918		6.750070	-4.098547	5.826069	-0.003032	-0.004498	-0.016539	-0.228760	0.512695	-0.253906	0.708811	-0.414992	-0.162195	-0.546866
07919		6.702314	-4.003990	5.848611	0.000440	-0.000193	-0.011639	-0.236816	0.510742	-0.249023	0.708842	-0.414946	-0.162267	-0.546839
07920		6.728633	-4.041009	5.878703	-0.003570	-0.002103	-0.004156	-0.233643	0.514404	-0.248535	0.708808	-0.414973	-0.162298	-0.546853
07921		6.725307	-4.066500	5.842611	-0.006568	-0.000120	-0.004133	-0.234863	0.510742	-0.254395	0.708796	-0.415015	-0.162294	-0.546838
07922		6.753445	-4.063076	5.879299	-0.004117	-0.000436	-0.011227	-0.226318	0.505371	-0.255859	0.708765	-0.414998	-0.162352	-0.546873
07923		6.761299	-4.056738	5.844436	-0.000636	0.000983	-0.009209	-0.227539	0.511475	-0.249268	0.708825	-0.414929	-0.162425	-0.546825
07924		6.735848	-4.074086	5.836620	0.000350	0.006331	-0.010898	-0.234375	0.516846	-0.246582	0.708864	-0.414875	-0.162447	-0.546810
07925		6.703404	-3.995458	5.947313	-0.003941	0.000933	-0.006947	-0.232666	0.520508	-0.251953	0.708842	-0.414908	-0.162449	-0.546813
07926		6.771170	-4.052350	5.889700	-0.013164	-0.005994	-0.005373	-0.229736	0.508789	-0.245605	0.708825	-0.415008	-0.162454	-0.546758
07927		6.754580	-4.045772	5.848368	-0.013085	-0.009629	-0.003228	-0.235840	0.522705	-0.247803	0.708795	-0.415131	-0.162476	-0.546696
07928		6.727361	-4.037487	5.860962	-0.012899	-0.003942	0.001047	-0.239502	0.519287	-0.249756	0.708777	-0.415255	-0.162435	-0.546638
07929		6.762531	-4.099186	5.832913	-0.015508	0.000756	0.000974	-0.237793	0.511230	-0.250977	0.708727	-0.415360	-0.162365	-0.546644
07930		6.722876	-4.073312	5.870931	-0.014796	-0.003148	-0.010009	-0.236084	0.516113	-0.251709	0.708626	-0.415441	-0.162375	-0.546710
07931		6.725494	-4.065661	5.821290	-0.019442	-0.006961	-0.014614	-0.230469	0.510254	-0.253906	0.708510	-0.415563	-0.162398	-0.546761
07932		6.701135	-4.071879	5.862216	-0.021766	-0.006706	-0.017635	-0.238037	0.517334	-0.249023	0.708416	-0.415664	-0.162436	-0.546795
07933		6.742233	-4.106605	5.868301	-0.022128	-0.013039	-0.021145	-0.236572	0.513672	-0.244629	0.708233	-0.415836	-0.162497	-0.546883
07934		6.744350	-4.082384	5.788990	-0.018909	-0.007908	-0.028425	-0.230225	0.517334	-0.245117	0.708029	-0.415967	-0.162561	-0.547029
07935		6.747249	-4.047944	5.842189	-0.015964	0.000939	-0.030593	-0.240234	0.505859	-0.248047	0.707899	-0.416033	-0.162592	-0.547138
07936		6.751785	-4.041178	5.873667	-0.013227	0.002670	-0.026949	-0.238525	0.516846	-0.249756	0.707707	-0.416056	-0.162636	-0.547355
07937		6.738020	-4.035631	5.912358	-0.022484	-0.015782	-0.025366	-0.233398	0.516846	-0.247559	0.707507	-0.416229	-0.162730	-0.547454
07938		6.787236	-4.109479	5.776470	-0.026262	-0.019245	-0.023699	-0.234863	0.514893	-0.243164	0.707334	-0.416446	-0.162817	-0.547487
07939		6.756634	-4.007903	5.807665	-0.014975	-0.006685	-0.025066	-0.240479	0.519043	-0.245361	0.707184	-0.416553	-0.162878	-0.547580
07940		6.781514	-4.049014	5.804554	-0.009324	0.003911	-0.023588	-0.234863	0.517090	-0.239014	0.707047	-0.416584	-0.162897	-0.547728
07941		6.771613	-4.065959	5.854660	-0.010192	0.003551	-0.022649	-0.234375	0.512939	-0.244873	0.706933	-0.416642	-0.162896	-0.547832
07942		6.748082	-4.050580	5.900156	-0.015437	-0.007220	-0.021345	-0.245117	0.516846	-0.244629	0.706809	-0.416746	-0.162954	-0.547896
07943		6.792944	-4.103738	5.836254	-0.016111	-0.009096	-0.026214	-0.239258	0.510010	-0.241455	0.706582	-0.416875	-0.163029	-0.548068
07944		6.748458	-4.126097	5.801958	-0.013484	-0.010910	-0.030467	-0.250000	0.509033	-0.237549	0.706369	-0.416985	-0.163145	-0.548225
07945		6.817751	-4.131052	5.768901	-0.010366	-0.009323	-0.041317	-0.239746	0.513916	-0.243164	0.706025	-0.417082	-0.163293	-0.548549
07946		6.839378	-4.081518	5.687564	0.003711	0.017204	-0.048407	-0.244385	0.507812	-0.254395	0.705843	-0.416936	-0.163383	-0.548868
07947		6.720691	-3.943498	5.867127	0.009736	0.030519	-0.042699	-0.242676	0.517334	-0.243408	0.705729	-0.416642	-0.163451	-0.549218
07948		6.727209	-3.997415	5.905188	0.004410	0.016173	-0.032020	-0.246826	0.514893	-0.242432	0.705608	-0.416530	-0.163484	-0.549449
07949		6.774005	-4.043266	5.876273	-0.004886	-0.002990	-0.028271	-0.238037	0.509277	-0.244629	0.705410	-0.416569	-0.163576	-0.549645
07950		6.818018	-4.058960	5.787833	-0.008075	-0.011020	-0.026758	-0.248291	0.510986	-0.245850	0.705269	-0.416634	-0.163715	-0.549735
07951		6.822912	-4.019463	5.695409	0.005187	0.010090	-0.025019	-0.239258	0.518311	-0.245850	0.705144	-0.416535	-0.163786	-0.549950
07952		6.792625	-4.015059	5.761276	0.017065	0.041836	-0.017174	-0.238037	0.517578	-0.241211	0.705210	-0.416238	-0.163678	-0.550122
07953		6.787658	-4.007418	5.866756	0.016010	0.048737	-0.016180	-0.243408	0.518066	-0.254150	0.705276	-0.415937	-0.163505	-0.550317
07954		6.708914	-3.962543	6.011270	0.004698	0.026817	-0.016967	-0.240234	0.505859	-0.241211	0.705278	-0.415750	-0.163454	-0.550470
07955		6.750080	-4.076380	5.939541	-0.009828	-0.014616	-0.013380	-0.238525	0.508301	-0.250000	0.705157	-0.415876	-0.163554	-0.550500
07956		6.788178	-4.067628	5.759585	-0.013950	-0.023691	-0.021701	-0.242188	0.513672	-0.253174	0.705021	-0.416018	-0.163740	-0.550512
07957		6.829610	-4.055974	5.693690	0.003862	0.006321	-0.021799	-0.243408	0.508057	-0.252441	0.704978	-0.415916	-0.163831	-0.550617
07958		6.750429	-3.970997	5.909267	0.010529	0.021531	-0.019854	-0.244385	0.514160	-0.251221	0.704974	-0.415702	-0.163867	-0.550773
07959		6.761332	-3.993520	5.934260	0.002109	0.008478	-0.018484	-0.244629	0.515625	-0.241943	0.704920	-0.415620	-0.163916	-0.550890
07960		6.782026	-4.002860	5.874674	-0.003188	-0.005862	-0.020766	-0.234375	0.515869	-0.248047	0.704780	-0.415678	-0.163997	-0.551001
07961		6.811328	-3.986439	5.782715	-0.007356	-0.006300	-0.020448	-0.243408	0.517578	-0.250000	0.704727	-0.415724	-0.164078	-0.551010
07962		6.829495	-3.980504	5.694800	0.003540	0.018662	-0.016678	-0.244385	0.516846	-0.242188	0.704708	-0.415600	-0.164055	-0.551135
07963		6.714781	-3.973972	5.879998	0.009694	0.039110	-0.012447	-0.237549	0.510254	-0.253174	0.704720	-0.415388	-0.163900	-0.551325
07964		6.736943	-3.961385	5.939871	0.000429	0.019939	-0.013027	-0.244629	0.510254	-0.245361	0.704758	-0.415248	-0.163869	-0.551391
07965		6.763245	-3.998110	5.970443	-0.010789	-0.007045	-0.010260	-0.244629	0.513916	-0.246826	0.704652	-0.415345	-0.163909	-0.551442
07966		6.835273	-4.057650	5.811948	-0.016067	-0.018517	-0.015420	-0.243164	0.503174	-0.247559	0.704497	-0.415519	-0.164006	-0.551481
07967		6.840271	-4.019930	5.718254	-0.002904	0.004794	-0.018669	-0.243164	0.512939	-0.249756	0.704416	-0.415476	-0.164069	-0.551598
07968		6.772291	-3.965799	5.858163	0.009569	0.041310	-0.008811	-0.237061	0.513916	-0.242920	0.704486	-0.415215	-0.163923	-0.551747
07969		6.805217	-3.970375	5.894976	0.008994	0.045850	-0.008660	-0.231934	0.513184	-0.243164	0.704577	-0.414966	-0.163719	-0.551880
07970		6.739453	-3.928819	5.919024	0.000496	0.044307	0.002779	-0.234375	0.516602	-0.248779	0.704724	-0.414783	-0.163447	-0.551910
07971		6.752793	-4.075380	5.790754	-0.007577	0.024654	-0.002420	-0.236572	0.514893	-0.251709	0.704795	-0.414715	-0.163282	-0.551918
07972		6.774111	-4.017107	5.695929	0.004107	0.016982	-0.006739	-0.244629	0.512451	-0.254150	0.704870	-0.414594	-0.163244	-0.551925
07973		6.749905	-3.923792	5.839696	0.013327	0.030410	0.003926	-0.246582	0.508545	-0.243164	0.704992	-0.414365	-0.163146	-0.551970
07974		6.732915	-3.991326	5.934526	0.009099	0.021371	0.012857	-0.247803	0.513672	-0.242432	0.705070	-0.414260	-0.163025	-0.551985
07975		6.694059	-3.921086	6.013911	-0.004527	-0.004618	0.020489	-0.236328	0.514648	-0.247314	0.705092	-0.414379	-0.162953	-0.551890
07976		6.736054	-3.930917	5.974854	-0.022224	-0.041858	0.029115	-0.235107	0.507080	-0.255615	0.705139	-0.414753	-0.163000	-0.551534
07977		6.916573	-4.098093	5.713487	-0.017371	-0.042429	0.032238	-0.235596	0.516113	-0.250977	0.705253	-0.415051	-0.163110	-0.551131
07978		6.857992	-4.056767	5.760820	-0.002895	-0.007458	0.027996	-0.240723	0.505859	-0.250244	0.705430	-0.415135	-0.163060	-0.550857
07979		6.722108	-3.976911	5.852201	0.009829	0.010262	0.040683	-0.245361	0.521240	-0.249512	0.705684	-0.415068	-0.162942	-0.550616
07980		6.668650	-3.977127	6.021996	-0.001439	-0.010959	0.046316	-0.241455	0.515137	-0.246338	0.705868	-0.415211	-0.162842	-0.550302
07981		6.791128	-4.129872	5.871648	-0.012635	-0.040815	0.038992	-0.234375	0.513184	-0.242432	0.705949	-0.415544	-0.162894	-0.549931
07982		6.858067	-4.118479	5.759201	-0.008763	-0.034499	0.025837	-0.229980	0.518066	-0.254395	0.706026	-0.415813	-0.162966	-0.549608
07983		6.760313	-4.073437	5.744570	0.011728	-0.003447	0.022966	-0.235840	0.513184	-0.245850	0.706278	-0.415768	-0.162987	-0.549312
07984		6.742411	-4.037709	5.841194	0.016210	0.007637	0.020435	-0.236572	0.511963	-0.250732	0.706474	-0.415675	-0.162956	-0.549139
07985		6.717063	-4.040313	5.917744	0.010479	-0.000775	0.022564	-0.231689	0.518555	-0.249023	0.706656	-0.415637	-0.162958	-0.548934
07986		6.759139	-4.095914	5.855945	0.003615	-0.008707	0.016348	-0.240723	0.517090	-0.249268	0.706808	-0.415681	-0.162979	-0.548698
07987		6.771253	-4.025626	5.862931	0.004772	-0.014940	0.017494	-0.234619	0.520508	-0.236816	0.706895	-0.415754	-0.163041	-0.548512
07988		6.784110	-4.068715	5.735113	0.011868	0.002964	0.019353	-0.236084	0.512939	-0.245605	0.707045	-0.415760	-0.162983	-0.548332
07989		6.708623	-4.034449	5.857916	0.019181	0.022219	0.016846	-0.244385	0.510498	-0.250244	0.707243	-0.415581	-0.162892	-0.548238
07990		6.707455	-4.050153	5.890032	0.013171	0.017524	0.015455	-0.236084	0.519287	-0.246094	0.707360	-0.415442	-0.162823	-0.548214
07991		6.759196	-4.041190	5.886074	0.006278	0.003853	0.010676	-0.235596	0.512695	-0.244385	0.707463	-0.415427	-0.162790	-0.548102
07992		6.725986	-3.989804	5.894203	-0.000149	-0.003547	0.013696	-0.239014	0.514648	-0.254639	0.707538	-0.415483	-0.162768	-0.547969
07993		6.746358	-4.051558	5.808275	-0.002867	0.000455	0.017249	-0.233887	0.512939	-0.245850	0.707636	-0.415504	-0.162724	-0.547840
07994		6.719591	-4.039139	5.855079	0.002111	0.006301	0.012430	-0.230469	0.511963	-0.248779	0.707741	-0.415492	-0.162664	-0.547731
07995		6.691152	-4.099803	5.840353	-0.001188	0.003359	0.010366	-0.234375	0.519043	-0.248291	0.707852	-0.415494	-0.162623	-0.547599
07996		6.751430	-4.052944	5.855016	-0.001069	0.004036	0.003865	-0.231445	0.512207	-0.253418	0.707912	-0.415501	-0.162587	-0.547526
07997		6.712765	-4.054810	5.872063	-0.000871	0.005392	0.003818	-0.238525	0.516113	-0.248535	0.708003	-0.415464	-0.162570	-0.547442
07998		6.750029	-4.054042	5.855871	-0.000495	0.002357	0.005159	-0.222412	0.513916	-0.250488	0.708036	-0.415475	-0.162548	-0.547397
07999		6.745355	-4.067507	5.871904	0.002229	0.004101	0.004489	-0.233887	0.521729	-0.248047	0.708194	-0.415435	-0.162541	-0.547226
08000		6.775106	-4.104530	5.836063	0.002836	0.008169	0.000029	-0.238037	0.510498	-0.247070	0.708261	-0.415400	-0.162509	-0.547175
08001		6.723436	-4.031708	5.857453	0.010422	0.015079	0.001041	-0.234131	0.510010	-0.250732	0.708319	-0.415280	-0.162480	-0.547200
08002		6.663108	-3.972999	5.960993	-0.000010	0.002874	0.005759	-0.233887	0.516357	-0.248291	0.708383	-0.415265	-0.162469	-0.547131
08003		6.757763	-4.092355	5.831408	-0.004892	-0.008039	0.005513	-0.227539	0.512451	-0.244629	0.708417	-0.415348	-0.162486	-0.547019
08004		6.724734	-4.061313	5.834992	-0.000907	-0.003229	0.008131	-0.240967	0.507812	-0.241943	0.708511	-0.415392	-0.162482	-0.546865
08005		6.753886	-4.107026	5.845659	0.000751	-0.006070	0.002684	-0.235596	0.517334	-0.244385	0.708472	-0.415447	-0.162516	-0.546864
08006		6.727728	-4.089519	5.811536	0.000206	-0.001517	-0.005807	-0.230957	0.514160	-0.249512	0.708457	-0.415474	-0.162545	-0.546854
08007		6.719384	-4.046087	5.872136	0.003020	-0.001969	-0.005783	-0.234375	0.513428	-0.248535	0.708495	-0.415456	-0.162609	-0.546799
08008		6.737578	-4.085196	5.856712	-0.000463	-0.003391	-0.010678	-0.235107	0.516113	-0.257080	0.708470	-0.415464	-0.162680	-0.546805
08009		6.796937	-4.073657	5.783819	0.002081	-0.000131	-0.014179	-0.235352	0.512939	-0.246826	0.708466	-0.415408	-0.162774	-0.546824
08010		6.686069	-3.982068	5.899342	0.006249	0.006038	-0.007290	-0.233887	0.514893	-0.251953	0.708480	-0.415346	-0.162804	-0.546844
08011		6.736650	-4.053594	5.880131	0.002312	-0.003841	0.002302	-0.235840	0.511475	-0.251465	0.708539	-0.415347	-0.162852	-0.546753
08012		6.737221	-4.086039	5.824700	0.003380	-0.010752	-0.003003	-0.234131	0.516113	-0.256348	0.708548	-0.415364	-0.162967	-0.546694
08013		6.783751	-4.134162	5.794960	0.010494	-0.004359	-0.006911	-0.228760	0.510010	-0.251465	0.708606	-0.415291	-0.163098	-0.546636
08014		6.767804	-4.071170	5.814550	0.016747	0.004550	-0.012762	-0.238037	0.506836	-0.257080	0.708685	-0.415138	-0.163222	-0.546612
08015		6.722508	-3.986111	5.900667	0.019463	0.009169	-0.007675	-0.235840	0.509033	-0.251221	0.708747	-0.414938	-0.163326	-0.546652
08016		6.725001	-3.991275	5.883984	0.017699	0.011336	-0.000046	-0.227783	0.519043	-0.250732	0.708844	-0.414774	-0.163366	-0.546640
08017		6.758931	-4.070116	5.855724	0.012931	0.006846	0.000410	-0.230957	0.513672	-0.249268	0.708993	-0.414670	-0.163400	-0.546515
08018		6.759889	-4.028153	5.864061	0.008376	0.006584	-0.002062	-0.237305	0.516113	-0.251221	0.709078	-0.414591	-0.163424	-0.546457
08019		6.767051	-4.077873	5.852473	0.006044	0.004678	-0.002926	-0.232422	0.517578	-0.243652	0.709111	-0.414537	-0.163450	-0.546448
08020		6.712083	-4.017636	5.888687	0.002673	0.009675	-0.007127	-0.237305	0.517822	-0.250244	0.709137	-0.414502	-0.163427	-0.546447
08021		6.726728	-4.029379	5.896778	-0.005792	0.005286	-0.005762	-0.231934	0.513184	-0.252197	0.709117	-0.414518	-0.163400	-0.546469
08022		6.747380	-4.076915	5.862681	-0.008697	0.005056	-0.007923	-0.233154	0.515137	-0.250732	0.709112	-0.414530	-0.163382	-0.546472
08023		6.732702	-4.064515	5.855074	-0.011118	0.002468	-0.010922	-0.239258	0.519775	-0.249512	0.709073	-0.414573	-0.163372	-0.546492
08024		6.711046	-4.057612	5.881840	-0.012084	0.001431	-0.012121	-0.232666	0.512695	-0.253906	0.708987	-0.414642	-0.163358	-0.546557
08025		6.720461	-4.010790	5.853631	-0.010700	0.005171	-0.015334	-0.230469	0.514893	-0.247314	0.708941	-0.414647	-0.163360	-0.546612
08026		6.724441	-4.073909	5.856444	-0.007902	0.004725	-0.010991	-0.235352	0.513672	-0.251221	0.708928	-0.414670	-0.163346	-0.546616
08027		6.762722	-4.072136	5.839807	-0.009263	0.003851	-0.010655	-0.232910	0.514893	-0.253662	0.708882	-0.414693	-0.163338	-0.546659
08028		6.721395	-4.009068	5.853739	-0.003988	0.008853	-0.014824	-0.239258	0.514648	-0.255371	0.708870	-0.414647	-0.163345	-0.546708
08029		6.727074	-4.010554	5.867790	-0.004492	0.011213	-0.009666	-0.234131	0.506592	-0.257324	0.708841	-0.414600	-0.163318	-0.546790
08030		6.725831	-4.030718	5.865088	-0.005016	0.007832	-0.003072	-0.236084	0.514893	-0.246582	0.708859	-0.414557	-0.163299	-0.546804
08031		6.737794	-4.048279	5.840473	-0.008223	0.005568	-0.003003	-0.231201	0.515381	-0.247803	0.708841	-0.414597	-0.163246	-0.546813
08032		6.752730	-4.060864	5.847659	-0.008022	0.001175	-0.005931	-0.232910	0.514648	-0.253906	0.708844	-0.414642	-0.163237	-0.546777
08033		6.739777	-4.064006	5.868912	-0.004528	0.002601	-0.005351	-0.235107	0.517334	-0.247559	0.708866	-0.414639	-0.163248	-0.546748
08034		6.713370	-4.014330	5.889475	-0.005646	-0.004848	0.001383	-0.232666	0.516846	-0.249023	0.708879	-0.414715	-0.163255	-0.546672
08035		6.763616	-4.051337	5.843354	-0.010874	-0.006990	-0.001645	-0.236328	0.514648	-0.246582	0.708877	-0.414819	-0.163269	-0.546592
08036		6.732157	-4.056319	5.871549	-0.011664	-0.006667	0.001425	-0.237305	0.515625	-0.252930	0.708849	-0.414939	-0.163258	-0.546540
08037		6.724354	-4.059851	5.824653	-0.010961	-0.004798	-0.002338	-0.237061	0.513672	-0.259033	0.708819	-0.415020	-0.163267	-0.546514
08038		6.742435	-4.067738	5.863270	-0.007644	-0.001857	-0.004588	-0.236572	0.511963	-0.253662	0.708806	-0.415040	-0.163296	-0.546507
08039		6.725565	-4.027989	5.877499	-0.009398	-0.005443	-0.004160	-0.231934	0.511475	-0.255615	0.708771	-0.415104	-0.163326	-0.546495
08040		6.753046	-4.078549	5.855016	-0.011637	-0.006674	-0.002891	-0.234131	0.513428	-0.249268	0.708770	-0.415176	-0.163359	-0.546432
08041		6.729558	-4.057037	5.852421	-0.008038	-0.001697	-0.003052	-0.242676	0.511475	-0.242676	0.708762	-0.415231	-0.163362	-0.546400
08042		6.726085	-4.070452	5.867136	-0.010254	-0.002931	-0.006100	-0.227539	0.512451	-0.248779	0.708646	-0.415330	-0.163348	-0.546479
08043		6.740752	-4.047333	5.847888	-0.010468	-0.007159	-0.003179	-0.236084	0.518799	-0.250977	0.708667	-0.415417	-0.163378	-0.546377
08044		6.787447	-4.097205	5.816765	-0.010572	-0.010710	-0.002440	-0.239258	0.517334	-0.248779	0.708645	-0.415530	-0.163421	-0.546307
08045		6.733091	-4.026830	5.901554	-0.010483	-0.010033	-0.000304	-0.235352	0.513184	-0.252441	0.708602	-0.415651	-0.163445	-0.546263
08046		6.766588	-4.112984	5.836759	-0.010786	-0.012068	0.001924	-0.236572	0.511719	-0.247559	0.708592	-0.415764	-0.163487	-0.546177
08047		6.779437	-4.074968	5.788203	-0.009319	-0.007643	0.000851	-0.240723	0.514160	-0.250000	0.708564	-0.415862	-0.163501	-0.546134
08048		6.756649	-4.012959	5.793314	-0.002443	0.006032	0.005646	-0.232910	0.512939	-0.250488	0.708583	-0.415863	-0.163451	-0.546125
08049		6.742283	-4.073370	5.837869	0.004330	0.016153	0.011179	-0.236572	0.516602	-0.246338	0.708719	-0.415774	-0.163362	-0.546042
08050		6.753390	-4.114885	5.891075	-0.000777	0.008940	0.003084	-0.241455	0.516602	-0.250732	0.708761	-0.415760	-0.163304	-0.546016
08051		6.745970	-4.076866	5.852856	-0.005422	-0.000626	-0.001537	-0.238525	0.513428	-0.248291	0.708728	-0.415800	-0.163303	-0.546029
08052		6.737847	-4.047029	5.861666	-0.008033	-0.001698	-0.003051	-0.236572	0.520508	-0.247314	0.708684	-0.415861	-0.163301	-0.546040
08053		6.694578	-4.014478	5.918599	-0.016586	-0.006789	0.000489	-0.236816	0.519287	-0.249268	0.708649	-0.416009	-0.163273	-0.545981
08054		6.742982	-4.113641	5.860588	-0.020855	-0.013646	0.000092	-0.227783	0.516357	-0.244873	0.708588	-0.416205	-0.163273	-0.545911
08055		6.797758	-4.137969	5.797656	-0.013929	-0.005718	-0.006631	-0.229736	0.518799	-0.249268	0.708578	-0.416317	-0.163280	-0.545836
08056		6.747035	-4.086241	5.813188	-0.006328	0.004087	-0.012799	-0.234375	0.509521	-0.249512	0.708583	-0.416320	-0.163295	-0.545822
08057		6.739588	-4.002658	5.881131	-0.007424	0.005243	-0.006056	-0.239258	0.511230	-0.247314	0.708562	-0.416326	-0.163275	-0.545852
08058		6.741269	-4.051235	5.854823	-0.010644	0.002970	-0.001672	-0.232422	0.517334	-0.237061	0.708511	-0.416381	-0.163227	-0.545890
08059		6.769094	-4.061518	5.840113	-0.016655	0.004015	-0.000182	-0.238037	0.516113	-0.249756	0.708485	-0.416505	-0.163120	-0.545861
08060		6.723217	-4.102974	5.835966	-0.014529	0.007440	0.002177	-0.236816	0.520020	-0.246582	0.708471	-0.416563	-0.163021	-0.545864
08061		6.758396	-4.163733	5.808712	-0.010140	0.006361	-0.003941	-0.242920	0.519287	-0.245117	0.708453	-0.416606	-0.162961	-0.545873
08062		6.760754	-4.082278	5.823426	-0.005563	0.012382	-0.007210	-0.230469	0.510986	-0.247559	0.708396	-0.416599	-0.162890	-0.545974
08063		6.737246	-4.095510	5.848291	-0.002444	0.011104	-0.010858	-0.234131	0.513428	-0.250732	0.708405	-0.416545	-0.162874	-0.546008
08064		6.707171	-4.037643	5.889290	-0.007677	0.006081	-0.011017	-0.226074	0.516846	-0.242920	0.708376	-0.416541	-0.162868	-0.546051
08065		6.748181	-4.063574	5.849723	-0.010122	-0.002258	-0.008284	-0.235107	0.516846	-0.245117	0.708385	-0.416616	-0.162877	-0.545979
08066		6.738463	-4.094722	5.847440	-0.011193	-0.003974	-0.007305	-0.239258	0.516113	-0.250732	0.708335	-0.416706	-0.162885	-0.545972
08067		6.732692	-4.112706	5.829715	-0.010976	0.000256	-0.010218	-0.237793	0.519775	-0.246094	0.708262	-0.416756	-0.162890	-0.546029
08068		6.763035	-4.080456	5.822054	-0.005447	-0.001302	-0.012308	-0.238525	0.511475	-0.249512	0.708205	-0.416794	-0.162925	-0.546062
08069		6.739526	-4.057702	5.820420	-0.004886	0.002762	-0.008122	-0.239746	0.522705	-0.237793	0.708158	-0.416797	-0.162936	-0.546117
08070		6.742217	-4.084925	5.797960	-0.001318	0.004873	-0.005404	-0.232910	0.510742	-0.244873	0.708130	-0.416825	-0.162905	-0.546141
08071		6.745235	-4.059326	5.834391	0.000410	0.005588	-0.002955	-0.240723	0.517578	-0.248535	0.708156	-0.416801	-0.162900	-0.546128
08072		6.740794	-4.072176	5.850626	0.000495	0.006264	-0.000819	-0.241699	0.519531	-0.246338	0.708164	-0.416777	-0.162882	-0.546141
08073		6.743607	-4.079336	5.832172	0.000300	0.004907	-0.000775	-0.230225	0.519531	-0.248291	0.708163	-0.416771	-0.162864	-0.546153
08074		6.736872	-4.096662	5.816033	0.001601	0.005112	-0.007561	-0.240479	0.514404	-0.249268	0.708215	-0.416732	-0.162887	-0.546107
08075		6.733997	-4.068037	5.839666	0.004486	0.008220	-0.003952	-0.239746	0.515381	-0.249512	0.708221	-0.416666	-0.162891	-0.546149
08076		6.713955	-4.088467	5.845312	0.002738	0.004629	-0.003533	-0.235107	0.514404	-0.247070	0.708226	-0.416627	-0.162907	-0.546167
08077		6.750602	-4.126794	5.822232	0.003142	0.001600	-0.006516	-0.239502	0.519775	-0.254150	0.708238	-0.416599	-0.162951	-0.546161
08078		6.742475	-4.095069	5.832388	0.007246	0.004235	-0.011829	-0.233643	0.518311	-0.240967	0.708243	-0.416514	-0.163027	-0.546196
08079		6.758519	-4.084632	5.844451	0.010077	0.006668	-0.014673	-0.236816	0.517578	-0.252930	0.708251	-0.416435	-0.163083	-0.546229
08080		6.737889	-4.034778	5.880321	0.011131	0.005509	-0.012781	-0.239746	0.517578	-0.250732	0.708278	-0.416320	-0.163173	-0.546255
08081		6.759120	-4.079572	5.847289	0.012379	0.005706	-0.010932	-0.235840	0.513184	-0.252197	0.708293	-0.416210	-0.163252	-0.546296
08082		6.738322	-4.062323	5.828465	0.012486	0.009254	-0.011665	-0.232910	0.516113	-0.247070	0.708330	-0.416069	-0.163323	-0.546334
08083		6.722592	-4.067972	5.819416	0.013060	0.007577	-0.010374	-0.229248	0.520508	-0.251465	0.708385	-0.415953	-0.163389	-0.546331
08084		6.727730	-4.087913	5.831184	0.017368	0.011561	-0.015729	-0.236816	0.512939	-0.244873	0.708480	-0.415775	-0.163480	-0.546316
08085		6.729061	-4.043479	5.840751	0.018938	0.010919	-0.017550	-0.237305	0.520508	-0.252930	0.708491	-0.415607	-0.163570	-0.546404
08086		6.725263	-4.052879	5.858641	0.018155	0.008364	-0.015926	-0.235840	0.509277	-0.241943	0.708535	-0.415441	-0.163681	-0.546439
08087		6.725787	-4.049472	5.860396	0.013806	0.003694	-0.017020	-0.230225	0.521240	-0.249023	0.708512	-0.415342	-0.163783	-0.546513
08088		6.733393	-4.060872	5.823445	0.013135	0.001816	-0.017576	-0.236816	0.511475	-0.253662	0.708562	-0.415243	-0.163910	-0.546486
08089		6.743277	-4.034844	5.873585	0.011689	0.003128	-0.017934	-0.234375	0.509766	-0.239014	0.708552	-0.415125	-0.164034	-0.546551
08090		6.767846	-4.074060	5.872635	0.010449	0.002923	-0.019782	-0.227783	0.521729	-0.248779	0.708510	-0.415057	-0.164128	-0.546630
08091		6.767695	-4.034885	5.848341	0.012953	0.000453	-0.017529	-0.242920	0.512695	-0.252686	0.708576	-0.414965	-0.164263	-0.546572
08092		6.754718	-4.055580	5.867434	0.008590	0.007267	-0.017163	-0.237549	0.518066	-0.246338	0.708528	-0.414858	-0.164337	-0.546694
08093		6.713576	-3.970730	5.886041	0.006623	0.008068	-0.013808	-0.241211	0.517578	-0.248779	0.708526	-0.414785	-0.164374	-0.546741
08094		6.751884	-4.043779	5.888968	0.007453	0.002696	-0.008997	-0.245117	0.514893	-0.252930	0.708522	-0.414734	-0.164433	-0.546768
08095		6.749381	-4.067377	5.853746	0.003894	0.000573	-0.011715	-0.239746	0.511719	-0.247314	0.708468	-0.414696	-0.164505	-0.546844
08096		6.745323	-4.022301	5.848091	0.007858	0.002532	-0.010530	-0.233643	0.512939	-0.251465	0.708451	-0.414638	-0.164572	-0.546890
08097		6.742231	-4.013268	5.867992	0.005602	0.004171	-0.007823	-0.239746	0.508789	-0.250000	0.708491	-0.414575	-0.164622	-0.546872
08098		6.773914	-4.028102	5.835712	0.011277	0.001120	-0.002759	-0.239746	0.520020	-0.250977	0.708518	-0.414503	-0.164693	-0.546869
08099		6.750864	-4.040868	5.860421	0.006040	0.004701	-0.002907	-0.239990	0.510742	-0.250488	0.708560	-0.414455	-0.164715	-0.546844
08100		6.738123	-4.022629	5.886276	0.009826	0.002432	-0.003119	-0.232910	0.508057	-0.257324	0.708587	-0.414387	-0.164773	-0.546844
08101		6.756593	-4.041096	5.875264	0.005460	0.000635	-0.002770	-0.234863	0.510254	-0.253174	0.708651	-0.414324	-0.164843	-0.546787
08102		6.750410	-4.058066	5.859020	0.007031	-0.000008	-0.004589	-0.241943	0.510010	-0.253174	0.708695	-0.414270	-0.164917	-0.546749
08103		6.746508	-3.993149	5.856863	0.006655	0.003017	-0.005929	-0.240723	0.513428	-0.248047	0.708691	-0.414207	-0.164971	-0.546786
08104		6.751112	-4.035116	5.864098	0.008570	0.005099	-0.003525	-0.232178	0.515869	-0.257080	0.708711	-0.414146	-0.164999	-0.546798
08105		6.767164	-4.005205	5.879437	0.007135	0.003536	-0.005328	-0.232178	0.514648	-0.244873	0.708794	-0.414067	-0.165063	-0.546730
08106		6.735324	-4.041106	5.854995	0.005252	0.002153	-0.001282	-0.244141	0.508301	-0.248779	0.708857	-0.414048	-0.165083	-0.546657
08107		6.769888	-4.031091	5.858317	0.005490	0.003493	-0.005642	-0.240234	0.513184	-0.249512	0.708823	-0.414005	-0.165115	-0.546724
08108		6.756580	-4.033139	5.880744	0.008288	0.005932	-0.004172	-0.230957	0.510986	-0.249023	0.708846	-0.413936	-0.165143	-0.546737
08109		6.740375	-4.007344	5.925796	0.007617	0.004055	-0.004726	-0.235840	0.502686	-0.248535	0.708913	-0.413873	-0.165187	-0.546686
08110		6.728139	-4.021769	5.896725	0.003561	0.004283	-0.006604	-0.241211	0.510986	-0.250977	0.708908	-0.413826	-0.165217	-0.546719
08111		6.757117	-4.009335	5.886550	0.000166	0.000653	-0.006495	-0.227295	0.515137	-0.250488	0.708877	-0.413821	-0.165251	-0.546752
08112		6.756834	-4.029066	5.883244	-0.000808	0.002486	-0.006256	-0.233643	0.511230	-0.256836	0.708940	-0.413810	-0.165273	-0.546672
08113		6.767980	-4.009691	5.833638	0.000924	0.008948	-0.005240	-0.234131	0.509033	-0.243164	0.708990	-0.413742	-0.165276	-0.546658
08114		6.740687	-4.015427	5.878117	0.003734	0.017120	-0.005203	-0.234863	0.510986	-0.240723	0.709021	-0.413660	-0.165210	-0.546700
08115		6.735345	-4.027864	5.895709	0.002133	0.014903	-0.000510	-0.237061	0.505127	-0.251953	0.709057	-0.413615	-0.165124	-0.546712
08116		6.743486	-4.037304	5.891355	-0.003907	0.012360	-0.006927	-0.236816	0.520508	-0.246338	0.709040	-0.413569	-0.165079	-0.546782
08117		6.740019	-4.009404	5.914621	-0.005209	0.006436	-0.003029	-0.229980	0.513428	-0.250977	0.709049	-0.413597	-0.165026	-0.546766
08118		6.728137	-4.005324	5.887972	-0.012619	0.000861	0.000206	-0.238525	0.511475	-0.249023	0.709077	-0.413672	-0.164981	-0.546687
08119		6.759578	-4.022806	5.854323	-0.012229	0.003570	0.000114	-0.241943	0.508057	-0.252930	0.709049	-0.413741	-0.164914	-0.546692
08120		6.756593	-4.028722	5.822073	-0.006992	0.008597	0.000278	-0.232178	0.515381	-0.260254	0.709027	-0.413743	-0.164850	-0.546737
08121		6.725941	-4.028490	5.884515	-0.004940	0.008475	-0.000939	-0.238037	0.512939	-0.251221	0.709099	-0.413711	-0.164822	-0.546676
08122		6.734177	-4.058899	5.875580	-0.009614	0.006810	-0.007689	-0.241943	0.507812	-0.248535	0.709059	-0.413734	-0.164780	-0.546724
08123		6.753489	-4.057774	5.867223	-0.007242	0.000108	-0.011142	-0.229736	0.518799	-0.248047	0.708961	-0.413774	-0.164793	-0.546817
08124		6.721664	-3.984858	5.877993	-0.012071	0.003518	-0.012829	-0.232666	0.520020	-0.249268	0.708940	-0.413829	-0.164770	-0.546810
08125		6.708692	-3.988255	5.899069	-0.012333	0.005050	-0.007027	-0.237549	0.512939	-0.249512	0.708935	-0.413886	-0.164718	-0.546788
08126		6.748857	-4.035362	5.856456	-0.013073	0.006061	-0.001826	-0.237793	0.512939	-0.248047	0.708909	-0.413944	-0.164641	-0.546801
08127		6.753223	-4.079376	5.862604	-0.010897	0.006611	-0.005222	-0.235352	0.509766	-0.255127	0.708871	-0.413987	-0.164579	-0.546837
08128		6.732877	-3.991610	5.903599	-0.010664	0.002219	-0.008153	-0.241211	0.518799	-0.244385	0.708838	-0.414018	-0.164575	-0.546857
08129		6.728743	-4.046149	5.910726	-0.018631	-0.010301	-0.006235	-0.239258	0.504150	-0.245605	0.708730	-0.414200	-0.164566	-0.546861
08130		6.747561	-4.030792	5.871154	-0.018324	-0.014010	-0.007032	-0.231445	0.519531	-0.252686	0.708598	-0.414376	-0.164597	-0.546891
08131		6.743758	-4.009287	5.858823	-0.023573	-0.007570	-0.005737	-0.233154	0.515625	-0.247559	0.708558	-0.414545	-0.164575	-0.546822
08132		6.764065	-4.042507	5.793822	-0.017512	-0.002168	-0.002185	-0.237305	0.521973	-0.246826	0.708533	-0.414669	-0.164525	-0.546775
08133		6.746362	-4.027942	5.884596	-0.016383	0.003100	0.000420	-0.234375	0.520020	-0.250488	0.708520	-0.414776	-0.164435	-0.546738
08134		6.714106	-4.054408	5.908896	-0.022427	-0.010913	-0.003155	-0.236572	0.517578	-0.245605	0.708471	-0.414963	-0.164424	-0.546663
08135		6.776716	-4.060773	5.861513	-0.027015	-0.026239	-0.006371	-0.239502	0.526611	-0.256348	0.708342	-0.415255	-0.164482	-0.546590
08136		6.775621	-4.031738	5.799469	-0.029448	-0.020235	-0.005039	-0.232666	0.517090	-0.246338	0.708248	-0.415513	-0.164512	-0.546507
08137		6.777047	-4.033655	5.796467	-0.017119	-0.005204	-0.000842	-0.239014	0.511230	-0.248779	0.708233	-0.415651	-0.164478	-0.546431
08138		6.767041	-4.045565	5.798210	-0.009885	0.011200	-0.000413	-0.235840	0.517090	-0.251709	0.708222	-0.415663	-0.164384	-0.546465
08139		6.728559	-4.051824	5.895684	-0.007188	0.015833	0.000376	-0.229492	0.514404	-0.251953	0.708268	-0.415634	-0.164279	-0.546459
08140		6.740254	-4.069883	5.871091	-0.013083	0.003180	0.001061	-0.234131	0.509766	-0.247803	0.708309	-0.415692	-0.164223	-0.546379
08141		6.716545	-4.029122	5.872048	-0.016070	-0.006356	0.001044	-0.231201	0.515869	-0.246338	0.708279	-0.415821	-0.164200	-0.546327
08142		6.780406	-4.063177	5.803734	-0.017669	-0.008588	0.005730	-0.243164	0.518066	-0.252686	0.708292	-0.415983	-0.164165	-0.546197
08143		6.816847	-4.124349	5.775283	-0.009634	0.001761	0.004517	-0.235107	0.512695	-0.246094	0.708291	-0.416039	-0.164116	-0.546170
08144		6.761166	-4.058426	5.764317	0.002543	0.029776	0.003072	-0.233398	0.511719	-0.240479	0.708382	-0.415903	-0.163954	-0.546203
08145		6.702731	-3.971842	5.938104	0.000543	0.027700	0.009292	-0.236084	0.511963	-0.246582	0.708488	-0.415811	-0.163762	-0.546194
08146		6.713441	-4.067541	5.932336	-0.013709	0.002671	0.013398	-0.241455	0.516357	-0.250732	0.708524	-0.415908	-0.163649	-0.546107
08147		6.758374	-4.135672	5.817270	-0.019994	-0.016244	0.006258	-0.238281	0.517090	-0.243652	0.708467	-0.416114	-0.163650	-0.546024
08148		6.723936	-4.110308	5.786603	-0.012481	-0.013519	-0.007038	-0.235596	0.520752	-0.245361	0.708387	-0.416262	-0.163702	-0.546000
08149		6.735296	-4.078879	5.786934	-0.000553	0.003854	-0.010602	-0.231201	0.510498	-0.242920	0.708384	-0.416252	-0.163723	-0.546005
08150		6.734231	-4.065581	5.839287	0.003693	0.010723	-0.010178	-0.235840	0.511719	-0.243652	0.708400	-0.416182	-0.163719	-0.546038
08151		6.732520	-4.072382	5.888367	0.000274	0.009269	-0.015081	-0.237305	0.518311	-0.250732	0.708359	-0.416134	-0.163725	-0.546127
08152		6.694341	-3.963816	5.941891	-0.006978	-0.004266	-0.014079	-0.237549	0.510498	-0.243408	0.708302	-0.416178	-0.163788	-0.546148
08153		6.755840	-4.040935	5.834592	-0.011203	-0.010455	-0.008053	-0.238770	0.522461	-0.245605	0.708214	-0.416298	-0.163832	-0.546158
08154		6.766390	-4.083319	5.772596	-0.008856	0.003621	-0.003550	-0.230713	0.517578	-0.244629	0.708203	-0.416350	-0.163790	-0.546145
08155		6.756245	-4.093703	5.775543	0.003356	0.011562	-0.006505	-0.233887	0.517822	-0.245605	0.708261	-0.416283	-0.163770	-0.546127
08156		6.671112	-4.037268	5.954589	0.003095	0.014578	-0.016461	-0.232910	0.511963	-0.245117	0.708262	-0.416190	-0.163767	-0.546196
08157		6.703347	-4.051609	5.921946	-0.011254	-0.000354	-0.019464	-0.240479	0.512939	-0.249512	0.708169	-0.416242	-0.163796	-0.546269
08158		6.775638	-4.096968	5.815851	-0.017105	-0.010148	-0.021657	-0.237061	0.517334	-0.244385	0.708002	-0.416363	-0.163870	-0.546371
08159		6.822835	-4.119455	5.709861	-0.006387	0.024229	-0.031289	-0.241455	0.510742	-0.243652	0.707898	-0.416266	-0.163815	-0.546596
08160		6.722923	-3.988073	5.894792	0.005562	0.048022	-0.029797	-0.234131	0.517334	-0.245361	0.707834	-0.415990	-0.163665	-0.546934
08161		6.700436	-3.994600	5.954819	-0.004837	0.024268	-0.022346	-0.238525	0.513184	-0.249023	0.707794	-0.415893	-0.163587	-0.547083
08162		6.737938	-4.032730	5.931295	-0.021853	-0.008272	-0.011899	-0.237793	0.517090	-0.239746	0.707671	-0.416047	-0.163595	-0.547122
08163		6.812296	-4.050965	5.779998	-0.020566	-0.013118	-0.006504	-0.239746	0.515381	-0.241943	0.707569	-0.416250	-0.163597	-0.547100
08164		6.782560	-4.027739	5.764058	-0.007578	0.007360	0.001886	-0.242188	0.514404	-0.244141	0.707567	-0.416288	-0.163515	-0.547098
08165		6.734154	-4.045507	5.863411	-0.003443	0.011375	0.009491	-0.230225	0.516602	-0.246826	0.707610	-0.416287	-0.163405	-0.547076
08166		6.701864	-3.983285	6.034703	-0.014453	-0.013572	0.018499	-0.238770	0.512451	-0.246826	0.707691	-0.416467	-0.163370	-0.546845
08167		6.729201	-4.094286	5.917205	-0.031360	-0.049685	0.016719	-0.236084	0.514893	-0.237549	0.707602	-0.416908	-0.163475	-0.546592
08168		6.833142	-4.140909	5.662430	-0.031001	-0.056957	0.008010	-0.239014	0.512695	-0.240723	0.707467	-0.417392	-0.163635	-0.546350
08169		6.830476	-4.120356	5.647936	-0.002273	-0.009855	0.005520	-0.229980	0.516846	-0.244629	0.707471	-0.417479	-0.163666	-0.546268
08170		6.719475	-4.085261	5.817873	0.009928	0.024604	0.004861	-0.229492	0.519775	-0.247559	0.707625	-0.417325	-0.163561	-0.546218
08171		6.647868	-4.043176	6.004975	0.002037	0.009176	0.005282	-0.235840	0.511719	-0.249756	0.707747	-0.417283	-0.163516	-0.546107
08172		6.733023	-4.090812	5.957280	-0.020917	-0.029491	0.001388	-0.225830	0.514160	-0.241699	0.707669	-0.417537	-0.163612	-0.545984
08173		6.867320	-4.150461	5.672325	-0.017931	-0.034978	-0.003669	-0.230225	0.514648	-0.242676	0.707614	-0.417810	-0.163756	-0.545803
08174		6.834545	-4.094289	5.599206	0.012977	0.016262	-0.005966	-0.235840	0.518066	-0.249512	0.707708	-0.417664	-0.163750	-0.545795
08175		6.701628	-4.066312	5.828635	0.027349	0.040492	-0.000761	-0.241455	0.511230	-0.245361	0.707901	-0.417317	-0.163661	-0.545837
08176		6.660386	-4.038061	5.985421	0.019286	0.024380	0.006150	-0.242676	0.519287	-0.246094	0.708019	-0.417110	-0.163594	-0.545862
08177		6.715896	-4.054741	5.958877	0.003166	-0.009181	0.002759	-0.233154	0.520264	-0.238525	0.708036	-0.417151	-0.163665	-0.545787
08178		6.817897	-4.101074	5.790227	-0.002094	-0.029252	0.001795	-0.234131	0.514893	-0.252197	0.708039	-0.417330	-0.163819	-0.545600
08179		6.838923	-4.035321	5.711029	0.003810	-0.004437	0.004775	-0.237061	0.520020	-0.243408	0.708117	-0.417325	-0.163873	-0.545487
08180		6.766002	-4.103024	5.747520	0.016142	0.019899	0.011191	-0.236328	0.520752	-0.248291	0.708283	-0.417174	-0.163798	-0.545410
08181		6.698334	-4.079393	5.865080	0.018477	0.018952	0.010617	-0.233398	0.520996	-0.249512	0.708466	-0.417001	-0.163752	-0.545319
08182		6.720138	-4.088760	5.919992	0.011345	-0.000332	0.004387	-0.232178	0.519287	-0.243896	0.708585	-0.416945	-0.163811	-0.545188
08183		6.791500	-4.114047	5.818794	0.006841	-0.014977	0.003268	-0.228760	0.514404	-0.252441	0.708656	-0.416994	-0.163929	-0.545023
08184		6.786989	-4.045948	5.736085	0.017328	-0.004204	0.005769	-0.235352	0.510986	-0.247070	0.708805	-0.416909	-0.164039	-0.544861
08185		6.723480	-4.017425	5.883898	0.018630	0.005965	0.016248	-0.231689	0.523438	-0.252197	0.708969	-0.416799	-0.164045	-0.544730
08186		6.728129	-4.117314	5.912416	0.012587	-0.005184	0.014095	-0.235352	0.516113	-0.241943	0.709149	-0.416767	-0.164111	-0.544501
08187		6.791197	-4.072533	5.828061	0.009762	-0.011179	0.009028	-0.233154	0.512451	-0.248047	0.709231	-0.416794	-0.164195	-0.544348
08188		6.759356	-4.057043	5.861079	0.009575	-0.003249	0.015559	-0.234863	0.519531	-0.249512	0.709361	-0.416777	-0.164218	-0.544184
08189		6.770691	-4.095066	5.832962	0.010844	-0.000178	0.014546	-0.236816	0.516602	-0.241699	0.709510	-0.416739	-0.164238	-0.544013
08190		6.761354	-4.097664	5.788531	0.012904	0.005445	0.011917	-0.232910	0.514404	-0.247070	0.709631	-0.416678	-0.164226	-0.543905
08191		6.696806	-4.045329	5.860380	0.010905	0.014156	0.008859	-0.235596	0.515625	-0.249023	0.709762	-0.416569	-0.164175	-0.543833
08192		6.723607	-4.034219	5.851826	0.005708	0.009796	0.015131	-0.238770	0.505127	-0.245117	0.709890	-0.416517	-0.164106	-0.543727
08193		6.728839	-4.126777	5.832887	0.007601	0.006140	0.018955	-0.235840	0.515625	-0.243896	0.709981	-0.416481	-0.164042	-0.543655
08194		6.748328	-4.174913	5.799900	0.012367	0.007787	0.017082	-0.233643	0.513184	-0.244141	0.710127	-0.416414	-0.163998	-0.543529
08195		6.738818	-4.103958	5.818744	0.016938	0.013129	0.007386	-0.234131	0.516602	-0.247314	0.710254	-0.416281	-0.163977	-0.543471
08196		6.686481	-4.035252	5.920965	0.013677	0.010167	0.005305	-0.228516	0.510254	-0.246094	0.710368	-0.416173	-0.163972	-0.543407
08197		6.760152	-4.092291	5.878792	0.008242	-0.001957	0.006584	-0.232178	0.513428	-0.242676	0.710459	-0.416150	-0.164007	-0.543295
08198		6.749010	-4.119455	5.797731	0.008013	-0.001128	0.001625	-0.230469	0.513916	-0.250977	0.710512	-0.416131	-0.164046	-0.543228
08199		6.780082	-4.102057	5.820402	0.008966	0.004960	-0.005036	-0.227295	0.518311	-0.243896	0.710570	-0.416048	-0.164094	-0.543200
08200		6.732485	-4.092284	5.844271	0.012517	0.012132	-0.010176	-0.233398	0.514404	-0.240723	0.710643	-0.415925	-0.164120	-0.543191
08201		6.670066	-4.049605	5.864890	0.013349	0.012496	-0.006792	-0.236816	0.515869	-0.252930	0.710689	-0.415808	-0.164128	-0.543219
08202		6.677679	-4.045964	5.911895	0.006762	0.001536	0.001225	-0.233643	0.512451	-0.251221	0.710741	-0.415762	-0.164166	-0.543174
08203		6.727433	-4.121982	5.859526	-0.002862	-0.011722	-0.003645	-0.234131	0.503174	-0.251465	0.710722	-0.415828	-0.164253	-0.543123
08204		6.784303	-4.102621	5.805149	0.002209	-0.008737	-0.014188	-0.231689	0.511719	-0.253174	0.710649	-0.415829	-0.164380	-0.543179
08205		6.755461	-4.076005	5.790538	0.009009	0.004263	-0.015800	-0.225830	0.517578	-0.253662	0.710651	-0.415729	-0.164473	-0.543224
08206		6.730235	-4.019421	5.845861	0.015609	0.014423	-0.001604	-0.239014	0.518555	-0.250977	0.710800	-0.415565	-0.164491	-0.543151
08207		6.668845	-4.090397	5.909674	0.012943	0.007612	0.002608	-0.235596	0.521484	-0.248535	0.710882	-0.415465	-0.164512	-0.543112
08208		6.734329	-4.116899	5.876776	0.006588	-0.002687	-0.000178	-0.236572	0.521729	-0.251709	0.710936	-0.415453	-0.164571	-0.543033
08209		6.756850	-4.098002	5.773738	0.010109	0.006658	-0.010323	-0.232910	0.509521	-0.244873	0.710971	-0.415357	-0.164633	-0.543043
08210		6.715031	-4.017139	5.873383	0.015372	0.018112	-0.005117	-0.233643	0.514648	-0.247803	0.711034	-0.415193	-0.164615	-0.543091
08211		6.699904	-4.039357	5.893852	0.013532	0.011672	0.002479	-0.231445	0.508789	-0.252930	0.711132	-0.415076	-0.164608	-0.543054
08212		6.731811	-4.090688	5.887840	0.007614	0.007634	0.003189	-0.233887	0.511719	-0.253174	0.711209	-0.414997	-0.164605	-0.543013
08213		6.738129	-4.104551	5.850951	0.007408	0.005586	-0.003216	-0.233398	0.517822	-0.252441	0.711251	-0.414922	-0.164637	-0.543006
08214		6.710535	-4.053661	5.873230	0.004007	0.009858	-0.009544	-0.231445	0.512451	-0.242920	0.711276	-0.414845	-0.164649	-0.543029
08215		6.691427	-4.053438	5.882245	-0.000184	0.003680	-0.007827	-0.236084	0.515625	-0.249512	0.711263	-0.414843	-0.164651	-0.543047
08216		6.716180	-4.074698	5.883759	-0.006172	-0.001040	-0.009254	-0.231201	0.507812	-0.255615	0.711215	-0.414883	-0.164672	-0.543073
08217		6.763388	-4.122720	5.854050	-0.008036	-0.000266	-0.014531	-0.233154	0.514893	-0.253662	0.711151	-0.414902	-0.164713	-0.543130
08218		6.740056	-4.099521	5.852258	-0.007826	0.006119	-0.022443	-0.231934	0.517578	-0.249512	0.711068	-0.414889	-0.164740	-0.543240
08219		6.701025	-4.010934	5.902154	-0.005375	0.009404	-0.017295	-0.230225	0.510986	-0.250244	0.711028	-0.414866	-0.164733	-0.543313
08220		6.703919	-4.058080	5.876253	-0.008738	0.003593	-0.012197	-0.232178	0.512451	-0.255371	0.710983	-0.414889	-0.164729	-0.543356
08221		6.723540	-4.056882	5.867620	-0.012537	0.000119	-0.010569	-0.238281	0.516113	-0.245117	0.710931	-0.414941	-0.164733	-0.543381
08222		6.745735	-4.103722	5.832838	-0.006811	0.002806	-0.011233	-0.231689	0.519531	-0.252441	0.710863	-0.414976	-0.164726	-0.543446
08223		6.700003	-4.033909	5.865894	-0.006749	0.011389	-0.015518	-0.231689	0.516602	-0.247314	0.710842	-0.414948	-0.164702	-0.543502
08224		6.717553	-4.020183	5.909861	-0.011260	0.011776	-0.011556	-0.234375	0.519043	-0.249023	0.710807	-0.414960	-0.164630	-0.543561
08225		6.714539	-4.045495	5.874284	-0.009700	0.006108	-0.005507	-0.230713	0.507812	-0.241943	0.710794	-0.414995	-0.164582	-0.543565
08226		6.722283	-4.116614	5.857839	-0.009569	0.006778	-0.007684	-0.232666	0.512451	-0.257324	0.710746	-0.415032	-0.164520	-0.543619
08227		6.752608	-4.096195	5.800140	-0.001794	0.009356	-0.009558	-0.230713	0.517090	-0.252441	0.710751	-0.414976	-0.164519	-0.543656
08228		6.715258	-4.035680	5.828660	0.006627	0.016676	-0.009423	-0.235840	0.519287	-0.252686	0.710809	-0.414850	-0.164504	-0.543680
08229		6.664045	-4.023221	5.951469	-0.000541	0.007390	-0.002707	-0.231934	0.519043	-0.251465	0.710843	-0.414821	-0.164488	-0.543663
08230		6.708423	-4.076585	5.889858	-0.005007	-0.006554	-0.001676	-0.234863	0.509521	-0.247559	0.710862	-0.414885	-0.164528	-0.543577
08231		6.729087	-4.108084	5.825927	-0.004832	-0.003027	-0.006718	-0.229492	0.518555	-0.247314	0.710815	-0.414929	-0.164553	-0.543597
08232		6.752124	-4.113532	5.798792	0.001041	0.006061	-0.010971	-0.234131	0.508301	-0.244873	0.710834	-0.414895	-0.164571	-0.543594
08233		6.682802	-3.984449	5.918192	0.000389	0.010605	-0.006500	-0.232666	0.507568	-0.254395	0.710821	-0.414853	-0.164532	-0.543655
08234		6.711969	-4.049038	5.926328	-0.008565	0.002076	-0.009376	-0.233154	0.515137	-0.245117	0.710773	-0.414874	-0.164535	-0.543700
08235		6.727185	-4.057484	5.853025	-0.006469	-0.003079	-0.007037	-0.229980	0.511230	-0.249512	0.710740	-0.414936	-0.164551	-0.543691
08236		6.751858	-4.099757	5.850166	-0.010441	-0.002185	-0.006788	-0.232422	0.515381	-0.239014	0.710707	-0.415004	-0.164552	-0.543681
08237		6.724190	-4.091012	5.863363	-0.008343	0.000559	-0.010865	-0.226807	0.521240	-0.256592	0.710648	-0.415070	-0.164538	-0.543712
08238		6.728458	-4.097626	5.843899	-0.004649	0.000497	-0.011759	-0.239502	0.512451	-0.248047	0.710672	-0.415072	-0.164587	-0.543665
08239		6.726490	-4.048754	5.869853	-0.006568	0.001278	-0.012722	-0.238037	0.514893	-0.256104	0.710588	-0.415100	-0.164601	-0.543749
08240		6.741917	-4.080302	5.873480	-0.004794	0.001997	-0.014580	-0.239502	0.510254	-0.246826	0.710532	-0.415094	-0.164645	-0.543815
08241		6.728079	-4.046643	5.869487	-0.007186	0.002255	-0.016146	-0.232910	0.508545	-0.259766	0.710424	-0.415117	-0.164659	-0.543932
08242		6.683027	-3.976826	5.901669	-0.007674	-0.003993	-0.015336	-0.228516	0.522217	-0.253174	0.710360	-0.415140	-0.164737	-0.543975
08243		6.742827	-4.030185	5.896981	-0.019605	-0.014946	-0.006763	-0.226318	0.511475	-0.247559	0.710325	-0.415317	-0.164785	-0.543872
08244		6.767645	-4.110780	5.804350	-0.019422	-0.019321	-0.005391	-0.232910	0.513428	-0.250244	0.710261	-0.415520	-0.164840	-0.543783
08245		6.741417	-4.030175	5.877079	-0.018531	-0.018964	-0.006318	-0.236572	0.511963	-0.251221	0.710178	-0.415711	-0.164907	-0.543726
08246		6.725327	-4.065174	5.826742	-0.022094	-0.017546	-0.001151	-0.222168	0.521973	-0.250000	0.710088	-0.415921	-0.164931	-0.543675
08247		6.802505	-4.062742	5.791772	-0.015391	-0.004521	0.001573	-0.238281	0.518066	-0.239746	0.710146	-0.416040	-0.164906	-0.543516
08248		6.771427	-4.104969	5.845513	-0.010713	0.005744	0.004061	-0.231689	0.513428	-0.246338	0.710143	-0.416113	-0.164805	-0.543494
08249		6.773584	-4.133545	5.823239	-0.003042	0.010528	0.001503	-0.232422	0.502441	-0.251221	0.710188	-0.416096	-0.164733	-0.543470
08250		6.731699	-4.087957	5.866867	0.000929	0.009640	0.001250	-0.241699	0.512695	-0.251221	0.710215	-0.416044	-0.164690	-0.543489
08251		6.710566	-4.032547	5.854746	0.002287	0.010523	0.000925	-0.235107	0.524902	-0.243652	0.710235	-0.415987	-0.164650	-0.543518
08252		6.737172	-4.061856	5.838487	-0.001561	0.012773	0.005449	-0.229248	0.514893	-0.245361	0.710318	-0.415970	-0.164555	-0.543451
08253		6.722219	-4.086138	5.857436	-0.002774	0.011871	-0.002850	-0.241699	0.511719	-0.250488	0.710357	-0.415943	-0.164490	-0.543441
08254		6.724641	-4.113351	5.835826	-0.002007	0.010870	-0.008050	-0.236572	0.518066	-0.250977	0.710317	-0.415898	-0.164458	-0.543537
08255		6.717524	-4.077819	5.878619	-0.000752	0.008213	-0.007651	-0.238037	0.514648	-0.236816	0.710322	-0.415860	-0.164452	-0.543561
08256		6.724966	-4.071093	5.844634	-0.001048	0.003319	-0.006887	-0.240234	0.512695	-0.245117	0.710282	-0.415877	-0.164436	-0.543605
08257		6.739338	-4.026541	5.830343	-0.007555	-0.001935	-0.004619	-0.228516	0.508057	-0.242676	0.710222	-0.415941	-0.164433	-0.543636
08258		6.731840	-4.053392	5.860511	-0.008101	-0.002448	-0.000911	-0.236572	0.512695	-0.251221	0.710210	-0.416015	-0.164412	-0.543601
08259		6.731685	-4.074658	5.856010	-0.012349	-0.000730	-0.001303	-0.230957	0.520020	-0.251221	0.710178	-0.416090	-0.164384	-0.543594
08260		6.716338	-4.084175	5.843978	-0.014118	-0.001457	0.000554	-0.239014	0.524658	-0.246582	0.710190	-0.416185	-0.164348	-0.543516
08261		6.710842	-4.083073	5.829472	-0.016285	-0.002714	-0.002504	-0.239502	0.514893	-0.246582	0.710149	-0.416308	-0.164309	-0.543487
08262		6.736005	-4.085533	5.833455	-0.011932	-0.000892	-0.002834	-0.238281	0.520508	-0.241211	0.710096	-0.416391	-0.164279	-0.543502
08263		6.708060	-4.077744	5.846391	-0.011429	-0.003238	-0.003684	-0.236816	0.514404	-0.248291	0.710049	-0.416495	-0.164257	-0.543491
08264		6.745814	-4.116973	5.821946	-0.009128	-0.001309	-0.002801	-0.237305	0.518799	-0.249756	0.710019	-0.416558	-0.164246	-0.543485
08265		6.733518	-4.100236	5.846190	-0.006310	-0.002412	-0.009215	-0.231689	0.510010	-0.244629	0.709980	-0.416599	-0.164282	-0.543493
08266		6.724851	-4.089880	5.851802	0.000340	0.001342	-0.008662	-0.231689	0.513672	-0.248535	0.709963	-0.416591	-0.164310	-0.543513
08267		6.716375	-4.059010	5.861369	-0.004850	0.002013	-0.010260	-0.225098	0.521484	-0.256348	0.709939	-0.416601	-0.164326	-0.543532
08268		6.711000	-4.076075	5.844182	-0.004124	-0.001845	-0.012604	-0.232422	0.517334	-0.254150	0.709963	-0.416607	-0.164396	-0.543475
08269		6.764906	-4.105124	5.831298	-0.003104	-0.000808	-0.015707	-0.226562	0.512939	-0.244141	0.709934	-0.416602	-0.164469	-0.543495
08270		6.750646	-4.111547	5.820180	0.000438	0.000646	-0.019420	-0.240967	0.510742	-0.245605	0.709897	-0.416583	-0.164540	-0.543536
08271		6.729784	-4.082963	5.850960	-0.001857	-0.001288	-0.020303	-0.229980	0.520264	-0.247314	0.709783	-0.416584	-0.164615	-0.543662
08272		6.735469	-4.047228	5.839015	0.001004	-0.001022	-0.018134	-0.237305	0.516846	-0.247803	0.709764	-0.416568	-0.164702	-0.543672
08273		6.736138	-4.085835	5.831636	0.000256	-0.000714	-0.019380	-0.234131	0.514893	-0.245117	0.709700	-0.416552	-0.164788	-0.543741
08274		6.746954	-4.073272	5.829374	-0.001681	0.000750	-0.013894	-0.229004	0.514404	-0.245117	0.709660	-0.416553	-0.164831	-0.543780
08275		6.763228	-4.063331	5.840597	0.004865	0.000971	-0.012620	-0.237061	0.519043	-0.251465	0.709668	-0.416515	-0.164898	-0.543778
08276		6.766442	-4.109434	5.815106	0.006341	0.008947	-0.010074	-0.235840	0.518311	-0.242188	0.709696	-0.416425	-0.164932	-0.543801
08277		6.719560	-4.039020	5.849973	0.009904	0.013951	-0.010197	-0.243408	0.515869	-0.248291	0.709729	-0.416312	-0.164931	-0.543844
08278		6.733534	-4.089776	5.852083	0.011724	0.009635	-0.008514	-0.234375	0.516602	-0.245361	0.709744	-0.416196	-0.164970	-0.543902
08279		6.748823	-4.079342	5.864767	0.010127	0.006709	-0.010286	-0.233643	0.517090	-0.245605	0.709774	-0.416106	-0.165019	-0.543917
08280		6.767809	-4.075944	5.858308	0.011675	0.008949	-0.010649	-0.233643	0.514404	-0.248779	0.709815	-0.415996	-0.165063	-0.543933
08281		6.750297	-4.066237	5.820470	0.011868	0.010301	-0.010688	-0.241699	0.511719	-0.248291	0.709857	-0.415872	-0.165107	-0.543961
08282		6.718161	-4.028094	5.859106	0.008840	0.012224	-0.009230	-0.232422	0.518799	-0.240723	0.709858	-0.415759	-0.165117	-0.544043
08283		6.728979	-4.051548	5.883682	0.009022	0.007854	-0.007864	-0.235596	0.510498	-0.241699	0.709902	-0.415686	-0.165135	-0.544036
08284		6.755050	-4.063168	5.838729	0.007060	0.005773	-0.005969	-0.238525	0.510742	-0.255371	0.709911	-0.415631	-0.165148	-0.544061
08285		6.750978	-4.074752	5.855518	0.010193	0.007385	-0.008147	-0.240723	0.511230	-0.254639	0.709937	-0.415519	-0.165206	-0.544096
08286		6.735338	-4.081059	5.846153	0.008326	0.011010	-0.011968	-0.236084	0.515381	-0.252686	0.709937	-0.415397	-0.165245	-0.544178
08287		6.744956	-4.047930	5.849305	0.007023	0.010807	-0.009509	-0.235107	0.510742	-0.249512	0.709968	-0.415295	-0.165266	-0.544209
08288		6.740964	-4.039102	5.869950	0.005947	0.009089	-0.008542	-0.238525	0.516602	-0.249512	0.709983	-0.415212	-0.165281	-0.544247
08289		6.730843	-4.048416	5.873704	0.005441	0.011432	-0.007694	-0.229248	0.508789	-0.253174	0.710006	-0.415126	-0.165279	-0.544283
08290		6.747002	-4.071112	5.831159	0.006839	0.007284	-0.004475	-0.232666	0.518066	-0.246338	0.710065	-0.415043	-0.165302	-0.544263
08291		6.724069	-4.043360	5.863437	0.007081	0.011487	-0.007373	-0.240234	0.508301	-0.247314	0.710115	-0.414956	-0.165297	-0.544266
08292		6.719876	-4.034728	5.884145	0.005256	0.010076	-0.007654	-0.235840	0.513184	-0.239014	0.710102	-0.414879	-0.165294	-0.544342
08293		6.732664	-4.029942	5.864257	0.006144	0.008272	-0.003587	-0.240723	0.512939	-0.248291	0.710122	-0.414831	-0.165271	-0.544359
08294		6.731688	-4.049252	5.862211	0.008163	0.011035	-0.003346	-0.235107	0.512939	-0.247803	0.710153	-0.414739	-0.165264	-0.544391
08295		6.743701	-4.085079	5.835548	0.009474	0.011234	-0.005803	-0.236572	0.514404	-0.253418	0.710198	-0.414636	-0.165267	-0.544411
08296		6.739454	-4.055708	5.860447	0.012105	0.015187	-0.007132	-0.237549	0.514404	-0.247559	0.710260	-0.414487	-0.165277	-0.544441
08297		6.744405	-4.055996	5.876079	0.016259	0.009944	-0.006007	-0.235596	0.515137	-0.248047	0.710318	-0.414351	-0.165319	-0.544455
08298		6.700177	-4.033205	5.884787	0.015427	0.012428	-0.007939	-0.226807	0.510986	-0.254883	0.710378	-0.414206	-0.165349	-0.544478
08299		6.724632	-4.032096	5.892015	0.011812	0.006739	-0.009951	-0.234375	0.515625	-0.248291	0.710444	-0.414089	-0.165419	-0.544460
08300		6.728188	-4.057396	5.870805	0.013071	0.004089	-0.009547	-0.227539	0.518066	-0.256836	0.710483	-0.413994	-0.165493	-0.544459
08301		6.740173	-4.039479	5.902186	0.013630	0.002431	-0.008258	-0.237061	0.513672	-0.248535	0.710575	-0.413888	-0.165594	-0.544389
08302		6.731087	-4.027860	5.908986	0.007548	0.002725	-0.008942	-0.234619	0.514648	-0.247070	0.710581	-0.413832	-0.165650	-0.544405
08303		6.742883	-4.027383	5.855969	0.006699	-0.000505	-0.009464	-0.233154	0.510742	-0.257324	0.710587	-0.413799	-0.165719	-0.544402
08304		6.743476	-4.005693	5.860012	0.003007	0.003100	-0.004995	-0.231201	0.518799	-0.248291	0.710620	-0.413753	-0.165757	-0.544382
08305		6.742899	-4.045719	5.853534	0.002497	0.005444	-0.004151	-0.238770	0.512695	-0.252197	0.710670	-0.413725	-0.165756	-0.544340
08306		6.735218	-4.030456	5.892572	0.003580	0.007157	-0.005118	-0.236328	0.516357	-0.250732	0.710684	-0.413670	-0.165763	-0.544360
08307		6.719660	-4.017603	5.886153	0.005075	0.006550	-0.002621	-0.234131	0.509766	-0.256592	0.710731	-0.413617	-0.165767	-0.544338
08308		6.728861	-4.026231	5.881282	0.005539	0.003517	-0.005599	-0.231201	0.513428	-0.245117	0.710762	-0.413556	-0.165814	-0.544330
08309		6.728908	-4.025106	5.881998	0.000959	0.005359	-0.008782	-0.229004	0.520752	-0.253174	0.710764	-0.413535	-0.165814	-0.544342
08310		6.709678	-4.045665	5.887086	-0.000956	0.006128	-0.009750	-0.235596	0.516602	-0.247314	0.710798	-0.413507	-0.165823	-0.544316
08311		6.725146	-4.056527	5.894980	-0.002128	0.003036	-0.013050	-0.231689	0.519043	-0.254150	0.710765	-0.413506	-0.165845	-0.544354
08312		6.739333	-4.031118	5.877527	-0.000065	0.002930	-0.014257	-0.229492	0.516357	-0.253662	0.710766	-0.413478	-0.165895	-0.544359
08313		6.755340	-4.020954	5.889029	0.000273	0.004944	-0.016473	-0.233398	0.503662	-0.252197	0.710760	-0.413436	-0.165941	-0.544384
08314		6.712306	-4.019058	5.892143	0.000597	0.001246	-0.017275	-0.243164	0.502686	-0.245850	0.710695	-0.413406	-0.166005	-0.544473
08315		6.738281	-3.998161	5.900979	-0.001053	-0.000967	-0.012603	-0.234131	0.513916	-0.240967	0.710596	-0.413415	-0.166046	-0.544583
08316		6.746598	-4.011456	5.862619	-0.003115	-0.000862	-0.011396	-0.234375	0.514648	-0.250244	0.710549	-0.413452	-0.166064	-0.544610
08317		6.739593	-4.016370	5.897186	-0.003100	0.004848	-0.012809	-0.237305	0.510742	-0.250977	0.710522	-0.413442	-0.166074	-0.544650
08318		6.753351	-4.011719	5.876151	-0.004459	0.003960	-0.012486	-0.235352	0.512695	-0.252930	0.710472	-0.413441	-0.166084	-0.544713
08319		6.740676	-3.994115	5.900983	-0.004516	0.001118	-0.009626	-0.232178	0.516357	-0.251953	0.710446	-0.413454	-0.166105	-0.544730
08320		6.750567	-4.003361	5.894916	-0.006724	0.000559	-0.006244	-0.246826	0.511719	-0.252930	0.710446	-0.413491	-0.166106	-0.544702
08321		6.767428	-4.047407	5.847519	-0.000350	0.005158	-0.006324	-0.251221	0.509521	-0.254150	0.710414	-0.413465	-0.166113	-0.544761
08322		6.721640	-4.014083	5.906309	0.001359	0.013769	-0.010272	-0.229736	0.509521	-0.241699	0.710365	-0.413381	-0.166096	-0.544894
08323		6.717366	-4.026126	5.923005	-0.000756	0.007472	-0.009787	-0.232666	0.511963	-0.250000	0.710350	-0.413365	-0.166068	-0.544934
08324		6.749705	-4.061145	5.886949	-0.003617	0.001476	-0.010552	-0.237793	0.512451	-0.249512	0.710326	-0.413376	-0.166086	-0.544952
08325		6.744869	-4.037075	5.877310	-0.002000	0.002996	-0.017355	-0.238525	0.509277	-0.253662	0.710262	-0.413362	-0.166126	-0.545034
08326		6.734174	-3.989715	5.858651	-0.000396	0.011633	-0.016994	-0.228760	0.510010	-0.254883	0.710216	-0.413290	-0.166132	-0.545147
08327		6.749187	-3.999991	5.867470	-0.003715	0.014377	-0.016192	-0.234863	0.511963	-0.255615	0.710202	-0.413223	-0.166103	-0.545224
08328		6.746783	-4.006645	5.916997	-0.002100	0.019453	-0.019411	-0.234863	0.510010	-0.252441	0.710173	-0.413120	-0.166066	-0.545352
08329		6.708375	-4.007469	5.934407	-0.007951	0.012504	-0.020180	-0.240723	0.510498	-0.252197	0.710099	-0.413087	-0.166038	-0.545481
08330		6.731718	-3.992041	5.911167	-0.013359	0.003933	-0.015354	-0.244629	0.509766	-0.253906	0.709999	-0.413133	-0.166021	-0.545582
08331		6.698589	-3.961055	5.914034	-0.015596	-0.008043	-0.009157	-0.232422	0.501465	-0.252197	0.709892	-0.413250	-0.166049	-0.545623
08332		6.757072	-4.039037	5.873609	-0.019254	-0.009417	-0.016849	-0.237305	0.507080	-0.247314	0.709755	-0.413384	-0.166088	-0.545689
08333		6.768709	-4.007691	5.872859	-0.019891	-0.005592	-0.018820	-0.239746	0.515137	-0.250977	0.709599	-0.413514	-0.166098	-0.545790
08334		6.747771	-4.001757	5.897768	-0.021431	-0.007838	-0.018459	-0.236084	0.511719	-0.258301	0.709454	-0.413660	-0.166122	-0.545860
08335		6.734676	-4.010695	5.883836	-0.025746	-0.014704	-0.014601	-0.243408	0.519531	-0.249756	0.709324	-0.413851	-0.166173	-0.545869
08336		6.771187	-4.062785	5.872813	-0.026141	-0.012396	-0.018060	-0.240723	0.513184	-0.248291	0.709155	-0.414050	-0.166200	-0.545929
08337		6.756223	-4.015024	5.837786	-0.018938	-0.004553	-0.017604	-0.232178	0.508789	-0.252441	0.709018	-0.414171	-0.166209	-0.546014
08338		6.763253	-3.997062	5.853252	-0.013459	-0.001764	-0.009628	-0.237793	0.516846	-0.244629	0.708967	-0.414246	-0.166208	-0.546023
08339		6.788465	-4.059642	5.846596	-0.012957	-0.000549	-0.006889	-0.242188	0.514893	-0.247803	0.708915	-0.414337	-0.166173	-0.546032
08340		6.798311	-4.008357	5.851326	-0.007273	0.005747	-0.003940	-0.240723	0.515869	-0.250488	0.708893	-0.414362	-0.166127	-0.546055
08341		6.718168	-3.925603	5.917078	-0.010040	0.006831	-0.001846	-0.246826	0.515625	-0.244873	0.708886	-0.414396	-0.166062	-0.546059
08342		6.713912	-3.981726	5.924113	-0.021032	-0.008142	0.011408	-0.232910	0.512207	-0.256104	0.708848	-0.414593	-0.165977	-0.545984
08343		6.750225	-4.048267	5.862074	-0.022699	-0.014611	0.010351	-0.234619	0.507324	-0.241943	0.708851	-0.414802	-0.165950	-0.545830
08344		6.765904	-4.039054	5.790323	-0.017512	-0.009532	0.010564	-0.239014	0.511475	-0.249268	0.708834	-0.414983	-0.165882	-0.545735
08345		6.739144	-4.028470	5.835140	-0.010116	0.001830	0.005999	-0.230225	0.508545	-0.253418	0.708848	-0.415050	-0.165817	-0.545686
08346		6.738285	-4.110853	5.820430	-0.001351	0.004820	-0.001077	-0.239746	0.514893	-0.249268	0.708895	-0.415031	-0.165807	-0.545643
08347		6.730793	-4.035137	5.870184	-0.000623	0.005990	-0.006951	-0.237305	0.504639	-0.243896	0.708893	-0.415006	-0.165805	-0.545665
08348		6.740423	-4.003524	5.871989	-0.002651	0.001061	-0.002212	-0.236572	0.515381	-0.249512	0.708874	-0.415028	-0.165794	-0.545676
08349		6.744170	-4.030947	5.849173	-0.001482	0.000600	-0.002495	-0.234619	0.518066	-0.250732	0.708893	-0.415039	-0.165804	-0.545640
08350		6.755783	-4.015720	5.879076	-0.003752	-0.002816	0.003736	-0.235840	0.510498	-0.251221	0.708941	-0.415086	-0.165804	-0.545541
08351		6.780441	-4.078767	5.872597	-0.006312	-0.003935	0.002204	-0.239746	0.513672	-0.243896	0.708954	-0.415147	-0.165807	-0.545477
08352		6.747064	-4.007910	5.882865	-0.008448	-0.010927	0.000538	-0.235840	0.516846	-0.245605	0.708922	-0.415266	-0.165831	-0.545422
08353		6.787859	-4.038238	5.809985	-0.007982	-0.010401	0.001143	-0.240234	0.519287	-0.249512	0.708916	-0.415379	-0.165853	-0.545337
08354		6.755103	-4.060147	5.755353	-0.000790	0.014592	-0.002582	-0.241211	0.517578	-0.244873	0.708953	-0.415323	-0.165785	-0.545351
08355		6.663010	-3.938950	5.964062	0.003404	0.015776	-0.000727	-0.239990	0.516602	-0.249756	0.708998	-0.415249	-0.165712	-0.545372
08356		6.692678	-4.045226	5.964043	-0.017705	-0.009423	0.003476	-0.236816	0.516113	-0.241455	0.708966	-0.415408	-0.165690	-0.545298
08357		6.755390	-4.005543	5.844890	-0.021916	-0.026276	-0.001315	-0.235107	0.510986	-0.246582	0.708865	-0.415680	-0.165741	-0.545207
08358		6.839884	-4.092850	5.677577	-0.005543	0.003635	-0.002928	-0.233643	0.511230	-0.243896	0.708861	-0.415703	-0.165710	-0.545204
08359		6.762375	-4.020356	5.806841	0.010904	0.034919	-0.000269	-0.245850	0.511963	-0.255371	0.708968	-0.415495	-0.165552	-0.545270
08360		6.672090	-3.947103	5.991058	0.006760	0.021517	0.009920	-0.237549	0.514648	-0.252197	0.709080	-0.415363	-0.165456	-0.545255
08361		6.687638	-3.997075	6.023792	-0.014970	-0.010586	0.017073	-0.237793	0.506104	-0.249512	0.709125	-0.415525	-0.165411	-0.545087
08362		6.813764	-4.111431	5.816518	-0.021744	-0.028555	0.010745	-0.236328	0.519043	-0.247070	0.709071	-0.415799	-0.165460	-0.544934
08363		6.848554	-4.095734	5.657128	-0.004410	0.004565	0.005366	-0.234863	0.511963	-0.249023	0.709121	-0.415825	-0.165400	-0.544867
08364		6.711873	-4.016935	5.861118	0.005084	0.024312	0.011060	-0.234375	0.508789	-0.249756	0.709252	-0.415705	-0.165253	-0.544833
08365		6.669563	-4.054044	6.002911	-0.003466	0.004139	0.013697	-0.242432	0.519043	-0.246094	0.709333	-0.415728	-0.165181	-0.544731
