// Start Time: Unknown
// Update Rate: 60.0Hz
// Filter Profile: human (46.1)
// Firmware Version: 4.6.0
PacketCounter	SampleTimeFine	Acc_X	Acc_Y	Acc_Z	Gyr_X	Gyr_Y	Gyr_Z	Mag_X	Mag_Y	Mag_Z	Quat_q0	Quat_q1	Quat_q2	Quat_q3
14999		8.432745	-2.240150	4.485484	-0.003137	0.001399	-0.003276	-1.205078	0.162842	0.261963	0.020722	-0.506594	0.121497	-0.853329
15000		8.418732	-2.228277	4.495417	-0.003705	0.002855	-0.001169	-1.209717	0.160889	0.263184	0.020695	-0.506576	0.121519	-0.853338
15001		8.418712	-2.228251	4.495469	-0.004669	0.000097	-0.003674	-1.198486	0.155762	0.263672	0.020646	-0.506580	0.121536	-0.853334
15002		8.436307	-2.237295	4.465240	-0.002891	-0.001396	-0.001229	-1.204102	0.162598	0.265625	0.020627	-0.506592	0.121551	-0.853326
15003		8.447611	-2.225582	4.510832	-0.002743	-0.001265	-0.004950	-1.206299	0.157715	0.263428	0.020581	-0.506607	0.121549	-0.853318
15004		8.451042	-2.231365	4.478624	-0.004651	0.000815	-0.001482	-1.209717	0.160400	0.264893	0.020549	-0.506603	0.121575	-0.853317
15005		8.422670	-2.224956	4.474698	-0.004144	0.003723	-0.004976	-1.202637	0.161133	0.269531	0.020492	-0.506583	0.121583	-0.853330
15006		8.436578	-2.236283	4.465236	-0.003566	0.002626	-0.005988	-1.202393	0.158203	0.261475	0.020431	-0.506571	0.121582	-0.853338
15007		8.422293	-2.240847	4.451690	-0.001308	0.002964	-0.010324	-1.195312	0.153320	0.266113	0.020348	-0.506562	0.121547	-0.853350
15008		8.451027	-2.237030	4.467932	-0.003261	0.003247	-0.012337	-1.208252	0.147217	0.256836	0.020242	-0.506556	0.121518	-0.853361
15009		8.426648	-2.209395	4.467889	-0.002113	0.007573	-0.009170	-1.206787	0.162109	0.264648	0.020159	-0.506516	0.121495	-0.853390
15010		8.458296	-2.203244	4.464842	-0.000975	0.011539	-0.007099	-1.208008	0.154541	0.261719	0.020091	-0.506447	0.121472	-0.853436
15011		8.446581	-2.205519	4.432674	-0.000572	0.016110	-0.001390	-1.203613	0.153809	0.260986	0.020058	-0.506342	0.121468	-0.853499
15012		8.423978	-2.207690	4.473763	0.001503	0.021756	-0.000104	-1.205078	0.156006	0.266357	0.020036	-0.506200	0.121455	-0.853586
15013		8.446861	-2.225547	4.489393	0.000005	0.021889	0.003880	-1.201904	0.163818	0.264893	0.020036	-0.506055	0.121468	-0.853670
15014		8.434506	-2.220278	4.470094	-0.000169	0.020680	0.004311	-1.207764	0.156250	0.264648	0.020040	-0.505917	0.121485	-0.853749
15015		8.411585	-2.223407	4.511181	-0.001273	0.018149	0.006622	-1.204590	0.160889	0.260010	0.020055	-0.505800	0.121516	-0.853814
15016		8.438022	-2.239466	4.506113	-0.000494	0.019338	0.008463	-1.199463	0.166748	0.259766	0.020087	-0.505665	0.121550	-0.853888
15017		8.393837	-2.239877	4.490356	-0.003163	0.014070	0.005992	-1.205322	0.153564	0.266113	0.020103	-0.505568	0.121596	-0.853939
15018		8.406953	-2.243842	4.493968	-0.002959	0.009481	0.002563	-1.198730	0.155273	0.268555	0.020086	-0.505518	0.121619	-0.853965
15019		8.406685	-2.226762	4.518653	-0.000460	0.006665	-0.000815	-1.196045	0.151855	0.258301	0.020065	-0.505491	0.121615	-0.853982
15020		8.420670	-2.221277	4.533184	-0.006231	0.004232	-0.002185	-1.205566	0.156982	0.265381	0.020008	-0.505466	0.121638	-0.853995
15021		8.419766	-2.264562	4.474129	-0.006789	-0.000828	-0.005265	-1.202637	0.160156	0.260010	0.019932	-0.505493	0.121656	-0.853979
15022		8.420572	-2.246440	4.497323	-0.005309	-0.002038	-0.012538	-1.206299	0.158691	0.256836	0.019824	-0.505524	0.121638	-0.853965
15023		8.413422	-2.284839	4.490019	-0.005163	-0.002265	-0.017358	-1.198975	0.167236	0.255615	0.019676	-0.505554	0.121596	-0.853957
15024		8.422133	-2.251059	4.484271	-0.004780	-0.005646	-0.021224	-1.200195	0.157227	0.259277	0.019544	-0.505603	0.121551	-0.853938
15025		8.441381	-2.231537	4.488864	-0.005952	-0.004174	-0.021400	-1.212158	0.159424	0.262451	0.019372	-0.505658	0.121507	-0.853915
15026		8.427820	-2.251827	4.450511	-0.009250	-0.003628	-0.023158	-1.206055	0.162842	0.261963	0.019176	-0.505719	0.121481	-0.853887
15027		8.432928	-2.220603	4.465059	-0.006354	-0.001872	-0.020830	-1.214844	0.155273	0.265381	0.019029	-0.505766	0.121454	-0.853866
15028		8.444930	-2.184180	4.439434	-0.008275	-0.000156	-0.018463	-1.201172	0.161133	0.259521	0.018856	-0.505817	0.121439	-0.853842
15029		8.462458	-2.222775	4.468946	-0.004248	0.005567	-0.014059	-1.206543	0.164307	0.264404	0.018756	-0.505799	0.121424	-0.853857
15030		8.437825	-2.195251	4.469207	-0.004445	0.010872	-0.008433	-1.209717	0.153809	0.255859	0.018708	-0.505762	0.121442	-0.853877
15031		8.437267	-2.185985	4.482680	-0.006011	0.015363	-0.005836	-1.202148	0.155029	0.260254	0.018605	-0.505658	0.121459	-0.853939
15032		8.442907	-2.220331	4.491550	-0.003055	0.012760	-0.002114	-1.208008	0.158203	0.265381	0.018554	-0.505589	0.121471	-0.853979
15033		8.431818	-2.196950	4.494520	-0.003067	0.012043	-0.004310	-1.201660	0.153564	0.263184	0.018511	-0.505556	0.121481	-0.853998
15034		8.412848	-2.213865	4.490759	-0.002274	0.014308	0.000827	-1.208008	0.155518	0.253906	0.018476	-0.505491	0.121495	-0.854035
15035		8.429796	-2.197306	4.498138	-0.002442	0.013457	0.002358	-1.195068	0.156006	0.260498	0.018454	-0.505374	0.121519	-0.854102
15036		8.414661	-2.194649	4.497650	-0.001449	0.010419	0.001868	-1.209229	0.156494	0.264160	0.018458	-0.505319	0.121539	-0.854132
15037		8.410033	-2.206444	4.507513	0.001262	0.010610	0.003539	-1.201416	0.158936	0.255615	0.018475	-0.505291	0.121544	-0.854147
15038		8.409203	-2.207025	4.508776	-0.000613	0.007247	0.005104	-1.214844	0.156494	0.254639	0.018521	-0.505216	0.121574	-0.854186
15039		8.422465	-2.219554	4.500089	-0.001199	0.007983	0.005016	-1.207275	0.156982	0.252441	0.018522	-0.505135	0.121594	-0.854231
15040		8.407428	-2.225983	4.487105	-0.002137	0.006301	0.005798	-1.207520	0.159424	0.268066	0.018538	-0.505044	0.121627	-0.854279
15041		8.413762	-2.243988	4.518328	-0.000569	0.001811	0.003204	-1.205078	0.160889	0.259521	0.018586	-0.505116	0.121653	-0.854233
15042		8.403331	-2.229718	4.507750	-0.000357	-0.002775	-0.000227	-1.199463	0.161377	0.268555	0.018625	-0.505148	0.121665	-0.854211
15043		8.417814	-2.232649	4.509337	-0.003078	-0.003683	-0.004094	-1.204834	0.162354	0.260986	0.018656	-0.505270	0.121686	-0.854135
15044		8.425393	-2.226928	4.468323	-0.001125	-0.003606	-0.000977	-1.215332	0.159912	0.254883	0.018709	-0.505315	0.121709	-0.854104
15045		8.439933	-2.212865	4.493824	-0.003285	0.001261	0.000434	-1.206787	0.170410	0.256592	0.018707	-0.505271	0.121741	-0.854126
15046		8.418162	-2.232947	4.508540	-0.002692	0.000884	0.001618	-1.208252	0.161133	0.257812	0.018842	-0.505231	0.121814	-0.854136
15047		8.449873	-2.245384	4.480673	-0.004053	0.000430	-0.000315	-1.207275	0.152344	0.256104	0.018858	-0.505219	0.121853	-0.854137
15048		8.457226	-2.222825	4.464034	-0.000400	0.002661	0.001672	-1.208008	0.159424	0.261719	0.018792	-0.505181	0.121848	-0.854162
15049		8.434862	-2.251390	4.467853	0.002020	0.010723	0.002095	-1.205566	0.161133	0.257568	0.018833	-0.505139	0.121846	-0.854186
15050		8.448283	-2.245758	4.483483	0.004302	0.011783	-0.000046	-1.207520	0.161377	0.264404	0.018879	-0.505049	0.121832	-0.854240
15051		8.422986	-2.210588	4.496540	0.003310	0.014820	0.000440	-1.207031	0.159668	0.267822	0.018946	-0.505014	0.121820	-0.854261
15052		8.424513	-2.247920	4.526371	0.005802	0.019238	0.004445	-1.204590	0.152588	0.253174	0.019040	-0.504987	0.121795	-0.854278
15053		8.437426	-2.219682	4.472608	0.006102	0.026372	0.003275	-1.209961	0.156006	0.262207	0.018975	-0.504756	0.121755	-0.854422
15054		8.413771	-2.222276	4.514984	0.008237	0.028013	0.007049	-1.204102	0.158203	0.260010	0.019018	-0.504615	0.121716	-0.854510
15055		8.403647	-2.254159	4.524321	0.007835	0.030313	0.007615	-1.209229	0.161865	0.248535	0.019088	-0.504437	0.121698	-0.854616
15056		8.419173	-2.237482	4.534432	0.008591	0.030066	0.005069	-1.195312	0.162109	0.252686	0.019144	-0.504123	0.121686	-0.854802
15057		8.395989	-2.208624	4.517810	0.007067	0.029119	0.005757	-1.208740	0.158203	0.261475	0.019244	-0.503882	0.121691	-0.854941
15058		8.385916	-2.231752	4.539066	0.006665	0.031419	0.006322	-1.199463	0.164551	0.253906	0.019297	-0.503741	0.121666	-0.855026
15059		8.393931	-2.229288	4.577770	0.006487	0.029851	0.005656	-1.209229	0.153320	0.253174	0.019428	-0.503519	0.121679	-0.855153
15060		8.356032	-2.246015	4.593810	0.002517	0.019414	0.001553	-1.207764	0.159668	0.255127	0.019328	-0.503381	0.121646	-0.855240
15061		8.376475	-2.234952	4.569617	0.000849	0.011471	-0.000299	-1.200684	0.162109	0.254395	0.019329	-0.503322	0.121643	-0.855276
15062		8.375748	-2.252175	4.547036	-0.004108	0.004431	-0.002822	-1.207275	0.165527	0.253906	0.019351	-0.503312	0.121678	-0.855276
15063		8.379638	-2.231676	4.550682	-0.003718	0.000696	-0.007774	-1.206543	0.162354	0.254639	0.019385	-0.503316	0.121698	-0.855270
15064		8.369874	-2.190990	4.575083	-0.009413	-0.004306	-0.002280	-1.201416	0.166992	0.258057	0.019392	-0.503365	0.121768	-0.855231
15065		8.384205	-2.237657	4.516882	-0.009957	-0.009004	-0.004258	-1.201660	0.164795	0.251465	0.019493	-0.503494	0.121846	-0.855142
15066		8.399487	-2.223555	4.540876	-0.010905	-0.011401	-0.005667	-1.200195	0.164062	0.256348	0.019501	-0.503546	0.121931	-0.855099
15067		8.358350	-2.205641	4.543911	-0.011441	-0.015383	-0.005456	-1.207031	0.164551	0.255615	0.019536	-0.503700	0.122004	-0.854997
15068		8.387998	-2.221159	4.533439	-0.016367	-0.019917	-0.000313	-1.208008	0.151855	0.259766	0.019585	-0.503852	0.122131	-0.854888
15069		8.403533	-2.242650	4.508479	-0.013844	-0.021652	-0.000396	-1.212158	0.163086	0.258057	0.019441	-0.504090	0.122177	-0.854745
15070		8.425941	-2.281196	4.513970	-0.015381	-0.023673	-0.002997	-1.207031	0.152100	0.245361	0.019457	-0.504286	0.122273	-0.854615
15071		8.410774	-2.250092	4.468797	-0.014793	-0.024410	-0.002913	-1.207031	0.157471	0.249268	0.019192	-0.504319	0.122365	-0.854588
15072		8.413160	-2.216294	4.512099	-0.015554	-0.024884	-0.002572	-1.202881	0.158447	0.255859	0.019063	-0.504401	0.122471	-0.854527
15073		8.379224	-2.233454	4.520745	-0.011738	-0.022522	-0.004309	-1.206299	0.161621	0.265625	0.018999	-0.504565	0.122537	-0.854423
15074		8.431006	-2.220500	4.506798	-0.013838	-0.022019	-0.001515	-1.206299	0.157715	0.261719	0.019046	-0.504843	0.122626	-0.854245
15075		8.442431	-2.279022	4.454585	-0.009774	-0.021735	0.000996	-1.206543	0.154785	0.247314	0.019033	-0.505055	0.122689	-0.854110
15076		8.426454	-2.261813	4.493222	-0.008327	-0.017858	-0.005478	-1.210449	0.164551	0.261963	0.018843	-0.505036	0.122728	-0.854120
15077		8.459840	-2.273868	4.462430	-0.010613	-0.019278	-0.004441	-1.205566	0.160400	0.262451	0.018901	-0.505213	0.122798	-0.854004
15078		8.422846	-2.235703	4.468742	-0.008390	-0.013855	-0.007969	-1.207764	0.161865	0.259521	0.018874	-0.505371	0.122828	-0.853907
15079		8.434202	-2.258501	4.465509	-0.005138	-0.008967	-0.004303	-1.208252	0.157715	0.265381	0.018890	-0.505437	0.122858	-0.853863
15080		8.463141	-2.272923	4.456649	-0.004617	-0.005698	-0.006701	-1.202393	0.159912	0.256348	0.018841	-0.505567	0.122854	-0.853788
15081		8.421449	-2.237369	4.485347	-0.003301	0.000188	-0.002860	-1.207031	0.158203	0.262451	0.018825	-0.505528	0.122884	-0.853807
15082		8.477502	-2.283723	4.446739	-0.000319	0.006087	-0.006730	-1.212158	0.156494	0.266602	0.018780	-0.505532	0.122858	-0.853810
15083		8.445732	-2.244786	4.511351	0.001737	0.011018	-0.007627	-1.197266	0.166504	0.268066	0.018717	-0.505552	0.122800	-0.853807
15084		8.441615	-2.232314	4.450613	0.000936	0.016335	-0.004279	-1.200928	0.157959	0.259766	0.018872	-0.505563	0.122816	-0.853795
15085		8.429389	-2.256937	4.490167	0.004917	0.019554	-0.007544	-1.205566	0.156250	0.261719	0.018823	-0.505447	0.122762	-0.853872
15086		8.421543	-2.229551	4.474268	0.004918	0.019553	-0.007547	-1.206543	0.159424	0.260498	0.018756	-0.505359	0.122691	-0.853936
15087		8.420380	-2.211235	4.501101	0.003179	0.023186	-0.003423	-1.206055	0.159180	0.256592	0.018756	-0.505222	0.122666	-0.854021
15088		8.417924	-2.267776	4.528062	0.002404	0.021640	-0.006373	-1.197510	0.155029	0.253174	0.018710	-0.505052	0.122638	-0.854127
15089		8.410120	-2.231983	4.523999	0.004748	0.018341	-0.007121	-1.199707	0.163086	0.259033	0.018597	-0.504885	0.122590	-0.854235
15090		8.409054	-2.230831	4.526549	0.003639	0.015807	-0.004810	-1.206787	0.161865	0.261475	0.018679	-0.504807	0.122572	-0.854282
15091		8.397797	-2.206942	4.530025	-0.000763	0.013816	-0.004267	-1.207764	0.158447	0.263428	0.018726	-0.504769	0.122573	-0.854303
15092		8.379187	-2.206352	4.549693	-0.000110	0.009435	-0.000591	-1.210693	0.162842	0.256592	0.018760	-0.504790	0.122564	-0.854291
15093		8.392650	-2.226809	4.529037	-0.002929	0.004032	0.000654	-1.209717	0.158691	0.257080	0.018822	-0.504742	0.122607	-0.854312
15094		8.388804	-2.238418	4.537467	-0.002882	-0.001400	-0.001245	-1.200928	0.159424	0.258301	0.018814	-0.504750	0.122623	-0.854305
15095		8.389288	-2.238280	4.536640	-0.004367	-0.008494	-0.004648	-1.201904	0.159912	0.259277	0.018806	-0.504842	0.122646	-0.854247
15096		8.418690	-2.243932	4.539167	-0.006262	-0.013645	-0.008575	-1.205078	0.160889	0.258301	0.018781	-0.504982	0.122664	-0.854163
15097		8.434704	-2.215083	4.480015	-0.007595	-0.011956	-0.003929	-1.215332	0.154297	0.252686	0.018789	-0.505079	0.122715	-0.854098
15098		8.421524	-2.203474	4.488016	-0.003943	-0.009367	-0.000835	-1.206787	0.158447	0.258545	0.018686	-0.505070	0.122724	-0.854104
15099		8.428723	-2.238404	4.493644	-0.006461	-0.007280	0.000344	-1.206055	0.157227	0.259033	0.018684	-0.505130	0.122773	-0.854062
15100		8.436152	-2.256032	4.522938	-0.005886	-0.009086	-0.002862	-1.202881	0.164795	0.261963	0.018646	-0.505213	0.122801	-0.854009
15101		8.426500	-2.250005	4.499060	-0.003954	-0.010439	-0.004131	-1.200195	0.149170	0.254883	0.018746	-0.505335	0.122836	-0.853930
15102		8.448893	-2.238303	4.471305	-0.002670	-0.006696	-0.006877	-1.201904	0.156494	0.257812	0.018535	-0.505364	0.122816	-0.853920
15103		8.439085	-2.214472	4.472059	-0.000017	-0.001428	-0.004392	-1.196777	0.162109	0.253906	0.018490	-0.505377	0.122804	-0.853915
15104		8.431555	-2.245477	4.477061	-0.001419	0.003908	-0.003328	-1.210938	0.152100	0.257568	0.018533	-0.505305	0.122829	-0.853954
15105		8.431216	-2.244915	4.477981	0.003337	0.008675	-0.003642	-1.199219	0.158691	0.259033	0.018404	-0.505232	0.122780	-0.854006
15106		8.441269	-2.241238	4.513691	0.004446	0.011210	-0.005955	-1.207275	0.167236	0.259521	0.018410	-0.505180	0.122736	-0.854043
15107		8.412278	-2.234168	4.511135	0.002930	0.010975	-0.003068	-1.200928	0.160645	0.264648	0.018569	-0.505111	0.122726	-0.854082
15108		8.425774	-2.244905	4.502967	0.002915	0.009547	-0.007461	-1.208252	0.162842	0.262451	0.018618	-0.505143	0.122679	-0.854069
15109		8.428981	-2.232255	4.496220	0.002507	0.011847	-0.006887	-1.201172	0.161133	0.255615	0.018681	-0.505113	0.122640	-0.854091
15110		8.417748	-2.208408	4.499616	0.002117	0.015933	-0.000823	-1.207520	0.168945	0.263428	0.018718	-0.504978	0.122648	-0.854169
15111		8.426735	-2.231484	4.500810	0.003070	0.019044	0.002786	-1.203125	0.153809	0.253906	0.018956	-0.504900	0.122656	-0.854209
15112		8.368769	-2.193788	4.530451	0.002730	0.017697	0.006947	-1.208496	0.161621	0.250732	0.018902	-0.504736	0.122678	-0.854303
15113		8.377788	-2.200845	4.554933	-0.000843	0.012532	0.010732	-1.201660	0.153809	0.262695	0.018976	-0.504555	0.122757	-0.854398
15114		8.401048	-2.237368	4.545190	-0.002312	0.006867	0.011718	-1.208740	0.164551	0.261230	0.019009	-0.504586	0.122809	-0.854371
15115		8.403735	-2.244969	4.513966	-0.005016	0.006674	0.010035	-1.200439	0.168945	0.249756	0.019177	-0.504577	0.122890	-0.854361
15116		8.375133	-2.206127	4.557259	-0.005316	-0.000818	0.010103	-1.203369	0.164551	0.259766	0.019346	-0.504490	0.123022	-0.854389
15117		8.385123	-2.248707	4.531447	-0.010244	-0.006078	0.013045	-1.201660	0.163086	0.249756	0.019516	-0.504564	0.123154	-0.854323
15118		8.392869	-2.236860	4.501158	-0.011728	-0.013170	0.009639	-1.210693	0.160156	0.264404	0.019548	-0.504569	0.123316	-0.854296
15119		8.417829	-2.282525	4.475887	-0.012493	-0.014002	0.008885	-1.205078	0.157715	0.258057	0.019630	-0.504746	0.123413	-0.854175
15120		8.404779	-2.246859	4.518804	-0.010212	-0.013294	0.005651	-1.212158	0.166504	0.257324	0.019607	-0.504851	0.123505	-0.854100
15121		8.401714	-2.277019	4.501039	-0.009804	-0.015595	0.005074	-1.202148	0.158447	0.261230	0.019710	-0.504939	0.123604	-0.854032
15122		8.434693	-2.281811	4.482515	-0.009217	-0.016331	0.005160	-1.200684	0.164062	0.259277	0.019721	-0.505100	0.123682	-0.853925
15123		8.432012	-2.293944	4.488471	-0.008365	-0.012782	-0.004692	-1.200195	0.154297	0.257568	0.019731	-0.505213	0.123735	-0.853850
15124		8.436901	-2.282351	4.478082	-0.008193	-0.011929	-0.006225	-1.207031	0.165527	0.263428	0.019558	-0.505308	0.123771	-0.853793
15125		8.427479	-2.267274	4.466044	-0.005378	-0.006881	-0.008561	-1.203369	0.160645	0.260986	0.019594	-0.505412	0.123773	-0.853730
15126		8.424430	-2.277938	4.473451	-0.005609	-0.003372	-0.008419	-1.209961	0.164795	0.259277	0.019536	-0.505470	0.123780	-0.853696
15127		8.442781	-2.268482	4.466967	-0.001447	0.001417	-0.011011	-1.203613	0.164551	0.263672	0.019519	-0.505460	0.123753	-0.853706
15128		8.428821	-2.263838	4.465255	-0.000920	0.005044	-0.012311	-1.201904	0.168701	0.263916	0.019525	-0.505487	0.123712	-0.853696
15129		8.442986	-2.256596	4.480289	-0.000214	0.010237	-0.012947	-1.197998	0.161621	0.259033	0.019589	-0.505477	0.123675	-0.853706
15130		8.424802	-2.262921	4.488046	0.002069	0.011303	-0.015083	-1.199463	0.163086	0.260254	0.019502	-0.505421	0.123621	-0.853749
15131		8.414123	-2.229005	4.503226	0.003781	0.014529	-0.012914	-1.198242	0.163818	0.263916	0.019474	-0.505352	0.123558	-0.853800
15132		8.427350	-2.247572	4.483922	0.000508	0.016852	-0.009197	-1.202637	0.156982	0.259277	0.019506	-0.505309	0.123521	-0.853830
15133		8.416037	-2.222971	4.487882	0.002209	0.019009	-0.010323	-1.204346	0.157227	0.259277	0.019390	-0.505200	0.123470	-0.853904
15134		8.407530	-2.235861	4.519141	0.003393	0.018608	-0.006854	-1.196777	0.168213	0.259766	0.019314	-0.505092	0.123421	-0.853977
15135		8.406374	-2.243153	4.509952	0.003978	0.017517	-0.007866	-1.210205	0.158691	0.252930	0.019414	-0.505003	0.123386	-0.854032
15136		8.429958	-2.268127	4.513056	0.002103	0.014149	-0.006309	-1.198242	0.168945	0.265137	0.019311	-0.504851	0.123366	-0.854127
15137		8.412091	-2.218000	4.497728	0.001517	0.014883	-0.006400	-1.201172	0.162109	0.258789	0.019479	-0.504845	0.123327	-0.854133
15138		8.393500	-2.199551	4.541569	0.002105	0.014148	-0.006312	-1.204346	0.165283	0.260498	0.019484	-0.504775	0.123298	-0.854178
15139		8.388567	-2.244908	4.504504	0.001768	0.013869	0.001145	-1.202148	0.162842	0.257080	0.019610	-0.504713	0.123293	-0.854213
15140		8.380266	-2.250652	4.546522	-0.001464	0.009693	-0.000335	-1.210693	0.169922	0.256592	0.019640	-0.504652	0.123320	-0.854244
15141		8.415524	-2.234206	4.535084	-0.002341	0.004006	0.002936	-1.199463	0.158691	0.255615	0.019798	-0.504607	0.123364	-0.854261
15142		8.397219	-2.251742	4.529749	-0.002518	0.002441	0.002272	-1.202637	0.149902	0.260498	0.019764	-0.504588	0.123416	-0.854265
15143		8.414919	-2.252586	4.511725	-0.004984	-0.000548	0.002643	-1.201172	0.155029	0.257080	0.019652	-0.504648	0.123443	-0.854228
15144		8.418690	-2.233148	4.515017	-0.004223	-0.000430	0.001200	-1.208252	0.160889	0.269531	0.019572	-0.504667	0.123486	-0.854213
15145		8.414865	-2.236727	4.535065	-0.006155	0.001276	0.003562	-1.202393	0.163330	0.260742	0.019701	-0.504789	0.123496	-0.854136
15146		8.400203	-2.260366	4.497520	-0.005038	0.004524	0.003446	-1.208984	0.164795	0.250244	0.019782	-0.504797	0.123548	-0.854122
15147		8.410163	-2.275616	4.508464	-0.002340	0.004005	0.002936	-1.204346	0.156738	0.257080	0.019788	-0.504688	0.123620	-0.854176
15148		8.427838	-2.267435	4.502659	-0.002350	0.002224	-0.002555	-1.206055	0.161865	0.264893	0.019712	-0.504685	0.123629	-0.854178
15149		8.431325	-2.247283	4.506852	-0.001640	0.008127	-0.000999	-1.196777	0.159180	0.259277	0.019786	-0.504712	0.123613	-0.854163
15150		8.398539	-2.261224	4.500196	-0.000110	0.009789	0.000508	-1.208496	0.161133	0.253174	0.019784	-0.504682	0.123628	-0.854178
15151		8.422320	-2.278621	4.514398	0.001001	0.011968	-0.002903	-1.203369	0.164307	0.263184	0.019738	-0.504562	0.123629	-0.854250
15152		8.397172	-2.251804	4.515098	0.000057	0.009216	-0.005419	-1.203857	0.156982	0.267822	0.019803	-0.504572	0.123598	-0.854247
15153		8.400317	-2.256219	4.484723	0.005570	0.013034	-0.010464	-1.205566	0.159424	0.249268	0.019803	-0.504613	0.123472	-0.854241
15154		8.395993	-2.257331	4.506895	-0.000416	0.014092	-0.011735	-1.203857	0.162109	0.253906	0.019631	-0.504457	0.123465	-0.854338
15155		8.419872	-2.290142	4.497991	0.003984	0.015375	-0.014468	-1.211670	0.161377	0.252930	0.019542	-0.504345	0.123401	-0.854416
15156		8.426815	-2.255949	4.495708	0.006448	0.017294	-0.018137	-1.204834	0.159180	0.256348	0.019428	-0.504207	0.123292	-0.854515
15157		8.411835	-2.232684	4.520344	0.006570	0.023572	-0.017778	-1.209717	0.148682	0.253662	0.019314	-0.504073	0.123179	-0.854614
15158		8.392757	-2.229421	4.542009	0.005574	0.025889	-0.019501	-1.204102	0.157471	0.259766	0.019042	-0.503905	0.123049	-0.854737
15159		8.405714	-2.246436	4.524298	0.007514	0.024895	-0.019670	-1.202881	0.159180	0.250000	0.018934	-0.503806	0.122911	-0.854818
15160		8.412035	-2.237559	4.487777	0.007517	0.025606	-0.017479	-1.204834	0.156494	0.261475	0.018807	-0.503612	0.122811	-0.854950
15161		8.392830	-2.217554	4.533077	0.004290	0.023210	-0.013472	-1.213135	0.160889	0.250488	0.018739	-0.503543	0.122716	-0.855005
15162		8.391687	-2.215167	4.536359	0.003530	0.021663	-0.016428	-1.207275	0.161621	0.257080	0.018644	-0.503376	0.122634	-0.855118
15163		8.390500	-2.187170	4.575034	0.004525	0.020772	-0.010317	-1.203857	0.165527	0.255859	0.018648	-0.503279	0.122565	-0.855184
15164		8.346854	-2.185435	4.559291	0.002466	0.017624	-0.003925	-1.210449	0.164062	0.249268	0.018732	-0.503191	0.122550	-0.855236
15165		8.366686	-2.213774	4.582440	0.000237	0.011128	-0.003685	-1.205322	0.159424	0.252441	0.018757	-0.503085	0.122557	-0.855297
15166		8.337983	-2.190348	4.602330	-0.004811	-0.000416	-0.001097	-1.202637	0.153076	0.248291	0.018760	-0.503102	0.122596	-0.855282
15167		8.388436	-2.211363	4.544220	-0.007218	-0.007763	0.000679	-1.200928	0.150391	0.253418	0.018671	-0.503139	0.122663	-0.855252
15168		8.367387	-2.214795	4.580667	-0.009096	-0.011486	0.001143	-1.206055	0.162109	0.253662	0.018581	-0.503252	0.122730	-0.855178
15169		8.390104	-2.213348	4.540173	-0.014027	-0.016754	0.004082	-1.205322	0.163574	0.257568	0.018636	-0.503383	0.122855	-0.855082
15170		8.383754	-2.237642	4.553963	-0.010561	-0.017151	0.002132	-1.209717	0.159668	0.250732	0.018726	-0.503549	0.122942	-0.854970
15171		8.388648	-2.218945	4.554712	-0.010739	-0.017291	0.005862	-1.204590	0.158936	0.257568	0.018754	-0.503645	0.123051	-0.854897
15172		8.407712	-2.229563	4.521938	-0.014377	-0.018460	0.007144	-1.202881	0.165527	0.249756	0.018804	-0.503813	0.123180	-0.854778
15173		8.401447	-2.245859	4.547108	-0.013963	-0.021115	0.005470	-1.203613	0.161865	0.258057	0.018872	-0.503925	0.123330	-0.854689
15174		8.417166	-2.258924	4.533868	-0.010673	-0.023433	0.001755	-1.203613	0.156494	0.252686	0.018932	-0.504128	0.123415	-0.854556
15175		8.394286	-2.233738	4.529415	-0.012432	-0.021948	-0.000721	-1.204590	0.158936	0.256348	0.018866	-0.504276	0.123509	-0.854456
15176		8.413687	-2.209009	4.543848	-0.008618	-0.018147	0.001952	-1.208008	0.166016	0.262939	0.018880	-0.504417	0.123582	-0.854362
15177		8.421769	-2.270246	4.512065	-0.010317	-0.021020	0.000873	-1.201416	0.162598	0.261475	0.018994	-0.504622	0.123654	-0.854228
15178		8.420177	-2.233797	4.481956	-0.013076	-0.015790	0.001081	-1.201660	0.161621	0.266113	0.019045	-0.504784	0.123753	-0.854117
15179		8.413578	-2.249447	4.508158	-0.008498	-0.010802	0.005612	-1.201416	0.161133	0.259521	0.019157	-0.504941	0.123824	-0.854011
15180		8.414211	-2.233427	4.530214	-0.008736	-0.008718	0.001353	-1.209961	0.164551	0.262939	0.019182	-0.505028	0.123900	-0.853948
15181		8.414790	-2.259875	4.493063	-0.007975	-0.008598	-0.000091	-1.205322	0.160889	0.258789	0.019261	-0.505130	0.123947	-0.853879
15182		8.419193	-2.240404	4.495138	-0.007974	-0.008599	-0.000092	-1.202393	0.153564	0.265381	0.019267	-0.505202	0.124008	-0.853827
15183		8.419742	-2.223801	4.517669	-0.005511	-0.005251	0.000641	-1.202881	0.156006	0.253662	0.019260	-0.505314	0.124023	-0.853760
15184		8.416280	-2.261582	4.489412	-0.005510	-0.004896	0.001740	-1.204102	0.166016	0.256104	0.019195	-0.505317	0.124088	-0.853750
15185		8.412773	-2.265085	4.508897	-0.003810	-0.002380	0.001719	-1.204590	0.161377	0.264893	0.019253	-0.505312	0.124150	-0.853742
15186		8.412429	-2.322509	4.531571	-0.005930	-0.006151	-0.008680	-1.208496	0.160889	0.260254	0.019244	-0.505422	0.124145	-0.853678
15187		8.421591	-2.240807	4.490442	-0.004410	-0.006621	-0.013767	-1.201416	0.160889	0.265137	0.019172	-0.505495	0.124117	-0.853641
15188		8.415671	-2.213378	4.470925	-0.003294	-0.002305	-0.010580	-1.210205	0.165039	0.255859	0.019152	-0.505579	0.124091	-0.853595
15189		8.447380	-2.264299	4.490236	-0.002181	0.001300	-0.009591	-1.202637	0.156982	0.258789	0.019119	-0.505547	0.124089	-0.853615
15190		8.433334	-2.268605	4.476548	-0.003007	0.005184	-0.010639	-1.205811	0.162598	0.257080	0.019014	-0.505528	0.124074	-0.853631
15191		8.422913	-2.244075	4.478693	-0.000134	0.005880	-0.011581	-1.203125	0.161133	0.273193	0.018959	-0.505483	0.124046	-0.853663
15192		8.436995	-2.228469	4.505583	0.000042	0.007800	-0.009815	-1.207275	0.168945	0.260742	0.019008	-0.505555	0.123976	-0.853629
15193		8.404609	-2.224024	4.522698	0.000979	0.010196	-0.008393	-1.196533	0.152344	0.255127	0.019054	-0.505498	0.123957	-0.853665
15194		8.404072	-2.240299	4.500331	-0.001305	0.009832	-0.004063	-1.202637	0.157471	0.254150	0.018924	-0.505420	0.123975	-0.853711
15195		8.421164	-2.231479	4.495886	-0.000781	0.014525	-0.002065	-1.201904	0.165283	0.259766	0.018860	-0.505291	0.123998	-0.853786
15196		8.388262	-2.193939	4.560890	-0.000128	0.009431	-0.000584	-1.203857	0.163818	0.261230	0.018928	-0.505239	0.124015	-0.853813
15197		8.408856	-2.274306	4.511086	-0.004048	-0.000297	-0.002541	-1.197998	0.164062	0.254883	0.018972	-0.505270	0.124040	-0.853790
15198		8.427280	-2.199899	4.493712	-0.003350	0.006316	0.001224	-1.207520	0.159180	0.263428	0.018994	-0.505205	0.124106	-0.853818
15199		8.365745	-2.214795	4.576496	-0.004223	0.000980	0.005594	-1.203613	0.161621	0.264160	0.019066	-0.505236	0.124146	-0.853792
15200		8.401325	-2.233413	4.516506	-0.006683	-0.001659	0.007057	-1.203125	0.162109	0.255371	0.019165	-0.505291	0.124216	-0.853747
15201		8.429507	-2.249702	4.508426	-0.008206	-0.002257	0.008843	-1.208008	0.166992	0.255859	0.019209	-0.505280	0.124336	-0.853735
15202		8.400811	-2.293375	4.538291	-0.001223	-0.010595	-0.003566	-1.194336	0.161621	0.253906	0.019253	-0.505335	0.124350	-0.853700
15203		8.416822	-2.255582	4.491414	-0.008318	-0.013508	-0.006935	-1.195801	0.155029	0.262207	0.019173	-0.505416	0.124417	-0.853643
15204		8.421711	-2.243852	4.481065	-0.008143	-0.011589	-0.005170	-1.205322	0.163330	0.257568	0.019098	-0.505546	0.124456	-0.853562
15205		8.426300	-2.223732	4.483090	-0.006269	-0.007152	-0.003423	-1.206055	0.160156	0.263916	0.019095	-0.505591	0.124499	-0.853530
15206		8.415711	-2.249601	4.518793	-0.006508	-0.004001	-0.004379	-1.204590	0.163330	0.263428	0.019087	-0.505661	0.124519	-0.853486
15207		8.412494	-2.278056	4.502403	-0.005333	-0.005466	-0.004200	-1.197021	0.162842	0.260742	0.019115	-0.505735	0.124537	-0.853438
15208		8.445317	-2.288872	4.473623	-0.003812	-0.006996	-0.012591	-1.206055	0.165527	0.259766	0.019068	-0.505816	0.124525	-0.853393
15209		8.414396	-2.267071	4.511984	-0.003986	-0.008916	-0.014361	-1.204346	0.162109	0.255127	0.019030	-0.505892	0.124502	-0.853352
15210		8.422956	-2.242268	4.494199	-0.001701	-0.007130	-0.014292	-1.211426	0.156250	0.265625	0.018933	-0.505923	0.124480	-0.853340
15211		8.427593	-2.237280	4.473286	-0.002356	-0.002391	-0.016872	-1.208740	0.166504	0.268066	0.018826	-0.505995	0.124408	-0.853310
15212		8.449611	-2.232274	4.435313	-0.001314	0.006286	-0.015066	-1.198486	0.166016	0.265381	0.018842	-0.506017	0.124341	-0.853306
15213		8.410113	-2.216145	4.516329	-0.000379	0.009037	-0.012541	-1.203613	0.162109	0.259766	0.018857	-0.506008	0.124296	-0.853318
15214		8.413493	-2.211867	4.497411	0.000036	0.008868	-0.006514	-1.200928	0.167236	0.267090	0.018841	-0.505950	0.124285	-0.853354
15215		8.395115	-2.211121	4.516692	0.000624	0.009200	-0.003121	-1.199463	0.160400	0.256592	0.018956	-0.505941	0.124261	-0.853360
15216		8.422878	-2.234107	4.498409	-0.002421	0.008000	0.000454	-1.198486	0.156738	0.258789	0.018931	-0.505864	0.124316	-0.853398
15217		8.411899	-2.202782	4.512531	-0.001591	0.004116	0.001499	-1.207031	0.163574	0.252686	0.018910	-0.505836	0.124354	-0.853410
15218		8.400457	-2.237736	4.537762	-0.001177	0.002529	0.003123	-1.209961	0.157227	0.264160	0.018926	-0.505761	0.124413	-0.853446
15219		8.397209	-2.209342	4.498956	-0.004222	-0.000091	0.002294	-1.208740	0.161133	0.257080	0.018952	-0.505791	0.124438	-0.853423
15220		8.411201	-2.196692	4.524512	-0.007028	-0.002669	0.012329	-1.196289	0.162354	0.255615	0.019025	-0.505777	0.124554	-0.853413
15221		8.403700	-2.256081	4.492611	-0.007374	-0.005798	0.010992	-1.208984	0.154541	0.257812	0.019091	-0.505788	0.124682	-0.853386
15222		8.389738	-2.263604	4.477163	-0.008481	-0.009759	0.008896	-1.208984	0.162354	0.262207	0.019075	-0.505835	0.124789	-0.853343
15223		8.414987	-2.274173	4.499705	-0.009415	-0.013219	0.004165	-1.205811	0.164062	0.266602	0.019126	-0.505938	0.124871	-0.853269
15224		8.447966	-2.286710	4.469725	-0.007305	-0.014060	0.000264	-1.198486	0.157959	0.258545	0.019200	-0.506081	0.124911	-0.853177
15225		8.420617	-2.272466	4.475282	-0.008721	-0.010507	-0.004174	-1.201416	0.160156	0.270508	0.019125	-0.506156	0.124972	-0.853125
15226		8.414668	-2.229485	4.478818	-0.006437	-0.008012	-0.001900	-1.199707	0.162842	0.257568	0.019165	-0.506286	0.124990	-0.853044
15227		8.425698	-2.252827	4.476127	-0.008788	-0.005082	-0.002257	-1.205322	0.162354	0.270264	0.019135	-0.506306	0.125065	-0.853022
15228		8.443665	-2.261817	4.445784	-0.005810	0.002962	0.000493	-1.207031	0.160645	0.255615	0.019199	-0.506346	0.125090	-0.852994
15229		8.407436	-2.245338	4.506266	-0.003179	0.008585	0.004108	-1.208008	0.163574	0.257812	0.019184	-0.506240	0.125156	-0.853047
15230		8.417207	-2.277574	4.493830	-0.003941	0.007045	0.001146	-1.200195	0.162598	0.260498	0.019190	-0.506163	0.125206	-0.853085
15231		8.441349	-2.295298	4.507240	-0.001831	0.006560	-0.001653	-1.210449	0.156006	0.262451	0.019198	-0.506120	0.125224	-0.853108
15232		8.441381	-2.263057	4.449489	-0.001725	0.012133	-0.003470	-1.198975	0.158936	0.254639	0.019129	-0.506045	0.125225	-0.853154
15233		8.440426	-2.245500	4.475359	0.001667	0.017171	-0.003503	-1.203613	0.159424	0.267090	0.019066	-0.505895	0.125226	-0.853244
15234		8.417789	-2.281694	4.468350	0.002429	0.016586	-0.007151	-1.201904	0.167969	0.259033	0.019046	-0.505831	0.125175	-0.853290
15235		8.445171	-2.294833	4.463326	0.002778	0.018297	-0.010220	-1.205322	0.156982	0.265625	0.019053	-0.505707	0.125122	-0.853371
15236		8.433695	-2.261190	4.479619	0.005999	0.020709	-0.014228	-1.202637	0.162598	0.255371	0.018967	-0.505614	0.125018	-0.853443
15237		8.418450	-2.230248	4.516233	0.003890	0.020484	-0.013637	-1.201172	0.158447	0.261719	0.018886	-0.505460	0.124952	-0.853546
15238		8.417514	-2.245497	4.495168	0.003194	0.016706	-0.008605	-1.201660	0.164795	0.260254	0.018839	-0.505374	0.124898	-0.853606
15239		8.412762	-2.247019	4.517948	0.004129	0.018747	-0.008282	-1.201660	0.157471	0.264404	0.018854	-0.505263	0.124838	-0.853680
15240		8.397484	-2.225439	4.542240	0.002022	0.017814	-0.009893	-1.203857	0.161621	0.259521	0.018800	-0.505192	0.124780	-0.853732
15241		8.404048	-2.218207	4.504284	0.001499	0.014893	-0.006393	-1.202148	0.166260	0.260986	0.018788	-0.505104	0.124748	-0.853789
15242		8.381697	-2.237410	4.520422	0.000216	0.010786	-0.004752	-1.213867	0.154053	0.259521	0.018843	-0.505056	0.124724	-0.853819
15243		8.399087	-2.219791	4.527371	-0.003174	0.005747	-0.004719	-1.208740	0.163574	0.260254	0.018754	-0.505027	0.124730	-0.853837
15244		8.391414	-2.251203	4.532603	-0.002765	0.004868	-0.000890	-1.208008	0.163086	0.246094	0.018792	-0.505008	0.124746	-0.853846
15245		8.409152	-2.251213	4.515004	-0.003109	0.001740	-0.002226	-1.208496	0.156494	0.259521	0.018746	-0.504925	0.124792	-0.853889
15246		8.427092	-2.242485	4.508945	-0.003279	-0.000178	-0.003995	-1.203369	0.167480	0.264648	0.018695	-0.504944	0.124802	-0.853878
15247		8.402733	-2.250247	4.460525	-0.003105	0.001032	-0.004429	-1.202881	0.156982	0.254395	0.018771	-0.504987	0.124795	-0.853851
15248		8.431007	-2.247298	4.477060	-0.002759	0.003805	-0.004195	-1.208496	0.163818	0.263184	0.018705	-0.504951	0.124812	-0.853871
15249		8.441423	-2.261201	4.487899	-0.001406	0.002843	-0.006649	-1.201172	0.157471	0.249512	0.018723	-0.504971	0.124789	-0.853863
15250		8.398815	-2.225795	4.517310	-0.000818	0.002112	-0.006558	-1.201904	0.156982	0.258545	0.018635	-0.504922	0.124792	-0.853893
15251		8.413096	-2.236593	4.507860	-0.003516	0.002618	-0.006057	-1.205811	0.163330	0.264160	0.018577	-0.504924	0.124797	-0.853892
15252		8.427302	-2.255942	4.486746	-0.001060	0.005616	-0.006415	-1.211426	0.159424	0.257568	0.018600	-0.504932	0.124771	-0.853891
15253		8.409006	-2.221082	4.552924	-0.001995	0.003928	-0.005640	-1.206055	0.167236	0.256836	0.018555	-0.504908	0.124769	-0.853907
15254		8.434353	-2.231656	4.471557	-0.001067	0.006679	-0.003111	-1.203613	0.155762	0.261475	0.018605	-0.504860	0.124768	-0.853934
15255		8.412042	-2.234489	4.510870	0.000032	0.010992	0.000086	-1.204346	0.163574	0.256348	0.018601	-0.504813	0.124768	-0.853962
15256		8.414714	-2.223086	4.504499	0.002480	0.015053	0.003032	-1.197510	0.159912	0.250488	0.018669	-0.504701	0.124771	-0.854026
15257		8.420364	-2.258025	4.513282	-0.000563	0.012785	0.003297	-1.206299	0.157959	0.253418	0.018682	-0.504582	0.124806	-0.854091
15258		8.405230	-2.255243	4.512763	0.002730	0.010839	0.000685	-1.204102	0.166504	0.257080	0.018673	-0.504489	0.124805	-0.854147
15259		8.432629	-2.252695	4.530713	0.000031	0.011345	0.001184	-1.210205	0.155273	0.259521	0.018756	-0.504415	0.124808	-0.854188
15260		8.411014	-2.240658	4.487618	0.001561	0.011593	-0.001704	-1.203613	0.166748	0.262451	0.018716	-0.504353	0.124798	-0.854227
15261		8.402737	-2.263316	4.505871	0.001735	0.012802	-0.002139	-1.201416	0.160400	0.261475	0.018801	-0.504305	0.124767	-0.854258
15262		8.405538	-2.251324	4.499576	0.001910	0.014011	-0.002574	-1.203613	0.165771	0.257812	0.018828	-0.504249	0.124738	-0.854295
15263		8.386662	-2.250685	4.519505	0.003264	0.013403	-0.003927	-1.198486	0.161377	0.258789	0.018880	-0.504174	0.124697	-0.854343
15264		8.385913	-2.241422	4.533003	-0.000710	0.008741	-0.005088	-1.209229	0.163330	0.256348	0.018887	-0.504149	0.124678	-0.854361
15265		8.410476	-2.274646	4.522980	0.003361	0.005857	-0.012445	-1.199463	0.159424	0.249023	0.018850	-0.504125	0.124605	-0.854387
15266		8.421772	-2.246719	4.487219	-0.000097	0.005530	-0.012708	-1.202393	0.158447	0.255371	0.018744	-0.504073	0.124572	-0.854424
15267		8.399811	-2.222080	4.561790	0.001436	0.005777	-0.015597	-1.205566	0.159424	0.259766	0.018645	-0.504058	0.124503	-0.854445
15268		8.382114	-2.237270	4.556646	-0.002208	0.005303	-0.012120	-1.204590	0.157227	0.255371	0.018580	-0.504065	0.124465	-0.854449
15269		8.414473	-2.247121	4.529680	-0.001615	0.004217	-0.013130	-1.203613	0.161133	0.252930	0.018477	-0.504056	0.124428	-0.854461
15270		8.400451	-2.242458	4.528008	-0.002203	0.004948	-0.013224	-1.200684	0.160889	0.252441	0.018400	-0.504030	0.124395	-0.854483
15271		8.386509	-2.237578	4.526292	-0.000255	0.003256	-0.015585	-1.198486	0.159180	0.250488	0.018321	-0.504020	0.124337	-0.854499
15272		8.418914	-2.230017	4.522840	-0.003890	0.002072	-0.014313	-1.205566	0.162598	0.251465	0.018220	-0.504010	0.124313	-0.854511
15273		8.390764	-2.205424	4.542194	-0.001546	-0.000142	-0.011737	-1.204346	0.152832	0.253174	0.018174	-0.504009	0.124280	-0.854517
15274		8.391224	-2.204012	4.542031	-0.005003	-0.000472	-0.012001	-1.204346	0.164062	0.256348	0.018025	-0.504023	0.124283	-0.854511
15275		8.416961	-2.180121	4.507390	-0.005377	-0.000765	-0.004517	-1.210205	0.159912	0.255859	0.018058	-0.504049	0.124293	-0.854494
15276		8.377604	-2.208802	4.527452	-0.003284	0.000879	-0.000698	-1.207275	0.161621	0.254150	0.018065	-0.504048	0.124318	-0.854490
15277		8.387866	-2.215230	4.549784	-0.006167	0.000881	0.002439	-1.210449	0.157471	0.258545	0.018099	-0.504039	0.124375	-0.854487
15278		8.387926	-2.216443	4.549083	-0.008735	-0.006979	0.006833	-1.209229	0.162109	0.252686	0.018129	-0.504102	0.124469	-0.854436
15279		8.395342	-2.261237	4.542338	-0.011946	-0.010813	0.006428	-1.202393	0.156006	0.256348	0.018170	-0.504161	0.124586	-0.854383
15280		8.407279	-2.236683	4.503625	-0.010755	-0.013337	0.003305	-1.200439	0.158447	0.250244	0.018167	-0.504268	0.124678	-0.854306
15281		8.407766	-2.221245	4.525359	-0.011948	-0.010461	0.007527	-1.212158	0.163330	0.255615	0.018192	-0.504319	0.124801	-0.854258
15282		8.379775	-2.200334	4.542699	-0.007668	-0.013305	0.011047	-1.202148	0.157959	0.254639	0.018292	-0.504398	0.124905	-0.854194
15283		8.412349	-2.288636	4.512143	-0.013228	-0.014570	0.009166	-1.204102	0.165771	0.260010	0.018328	-0.504495	0.125040	-0.854116
15284		8.448916	-2.281861	4.485909	-0.010000	-0.012152	0.005160	-1.199951	0.161621	0.252930	0.018431	-0.504602	0.125118	-0.854039
15285		8.417453	-2.271668	4.511484	-0.008469	-0.011901	0.002271	-1.196777	0.149170	0.258789	0.018463	-0.504676	0.125187	-0.853984
15286		8.422053	-2.260906	4.501183	-0.007873	-0.013339	0.000157	-1.202881	0.164307	0.259521	0.018384	-0.504794	0.125259	-0.853906
15287		8.437295	-2.281150	4.477737	-0.006412	-0.008727	-0.004123	-1.203613	0.159180	0.260498	0.018416	-0.504880	0.125275	-0.853852
15288		8.419863	-2.255325	4.530177	-0.005886	-0.005803	-0.007628	-1.205811	0.161133	0.259521	0.018369	-0.504951	0.125285	-0.853810
15289		8.427867	-2.248594	4.489373	-0.001748	0.000426	-0.005789	-1.204346	0.160889	0.258545	0.018356	-0.504966	0.125273	-0.853803
15290		8.438518	-2.270756	4.488155	-0.001814	0.004434	-0.008282	-1.196533	0.165527	0.263916	0.018321	-0.504952	0.125253	-0.853815
15291		8.445576	-2.246798	4.472758	0.000209	0.010788	-0.004750	-1.200928	0.159424	0.260010	0.018405	-0.504927	0.125205	-0.853835
15292		8.408838	-2.237546	4.522377	0.002839	0.014646	-0.006640	-1.208008	0.152832	0.265137	0.018392	-0.504851	0.125156	-0.853887
15293		8.436668	-2.276198	4.481438	0.003189	0.016712	-0.008611	-1.204346	0.162354	0.253418	0.018301	-0.504780	0.125107	-0.853938
15294		8.410929	-2.248645	4.483350	0.004886	0.018880	-0.009729	-1.206787	0.158203	0.252930	0.018269	-0.504642	0.125038	-0.854031
15295		8.427221	-2.204441	4.527995	0.005636	0.020419	-0.006765	-1.205322	0.164062	0.256104	0.018213	-0.504485	0.124988	-0.854132
15296		8.386431	-2.232094	4.551238	0.005451	0.020268	-0.003026	-1.201172	0.162109	0.264648	0.018259	-0.504347	0.124934	-0.854220
15297		8.396095	-2.262510	4.540311	0.002680	0.012726	-0.008423	-1.203125	0.155762	0.249023	0.018288	-0.504319	0.124861	-0.854247
15298		8.396119	-2.212303	4.506826	0.001390	0.009324	-0.004575	-1.199707	0.160156	0.258545	0.018215	-0.504229	0.124856	-0.854302
15299		8.391985	-2.223173	4.516190	-0.000301	0.006802	-0.004562	-1.201904	0.164551	0.257812	0.018231	-0.504212	0.124831	-0.854316
15300		8.405628	-2.217138	4.531342	-0.000311	0.007509	-0.002357	-1.203125	0.162842	0.264648	0.018298	-0.504182	0.124808	-0.854335
15301		8.404957	-2.217348	4.532483	-0.001102	0.009150	0.004600	-1.202637	0.160645	0.259766	0.018416	-0.504167	0.124812	-0.854341
15302		8.396577	-2.232722	4.562030	-0.003797	0.009298	0.003992	-1.202881	0.166260	0.251465	0.018477	-0.504128	0.124847	-0.854357
15303		8.392684	-2.261908	4.546913	-0.001528	-0.000606	0.001785	-1.206299	0.161865	0.254150	0.018553	-0.504119	0.124863	-0.854359
15304		8.403907	-2.301912	4.520922	-0.005464	-0.007393	-0.006002	-1.201660	0.162354	0.259521	0.018525	-0.504177	0.124881	-0.854323
15305		8.390782	-2.215327	4.529789	-0.007150	-0.010269	-0.007093	-1.203857	0.168701	0.255859	0.018529	-0.504288	0.124885	-0.854256
15306		8.406123	-2.234661	4.506784	-0.002002	-0.007415	-0.006840	-1.199951	0.161133	0.264893	0.018589	-0.504356	0.124854	-0.854219
15307		8.431365	-2.251419	4.518719	-0.005364	-0.001471	-0.006730	-1.203369	0.156494	0.252197	0.018617	-0.504432	0.124832	-0.854177
15308		8.406992	-2.224968	4.517445	-0.003604	-0.003309	-0.005348	-1.202881	0.155029	0.258789	0.018532	-0.504447	0.124861	-0.854166
15309		8.414370	-2.267440	4.511918	-0.001152	-0.000306	-0.005702	-1.207275	0.164062	0.253662	0.018480	-0.504475	0.124850	-0.854152
15310		8.429027	-2.277813	4.502105	-0.002303	-0.000613	-0.011404	-1.201904	0.151855	0.255371	0.018432	-0.504481	0.124823	-0.854153
15311		8.422698	-2.241641	4.495067	-0.001115	-0.002779	-0.013426	-1.204590	0.163330	0.256104	0.018281	-0.504518	0.124797	-0.854139
15312		8.409251	-2.236902	4.492364	-0.002459	-0.002883	-0.014282	-1.204590	0.162354	0.261475	0.018233	-0.504558	0.124748	-0.854123
15313		8.416729	-2.261004	4.510748	-0.001353	0.000016	-0.015493	-1.197021	0.156738	0.264648	0.018197	-0.504606	0.124676	-0.854106
15314		8.428449	-2.232770	4.474190	-0.001941	0.000745	-0.015587	-1.197021	0.162842	0.260498	0.018142	-0.504673	0.124602	-0.854079
15315		8.385606	-2.188231	4.515622	-0.000106	0.006245	-0.010516	-1.210449	0.158936	0.254883	0.018163	-0.504674	0.124535	-0.854088
15316		8.392473	-2.221556	4.523129	0.000883	0.004636	-0.006585	-1.208252	0.163086	0.264893	0.018116	-0.504638	0.124516	-0.854113
15317		8.410506	-2.228986	4.493948	0.000122	0.004156	-0.006245	-1.209961	0.162842	0.260010	0.018174	-0.504660	0.124460	-0.854106
15318		8.420859	-2.234327	4.516662	-0.001750	0.001128	-0.003591	-1.200928	0.161865	0.256592	0.018211	-0.504674	0.124445	-0.854099
15319		8.395518	-2.182561	4.552025	0.001277	0.004110	-0.001643	-1.204346	0.154785	0.258789	0.018258	-0.504656	0.124425	-0.854112
15320		8.405997	-2.222635	4.527489	0.000659	0.006606	0.003783	-1.208496	0.160400	0.262207	0.018284	-0.504623	0.124440	-0.854129
15321		8.391109	-2.220477	4.526187	-0.001463	0.007082	0.006578	-1.206543	0.162598	0.260254	0.018384	-0.504598	0.124461	-0.854139
15322		8.393592	-2.193362	4.542810	-0.003598	0.008264	0.011581	-1.201904	0.164795	0.252930	0.018519	-0.504552	0.124520	-0.854154
15323		8.381664	-2.238669	4.556363	-0.005298	0.006446	0.013799	-1.202881	0.166016	0.254395	0.018635	-0.504483	0.124625	-0.854177
15324		8.398994	-2.240676	4.538665	-0.006720	-0.000640	0.010356	-1.204590	0.157227	0.259033	0.018746	-0.504475	0.124716	-0.854166
15325		8.402616	-2.239789	4.517836	-0.008760	-0.005230	0.012338	-1.205811	0.160889	0.260254	0.018821	-0.504522	0.124826	-0.854121
15326		8.402731	-2.250532	4.504832	-0.007404	-0.005833	0.010986	-1.208984	0.160645	0.261230	0.018926	-0.504577	0.124911	-0.854073
15327		8.398955	-2.255682	4.523833	-0.008748	-0.005937	0.010128	-1.207031	0.163086	0.254639	0.019017	-0.504636	0.125001	-0.854023
15328		8.413446	-2.269005	4.512856	-0.007559	-0.008102	0.008107	-1.193359	0.158936	0.257812	0.019071	-0.504678	0.125098	-0.853983
15329		8.431610	-2.253341	4.517303	-0.008887	-0.009264	0.003939	-1.205566	0.156006	0.254150	0.019099	-0.504762	0.125175	-0.853922
15330		8.432272	-2.262834	4.503869	-0.010464	-0.006922	-0.000084	-1.206299	0.158447	0.259521	0.019015	-0.504801	0.125274	-0.853886
15331		8.436006	-2.309281	4.517658	-0.004541	-0.004644	-0.003476	-1.203857	0.158447	0.251221	0.018985	-0.504852	0.125293	-0.853853
15332		8.419312	-2.268141	4.487777	-0.002998	-0.005094	-0.008571	-1.212402	0.164795	0.256592	0.018878	-0.504872	0.125306	-0.853842
15333		8.430731	-2.289695	4.485494	-0.002627	-0.004437	-0.014956	-1.199951	0.163818	0.260254	0.018797	-0.504912	0.125267	-0.853826
15334		8.424501	-2.244479	4.490269	-0.000754	-0.001408	-0.017608	-1.205078	0.164795	0.258789	0.018745	-0.504964	0.125183	-0.853809
15335		8.414434	-2.219250	4.491843	-0.001014	0.002799	-0.015256	-1.199707	0.163330	0.260254	0.018694	-0.504970	0.125118	-0.853816
15336		8.425139	-2.231710	4.502898	0.000082	0.006405	-0.014256	-1.201172	0.156982	0.262451	0.018661	-0.504962	0.125042	-0.853832
15337		8.439248	-2.241374	4.494449	0.001160	0.011068	-0.009944	-1.211182	0.158203	0.255615	0.018616	-0.504926	0.124984	-0.853863
15338		8.424520	-2.237258	4.493836	0.000382	0.011645	-0.006293	-1.196289	0.156982	0.263184	0.018542	-0.504839	0.124975	-0.853918
15339		8.427436	-2.215914	4.499371	0.003438	0.012862	-0.009863	-1.198486	0.161133	0.258057	0.018524	-0.504800	0.124893	-0.853953
15340		8.401113	-2.221242	4.559282	0.000193	0.011492	-0.002550	-1.210693	0.156494	0.253418	0.018549	-0.504737	0.124874	-0.853992
15341		8.418912	-2.246276	4.506919	-0.001667	0.007758	-0.002107	-1.206055	0.156250	0.260254	0.018478	-0.504666	0.124905	-0.854031
15342		8.421961	-2.226023	4.511651	-0.001078	0.007028	-0.002014	-1.200439	0.163086	0.260254	0.018460	-0.504639	0.124906	-0.854048
15343		8.403607	-2.234746	4.518489	-0.002612	0.006772	0.000874	-1.202637	0.157715	0.252441	0.018530	-0.504618	0.124910	-0.854058
15344		8.413640	-2.249627	4.529604	-0.002957	0.004352	0.001741	-1.199219	0.163086	0.261475	0.018512	-0.504573	0.124956	-0.854078
15345		8.417202	-2.246880	4.509810	-0.004460	0.002332	-0.000892	-1.200684	0.160400	0.251221	0.018576	-0.504594	0.124959	-0.854064
15346		8.416909	-2.238836	4.521788	-0.006750	0.001243	0.001232	-1.213379	0.166504	0.255615	0.018561	-0.504569	0.125025	-0.854069
15347		8.402972	-2.253299	4.495582	-0.002694	0.000144	-0.000611	-1.206299	0.162354	0.255615	0.018597	-0.504562	0.125041	-0.854070
15348		8.427047	-2.245507	4.544222	-0.003711	0.003518	0.000976	-1.198975	0.156738	0.259766	0.018617	-0.504537	0.125073	-0.854080
15349		8.416271	-2.231417	4.534100	-0.003123	0.002789	0.001070	-1.203369	0.158936	0.259033	0.018633	-0.504543	0.125095	-0.854073
15350		8.398279	-2.248917	4.528453	-0.002950	0.003999	0.000636	-1.206055	0.158936	0.262451	0.018648	-0.504533	0.125116	-0.854075
15351		8.426666	-2.271882	4.509516	-0.001594	0.003398	-0.000714	-1.205078	0.163574	0.260986	0.018670	-0.504541	0.125116	-0.854070
15352		8.415692	-2.240289	4.523334	-0.003513	0.003319	-0.003874	-1.208252	0.159912	0.258545	0.018696	-0.504548	0.125108	-0.854066
15353		8.412471	-2.276873	4.495939	-0.002911	0.001885	-0.005989	-1.209473	0.157227	0.260254	0.018660	-0.504553	0.125105	-0.854065
15354		8.429882	-2.242167	4.526079	-0.006021	0.003968	-0.007129	-1.199951	0.160645	0.251465	0.018584	-0.504551	0.125121	-0.854066
15355		8.415834	-2.255525	4.500641	-0.000124	0.007662	-0.006101	-1.201904	0.171143	0.261475	0.018548	-0.504491	0.125105	-0.854104
15356		8.415276	-2.246107	4.513789	0.000810	0.009353	-0.006874	-1.209717	0.159912	0.256348	0.018641	-0.504465	0.125032	-0.854128
15357		8.411216	-2.256395	4.523323	0.001003	0.009506	-0.010622	-1.197266	0.159912	0.254395	0.018569	-0.504409	0.124989	-0.854169
15358		8.411083	-2.263480	4.512641	0.000063	0.008167	-0.008745	-1.204590	0.154053	0.256348	0.018531	-0.504366	0.124951	-0.854201
15359		8.400199	-2.247585	4.503617	0.001931	0.011549	-0.010293	-1.198730	0.163574	0.256348	0.018429	-0.504302	0.124910	-0.854247
15360		8.413779	-2.240321	4.519451	0.002528	0.010467	-0.011305	-1.199951	0.166016	0.248779	0.018425	-0.504255	0.124828	-0.854287
15361		8.417327	-2.244000	4.489150	0.001515	0.013487	-0.010825	-1.206787	0.159668	0.254639	0.018398	-0.504151	0.124773	-0.854356
15362		8.416445	-2.233700	4.503302	0.005315	0.016245	-0.011421	-1.204346	0.155762	0.256592	0.018337	-0.504048	0.124695	-0.854430
15363		8.372377	-2.189076	4.546663	0.003973	0.016139	-0.012283	-1.204834	0.168213	0.256348	0.018250	-0.503959	0.124623	-0.854495
15364		8.393505	-2.259124	4.510082	-0.000044	0.014285	-0.004630	-1.200928	0.168945	0.257568	0.018314	-0.503878	0.124579	-0.854548
15365		8.417500	-2.275190	4.524751	0.001536	0.012779	-0.013043	-1.205322	0.158203	0.246826	0.018352	-0.503828	0.124476	-0.854592
15366		8.388521	-2.192831	4.522962	0.001701	0.014341	-0.012375	-1.205811	0.158936	0.255127	0.018221	-0.503709	0.124446	-0.854668
15367		8.376595	-2.217516	4.561474	0.001504	0.014188	-0.008628	-1.203125	0.157227	0.259521	0.018179	-0.503628	0.124400	-0.854724
15368		8.400835	-2.242024	4.564138	0.001169	0.011415	-0.008865	-1.207275	0.158936	0.254395	0.018155	-0.503590	0.124342	-0.854755
15369		8.393605	-2.214744	4.546840	-0.000689	0.007680	-0.008421	-1.201660	0.160400	0.247559	0.018107	-0.503553	0.124313	-0.854782
15370		8.410997	-2.196402	4.553915	-0.000100	0.006951	-0.008326	-1.206055	0.160889	0.255615	0.018057	-0.503497	0.124289	-0.854820
15371		8.393386	-2.221152	4.536722	-0.001804	0.005131	-0.006108	-1.205078	0.154541	0.257812	0.018055	-0.503484	0.124266	-0.854831
15372		8.393006	-2.212183	4.549192	-0.004097	0.004039	-0.003984	-1.201416	0.158691	0.254883	0.018018	-0.503486	0.124277	-0.854829
15373		8.392779	-2.212091	4.549655	-0.004115	0.004744	-0.001775	-1.205322	0.154297	0.253418	0.018028	-0.503473	0.124289	-0.854835
15374		8.392293	-2.203770	4.562002	-0.003708	0.003159	-0.000139	-1.198975	0.160400	0.250000	0.017996	-0.503458	0.124327	-0.854839
15375		8.392603	-2.221178	4.538157	-0.005575	-0.000224	0.001410	-1.203857	0.161621	0.250488	0.018028	-0.503459	0.124366	-0.854831
15376		8.392399	-2.213519	4.549661	-0.006690	-0.002773	0.003724	-1.209961	0.156738	0.247559	0.018071	-0.503474	0.124426	-0.854813
15377		8.395905	-2.251807	4.575503	-0.006979	-0.007308	-0.002036	-1.197510	0.159424	0.250977	0.017997	-0.503505	0.124494	-0.854786
15378		8.404230	-2.237509	4.545635	-0.008257	-0.011419	-0.000393	-1.206787	0.156250	0.258789	0.018019	-0.503594	0.124540	-0.854727
15379		8.394807	-2.231745	4.521513	-0.007713	-0.008847	-0.005013	-1.209229	0.158691	0.253418	0.017976	-0.503689	0.124572	-0.854667
15380		8.391298	-2.226416	4.552450	-0.006471	-0.003326	-0.002237	-1.214111	0.161621	0.266846	0.017944	-0.503716	0.124616	-0.854646
15381		8.402364	-2.249653	4.550191	-0.006652	-0.004184	-0.000697	-1.207764	0.161621	0.250732	0.017984	-0.503798	0.124641	-0.854593
15382		8.406576	-2.246768	4.529360	-0.005710	-0.002844	-0.002577	-1.201904	0.160400	0.246094	0.017971	-0.503812	0.124674	-0.854580
15383		8.406308	-2.221264	4.564541	-0.005692	-0.003549	-0.004787	-1.199951	0.156982	0.264160	0.017935	-0.503820	0.124700	-0.854572
15384		8.389332	-2.238168	4.557401	-0.005599	-0.008611	-0.005601	-1.207520	0.156738	0.255859	0.017946	-0.503940	0.124691	-0.854503
15385		8.426312	-2.237285	4.520348	-0.005599	-0.008612	-0.005601	-1.206543	0.170410	0.264648	0.017895	-0.504016	0.124713	-0.854455
15386		8.399061	-2.239514	4.502400	-0.006170	-0.008588	-0.007908	-1.203613	0.161377	0.245850	0.017983	-0.504135	0.124671	-0.854390
15387		8.413452	-2.224973	4.527635	-0.004178	-0.002233	-0.004361	-1.206055	0.160400	0.253906	0.017943	-0.504125	0.124698	-0.854392
15388		8.384924	-2.193578	4.558167	-0.004683	-0.006216	-0.004166	-1.198975	0.162354	0.261719	0.017931	-0.504175	0.124712	-0.854361
15389		8.382162	-2.213862	4.553014	-0.008087	-0.009862	0.000269	-1.204346	0.160889	0.252197	0.018017	-0.504288	0.124731	-0.854290
15390		8.397062	-2.217509	4.553592	-0.008856	-0.009993	0.001712	-1.201416	0.156982	0.257568	0.018030	-0.504352	0.124803	-0.854242
15391		8.387226	-2.204357	4.541240	-0.010745	-0.012324	0.006573	-1.213135	0.158691	0.254395	0.018072	-0.504451	0.124899	-0.854168
15392		8.405934	-2.263690	4.543776	-0.010249	-0.018623	0.008492	-1.208252	0.162109	0.256836	0.018095	-0.504566	0.125024	-0.854081
15393		8.407737	-2.290673	4.504863	-0.011385	-0.018926	0.002772	-1.209229	0.166748	0.252197	0.018126	-0.504704	0.125109	-0.853986
15394		8.441062	-2.276898	4.510112	-0.007704	-0.019833	-0.005127	-1.200928	0.159180	0.253662	0.018130	-0.504836	0.125137	-0.853905
15395		8.435681	-2.250523	4.488858	-0.005677	-0.014885	-0.005999	-1.199219	0.158936	0.259521	0.018099	-0.504944	0.125152	-0.853839
15396		8.443658	-2.218690	4.482939	-0.007222	-0.004162	-0.003007	-1.204102	0.151611	0.255615	0.018102	-0.504998	0.125176	-0.853804
15397		8.418726	-2.202050	4.470311	-0.004183	0.007556	0.007086	-1.208984	0.160889	0.260498	0.018074	-0.504932	0.125266	-0.853830
15398		8.427666	-2.267153	4.517182	0.000262	0.016569	0.009192	-1.199219	0.161133	0.255615	0.018155	-0.504817	0.125303	-0.853891
15399		8.440751	-2.287962	4.497774	0.002219	0.014892	0.006828	-1.198730	0.160156	0.253662	0.018252	-0.504710	0.125304	-0.853952
15400		8.425128	-2.277002	4.509617	0.002431	0.014346	0.000865	-1.202637	0.166992	0.258301	0.018291	-0.504607	0.125286	-0.854015
15401		8.392041	-2.274036	4.526999	0.002130	0.010168	-0.003800	-1.211914	0.151855	0.252930	0.018368	-0.504555	0.125223	-0.854052
15402		8.426988	-2.247239	4.528620	0.002736	0.008737	-0.005918	-1.207275	0.159668	0.259766	0.018233	-0.504478	0.125231	-0.854100
15403		8.420073	-2.245476	4.475906	0.003405	0.014282	-0.005439	-1.202881	0.165039	0.260010	0.018217	-0.504398	0.125187	-0.854154
15404		8.375638	-2.259835	4.541855	0.005165	0.012449	-0.004051	-1.196289	0.166504	0.259033	0.018291	-0.504338	0.125105	-0.854200
15405		8.421667	-2.272385	4.518403	0.003868	0.010585	-0.010443	-1.199707	0.155029	0.263184	0.018354	-0.504305	0.124987	-0.854235
15406		8.396189	-2.236101	4.531259	0.004066	0.010741	-0.014196	-1.198975	0.166504	0.260498	0.018291	-0.504282	0.124889	-0.854265
15407		8.370605	-2.249004	4.578403	0.001707	0.003020	-0.013565	-1.201660	0.159912	0.257324	0.018329	-0.504309	0.124773	-0.854265
15408		8.432713	-2.288721	4.519639	-0.000092	-0.002828	-0.019764	-1.210693	0.160156	0.253662	0.018237	-0.504366	0.124679	-0.854247
15409		8.397899	-2.228353	4.531907	-0.001214	-0.003483	-0.026594	-1.203857	0.157471	0.254883	0.018047	-0.504410	0.124589	-0.854238
15410		8.413243	-2.227383	4.533920	0.002581	-0.000718	-0.027186	-1.198486	0.156494	0.262451	0.017876	-0.504446	0.124462	-0.854239
15411		8.389425	-2.197926	4.532844	-0.003321	-0.003726	-0.026020	-1.204346	0.164062	0.254639	0.017743	-0.504539	0.124352	-0.854203
15412		8.415150	-2.212266	4.545175	-0.001866	-0.000298	-0.018955	-1.201904	0.166016	0.252197	0.017676	-0.504564	0.124268	-0.854201
15413		8.402154	-2.215357	4.530392	-0.003866	-0.005953	-0.020299	-1.198975	0.159424	0.254395	0.017611	-0.504625	0.124187	-0.854178
15414		8.410481	-2.238953	4.547616	-0.006465	-0.010529	-0.020632	-1.215820	0.155273	0.250244	0.017500	-0.504729	0.124134	-0.854127
15415		8.408862	-2.198817	4.518909	-0.005612	-0.014758	-0.020687	-1.208984	0.156982	0.255371	0.017280	-0.504824	0.124131	-0.854076
15416		8.432200	-2.184810	4.490768	-0.007010	-0.012757	-0.014909	-1.202148	0.155518	0.250732	0.017164	-0.504927	0.124127	-0.854018
15417		8.411983	-2.195688	4.514619	-0.008737	-0.013529	-0.009370	-1.209229	0.157471	0.256104	0.017073	-0.505018	0.124161	-0.853961
15418		8.420351	-2.172472	4.496144	-0.011083	-0.012520	-0.000602	-1.207275	0.165283	0.258789	0.017050	-0.505107	0.124242	-0.853897
15419		8.432008	-2.196183	4.492630	-0.006901	-0.010631	0.002660	-1.205566	0.157227	0.258789	0.017158	-0.505194	0.124267	-0.853840
15420		8.424769	-2.203965	4.531367	-0.008731	-0.006342	0.009024	-1.200684	0.156006	0.263672	0.017226	-0.505240	0.124362	-0.853797
15421		8.407028	-2.214993	4.536064	-0.009518	-0.005772	0.012684	-1.202148	0.160156	0.258057	0.017344	-0.505302	0.124460	-0.853744
15422		8.424847	-2.209059	4.528741	-0.010220	-0.009564	0.017735	-1.202393	0.152344	0.263428	0.017501	-0.505363	0.124588	-0.853686
15423		8.432573	-2.214609	4.475110	-0.009917	-0.005737	0.021297	-1.214111	0.163086	0.254883	0.017628	-0.505409	0.124747	-0.853633
15424		8.409961	-2.213635	4.524156	-0.008263	-0.002155	0.024614	-1.207520	0.157715	0.264160	0.017789	-0.505383	0.124919	-0.853620
15425		8.394961	-2.206699	4.532866	-0.011048	-0.007242	0.026919	-1.205811	0.154053	0.256836	0.017973	-0.505431	0.125103	-0.853561
15426		8.431196	-2.293641	4.482411	-0.011957	-0.009641	0.025469	-1.199951	0.157227	0.254395	0.018080	-0.505469	0.125320	-0.853504
15427		8.452558	-2.277008	4.466596	-0.010208	-0.009918	0.016608	-1.206787	0.163574	0.263672	0.018171	-0.505516	0.125468	-0.853453
15428		8.445269	-2.303230	4.481423	-0.009528	-0.005073	0.014880	-1.206299	0.160889	0.259033	0.018308	-0.505558	0.125579	-0.853408
15429		8.459560	-2.316503	4.470836	-0.004752	-0.003062	0.005779	-1.203857	0.162354	0.263184	0.018353	-0.505576	0.125639	-0.853388
15430		8.438446	-2.287979	4.449834	-0.003095	0.001376	-0.003355	-1.205078	0.162109	0.266602	0.018374	-0.505591	0.125630	-0.853380
15431		8.423307	-2.300041	4.530398	-0.001366	0.001803	-0.009997	-1.200195	0.166748	0.259033	0.018359	-0.505620	0.125578	-0.853371
15432		8.431588	-2.300049	4.478387	-0.000961	0.001423	-0.019717	-1.203369	0.160156	0.271240	0.018311	-0.505642	0.125469	-0.853375
15433		8.421227	-2.265973	4.492234	-0.000791	0.002634	-0.020150	-1.205322	0.163574	0.263184	0.018244	-0.505695	0.125357	-0.853361
15434		8.428593	-2.222847	4.500436	0.002839	0.003842	-0.021411	-1.207520	0.165771	0.261719	0.018171	-0.505709	0.125225	-0.853374
15435		8.457739	-2.242607	4.481687	0.000106	0.005729	-0.016495	-1.206299	0.169922	0.257080	0.018125	-0.505698	0.125134	-0.853394
15436		8.429201	-2.225779	4.490424	0.003661	0.010949	-0.020251	-1.200195	0.149414	0.263184	0.018077	-0.505638	0.125001	-0.853451
15437		8.417955	-2.191894	4.505702	0.000749	0.011975	-0.013795	-1.207275	0.162354	0.260742	0.017951	-0.505589	0.124952	-0.853490
15438		8.402901	-2.228641	4.551618	-0.002662	0.009017	-0.007150	-1.202881	0.162354	0.263184	0.017933	-0.505542	0.124930	-0.853521
15439		8.403613	-2.261523	4.504422	-0.002729	0.002743	-0.007546	-1.204834	0.163574	0.264648	0.017949	-0.505556	0.124888	-0.853518
15440		8.432189	-2.257589	4.520726	-0.003939	-0.003479	-0.012561	-1.209229	0.149902	0.254883	0.017943	-0.505624	0.124826	-0.853487
15441		8.396925	-2.207725	4.521258	-0.004388	-0.000490	-0.009764	-1.203613	0.161377	0.261230	0.017770	-0.505618	0.124869	-0.853488
15442		8.429575	-2.209320	4.505256	-0.004153	-0.002938	-0.006592	-1.197021	0.163818	0.265381	0.017773	-0.505662	0.124852	-0.853465
15443		8.401482	-2.203515	4.500275	-0.006891	-0.001052	-0.001671	-1.202637	0.158691	0.266357	0.017864	-0.505712	0.124839	-0.853435
15444		8.419736	-2.212005	4.470191	-0.004819	0.000592	0.002179	-1.203125	0.147461	0.265381	0.017936	-0.505742	0.124851	-0.853414
15445		8.426574	-2.238987	4.488549	-0.006937	0.000700	0.003869	-1.208252	0.165283	0.255859	0.017915	-0.505761	0.124926	-0.853393
15446		8.423036	-2.259921	4.484553	-0.004818	0.000592	0.002178	-1.203857	0.155518	0.267090	0.017952	-0.505744	0.124969	-0.853395
15447		8.454900	-2.254231	4.481019	-0.002353	0.002557	-0.001482	-1.202881	0.162598	0.255859	0.017978	-0.505762	0.124960	-0.853385
15448		8.415392	-2.225580	4.478751	-0.001098	0.007027	-0.002006	-1.201172	0.158203	0.267578	0.017988	-0.505708	0.124960	-0.853417
15449		8.439327	-2.234302	4.504613	-0.000610	0.011362	-0.001084	-1.203369	0.152832	0.257080	0.018047	-0.505669	0.124926	-0.853444
15450		8.438929	-2.251058	4.482289	0.000140	0.012197	-0.000314	-1.212402	0.163086	0.266602	0.018000	-0.505578	0.124952	-0.853495
15451		8.434363	-2.262341	4.492395	-0.000505	0.016233	-0.005122	-1.201172	0.159912	0.260254	0.018022	-0.505496	0.124909	-0.853549
15452		8.436782	-2.249632	4.487045	0.005730	0.021672	-0.007148	-1.206299	0.161133	0.252930	0.018025	-0.505364	0.124827	-0.853640
15453		8.402430	-2.220671	4.541805	0.003031	0.022155	-0.006665	-1.209961	0.158936	0.250732	0.017970	-0.505195	0.124798	-0.853745
15454		8.430309	-2.250531	4.513221	0.002947	0.016582	-0.004846	-1.203857	0.160889	0.263184	0.017898	-0.505054	0.124793	-0.853831
15455		8.419025	-2.243401	4.493169	0.002219	0.015046	-0.007834	-1.212891	0.159912	0.262451	0.017912	-0.504984	0.124719	-0.853883
15456		8.417864	-2.233756	4.507458	0.002379	0.016607	-0.007160	-1.197998	0.160400	0.260010	0.017892	-0.504890	0.124667	-0.853946
15457		8.395544	-2.244682	4.535147	0.000637	0.007803	-0.007554	-1.206543	0.162354	0.257812	0.017911	-0.504867	0.124603	-0.853969
15458		8.420499	-2.211175	4.513904	0.000933	0.003253	-0.011027	-1.207764	0.163086	0.258789	0.017887	-0.504864	0.124538	-0.853981
15459		8.407090	-2.232234	4.476370	-0.001451	0.006859	-0.009192	-1.206787	0.156738	0.257080	0.017870	-0.504836	0.124494	-0.854004
15460		8.406208	-2.205796	4.513058	-0.000439	0.004195	-0.008570	-1.204346	0.151855	0.252686	0.017813	-0.504820	0.124468	-0.854018
15461		8.403128	-2.233307	4.497701	-0.001969	0.003575	-0.006787	-1.206787	0.153809	0.260986	0.017710	-0.504791	0.124486	-0.854035
15462		8.428260	-2.258008	4.498741	-0.001356	0.002148	-0.008909	-1.207520	0.159424	0.261963	0.017650	-0.504803	0.124461	-0.854032
15463		8.406396	-2.202419	4.514356	0.001104	0.004463	-0.011463	-1.201904	0.168945	0.257812	0.017624	-0.504807	0.124388	-0.854042
15464		8.435095	-2.215184	4.507500	-0.001969	0.003574	-0.006789	-1.200195	0.158203	0.254395	0.017686	-0.504805	0.124330	-0.854050
15465		8.417346	-2.231780	4.502093	0.000433	0.007643	-0.003801	-1.207520	0.160156	0.254883	0.017684	-0.504757	0.124309	-0.854081
15466		8.437921	-2.202342	4.501429	0.001339	0.010040	-0.002355	-1.208984	0.152588	0.245605	0.017688	-0.504686	0.124293	-0.854126
15467		8.401187	-2.211205	4.526847	0.004512	0.014243	-0.000813	-1.204346	0.163574	0.261963	0.017603	-0.504545	0.124319	-0.854207
15468		8.407222	-2.237153	4.547192	0.000545	0.010606	0.001306	-1.203613	0.165039	0.253174	0.017704	-0.504499	0.124283	-0.854237
15469		8.396569	-2.239565	4.513990	0.000074	0.005921	-0.000720	-1.203125	0.161377	0.255859	0.017764	-0.504458	0.124261	-0.854264
15470		8.385015	-2.208271	4.528281	-0.001446	0.004950	-0.000045	-1.204834	0.166992	0.253662	0.017812	-0.504433	0.124255	-0.854278
15471		8.412972	-2.214054	4.533591	-0.002049	0.006027	0.000967	-1.206055	0.157471	0.255859	0.017886	-0.504391	0.124250	-0.854302
15472		8.398604	-2.220191	4.519913	-0.003749	0.004196	0.003183	-1.205078	0.163086	0.256348	0.017907	-0.504365	0.124293	-0.854311
15473		8.412402	-2.223630	4.522636	-0.001808	0.003229	0.003037	-1.199707	0.157471	0.258301	0.017983	-0.504350	0.124299	-0.854317
15474		8.418724	-2.242001	4.553460	-0.003919	0.002985	0.003615	-1.211182	0.161133	0.256836	0.018041	-0.504347	0.124325	-0.854314
15475		8.407923	-2.228155	4.543163	-0.004052	0.000723	0.000724	-1.208984	0.163330	0.258789	0.018059	-0.504347	0.124355	-0.854309
15476		8.411768	-2.225428	4.522932	-0.005572	-0.000248	0.001398	-1.202637	0.166748	0.261963	0.018110	-0.504364	0.124381	-0.854294
15477		8.393750	-2.226363	4.540326	-0.003788	-0.002776	0.000577	-1.207764	0.157959	0.261230	0.018229	-0.504419	0.124356	-0.854263
15478		8.419399	-2.260754	4.528356	-0.006622	-0.004556	-0.001833	-1.205322	0.162842	0.254395	0.018237	-0.504479	0.124379	-0.854224
15479		8.412532	-2.226361	4.521051	-0.005102	-0.003586	-0.002507	-1.204346	0.155029	0.255859	0.018242	-0.504509	0.124399	-0.854203
15480		8.409634	-2.246317	4.516427	-0.007007	-0.003670	-0.005688	-1.202148	0.165283	0.255371	0.018173	-0.504547	0.124436	-0.854177
15481		8.417589	-2.222400	4.499153	-0.005356	-0.008459	-0.009402	-1.206543	0.163330	0.259521	0.018166	-0.504625	0.124411	-0.854134
15482		8.425108	-2.239520	4.528385	-0.005994	-0.006333	-0.005065	-1.206055	0.161377	0.265137	0.018183	-0.504695	0.124407	-0.854093
15483		8.390585	-2.216141	4.492297	-0.008538	-0.004291	-0.003907	-1.205322	0.155762	0.250488	0.018221	-0.504769	0.124408	-0.854048
15484		8.419142	-2.213416	4.507989	-0.005270	-0.004798	-0.002077	-1.208496	0.160889	0.258301	0.018146	-0.504787	0.124474	-0.854030
15485		8.412039	-2.228477	4.535379	-0.006451	-0.003347	-0.002268	-1.205811	0.163330	0.258789	0.018144	-0.504823	0.124504	-0.854004
15486		8.416512	-2.233868	4.502616	-0.006463	-0.002997	-0.001160	-1.197510	0.166748	0.252197	0.018176	-0.504860	0.124524	-0.853979
15487		8.409054	-2.240750	4.542030	-0.004702	-0.004825	0.000235	-1.201904	0.156250	0.258545	0.018232	-0.504891	0.124541	-0.853956
15488		8.417608	-2.242985	4.488747	-0.007704	-0.007817	-0.001745	-1.201660	0.161377	0.253906	0.018218	-0.504963	0.124585	-0.853908
15489		8.414763	-2.245950	4.507045	-0.006006	-0.014004	-0.009900	-1.198242	0.164551	0.259766	0.018165	-0.505071	0.124585	-0.853845
15490		8.437265	-2.224754	4.491389	-0.006150	-0.007895	-0.005747	-1.199463	0.156250	0.257568	0.018206	-0.505156	0.124564	-0.853797
15491		8.430718	-2.247731	4.506549	-0.004317	-0.003801	-0.005066	-1.198730	0.157715	0.263916	0.018173	-0.505198	0.124574	-0.853772
15492		8.453016	-2.243768	4.468092	-0.005523	-0.001651	-0.003038	-1.198975	0.164551	0.256592	0.018205	-0.505247	0.124568	-0.853743
15493		8.445829	-2.258385	4.495914	-0.001292	-0.001508	-0.005304	-1.200684	0.155518	0.263428	0.018234	-0.505271	0.124533	-0.853733
15494		8.432124	-2.254610	4.493202	-0.001993	-0.003742	-0.010515	-1.203369	0.160400	0.264893	0.018203	-0.505338	0.124483	-0.853702
15495		8.422000	-2.238875	4.482556	-0.003441	0.001208	-0.010554	-1.207275	0.164307	0.263184	0.018201	-0.505374	0.124425	-0.853689
15496		8.444267	-2.291471	4.467700	-0.000069	0.005575	-0.012765	-1.203613	0.158691	0.257080	0.018198	-0.505372	0.124334	-0.853703
15497		8.421661	-2.218440	4.507930	0.002401	0.007546	-0.016427	-1.204346	0.158691	0.257812	0.018100	-0.505336	0.124255	-0.853738
15498		8.410258	-2.184851	4.523083	0.002278	0.012955	-0.014491	-1.209473	0.161621	0.258057	0.018016	-0.505263	0.124181	-0.853794
15499		8.417063	-2.217453	4.531459	0.003412	0.012902	-0.009864	-1.210693	0.155273	0.254150	0.017985	-0.505184	0.124113	-0.853851
15500		8.424183	-2.209443	4.493189	0.003220	0.012389	-0.007214	-1.209717	0.159424	0.259766	0.017896	-0.505089	0.124098	-0.853911
15501		8.394543	-2.235317	4.548822	0.000222	0.009394	-0.009198	-1.198486	0.153320	0.255615	0.017860	-0.505043	0.124051	-0.853946
15502		8.404773	-2.190890	4.537427	-0.001388	0.003200	-0.005590	-1.199951	0.161865	0.258789	0.017810	-0.505030	0.124050	-0.853955
15503		8.397764	-2.173154	4.507476	-0.003587	0.005400	0.002755	-1.201904	0.162109	0.255859	0.017890	-0.505007	0.124058	-0.853966
15504		8.396790	-2.215273	4.554617	-0.005311	0.004265	0.007190	-1.209717	0.171387	0.262207	0.017969	-0.504976	0.124112	-0.853975
15505		8.407271	-2.239677	4.553052	-0.007911	0.000032	0.007953	-1.202393	0.156982	0.254639	0.018134	-0.504994	0.124142	-0.853956
15506		8.423403	-2.285248	4.494177	-0.006811	-0.012746	-0.004026	-1.206543	0.163330	0.262207	0.018089	-0.505087	0.124186	-0.853895
15507		8.412743	-2.236901	4.529780	-0.006605	-0.012583	-0.007789	-1.206543	0.159180	0.263428	0.018109	-0.505210	0.124162	-0.853826
15508		8.436226	-2.240830	4.477948	-0.007774	-0.011483	-0.009091	-1.204834	0.155762	0.266602	0.018093	-0.505329	0.124149	-0.853758
15509		8.436922	-2.231800	4.488393	-0.005958	-0.007038	-0.007299	-1.198975	0.157471	0.259521	0.018099	-0.505426	0.124123	-0.853704
15510		8.433330	-2.226139	4.519670	-0.005314	-0.001492	-0.006806	-1.208252	0.157715	0.260254	0.018071	-0.505459	0.124121	-0.853685
15511		8.426869	-2.257279	4.523418	-0.003963	-0.001731	-0.007048	-1.201172	0.161865	0.258301	0.018034	-0.505489	0.124116	-0.853669
15512		8.460694	-2.283407	4.471318	-0.001945	-0.004790	-0.013856	-1.202881	0.159180	0.258789	0.017988	-0.505547	0.124056	-0.853645
15513		8.446845	-2.261557	4.492409	-0.002718	-0.003013	-0.021573	-1.207275	0.153320	0.260010	0.017864	-0.505599	0.123978	-0.853628
15514		8.408402	-2.221666	4.500790	0.000448	-0.006475	-0.024864	-1.205811	0.147705	0.259277	0.017696	-0.505678	0.123880	-0.853599
15515		8.441665	-2.212356	4.496384	-0.001119	-0.006053	-0.019752	-1.206787	0.161865	0.262207	0.017518	-0.505745	0.123834	-0.853569
15516		8.443245	-2.226093	4.472065	0.001989	0.001468	-0.022923	-1.216553	0.150879	0.259033	0.017440	-0.505775	0.123695	-0.853573
15517		8.436517	-2.196921	4.454411	0.002577	0.008413	-0.017987	-1.205322	0.159668	0.257080	0.017276	-0.505728	0.123635	-0.853613
15518		8.445985	-2.183864	4.502388	0.002830	0.012933	-0.012186	-1.205322	0.158447	0.257812	0.017224	-0.505648	0.123562	-0.853672
15519		8.428375	-2.207785	4.485993	0.001315	0.011958	-0.011515	-1.203857	0.149658	0.267090	0.017172	-0.505578	0.123502	-0.853723
15520		8.445527	-2.197525	4.481969	0.001081	0.012494	-0.005528	-1.198975	0.157227	0.255615	0.017171	-0.505532	0.123452	-0.853758
15521		8.426709	-2.197138	4.501618	0.001262	0.013355	-0.007073	-1.204834	0.155029	0.258301	0.017146	-0.505446	0.123412	-0.853815
15522		8.396845	-2.174444	4.522727	-0.002752	0.011104	-0.000513	-1.203369	0.153809	0.258301	0.017145	-0.505376	0.123431	-0.853854
15523		8.425083	-2.197048	4.504704	-0.000438	0.009605	0.004314	-1.215088	0.151367	0.269043	0.017185	-0.505312	0.123454	-0.853888
15524		8.397908	-2.147518	4.541290	-0.003527	0.009053	0.010103	-1.206299	0.153564	0.265869	0.017274	-0.505274	0.123505	-0.853901
15525		8.387230	-2.209906	4.530372	-0.004248	0.005604	0.016276	-1.202881	0.163818	0.263916	0.017426	-0.505252	0.123579	-0.853900
15526		8.443436	-2.231889	4.528034	-0.006510	0.003791	0.016172	-1.205322	0.152344	0.258301	0.017629	-0.505242	0.123642	-0.853892
15527		8.396217	-2.229602	4.541243	-0.006801	0.000319	0.013702	-1.209961	0.158203	0.261719	0.017701	-0.505235	0.123757	-0.853879
15528		8.417486	-2.219677	4.514970	-0.007106	-0.002804	0.012343	-1.210449	0.154297	0.253662	0.017811	-0.505260	0.123843	-0.853849
15529		8.418022	-2.238574	4.490125	-0.008582	-0.004827	0.009682	-1.205078	0.153320	0.263184	0.017817	-0.505272	0.123977	-0.853822
15530		8.431592	-2.226314	4.515537	-0.007629	-0.003826	0.006692	-1.205078	0.149658	0.260254	0.017870	-0.505318	0.124048	-0.853784
15531		8.417680	-2.233503	4.500518	-0.007475	-0.002265	0.007370	-1.204346	0.156982	0.254639	0.017885	-0.505340	0.124145	-0.853756
15532		8.443502	-2.276763	4.476656	-0.001685	-0.002187	0.001103	-1.198242	0.162354	0.259766	0.017892	-0.505349	0.124174	-0.853746
15533		8.425646	-2.277263	4.494026	-0.004729	-0.001869	-0.005608	-1.201416	0.153564	0.265137	0.017915	-0.505388	0.124153	-0.853726
15534		8.407374	-2.260356	4.535326	-0.003338	-0.003153	-0.009180	-1.202637	0.152832	0.259766	0.017887	-0.505452	0.124119	-0.853694
15535		8.429902	-2.254962	4.497193	-0.001279	0.000411	-0.014480	-1.200195	0.154541	0.260742	0.017788	-0.505476	0.124072	-0.853688
15536		8.437567	-2.229246	4.481202	-0.001482	0.002163	-0.019884	-1.199951	0.158936	0.262451	0.017671	-0.505499	0.123991	-0.853689
15537		8.447697	-2.224564	4.516496	0.000014	0.011153	-0.014603	-1.205811	0.161865	0.256836	0.017628	-0.505459	0.123904	-0.853726
15538		8.404971	-2.214322	4.510806	-0.001215	0.006330	-0.015196	-1.208496	0.165283	0.248535	0.017555	-0.505432	0.123841	-0.853753
15539		8.426872	-2.249188	4.520209	0.001362	0.003598	-0.018580	-1.208008	0.161377	0.256348	0.017440	-0.505398	0.123768	-0.853786
15540		8.431706	-2.251354	4.488430	0.001073	0.000126	-0.021053	-1.204590	0.156250	0.261963	0.017335	-0.505418	0.123667	-0.853791
15541		8.421013	-2.208162	4.514039	0.003863	-0.002442	-0.028206	-1.203369	0.155762	0.255371	0.017203	-0.505484	0.123504	-0.853778
15542		8.411559	-2.189614	4.503421	0.001756	-0.002696	-0.027635	-1.205322	0.149414	0.258057	0.017033	-0.505530	0.123381	-0.853772
15543		8.448681	-2.184920	4.467803	0.002399	0.000585	-0.019080	-1.197510	0.156250	0.258057	0.016895	-0.505549	0.123302	-0.853775
15544		8.441372	-2.148006	4.462197	0.003109	0.009440	-0.012347	-1.211182	0.153320	0.259766	0.016868	-0.505508	0.123211	-0.853813
15545		8.426951	-2.193321	4.495753	0.001961	0.007924	-0.006699	-1.204102	0.154297	0.263184	0.016830	-0.505464	0.123178	-0.853844
15546		8.433455	-2.210293	4.527113	0.000677	0.004499	-0.002842	-1.210205	0.157227	0.251465	0.016861	-0.505459	0.123143	-0.853851
15547		8.426376	-2.192133	4.497410	-0.000509	0.005945	-0.003034	-1.201416	0.159668	0.253906	0.016831	-0.505403	0.123154	-0.853884
15548		8.414395	-2.161141	4.512060	-0.002543	0.009000	0.003781	-1.195312	0.161377	0.261475	0.016893	-0.505335	0.123174	-0.853920
15549		8.435823	-2.216046	4.498206	-0.002273	0.012821	0.007364	-1.203125	0.158447	0.258301	0.017043	-0.505267	0.123169	-0.853958
15550		8.434595	-2.217248	4.499917	-0.000343	0.012212	0.008331	-1.205078	0.157227	0.264893	0.017148	-0.505184	0.123190	-0.854002
15551		8.419545	-2.223993	4.487323	-0.001498	0.012960	0.005913	-1.207764	0.154053	0.260254	0.017250	-0.505119	0.123193	-0.854038
15552		8.445291	-2.196901	4.541760	-0.000920	0.012585	0.007120	-1.207275	0.166260	0.259766	0.017312	-0.505037	0.123227	-0.854080
15553		8.410334	-2.249203	4.506526	-0.001341	0.007203	0.002858	-1.207520	0.157715	0.264160	0.017424	-0.505001	0.123208	-0.854102
15554		8.416282	-2.209036	4.515185	-0.001991	0.004270	-0.004588	-1.198975	0.159668	0.261475	0.017454	-0.505006	0.123171	-0.854103
15555		8.433582	-2.199828	4.510400	-0.000234	0.009766	0.000545	-1.207031	0.156982	0.261963	0.017540	-0.504965	0.123137	-0.854131
15556		8.440660	-2.242460	4.506397	0.001647	0.012467	-0.003217	-1.205078	0.155518	0.253906	0.017574	-0.504904	0.123089	-0.854173
15557		8.417705	-2.196289	4.511598	0.001221	0.014402	-0.003748	-1.202393	0.159912	0.251709	0.017542	-0.504803	0.123080	-0.854235
15558		8.442108	-2.221096	4.514212	0.003592	0.011508	-0.003360	-1.203613	0.153076	0.260010	0.017547	-0.504718	0.123046	-0.854290
15559		8.420136	-2.240854	4.529699	0.003048	0.011183	-0.006794	-1.212158	0.160645	0.257812	0.017537	-0.504666	0.122987	-0.854329
15560		8.412049	-2.205295	4.524892	0.000938	0.010930	-0.006221	-1.203613	0.159424	0.255371	0.017537	-0.504605	0.122942	-0.854372
15561		8.425615	-2.206955	4.528930	0.003791	0.012020	-0.006020	-1.209229	0.154297	0.261475	0.017547	-0.504533	0.122880	-0.854423
15562		8.399110	-2.172068	4.542298	0.003500	0.015865	-0.004763	-1.199463	0.153564	0.256836	0.017559	-0.504449	0.122820	-0.854481
15563		8.388158	-2.223295	4.544766	0.003284	0.015701	-0.000996	-1.206299	0.160156	0.254639	0.017585	-0.504355	0.122786	-0.854541
15564		8.390495	-2.202861	4.550400	-0.000351	0.007504	-0.002365	-1.203857	0.157715	0.257812	0.017606	-0.504311	0.122770	-0.854569
15565		8.419887	-2.232689	4.519829	0.000751	0.003099	-0.007294	-1.202881	0.158447	0.257812	0.017613	-0.504315	0.122713	-0.854574
15566		8.426759	-2.199614	4.516046	-0.001292	0.001448	-0.011168	-1.212646	0.161133	0.250488	0.017593	-0.504337	0.122652	-0.854571
15567		8.412871	-2.195503	4.513792	-0.000124	0.000351	-0.009861	-1.203857	0.148682	0.259521	0.017536	-0.504333	0.122624	-0.854578
15568		8.430720	-2.185363	4.508462	-0.002378	0.005502	-0.007353	-1.198486	0.156738	0.253418	0.017486	-0.504324	0.122608	-0.854587
15569		8.409167	-2.205372	4.523026	-0.002246	0.007412	-0.005563	-1.210938	0.154785	0.252441	0.017469	-0.504286	0.122594	-0.854612
15570		8.404496	-2.199926	4.555851	-0.003355	0.004850	-0.003248	-1.197021	0.160889	0.253174	0.017423	-0.504251	0.122623	-0.854629
15571		8.411883	-2.184715	4.528047	-0.002502	0.000981	-0.002183	-1.204102	0.153564	0.258789	0.017467	-0.504258	0.122608	-0.854626
15572		8.375898	-2.194685	4.551416	-0.006758	0.001171	0.001186	-1.208008	0.159912	0.252197	0.017489	-0.504271	0.122648	-0.854612
15573		8.393731	-2.186383	4.545231	-0.006813	-0.004747	0.001908	-1.206543	0.160889	0.253906	0.017510	-0.504303	0.122703	-0.854585
15574		8.423302	-2.209252	4.524933	-0.007555	-0.005585	0.001131	-1.206543	0.150879	0.247803	0.017543	-0.504348	0.122749	-0.854552
15575		8.395357	-2.204617	4.518994	-0.006536	-0.008243	0.001761	-1.208252	0.154541	0.258301	0.017487	-0.504387	0.122847	-0.854516
15576		8.408402	-2.174971	4.567981	-0.009456	-0.007939	0.006004	-1.199951	0.158936	0.262939	0.017526	-0.504454	0.122934	-0.854463
15577		8.409601	-2.193502	4.542372	-0.011749	-0.009057	0.008121	-1.199463	0.161621	0.255859	0.017643	-0.504549	0.123005	-0.854394
15578		8.407177	-2.224257	4.524666	-0.013892	-0.008614	0.010915	-1.204346	0.158203	0.251709	0.017746	-0.504616	0.123122	-0.854336
15579		8.428396	-2.197325	4.521300	-0.009637	-0.008803	0.007544	-1.209961	0.152588	0.261719	0.017783	-0.504667	0.123230	-0.854289
15580		8.422443	-2.239355	4.511762	-0.009653	-0.008455	0.008655	-1.203857	0.157471	0.254150	0.017834	-0.504740	0.123331	-0.854230
15581		8.429571	-2.209191	4.506113	-0.010179	-0.009127	0.004107	-1.198975	0.154053	0.268555	0.017851	-0.504804	0.123423	-0.854179
15582		8.420339	-2.262067	4.504496	-0.009947	-0.009309	-0.000774	-1.207764	0.168701	0.255859	0.017900	-0.504922	0.123445	-0.854104
15583		8.435404	-2.264858	4.505180	-0.009516	-0.008975	-0.008313	-1.205078	0.156494	0.254395	0.017895	-0.505002	0.123448	-0.854057
15584		8.429721	-2.246097	4.473277	-0.007009	-0.007690	-0.014200	-1.198730	0.155029	0.259277	0.017779	-0.505070	0.123449	-0.854019
15585		8.429904	-2.227887	4.496273	-0.004600	-0.004314	-0.013413	-1.212158	0.160889	0.259521	0.017711	-0.505134	0.123413	-0.853988
15586		8.433955	-2.165030	4.453465	-0.004561	0.001954	-0.013015	-1.207275	0.155762	0.252197	0.017646	-0.505144	0.123379	-0.853988
15587		8.439768	-2.165275	4.508627	-0.000207	0.009068	-0.001674	-1.201416	0.154541	0.260498	0.017612	-0.505070	0.123399	-0.854030
15588		8.385933	-2.242008	4.561393	-0.004260	0.009768	-0.000962	-1.197510	0.156250	0.256836	0.017618	-0.505022	0.123414	-0.854056
15589		8.396625	-2.214998	4.525943	-0.000377	0.000891	-0.003867	-1.199219	0.155518	0.255127	0.017631	-0.505032	0.123390	-0.854053
15590		8.437177	-2.259211	4.504696	-0.001417	-0.003068	-0.006006	-1.197266	0.152100	0.260742	0.017610	-0.505066	0.123375	-0.854036
15591		8.426041	-2.218610	4.529621	-0.001649	-0.007582	-0.011819	-1.207031	0.164551	0.265381	0.017563	-0.505155	0.123325	-0.853991
15592		8.409379	-2.217564	4.545460	-0.002707	-0.018157	-0.015474	-1.202148	0.162842	0.260498	0.017576	-0.505334	0.123223	-0.853899
15593		8.418737	-2.200615	4.514721	-0.007335	-0.017084	-0.015974	-1.207520	0.157471	0.252686	0.017540	-0.505494	0.123170	-0.853814
15594		8.427876	-2.184008	4.484171	-0.007811	-0.014105	-0.013167	-1.207031	0.151855	0.259766	0.017425	-0.505596	0.123189	-0.853753
15595		8.425273	-2.186392	4.502269	-0.006211	-0.010173	-0.008704	-1.198730	0.160645	0.262207	0.017352	-0.505687	0.123204	-0.853698
15596		8.430551	-2.232152	4.514598	-0.009571	-0.014558	-0.006504	-1.204346	0.155029	0.264160	0.017373	-0.505823	0.123203	-0.853617
15597		8.424474	-2.197180	4.505683	-0.007741	-0.017771	-0.009557	-1.205811	0.164551	0.258301	0.017345	-0.505984	0.123196	-0.853523
15598		8.422355	-2.199830	4.522796	-0.006718	-0.020430	-0.008937	-1.209717	0.157471	0.264648	0.017348	-0.506145	0.123180	-0.853430
15599		8.446167	-2.195191	4.481812	-0.008263	-0.020715	-0.006043	-1.195312	0.156494	0.264404	0.017349	-0.506319	0.123190	-0.853326
15600		8.470330	-2.207618	4.417265	-0.008101	-0.012538	-0.003840	-1.200928	0.151855	0.264893	0.017377	-0.506440	0.123197	-0.853252
15601		8.451724	-2.183625	4.469812	-0.006456	-0.002683	-0.000076	-1.209229	0.152344	0.263916	0.017391	-0.506482	0.123230	-0.853222
15602		8.430676	-2.205072	4.482956	-0.005894	-0.002710	0.002247	-1.198975	0.155762	0.256592	0.017405	-0.506512	0.123281	-0.853196
15603		8.453904	-2.267784	4.454650	-0.006010	-0.004966	-0.000664	-1.208496	0.156982	0.268066	0.017390	-0.506546	0.123332	-0.853170
15604		8.442533	-2.228258	4.479593	-0.003675	-0.004886	-0.006125	-1.203125	0.144775	0.266846	0.017406	-0.506614	0.123302	-0.853133
15605		8.442677	-2.219264	4.490982	-0.001419	-0.003067	-0.006015	-1.208496	0.151611	0.269775	0.017361	-0.506665	0.123294	-0.853105
15606		8.467639	-2.186098	4.468989	-0.003068	0.001009	-0.004504	-1.203125	0.152344	0.261230	0.017362	-0.506692	0.123278	-0.853091
15607		8.443576	-2.234903	4.467139	0.000240	0.006440	-0.003361	-1.200439	0.154541	0.260986	0.017344	-0.506656	0.123270	-0.853114
15608		8.453681	-2.240195	4.490349	-0.000290	0.005772	-0.007914	-1.203125	0.156006	0.254883	0.017308	-0.506632	0.123238	-0.853134
15609		8.443845	-2.240896	4.456481	0.000237	0.001750	-0.014074	-1.209717	0.150391	0.263184	0.017207	-0.506622	0.123197	-0.853148
15610		8.450678	-2.207149	4.452979	-0.001397	0.005477	-0.013678	-1.197266	0.154297	0.261230	0.017098	-0.506605	0.123163	-0.853165
15611		8.428275	-2.201400	4.503730	-0.001282	0.007733	-0.010767	-1.204590	0.155273	0.260254	0.017049	-0.506574	0.123118	-0.853191
15612		8.457847	-2.230009	4.473109	0.001290	0.005361	-0.013044	-1.205078	0.153564	0.259521	0.016985	-0.506554	0.123054	-0.853213
15613		8.461467	-2.216226	4.465840	-0.000027	0.004897	-0.015036	-1.207520	0.153076	0.255371	0.016888	-0.506536	0.122998	-0.853233
15614		8.413522	-2.176352	4.527821	-0.000784	0.004405	-0.014703	-1.208252	0.156250	0.254639	0.016767	-0.506509	0.122965	-0.853257
15615		8.429631	-2.210372	4.482357	-0.001109	0.001979	-0.013843	-1.201416	0.166260	0.260498	0.016672	-0.506497	0.122928	-0.853271
15616		8.433062	-2.188423	4.486624	-0.001108	0.001978	-0.013844	-1.205566	0.149414	0.260010	0.016685	-0.506512	0.122827	-0.853277
15617		8.425568	-2.152590	4.480635	-0.001372	0.002852	-0.006725	-1.203613	0.160400	0.265625	0.016625	-0.506501	0.122825	-0.853284
15618		8.432553	-2.169641	4.511174	0.000231	-0.000178	-0.004891	-1.208740	0.159424	0.263916	0.016687	-0.506532	0.122761	-0.853274
15619		8.433725	-2.194654	4.475121	-0.001419	0.001622	0.004699	-1.211426	0.153564	0.265381	0.016783	-0.506532	0.122766	-0.853271
15620		8.447002	-2.181361	4.501406	-0.000539	-0.002596	0.004637	-1.202393	0.156494	0.272461	0.016850	-0.506561	0.122783	-0.853250
15621		8.448074	-2.207434	4.465015	-0.002552	-0.000252	0.009239	-1.208740	0.156250	0.260010	0.017007	-0.506598	0.122790	-0.853224
15622		8.429039	-2.201580	4.494985	-0.004799	0.004544	0.010653	-1.214111	0.154297	0.268555	0.017085	-0.506558	0.122870	-0.853235
15623		8.430479	-2.166933	4.523638	-0.002921	0.004981	0.014969	-1.204590	0.149414	0.257812	0.017219	-0.506530	0.122940	-0.853239
15624		8.443099	-2.242301	4.450082	-0.007910	0.004317	0.017562	-1.211670	0.157959	0.267090	0.017289	-0.506479	0.123097	-0.853245
15625		8.411909	-2.198070	4.505771	-0.005467	0.000038	0.013486	-1.209229	0.161377	0.261230	0.017419	-0.506487	0.123173	-0.853227
15626		8.430151	-2.249297	4.521470	-0.008488	-0.008890	0.012181	-1.202637	0.161377	0.263672	0.017532	-0.506545	0.123269	-0.853176
15627		8.442263	-2.241060	4.459396	-0.011416	-0.012939	0.006829	-1.204346	0.159180	0.264893	0.017621	-0.506650	0.123348	-0.853101
15628		8.460813	-2.241707	4.440064	-0.008164	-0.004187	0.003245	-1.205322	0.161377	0.264160	0.017677	-0.506695	0.123397	-0.853065
15629		8.420028	-2.230934	4.519175	-0.005566	-0.000288	0.001383	-1.207520	0.156250	0.258057	0.017731	-0.506712	0.123418	-0.853051
15630		8.450601	-2.278082	4.463048	-0.007575	-0.002630	-0.004732	-1.197021	0.153809	0.266846	0.017672	-0.506731	0.123467	-0.853034
15631		8.457846	-2.245666	4.458129	-0.006453	-0.007371	-0.010799	-1.200684	0.153809	0.264404	0.017629	-0.506822	0.123446	-0.852984
15632		8.451905	-2.267703	4.472945	-0.006638	-0.005958	-0.017329	-1.205322	0.155029	0.258057	0.017519	-0.506899	0.123413	-0.852945
15633		8.477907	-2.241145	4.438503	-0.003877	-0.000844	-0.019622	-1.208496	0.163086	0.257568	0.017366	-0.506920	0.123374	-0.852941
15634		8.453431	-2.221196	4.426427	-0.000466	0.009122	-0.023635	-1.207764	0.160645	0.264893	0.017229	-0.506873	0.123274	-0.852987
15635		8.448793	-2.204600	4.472233	0.005376	0.012881	-0.022536	-1.203613	0.150879	0.261475	0.017144	-0.506819	0.123119	-0.853043
15636		8.422253	-2.159471	4.497986	0.002771	0.015942	-0.018033	-1.209961	0.156982	0.260498	0.017019	-0.506729	0.123037	-0.853111
15637		8.429915	-2.199652	4.494286	0.001691	0.013023	-0.016842	-1.202637	0.153564	0.266113	0.016921	-0.506655	0.122957	-0.853168
15638		8.440870	-2.219964	4.494126	-0.000129	0.009264	-0.016431	-1.206299	0.155029	0.259766	0.016845	-0.506628	0.122873	-0.853198
15639		8.437303	-2.188073	4.457179	0.001944	0.010221	-0.014775	-1.206787	0.156494	0.267822	0.016764	-0.506573	0.122800	-0.853243
15640		8.439960	-2.166095	4.462880	0.001280	0.012330	-0.010410	-1.199463	0.153320	0.260498	0.016751	-0.506522	0.122721	-0.853284
15641		8.446153	-2.183002	4.494978	-0.000503	0.012217	-0.002619	-1.202881	0.156494	0.264648	0.016756	-0.506448	0.122708	-0.853330
15642		8.431681	-2.188402	4.482030	-0.002899	0.008833	-0.003418	-1.200439	0.156738	0.257568	0.016777	-0.506411	0.122690	-0.853354
15643		8.408436	-2.134591	4.498406	-0.006070	0.005304	-0.002768	-1.206299	0.159912	0.268066	0.016768	-0.506380	0.122715	-0.853369
15644		8.420787	-2.223923	4.506860	-0.003784	-0.002460	0.001670	-1.208008	0.145752	0.257080	0.016862	-0.506427	0.122704	-0.853341
15645		8.425092	-2.220922	4.485820	-0.006468	-0.008965	-0.000500	-1.204346	0.157227	0.266602	0.016803	-0.506485	0.122786	-0.853296
15646		8.446586	-2.191915	4.482625	-0.007764	-0.009777	-0.003611	-1.201904	0.148193	0.262695	0.016829	-0.506585	0.122794	-0.853235
15647		8.433089	-2.189571	4.478810	-0.005729	-0.008126	0.000280	-1.205566	0.153076	0.265137	0.016827	-0.506656	0.122841	-0.853186
15648		8.429684	-2.193817	4.497571	-0.007133	-0.006856	0.003865	-1.207031	0.150635	0.272949	0.016873	-0.506719	0.122897	-0.853140
15649		8.467138	-2.209779	4.436738	-0.007133	-0.006856	0.003864	-1.208252	0.152588	0.258545	0.016933	-0.506803	0.122939	-0.853083
15650		8.467757	-2.218787	4.423956	-0.002864	-0.000755	0.000905	-1.200928	0.160400	0.263428	0.016931	-0.506803	0.122979	-0.853077
15651		8.460596	-2.242733	4.440201	-0.003440	0.006235	0.001224	-1.199951	0.156250	0.264160	0.016996	-0.506775	0.122980	-0.853092
15652		8.444522	-2.215615	4.474952	-0.001944	0.007566	0.001672	-1.212402	0.159912	0.269531	0.017051	-0.506738	0.122981	-0.853113
15653		8.458152	-2.218418	4.478292	-0.001746	0.008086	-0.000990	-1.203125	0.157471	0.262695	0.017109	-0.506709	0.122956	-0.853133
15654		8.440958	-2.243877	4.460689	0.000685	0.004160	-0.003952	-1.207520	0.156250	0.260010	0.017132	-0.506696	0.122919	-0.853145
15655		8.463949	-2.185618	4.476161	0.002487	0.008265	-0.003248	-1.205078	0.162842	0.269043	0.017138	-0.506642	0.122891	-0.853181
15656		8.442612	-2.214180	4.479264	0.003550	0.011530	-0.003326	-1.207031	0.156982	0.254639	0.017224	-0.506595	0.122803	-0.853220
15657		8.444691	-2.193431	4.485453	0.001480	0.017188	-0.003459	-1.204834	0.150635	0.257568	0.017192	-0.506464	0.122799	-0.853299
15658		8.440541	-2.213133	4.483682	0.001713	0.014734	-0.000272	-1.204346	0.158936	0.271973	0.017177	-0.506357	0.122809	-0.853362
15659		8.439634	-2.212619	4.485642	0.002977	0.011904	-0.004542	-1.203613	0.156738	0.267090	0.017248	-0.506318	0.122719	-0.853396
15660		8.405743	-2.193352	4.526791	0.001501	0.010225	-0.006108	-1.207764	0.158936	0.259521	0.017275	-0.506279	0.122652	-0.853428
15661		8.421404	-2.228274	4.481994	0.000869	0.005025	-0.005501	-1.206055	0.148193	0.254639	0.017277	-0.506254	0.122615	-0.853448
15662		8.435626	-2.229650	4.484940	0.000964	0.003291	-0.011081	-1.209473	0.157715	0.262451	0.017168	-0.506232	0.122600	-0.853466
15663		8.427543	-2.185387	4.491275	-0.000406	0.003866	-0.009729	-1.205566	0.157715	0.253418	0.017142	-0.506227	0.122549	-0.853477
15664		8.474461	-2.196865	4.466984	-0.000732	0.008054	-0.007342	-1.207275	0.155518	0.265137	0.017094	-0.506167	0.122536	-0.853515
15665		8.445484	-2.190856	4.463710	0.000868	0.011639	-0.003977	-1.201904	0.157959	0.257568	0.017113	-0.506109	0.122495	-0.853555
15666		8.414812	-2.201798	4.543117	-0.000090	0.010627	-0.000981	-1.209473	0.150391	0.264404	0.017138	-0.506040	0.122485	-0.853597
15667		8.411944	-2.188424	4.481619	0.000526	0.002945	-0.003525	-1.202637	0.158447	0.262451	0.017138	-0.506040	0.122465	-0.853599
15668		8.417815	-2.189407	4.536286	-0.003258	0.000483	-0.001858	-1.205811	0.157471	0.253418	0.017177	-0.506058	0.122455	-0.853590
15669		8.437159	-2.205274	4.493908	-0.006734	-0.005820	-0.001463	-1.202881	0.156738	0.259521	0.017161	-0.506093	0.122507	-0.853562
15670		8.444397	-2.182287	4.477083	-0.010502	-0.002015	0.000614	-1.208740	0.159424	0.256836	0.017168	-0.506118	0.122573	-0.853537
15671		8.452188	-2.217690	4.482796	-0.010953	0.000266	0.001201	-1.211914	0.156982	0.264160	0.017166	-0.506115	0.122654	-0.853527
15672		8.456304	-2.223373	4.450779	-0.006307	0.005474	0.002118	-1.206543	0.154297	0.257324	0.017197	-0.506091	0.122694	-0.853535
15673		8.408015	-2.194530	4.500379	-0.005616	0.003020	-0.003365	-1.201660	0.147949	0.256348	0.017163	-0.506074	0.122729	-0.853541
15674		8.435717	-2.191731	4.517503	-0.004956	0.005245	0.001882	-1.205566	0.150635	0.260254	0.017140	-0.506035	0.122796	-0.853555
15675		8.410234	-2.175750	4.505300	-0.006690	0.004086	0.006326	-1.210693	0.160889	0.263672	0.017164	-0.506008	0.122880	-0.853558
15676		8.415007	-2.239817	4.495583	-0.004131	0.002070	0.005170	-1.198975	0.157227	0.263916	0.017245	-0.506005	0.122908	-0.853554
15677		8.413951	-2.224196	4.519475	-0.007243	-0.002499	0.002468	-1.206055	0.155029	0.263184	0.017303	-0.506045	0.122943	-0.853524
15678		8.392240	-2.188077	4.509973	-0.006543	-0.007581	0.003954	-1.202881	0.159180	0.263672	0.017352	-0.506113	0.122995	-0.853476
15679		8.433332	-2.233498	4.487340	-0.007261	-0.008766	0.002054	-1.201904	0.157471	0.266113	0.017412	-0.506194	0.123028	-0.853422
15680		8.448166	-2.236624	4.488267	-0.004951	-0.007981	-0.001177	-1.197510	0.154541	0.263184	0.017459	-0.506279	0.123029	-0.853370
15681		8.430741	-2.237562	4.504590	-0.008171	-0.008189	-0.005269	-1.204346	0.157227	0.264404	0.017445	-0.506364	0.123049	-0.853317
15682		8.424491	-2.210739	4.484683	-0.003609	-0.012192	-0.009914	-1.202881	0.150146	0.266602	0.017427	-0.506480	0.123012	-0.853254
15683		8.438924	-2.154638	4.463245	-0.006243	-0.008792	-0.004293	-1.212402	0.155273	0.262695	0.017411	-0.506571	0.123031	-0.853198
15684		8.459574	-2.236825	4.430765	-0.001983	0.001641	0.002371	-1.203369	0.155273	0.262939	0.017443	-0.506564	0.123056	-0.853197
15685		8.444900	-2.267170	4.486760	-0.002981	-0.000378	-0.008987	-1.207764	0.160156	0.269531	0.017407	-0.506590	0.123031	-0.853187
15686		8.434353	-2.242964	4.488038	-0.003172	-0.005228	-0.015943	-1.203857	0.157227	0.257324	0.017366	-0.506673	0.122950	-0.853150
15687		8.406748	-2.227231	4.494139	-0.001796	-0.012415	-0.018832	-1.204346	0.166016	0.260254	0.017262	-0.506778	0.122887	-0.853098
15688		8.426354	-2.215393	4.486183	-0.001195	-0.019751	-0.020274	-1.206299	0.153809	0.262207	0.017209	-0.506946	0.122779	-0.853015
15689		8.475401	-2.225232	4.458574	-0.000010	-0.014579	-0.018549	-1.203857	0.151611	0.266357	0.017118	-0.507076	0.122700	-0.852951
15690		8.484867	-2.214909	4.416928	0.003142	-0.008416	-0.026168	-1.204834	0.159424	0.260254	0.016990	-0.507180	0.122559	-0.852912
15691		8.470028	-2.175493	4.462407	0.003852	-0.000617	-0.022734	-1.206299	0.153320	0.261963	0.016891	-0.507210	0.122427	-0.852915
15692		8.420160	-2.171904	4.495821	0.003122	0.002527	-0.015011	-1.200439	0.159180	0.269531	0.016820	-0.507212	0.122344	-0.852928
15693		8.425211	-2.216086	4.509809	0.002000	-0.005970	-0.012004	-1.204590	0.152344	0.260254	0.016842	-0.507296	0.122235	-0.852892
15694		8.464786	-2.286320	4.470940	0.001554	-0.014290	-0.021464	-1.208252	0.161133	0.265137	0.016726	-0.507420	0.122140	-0.852834
15695		8.449934	-2.188803	4.492378	0.003178	-0.021652	-0.029265	-1.206787	0.156250	0.264160	0.016626	-0.507616	0.121965	-0.852745
15696		8.455825	-2.131322	4.435177	0.002983	-0.022175	-0.026607	-1.203369	0.150146	0.265137	0.016519	-0.507809	0.121816	-0.852653
15697		8.489652	-2.088508	4.371649	0.000810	-0.004533	-0.012206	-1.199707	0.147217	0.264893	0.016470	-0.507865	0.121757	-0.852629
15698		8.464512	-2.112666	4.406029	-0.005282	0.015347	0.003601	-1.206055	0.150879	0.265137	0.016477	-0.507765	0.121816	-0.852681
15699		8.470517	-2.181820	4.472900	-0.003787	0.020668	0.012567	-1.197754	0.151367	0.261475	0.016559	-0.507616	0.121898	-0.852756
15700		8.451973	-2.242224	4.514968	-0.001544	0.012242	0.003745	-1.203857	0.150391	0.270752	0.016596	-0.507532	0.121926	-0.852801
15701		8.423848	-2.245125	4.498643	-0.002229	-0.006162	-0.009752	-1.199219	0.154297	0.268311	0.016575	-0.507613	0.121881	-0.852760
15702		8.448173	-2.153035	4.453651	-0.001515	-0.011243	-0.008271	-1.208008	0.150391	0.262207	0.016589	-0.507726	0.121828	-0.852700
15703		8.451949	-2.132362	4.456432	-0.002665	-0.006511	-0.002184	-1.205078	0.150879	0.265381	0.016581	-0.507776	0.121848	-0.852667
15704		8.486368	-2.167392	4.392148	-0.002921	0.000276	0.004259	-1.209229	0.152100	0.258057	0.016629	-0.507781	0.121885	-0.852658
15705		8.466986	-2.194543	4.480669	-0.003156	0.006716	0.009584	-1.210693	0.149658	0.265381	0.016678	-0.507714	0.121969	-0.852685
15706		8.464546	-2.232173	4.452763	-0.005385	0.000555	-0.000170	-1.203857	0.151855	0.254639	0.016668	-0.507718	0.122015	-0.852676
15707		8.446235	-2.224721	4.482157	-0.002884	-0.004402	-0.006495	-1.204834	0.158691	0.267822	0.016615	-0.507742	0.122030	-0.852661
15708		8.467072	-2.185989	4.491833	-0.002786	-0.006134	-0.012088	-1.203613	0.152100	0.260986	0.016596	-0.507817	0.121968	-0.852625
15709		8.487753	-2.216665	4.425165	-0.002943	-0.001080	-0.011237	-1.201416	0.144287	0.265381	0.016527	-0.507838	0.121947	-0.852618
15710		8.447754	-2.179199	4.434671	-0.002167	0.005337	-0.012267	-1.201416	0.161621	0.268799	0.016427	-0.507823	0.121927	-0.852631
15711		8.460850	-2.163892	4.462137	0.000736	0.009393	-0.006889	-1.203125	0.145508	0.262451	0.016470	-0.507787	0.121848	-0.852663
15712		8.462631	-2.237246	4.461296	0.001392	0.007634	-0.010150	-1.205811	0.153076	0.257812	0.016394	-0.507747	0.121816	-0.852693
15713		8.454378	-2.192592	4.467868	0.000301	0.001072	-0.016360	-1.206787	0.151123	0.262451	0.016298	-0.507749	0.121753	-0.852703
15714		8.442027	-2.143220	4.506034	-0.000693	0.000749	-0.011123	-1.200195	0.151855	0.270020	0.016238	-0.507758	0.121715	-0.852704
15715		8.443692	-2.166965	4.469914	-0.000953	0.001267	-0.005099	-1.203857	0.148438	0.268555	0.016254	-0.507780	0.121679	-0.852695
15716		8.453794	-2.131125	4.446315	-0.000279	0.003147	-0.000956	-1.199707	0.149902	0.269531	0.016274	-0.507778	0.121674	-0.852697
15717		8.443080	-2.167105	4.471002	-0.003403	0.009168	0.006394	-1.209229	0.153076	0.264160	0.016343	-0.507731	0.121712	-0.852718
15718		8.445618	-2.156754	4.463936	-0.002747	0.005127	0.011233	-1.207520	0.157227	0.264404	0.016438	-0.507690	0.121777	-0.852732
15719		8.447597	-2.138831	4.468765	-0.004179	0.006736	0.015943	-1.200439	0.156494	0.262939	0.016583	-0.507636	0.121858	-0.852749
15720		8.439774	-2.165415	4.485215	-0.008730	0.004113	0.019058	-1.208008	0.151855	0.261719	0.016736	-0.507599	0.121982	-0.852750
15721		8.439061	-2.177377	4.473598	-0.006743	0.006459	0.025197	-1.196533	0.146484	0.264893	0.016898	-0.507530	0.122146	-0.852765
15722		8.435211	-2.209783	4.458060	-0.008668	0.007056	0.024213	-1.202637	0.145996	0.265869	0.017041	-0.507471	0.122317	-0.852773
15723		8.479558	-2.201224	4.469671	-0.007435	0.004924	0.022166	-1.202393	0.157959	0.268799	0.017164	-0.507427	0.122480	-0.852773
15724		8.441076	-2.259631	4.453278	-0.007469	0.007902	0.016306	-1.208496	0.156494	0.264893	0.017306	-0.507378	0.122577	-0.852785
15725		8.435470	-2.248762	4.497849	-0.005068	0.000697	0.007058	-1.209961	0.164551	0.260986	0.017372	-0.507377	0.122636	-0.852776
15726		8.450280	-2.260358	4.487504	-0.005370	-0.006056	-0.001716	-1.212891	0.154297	0.262207	0.017410	-0.507425	0.122644	-0.852746
15727		8.479380	-2.223651	4.444724	-0.004676	-0.008504	-0.007210	-1.202148	0.159668	0.264160	0.017360	-0.507493	0.122658	-0.852704
15728		8.445231	-2.249360	4.443144	-0.002183	-0.000576	-0.011568	-1.205078	0.155518	0.260742	0.017331	-0.507521	0.122603	-0.852696
15729		8.462985	-2.230011	4.449417	-0.000017	-0.001344	-0.015492	-1.202148	0.160645	0.266113	0.017252	-0.507548	0.122538	-0.852691
15730		8.446144	-2.236307	4.455008	0.006563	-0.001051	-0.023219	-1.205811	0.155518	0.261719	0.017188	-0.507595	0.122364	-0.852689
15731		8.450191	-2.212236	4.459014	0.003804	-0.003545	-0.027915	-1.208740	0.152100	0.267090	0.017042	-0.507651	0.122218	-0.852680
15732		8.465281	-2.202035	4.473097	0.005357	-0.003249	-0.030824	-1.207031	0.159180	0.271729	0.016872	-0.507717	0.122051	-0.852668
15733		8.455911	-2.183038	4.462318	0.002955	-0.006295	-0.030522	-1.208252	0.145752	0.266846	0.016747	-0.507818	0.121869	-0.852636
15734		8.468052	-2.151409	4.425702	0.001745	-0.004513	-0.029602	-1.198730	0.150635	0.269531	0.016548	-0.507890	0.121749	-0.852614
15735		8.451414	-2.157020	4.431256	0.002037	0.002243	-0.020821	-1.214355	0.144531	0.273438	0.016453	-0.507918	0.121634	-0.852616
15736		8.464967	-2.140628	4.458310	-0.001407	0.005831	-0.012610	-1.205811	0.149658	0.266846	0.016351	-0.507910	0.121607	-0.852627
15737		8.468110	-2.127813	4.451275	-0.002329	0.008105	-0.003322	-1.205811	0.157959	0.268066	0.016336	-0.507869	0.121611	-0.852651
15738		8.430600	-2.122241	4.499972	-0.003451	0.009856	0.008636	-1.210693	0.149902	0.258057	0.016440	-0.507808	0.121647	-0.852679
15739		8.438049	-2.166886	4.495034	-0.008023	0.007575	0.012871	-1.204834	0.154297	0.260986	0.016495	-0.507734	0.121778	-0.852704
15740		8.449669	-2.208373	4.469291	-0.006825	-0.000131	0.012639	-1.204590	0.151611	0.263916	0.016597	-0.507726	0.121873	-0.852693
15741		8.453803	-2.214871	4.436751	-0.004773	-0.002803	0.006903	-1.205322	0.153809	0.263184	0.016659	-0.507748	0.121935	-0.852670
15742		8.468036	-2.218580	4.438490	-0.007254	-0.002179	0.003587	-1.207031	0.150879	0.264648	0.016694	-0.507767	0.121996	-0.852649
15743		8.445237	-2.174230	4.441896	-0.006022	0.001959	0.001966	-1.213867	0.152344	0.266113	0.016702	-0.507760	0.122052	-0.852646
15744		8.458439	-2.169543	4.456820	-0.006842	0.008768	0.006080	-1.206055	0.164795	0.259521	0.016724	-0.507699	0.122136	-0.852670
15745		8.459291	-2.237251	4.467624	-0.005649	0.007330	0.006273	-1.200928	0.160156	0.270996	0.016820	-0.507643	0.122170	-0.852696
15746		8.477393	-2.245018	4.438541	-0.002045	0.004959	-0.002365	-1.205078	0.160156	0.269287	0.016870	-0.507638	0.122138	-0.852702
15747		8.450064	-2.194663	4.475007	-0.000493	0.005259	-0.005269	-1.200195	0.154297	0.272949	0.016897	-0.507628	0.122090	-0.852715
15748		8.463703	-2.187992	4.490066	-0.000430	0.004222	-0.008627	-1.199707	0.158447	0.260254	0.016890	-0.507638	0.122033	-0.852717
15749		8.479484	-2.181225	4.398785	-0.000259	0.009069	-0.001651	-1.199219	0.147217	0.267090	0.016927	-0.507580	0.122011	-0.852754
15750		8.444031	-2.147031	4.464391	-0.000388	0.017409	0.005487	-1.206055	0.154785	0.272217	0.016969	-0.507469	0.122042	-0.852815
15751		8.448475	-2.218915	4.444872	0.000644	0.021023	0.006532	-1.205078	0.152588	0.264160	0.017049	-0.507340	0.122049	-0.852889
15752		8.441908	-2.206691	4.491813	0.000391	0.017557	0.004031	-1.204834	0.151367	0.263672	0.017093	-0.507222	0.122064	-0.852956
15753		8.447891	-2.191860	4.466090	-0.000662	0.014288	0.004102	-1.208984	0.149658	0.262451	0.017129	-0.507126	0.122091	-0.853008
15754		8.437449	-2.235718	4.479157	0.001990	0.004633	-0.001953	-1.207031	0.150146	0.266846	0.017128	-0.507100	0.122083	-0.853025
15755		8.465638	-2.198692	4.438265	-0.003328	0.004146	-0.005493	-1.197754	0.153320	0.267090	0.017091	-0.507092	0.122088	-0.853030
15756		8.447759	-2.207256	4.444677	0.000587	0.008181	-0.006464	-1.204346	0.146729	0.259521	0.017089	-0.507063	0.122042	-0.853054
15757		8.444898	-2.173469	4.494867	-0.000489	0.017789	-0.004433	-1.204834	0.154053	0.269775	0.017039	-0.506943	0.122049	-0.853125
15758		8.447637	-2.169612	4.477227	-0.000873	0.016397	-0.000218	-1.202393	0.153320	0.268311	0.017060	-0.506852	0.122044	-0.853180
15759		8.447810	-2.194535	4.443564	0.001466	0.020478	0.002830	-1.198730	0.150879	0.264648	0.017109	-0.506727	0.122036	-0.853254
15760		8.434945	-2.213661	4.494419	0.001511	0.019786	0.000589	-1.202881	0.154785	0.263428	0.017135	-0.506604	0.122025	-0.853328
15761		8.443676	-2.211240	4.530915	0.003046	0.007901	-0.002029	-1.209473	0.155518	0.264893	0.017169	-0.506565	0.121986	-0.853356
15762		8.426030	-2.186671	4.479427	-0.000207	0.008375	-0.003900	-1.206055	0.165283	0.263428	0.017169	-0.506524	0.121965	-0.853383
15763		8.410849	-2.175547	4.490080	-0.000711	0.005079	-0.001490	-1.206543	0.153809	0.259033	0.017232	-0.506506	0.121930	-0.853398
15764		8.458626	-2.245655	4.488201	0.001993	0.010897	-0.001540	-1.203125	0.160400	0.255859	0.017247	-0.506434	0.121912	-0.853443
15765		8.463552	-2.204788	4.498399	0.003276	0.014342	-0.005403	-1.201904	0.158203	0.260742	0.017266	-0.506339	0.121851	-0.853507
15766		8.430344	-2.202191	4.515678	0.003162	0.012437	-0.007211	-1.209961	0.152832	0.260498	0.017273	-0.506270	0.121781	-0.853558
15767		8.429340	-2.192490	4.529308	0.002178	0.008132	-0.010494	-1.204102	0.158691	0.261475	0.017221	-0.506230	0.121728	-0.853591
15768		8.430353	-2.207583	4.506008	-0.003663	0.004692	-0.010510	-1.206543	0.155029	0.267090	0.017183	-0.506222	0.121691	-0.853602
15769		8.411242	-2.190887	4.548033	-0.004096	0.000360	-0.011455	-1.200195	0.161621	0.265381	0.017130	-0.506255	0.121658	-0.853588
15770		8.427064	-2.167062	4.479753	-0.003821	-0.002787	-0.010494	-1.200684	0.158203	0.257324	0.017124	-0.506311	0.121604	-0.853562
15771		8.424038	-2.178073	4.487355	-0.003778	0.000155	-0.005330	-1.196777	0.161865	0.258789	0.017124	-0.506322	0.121593	-0.853557
15772		8.427166	-2.199388	4.537321	-0.007557	-0.002323	-0.003672	-1.196777	0.155518	0.259033	0.017147	-0.506357	0.121600	-0.853535
15773		8.439702	-2.188422	4.476207	-0.008079	-0.008906	-0.007545	-1.207031	0.155518	0.267822	0.017119	-0.506440	0.121610	-0.853485
15774		8.438970	-2.163447	4.510807	-0.008445	-0.010643	-0.004446	-1.204590	0.159668	0.259766	0.017117	-0.506546	0.121630	-0.853419
15775		8.440815	-2.180508	4.484986	-0.008609	-0.008227	0.003389	-1.208984	0.161377	0.253662	0.017170	-0.506611	0.121687	-0.853371
15776		8.440617	-2.173524	4.495793	-0.011015	-0.005009	0.004111	-1.201172	0.157471	0.260010	0.017201	-0.506636	0.121777	-0.853343
15777		8.432939	-2.149491	4.477019	-0.010791	0.002429	0.015132	-1.208252	0.152344	0.257080	0.017312	-0.506615	0.121903	-0.853335
15778		8.414078	-2.153830	4.494355	-0.012072	-0.001020	0.018990	-1.202393	0.162109	0.266602	0.017409	-0.506603	0.122083	-0.853315
15779		8.459354	-2.256396	4.474513	-0.010834	0.000480	0.024350	-1.205811	0.155273	0.264648	0.017617	-0.506600	0.122226	-0.853292
15780		8.461017	-2.231784	4.490182	-0.014084	-0.002673	0.015069	-1.203369	0.161133	0.266602	0.017708	-0.506622	0.122381	-0.853255
15781		8.431817	-2.221442	4.496448	-0.009732	-0.006834	0.014210	-1.197754	0.148926	0.259766	0.017846	-0.506680	0.122479	-0.853203
15782		8.452849	-2.202906	4.481779	-0.010144	-0.005246	0.012561	-1.205566	0.159180	0.265137	0.017906	-0.506713	0.122618	-0.853163
15783		8.429267	-2.213310	4.431833	-0.011356	-0.003465	0.013480	-1.209473	0.159912	0.265869	0.018011	-0.506742	0.122738	-0.853126
15784		8.465928	-2.230690	4.372303	-0.008326	0.008404	0.019981	-1.206543	0.160400	0.259277	0.018160	-0.506678	0.122867	-0.853142
15785		8.504702	-2.269779	4.364481	-0.004085	0.014867	0.018158	-1.209229	0.153320	0.257812	0.018296	-0.506558	0.122970	-0.853196
15786		8.415462	-2.204297	4.512020	0.000408	0.021168	0.011431	-1.202637	0.156494	0.257324	0.018360	-0.506393	0.123038	-0.853282
15787		8.409531	-2.210041	4.534621	-0.003167	0.016575	0.017390	-1.197510	0.158691	0.256836	0.018477	-0.506259	0.123142	-0.853344
15788		8.441077	-2.333458	4.478303	-0.008756	0.012979	0.012459	-1.201904	0.159668	0.263184	0.018554	-0.506160	0.123254	-0.853385
15789		8.460546	-2.305243	4.478504	-0.005869	0.012423	-0.003927	-1.200439	0.150635	0.257324	0.018537	-0.506093	0.123267	-0.853423
15790		8.421973	-2.198632	4.459673	-0.002019	0.013867	-0.008932	-1.203125	0.158936	0.263672	0.018450	-0.506006	0.123267	-0.853477
15791		8.420866	-2.239664	4.507917	-0.001832	0.018357	-0.003083	-1.197266	0.162109	0.265625	0.018447	-0.505897	0.123258	-0.853543
15792		8.412807	-2.262648	4.526205	-0.000226	0.017972	-0.008217	-1.196533	0.160889	0.263184	0.018441	-0.505804	0.123197	-0.853607
15793		8.439411	-2.208456	4.511337	-0.000093	0.013267	-0.007950	-1.207031	0.161133	0.260986	0.018434	-0.505739	0.123142	-0.853653
15794		8.458704	-2.239463	4.447939	0.002800	0.023571	-0.002143	-1.200928	0.164307	0.258301	0.018454	-0.505586	0.123105	-0.853749
15795		8.419918	-2.232793	4.498807	0.001799	0.025878	-0.003896	-1.208740	0.165527	0.260742	0.018472	-0.505417	0.123057	-0.853856
15796		8.426914	-2.274428	4.496019	0.002051	0.019455	-0.009218	-1.207031	0.162109	0.260498	0.018461	-0.505301	0.122983	-0.853935
15797		8.410831	-2.253445	4.520147	0.000431	0.012942	-0.017765	-1.210938	0.160889	0.255127	0.018378	-0.505242	0.122890	-0.853985
15798		8.394285	-2.173852	4.521644	-0.001382	0.009179	-0.017367	-1.200684	0.161133	0.261230	0.018272	-0.505195	0.122828	-0.854024
15799		8.394557	-2.180316	4.510967	-0.000226	0.011705	-0.008650	-1.207275	0.158447	0.257080	0.018260	-0.505141	0.122772	-0.854065
15800		8.401857	-2.213968	4.518557	-0.001975	0.010531	-0.004207	-1.199219	0.157227	0.259033	0.018245	-0.505078	0.122768	-0.854103
15801		8.395544	-2.192636	4.575921	-0.002623	0.005676	-0.002485	-1.208740	0.164062	0.258057	0.018254	-0.505056	0.122767	-0.854116
15802		8.372459	-2.241925	4.572435	-0.006342	-0.010355	-0.005021	-1.202881	0.160400	0.256348	0.018261	-0.505147	0.122770	-0.854061
15803		8.411277	-2.247298	4.522378	-0.007714	-0.025932	-0.011905	-1.197998	0.156006	0.259521	0.018216	-0.505353	0.122761	-0.853942
15804		8.419300	-2.164569	4.481187	-0.008082	-0.021413	-0.008396	-1.197510	0.170410	0.256104	0.018183	-0.505531	0.122772	-0.853836
15805		8.422060	-2.222295	4.499995	-0.007074	-0.017459	-0.006233	-1.201660	0.153564	0.252930	0.018220	-0.505673	0.122754	-0.853753
15806		8.439144	-2.240759	4.475238	-0.005996	-0.020798	-0.007843	-1.206055	0.159180	0.260986	0.018162	-0.505826	0.122779	-0.853660
15807		8.423435	-2.249193	4.477492	-0.002078	-0.023023	-0.009224	-1.205811	0.156250	0.264893	0.018157	-0.506012	0.122741	-0.853555
15808		8.416701	-2.205364	4.480784	0.000007	-0.016144	-0.008247	-1.204102	0.153809	0.261719	0.018157	-0.506154	0.122694	-0.853478
15809		8.439817	-2.233160	4.498971	0.000394	-0.017390	-0.005481	-1.201172	0.154053	0.264404	0.018161	-0.506295	0.122668	-0.853398
15810		8.461229	-2.255777	4.442681	-0.000016	-0.015802	-0.007132	-1.204102	0.158936	0.257568	0.018161	-0.506433	0.122632	-0.853321
15811		8.453687	-2.212254	4.447309	0.002316	-0.005462	-0.003651	-1.204102	0.160889	0.262695	0.018185	-0.506477	0.122597	-0.853299
15812		8.464672	-2.226120	4.457504	0.001832	0.003421	-0.001518	-1.204102	0.157227	0.268066	0.018234	-0.506468	0.122560	-0.853309
15813		8.435926	-2.262529	4.499439	0.001969	0.004979	-0.000828	-1.203857	0.156250	0.256836	0.018284	-0.506457	0.122527	-0.853319
15814		8.431765	-2.223707	4.474111	0.002844	0.003757	-0.006756	-1.200928	0.159912	0.262207	0.018264	-0.506437	0.122486	-0.853338
15815		8.460188	-2.227649	4.479497	0.001493	0.003979	-0.006526	-1.210938	0.156982	0.261719	0.018274	-0.506430	0.122433	-0.853350
15816		8.428288	-2.233483	4.483146	0.001333	0.002764	-0.006097	-1.204102	0.160400	0.258789	0.018262	-0.506423	0.122399	-0.853358
15817		8.416949	-2.209853	4.485406	0.001357	0.002421	-0.007217	-1.204590	0.161621	0.259766	0.018259	-0.506419	0.122350	-0.853368
15818		8.424387	-2.235128	4.503968	-0.001941	0.003582	-0.006856	-1.205078	0.164062	0.258789	0.018251	-0.506409	0.122322	-0.853378
15819		8.416485	-2.199914	4.498152	-0.003588	0.001031	-0.006887	-1.212402	0.159668	0.262939	0.018246	-0.506416	0.122299	-0.853377
15820		8.436784	-2.222685	4.443930	-0.002693	-0.003178	-0.006949	-1.208740	0.157959	0.256592	0.018232	-0.506456	0.122280	-0.853356
15821		8.431534	-2.200982	4.499715	-0.004044	-0.002956	-0.006719	-1.202393	0.151611	0.255859	0.018194	-0.506483	0.122286	-0.853341
15822		8.414980	-2.218184	4.492326	-0.006495	-0.005317	-0.004181	-1.205566	0.155518	0.261230	0.018144	-0.506523	0.122333	-0.853311
15823		8.413901	-2.193620	4.527408	-0.006403	-0.009335	-0.001673	-1.198730	0.157959	0.270996	0.018143	-0.506601	0.122371	-0.853259
15824		8.434736	-2.217511	4.471585	-0.009560	-0.012880	-0.001046	-1.203613	0.163086	0.261475	0.018173	-0.506727	0.122407	-0.853179
15825		8.417370	-2.219382	4.487254	-0.008717	-0.010138	0.001553	-1.195312	0.153564	0.263428	0.018221	-0.506809	0.122452	-0.853122
15826		8.433017	-2.230646	4.475659	-0.006697	-0.012108	-0.001939	-1.209229	0.162598	0.264160	0.018223	-0.506914	0.122487	-0.853055
15827		8.439613	-2.191215	4.482029	-0.012468	-0.012966	0.002079	-1.196289	0.151123	0.263184	0.018258	-0.507018	0.122564	-0.852982
15828		8.453030	-2.231261	4.453726	-0.009606	-0.012194	0.001187	-1.197754	0.154297	0.270996	0.018255	-0.507117	0.122643	-0.852911
15829		8.450982	-2.252145	4.447577	-0.009286	-0.009765	0.000329	-1.197998	0.153076	0.264160	0.018273	-0.507215	0.122696	-0.852845
15830		8.432355	-2.237481	4.487860	-0.008348	-0.008397	-0.001550	-1.205322	0.159180	0.264893	0.018260	-0.507290	0.122750	-0.852793
15831		8.458153	-2.212707	4.452870	-0.007681	-0.010144	-0.004813	-1.202148	0.158936	0.266113	0.018249	-0.507380	0.122772	-0.852736
15832		8.463054	-2.250917	4.477204	-0.006400	-0.009336	-0.001684	-1.206787	0.158447	0.273926	0.018270	-0.507465	0.122796	-0.852682
15833		8.471716	-2.243490	4.435794	-0.006607	-0.007217	-0.006000	-1.202637	0.161621	0.265137	0.018264	-0.507551	0.122795	-0.852631
15834		8.445056	-2.193522	4.470632	-0.007067	-0.004942	-0.005406	-1.208496	0.161621	0.269531	0.018259	-0.507606	0.122804	-0.852597
15835		8.440364	-2.241724	4.449268	-0.001622	-0.002895	-0.001155	-1.205566	0.161621	0.264404	0.018309	-0.507647	0.122788	-0.852574
15836		8.472339	-2.234905	4.445869	-0.007121	0.002008	-0.002733	-1.201904	0.158936	0.277832	0.018310	-0.507646	0.122814	-0.852571
15837		8.443231	-2.221741	4.453416	-0.003688	0.002407	-0.002403	-1.212158	0.162598	0.254883	0.018351	-0.507670	0.122796	-0.852558
15838		8.457216	-2.224167	4.456289	-0.001907	0.006517	-0.001675	-1.199707	0.165039	0.268799	0.018349	-0.507612	0.122811	-0.852591
15839		8.472212	-2.242745	4.435223	-0.001105	0.006329	-0.004246	-1.199463	0.164062	0.259033	0.018390	-0.507593	0.122767	-0.852607
15840		8.442715	-2.229002	4.443794	-0.000652	0.010317	-0.004409	-1.206543	0.157471	0.260986	0.018397	-0.507526	0.122742	-0.852651
15841		8.456363	-2.230751	4.447651	0.000882	0.010968	-0.006189	-1.207031	0.160156	0.265137	0.018370	-0.507455	0.122716	-0.852697
15842		8.452366	-2.241713	4.457132	0.000286	0.011686	-0.006288	-1.204834	0.157959	0.261230	0.018362	-0.507390	0.122678	-0.852742
15843		8.436962	-2.229855	4.468612	0.001845	0.011995	-0.009189	-1.206055	0.158447	0.263672	0.018322	-0.507317	0.122629	-0.852793
15844		8.431880	-2.224102	4.502385	-0.001016	0.011220	-0.008302	-1.205566	0.162354	0.260010	0.018287	-0.507255	0.122598	-0.852835
15845		8.450147	-2.229932	4.474174	0.000336	0.010999	-0.008534	-1.209229	0.155762	0.263428	0.018264	-0.507188	0.122551	-0.852882
15846		8.453511	-2.225131	4.455879	0.000447	0.012899	-0.006722	-1.207764	0.154541	0.267090	0.018231	-0.507110	0.122524	-0.852933
15847		8.437781	-2.213471	4.467840	-0.000292	0.018322	-0.007086	-1.204346	0.162598	0.267090	0.018193	-0.507003	0.122497	-0.853001
15848		8.422468	-2.210107	4.467926	0.000121	0.016731	-0.005439	-1.205078	0.165527	0.272461	0.018207	-0.506909	0.122449	-0.853064
15849		8.433207	-2.231513	4.467934	0.002312	0.009718	-0.009790	-1.203125	0.160156	0.260498	0.018233	-0.506882	0.122348	-0.853094
15850		8.436900	-2.226343	4.449238	-0.003772	0.009070	-0.011909	-1.201660	0.160400	0.262939	0.018167	-0.506837	0.122317	-0.853126
15851		8.413924	-2.221631	4.499974	-0.000061	0.006324	-0.010619	-1.205566	0.146240	0.261719	0.018139	-0.506816	0.122258	-0.853148
15852		8.434981	-2.199125	4.487157	-0.003399	0.001903	-0.008447	-1.209961	0.163574	0.263428	0.018054	-0.506817	0.122272	-0.853147
15853		8.434417	-2.190141	4.499600	-0.001965	0.003927	-0.005742	-1.203613	0.162842	0.259521	0.018066	-0.506807	0.122241	-0.853157
15854		8.424479	-2.191914	4.465773	-0.003284	0.007075	-0.000336	-1.204346	0.145508	0.261963	0.018097	-0.506764	0.122248	-0.853181
15855		8.445734	-2.220693	4.487082	-0.003233	0.006389	-0.002578	-1.204834	0.155029	0.258057	0.018050	-0.506728	0.122287	-0.853198
15856		8.446028	-2.228894	4.475537	-0.002980	0.003585	-0.000500	-1.206787	0.159424	0.261475	0.018050	-0.506705	0.122314	-0.853208
15857		8.434474	-2.248128	4.523716	-0.001578	0.002681	-0.002971	-1.205566	0.162109	0.259766	0.018065	-0.506698	0.122304	-0.853213
15858		8.416723	-2.215472	4.483441	-0.006335	0.002155	-0.004199	-1.202148	0.159912	0.262939	0.018060	-0.506694	0.122317	-0.853213
15859		8.458890	-2.214322	4.502817	-0.002256	0.001155	-0.006007	-1.203857	0.161865	0.263916	0.018061	-0.506706	0.122292	-0.853210
15860		8.439206	-2.209307	4.446000	-0.000879	0.000593	-0.007357	-1.207275	0.155762	0.260986	0.018068	-0.506725	0.122245	-0.853205
15861		8.427947	-2.227900	4.493947	-0.002878	0.002214	-0.004986	-1.203125	0.151123	0.262451	0.018047	-0.506721	0.122246	-0.853208
15862		8.446301	-2.226232	4.476347	-0.004521	-0.000340	-0.005022	-1.202881	0.150146	0.264160	0.018008	-0.506740	0.122266	-0.853195
15863		8.432335	-2.223294	4.473673	-0.001977	-0.001992	-0.005050	-1.206543	0.157959	0.253906	0.017982	-0.506772	0.122267	-0.853176
15864		8.451593	-2.229623	4.443483	-0.004031	-0.002957	-0.006736	-1.208740	0.158203	0.257324	0.017945	-0.506794	0.122273	-0.853163
15865		8.464278	-2.206653	4.482160	0.000035	0.002307	-0.008116	-1.199951	0.154297	0.253906	0.017918	-0.506785	0.122239	-0.853174
15866		8.433124	-2.221032	4.473310	-0.003633	0.001715	-0.004658	-1.195557	0.156250	0.261475	0.017885	-0.506773	0.122256	-0.853179
15867		8.426166	-2.202764	4.443356	-0.003552	0.003958	-0.001722	-1.204834	0.153809	0.258789	0.017898	-0.506760	0.122265	-0.853185
15868		8.447135	-2.223281	4.476239	-0.003088	0.001683	-0.002315	-1.206543	0.156250	0.259033	0.017886	-0.506754	0.122286	-0.853186
15869		8.430935	-2.196399	4.510382	-0.003895	0.001870	0.000257	-1.199707	0.154297	0.266113	0.017900	-0.506744	0.122316	-0.853188
15870		8.418474	-2.218812	4.471570	-0.003457	-0.000062	0.000785	-1.210205	0.158691	0.257080	0.017929	-0.506763	0.122338	-0.853172
15871		8.468514	-2.211149	4.450745	-0.005589	0.000001	0.002464	-1.210205	0.156494	0.255859	0.017958	-0.506760	0.122386	-0.853167
15872		8.446579	-2.225154	4.476357	-0.004437	0.005171	0.004214	-1.211182	0.159668	0.255127	0.017987	-0.506715	0.122443	-0.853185
15873		8.414199	-2.233030	4.479944	-0.005762	0.005047	0.003321	-1.202637	0.161621	0.268311	0.018018	-0.506672	0.122497	-0.853202
15874		8.455885	-2.232987	4.499670	-0.005113	0.003646	0.001177	-1.208252	0.153564	0.264404	0.018069	-0.506670	0.122512	-0.853200
15875		8.450013	-2.231744	4.445421	-0.003921	0.002212	0.001377	-1.198730	0.156494	0.262207	0.018081	-0.506664	0.122552	-0.853197
15876		8.442455	-2.247719	4.473390	-0.002543	0.001652	0.000027	-1.206787	0.160400	0.266113	0.018109	-0.506666	0.122564	-0.853194
15877		8.430266	-2.217055	4.487579	-0.005008	0.002277	-0.003310	-1.200195	0.163330	0.263916	0.018116	-0.506671	0.122570	-0.853190
15878		8.428098	-2.245142	4.471273	-0.003657	0.002059	-0.003538	-1.206787	0.154053	0.259277	0.018146	-0.506678	0.122553	-0.853187
15879		8.467964	-2.230524	4.428375	-0.004412	0.001560	-0.003210	-1.202637	0.155762	0.267090	0.018120	-0.506674	0.122581	-0.853187
