// Start Time: Unknown
// Update Rate: 60.0Hz
// Filter Profile: human (46.1)
// Firmware Version: 4.6.0
PacketCounter	SampleTimeFine	Acc_X	Acc_Y	Acc_Z	Gyr_X	Gyr_Y	Gyr_Z	Mag_X	Mag_Y	Mag_Z	Quat_q0	Quat_q1	Quat_q2	Quat_q3
21293		8.436511	-4.805846	-1.180258	0.003666	-0.001702	-0.004764	-0.367920	0.674316	0.239990	0.496614	-0.708492	-0.241611	-0.439360
21294		8.427059	-4.824329	-1.142034	-0.000868	-0.000820	-0.005663	-0.361328	0.668701	0.244873	0.496587	-0.708487	-0.241645	-0.439381
21295		8.410061	-4.826704	-1.131556	-0.005481	0.000806	-0.005044	-0.357666	0.669922	0.245117	0.496533	-0.708504	-0.241647	-0.439413
21296		8.424539	-4.829254	-1.129885	0.004610	-0.005410	-0.004234	-0.360352	0.664307	0.244385	0.496534	-0.708496	-0.241711	-0.439390
21297		8.476891	-4.841354	-1.089475	0.018172	-0.009353	-0.009252	-0.361084	0.667969	0.243896	0.496590	-0.708435	-0.241870	-0.439336
21298		8.483155	-4.869172	-1.068597	0.019512	-0.009223	-0.009089	-0.352539	0.665039	0.241455	0.496658	-0.708367	-0.242031	-0.439282
21299		8.446744	-4.887742	-1.053979	0.008394	-0.006562	-0.002801	-0.355469	0.663086	0.239502	0.496691	-0.708344	-0.242101	-0.439241
21300		8.419342	-4.906759	-1.104362	0.009065	-0.005549	-0.001816	-0.353516	0.668213	0.233398	0.496740	-0.708314	-0.242160	-0.439203
21301		8.442800	-4.909936	-1.167110	0.016279	-0.008059	-0.002399	-0.358398	0.661865	0.245850	0.496831	-0.708260	-0.242254	-0.439136
21302		8.448493	-4.871667	-1.146277	0.028378	-0.015031	-0.002249	-0.358887	0.657959	0.239502	0.496982	-0.708182	-0.242416	-0.439000
21303		8.480326	-4.852970	-1.128540	0.035468	-0.022329	0.000694	-0.354004	0.670166	0.244141	0.497175	-0.708107	-0.242614	-0.438794
21304		8.458959	-4.930529	-1.106115	0.034034	-0.035420	0.002747	-0.354492	0.668701	0.241455	0.497344	-0.708087	-0.242847	-0.438506
21305		8.445460	-4.938111	-1.030572	0.039432	-0.037390	0.007496	-0.363770	0.670166	0.245605	0.497565	-0.708060	-0.243073	-0.438174
21306		8.420648	-4.914942	-1.042805	0.031792	-0.036672	0.017685	-0.362061	0.665527	0.245850	0.497792	-0.708074	-0.243199	-0.437822
21307		8.419867	-4.857463	-1.065001	0.030612	-0.032626	0.019897	-0.356445	0.668213	0.240967	0.498040	-0.708077	-0.243283	-0.437488
21308		8.441378	-4.845234	-1.103650	0.034663	-0.036630	0.022678	-0.363770	0.667480	0.238770	0.498321	-0.708079	-0.243379	-0.437114
21309		8.451016	-4.798329	-1.110851	0.042978	-0.036803	0.026794	-0.356201	0.668701	0.242920	0.498670	-0.708048	-0.243478	-0.436709
21310		8.482956	-4.818639	-1.061473	0.041627	-0.036959	0.026630	-0.354004	0.670654	0.236084	0.499006	-0.708022	-0.243581	-0.436310
21311		8.500872	-4.835546	-1.014044	0.032886	-0.030590	0.025990	-0.353271	0.663574	0.241943	0.499306	-0.707999	-0.243628	-0.435977
21312		8.453959	-4.842667	-1.028510	0.014425	-0.021523	0.024401	-0.350098	0.665283	0.238037	0.499504	-0.708010	-0.243584	-0.435758
21313		8.489121	-4.852692	-1.091523	0.007905	-0.020043	0.016752	-0.357666	0.662598	0.239746	0.499646	-0.708020	-0.243552	-0.435597
21314		8.471293	-4.842653	-1.175542	0.014486	-0.026264	0.011853	-0.354492	0.666504	0.248535	0.499800	-0.708003	-0.243598	-0.435423
21315		8.472471	-4.857268	-1.217360	0.022715	-0.031566	0.004647	-0.359131	0.672363	0.236816	0.499959	-0.707958	-0.243751	-0.435226
21316		8.463904	-4.864330	-1.174682	0.033748	-0.037952	0.002145	-0.357666	0.670654	0.233398	0.500183	-0.707876	-0.243986	-0.434971
21317		8.485862	-4.864695	-1.121411	0.039737	-0.042159	-0.001653	-0.354980	0.662109	0.235107	0.500410	-0.707784	-0.244283	-0.434692
21318		8.544954	-4.845461	-1.083092	0.041838	-0.040065	-0.007666	-0.350098	0.677979	0.245117	0.500593	-0.707686	-0.244607	-0.434459
21319		8.622123	-4.755231	-1.056239	0.036506	-0.036962	-0.012120	-0.352539	0.672852	0.235107	0.500774	-0.707563	-0.244962	-0.434250
21320		8.658585	-4.687359	-1.100540	0.031359	-0.029643	-0.014209	-0.350098	0.674561	0.237793	0.500922	-0.707425	-0.245276	-0.434128
21321		8.683228	-4.602761	-1.139813	0.017733	-0.022546	-0.019153	-0.355469	0.666016	0.238281	0.500973	-0.707303	-0.245564	-0.434105
21322		8.758386	-4.520619	-1.218905	0.001800	-0.015664	-0.028386	-0.356934	0.666504	0.235596	0.500862	-0.707205	-0.245820	-0.434247
21323		8.894396	-4.375957	-1.303680	0.001110	-0.008866	-0.042936	-0.365234	0.662354	0.239502	0.500692	-0.707046	-0.246162	-0.434509
21324		8.966483	-4.214762	-1.330173	-0.003294	0.000043	-0.066046	-0.356689	0.664307	0.242432	0.500377	-0.706810	-0.246616	-0.434998
21325		8.900908	-4.053298	-1.341166	-0.033313	0.016394	-0.080351	-0.353271	0.664795	0.239990	0.499811	-0.706639	-0.247024	-0.435694
21326		8.891641	-3.940092	-1.396856	-0.090226	0.042652	-0.098787	-0.350830	0.662842	0.243896	0.498862	-0.706581	-0.247272	-0.436734
21327		8.954274	-3.816276	-1.516586	-0.151537	0.055495	-0.120138	-0.357666	0.662842	0.241455	0.497439	-0.706708	-0.247389	-0.438083
21328		8.984872	-3.695842	-1.516962	-0.192170	0.053359	-0.148530	-0.358643	0.667236	0.245605	0.495635	-0.706920	-0.247617	-0.439655
21329		8.909098	-3.724492	-1.637520	-0.201907	0.068111	-0.182728	-0.361328	0.667969	0.249512	0.493620	-0.707026	-0.248020	-0.441521
21330		8.890074	-3.702108	-1.638238	-0.210852	0.066604	-0.220126	-0.366455	0.662598	0.254150	0.491339	-0.707094	-0.248656	-0.443592
21331		8.884025	-3.702278	-1.652481	-0.250580	0.067646	-0.257051	-0.369385	0.655762	0.253662	0.488605	-0.707264	-0.249344	-0.445948
21332		8.853671	-3.677332	-1.666149	-0.293203	0.068723	-0.292871	-0.368164	0.648438	0.257080	0.485478	-0.707547	-0.250088	-0.448492
21333		8.881306	-3.712266	-1.636803	-0.336249	0.060889	-0.333635	-0.383057	0.653076	0.259766	0.481932	-0.707989	-0.250872	-0.451171
21334		8.967511	-3.666480	-1.695099	-0.386639	0.052346	-0.369866	-0.379639	0.645508	0.267822	0.477788	-0.708498	-0.251887	-0.454204
21335		9.087590	-3.727654	-1.709767	-0.417352	0.044731	-0.408765	-0.383545	0.647705	0.268555	0.473289	-0.709141	-0.252863	-0.457359
21336		9.111638	-3.768993	-1.642791	-0.447673	0.038348	-0.445290	-0.385498	0.643555	0.276123	0.468433	-0.709792	-0.254062	-0.460671
21337		9.030884	-3.750653	-1.711806	-0.473851	0.027991	-0.480483	-0.398438	0.635254	0.286865	0.463212	-0.710526	-0.255283	-0.464131
21338		8.917839	-3.766376	-1.797867	-0.499901	0.024935	-0.521127	-0.400879	0.630859	0.292236	0.457464	-0.711304	-0.256545	-0.467929
21339		8.950880	-3.781702	-1.841568	-0.525407	0.010664	-0.563468	-0.408936	0.624512	0.291992	0.451342	-0.712150	-0.257913	-0.471819
21340		8.994665	-3.871852	-1.816060	-0.543182	-0.009517	-0.591997	-0.410645	0.604980	0.299561	0.445044	-0.713003	-0.259595	-0.475577
21341		9.023272	-3.959122	-1.766307	-0.546217	-0.029734	-0.611952	-0.424805	0.604004	0.308105	0.438831	-0.713930	-0.261266	-0.479032
21342		9.091550	-4.103042	-1.715954	-0.537406	-0.046859	-0.626097	-0.430420	0.601318	0.326660	0.432266	-0.714829	-0.263126	-0.482629
21343		9.084685	-4.219482	-1.598138	-0.514754	-0.054029	-0.637671	-0.422363	0.589355	0.329590	0.425287	-0.715800	-0.264650	-0.486540
21344		8.955423	-4.229195	-1.559256	-0.495143	-0.053161	-0.640397	-0.432617	0.583984	0.331299	0.418788	-0.716705	-0.266030	-0.490080
21345		8.824403	-4.201526	-1.581808	-0.486544	-0.055344	-0.633422	-0.443604	0.572510	0.343750	0.412407	-0.717506	-0.267582	-0.493464
21346		8.752830	-4.224134	-1.641781	-0.465709	-0.048122	-0.621307	-0.447510	0.568115	0.351318	0.406024	-0.718247	-0.268991	-0.496900
21347		8.799999	-4.204975	-1.664670	-0.431910	-0.044881	-0.600023	-0.450928	0.561768	0.355225	0.399870	-0.718938	-0.270241	-0.500203
21348		8.806781	-4.207013	-1.611943	-0.414692	-0.025500	-0.557759	-0.446289	0.556641	0.355713	0.394221	-0.719526	-0.271298	-0.503259
21349		8.830977	-4.251044	-1.485206	-0.407135	0.000732	-0.499550	-0.460693	0.544678	0.360107	0.389271	-0.720043	-0.272000	-0.505986
21350		8.835982	-4.354588	-1.484019	-0.363837	0.044408	-0.448801	-0.468262	0.536377	0.358154	0.385104	-0.720169	-0.272814	-0.508551
21351		8.786421	-4.322798	-1.450769	-0.342176	0.075977	-0.401998	-0.463135	0.535645	0.366211	0.381582	-0.720092	-0.273507	-0.510937
21352		8.665556	-4.297880	-1.589448	-0.343571	0.092422	-0.348663	-0.471924	0.522705	0.378174	0.378238	-0.720162	-0.273549	-0.513297
21353		8.459751	-4.365970	-1.694486	-0.345950	0.081868	-0.291435	-0.475342	0.526123	0.381348	0.375141	-0.720381	-0.273317	-0.515381
21354		8.275620	-4.450653	-1.768351	-0.269675	0.018469	-0.250565	-0.477539	0.520996	0.384521	0.372601	-0.720731	-0.273322	-0.516731
21355		8.262272	-4.537569	-1.701292	-0.142748	-0.065263	-0.201239	-0.477539	0.511475	0.384277	0.370936	-0.721146	-0.273839	-0.517076
21356		8.376452	-4.555650	-1.608767	-0.017996	-0.119000	-0.145326	-0.480713	0.513428	0.388672	0.370198	-0.721534	-0.274700	-0.516607
21357		8.451998	-4.534818	-1.459717	0.100649	-0.144894	-0.089253	-0.488281	0.520752	0.387451	0.370396	-0.721804	-0.275771	-0.515516
21358		8.623397	-4.346725	-1.358989	0.206949	-0.161864	-0.033766	-0.481689	0.512207	0.385742	0.371476	-0.721945	-0.276976	-0.513893
21359		8.768007	-4.099256	-1.297609	0.275052	-0.157263	0.027394	-0.481445	0.516846	0.391602	0.373259	-0.721986	-0.278067	-0.511950
21360		8.868459	-3.943973	-1.153837	0.287569	-0.132026	0.100439	-0.479980	0.511963	0.375488	0.375517	-0.722034	-0.278679	-0.509895
21361		8.913961	-3.980569	-1.134226	0.282238	-0.094898	0.174984	-0.481445	0.524414	0.384033	0.378145	-0.722095	-0.278665	-0.507868
21362		8.902820	-4.134643	-1.216242	0.284377	-0.080558	0.251044	-0.483398	0.533936	0.376465	0.381176	-0.722240	-0.278165	-0.505666
21363		8.862588	-4.276811	-1.353006	0.293071	-0.069397	0.330422	-0.476562	0.530273	0.365967	0.384626	-0.722474	-0.277159	-0.503265
21364		8.829644	-4.340421	-1.435675	0.313343	-0.062212	0.395408	-0.471191	0.535645	0.372559	0.388469	-0.722747	-0.275792	-0.500667
21365		8.810015	-4.421832	-1.553884	0.358366	-0.056269	0.453176	-0.457764	0.543945	0.369873	0.392857	-0.722952	-0.274264	-0.497778
21366		8.799254	-4.580219	-1.550022	0.414213	-0.062896	0.504763	-0.456055	0.552490	0.362061	0.397769	-0.723099	-0.272658	-0.494535
21367		8.770278	-4.830400	-1.474486	0.471816	-0.064907	0.555931	-0.451416	0.559814	0.354736	0.403227	-0.723148	-0.270952	-0.490969
21368		8.788083	-4.994461	-1.424857	0.545631	-0.068102	0.612506	-0.438232	0.565918	0.351562	0.409338	-0.723051	-0.269182	-0.487012
21369		8.903436	-5.132941	-1.343216	0.644588	-0.062088	0.663367	-0.432617	0.570801	0.343018	0.416239	-0.722662	-0.267471	-0.482663
21370		9.042793	-5.179455	-1.301593	0.738558	-0.049865	0.711158	-0.432129	0.580322	0.338135	0.423888	-0.721944	-0.265764	-0.478001
21371		9.181449	-5.079689	-1.253155	0.801645	-0.008173	0.763089	-0.424072	0.597900	0.317627	0.432211	-0.720864	-0.263848	-0.473215
21372		9.397626	-4.913856	-1.274177	0.837957	0.054671	0.810436	-0.411621	0.603027	0.316162	0.441014	-0.719445	-0.261432	-0.468571
21373		9.682290	-4.741681	-1.159940	0.862854	0.132279	0.837880	-0.407471	0.608154	0.294922	0.450186	-0.717598	-0.258712	-0.464170
21374		9.897408	-4.571319	-1.011855	0.874576	0.219714	0.853152	-0.399902	0.623291	0.277344	0.459545	-0.715319	-0.255489	-0.460286
21375		9.859431	-4.429246	-0.833485	0.848322	0.323705	0.873426	-0.379150	0.631104	0.271973	0.468983	-0.712685	-0.251577	-0.456994
21376		9.667871	-4.347255	-0.782488	0.771679	0.423480	0.897784	-0.380127	0.644043	0.259277	0.478167	-0.709949	-0.246863	-0.454298
21377		9.494228	-4.300782	-0.879593	0.685315	0.505866	0.918565	-0.375244	0.651367	0.250977	0.487068	-0.707153	-0.241392	-0.452138
21378		9.415336	-4.263582	-1.076242	0.602424	0.565812	0.931855	-0.362793	0.667480	0.229004	0.495586	-0.704383	-0.235339	-0.450393
21379		9.349734	-4.299177	-1.205069	0.534457	0.609858	0.933959	-0.349609	0.671143	0.226318	0.503700	-0.701668	-0.228678	-0.449059
21380		9.366957	-4.335898	-1.161463	0.483472	0.641243	0.938987	-0.343506	0.692139	0.216064	0.511486	-0.698993	-0.221738	-0.447910
21381		9.304286	-4.469523	-1.134087	0.442249	0.664286	0.952859	-0.327881	0.685791	0.200195	0.519144	-0.696327	-0.214491	-0.446779
21382		8.957121	-4.712659	-0.995775	0.426210	0.649926	0.965776	-0.321045	0.693359	0.185059	0.526490	-0.693769	-0.207044	-0.445674
21383		8.659245	-4.988932	-0.899902	0.423795	0.607195	0.968137	-0.304443	0.705811	0.180664	0.533696	-0.691281	-0.199763	-0.444291
21384		8.363259	-5.244702	-0.838088	0.454593	0.552165	0.952395	-0.299561	0.712646	0.164307	0.540892	-0.688774	-0.193023	-0.442457
21385		8.145026	-5.406736	-0.886626	0.496321	0.489498	0.919532	-0.290527	0.716064	0.147949	0.548061	-0.686152	-0.187015	-0.440284
21386		8.037744	-5.506684	-0.929771	0.538171	0.411510	0.873209	-0.281494	0.722168	0.141357	0.555111	-0.683493	-0.181870	-0.437736
21387		7.974508	-5.469219	-0.964973	0.580684	0.322578	0.830709	-0.266357	0.730469	0.134766	0.562050	-0.680853	-0.177573	-0.434749
21388		7.896183	-5.340951	-0.937538	0.622890	0.234600	0.790342	-0.254395	0.742920	0.121338	0.568886	-0.678234	-0.174075	-0.431353
21389		7.739924	-5.267799	-0.811249	0.660269	0.159698	0.744936	-0.247559	0.737793	0.117676	0.575597	-0.675601	-0.171329	-0.427665
21390		7.640736	-5.195003	-0.660328	0.690240	0.099527	0.692149	-0.244873	0.750244	0.107422	0.582140	-0.672927	-0.169282	-0.423823
21391		7.569431	-5.186483	-0.466306	0.703930	0.051740	0.623712	-0.229248	0.748047	0.096436	0.588394	-0.670222	-0.167907	-0.420002
21392		7.591370	-5.204245	-0.237964	0.683767	0.022503	0.546787	-0.216553	0.749023	0.080322	0.594174	-0.667579	-0.167041	-0.416405
21393		7.634226	-5.185787	-0.085037	0.631197	0.015977	0.477400	-0.223389	0.750244	0.076416	0.599367	-0.665094	-0.166419	-0.413175
21394		7.687167	-5.141640	0.018569	0.567992	0.026254	0.413335	-0.211670	0.755859	0.074463	0.603966	-0.662777	-0.165895	-0.410403
21395		7.725884	-5.110001	0.101956	0.485307	0.038049	0.348398	-0.207764	0.765381	0.057373	0.607871	-0.660728	-0.165400	-0.408134
21396		7.710531	-5.073742	0.102708	0.394523	0.036393	0.291098	-0.199951	0.763184	0.053955	0.611054	-0.659054	-0.164934	-0.406274
21397		7.662039	-5.097899	0.176127	0.283344	0.034716	0.243322	-0.199707	0.759766	0.046387	0.613441	-0.657879	-0.164378	-0.404804
21398		7.609870	-5.186512	0.172168	0.163909	0.042470	0.202583	-0.187012	0.755127	0.040039	0.615030	-0.657228	-0.163619	-0.403754
21399		7.562616	-5.281132	0.190073	0.040645	0.056018	0.155699	-0.195557	0.763428	0.036865	0.615792	-0.657100	-0.162646	-0.403194
21400		7.504724	-5.353984	0.212527	-0.077108	0.066165	0.105158	-0.188965	0.765869	0.043457	0.615743	-0.657474	-0.161516	-0.403115
21401		7.460192	-5.437897	0.176336	-0.180327	0.064050	0.048060	-0.194092	0.765381	0.050781	0.614923	-0.658308	-0.160374	-0.403461
21402		7.412536	-5.493992	0.083194	-0.259896	0.064645	-0.017792	-0.189941	0.763184	0.050293	0.613436	-0.659458	-0.159332	-0.404257
21403		7.314712	-5.490358	0.067807	-0.315539	0.047520	-0.084491	-0.195557	0.762939	0.060791	0.611384	-0.660861	-0.158565	-0.405376
21404		7.239860	-5.551212	0.051739	-0.336007	0.013017	-0.154042	-0.205566	0.764404	0.063232	0.608927	-0.662388	-0.158294	-0.406686
21405		7.225593	-5.635385	0.027594	-0.336238	-0.037082	-0.235137	-0.197754	0.757080	0.066406	0.606114	-0.663974	-0.158729	-0.408128
21406		7.307755	-5.688463	-0.042139	-0.338118	-0.085037	-0.320350	-0.206543	0.758057	0.061523	0.602925	-0.665613	-0.159873	-0.409734
21407		7.391050	-5.689122	-0.093956	-0.342056	-0.124048	-0.393763	-0.209717	0.755615	0.071045	0.599395	-0.667296	-0.161610	-0.411491
21408		7.593091	-5.591040	-0.127940	-0.349674	-0.150115	-0.457646	-0.207031	0.762207	0.084961	0.595549	-0.669007	-0.163805	-0.413423
21409		7.775781	-5.487786	-0.094980	-0.363016	-0.165953	-0.514735	-0.214844	0.752197	0.089844	0.591389	-0.670743	-0.166351	-0.415559
21410		7.932848	-5.382079	-0.029415	-0.384068	-0.166986	-0.561138	-0.231445	0.746094	0.094727	0.586925	-0.672501	-0.169090	-0.417935
21411		8.109082	-5.318600	0.025045	-0.438501	-0.155342	-0.606875	-0.238525	0.749512	0.107666	0.581986	-0.674391	-0.171840	-0.420666
21412		8.211701	-5.345950	0.046684	-0.509820	-0.126101	-0.645956	-0.245850	0.741211	0.113525	0.576520	-0.676437	-0.174413	-0.423838
21413		8.680678	-5.701057	-0.050731	-0.620566	-0.075635	-0.686564	-0.247559	0.730713	0.114990	0.570326	-0.678734	-0.176578	-0.427630
21414		8.855307	-6.528685	-0.274217	-0.767620	-0.061149	-0.677772	-0.269287	0.734131	0.129150	0.563314	-0.681642	-0.178094	-0.431653
21415		7.777626	-6.726463	0.107201	-0.884140	-0.208040	-0.556704	-0.266602	0.733887	0.153320	0.555809	-0.685751	-0.179176	-0.434417
21416		8.310975	-6.878733	0.002412	-0.863403	-0.195881	-0.414830	-0.273926	0.730713	0.154053	0.548915	-0.689886	-0.179432	-0.436525
21417		8.070836	-6.833608	-0.714495	-0.681332	-0.221422	-0.366857	-0.280273	0.714355	0.174561	0.543191	-0.693300	-0.180184	-0.437964
21418		7.023015	-5.946658	-0.331447	-0.481233	-0.148778	-0.362138	-0.288574	0.716553	0.176025	0.538718	-0.695536	-0.181294	-0.439483
21419		7.678666	-5.336090	0.120695	-0.392339	-0.078938	-0.383078	-0.290283	0.715820	0.179688	0.534789	-0.697060	-0.182530	-0.441351
21420		8.596262	-4.498538	0.635533	-0.419797	-0.025050	-0.395605	-0.291992	0.707031	0.186035	0.530734	-0.698468	-0.183486	-0.443618
21421		8.452068	-4.222433	-0.307353	-0.476637	0.161449	-0.518274	-0.299072	0.706543	0.197510	0.526166	-0.699220	-0.184120	-0.447594
21422		8.111898	-5.081637	-1.117178	-0.752285	0.098020	-0.575203	-0.311279	0.697021	0.198730	0.519635	-0.701302	-0.184317	-0.451865
21423		8.180200	-5.719803	-1.054678	-0.760664	0.044618	-0.546401	-0.314209	0.696289	0.212891	0.513063	-0.703601	-0.184567	-0.455684
21424		7.912149	-6.194562	-0.842868	-0.582814	-0.014603	-0.527413	-0.320068	0.687256	0.218262	0.507474	-0.705377	-0.185589	-0.458770
21425		7.662028	-6.639046	-0.622199	-0.401443	-0.094022	-0.524764	-0.320557	0.687012	0.235352	0.502830	-0.706663	-0.187622	-0.461073
21426		7.649929	-6.837362	-0.493893	-0.243091	-0.200858	-0.495943	-0.332275	0.676514	0.237549	0.499011	-0.707771	-0.190462	-0.462355
21427		7.897999	-6.644314	-0.352831	-0.084762	-0.298848	-0.435794	-0.329346	0.672363	0.238037	0.496196	-0.708658	-0.193994	-0.462558
21428		8.201710	-6.241761	-0.239934	0.053692	-0.311875	-0.359561	-0.337402	0.680908	0.242920	0.494497	-0.709135	-0.197637	-0.462103
21429		8.368589	-5.898938	-0.171121	0.049811	-0.223943	-0.295007	-0.342041	0.675049	0.238037	0.493147	-0.709395	-0.200481	-0.461923
21430		8.450581	-5.722573	-0.067581	-0.051373	-0.123505	-0.231545	-0.346191	0.669189	0.241455	0.491646	-0.709744	-0.202190	-0.462241
21431		8.441795	-5.774032	-0.209494	-0.142320	-0.044454	-0.163409	-0.347412	0.672852	0.253418	0.489987	-0.710272	-0.202833	-0.462909
21432		8.350014	-5.902018	-0.270235	-0.155396	0.018705	-0.107846	-0.340820	0.665527	0.248535	0.488503	-0.710762	-0.202762	-0.463756
21433		8.196209	-5.999597	-0.374043	-0.131566	0.063430	-0.063964	-0.353760	0.671631	0.247314	0.487481	-0.711030	-0.202355	-0.464599
21434		8.011826	-6.077259	-0.537487	-0.113723	0.074962	-0.035641	-0.344482	0.664795	0.247803	0.486699	-0.711175	-0.201838	-0.465420
21435		8.012604	-5.939821	-0.674508	-0.076489	0.059858	-0.020080	-0.348633	0.662354	0.249512	0.486202	-0.711280	-0.201402	-0.465967
21436		8.073464	-5.676982	-0.805450	-0.011324	0.035902	-0.012182	-0.353516	0.664551	0.247803	0.486062	-0.711222	-0.201291	-0.466250
21437		8.164759	-5.471020	-0.847974	0.046737	0.025372	0.003159	-0.348389	0.668213	0.253418	0.486320	-0.710965	-0.201380	-0.466334
21438		8.240791	-5.264330	-0.889324	0.088781	0.028776	0.016146	-0.342041	0.662109	0.247070	0.486840	-0.710623	-0.201445	-0.466285
21439		8.326743	-5.142039	-0.846987	0.138020	0.032801	0.015317	-0.348633	0.671143	0.255615	0.487722	-0.710041	-0.201713	-0.466134
21440		8.362748	-5.125790	-0.753571	0.180138	0.039358	0.002766	-0.349854	0.671875	0.244385	0.488695	-0.709308	-0.202133	-0.466049
21441		8.344777	-5.198033	-0.724311	0.188625	0.042844	-0.008754	-0.346924	0.672119	0.240723	0.489785	-0.708414	-0.202700	-0.466018
21442		8.324036	-5.185949	-0.808304	0.164340	0.033238	-0.017043	-0.347168	0.676758	0.236084	0.490710	-0.707644	-0.203243	-0.465979
21443		8.354365	-5.017037	-0.883669	0.134502	0.008267	-0.024621	-0.354248	0.677979	0.242188	0.491434	-0.707055	-0.203799	-0.465867
21444		8.491676	-4.876241	-0.997441	0.126617	-0.021677	-0.032682	-0.346191	0.671143	0.234619	0.491909	-0.706642	-0.204515	-0.465679
21445		8.564381	-4.801408	-1.103166	0.139587	-0.048039	-0.042528	-0.351562	0.669678	0.235840	0.492470	-0.706234	-0.205457	-0.465289
21446		8.609033	-4.704941	-1.124266	0.135020	-0.070913	-0.044895	-0.349609	0.662598	0.234131	0.492895	-0.705924	-0.206544	-0.464828
21447		8.611210	-4.650247	-1.064753	0.114748	-0.082523	-0.048379	-0.348633	0.671387	0.235596	0.493155	-0.705736	-0.207663	-0.464339
21448		8.619383	-4.611209	-0.980244	0.098578	-0.086694	-0.046731	-0.357178	0.670654	0.229736	0.493319	-0.705676	-0.208628	-0.463822
21449		8.644029	-4.544723	-0.948219	0.081817	-0.096913	-0.060854	-0.346924	0.667236	0.232178	0.493353	-0.705574	-0.209794	-0.463416
21450		8.734596	-4.377422	-0.898295	0.078482	-0.104730	-0.072675	-0.361084	0.676514	0.234375	0.493294	-0.705601	-0.210934	-0.462921
21451		8.851220	-4.155705	-0.918040	0.065254	-0.099336	-0.093177	-0.351074	0.674316	0.233643	0.493023	-0.705563	-0.212195	-0.462690
21452		8.908496	-3.958051	-1.057643	0.013265	-0.081606	-0.113286	-0.365234	0.674072	0.230713	0.492451	-0.705702	-0.213193	-0.462629
21453		9.048128	-3.769366	-1.163720	-0.075696	-0.062465	-0.128035	-0.356201	0.665039	0.230469	0.491322	-0.705956	-0.214050	-0.463047
21454		9.089265	-3.618520	-1.205525	-0.151801	-0.057345	-0.142638	-0.354736	0.656250	0.235107	0.489728	-0.706525	-0.214630	-0.463598
21455		9.023997	-3.618654	-1.193007	-0.220850	-0.058540	-0.153856	-0.360596	0.664551	0.238281	0.487594	-0.707417	-0.215019	-0.464306
21456		8.929690	-3.652719	-1.231295	-0.288650	-0.061573	-0.183526	-0.358154	0.670654	0.250000	0.484966	-0.708509	-0.215308	-0.465259
21457		8.725375	-3.753798	-1.330080	-0.355562	-0.057807	-0.228801	-0.368896	0.656006	0.255859	0.481685	-0.709934	-0.215394	-0.466453
21458		8.630690	-3.758129	-1.578173	-0.418166	-0.063300	-0.279251	-0.365479	0.649658	0.255127	0.477655	-0.711475	-0.215765	-0.468075
21459		8.719692	-3.705296	-1.682452	-0.460471	-0.077921	-0.326996	-0.367188	0.651123	0.260986	0.473288	-0.713096	-0.216307	-0.469791
21460		8.843049	-3.722278	-1.635249	-0.485907	-0.091792	-0.369905	-0.373047	0.649414	0.273926	0.468598	-0.714800	-0.216974	-0.471591
21461		8.823086	-3.754896	-1.559784	-0.489319	-0.104117	-0.410630	-0.374023	0.645996	0.272705	0.463534	-0.716576	-0.217839	-0.473499
21462		8.867897	-3.801861	-1.604959	-0.484734	-0.126812	-0.464938	-0.381104	0.639160	0.287598	0.458419	-0.718202	-0.219152	-0.475405
21463		8.894065	-3.801815	-1.656112	-0.473493	-0.155959	-0.530655	-0.379883	0.628906	0.291992	0.452802	-0.719885	-0.220965	-0.477399
21464		8.883850	-3.817865	-1.775758	-0.487186	-0.195993	-0.594814	-0.395508	0.625977	0.302246	0.446798	-0.721655	-0.223241	-0.479321
21465		8.955529	-3.808440	-1.907357	-0.493413	-0.225204	-0.648417	-0.399658	0.617676	0.307861	0.440335	-0.723392	-0.225982	-0.481396
21466		9.065095	-3.823939	-1.915390	-0.492620	-0.249879	-0.690612	-0.399658	0.613281	0.318115	0.433662	-0.725095	-0.229071	-0.483426
21467		9.074220	-3.838200	-1.831961	-0.485381	-0.267883	-0.727619	-0.410645	0.606201	0.325439	0.426774	-0.726876	-0.232260	-0.485357
21468		9.175194	-3.887075	-1.882999	-0.476542	-0.276040	-0.764340	-0.421631	0.593750	0.340088	0.419716	-0.728487	-0.235792	-0.487388
21469		9.205604	-4.042243	-1.923132	-0.460180	-0.280855	-0.802908	-0.428467	0.579834	0.345947	0.412327	-0.730003	-0.239684	-0.489524
21470		9.191530	-4.145564	-1.979796	-0.412870	-0.294910	-0.835922	-0.427002	0.569824	0.348145	0.405112	-0.731211	-0.244151	-0.491534
21471		9.239655	-4.225464	-1.993487	-0.357869	-0.315466	-0.857822	-0.437988	0.567871	0.363770	0.398303	-0.732179	-0.248998	-0.493222
21472		9.193785	-4.254017	-1.878429	-0.288589	-0.338156	-0.860030	-0.437988	0.560303	0.370850	0.391739	-0.733026	-0.254007	-0.494666
21473		9.087938	-4.299057	-1.723028	-0.215761	-0.345452	-0.845186	-0.448242	0.542480	0.367188	0.385838	-0.733580	-0.259248	-0.495762
21474		9.059735	-4.315260	-1.539286	-0.158590	-0.316822	-0.804929	-0.456055	0.537109	0.376465	0.380717	-0.733671	-0.264629	-0.496742
21475		9.156346	-4.324474	-1.391087	-0.126270	-0.267868	-0.750060	-0.464111	0.531982	0.383057	0.376096	-0.733572	-0.269549	-0.497763
21476		9.121111	-4.217951	-1.357800	-0.122138	-0.203680	-0.684176	-0.470703	0.527344	0.388916	0.371927	-0.733307	-0.273851	-0.498936
21477		9.101375	-4.056358	-1.353762	-0.115866	-0.144939	-0.615160	-0.473877	0.521973	0.396240	0.368224	-0.732907	-0.277558	-0.500220
21478		9.122961	-3.945992	-1.382808	-0.093502	-0.091508	-0.533475	-0.486084	0.517578	0.388184	0.365125	-0.732385	-0.280683	-0.501511
21479		8.968876	-3.915984	-1.301753	-0.086269	-0.032145	-0.444960	-0.484131	0.511963	0.406982	0.362584	-0.731779	-0.283107	-0.502875
21480		8.711049	-3.949911	-1.254740	-0.109138	0.043408	-0.340553	-0.484375	0.506836	0.394287	0.360517	-0.731168	-0.284559	-0.504426
21481		8.654332	-3.963321	-1.376019	-0.105993	0.098422	-0.245304	-0.487793	0.499023	0.391846	0.359008	-0.730534	-0.285269	-0.506018
21482		8.682326	-3.931355	-1.511705	-0.075056	0.126156	-0.148485	-0.491211	0.500977	0.392334	0.358165	-0.729918	-0.285428	-0.507413
21483		8.695922	-3.941676	-1.533267	-0.027728	0.150036	-0.049490	-0.490479	0.495850	0.396240	0.358092	-0.729294	-0.285107	-0.508542
21484		8.686202	-3.994483	-1.515702	0.017643	0.162588	0.050441	-0.493652	0.500000	0.394043	0.358751	-0.728719	-0.284325	-0.509339
21485		8.616477	-4.100833	-1.546211	0.073542	0.164498	0.145235	-0.486328	0.500977	0.392822	0.360163	-0.728191	-0.283191	-0.509729
21486		8.683618	-4.123879	-1.540924	0.134506	0.158612	0.231541	-0.492920	0.510010	0.388916	0.362301	-0.727707	-0.281801	-0.509675
21487		8.704045	-4.101674	-1.565750	0.194079	0.143930	0.300543	-0.487305	0.501953	0.387939	0.365063	-0.727260	-0.280280	-0.509180
21488		8.723655	-4.011899	-1.620530	0.266120	0.126615	0.359813	-0.489258	0.514160	0.381348	0.368470	-0.726800	-0.278749	-0.508224
21489		8.833231	-3.930109	-1.570987	0.319191	0.106556	0.409134	-0.480713	0.522461	0.383057	0.372362	-0.726362	-0.277194	-0.506861
21490		8.891801	-4.021379	-1.501166	0.355259	0.096364	0.460913	-0.469238	0.524902	0.365234	0.376663	-0.725962	-0.275499	-0.505178
21491		8.797877	-4.256456	-1.454420	0.392237	0.086525	0.514282	-0.471191	0.528809	0.366699	0.381387	-0.725587	-0.273651	-0.503172
21492		8.664978	-4.474227	-1.516812	0.449669	0.071717	0.572061	-0.477051	0.546875	0.357422	0.386652	-0.725200	-0.271733	-0.500746
21493		8.679747	-4.612394	-1.616559	0.522005	0.056570	0.632793	-0.464355	0.550293	0.353760	0.392573	-0.724741	-0.269781	-0.497850
21494		8.778587	-4.726147	-1.581409	0.605661	0.046858	0.697456	-0.458008	0.564697	0.346436	0.399221	-0.724166	-0.267795	-0.494462
21495		8.891712	-4.814835	-1.437811	0.691757	0.056153	0.757442	-0.446289	0.570068	0.339600	0.406643	-0.723349	-0.265745	-0.490701
21496		9.163194	-4.787727	-1.209393	0.778662	0.090515	0.810906	-0.447754	0.575684	0.323486	0.414847	-0.722162	-0.263582	-0.486732
21497		9.407737	-4.620540	-1.017844	0.822378	0.159071	0.857210	-0.431885	0.590576	0.322021	0.423617	-0.720555	-0.261060	-0.482904
21498		9.564387	-4.491915	-0.936590	0.798496	0.267017	0.901413	-0.430420	0.598877	0.301025	0.432616	-0.718644	-0.257756	-0.479538
21499		9.640359	-4.494044	-0.983577	0.732946	0.373782	0.949333	-0.421875	0.615234	0.284912	0.441612	-0.716530	-0.253492	-0.476766
21500		9.580497	-4.494396	-1.093208	0.677225	0.447439	0.997527	-0.408936	0.622070	0.273682	0.450605	-0.714331	-0.248408	-0.474320
21501		9.547238	-4.548565	-1.302760	0.641597	0.495201	1.049371	-0.395020	0.635254	0.259766	0.459631	-0.712106	-0.242654	-0.471978
21502		9.426420	-4.589856	-1.484277	0.629603	0.505420	1.091362	-0.388672	0.652832	0.257324	0.468738	-0.709879	-0.236512	-0.469487
21503		9.384276	-4.600009	-1.628713	0.638117	0.492237	1.119461	-0.364014	0.651855	0.233154	0.477919	-0.707643	-0.230279	-0.466697
21504		9.242453	-4.642559	-1.650576	0.649891	0.449096	1.138813	-0.362305	0.669922	0.221924	0.487109	-0.705468	-0.224038	-0.463516
21505		9.064929	-4.719413	-1.608504	0.667099	0.384063	1.145283	-0.353516	0.675537	0.208008	0.496268	-0.703348	-0.218108	-0.459837
21506		8.932874	-4.823313	-1.460221	0.711206	0.307849	1.128850	-0.334961	0.681152	0.205566	0.505403	-0.701194	-0.212750	-0.455668
21507		8.859721	-4.851856	-1.305675	0.757019	0.228439	1.083206	-0.328125	0.693848	0.185059	0.514372	-0.699043	-0.208122	-0.451049
21508		8.863094	-4.726565	-1.174712	0.797180	0.174455	1.022420	-0.309326	0.705322	0.175537	0.523233	-0.696670	-0.204247	-0.446275
21509		8.810769	-4.610292	-0.918053	0.807691	0.138168	0.957955	-0.307129	0.705566	0.153564	0.531773	-0.694237	-0.200910	-0.441460
21510		8.685274	-4.516023	-0.697522	0.798674	0.114503	0.892323	-0.293457	0.712158	0.147949	0.539875	-0.691738	-0.198063	-0.436813
21511		8.508385	-4.632223	-0.458207	0.771839	0.101129	0.831653	-0.284912	0.725830	0.138672	0.547493	-0.689280	-0.195514	-0.432342
21512		8.293064	-4.819298	-0.300074	0.717802	0.096808	0.780096	-0.267578	0.725098	0.130371	0.554557	-0.686942	-0.193079	-0.428133
21513		8.115961	-5.049559	-0.182820	0.642614	0.099383	0.735823	-0.253662	0.749756	0.114746	0.560990	-0.684824	-0.190603	-0.424237
21514		8.065702	-5.271769	-0.136404	0.560140	0.110140	0.696900	-0.251953	0.744873	0.118408	0.566798	-0.682945	-0.188003	-0.420690
21515		8.038078	-5.479317	-0.047534	0.482552	0.135856	0.668909	-0.236572	0.746338	0.105957	0.572071	-0.681265	-0.185165	-0.417526
21516		8.020879	-5.646081	0.104636	0.407758	0.168661	0.653500	-0.237061	0.756348	0.092529	0.576890	-0.679770	-0.181990	-0.414717
21517		8.026298	-5.810568	0.282330	0.350178	0.201569	0.649823	-0.225586	0.742432	0.090088	0.581395	-0.678402	-0.178478	-0.412185
21518		7.941615	-5.962786	0.495982	0.312180	0.236595	0.648660	-0.213379	0.753174	0.080078	0.585708	-0.677069	-0.174665	-0.409898
21519		7.868485	-6.066210	0.665655	0.292200	0.280285	0.641498	-0.204102	0.755371	0.083008	0.589924	-0.675645	-0.170608	-0.407906
21520		7.788847	-6.106840	0.771098	0.260609	0.334203	0.618951	-0.201904	0.764648	0.068848	0.593937	-0.674133	-0.166299	-0.406360
21521		7.710593	-6.071055	0.815210	0.206398	0.391098	0.587953	-0.194336	0.768799	0.072754	0.597598	-0.672625	-0.161697	-0.405348
21522		7.633584	-5.934032	0.684320	0.130950	0.428326	0.552590	-0.176758	0.765137	0.065674	0.600743	-0.671294	-0.156848	-0.404809
21523		7.531648	-5.760735	0.490810	0.047791	0.437165	0.503083	-0.171143	0.768311	0.064453	0.603248	-0.670261	-0.151949	-0.404665
21524		7.360870	-5.604099	0.248334	-0.006902	0.429766	0.441778	-0.168213	0.767334	0.063721	0.605211	-0.669431	-0.147245	-0.404846
21525		7.172927	-5.498494	0.100876	-0.040618	0.396528	0.363334	-0.166992	0.777344	0.057617	0.606665	-0.668772	-0.143033	-0.405271
21526		7.038806	-5.487201	-0.028279	-0.070438	0.346478	0.270601	-0.165771	0.779541	0.053467	0.607566	-0.668311	-0.139492	-0.405914
21527		6.950047	-5.460647	-0.118461	-0.098064	0.281941	0.167650	-0.157227	0.777344	0.056152	0.607880	-0.668083	-0.136761	-0.406747
21528		6.890919	-5.423800	-0.227438	-0.114316	0.211579	0.054234	-0.161133	0.775146	0.059814	0.607632	-0.668044	-0.134966	-0.407779
21529		6.906374	-5.370024	-0.281514	-0.120612	0.143171	-0.061877	-0.156006	0.770996	0.064453	0.606872	-0.668139	-0.134147	-0.409024
21530		6.945103	-5.332431	-0.278166	-0.120485	0.069686	-0.180314	-0.168945	0.778564	0.059326	0.605622	-0.668351	-0.134363	-0.410458
21531		7.063190	-5.173092	-0.240264	-0.123586	0.005261	-0.287199	-0.163818	0.767578	0.054932	0.603909	-0.668679	-0.135494	-0.412073
21532		7.197454	-5.178886	-0.182413	-0.145864	-0.052995	-0.387467	-0.162598	0.774170	0.063721	0.601653	-0.669201	-0.137403	-0.413890
21533		7.309180	-5.208279	-0.141124	-0.184076	-0.102093	-0.481247	-0.179443	0.776367	0.070557	0.598790	-0.669967	-0.139953	-0.415941
21534		7.519747	-5.230575	-0.084640	-0.244334	-0.126231	-0.561029	-0.181641	0.770020	0.066650	0.595269	-0.671011	-0.142862	-0.418317
21535		7.735657	-5.311376	-0.023903	-0.324480	-0.134751	-0.622933	-0.192627	0.762451	0.078125	0.591052	-0.672388	-0.145880	-0.421035
21536		7.882675	-5.410544	0.067649	-0.422263	-0.124499	-0.654995	-0.202637	0.768555	0.089600	0.586161	-0.674145	-0.148684	-0.424072
21537		7.995553	-5.560944	0.149416	-0.528806	-0.100853	-0.658941	-0.203125	0.753906	0.096680	0.580655	-0.676303	-0.151014	-0.427375
21538		8.003041	-5.673597	0.200748	-0.618970	-0.072037	-0.649590	-0.218750	0.755615	0.105469	0.574677	-0.678769	-0.152827	-0.430886
21539		8.087573	-5.908940	0.172043	-0.699855	-0.053932	-0.642659	-0.228516	0.743896	0.113037	0.568254	-0.681524	-0.154217	-0.434545
21540		8.806200	-6.558046	0.120314	-0.779479	-0.025037	-0.645918	-0.231934	0.748535	0.130615	0.561364	-0.684501	-0.155192	-0.438458
21541		9.300958	-7.892487	-0.412456	-0.866383	0.051155	-0.675970	-0.243164	0.734619	0.140381	0.553920	-0.687513	-0.155652	-0.443024
21542		6.768357	-8.237388	-0.001480	-0.831544	-0.009792	-0.584413	-0.251953	0.738770	0.146484	0.546892	-0.690655	-0.155986	-0.446737
21543		5.959995	-8.118509	-0.076054	-0.832980	-0.047260	-0.495060	-0.255371	0.723145	0.165771	0.540106	-0.694010	-0.155952	-0.449794
21544		6.453557	-7.375052	-0.799194	-0.657558	-0.055557	-0.461612	-0.270020	0.725586	0.171631	0.534416	-0.696618	-0.156397	-0.452396
21545		6.785321	-6.337459	-0.665360	-0.209321	-0.165835	-0.473624	-0.269043	0.720459	0.183594	0.531128	-0.697604	-0.159089	-0.453809
21546		7.139626	-5.647802	0.031752	0.113538	-0.331151	-0.528646	-0.277100	0.719971	0.175049	0.529268	-0.697708	-0.164033	-0.454061
21547		7.945201	-5.344112	1.101708	0.103236	-0.364547	-0.563215	-0.280518	0.719727	0.168945	0.527173	-0.697902	-0.169294	-0.454270
21548		8.496877	-5.090148	1.084748	-0.121270	-0.236262	-0.572612	-0.282471	0.708740	0.185303	0.523915	-0.698553	-0.173192	-0.455567
21549		8.265934	-4.815453	0.107528	-0.402758	-0.129999	-0.571530	-0.290527	0.704590	0.192871	0.519126	-0.700031	-0.175523	-0.457882
21550		8.262834	-4.554645	-0.463000	-0.501450	-0.102562	-0.592389	-0.306152	0.702393	0.200195	0.513699	-0.701770	-0.177479	-0.460578
21551		8.498783	-4.749527	-0.422711	-0.529462	-0.124262	-0.628295	-0.309082	0.697266	0.205811	0.507911	-0.703616	-0.179647	-0.463333
21552		8.515610	-5.112963	-0.373662	-0.585583	-0.095741	-0.653001	-0.325684	0.689941	0.209961	0.501723	-0.705516	-0.181605	-0.466412
21553		8.471077	-5.648593	-0.429429	-0.566862	-0.107801	-0.652477	-0.328613	0.688477	0.230713	0.495604	-0.707323	-0.183711	-0.469384
21554		8.359758	-6.150505	-0.452152	-0.484789	-0.149553	-0.623200	-0.332031	0.682617	0.232666	0.489945	-0.709016	-0.186070	-0.471835
21555		8.368245	-6.311851	-0.372066	-0.389205	-0.156529	-0.565979	-0.337158	0.673584	0.239258	0.485075	-0.710394	-0.188486	-0.473831
21556		8.445913	-6.136004	-0.280598	-0.332207	-0.119756	-0.510006	-0.345703	0.672363	0.242432	0.480793	-0.711469	-0.190637	-0.475718
21557		8.455364	-5.846778	-0.255003	-0.314385	-0.065030	-0.466360	-0.347900	0.667480	0.258057	0.476879	-0.712291	-0.192388	-0.477718
21558		8.488681	-5.606596	-0.267565	-0.291333	-0.041643	-0.436373	-0.356201	0.668701	0.257812	0.473171	-0.713029	-0.193892	-0.479693
21559		8.464021	-5.571391	-0.388813	-0.253753	-0.052012	-0.404029	-0.350342	0.654053	0.253418	0.469832	-0.713664	-0.195415	-0.481410
21560		8.414359	-5.619320	-0.488878	-0.207351	-0.058416	-0.362747	-0.365967	0.655273	0.262207	0.466966	-0.714187	-0.196903	-0.482813
21561		8.368892	-5.659541	-0.749130	-0.162182	-0.030363	-0.315664	-0.357178	0.651611	0.263184	0.464541	-0.714485	-0.198214	-0.484173
21562		8.300075	-5.520334	-0.934737	-0.132613	0.014264	-0.278980	-0.372314	0.652588	0.262451	0.462541	-0.714587	-0.199173	-0.485542
21563		8.294356	-5.415067	-0.882649	-0.119664	-0.025616	-0.257078	-0.374023	0.653564	0.260986	0.460652	-0.714761	-0.200294	-0.486619
21564		8.263773	-5.346812	-1.055593	-0.096308	-0.059151	-0.237547	-0.377686	0.649902	0.265381	0.458973	-0.714991	-0.201517	-0.487363
21565		8.317911	-5.256351	-1.115909	-0.041059	-0.114597	-0.213310	-0.385010	0.646973	0.270752	0.457584	-0.715291	-0.203028	-0.487602
21566		8.429515	-5.244772	-0.954654	0.024437	-0.161621	-0.178724	-0.381348	0.638916	0.267578	0.456576	-0.715595	-0.204799	-0.487360
21567		8.523459	-5.212859	-0.692394	0.064669	-0.147233	-0.135646	-0.378174	0.637939	0.273926	0.456033	-0.715749	-0.206428	-0.486954
21568		8.566647	-5.098687	-0.475530	0.062773	-0.089800	-0.100781	-0.383789	0.643799	0.269287	0.455645	-0.715821	-0.207538	-0.486740
21569		8.606472	-4.893987	-0.461191	0.031647	-0.033639	-0.071286	-0.385010	0.642334	0.264404	0.455381	-0.715751	-0.208189	-0.486812
21570		8.603458	-4.719230	-0.647220	-0.007941	0.013254	-0.044072	-0.381104	0.643311	0.269775	0.455141	-0.715628	-0.208388	-0.487132
21571		8.557664	-4.631785	-0.858084	-0.031426	0.035674	-0.017639	-0.387939	0.644287	0.270508	0.454846	-0.715640	-0.208150	-0.487492
21572		8.547300	-4.606247	-1.004787	-0.059040	0.038627	-0.001226	-0.379150	0.640381	0.271973	0.454439	-0.715732	-0.207747	-0.487908
21573		8.441919	-4.741027	-1.136781	-0.074515	0.032417	0.005299	-0.391357	0.635742	0.263672	0.453942	-0.715999	-0.207174	-0.488222
21574		8.357694	-4.802002	-1.309030	-0.090183	0.023064	0.006162	-0.386475	0.643311	0.273438	0.453428	-0.716152	-0.206814	-0.488629
21575		8.383992	-4.768652	-1.341471	-0.096917	-0.010928	-0.001532	-0.382324	0.636475	0.269287	0.452699	-0.716615	-0.206410	-0.488796
21576		8.459840	-4.747296	-1.334991	-0.055272	-0.058713	-0.012584	-0.386719	0.635742	0.274170	0.452155	-0.717058	-0.206455	-0.488630
21577		8.517807	-4.729927	-1.321479	-0.005133	-0.093541	-0.025075	-0.385742	0.639160	0.281250	0.451702	-0.717451	-0.206922	-0.488275
21578		8.587668	-4.674339	-1.176855	0.033468	-0.125083	-0.036053	-0.385254	0.638916	0.281250	0.451289	-0.717909	-0.207628	-0.487684
21579		8.659495	-4.627799	-1.128583	0.068344	-0.156476	-0.050179	-0.376465	0.643066	0.277588	0.450985	-0.718331	-0.208681	-0.486893
21580		8.762381	-4.528825	-1.112499	0.106740	-0.181252	-0.056606	-0.392578	0.645020	0.279785	0.451005	-0.718712	-0.209929	-0.485775
21581		8.874326	-4.389794	-1.107041	0.135298	-0.200689	-0.063402	-0.385498	0.644287	0.275146	0.451039	-0.718922	-0.211602	-0.484706
21582		8.980447	-4.103228	-1.087996	0.139176	-0.197441	-0.072852	-0.387451	0.641846	0.283447	0.451189	-0.719075	-0.213301	-0.483594
21583		9.180882	-3.822432	-1.012310	0.116014	-0.180336	-0.080880	-0.383789	0.644531	0.279053	0.450962	-0.719354	-0.214824	-0.482715
21584		9.275754	-3.577336	-0.974281	0.058441	-0.158133	-0.098817	-0.387939	0.640137	0.275635	0.450506	-0.719685	-0.216124	-0.482066
21585		9.390459	-3.427481	-0.972490	-0.026147	-0.117300	-0.118601	-0.381104	0.639404	0.276611	0.449581	-0.720016	-0.217202	-0.481952
21586		9.479286	-3.210921	-1.010731	-0.122422	-0.072990	-0.141297	-0.384033	0.640625	0.274414	0.448103	-0.720567	-0.217743	-0.482260
21587		9.462621	-3.114409	-1.081915	-0.242709	-0.030685	-0.169725	-0.388916	0.635986	0.279785	0.445991	-0.721242	-0.217887	-0.483143
21588		9.372826	-3.144617	-1.289431	-0.354522	0.002500	-0.209064	-0.389404	0.634277	0.289795	0.442995	-0.722131	-0.217727	-0.484642
21589		9.204035	-3.285919	-1.489271	-0.425381	0.024764	-0.260443	-0.397217	0.631348	0.296631	0.439257	-0.723227	-0.217379	-0.486562
21590		9.037812	-3.501824	-1.588069	-0.434250	-0.002365	-0.318582	-0.401611	0.615479	0.298828	0.435094	-0.724331	-0.217481	-0.488610
21591		9.043053	-3.601549	-1.686718	-0.384845	-0.042527	-0.370385	-0.393799	0.614502	0.305176	0.430846	-0.725251	-0.218368	-0.490610
21592		9.073965	-3.579252	-1.726668	-0.354019	-0.066270	-0.404601	-0.405029	0.612305	0.311768	0.426634	-0.726267	-0.219414	-0.492317
21593		9.073642	-3.597260	-1.696913	-0.316584	-0.064238	-0.437382	-0.411133	0.608398	0.325928	0.422437	-0.727016	-0.220874	-0.494176
21594		9.047366	-3.507050	-1.766740	-0.295487	-0.073031	-0.482659	-0.419434	0.606689	0.323486	0.417841	-0.727824	-0.222556	-0.496136
21595		9.184380	-3.260949	-1.699231	-0.249004	-0.137323	-0.549221	-0.418945	0.593506	0.318848	0.413334	-0.728406	-0.225196	-0.497861
21596		9.276982	-2.913927	-1.765928	-0.228788	-0.168681	-0.620072	-0.427979	0.589600	0.328125	0.408796	-0.728763	-0.228631	-0.499518
21597		9.409686	-2.752990	-1.778134	-0.304918	-0.146743	-0.670686	-0.431396	0.576660	0.338623	0.403426	-0.729245	-0.231889	-0.501673
21598		9.627164	-2.678400	-1.621264	-0.408657	-0.100099	-0.715800	-0.437256	0.572998	0.336426	0.397049	-0.729922	-0.234722	-0.504451
21599		9.756233	-2.725105	-1.832207	-0.451302	-0.069152	-0.763464	-0.441650	0.564941	0.347656	0.390558	-0.730315	-0.237656	-0.507566
21600		9.699367	-2.924081	-1.945875	-0.417637	-0.081015	-0.809990	-0.457031	0.557617	0.350830	0.383837	-0.730692	-0.240841	-0.510640
21601		9.523987	-3.163949	-2.035253	-0.419216	-0.143203	-0.854242	-0.461670	0.550049	0.359863	0.376841	-0.731035	-0.244647	-0.513543
21602		9.302647	-3.363148	-2.043229	-0.410031	-0.182645	-0.903436	-0.459961	0.536377	0.366455	0.369502	-0.731489	-0.248730	-0.516261
21603		9.279231	-3.601953	-2.039841	-0.331643	-0.249673	-0.965153	-0.473145	0.529541	0.380615	0.362216	-0.731910	-0.253639	-0.518434
21604		9.320920	-3.911642	-2.013544	-0.218510	-0.269201	-0.978879	-0.489014	0.520752	0.373779	0.355336	-0.732045	-0.259056	-0.520324
21605		9.248797	-4.160367	-1.915246	-0.147716	-0.270507	-0.964498	-0.495850	0.502930	0.386230	0.349377	-0.731575	-0.265070	-0.521988
21606		9.038702	-4.122938	-1.711045	-0.085518	-0.283238	-0.935764	-0.501709	0.494629	0.387207	0.343785	-0.731068	-0.271162	-0.523280
21607		8.856318	-3.909222	-1.648825	-0.007800	-0.309710	-0.900284	-0.512695	0.488281	0.395264	0.338930	-0.730437	-0.277431	-0.524042
21608		8.858945	-3.554006	-1.630223	0.060820	-0.303332	-0.859857	-0.504150	0.482910	0.402588	0.334707	-0.729635	-0.283685	-0.524526
21609		9.014549	-3.222180	-1.607464	0.058353	-0.264480	-0.800175	-0.510254	0.470947	0.396729	0.330843	-0.728782	-0.289428	-0.525026
21610		9.040675	-3.110537	-1.569807	-0.047352	-0.207257	-0.709577	-0.525879	0.461670	0.404053	0.326873	-0.728135	-0.293999	-0.525869
21611		9.047336	-3.161106	-1.553747	-0.110535	-0.144264	-0.614876	-0.519287	0.453125	0.404297	0.323076	-0.727595	-0.297532	-0.526975
21612		8.936460	-3.293052	-1.494295	-0.158338	-0.078953	-0.502685	-0.530273	0.450928	0.409912	0.319641	-0.727161	-0.299984	-0.528277
21613		8.824868	-3.407142	-1.474950	-0.160170	-0.042907	-0.387892	-0.529541	0.442383	0.413818	0.316790	-0.726847	-0.301627	-0.529489
21614		8.710084	-3.522582	-1.471159	-0.105011	0.007560	-0.267453	-0.540283	0.440430	0.409668	0.314930	-0.726464	-0.302640	-0.530545
21615		8.647034	-3.604603	-1.489370	-0.037399	0.037175	-0.141481	-0.523926	0.438232	0.420166	0.314116	-0.726087	-0.303103	-0.531279
21616		8.605119	-3.638008	-1.557352	0.007857	0.057241	-0.002304	-0.531982	0.443359	0.411621	0.314245	-0.725857	-0.302866	-0.531652
21617		8.612929	-3.624705	-1.526795	0.066208	0.064537	0.139681	-0.530273	0.437256	0.412842	0.315379	-0.725799	-0.302000	-0.531553
21618		8.754798	-3.643848	-1.421216	0.137555	0.082820	0.273545	-0.529785	0.453613	0.414307	0.317584	-0.725808	-0.300584	-0.531029
21619		8.793044	-3.670715	-1.392965	0.208120	0.112497	0.394827	-0.530273	0.448975	0.411377	0.320831	-0.725796	-0.298658	-0.530181
21620		8.763667	-3.734256	-1.466876	0.268493	0.128792	0.501408	-0.536133	0.466064	0.401855	0.324949	-0.725801	-0.296299	-0.528988
21621		8.795587	-3.758914	-1.376955	0.305846	0.141564	0.606535	-0.522461	0.468018	0.395752	0.329786	-0.725887	-0.293417	-0.527481
21622		8.787521	-3.926524	-1.439080	0.334109	0.151747	0.702770	-0.514404	0.477539	0.377686	0.335231	-0.726059	-0.290032	-0.525680
21623		8.866493	-4.087407	-1.435205	0.387946	0.158670	0.796175	-0.508545	0.485352	0.386230	0.341419	-0.726237	-0.286274	-0.523508
21624		9.108351	-4.136004	-1.421082	0.474703	0.180671	0.883848	-0.508545	0.499268	0.374268	0.348541	-0.726239	-0.282283	-0.520972
21625		9.297018	-4.030948	-1.269489	0.556792	0.223927	0.962663	-0.498047	0.511719	0.365723	0.356587	-0.725933	-0.278013	-0.518243
21626		9.338196	-3.868340	-1.234087	0.580608	0.274946	1.030596	-0.489990	0.530273	0.354492	0.365160	-0.725422	-0.273251	-0.515514
21627		9.386739	-3.688765	-1.211765	0.545516	0.309772	1.082863	-0.475586	0.532715	0.344238	0.373804	-0.724905	-0.267879	-0.512859
21628		9.523649	-3.719077	-1.281098	0.515655	0.330864	1.128791	-0.470947	0.550293	0.337646	0.382455	-0.724415	-0.261998	-0.510204
21629		9.717745	-3.805883	-1.329824	0.527812	0.367478	1.152355	-0.465576	0.563232	0.320557	0.391328	-0.723687	-0.255882	-0.507607
21630		9.789840	-3.922660	-1.135171	0.558546	0.407906	1.163549	-0.453613	0.576904	0.302734	0.400494	-0.722591	-0.249661	-0.505110
21631		9.700497	-4.053527	-1.163494	0.562646	0.453622	1.171497	-0.441895	0.589355	0.307129	0.409794	-0.721192	-0.243213	-0.502791
21632		9.963963	-4.252117	-1.377699	0.539477	0.512797	1.180148	-0.434082	0.596680	0.287354	0.419022	-0.719584	-0.236389	-0.500740
21633		9.951456	-4.696523	-1.673074	0.472868	0.645199	1.201059	-0.422363	0.615479	0.276367	0.428156	-0.717557	-0.228659	-0.499509
21634		9.799904	-5.004664	-1.369759	0.488300	0.694372	1.267123	-0.408447	0.627930	0.264893	0.437732	-0.715279	-0.220386	-0.498194
21635		9.876258	-4.943856	-1.098868	0.669767	0.668106	1.346343	-0.396729	0.638916	0.251709	0.448606	-0.712471	-0.212439	-0.495992
21636		9.758396	-4.873696	-0.762350	0.839750	0.597946	1.419925	-0.385010	0.650635	0.229004	0.460572	-0.709296	-0.204976	-0.492704
21637		9.531557	-4.952001	-0.429808	0.892800	0.500773	1.462735	-0.364746	0.666748	0.214600	0.472772	-0.706198	-0.197815	-0.488509
21638		9.269408	-5.134364	-0.476515	0.888707	0.429771	1.436825	-0.349854	0.687256	0.203613	0.484582	-0.703245	-0.191033	-0.483873
21639		9.375792	-5.087498	-0.549701	0.840383	0.428847	1.393819	-0.333008	0.699463	0.186035	0.495785	-0.700299	-0.184298	-0.479387
21640		9.323532	-4.691409	-0.633227	0.741440	0.460109	1.371957	-0.313721	0.702148	0.177490	0.506252	-0.697473	-0.177137	-0.475250
21641		9.229488	-4.426655	-0.446142	0.625445	0.465926	1.328556	-0.307373	0.710449	0.159424	0.515784	-0.694928	-0.169717	-0.471421
21642		8.783373	-4.629710	-0.546342	0.540043	0.462328	1.254829	-0.281250	0.714844	0.147461	0.524447	-0.692546	-0.162387	-0.467937
21643		8.399108	-5.047305	-0.525483	0.535060	0.404886	1.184182	-0.260742	0.739014	0.141846	0.532652	-0.690220	-0.155677	-0.464374
21644		8.342177	-5.329034	-0.266349	0.575280	0.339544	1.133053	-0.250732	0.740723	0.129150	0.540738	-0.687813	-0.149693	-0.460551
21645		8.210493	-5.525915	-0.063209	0.599330	0.308277	1.081646	-0.238525	0.742188	0.120605	0.548661	-0.685273	-0.144223	-0.456697
21646		7.988535	-5.530761	-0.026447	0.590874	0.312327	1.019689	-0.223877	0.752930	0.104980	0.556243	-0.682605	-0.139045	-0.453111
21647		7.771969	-5.512835	0.021399	0.550827	0.277072	0.956740	-0.219727	0.758301	0.098389	0.563264	-0.680116	-0.134228	-0.449620
21648		7.622727	-5.489709	-0.068981	0.542874	0.216241	0.884448	-0.211670	0.762695	0.089600	0.569853	-0.677754	-0.130068	-0.446094
21649		7.604081	-5.462923	-0.231124	0.544947	0.144292	0.808242	-0.199707	0.756104	0.080078	0.576048	-0.675516	-0.126684	-0.442490
21650		7.527241	-5.173963	-0.145497	0.528926	0.104393	0.721794	-0.184570	0.765869	0.074219	0.581755	-0.673370	-0.123916	-0.439065
21651		7.365589	-4.838038	-0.080514	0.457997	0.103651	0.613946	-0.172119	0.777344	0.066406	0.586638	-0.671427	-0.121496	-0.436212
21652		7.247645	-4.458476	-0.111713	0.357657	0.076046	0.473837	-0.166016	0.770264	0.055420	0.590400	-0.669911	-0.119634	-0.433976
21653		7.196182	-4.481346	-0.170982	0.223323	0.052858	0.326682	-0.158447	0.785156	0.053711	0.592844	-0.668982	-0.118225	-0.432461
21654		7.157712	-4.625579	-0.023311	0.066988	0.035888	0.199872	-0.157227	0.780029	0.054443	0.593935	-0.668757	-0.117051	-0.431629
21655		7.103501	-4.775924	0.062091	-0.053819	0.039824	0.081742	-0.152588	0.772949	0.055908	0.593928	-0.669001	-0.116086	-0.431521
21656		7.088930	-4.920416	0.051404	-0.131583	0.019633	-0.029557	-0.160645	0.774902	0.060303	0.593065	-0.669595	-0.115568	-0.431926
21657		7.186968	-5.116704	-0.134625	-0.178951	-0.042014	-0.131951	-0.156494	0.777832	0.053223	0.591506	-0.670546	-0.115761	-0.432537
21658		7.183612	-5.341908	-0.145813	-0.221352	-0.083927	-0.218534	-0.170898	0.763672	0.063965	0.589352	-0.671771	-0.116495	-0.433378
21659		7.146652	-5.393370	-0.212901	-0.249776	-0.110610	-0.294136	-0.172363	0.776367	0.070557	0.586731	-0.673155	-0.117684	-0.434465
21660		7.343049	-5.286968	-0.249821	-0.235580	-0.142431	-0.383194	-0.177002	0.772705	0.066895	0.583827	-0.674489	-0.119583	-0.435787
21661		7.449805	-5.148592	-0.147664	-0.232645	-0.171336	-0.475455	-0.175049	0.767822	0.068359	0.580561	-0.675812	-0.122154	-0.437385
21662		7.529258	-5.035563	-0.094753	-0.280795	-0.201130	-0.569523	-0.190186	0.773926	0.078125	0.576634	-0.677364	-0.125225	-0.439307
21663		7.627735	-5.032405	-0.044321	-0.361775	-0.213270	-0.642520	-0.196533	0.758789	0.083496	0.571947	-0.679250	-0.128470	-0.441580
21664		7.802589	-4.989346	0.071439	-0.482205	-0.225916	-0.704066	-0.206055	0.761230	0.096191	0.566308	-0.681659	-0.131678	-0.444182
21665		8.024869	-4.936786	0.296515	-0.645044	-0.203667	-0.750763	-0.206055	0.759521	0.109863	0.559558	-0.684660	-0.134440	-0.447282
21666		8.229086	-4.974895	0.367195	-0.851837	-0.141850	-0.783272	-0.223877	0.752686	0.117676	0.551528	-0.688301	-0.136322	-0.451082
21667		8.287612	-5.142743	0.224316	-1.034681	-0.076205	-0.808824	-0.235840	0.741455	0.138672	0.542367	-0.692431	-0.137350	-0.455536
21668		8.217921	-5.399117	-0.078988	-1.110024	-0.015857	-0.831418	-0.247314	0.742676	0.155029	0.532683	-0.696558	-0.137934	-0.460468
21669		8.090452	-5.651854	-0.544586	-1.102410	0.022626	-0.864906	-0.263184	0.734131	0.160889	0.522885	-0.700369	-0.138555	-0.465701
21670		8.103359	-5.929767	-0.733223	-1.057617	0.028523	-0.913660	-0.278320	0.724609	0.180664	0.513093	-0.703810	-0.139591	-0.471064
21671		8.192874	-6.131707	-0.731631	-0.998194	0.002210	-0.966945	-0.283936	0.716553	0.191895	0.503338	-0.706944	-0.141265	-0.476367
21672		8.322987	-6.288808	-0.843812	-0.904034	-0.033949	-0.996051	-0.294922	0.705322	0.208496	0.493914	-0.709700	-0.143617	-0.481403
21673		8.350075	-6.245956	-0.675755	-0.806953	-0.071687	-1.009579	-0.315186	0.695312	0.224854	0.484902	-0.712107	-0.146574	-0.486097
21674		8.380487	-6.269843	-0.573304	-0.707848	-0.115909	-1.032852	-0.321045	0.689209	0.227051	0.476272	-0.714183	-0.150232	-0.490447
21675		8.400651	-6.207818	-0.554123	-0.638719	-0.172849	-1.054514	-0.328125	0.678711	0.228271	0.467850	-0.716111	-0.154510	-0.494397
21676		8.548430	-6.117789	-0.629195	-0.570622	-0.220485	-1.070471	-0.341797	0.663818	0.250244	0.459659	-0.717871	-0.159330	-0.497984
21677		8.716079	-6.038662	-0.736538	-0.437189	-0.257223	-1.054022	-0.359375	0.658936	0.259766	0.452221	-0.719232	-0.164718	-0.501069
21678		8.815721	-5.995126	-0.667170	-0.300673	-0.309202	-1.026140	-0.365479	0.653809	0.262451	0.445608	-0.720265	-0.170691	-0.503505
21679		8.814375	-5.793518	-0.670060	-0.167418	-0.335923	-0.995159	-0.383057	0.643555	0.270996	0.439861	-0.720899	-0.177120	-0.505426
21680		8.888200	-5.509089	-0.542918	-0.083529	-0.372059	-0.963934	-0.382324	0.626953	0.274170	0.434647	-0.721368	-0.183833	-0.506868
21681		9.039866	-5.142177	-0.529768	-0.078256	-0.406757	-0.917018	-0.397705	0.626465	0.281250	0.429569	-0.721997	-0.190380	-0.507884
21682		9.186938	-4.736687	-0.451995	-0.154175	-0.358033	-0.854750	-0.396484	0.630371	0.284912	0.424345	-0.722738	-0.196049	-0.509063
21683		9.352205	-4.610254	-0.356144	-0.193073	-0.269475	-0.786483	-0.404297	0.609863	0.291992	0.419331	-0.723321	-0.200801	-0.510536
21684		9.479935	-4.793669	-0.459523	-0.251104	-0.174733	-0.697275	-0.422119	0.608398	0.296631	0.414435	-0.723830	-0.204421	-0.512372
21685		9.364765	-5.036936	-0.512227	-0.285988	-0.113582	-0.588592	-0.428955	0.603516	0.296631	0.409885	-0.724334	-0.207042	-0.514266
21686		8.964000	-5.158167	-0.483903	-0.286685	-0.033162	-0.460263	-0.427490	0.594727	0.309082	0.406033	-0.724678	-0.208618	-0.516195
21687		8.766384	-5.152151	-0.354527	-0.303208	0.044769	-0.329467	-0.436279	0.597168	0.310791	0.402706	-0.725015	-0.209006	-0.518168
21688		8.550229	-5.112040	-0.526654	-0.322034	0.132695	-0.211874	-0.441895	0.585693	0.315918	0.399952	-0.725207	-0.208319	-0.520305
21689		8.447339	-5.069903	-0.609295	-0.301126	0.157679	-0.122997	-0.444336	0.582275	0.312988	0.397690	-0.725374	-0.207094	-0.522290
21690		8.385405	-5.096111	-0.731796	-0.240757	0.169685	-0.041104	-0.434814	0.583252	0.311768	0.396207	-0.725394	-0.205619	-0.523970
21691		8.321279	-5.250569	-0.712764	-0.197342	0.142902	0.037454	-0.435303	0.589844	0.314941	0.395336	-0.725543	-0.203911	-0.525088
21692		8.170995	-5.479564	-0.706220	-0.100208	0.121208	0.091146	-0.435303	0.581055	0.319336	0.395271	-0.725567	-0.202351	-0.525707
21693		8.123130	-5.493592	-0.872639	0.002494	0.117216	0.136293	-0.439209	0.584473	0.315918	0.395927	-0.725373	-0.200958	-0.526015
21694		8.233302	-5.307704	-1.115605	0.066844	0.076302	0.184196	-0.435303	0.590332	0.308594	0.397152	-0.725184	-0.199724	-0.525822
21695		8.393501	-4.936220	-1.427209	0.087320	0.041181	0.226709	-0.439209	0.595215	0.313721	0.398732	-0.725112	-0.198461	-0.525203
21696		8.655615	-4.655343	-1.193999	0.116204	0.028459	0.254920	-0.434814	0.589600	0.314453	0.400524	-0.725064	-0.197175	-0.524390
21697		8.829227	-4.423436	-0.849654	0.126790	0.058086	0.280146	-0.430908	0.598145	0.304688	0.402461	-0.724917	-0.195661	-0.523676
21698		8.890394	-4.133147	-0.638862	0.107876	0.120621	0.292351	-0.417480	0.591553	0.307129	0.404592	-0.724508	-0.193831	-0.523281
21699		8.950025	-3.842517	-0.834543	0.024751	0.136084	0.301900	-0.421875	0.606445	0.302002	0.406180	-0.724425	-0.191435	-0.523048
21700		8.985544	-3.725937	-1.094284	-0.061564	0.116302	0.294178	-0.417236	0.601074	0.308838	0.407324	-0.724618	-0.188841	-0.522834
21701		8.904835	-3.832996	-1.320235	-0.078244	0.071207	0.264659	-0.417725	0.609131	0.303467	0.408012	-0.725095	-0.186440	-0.522497
21702		8.747590	-3.915226	-1.524394	-0.035507	0.072483	0.219976	-0.412598	0.609131	0.297607	0.408901	-0.725269	-0.184554	-0.522230
21703		8.713287	-3.835568	-1.541716	0.014068	0.035611	0.164049	-0.404541	0.615234	0.301025	0.409872	-0.725308	-0.183379	-0.521829
21704		8.753579	-3.858650	-1.484453	0.082795	-0.012166	0.115455	-0.413818	0.608154	0.296387	0.410989	-0.725321	-0.182896	-0.521101
21705		8.885259	-3.932899	-1.326784	0.144530	-0.052017	0.085652	-0.418945	0.609619	0.302979	0.412221	-0.725145	-0.183087	-0.520306
21706		8.990366	-3.951397	-1.141926	0.182810	-0.061995	0.061563	-0.407471	0.607666	0.295654	0.413430	-0.724881	-0.183607	-0.519530
21707		8.979714	-3.908124	-1.140518	0.171581	-0.060147	0.042865	-0.407715	0.615479	0.295898	0.414581	-0.724630	-0.184157	-0.518767
21708		8.917006	-3.904402	-1.206495	0.135795	-0.060063	0.023111	-0.416260	0.616943	0.301270	0.415492	-0.724469	-0.184688	-0.518074
21709		8.906990	-3.841557	-1.330134	0.140754	-0.077735	-0.005684	-0.406738	0.612549	0.291260	0.416156	-0.724325	-0.185491	-0.517456
21710		9.017509	-3.773527	-1.306470	0.153505	-0.105534	-0.035201	-0.405518	0.607910	0.291504	0.416842	-0.724178	-0.186621	-0.516702
21711		9.101887	-3.621129	-1.167874	0.155598	-0.117845	-0.072210	-0.403809	0.616455	0.294678	0.417268	-0.724050	-0.187986	-0.516043
21712		9.148592	-3.547290	-1.193263	0.114726	-0.111044	-0.097919	-0.408936	0.608398	0.292480	0.417418	-0.724037	-0.189305	-0.515457
21713		9.176844	-3.375214	-1.200585	0.084841	-0.107929	-0.130814	-0.402832	0.615234	0.288818	0.417134	-0.724016	-0.190693	-0.515205
21714		9.205756	-3.259998	-1.326269	0.051327	-0.115444	-0.171468	-0.401855	0.608154	0.299072	0.416683	-0.724068	-0.192238	-0.514923
21715		9.159558	-3.278297	-1.482470	-0.008787	-0.121299	-0.206692	-0.412109	0.614502	0.289795	0.415420	-0.724464	-0.193615	-0.514870
21716		9.146720	-3.328140	-1.456760	-0.041426	-0.127317	-0.233011	-0.411133	0.612061	0.296875	0.414134	-0.724710	-0.195245	-0.514944
21717		9.192958	-3.321629	-1.379752	-0.056195	-0.120830	-0.251217	-0.423096	0.607178	0.297607	0.412581	-0.725052	-0.196827	-0.515108
21718		9.201537	-3.190520	-1.323772	-0.076037	-0.114016	-0.278767	-0.420410	0.602783	0.307373	0.410710	-0.725287	-0.198530	-0.515618
21719		9.271726	-2.888036	-1.536618	-0.095464	-0.094399	-0.312515	-0.422363	0.603027	0.308594	0.408428	-0.725615	-0.200155	-0.516341
21720		9.365629	-2.685226	-1.487593	-0.145551	-0.098224	-0.354986	-0.420410	0.605225	0.306152	0.405722	-0.726041	-0.201855	-0.517212
21721		9.422986	-2.663428	-1.527981	-0.195813	-0.109307	-0.399647	-0.432861	0.604980	0.313965	0.402729	-0.726562	-0.203695	-0.518098
21722		9.309303	-2.805676	-1.557629	-0.256525	-0.114899	-0.449159	-0.434814	0.595459	0.318359	0.399065	-0.727187	-0.205642	-0.519285
21723		9.286595	-2.932308	-1.729660	-0.274122	-0.149350	-0.502874	-0.431641	0.589600	0.316162	0.394883	-0.727959	-0.207893	-0.520504
21724		9.248286	-3.051624	-1.804313	-0.260634	-0.179802	-0.560895	-0.438232	0.578857	0.319580	0.390618	-0.728680	-0.210653	-0.521602
21725		9.311152	-3.108456	-1.727813	-0.246296	-0.200755	-0.614561	-0.446289	0.572510	0.333740	0.386041	-0.729314	-0.213847	-0.522821
21726		9.445909	-3.056045	-1.565023	-0.231528	-0.218478	-0.667954	-0.459229	0.560547	0.338135	0.381029	-0.729988	-0.217399	-0.524091
21727		9.540336	-2.988004	-1.667968	-0.215274	-0.231570	-0.704093	-0.458252	0.563232	0.345703	0.375741	-0.730510	-0.221288	-0.525553
21728		9.590110	-2.946930	-1.605787	-0.227826	-0.250533	-0.742283	-0.465088	0.552490	0.353271	0.370304	-0.731165	-0.225350	-0.526774
21729		9.549494	-3.000451	-1.640555	-0.220700	-0.251328	-0.781609	-0.470215	0.540527	0.352783	0.364548	-0.731743	-0.229620	-0.528140
21730		9.541152	-3.167645	-1.685827	-0.219852	-0.247273	-0.815836	-0.470947	0.535400	0.356689	0.358663	-0.732124	-0.234123	-0.529661
21731		9.442714	-3.278706	-1.765521	-0.217155	-0.257192	-0.840963	-0.488770	0.518555	0.374268	0.352723	-0.732509	-0.238759	-0.531048
21732		9.353582	-3.443548	-1.774712	-0.159346	-0.272148	-0.861551	-0.489014	0.514893	0.372070	0.346490	-0.732788	-0.243739	-0.532500
21733		9.316971	-3.506855	-1.695805	-0.091503	-0.301425	-0.864698	-0.500732	0.498047	0.372070	0.340924	-0.732875	-0.249158	-0.533466
21734		9.282896	-3.550160	-1.503295	-0.043387	-0.305558	-0.848645	-0.497559	0.493896	0.378906	0.335794	-0.732650	-0.254892	-0.534318
21735		9.269160	-3.503132	-1.453855	-0.009658	-0.292650	-0.817624	-0.506104	0.488037	0.384033	0.331123	-0.732402	-0.260408	-0.534914
21736		9.260387	-3.355344	-1.370382	-0.010166	-0.268004	-0.768252	-0.508301	0.484131	0.391357	0.326798	-0.732063	-0.265574	-0.535498
21737		9.193380	-3.187826	-1.451645	-0.012695	-0.246909	-0.709887	-0.527588	0.476807	0.388428	0.322817	-0.731735	-0.270294	-0.535999
21738		9.174385	-3.218995	-1.373193	-0.025312	-0.210502	-0.636381	-0.527344	0.472656	0.396484	0.319252	-0.731315	-0.274495	-0.536571
21739		9.086077	-3.291697	-1.315405	-0.028825	-0.167154	-0.551685	-0.524414	0.464844	0.401123	0.316141	-0.730920	-0.278010	-0.537141
21740		8.984298	-3.336477	-1.309258	-0.009266	-0.124721	-0.449709	-0.529053	0.454102	0.391846	0.313712	-0.730506	-0.280877	-0.537638
21741		8.832523	-3.353134	-1.317263	0.018839	-0.092928	-0.344851	-0.534424	0.449219	0.401367	0.312008	-0.730098	-0.283146	-0.537993
21742		8.880475	-3.288595	-1.251493	0.045444	-0.058806	-0.232367	-0.530273	0.452393	0.396240	0.311043	-0.729737	-0.284752	-0.538193
21743		8.905251	-3.358395	-1.177897	0.060338	-0.007903	-0.108336	-0.536621	0.454590	0.405029	0.310858	-0.729401	-0.285535	-0.538341
21744		8.899295	-3.450037	-1.266757	0.068741	0.043712	0.024602	-0.536133	0.458008	0.391357	0.311441	-0.729128	-0.285409	-0.538440
21745		9.004943	-3.484033	-1.151637	0.082430	0.100393	0.151187	-0.527588	0.460449	0.394775	0.312819	-0.728862	-0.284420	-0.538526
21746		9.051692	-3.638569	-1.126028	0.084623	0.170626	0.277087	-0.526123	0.460205	0.397949	0.314939	-0.728575	-0.282488	-0.538695
21747		8.988142	-3.750127	-1.024836	0.106521	0.245374	0.406573	-0.531738	0.461670	0.382812	0.317940	-0.728193	-0.279663	-0.538923
21748		8.974616	-3.823427	-1.070077	0.126095	0.295934	0.533699	-0.528076	0.474121	0.385254	0.321748	-0.727800	-0.276003	-0.539079
21749		8.926914	-3.929750	-1.119828	0.145225	0.334100	0.655756	-0.521484	0.474365	0.376221	0.326306	-0.727447	-0.271578	-0.539065
21750		8.827467	-4.035076	-1.172387	0.183191	0.349998	0.754013	-0.520020	0.491943	0.369141	0.331553	-0.727107	-0.266662	-0.538776
21751		8.810400	-4.204185	-1.306983	0.254099	0.340444	0.836064	-0.517090	0.496094	0.369141	0.337582	-0.726748	-0.261579	-0.538008
21752		8.780923	-4.378842	-1.302226	0.349436	0.310040	0.910930	-0.509766	0.502686	0.356689	0.344416	-0.726377	-0.256530	-0.536606
21753		8.865553	-4.502828	-1.434206	0.447622	0.259833	0.969697	-0.496582	0.515381	0.348633	0.351979	-0.726009	-0.251680	-0.534490
21754		8.925174	-4.436209	-1.452981	0.548690	0.206734	1.020841	-0.488281	0.528809	0.333740	0.360254	-0.725626	-0.247099	-0.531626
21755		8.997930	-4.194610	-1.355377	0.626909	0.181350	1.060675	-0.477539	0.535645	0.331299	0.369117	-0.725109	-0.242673	-0.528279
21756		9.270171	-4.027781	-1.165790	0.652520	0.187127	1.086764	-0.469238	0.556885	0.315918	0.378190	-0.724477	-0.238148	-0.524778
21757		9.600624	-3.952933	-1.035293	0.648699	0.243268	1.122499	-0.467041	0.573242	0.304932	0.387528	-0.723565	-0.233200	-0.521434
21758		9.787736	-4.001103	-0.854239	0.652803	0.288281	1.162090	-0.450928	0.582764	0.296387	0.397125	-0.722400	-0.227872	-0.518174
21759		9.885559	-4.236569	-0.828898	0.669106	0.351848	1.195213	-0.444580	0.601318	0.280029	0.407024	-0.720886	-0.222165	-0.515070
21760		9.873661	-4.665055	-0.886886	0.696986	0.425400	1.236212	-0.420410	0.611084	0.269287	0.417405	-0.718887	-0.216079	-0.512137
21761		9.746943	-5.012634	-1.052335	0.737848	0.470977	1.288210	-0.422852	0.625977	0.261230	0.428269	-0.716563	-0.209637	-0.509092
21762		9.620933	-5.248427	-1.186540	0.797268	0.434956	1.334516	-0.404785	0.638428	0.243408	0.439519	-0.714106	-0.203292	-0.505517
21763		9.634772	-5.349514	-1.197184	0.886858	0.367732	1.369064	-0.383545	0.652100	0.224854	0.451273	-0.711524	-0.197322	-0.501149
21764		9.753587	-5.376317	-1.010488	0.988605	0.300406	1.399144	-0.366699	0.664551	0.212402	0.463544	-0.708760	-0.191801	-0.495983
21765		9.622793	-5.547934	-0.851770	1.056995	0.283456	1.441377	-0.360596	0.671631	0.195312	0.476181	-0.705747	-0.186322	-0.490365
21766		9.632930	-5.558071	-0.642444	1.133455	0.318731	1.481089	-0.345459	0.697266	0.179688	0.489323	-0.702185	-0.180738	-0.484596
21767		9.378078	-5.469519	-0.446094	1.151773	0.305961	1.509600	-0.318115	0.705078	0.164551	0.502547	-0.698468	-0.175069	-0.478477
21768		9.200647	-5.480889	-0.398615	1.103722	0.295371	1.525139	-0.298340	0.718506	0.150146	0.515401	-0.694840	-0.169114	-0.472185
21769		9.465470	-5.657865	-0.574115	1.009367	0.332672	1.506127	-0.281494	0.722900	0.130615	0.527561	-0.691271	-0.162701	-0.466211
21770		9.230637	-5.611312	-0.842731	0.898029	0.384100	1.484826	-0.258301	0.734863	0.106201	0.538945	-0.687801	-0.155720	-0.460672
21771		9.105598	-5.366370	-0.587863	0.908565	0.367952	1.485636	-0.249023	0.739258	0.095947	0.550252	-0.684195	-0.148819	-0.454921
21772		9.381165	-5.471402	-0.469804	0.890998	0.397318	1.471660	-0.225830	0.752441	0.077393	0.561320	-0.680388	-0.141769	-0.449326
21773		8.366474	-5.215166	0.067893	0.848997	0.450765	1.441456	-0.196045	0.757812	0.062012	0.571978	-0.676396	-0.134459	-0.444129
21774		7.718605	-4.964209	0.208550	0.744613	0.460466	1.365559	-0.186279	0.770264	0.055176	0.581664	-0.672646	-0.127124	-0.439379
21775		7.398297	-4.847298	-0.024223	0.626753	0.400375	1.249834	-0.157715	0.771484	0.037598	0.590105	-0.669451	-0.120282	-0.434905
21776		7.418323	-4.974524	-0.086959	0.528913	0.329169	1.132214	-0.148438	0.779785	0.033691	0.597424	-0.666789	-0.114082	-0.430654
21777		7.171390	-5.004312	0.119710	0.456291	0.305903	1.038470	-0.141357	0.779541	0.026367	0.603915	-0.664411	-0.108251	-0.426763
21778		6.793504	-5.201179	0.479277	0.374631	0.310169	0.940940	-0.135742	0.782227	0.023926	0.609556	-0.662283	-0.102645	-0.423423
21779		6.457282	-5.355492	0.503812	0.289697	0.297044	0.801527	-0.103027	0.787598	0.014160	0.614184	-0.660468	-0.097573	-0.420762
21780		6.191924	-5.483289	0.297293	0.228008	0.222026	0.634836	-0.102051	0.788086	0.007812	0.617797	-0.659065	-0.093585	-0.418572
21781		6.160157	-5.748796	0.199277	0.197115	0.128185	0.500113	-0.091553	0.786865	0.003906	0.620678	-0.658026	-0.090714	-0.416572
21782		6.268563	-5.916960	0.422467	0.199652	0.074541	0.400660	-0.090820	0.801270	-0.005615	0.623175	-0.657074	-0.088675	-0.414781
21783		6.312267	-5.989898	0.666699	0.190758	0.051432	0.308881	-0.085205	0.783936	0.000977	0.625281	-0.656173	-0.087231	-0.413342
21784		6.318634	-5.879871	0.736579	0.138632	0.003156	0.206277	-0.082520	0.791748	-0.006348	0.626708	-0.655632	-0.086422	-0.412208
21785		6.488308	-5.958080	0.616713	0.066040	-0.031789	0.095612	-0.080322	0.792480	-0.006836	0.627330	-0.655509	-0.086154	-0.411513
21786		6.508654	-6.060428	0.480637	-0.045893	-0.056035	-0.011965	-0.078857	0.792969	-0.007324	0.626953	-0.655977	-0.086220	-0.411327
21787		6.578040	-6.161088	0.516629	-0.123893	-0.072395	-0.123122	-0.076904	0.789551	0.006592	0.625755	-0.656830	-0.086714	-0.411687
21788		6.527680	-6.058996	0.467419	-0.186314	-0.092455	-0.222794	-0.088623	0.795898	-0.000488	0.623855	-0.658003	-0.087648	-0.412499
21789		6.425082	-5.971068	0.359640	-0.212255	-0.136254	-0.326291	-0.090820	0.786865	-0.003174	0.621417	-0.659381	-0.089289	-0.413624
21790		6.459534	-5.811062	0.353489	-0.214380	-0.186096	-0.408622	-0.087158	0.785645	0.012939	0.618637	-0.660873	-0.091635	-0.414897
21791		6.613877	-5.711076	0.321830	-0.251360	-0.228462	-0.490160	-0.098633	0.793457	0.005127	0.615324	-0.662627	-0.094522	-0.416375
21792		6.615013	-5.547666	0.391572	-0.344245	-0.250725	-0.555993	-0.106689	0.781738	0.019775	0.611233	-0.664864	-0.097565	-0.418128
21793		6.543611	-5.373616	0.563119	-0.452663	-0.272104	-0.622464	-0.116455	0.790771	0.023926	0.606266	-0.667648	-0.100706	-0.420172
21794		6.661904	-5.314760	0.593066	-0.589260	-0.308470	-0.696767	-0.127930	0.781494	0.041504	0.600214	-0.671151	-0.103963	-0.422481
21795		7.109576	-5.572432	0.479855	-0.724378	-0.339262	-0.781323	-0.142578	0.783203	0.047363	0.593036	-0.675315	-0.107366	-0.425125
21796		7.505696	-6.105574	0.149938	-0.796198	-0.318290	-0.877433	-0.151123	0.775146	0.065674	0.585073	-0.679608	-0.110944	-0.428385
21797		7.745215	-6.728736	-0.129379	-0.826287	-0.287721	-0.950188	-0.171875	0.765381	0.072021	0.576642	-0.683797	-0.114668	-0.432153
21798		7.588186	-6.996879	-0.132505	-0.833936	-0.268667	-0.974565	-0.177246	0.760254	0.084961	0.568029	-0.687852	-0.118399	-0.436102
21799		7.440919	-7.056695	-0.259147	-0.783332	-0.225205	-0.981963	-0.189453	0.765137	0.095947	0.559654	-0.691422	-0.122138	-0.440233
21800		7.613401	-6.932292	-0.251027	-0.693294	-0.253023	-0.987111	-0.211914	0.760010	0.113037	0.551689	-0.694595	-0.126352	-0.444086
21801		7.841311	-6.786831	-0.241446	-0.615173	-0.317503	-0.980109	-0.216797	0.747803	0.127441	0.544076	-0.697583	-0.131098	-0.447406
21802		8.129194	-6.838748	-0.254807	-0.586937	-0.307909	-0.975723	-0.234863	0.744141	0.127930	0.536600	-0.700345	-0.135867	-0.450685
21803		7.897722	-6.538952	0.028043	-0.566861	-0.283291	-0.941769	-0.249268	0.737549	0.137207	0.529347	-0.702898	-0.140391	-0.453891
21804		8.240304	-6.181617	0.092572	-0.581979	-0.298010	-0.924046	-0.252686	0.727539	0.147949	0.522007	-0.705531	-0.144805	-0.456909
21805		8.518502	-6.008189	-0.050251	-0.603315	-0.262616	-0.891940	-0.268066	0.724854	0.162842	0.514661	-0.708100	-0.148781	-0.459982
21806		8.493047	-5.991258	-0.147763	-0.586773	-0.244634	-0.862191	-0.278564	0.722412	0.172852	0.507504	-0.710506	-0.152555	-0.462977
21807		8.230197	-5.963824	-0.221485	-0.561835	-0.248333	-0.837936	-0.293457	0.710449	0.180908	0.500545	-0.712797	-0.156286	-0.465778
21808		8.268365	-5.929802	-0.226144	-0.547307	-0.230008	-0.830137	-0.306152	0.708496	0.196289	0.493688	-0.714913	-0.159940	-0.468605
21809		8.434950	-5.926269	-0.216946	-0.557279	-0.265737	-0.810317	-0.310303	0.707520	0.203125	0.486760	-0.717187	-0.163564	-0.471121
21810		8.450877	-5.967635	-0.215462	-0.568748	-0.253079	-0.770408	-0.313477	0.693115	0.212891	0.479911	-0.719460	-0.166841	-0.473526
21811		8.432844	-6.051802	-0.390961	-0.542954	-0.212630	-0.714987	-0.324219	0.686279	0.222168	0.473452	-0.721507	-0.169703	-0.475890
21812		8.438807	-5.944181	-0.314516	-0.503413	-0.156411	-0.637863	-0.329102	0.677246	0.229736	0.467586	-0.723245	-0.172025	-0.478213
21813		8.349237	-5.919814	-0.324791	-0.466166	-0.126097	-0.574737	-0.340576	0.678711	0.232422	0.462214	-0.724779	-0.173979	-0.480401
21814		8.311431	-6.100444	-0.443931	-0.427672	-0.092792	-0.517491	-0.338623	0.674561	0.238770	0.457359	-0.726073	-0.175638	-0.482486
21815		8.320090	-6.089679	-0.592659	-0.401447	-0.068350	-0.457914	-0.353027	0.668457	0.247070	0.452926	-0.727244	-0.176920	-0.484431
21816		8.417787	-6.001788	-0.659822	-0.319153	-0.056255	-0.404910	-0.352783	0.663818	0.256104	0.449187	-0.728116	-0.178161	-0.486144
21817		8.420346	-5.954217	-0.761869	-0.232373	-0.050409	-0.357191	-0.353516	0.655273	0.254883	0.446142	-0.728723	-0.179390	-0.487585
21818		8.431020	-5.886453	-0.818400	-0.160013	-0.049808	-0.297151	-0.365234	0.654053	0.262451	0.443793	-0.729132	-0.180559	-0.488685
21819		8.456985	-5.820773	-0.648651	-0.098676	-0.029788	-0.233370	-0.359375	0.655762	0.259766	0.442062	-0.729330	-0.181497	-0.489610
21820		8.479326	-5.721708	-0.602382	-0.063075	-0.005038	-0.182830	-0.354736	0.653809	0.259277	0.440843	-0.729365	-0.182194	-0.490398
21821		8.473056	-5.617558	-0.654616	-0.029791	0.002801	-0.145169	-0.364990	0.651367	0.266602	0.440009	-0.729308	-0.182754	-0.491022
21822		8.446843	-5.511445	-0.771294	0.009251	0.017560	-0.106372	-0.370605	0.653809	0.258545	0.439516	-0.729123	-0.183145	-0.491592
21823		8.443184	-5.429552	-0.797097	0.047599	0.043208	-0.055308	-0.374023	0.642334	0.267578	0.439595	-0.728712	-0.183398	-0.492038
21824		8.319360	-5.359037	-0.766407	0.066896	0.061989	-0.012984	-0.370117	0.650635	0.256592	0.439836	-0.728276	-0.183282	-0.492510
21825		8.332622	-5.239772	-0.785591	0.071198	0.048022	0.012165	-0.366943	0.655762	0.259033	0.440346	-0.727861	-0.183202	-0.492698
21826		8.378407	-5.171588	-0.873747	0.078173	0.051994	0.035631	-0.369873	0.655029	0.259766	0.440985	-0.727469	-0.182936	-0.492804
21827		8.379156	-5.098468	-0.879898	0.099165	0.080977	0.056534	-0.362305	0.659424	0.258057	0.441850	-0.726915	-0.182512	-0.493004
21828		8.442287	-5.007047	-0.955372	0.124654	0.089322	0.067798	-0.364014	0.656738	0.253418	0.442961	-0.726268	-0.182064	-0.493126
21829		8.398737	-4.957350	-1.065260	0.136677	0.080685	0.075063	-0.363037	0.649170	0.250244	0.444179	-0.725593	-0.181703	-0.493156
21830		8.489952	-4.874879	-1.131752	0.165650	0.099923	0.079496	-0.370361	0.665527	0.246338	0.445588	-0.724736	-0.181364	-0.493271
21831		8.682421	-4.742057	-1.121344	0.167882	0.089858	0.077174	-0.367676	0.654053	0.246338	0.447093	-0.723849	-0.181193	-0.493275
21832		8.823931	-4.461067	-1.101867	0.135002	0.064761	0.072815	-0.358643	0.659180	0.249756	0.448224	-0.723222	-0.180920	-0.493269
21833		8.992548	-4.176528	-1.215346	0.124884	0.062524	0.065631	-0.366699	0.662842	0.243408	0.449224	-0.722705	-0.180527	-0.493261
21834		9.063525	-3.983783	-1.153705	0.094928	0.047095	0.059383	-0.368408	0.659180	0.239746	0.450078	-0.722269	-0.180260	-0.493218
21835		9.075984	-3.955345	-1.029048	0.075774	0.061656	0.047268	-0.364990	0.664795	0.236572	0.450793	-0.721797	-0.179984	-0.493356
21836		9.007761	-4.003250	-1.022538	0.036568	0.079141	0.030029	-0.354004	0.663818	0.240723	0.451314	-0.721359	-0.179628	-0.493650
21837		8.874960	-4.022408	-1.266875	-0.049838	0.076929	0.007959	-0.361572	0.662354	0.241455	0.451148	-0.721322	-0.178883	-0.494126
21838		8.718564	-3.971194	-1.630839	-0.119458	0.043662	-0.030089	-0.363281	0.659180	0.243896	0.450313	-0.721601	-0.178239	-0.494713
21839		8.681744	-3.922547	-1.696834	-0.124509	0.005468	-0.080262	-0.369385	0.654053	0.252197	0.449129	-0.721995	-0.177989	-0.495305
21840		8.707236	-3.863635	-1.540476	-0.104292	-0.029440	-0.131208	-0.360596	0.661865	0.246094	0.447605	-0.722443	-0.178124	-0.495982
21841		8.626028	-3.926715	-1.265472	-0.090659	-0.049036	-0.181097	-0.370850	0.664307	0.246338	0.446206	-0.722788	-0.178832	-0.496484
21842		8.649710	-3.908383	-1.196077	-0.112131	-0.038478	-0.232264	-0.366455	0.663330	0.247559	0.444525	-0.723025	-0.179840	-0.497283
21843		8.776208	-3.826096	-1.116407	-0.151609	-0.002576	-0.279013	-0.378418	0.652100	0.250977	0.442503	-0.723212	-0.180797	-0.498465
21844		8.756936	-3.677164	-1.154757	-0.219573	-0.023431	-0.331833	-0.376465	0.656982	0.259521	0.439655	-0.723641	-0.181854	-0.499977
21845		8.854377	-3.521518	-1.322194	-0.311534	-0.025571	-0.379880	-0.383545	0.648682	0.257568	0.436014	-0.724423	-0.182675	-0.501730
21846		8.989911	-3.397521	-1.333664	-0.390838	-0.021257	-0.437403	-0.382812	0.639648	0.266113	0.431722	-0.725288	-0.183643	-0.503834
21847		8.942927	-3.356393	-1.405507	-0.466300	-0.030531	-0.508163	-0.388916	0.636230	0.273438	0.426508	-0.726432	-0.184567	-0.506283
21848		8.960323	-3.495556	-1.702902	-0.533207	-0.025171	-0.586679	-0.397949	0.632324	0.280518	0.420516	-0.727663	-0.185623	-0.509133
21849		9.001031	-3.653740	-1.725027	-0.518480	-0.058225	-0.669845	-0.403320	0.620850	0.295898	0.414178	-0.728813	-0.187361	-0.512039
21850		8.936608	-3.648714	-1.692939	-0.472845	-0.133110	-0.754959	-0.409668	0.621826	0.296875	0.407299	-0.730116	-0.189745	-0.514816
21851		8.857785	-3.670719	-1.750551	-0.459103	-0.193229	-0.830364	-0.412598	0.600098	0.297852	0.400280	-0.731393	-0.192984	-0.517299
21852		9.002498	-3.735739	-1.813188	-0.428089	-0.251339	-0.897622	-0.424805	0.606445	0.312256	0.393062	-0.732612	-0.197065	-0.519564
21853		9.230090	-3.838518	-1.753853	-0.316130	-0.314746	-0.941679	-0.436035	0.588867	0.318115	0.386082	-0.733725	-0.201849	-0.521388
21854		9.426596	-3.928801	-1.737583	-0.201709	-0.342777	-0.940968	-0.445801	0.575684	0.318848	0.379639	-0.734512	-0.207272	-0.522881
21855		9.702342	-3.834926	-1.380022	-0.107008	-0.318286	-0.925386	-0.450195	0.565674	0.331787	0.373962	-0.734766	-0.213137	-0.524255
21856		9.879375	-3.607937	-1.089591	-0.087821	-0.285530	-0.908214	-0.465576	0.570068	0.346924	0.368194	-0.734994	-0.218516	-0.525803
21857		9.833584	-3.202391	-1.159294	-0.172764	-0.225711	-0.892036	-0.467773	0.554199	0.340088	0.361922	-0.735299	-0.222988	-0.527848
21858		9.917565	-2.986168	-1.476110	-0.311208	-0.166481	-0.883191	-0.469727	0.536621	0.342773	0.355474	-0.735454	-0.227189	-0.530218
21859		9.754015	-3.013994	-1.749612	-0.411818	-0.127455	-0.873147	-0.487549	0.526855	0.354248	0.348666	-0.735631	-0.230916	-0.532876
21860		9.446565	-3.362630	-1.800750	-0.422401	-0.127156	-0.865167	-0.501465	0.518799	0.361816	0.341821	-0.735788	-0.234533	-0.535508
21861		9.138785	-3.795866	-1.654630	-0.341952	-0.139154	-0.854260	-0.494629	0.512939	0.371338	0.335535	-0.735729	-0.238483	-0.537815
21862		8.922452	-4.067496	-1.587505	-0.233343	-0.151778	-0.828388	-0.512451	0.497803	0.365723	0.330006	-0.735436	-0.242781	-0.539710
21863		8.798445	-3.991154	-1.418611	-0.109648	-0.161893	-0.785425	-0.512939	0.489746	0.372803	0.325397	-0.734892	-0.247393	-0.541154
21864		8.838501	-3.804281	-1.225042	-0.048748	-0.142081	-0.714722	-0.508301	0.481934	0.369629	0.321509	-0.734213	-0.251777	-0.542376
21865		8.906970	-3.469159	-1.159616	-0.057258	-0.113096	-0.627117	-0.520508	0.474609	0.382080	0.318018	-0.733587	-0.255498	-0.543541
21866		8.941917	-3.231872	-1.302228	-0.081469	-0.061707	-0.533430	-0.528564	0.471191	0.380859	0.314903	-0.732975	-0.258388	-0.544812
21867		8.970174	-3.352231	-1.424377	-0.107646	-0.025568	-0.429684	-0.541748	0.462158	0.385742	0.312175	-0.732478	-0.260425	-0.546079
21868		8.897500	-3.523078	-1.447804	-0.107964	-0.008491	-0.331573	-0.532715	0.465088	0.388672	0.309925	-0.732110	-0.261809	-0.547190
21869		8.773597	-3.621368	-1.401532	-0.073205	0.021602	-0.222482	-0.537109	0.453369	0.386475	0.308451	-0.731750	-0.262605	-0.548123
21870		8.643613	-3.700208	-1.375204	0.008144	0.032705	-0.107892	-0.530518	0.459961	0.382080	0.308021	-0.731380	-0.263038	-0.548650
21871		8.778283	-3.686822	-1.241944	0.091914	0.054810	0.025630	-0.538086	0.457520	0.384277	0.308763	-0.730987	-0.262981	-0.548785
21872		8.865298	-3.551555	-1.252059	0.115741	0.093812	0.163977	-0.535400	0.464111	0.380859	0.310368	-0.730656	-0.262083	-0.548749
21873		8.952693	-3.480567	-1.268668	0.119659	0.152467	0.294806	-0.532715	0.471191	0.380615	0.312723	-0.730329	-0.260250	-0.548720
21874		8.912704	-3.596352	-1.136612	0.137350	0.177227	0.412110	-0.520508	0.470703	0.379883	0.315774	-0.730088	-0.257713	-0.548491
21875		8.683430	-3.906170	-1.183051	0.166170	0.190306	0.531493	-0.523682	0.480469	0.372070	0.319569	-0.729953	-0.254537	-0.547956
21876		8.566839	-4.108790	-1.235067	0.215567	0.182698	0.649912	-0.525391	0.489746	0.364502	0.324182	-0.729950	-0.250875	-0.546938
21877		8.545316	-4.338940	-1.392924	0.296290	0.158526	0.749746	-0.514404	0.488281	0.363037	0.329679	-0.730016	-0.247024	-0.545314
21878		8.647636	-4.563772	-1.369607	0.401242	0.121459	0.849811	-0.505127	0.500244	0.354248	0.336173	-0.730131	-0.243123	-0.542943
21879		8.707915	-4.693172	-1.279831	0.520882	0.079254	0.938567	-0.505127	0.518066	0.339600	0.343694	-0.730228	-0.239323	-0.539784
21880		8.894010	-4.618828	-1.139319	0.663066	0.042649	1.001744	-0.490479	0.525879	0.340576	0.352269	-0.730135	-0.235860	-0.535891
21881		9.250392	-4.373393	-1.059973	0.768610	0.027417	1.035412	-0.471924	0.539551	0.328857	0.361561	-0.729795	-0.232675	-0.531541
21882		9.536857	-4.146395	-1.048844	0.785313	0.046367	1.056883	-0.472900	0.557129	0.319824	0.371055	-0.729274	-0.229349	-0.527140
21883		9.730944	-4.018443	-1.058278	0.753043	0.088553	1.077308	-0.455322	0.566895	0.315430	0.380484	-0.728608	-0.225603	-0.522939
21884		9.852287	-3.988958	-1.045056	0.716213	0.164019	1.105185	-0.452393	0.580078	0.301270	0.389901	-0.727702	-0.221253	-0.519109
21885		9.823592	-4.107974	-1.032511	0.676659	0.233802	1.132702	-0.443359	0.598877	0.284668	0.399288	-0.726567	-0.216322	-0.515630
21886		9.866106	-4.208996	-0.897219	0.676079	0.291320	1.142960	-0.432861	0.606934	0.280762	0.408810	-0.725091	-0.211137	-0.512385
21887		10.006098	-4.555888	-1.089787	0.635828	0.376884	1.127093	-0.425049	0.613281	0.259766	0.418093	-0.723277	-0.205541	-0.509727
21888		9.742980	-5.105784	-1.391092	0.543151	0.539462	1.125298	-0.400635	0.625488	0.252930	0.427058	-0.720972	-0.198996	-0.508154
21889		9.449714	-5.043120	-1.265207	0.610360	0.599059	1.172798	-0.397949	0.649658	0.231201	0.436686	-0.718176	-0.192200	-0.506545
21890		10.182017	-4.337583	-0.849042	0.852540	0.514094	1.239107	-0.386475	0.650635	0.217285	0.447931	-0.714792	-0.186399	-0.503672
21891		10.548171	-3.641435	-0.108686	0.973499	0.365002	1.323856	-0.368408	0.667480	0.205566	0.459878	-0.711594	-0.181082	-0.499356
21892		10.383293	-3.811418	0.219140	0.922240	0.327086	1.388482	-0.349609	0.680664	0.191895	0.471644	-0.708716	-0.175280	-0.494520
21893		10.155938	-4.714404	0.098741	0.738716	0.559961	1.410931	-0.328369	0.688477	0.182617	0.482644	-0.705502	-0.167626	-0.491145
21894		9.144623	-5.405618	-0.203036	0.567028	0.731341	1.427148	-0.315186	0.702881	0.167969	0.492791	-0.702180	-0.158407	-0.488883
21895		8.934245	-5.523303	-0.347828	0.520066	0.746456	1.416639	-0.300049	0.709229	0.150635	0.502530	-0.698830	-0.148968	-0.486732
21896		8.773990	-5.471617	-0.557762	0.491394	0.675052	1.381171	-0.286621	0.722412	0.143555	0.511756	-0.695716	-0.139882	-0.484271
21897		8.600891	-5.539870	-0.592158	0.463736	0.626200	1.322173	-0.273438	0.723877	0.124756	0.520429	-0.692729	-0.131206	-0.481732
21898		8.376688	-5.809434	-0.450947	0.474426	0.612178	1.261652	-0.249023	0.739502	0.116943	0.528821	-0.689575	-0.122966	-0.479285
21899		8.009925	-6.024221	-0.344112	0.518488	0.547240	1.223436	-0.237061	0.742432	0.110596	0.537167	-0.686344	-0.115389	-0.476517
21900		7.967940	-6.067445	-0.467056	0.538770	0.494157	1.169974	-0.220215	0.752930	0.093994	0.545290	-0.683086	-0.108423	-0.473600
21901		7.655510	-5.701458	-0.403424	0.573316	0.444214	1.105985	-0.204346	0.752197	0.084961	0.553241	-0.679723	-0.102173	-0.470596
21902		7.755930	-5.347796	-0.226646	0.665374	0.351530	1.002094	-0.190430	0.762695	0.073975	0.561163	-0.676133	-0.097291	-0.467413
21903		7.587606	-5.224494	-0.080575	0.740930	0.302920	0.901489	-0.183350	0.768066	0.066895	0.569019	-0.672225	-0.093492	-0.464316
21904		7.616061	-5.419920	0.051105	0.735432	0.270808	0.808406	-0.162842	0.772949	0.048096	0.576404	-0.668332	-0.090341	-0.461442
21905		7.081407	-5.775875	-0.111832	0.702623	0.228897	0.732982	-0.158936	0.785156	0.038574	0.583237	-0.664647	-0.087682	-0.458683
21906		7.079120	-5.783470	-0.057320	0.702962	0.139274	0.649920	-0.151123	0.775635	0.024658	0.589647	-0.661197	-0.085917	-0.455800
21907		6.874269	-5.597333	0.147854	0.670365	0.106923	0.571658	-0.140137	0.779297	0.013184	0.595521	-0.657935	-0.084617	-0.453118
21908		6.893496	-5.176872	0.354814	0.564342	0.114712	0.500100	-0.143311	0.781738	0.010498	0.600519	-0.655090	-0.083270	-0.450888
21909		6.899109	-4.936423	0.566860	0.424661	0.148270	0.405036	-0.133545	0.785156	0.011475	0.604401	-0.652731	-0.081750	-0.449398
21910		6.722595	-4.973151	0.701705	0.241282	0.142597	0.310713	-0.120605	0.784180	-0.000488	0.606916	-0.651240	-0.080087	-0.448470
21911		6.590793	-5.068279	0.894752	0.042850	0.112309	0.227088	-0.118652	0.790039	-0.000488	0.608015	-0.650806	-0.078294	-0.447928
21912		6.461351	-5.265234	0.965948	-0.102434	0.059324	0.127755	-0.120117	0.782959	-0.000488	0.607918	-0.651238	-0.076768	-0.447695
21913		6.322224	-5.306043	0.983344	-0.189950	0.021661	0.029336	-0.113281	0.777100	0.005859	0.606952	-0.652190	-0.075643	-0.447811
21914		6.553632	-5.417675	0.735170	-0.230404	-0.005765	-0.099067	-0.112305	0.785889	0.006348	0.605267	-0.653366	-0.075206	-0.448451
21915		6.515564	-5.607178	0.497903	-0.260160	-0.067089	-0.214035	-0.123535	0.782227	0.012695	0.602947	-0.654845	-0.075595	-0.449352
21916		6.678019	-5.892495	0.297891	-0.277435	-0.145764	-0.312549	-0.125000	0.791016	0.017334	0.600107	-0.656638	-0.076854	-0.450324
21917		6.880240	-5.926622	0.309021	-0.298540	-0.196268	-0.392778	-0.128906	0.781738	0.020752	0.596806	-0.658664	-0.078726	-0.451426
21918		6.927254	-5.861723	0.342305	-0.329916	-0.228412	-0.467470	-0.131836	0.780762	0.034424	0.593017	-0.660905	-0.081051	-0.452732
21919		6.985205	-5.772432	0.458289	-0.356290	-0.256028	-0.537534	-0.143799	0.773438	0.030029	0.588780	-0.663314	-0.083799	-0.454236
21920		7.128017	-5.653380	0.528998	-0.380436	-0.297982	-0.602728	-0.153320	0.778076	0.047119	0.584111	-0.665931	-0.087020	-0.455827
21921		7.489342	-5.641898	0.659594	-0.403156	-0.303436	-0.661751	-0.171143	0.775146	0.043457	0.579061	-0.668607	-0.090507	-0.457671
21922		7.604118	-5.810154	0.880793	-0.496003	-0.276694	-0.717384	-0.178467	0.768555	0.052490	0.573269	-0.671552	-0.093820	-0.459977
21923		7.327711	-5.911138	0.810275	-0.622972	-0.263213	-0.765143	-0.188232	0.777588	0.066406	0.566556	-0.674970	-0.096844	-0.462657
21924		7.837539	-5.949473	0.635069	-0.681680	-0.274770	-0.807952	-0.195801	0.773926	0.082764	0.559294	-0.678623	-0.099930	-0.465484
21925		7.993661	-5.984184	0.459665	-0.743551	-0.261138	-0.827451	-0.218750	0.764648	0.098389	0.551568	-0.682435	-0.102816	-0.468491
21926		7.973035	-6.010174	0.414722	-0.758356	-0.249700	-0.818057	-0.220459	0.754883	0.103760	0.543753	-0.686217	-0.105530	-0.471490
21927		7.884146	-6.146555	0.319006	-0.736270	-0.252974	-0.839814	-0.237061	0.743164	0.115479	0.535926	-0.689829	-0.108462	-0.474505
21928		7.862420	-6.246992	0.225256	-0.707346	-0.273659	-0.875744	-0.253174	0.749268	0.126221	0.528054	-0.693298	-0.111797	-0.477492
21929		7.980654	-6.314089	0.149582	-0.666770	-0.272890	-0.886914	-0.253906	0.738525	0.136475	0.520324	-0.696511	-0.115345	-0.480450
21930		7.979842	-6.305845	0.284694	-0.643924	-0.277309	-0.863439	-0.263184	0.730225	0.157715	0.512769	-0.699603	-0.118854	-0.483216
21931		8.137258	-6.215075	0.521078	-0.624130	-0.290044	-0.850517	-0.274414	0.722656	0.165527	0.505315	-0.702620	-0.122399	-0.485800
21932		8.701646	-6.723274	0.393874	-0.654055	-0.252996	-0.852188	-0.299805	0.718994	0.173340	0.497679	-0.705548	-0.125674	-0.488594
21933		7.945823	-6.749199	0.025778	-0.706574	-0.118016	-0.793240	-0.297607	0.710693	0.175293	0.490079	-0.708142	-0.127832	-0.491952
21934		8.018044	-6.452872	-0.050674	-0.612945	-0.108719	-0.748653	-0.300537	0.709717	0.193115	0.483206	-0.710308	-0.130071	-0.495031
21935		8.129137	-6.143340	0.067365	-0.454825	-0.193047	-0.710605	-0.313965	0.703125	0.205566	0.477281	-0.712199	-0.133026	-0.497271
21936		8.417241	-6.048548	0.233559	-0.377133	-0.241180	-0.662391	-0.327881	0.693359	0.209717	0.471918	-0.714005	-0.136179	-0.498944
21937		8.675950	-6.347003	0.137268	-0.388998	-0.174099	-0.615596	-0.330078	0.689453	0.221924	0.466736	-0.715595	-0.138751	-0.500829
21938		8.352903	-6.156965	0.041352	-0.415546	-0.059283	-0.543180	-0.332520	0.686523	0.218506	0.461785	-0.716883	-0.140279	-0.503146
21939		8.382690	-5.655522	0.098510	-0.390214	-0.040117	-0.491229	-0.341064	0.681152	0.226807	0.457268	-0.718012	-0.141584	-0.505291
21940		8.874799	-5.737821	-0.137638	-0.390565	-0.053591	-0.464642	-0.346680	0.670898	0.227051	0.452807	-0.719217	-0.142752	-0.507261
21941		8.312190	-5.894062	-0.549154	-0.433966	-0.024658	-0.398609	-0.354736	0.668213	0.240723	0.448408	-0.720512	-0.143260	-0.509185
21942		8.352494	-5.824830	-0.408447	-0.391128	-0.011165	-0.337377	-0.351807	0.666016	0.236816	0.444466	-0.721670	-0.143451	-0.510944
21943		8.443013	-5.704868	-0.312669	-0.294588	-0.021137	-0.296846	-0.358643	0.665527	0.239258	0.441342	-0.722527	-0.143923	-0.512307
21944		8.334128	-5.596664	-0.296066	-0.242376	0.006392	-0.253646	-0.370605	0.661377	0.259521	0.438762	-0.723106	-0.144281	-0.513603
21945		8.317647	-5.560334	-0.345161	-0.222963	0.024568	-0.216889	-0.359131	0.663086	0.253418	0.436284	-0.723639	-0.144231	-0.514977
21946		8.394925	-5.560778	-0.376373	-0.197500	0.002062	-0.178580	-0.365234	0.654053	0.256104	0.434214	-0.724197	-0.144224	-0.515943
21947		8.298932	-5.640684	-0.526907	-0.155823	-0.022183	-0.139853	-0.370117	0.656738	0.259521	0.432497	-0.724750	-0.144239	-0.516604
21948		8.206712	-5.578175	-0.782512	-0.119083	-0.026135	-0.099789	-0.372559	0.657227	0.260986	0.431168	-0.725231	-0.144185	-0.517054
21949		8.197408	-5.534941	-0.960556	-0.076920	-0.036397	-0.066801	-0.369141	0.654053	0.257324	0.430231	-0.725640	-0.144160	-0.517268
21950		8.173875	-5.430310	-1.102841	-0.018946	-0.072196	-0.046039	-0.366455	0.655029	0.256348	0.429755	-0.726000	-0.144450	-0.517077
21951		8.229123	-5.326776	-1.195810	0.072805	-0.099965	-0.035383	-0.370605	0.653809	0.259766	0.429882	-0.726159	-0.145194	-0.516540
21952		8.326026	-5.211234	-0.996323	0.152988	-0.105868	-0.029939	-0.373535	0.651611	0.260742	0.430445	-0.726076	-0.146217	-0.515899
21953		8.464834	-5.116229	-0.790856	0.175080	-0.098355	-0.030272	-0.370117	0.653320	0.255615	0.431101	-0.725887	-0.147276	-0.515316
21954		8.520514	-4.950453	-0.696928	0.157915	-0.097205	-0.033644	-0.373047	0.656494	0.262695	0.431719	-0.725727	-0.148351	-0.514714
21955		8.477545	-4.806099	-0.791156	0.139598	-0.096916	-0.038745	-0.366699	0.662109	0.257812	0.432073	-0.725676	-0.149224	-0.514237
21956		8.473459	-4.609298	-0.951503	0.075985	-0.086708	-0.044601	-0.371338	0.653564	0.257080	0.432144	-0.725783	-0.149904	-0.513828
21957		8.545279	-4.506041	-0.986506	0.033017	-0.077781	-0.053400	-0.364990	0.652832	0.266357	0.431884	-0.725983	-0.150429	-0.513610
21958		8.570589	-4.486176	-1.018680	0.005394	-0.093290	-0.071328	-0.372559	0.659424	0.257568	0.431179	-0.726427	-0.150739	-0.513485
21959		8.625327	-4.468205	-1.046564	0.000337	-0.087215	-0.092019	-0.363770	0.650146	0.258057	0.430601	-0.726721	-0.151441	-0.513347
21960		8.757284	-4.431214	-0.988203	0.048500	-0.093585	-0.127258	-0.372803	0.650146	0.263916	0.430113	-0.726860	-0.152506	-0.513244
21961		8.860571	-4.299334	-0.993678	0.082569	-0.114802	-0.170318	-0.369385	0.649658	0.254395	0.429490	-0.726938	-0.153954	-0.513223
21962		8.879356	-4.096900	-1.254373	0.019606	-0.114120	-0.206612	-0.366455	0.640869	0.267090	0.428562	-0.727109	-0.155597	-0.513260
21963		9.093088	-3.847000	-1.191033	-0.060201	-0.079541	-0.234664	-0.371338	0.646729	0.262939	0.426728	-0.727531	-0.156526	-0.513908
21964		9.256715	-3.644035	-0.999319	-0.134272	-0.037674	-0.268715	-0.377441	0.638428	0.262939	0.424539	-0.727912	-0.157409	-0.514911
21965		9.333196	-3.533944	-0.890324	-0.225338	-0.004051	-0.312353	-0.387939	0.641846	0.265869	0.421669	-0.728372	-0.158134	-0.516395
21966		9.170313	-3.511738	-0.928238	-0.331847	0.000831	-0.348570	-0.380859	0.641357	0.276855	0.418025	-0.729097	-0.158662	-0.518169
21967		8.965092	-3.590067	-1.047983	-0.449169	0.010550	-0.396859	-0.388672	0.639893	0.281494	0.413274	-0.730246	-0.158599	-0.520376
21968		8.846470	-3.666430	-1.137619	-0.536903	0.004578	-0.458546	-0.395264	0.626221	0.279053	0.407723	-0.731600	-0.158587	-0.522851
21969		8.821072	-3.569144	-1.691890	-0.565695	0.012122	-0.536318	-0.398682	0.621338	0.291260	0.401857	-0.732772	-0.159213	-0.525555
21970		8.824240	-3.298927	-1.911988	-0.566206	-0.014930	-0.609067	-0.412109	0.611572	0.292969	0.395422	-0.734028	-0.160106	-0.528403
21971		9.022884	-3.306953	-1.948544	-0.511814	-0.130077	-0.699911	-0.412109	0.611328	0.305908	0.388875	-0.735356	-0.162413	-0.530708
21972		9.111126	-3.537206	-1.934122	-0.402129	-0.228214	-0.787575	-0.429688	0.605225	0.316650	0.382278	-0.736733	-0.165722	-0.532564
21973		9.206045	-3.552122	-1.736615	-0.292006	-0.278581	-0.845361	-0.438232	0.588867	0.319336	0.375859	-0.737873	-0.169941	-0.534222
21974		9.319962	-3.332703	-1.672524	-0.204588	-0.328455	-0.895271	-0.446777	0.588135	0.319824	0.369695	-0.738799	-0.175131	-0.535566
21975		9.570960	-3.096887	-1.718446	-0.211922	-0.352622	-0.923134	-0.447510	0.562256	0.333984	0.363492	-0.739699	-0.180704	-0.536717
21976		9.755674	-2.652902	-1.698464	-0.263503	-0.341468	-0.938313	-0.447998	0.571045	0.347900	0.356477	-0.740797	-0.185680	-0.538207
21977		10.041837	-2.297721	-1.651654	-0.320776	-0.321154	-0.954996	-0.461182	0.543701	0.350586	0.348917	-0.742046	-0.190065	-0.539907
21978		10.095124	-2.313305	-1.623385	-0.358985	-0.262376	-0.965718	-0.473877	0.545898	0.354248	0.341489	-0.742853	-0.194741	-0.541877
21979		9.950131	-2.495569	-1.711183	-0.395621	-0.222069	-0.981919	-0.480225	0.537842	0.362061	0.334029	-0.743425	-0.199396	-0.544045
21980		9.798567	-2.729288	-1.779067	-0.417555	-0.167518	-0.988009	-0.488281	0.507324	0.371338	0.326520	-0.743732	-0.203858	-0.546525
21981		9.664835	-2.805251	-1.813156	-0.392332	-0.140785	-0.996799	-0.500977	0.516846	0.372803	0.319177	-0.743753	-0.208457	-0.549094
21982		9.625176	-2.872370	-1.748429	-0.322555	-0.150269	-0.986535	-0.500244	0.491211	0.378174	0.312316	-0.743580	-0.213343	-0.551391
21983		9.447273	-2.994388	-1.603786	-0.249143	-0.151487	-0.959169	-0.508057	0.486816	0.388916	0.305998	-0.743222	-0.218376	-0.553442
21984		9.276515	-3.085350	-1.589380	-0.213986	-0.151120	-0.918171	-0.522461	0.471436	0.395264	0.300072	-0.742796	-0.223304	-0.555289
21985		9.180531	-3.154684	-1.576546	-0.208498	-0.135462	-0.860723	-0.527344	0.461914	0.394287	0.294456	-0.742347	-0.227845	-0.557048
21986		9.097419	-3.272614	-1.512839	-0.192806	-0.112661	-0.790509	-0.537109	0.461670	0.402344	0.289296	-0.741849	-0.231957	-0.558716
21987		9.015063	-3.280442	-1.437856	-0.169870	-0.090288	-0.691030	-0.529297	0.439453	0.405762	0.284772	-0.741355	-0.235494	-0.560215
21988		9.019842	-3.346864	-1.328513	-0.110348	-0.063902	-0.587464	-0.544434	0.442383	0.408936	0.281143	-0.740777	-0.238595	-0.561498
21989		8.852252	-3.456100	-1.258078	-0.070322	-0.042569	-0.473455	-0.546387	0.433594	0.414307	0.278333	-0.740218	-0.241121	-0.562555
21990		8.839532	-3.375758	-1.346699	-0.057817	-0.011496	-0.355126	-0.547363	0.431152	0.406738	0.276216	-0.739714	-0.242896	-0.563498
21991		8.806887	-3.315349	-1.338437	-0.031990	-0.004247	-0.230699	-0.548584	0.422363	0.414062	0.274856	-0.739364	-0.244003	-0.564143
21992		8.802810	-3.368982	-1.269183	-0.005468	0.028949	-0.094910	-0.549316	0.414551	0.408936	0.274366	-0.739073	-0.244318	-0.564627
21993		8.845520	-3.451803	-1.141687	0.030773	0.066629	0.046387	-0.544189	0.424072	0.412598	0.274842	-0.738809	-0.243842	-0.564946
21994		8.810409	-3.578191	-1.120416	0.068775	0.106510	0.186454	-0.553223	0.426514	0.401855	0.276294	-0.738553	-0.242587	-0.565112
21995		8.839723	-3.746149	-1.161564	0.109224	0.144863	0.328781	-0.551025	0.421875	0.406250	0.278742	-0.738307	-0.240551	-0.565102
21996		8.931209	-3.819253	-1.079625	0.152197	0.160850	0.465316	-0.535400	0.428467	0.402588	0.282127	-0.738150	-0.237833	-0.564778
21997		8.831848	-3.805770	-1.064394	0.209147	0.173848	0.589002	-0.540039	0.438965	0.389160	0.286466	-0.738024	-0.234581	-0.564118
21998		8.766803	-3.834379	-1.194150	0.243991	0.185290	0.701232	-0.536621	0.452637	0.388672	0.291560	-0.737955	-0.230762	-0.563173
21999		8.793016	-3.992978	-1.291793	0.300913	0.173331	0.794852	-0.528320	0.468994	0.385986	0.297409	-0.737948	-0.226650	-0.561792
22000		8.778312	-4.233479	-1.234594	0.381327	0.157757	0.874976	-0.524902	0.481445	0.377441	0.304083	-0.737923	-0.222443	-0.559931
22001		8.766331	-4.409809	-1.296892	0.463684	0.134342	0.949317	-0.510498	0.495117	0.374512	0.311547	-0.737882	-0.218202	-0.557545
22002		8.879617	-4.482718	-1.306806	0.549180	0.111514	1.011285	-0.505127	0.507568	0.358398	0.319759	-0.737774	-0.214014	-0.554654
22003		9.110957	-4.482033	-1.359266	0.634205	0.098929	1.057715	-0.504150	0.516113	0.359131	0.328659	-0.737504	-0.209945	-0.551357
22004		9.357655	-4.322103	-1.350196	0.697038	0.112691	1.091434	-0.492920	0.528809	0.339600	0.338076	-0.736977	-0.205884	-0.547888
22005		9.590309	-4.378755	-1.281915	0.740372	0.149880	1.114749	-0.471436	0.540771	0.333496	0.347905	-0.736101	-0.201757	-0.544437
22006		9.680319	-4.388774	-1.242026	0.781808	0.167908	1.149683	-0.459473	0.553467	0.332520	0.358134	-0.734989	-0.197524	-0.540846
22007		9.946978	-4.341335	-1.173099	0.838309	0.182798	1.187085	-0.453857	0.576172	0.315918	0.368840	-0.733605	-0.193230	-0.537069
22008		10.145060	-4.521185	-1.241840	0.898547	0.226190	1.219698	-0.449951	0.587891	0.297607	0.380107	-0.731762	-0.188874	-0.533264
22009		10.197588	-4.704807	-1.245981	0.962619	0.269756	1.245317	-0.432373	0.608643	0.279053	0.391890	-0.729423	-0.184488	-0.529461
22010		10.335916	-4.660722	-1.059439	1.057127	0.295844	1.279434	-0.417725	0.606689	0.267822	0.404418	-0.726560	-0.180238	-0.525425
22011		10.478688	-4.717975	-0.761529	1.103579	0.324832	1.319123	-0.406006	0.634033	0.245605	0.417295	-0.723344	-0.175754	-0.521296
22012		10.356283	-4.918789	-0.793747	1.095554	0.400646	1.375365	-0.385742	0.651123	0.222656	0.430480	-0.719714	-0.170688	-0.517267
22013		10.192753	-5.058192	-0.893210	1.051321	0.424629	1.430529	-0.373779	0.663330	0.221680	0.443606	-0.716044	-0.165005	-0.513096
22014		9.515248	-5.059196	-0.976544	1.022326	0.434890	1.460714	-0.357910	0.675781	0.186279	0.456499	-0.712353	-0.158849	-0.508851
22015		9.436056	-5.033618	-0.854897	1.005464	0.448405	1.467066	-0.333984	0.687012	0.183594	0.469235	-0.708498	-0.152509	-0.504569
22016		9.136826	-4.883873	-0.530621	0.998268	0.455866	1.466158	-0.318848	0.700439	0.155518	0.481771	-0.704497	-0.146024	-0.500257
22017		9.107117	-5.053424	-0.309404	0.992826	0.467801	1.435111	-0.299805	0.712646	0.135742	0.494051	-0.700264	-0.139626	-0.496033
22018		8.872050	-5.308588	-0.222806	0.989204	0.481300	1.415396	-0.281982	0.720459	0.121582	0.506129	-0.695808	-0.133240	-0.491866
22019		8.646160	-5.418309	-0.279553	0.995340	0.489465	1.393654	-0.272217	0.736084	0.110596	0.518049	-0.691114	-0.126943	-0.487722
22020		8.381898	-5.399774	-0.136477	1.016354	0.488514	1.380361	-0.250488	0.741699	0.092773	0.529920	-0.686164	-0.120788	-0.483502
22021		8.267938	-5.228933	-0.017456	1.029484	0.495159	1.338519	-0.234863	0.752197	0.075928	0.541588	-0.680937	-0.114872	-0.479387
22022		8.121694	-5.051711	0.085198	1.011293	0.466980	1.275942	-0.217285	0.754639	0.054688	0.552763	-0.675702	-0.109346	-0.475313
22023		8.264374	-4.958402	0.183833	0.926647	0.458057	1.206461	-0.200928	0.757080	0.047363	0.563074	-0.670702	-0.103900	-0.471498
22024		7.980730	-4.872054	0.337145	0.792881	0.467606	1.141989	-0.182617	0.763428	0.028320	0.572300	-0.666127	-0.098233	-0.468079
22025		7.853508	-4.893993	0.398576	0.625480	0.453078	1.080741	-0.165039	0.774902	0.013916	0.580267	-0.662265	-0.092313	-0.464944
22026		7.679762	-4.963064	0.310180	0.458820	0.441052	1.016626	-0.153564	0.776611	0.004639	0.586991	-0.659132	-0.086153	-0.462130
22027		7.358750	-5.109028	0.329895	0.281857	0.423154	0.947110	-0.140625	0.779053	0.002197	0.592409	-0.656823	-0.079779	-0.459642
22028		6.929521	-5.271362	0.403061	0.146746	0.412126	0.852332	-0.129150	0.781982	-0.010742	0.596672	-0.655114	-0.073458	-0.457617
22029		6.335293	-5.193585	0.440061	0.085703	0.397369	0.769671	-0.114014	0.781494	-0.007568	0.600241	-0.653675	-0.067429	-0.455932
22030		6.253949	-5.053081	0.582763	0.042232	0.272737	0.667230	-0.098145	0.783936	-0.008301	0.603086	-0.652840	-0.062416	-0.454083
22031		6.463166	-5.293657	0.417791	-0.049666	0.143188	0.533837	-0.100830	0.787354	-0.017334	0.604841	-0.652868	-0.058433	-0.452234
22032		6.519884	-5.628929	0.288356	-0.140222	0.075468	0.398503	-0.085693	0.785645	-0.007812	0.605549	-0.653532	-0.055188	-0.450734
22033		6.557795	-5.880282	0.321774	-0.198840	0.048326	0.259389	-0.087646	0.788574	-0.000732	0.605394	-0.654524	-0.052621	-0.449809
22034		6.402683	-6.078025	0.295467	-0.228805	0.013401	0.127837	-0.081299	0.782715	0.006836	0.604563	-0.655736	-0.050837	-0.449366
22035		6.270545	-6.195828	0.194132	-0.230282	-0.010655	0.012011	-0.085938	0.785889	-0.003662	0.603276	-0.656995	-0.049803	-0.449372
22036		6.223672	-6.192455	0.124923	-0.214179	-0.049304	-0.098733	-0.086182	0.796631	0.005615	0.601642	-0.658271	-0.049633	-0.449714
22037		6.371720	-6.228594	0.058403	-0.205099	-0.076760	-0.198993	-0.088867	0.788818	0.014404	0.599668	-0.659560	-0.050185	-0.450401
22038		6.479273	-6.336170	0.048432	-0.211454	-0.139244	-0.293071	-0.096924	0.785400	0.015869	0.597273	-0.661072	-0.051544	-0.451212
22039		6.946477	-6.700512	-0.063779	-0.198152	-0.195491	-0.396912	-0.101807	0.788086	0.010986	0.594527	-0.662678	-0.053807	-0.452217
22040		7.634153	-7.173071	-0.150912	-0.173055	-0.215333	-0.522310	-0.106201	0.786621	0.020752	0.591426	-0.664166	-0.056956	-0.453713
22041		7.159001	-7.329550	-0.025432	-0.187330	-0.178069	-0.642562	-0.119385	0.772949	0.022705	0.587790	-0.665509	-0.060534	-0.455999
22042		6.259208	-7.125441	0.605927	-0.206064	-0.215415	-0.691038	-0.123779	0.789307	0.028564	0.583826	-0.667040	-0.064491	-0.458309
22043		5.620173	-6.698699	0.530093	-0.282235	-0.279848	-0.658912	-0.137939	0.785156	0.035400	0.579502	-0.669178	-0.068289	-0.460125
22044		6.033821	-5.960344	0.049218	-0.352416	-0.304439	-0.651535	-0.141357	0.773438	0.034912	0.574776	-0.671726	-0.071891	-0.461789
22045		6.799952	-5.321928	0.404606	-0.290759	-0.413589	-0.718230	-0.152832	0.769531	0.050781	0.570045	-0.674326	-0.076625	-0.463100
22046		7.181026	-5.050309	1.267089	-0.231199	-0.479407	-0.758385	-0.178955	0.770996	0.046387	0.565418	-0.676835	-0.082124	-0.464168
22047		8.148373	-5.403874	1.452555	-0.348731	-0.473115	-0.798206	-0.179199	0.771240	0.068359	0.559943	-0.679802	-0.087360	-0.465511
22048		7.736487	-5.492052	1.198813	-0.591172	-0.304059	-0.791331	-0.179199	0.763672	0.069580	0.553204	-0.683200	-0.090825	-0.467925
22049		7.806872	-5.454405	0.631587	-0.783068	-0.171041	-0.815749	-0.204346	0.754150	0.082764	0.545332	-0.686888	-0.093061	-0.471315
22050		7.953225	-5.747338	0.048890	-0.878124	-0.137658	-0.874693	-0.210205	0.753418	0.091309	0.536655	-0.690761	-0.095102	-0.475191
22051		8.200303	-6.146129	-0.057129	-0.904011	-0.176611	-0.885073	-0.223389	0.747070	0.118408	0.527696	-0.694819	-0.097266	-0.478855
22052		8.530022	-6.725335	-0.192235	-0.851346	-0.182718	-0.846221	-0.235352	0.742920	0.123047	0.519133	-0.698626	-0.099431	-0.482220
22053		7.973684	-6.711034	-0.023054	-0.740930	-0.175425	-0.763371	-0.245850	0.736084	0.135498	0.511504	-0.701930	-0.101519	-0.485130
22054		8.255144	-6.351873	0.391545	-0.613728	-0.257994	-0.715060	-0.252930	0.733887	0.138916	0.504706	-0.705015	-0.104181	-0.487209
22055		8.517439	-6.277941	0.339058	-0.586592	-0.285534	-0.708848	-0.261475	0.733398	0.153076	0.498037	-0.708055	-0.107027	-0.489042
22056		8.422366	-6.371338	0.249563	-0.679454	-0.236384	-0.674264	-0.271729	0.726807	0.164551	0.490970	-0.711264	-0.109076	-0.491075
22057		8.352780	-6.462537	0.123819	-0.736623	-0.159762	-0.609080	-0.285889	0.722168	0.174072	0.483866	-0.714404	-0.110183	-0.493316
22058		8.198814	-6.428516	0.330743	-0.676375	-0.140493	-0.542579	-0.284912	0.714844	0.192627	0.477384	-0.717239	-0.111059	-0.495317
22059		8.251237	-6.542078	0.313387	-0.600988	-0.165268	-0.496888	-0.295654	0.710938	0.188721	0.471482	-0.719887	-0.112043	-0.496904
22060		7.953561	-6.694413	0.159792	-0.559447	-0.139317	-0.440081	-0.303223	0.702148	0.207031	0.466096	-0.722278	-0.112789	-0.498346
22061		8.014963	-6.944463	-0.168345	-0.501301	-0.111631	-0.387905	-0.306396	0.703613	0.203369	0.461254	-0.724362	-0.113305	-0.499706
22062		7.706246	-6.834878	-0.331993	-0.409798	-0.123170	-0.329261	-0.305176	0.695312	0.223145	0.457227	-0.726167	-0.113938	-0.500642
22063		7.784521	-6.755975	-0.407707	-0.300746	-0.148216	-0.286408	-0.309570	0.692871	0.229492	0.453951	-0.727710	-0.114778	-0.501192
22064		7.828467	-6.558729	-0.354480	-0.197284	-0.151754	-0.235541	-0.305664	0.697754	0.232666	0.451504	-0.728916	-0.115748	-0.501426
22065		7.914815	-6.381194	-0.244648	-0.114612	-0.135540	-0.190492	-0.311523	0.696289	0.231445	0.449776	-0.729782	-0.116735	-0.501490
22066		7.985897	-6.267453	-0.140447	-0.058135	-0.131154	-0.147968	-0.312256	0.696289	0.232178	0.448591	-0.730448	-0.117714	-0.501354
22067		8.046560	-6.206367	-0.191118	-0.030289	-0.101717	-0.106086	-0.308838	0.687500	0.234863	0.447789	-0.730923	-0.118451	-0.501205
22068		7.982497	-6.068351	-0.302609	-0.018531	-0.063919	-0.058996	-0.322754	0.688721	0.233643	0.447263	-0.731252	-0.118768	-0.501120
22069		7.961408	-5.958612	-0.438847	-0.011607	-0.044675	-0.027821	-0.318604	0.678711	0.230957	0.446942	-0.731490	-0.118892	-0.501029
22070		7.928931	-5.929441	-0.612035	0.027228	-0.038117	-0.011634	-0.321045	0.695312	0.234131	0.446932	-0.731571	-0.119053	-0.500880
22071		7.915529	-5.906424	-0.810825	0.043053	-0.034397	0.003493	-0.313965	0.687012	0.236816	0.447113	-0.731590	-0.119198	-0.500658
22072		8.033909	-5.852506	-0.879336	0.052269	-0.027199	0.019922	-0.322754	0.690430	0.235352	0.447369	-0.731582	-0.119169	-0.500447
22073		8.120604	-5.721076	-0.931137	0.077347	0.009204	0.037372	-0.321289	0.692871	0.230225	0.447907	-0.731331	-0.119047	-0.500362
22074		8.138633	-5.564997	-0.919210	0.106512	0.013638	0.043653	-0.321289	0.692627	0.236328	0.448715	-0.730941	-0.119070	-0.500203
22075		8.128853	-5.435153	-0.944297	0.125425	0.013292	0.032625	-0.316895	0.691406	0.230957	0.449494	-0.730501	-0.119110	-0.500136
22076		8.198948	-5.238533	-1.046446	0.159154	0.010009	0.009419	-0.308350	0.686279	0.235840	0.450429	-0.729912	-0.119504	-0.500061
22077		8.182509	-5.042036	-1.027237	0.173792	-0.009920	-0.022925	-0.312012	0.687256	0.221191	0.451182	-0.729366	-0.120054	-0.500047
22078		8.235102	-4.847020	-1.110504	0.167668	-0.021583	-0.060764	-0.312744	0.692383	0.218994	0.451927	-0.728780	-0.121138	-0.499967
22079		8.320406	-4.726618	-1.211899	0.138412	-0.074109	-0.107799	-0.314209	0.692627	0.214355	0.452278	-0.728466	-0.122621	-0.499746
22080		8.501247	-4.559175	-1.356767	0.098743	-0.091461	-0.149975	-0.317139	0.689209	0.220215	0.452251	-0.728308	-0.124345	-0.499575
22081		8.629917	-4.409177	-1.283109	0.039845	-0.082901	-0.187947	-0.319580	0.692383	0.226562	0.451577	-0.728337	-0.125844	-0.499767
22082		8.772230	-4.396084	-1.124456	0.004000	-0.068392	-0.224162	-0.319336	0.691162	0.224365	0.450472	-0.728430	-0.127253	-0.500271
22083		8.824774	-4.222543	-1.024355	-0.055338	-0.045584	-0.250693	-0.322266	0.686035	0.216309	0.448974	-0.728605	-0.128557	-0.501029
22084		8.800220	-3.830843	-1.069562	-0.176131	-0.022032	-0.285506	-0.326904	0.686523	0.226562	0.446761	-0.729037	-0.129684	-0.502088
22085		8.879688	-3.626371	-1.077535	-0.315820	0.005370	-0.329704	-0.330078	0.683350	0.229736	0.443401	-0.729866	-0.130208	-0.503723
22086		9.005454	-3.678118	-0.901740	-0.442442	0.011675	-0.386398	-0.337891	0.683105	0.226562	0.439043	-0.731057	-0.130538	-0.505723
22087		9.046145	-3.720876	-1.031097	-0.556133	0.044678	-0.443596	-0.345459	0.674805	0.246338	0.433977	-0.732365	-0.130896	-0.508107
22088		8.999591	-3.623364	-1.262422	-0.694535	0.091666	-0.494747	-0.347412	0.662109	0.252930	0.427536	-0.733997	-0.130360	-0.511338
22089		8.875783	-3.724109	-1.584810	-0.825080	0.102011	-0.565190	-0.363525	0.666504	0.253906	0.419923	-0.735948	-0.129577	-0.515029
22090		8.776896	-3.991336	-1.862359	-0.852896	0.051339	-0.656878	-0.367920	0.651611	0.269043	0.411955	-0.737945	-0.129823	-0.518533
22091		8.491968	-4.114317	-2.125473	-0.790842	-0.029657	-0.758364	-0.373779	0.649414	0.287354	0.403574	-0.739987	-0.130919	-0.521927
22092		8.575070	-4.100523	-2.287914	-0.693636	-0.105876	-0.850481	-0.376465	0.636230	0.294922	0.395145	-0.741933	-0.133059	-0.525062
22093		9.005924	-4.330716	-1.996619	-0.483078	-0.143701	-0.920754	-0.393799	0.626709	0.303223	0.387602	-0.743237	-0.136609	-0.527921
22094		9.247641	-4.627904	-1.554486	-0.306811	-0.146519	-0.949294	-0.396240	0.619873	0.306641	0.380897	-0.743907	-0.141038	-0.530686
22095		9.250461	-4.698969	-1.134396	-0.185669	-0.142076	-0.973714	-0.413330	0.609131	0.310303	0.374861	-0.744102	-0.146156	-0.533320
22096		9.210425	-4.344941	-1.100377	-0.175769	-0.088072	-0.989139	-0.423584	0.592529	0.319092	0.368799	-0.743950	-0.151220	-0.536338
22097		9.484180	-3.767106	-1.088227	-0.220416	-0.076817	-1.007266	-0.438965	0.583984	0.319336	0.362102	-0.743894	-0.155860	-0.539640
22098		9.814236	-3.584566	-1.277610	-0.277062	-0.075971	-1.024866	-0.442627	0.579590	0.321777	0.355098	-0.743860	-0.160575	-0.542949
22099		9.710383	-3.670692	-1.463060	-0.301897	-0.065245	-1.022690	-0.449463	0.564209	0.331543	0.348039	-0.743791	-0.165189	-0.546220
22100		9.514944	-3.933232	-1.299838	-0.307193	-0.046743	-1.006049	-0.462646	0.560059	0.329834	0.340882	-0.743678	-0.169443	-0.549574
22101		9.252253	-4.085286	-1.355075	-0.323951	-0.014785	-0.986264	-0.476074	0.549805	0.330811	0.334010	-0.743337	-0.173729	-0.552907
22102		9.183944	-3.903579	-1.386718	-0.297886	-0.042016	-0.965466	-0.486084	0.532959	0.344238	0.327455	-0.742974	-0.178229	-0.555875
22103		9.171798	-3.791794	-1.346204	-0.270217	-0.090411	-0.926207	-0.493652	0.519287	0.345703	0.321009	-0.742829	-0.182552	-0.558419
22104		9.061863	-3.972790	-1.236702	-0.249362	-0.107996	-0.860110	-0.491699	0.528320	0.347412	0.315127	-0.742713	-0.186778	-0.560523
22105		8.916841	-4.063273	-1.107977	-0.216658	-0.088049	-0.776186	-0.501953	0.512207	0.359131	0.309926	-0.742504	-0.190609	-0.562407
22106		8.781170	-4.028508	-0.994198	-0.193915	-0.057058	-0.688005	-0.506348	0.491211	0.357422	0.305287	-0.742204	-0.193897	-0.564213
22107		8.634516	-3.987649	-1.113372	-0.161383	-0.035873	-0.570702	-0.513184	0.499268	0.360107	0.301451	-0.741878	-0.196580	-0.565774
22108		8.672312	-3.944345	-1.056183	-0.120074	-0.002401	-0.426655	-0.516846	0.497803	0.363770	0.298616	-0.741509	-0.198489	-0.567093
22109		8.650972	-3.975104	-1.110793	-0.077697	0.023351	-0.274673	-0.524170	0.487793	0.364990	0.296801	-0.741158	-0.199588	-0.568119
22110		8.502171	-4.005612	-1.173887	-0.053231	0.051385	-0.129284	-0.524902	0.491455	0.364014	0.295863	-0.740854	-0.199825	-0.568920
22111		8.539685	-4.055377	-1.153690	0.002951	0.058304	0.006626	-0.518799	0.480957	0.364990	0.295937	-0.740604	-0.199474	-0.569331
22112		8.620232	-4.089663	-1.186552	0.085552	0.068833	0.142258	-0.513672	0.488770	0.362061	0.297176	-0.740327	-0.198643	-0.569336
22113		8.546876	-4.135733	-1.242422	0.142198	0.063570	0.269364	-0.520264	0.492432	0.356689	0.299366	-0.740140	-0.197313	-0.568894
22114		8.626935	-4.340938	-1.308523	0.212741	0.046020	0.381079	-0.520752	0.495117	0.356934	0.302487	-0.740036	-0.195663	-0.567947
22115		8.655855	-4.552394	-1.144509	0.317367	0.028349	0.487107	-0.508301	0.501465	0.350830	0.306719	-0.739913	-0.193888	-0.566444
22116		8.656250	-4.699695	-0.987989	0.408353	0.034030	0.599684	-0.514160	0.515625	0.343262	0.312051	-0.739690	-0.191831	-0.564520
22117		8.659194	-4.836600	-0.910005	0.459041	0.054045	0.726564	-0.509521	0.516602	0.334717	0.318316	-0.739408	-0.189169	-0.562286
22118		8.602136	-5.053869	-0.875982	0.494184	0.067045	0.846331	-0.500977	0.522705	0.337402	0.325352	-0.739119	-0.185876	-0.559731
22119		8.473783	-5.283822	-0.931815	0.538097	0.068369	0.954833	-0.485840	0.540283	0.325684	0.333136	-0.738822	-0.182090	-0.556782
22120		8.498934	-5.399291	-1.009227	0.588687	0.056775	1.043589	-0.469971	0.555176	0.316162	0.341620	-0.738498	-0.178025	-0.553375
22121		8.874271	-5.334495	-1.080002	0.655477	0.072889	1.106214	-0.464355	0.568848	0.304199	0.350803	-0.737920	-0.173823	-0.549724
22122		9.260847	-5.182202	-1.102447	0.721989	0.116645	1.151912	-0.449219	0.583984	0.308838	0.360630	-0.736919	-0.169500	-0.546046
22123		9.718905	-4.997902	-0.891447	0.831140	0.145582	1.187955	-0.443604	0.587402	0.290771	0.371267	-0.735418	-0.165320	-0.542209
22124		10.082247	-4.899463	-0.540850	0.928783	0.191984	1.211769	-0.437500	0.604004	0.272461	0.382607	-0.733316	-0.161258	-0.538382
22125		10.220387	-5.190553	-0.446292	0.951923	0.279436	1.228232	-0.411865	0.625244	0.255859	0.394247	-0.730630	-0.156929	-0.534904
22126		10.186186	-5.428119	-0.602435	0.964220	0.417392	1.263436	-0.396240	0.641846	0.238770	0.406295	-0.727190	-0.152021	-0.531985
22127		10.220780	-5.368654	-0.634982	1.035675	0.496714	1.314033	-0.392578	0.651855	0.230469	0.419056	-0.723066	-0.146861	-0.529150
22128		10.278665	-5.310429	-0.524601	1.132803	0.517527	1.367197	-0.375488	0.656006	0.204102	0.432507	-0.718426	-0.141644	-0.526059
22129		10.326311	-5.539718	-0.656327	1.170034	0.527329	1.429707	-0.357910	0.674805	0.178467	0.446373	-0.713494	-0.136163	-0.522625
22130		9.889059	-5.700370	-0.642444	1.176578	0.527868	1.508635	-0.343994	0.695068	0.156006	0.460558	-0.708420	-0.130264	-0.518708
22131		9.562272	-5.713144	-0.505966	1.186673	0.494814	1.553544	-0.318115	0.704590	0.146973	0.474765	-0.703326	-0.124165	-0.514310
22132		9.487146	-5.714739	-0.333126	1.163093	0.407152	1.549566	-0.297363	0.718994	0.127686	0.488526	-0.698525	-0.118224	-0.509341
22133		9.309560	-5.896338	-0.124095	1.087278	0.295536	1.540781	-0.287109	0.728027	0.106201	0.501567	-0.694313	-0.112437	-0.503704
22134		9.074656	-5.714305	-0.186350	1.076700	0.219732	1.538354	-0.266113	0.736328	0.087891	0.514338	-0.690286	-0.106910	-0.497525
22135		8.931248	-5.396286	-0.218430	1.170163	0.361549	1.531120	-0.246338	0.756348	0.075684	0.527610	-0.685086	-0.101178	-0.491984
22136		8.708172	-5.188290	-0.023917	1.231790	0.446839	1.463940	-0.226074	0.750488	0.053223	0.540888	-0.679025	-0.095683	-0.487042
22137		8.671575	-5.325436	0.285079	1.177510	0.532224	1.363991	-0.205811	0.756104	0.036133	0.553382	-0.672607	-0.090128	-0.482954
22138		7.993345	-5.504280	0.198740	1.054858	0.626001	1.296208	-0.190918	0.766602	0.008301	0.564857	-0.666170	-0.084010	-0.479684
22139		7.573829	-5.392348	0.158554	0.935354	0.639353	1.257866	-0.171387	0.769531	-0.003174	0.575405	-0.660074	-0.077551	-0.476652
22140		7.457618	-5.257091	0.422213	0.844757	0.597775	1.201484	-0.149902	0.775146	-0.024414	0.585095	-0.654418	-0.071230	-0.473631
22141		7.450112	-5.212809	0.534544	0.789829	0.501483	1.143240	-0.146484	0.772949	-0.027100	0.594102	-0.649269	-0.065472	-0.470325
22142		7.292411	-5.274085	0.771259	0.751295	0.441996	1.081154	-0.117432	0.783936	-0.040527	0.602540	-0.644417	-0.060187	-0.466958
22143		6.916598	-5.395864	0.880380	0.641301	0.438313	1.021047	-0.104004	0.784180	-0.060547	0.610075	-0.640022	-0.054812	-0.463870
22144		6.715176	-5.507967	1.302546	0.418848	0.433063	0.941359	-0.091309	0.786621	-0.063721	0.616052	-0.636677	-0.049027	-0.461214
22145		6.846370	-5.481930	1.211808	0.131594	0.363243	0.823086	-0.084473	0.790283	-0.066650	0.619976	-0.634981	-0.043123	-0.458878
22146		6.662610	-5.270744	1.111403	-0.114151	0.361890	0.671670	-0.061035	0.791748	-0.064941	0.621988	-0.634473	-0.037089	-0.457383
22147		6.387685	-5.159163	0.994112	-0.215780	0.324674	0.491405	-0.052734	0.793457	-0.063232	0.622742	-0.634556	-0.031816	-0.456639
22148		6.149302	-5.739344	0.793805	-0.200200	0.216202	0.346190	-0.058105	0.791260	-0.060547	0.622982	-0.634918	-0.027935	-0.456061
22149		5.876507	-6.433625	0.706669	-0.131135	0.147115	0.299854	-0.049805	0.794678	-0.061768	0.623387	-0.635167	-0.024923	-0.455335
22150		5.691569	-6.555446	0.802733	-0.086191	0.088430	0.254987	-0.048584	0.796875	-0.061523	0.623842	-0.635392	-0.022625	-0.454517
22151		5.568507	-6.367614	0.956627	-0.039784	0.028177	0.189077	-0.048096	0.790283	-0.055420	0.624278	-0.635590	-0.021166	-0.453712
22152		5.685356	-6.161866	1.101478	0.016422	-0.035564	0.078088	-0.038574	0.794922	-0.061523	0.624579	-0.635716	-0.020840	-0.453135
22153		5.612775	-6.112406	1.078728	0.041071	-0.072845	-0.050495	-0.047119	0.794189	-0.063965	0.624518	-0.635833	-0.021484	-0.453025
22154		5.598667	-5.919865	1.098735	0.022947	-0.124019	-0.159933	-0.048584	0.798828	-0.066650	0.623937	-0.636218	-0.022907	-0.453216
22155		5.989047	-5.773167	1.100894	-0.080294	-0.166806	-0.288343	-0.049805	0.800049	-0.053711	0.622312	-0.637274	-0.024845	-0.453864
22156		6.606778	-6.150228	1.042239	-0.229113	-0.184666	-0.454353	-0.059570	0.806885	-0.054688	0.619255	-0.639127	-0.027196	-0.455303
22157		6.148066	-6.218513	0.964461	-0.330277	-0.169693	-0.564539	-0.066406	0.797119	-0.048828	0.615228	-0.641404	-0.029675	-0.457400
22158		6.351084	-6.146287	0.895905	-0.426813	-0.217994	-0.642537	-0.076904	0.782715	-0.037842	0.610352	-0.644316	-0.032450	-0.459646
22159		6.522559	-6.110513	0.626075	-0.459220	-0.256852	-0.719011	-0.084473	0.789795	-0.029541	0.604966	-0.647491	-0.035710	-0.462056
22160		6.669302	-6.109851	0.626823	-0.473591	-0.280205	-0.778783	-0.094727	0.787354	-0.028564	0.599230	-0.650772	-0.039355	-0.464619
22161		6.790001	-6.145592	0.763587	-0.506653	-0.313427	-0.831383	-0.109375	0.791016	-0.023193	0.593057	-0.654287	-0.043321	-0.467242
22162		6.897585	-6.259693	0.823362	-0.524121	-0.296691	-0.894293	-0.125488	0.785645	-0.004883	0.586504	-0.657750	-0.047479	-0.470238
22163		7.000974	-6.357048	0.806037	-0.551860	-0.297060	-0.951406	-0.138428	0.782959	-0.004639	0.579525	-0.661271	-0.051840	-0.473481
22164		6.959850	-6.435797	0.836303	-0.612260	-0.345409	-1.000939	-0.157227	0.774902	0.010254	0.571939	-0.665189	-0.056465	-0.476677
22165		7.112950	-6.510464	0.777825	-0.664430	-0.378783	-1.033276	-0.167236	0.784668	0.028320	0.563856	-0.669401	-0.061216	-0.479814
22166		7.510012	-6.441253	0.877730	-0.668152	-0.414004	-1.040884	-0.176758	0.772461	0.036133	0.555638	-0.673689	-0.066153	-0.482736
22167		7.710088	-6.487974	0.673711	-0.669777	-0.422241	-1.031392	-0.199463	0.761963	0.048828	0.547378	-0.677942	-0.071062	-0.485511
22168		7.746297	-6.237010	0.842481	-0.591763	-0.410384	-0.997836	-0.197021	0.760986	0.062256	0.539641	-0.681736	-0.076035	-0.488101
22169		8.170439	-6.126761	0.975180	-0.581593	-0.431612	-0.977080	-0.221191	0.760498	0.069092	0.531975	-0.685513	-0.081020	-0.490419
22170		8.199443	-6.325726	0.820143	-0.702298	-0.374940	-0.939656	-0.237549	0.748291	0.069824	0.523756	-0.689546	-0.085039	-0.492925
22171		7.975634	-6.399015	0.425505	-0.812708	-0.307781	-0.893812	-0.243652	0.747070	0.093506	0.515082	-0.693742	-0.088041	-0.495642
22172		8.106393	-6.340893	0.590132	-0.807363	-0.338498	-0.849485	-0.252441	0.741943	0.114990	0.506542	-0.698001	-0.090926	-0.497938
22173		8.494173	-6.489390	0.495300	-0.801305	-0.318192	-0.796772	-0.266846	0.728760	0.125244	0.498218	-0.702120	-0.093431	-0.500077
22174		8.403674	-6.531938	0.398786	-0.828846	-0.249612	-0.731005	-0.273193	0.730713	0.139648	0.490016	-0.706052	-0.095148	-0.502317
22175		8.334161	-6.720661	0.201199	-0.875732	-0.166628	-0.681880	-0.281006	0.714600	0.147217	0.481764	-0.709804	-0.096028	-0.504837
22176		7.904976	-6.786411	0.002590	-0.888591	-0.123659	-0.624306	-0.297363	0.714600	0.162354	0.473676	-0.713409	-0.096338	-0.507344
22177		7.846242	-6.802276	-0.078064	-0.796436	-0.146317	-0.569430	-0.288574	0.715088	0.165283	0.466305	-0.716736	-0.096785	-0.509394
22178		7.703257	-6.750226	-0.014963	-0.657085	-0.209042	-0.527065	-0.312012	0.706299	0.180908	0.459900	-0.719772	-0.097838	-0.510733
22179		7.823858	-6.758678	-0.003619	-0.531342	-0.252384	-0.494268	-0.313477	0.706787	0.189941	0.454293	-0.722509	-0.099351	-0.511593
22180		8.234703	-7.079553	-0.386300	-0.421819	-0.194922	-0.457851	-0.309326	0.690674	0.194824	0.449538	-0.724591	-0.100889	-0.512547
22181		7.742090	-6.793416	-0.433674	-0.339668	-0.121200	-0.374189	-0.325195	0.690430	0.208008	0.445679	-0.726107	-0.101976	-0.513557
22182		8.091073	-6.458793	-0.356660	-0.185890	-0.098276	-0.324891	-0.319092	0.697266	0.207275	0.442931	-0.726993	-0.103285	-0.514417
22183		8.096335	-6.352404	-0.347004	-0.092414	-0.111550	-0.271752	-0.320801	0.688721	0.208740	0.441010	-0.727623	-0.104769	-0.514877
22184		8.124432	-6.087146	-0.309147	-0.047747	-0.109507	-0.205903	-0.330566	0.694092	0.211914	0.439633	-0.728135	-0.106025	-0.515073
22185		8.290513	-5.759069	-0.304579	-0.051070	-0.099885	-0.147657	-0.333740	0.687744	0.211670	0.438493	-0.728666	-0.106882	-0.515118
22186		8.408925	-5.542545	-0.276761	-0.081363	-0.052429	-0.107178	-0.327637	0.686279	0.206787	0.437384	-0.729135	-0.107194	-0.515332
22187		8.406915	-5.486795	-0.273238	-0.134068	0.008054	-0.082775	-0.333496	0.683350	0.207520	0.436175	-0.729543	-0.106982	-0.515824
22188		8.422741	-5.542370	-0.379483	-0.162588	0.053910	-0.066495	-0.335938	0.684814	0.216553	0.434899	-0.729866	-0.106387	-0.516565
22189		8.288825	-5.756959	-0.505894	-0.158830	0.072342	-0.050205	-0.338135	0.688721	0.219482	0.433661	-0.730130	-0.105545	-0.517406
22190		8.212792	-5.828136	-0.829416	-0.130787	0.060908	-0.015455	-0.333252	0.686279	0.219482	0.432736	-0.730370	-0.104657	-0.518022
22191		8.130642	-5.759368	-1.016417	-0.080238	0.004537	0.018408	-0.334717	0.682861	0.220703	0.432230	-0.730699	-0.103993	-0.518114
22192		8.113331	-5.643209	-1.123333	-0.003159	-0.055776	0.033379	-0.325684	0.678467	0.223145	0.432187	-0.731026	-0.103770	-0.517733
22193		8.264153	-5.577765	-0.873470	0.049551	-0.056781	0.026173	-0.327637	0.680908	0.220459	0.432394	-0.731179	-0.103754	-0.517347
22194		8.278386	-5.493540	-0.535819	0.039856	-0.007955	0.024365	-0.330322	0.689697	0.223145	0.432625	-0.731139	-0.103600	-0.517242
22195		8.359255	-5.391767	-0.335177	0.016380	0.008986	0.027900	-0.338135	0.683350	0.222412	0.432737	-0.731116	-0.103251	-0.517250
22196		8.511488	-5.181923	-0.483384	0.017958	0.006491	0.024831	-0.332764	0.690918	0.227051	0.432812	-0.731092	-0.102924	-0.517286
22197		8.665683	-4.956499	-0.759373	0.039912	-0.006971	0.029329	-0.338867	0.685303	0.224365	0.432991	-0.731070	-0.102637	-0.517224
22198		8.647757	-4.774459	-0.926237	0.014213	-0.000260	0.038867	-0.327637	0.689209	0.231445	0.433070	-0.731107	-0.102197	-0.517193
22199		8.520260	-4.775799	-0.912259	-0.033546	0.036526	0.043776	-0.331299	0.682373	0.216309	0.432795	-0.731208	-0.101197	-0.517477
22200		8.316696	-4.840189	-0.887008	-0.102884	0.075343	0.025368	-0.335449	0.686035	0.219238	0.432342	-0.731286	-0.100289	-0.517923
22201		8.246846	-4.826642	-0.834426	-0.165346	0.105186	-0.009044	-0.333252	0.683105	0.224121	0.431352	-0.731434	-0.099179	-0.518752
22202		8.358855	-4.677713	-0.711660	-0.195697	0.095204	-0.058674	-0.336426	0.685303	0.228516	0.429864	-0.731718	-0.098151	-0.519781
