// Start Time: Unknown
// Update Rate: 60.0Hz
// Filter Profile: human (46.1)
// Firmware Version: 4.6.0
PacketCounter	SampleTimeFine	Acc_X	Acc_Y	Acc_Z	Gyr_X	Gyr_Y	Gyr_Z	Mag_X	Mag_Y	Mag_Z	Quat_q0	Quat_q1	Quat_q2	Quat_q3
58930		9.465657	2.309783	-1.060225	0.015869	0.000686	-0.019147	-0.844238	0.026123	-0.445557	0.631707	-0.067627	-0.741284	-0.216497
58931		9.480604	2.383074	-1.029047	0.012551	0.005668	-0.016268	-0.852539	0.033936	-0.440674	0.631720	-0.067450	-0.741286	-0.216508
58932		9.502860	2.398818	-1.016475	0.006510	0.002649	-0.009821	-0.856445	0.028809	-0.442871	0.631689	-0.067507	-0.741314	-0.216486
58933		9.466216	2.400826	-1.054343	0.006339	0.006290	-0.009048	-0.839844	0.034424	-0.448242	0.631701	-0.067483	-0.741307	-0.216482
58934		9.470752	2.402023	-1.097221	0.008468	0.007748	-0.007412	-0.858398	0.034180	-0.449463	0.631726	-0.067452	-0.741295	-0.216460
58935		9.479995	2.359923	-1.100436	0.010299	0.005936	-0.003174	-0.847900	0.038574	-0.439697	0.631741	-0.067472	-0.741298	-0.216397
58936		9.483224	2.398989	-1.079690	0.021920	0.011539	-0.001371	-0.848145	0.030273	-0.444092	0.631786	-0.067497	-0.741303	-0.216243
58937		9.489990	2.405493	-1.029235	0.012089	0.004913	0.002956	-0.847656	0.026123	-0.444336	0.631812	-0.067496	-0.741307	-0.216151
58938		9.517558	2.375628	-0.976545	0.014514	0.009323	0.006517	-0.848145	0.026367	-0.441406	0.631882	-0.067447	-0.741284	-0.216042
58939		9.505612	2.342567	-0.986818	0.010172	0.007986	0.007026	-0.846436	0.024170	-0.447021	0.631943	-0.067440	-0.741257	-0.215957
58940		9.508268	2.355050	-0.970966	0.001869	0.006207	0.012979	-0.849121	0.029541	-0.444580	0.632011	-0.067467	-0.741212	-0.215904
58941		9.512780	2.292487	-1.013684	-0.000814	0.007020	0.013971	-0.859619	0.035645	-0.442139	0.632076	-0.067579	-0.741162	-0.215853
58942		9.551348	2.250546	-1.037987	0.004935	0.006441	0.014659	-0.848877	0.031006	-0.443115	0.632128	-0.067752	-0.741133	-0.215745
58943		9.520269	2.170449	-1.031099	0.018222	0.004899	0.013110	-0.848633	0.037109	-0.446533	0.632190	-0.067775	-0.741127	-0.215574
58944		9.508294	2.136803	-1.042407	0.030618	0.004102	0.005102	-0.851807	0.030762	-0.448242	0.632246	-0.067736	-0.741148	-0.215354
58945		9.531233	2.114179	-1.025689	0.039866	0.004646	-0.000804	-0.851562	0.035156	-0.443115	0.632309	-0.067557	-0.741181	-0.215107
58946		9.495993	2.103952	-1.054964	0.061389	0.006754	-0.009045	-0.847412	0.032471	-0.456543	0.632365	-0.067272	-0.741263	-0.214751
58947		9.507721	2.011918	-1.113799	0.096180	0.008079	-0.016932	-0.852539	0.027344	-0.445312	0.632501	-0.066701	-0.741350	-0.214229
58948		9.507175	1.977965	-1.111461	0.159196	0.010585	-0.032675	-0.850586	0.017090	-0.447998	0.632596	-0.065699	-0.741606	-0.213371
58949		9.498196	2.102366	-1.029031	0.199791	0.013372	-0.045100	-0.850342	0.026611	-0.449707	0.632723	-0.064327	-0.741918	-0.212323
58950		9.529315	2.208857	-1.036608	0.217921	0.016187	-0.049696	-0.840088	0.027344	-0.447021	0.632892	-0.062936	-0.742225	-0.211161
58951		9.500620	2.115467	-1.161827	0.246306	0.017637	-0.051061	-0.846680	0.013428	-0.446289	0.633059	-0.061379	-0.742589	-0.209834
58952		9.471689	2.070357	-1.131603	0.319927	0.019271	-0.063794	-0.849609	0.014893	-0.447266	0.633238	-0.059279	-0.743092	-0.208110
58953		9.500243	2.182601	-1.076072	0.385752	0.022316	-0.075388	-0.853516	0.012207	-0.452637	0.633457	-0.056815	-0.743681	-0.206017
58954		9.510651	2.335879	-1.001633	0.399483	0.024627	-0.076331	-0.848145	0.021973	-0.444092	0.633725	-0.054290	-0.744240	-0.203842
58955		9.563405	2.235243	-1.061693	0.416124	0.031492	-0.070725	-0.852295	0.007080	-0.447998	0.634016	-0.051800	-0.744802	-0.201522
58956		9.491063	2.002545	-1.192988	0.483335	0.035057	-0.074140	-0.859375	-0.001465	-0.444824	0.634352	-0.048845	-0.745442	-0.198815
58957		9.466126	1.812292	-1.285413	0.594610	0.040754	-0.095581	-0.845215	0.000977	-0.450684	0.634701	-0.045174	-0.746257	-0.195485
58958		9.487771	1.903360	-1.198072	0.724453	0.047819	-0.117580	-0.843018	-0.010986	-0.454834	0.635124	-0.040661	-0.747196	-0.191476
58959		9.508403	1.913000	-1.192790	0.816142	0.049518	-0.133593	-0.854736	-0.017822	-0.446045	0.635548	-0.035510	-0.748236	-0.186976
58960		9.554213	2.056126	-1.076175	0.920288	0.054659	-0.154717	-0.841309	-0.031250	-0.449219	0.635935	-0.029767	-0.749425	-0.181832
58961		9.503623	2.214698	-1.062650	0.973864	0.053724	-0.162374	-0.843994	-0.038818	-0.448486	0.636283	-0.023544	-0.750640	-0.176431
58962		9.485278	2.259529	-1.115902	0.979332	0.057434	-0.169926	-0.845947	-0.044189	-0.443359	0.636616	-0.017283	-0.751781	-0.171018
58963		9.476008	2.050682	-1.336657	0.988080	0.062202	-0.178475	-0.845215	-0.057861	-0.453613	0.636915	-0.010966	-0.752868	-0.165556
58964		9.437966	1.847570	-1.631547	1.069471	0.064571	-0.191610	-0.840088	-0.068848	-0.448486	0.637222	-0.004104	-0.753941	-0.159701
58965		9.411689	1.883129	-1.665270	1.218049	0.066802	-0.224213	-0.845703	-0.081543	-0.446777	0.637396	0.003806	-0.755179	-0.153022
58966		9.447355	2.222538	-1.440857	1.340197	0.070734	-0.244004	-0.840088	-0.089600	-0.444336	0.637477	0.012432	-0.756482	-0.145617
58967		9.498741	2.554997	-1.247106	1.361950	0.075689	-0.242701	-0.843018	-0.111084	-0.443848	0.637511	0.021174	-0.757676	-0.138053
58968		9.438761	2.703495	-1.196569	1.303545	0.072730	-0.224822	-0.844482	-0.124756	-0.447754	0.637459	0.029542	-0.758729	-0.130782
58969		9.441524	2.589911	-1.422956	1.257985	0.070351	-0.217225	-0.841797	-0.130859	-0.441895	0.637382	0.037601	-0.759604	-0.123825
58970		9.301017	2.518759	-1.631711	1.214510	0.064059	-0.216730	-0.834229	-0.148682	-0.440674	0.637202	0.045392	-0.760391	-0.117125
58971		9.275847	2.546323	-1.738936	1.157896	0.066537	-0.219074	-0.841797	-0.158203	-0.439697	0.636961	0.053047	-0.761041	-0.110831
58972		9.302344	2.443864	-1.853129	1.128617	0.056888	-0.219050	-0.847656	-0.173096	-0.435303	0.636620	0.060415	-0.761641	-0.104728
58973		9.321739	2.460638	-1.834403	1.099850	0.055386	-0.223364	-0.830322	-0.179688	-0.436768	0.636178	0.067630	-0.762194	-0.098816
58974		9.331306	2.532656	-1.804413	1.058084	0.056872	-0.215319	-0.839111	-0.191406	-0.433105	0.635761	0.074701	-0.762591	-0.093176
58975		9.388689	2.566022	-1.816151	1.040106	0.052937	-0.211586	-0.833496	-0.206543	-0.432373	0.635260	0.081553	-0.762966	-0.087621
58976		9.382927	2.560898	-1.838662	1.023368	0.053150	-0.201655	-0.836670	-0.218750	-0.425781	0.634727	0.088358	-0.763260	-0.082153
58977		9.369135	2.678874	-1.726626	1.012405	0.058793	-0.194598	-0.838623	-0.221191	-0.416992	0.634147	0.095054	-0.763505	-0.076692
58978		9.397901	2.764314	-1.811399	1.005227	0.057480	-0.180866	-0.830811	-0.227051	-0.419922	0.633491	0.101511	-0.763753	-0.071173
58979		9.302585	2.804920	-1.899969	0.983152	0.063609	-0.160538	-0.833496	-0.242676	-0.413086	0.632935	0.107728	-0.763849	-0.065740
58980		9.290760	2.778304	-2.004879	0.984490	0.064162	-0.147181	-0.829834	-0.250000	-0.412109	0.632277	0.113935	-0.763948	-0.060226
58981		9.281630	2.820779	-1.975444	0.991350	0.054526	-0.132487	-0.827637	-0.254395	-0.415039	0.631539	0.120075	-0.764039	-0.054632
58982		9.378119	2.898637	-1.931451	0.977989	0.059508	-0.110435	-0.824219	-0.264648	-0.402100	0.630891	0.125926	-0.764011	-0.049056
58983		9.335429	2.858100	-1.955605	0.895436	0.056469	-0.077696	-0.831299	-0.271973	-0.403809	0.630178	0.131224	-0.764027	-0.043802
58984		9.319974	2.551561	-2.072414	0.847811	0.043255	-0.058657	-0.823242	-0.275146	-0.394531	0.629444	0.136050	-0.764057	-0.038812
58985		9.317567	2.514929	-2.120363	0.830445	0.049021	-0.052240	-0.830322	-0.277832	-0.391602	0.628691	0.140777	-0.764057	-0.033864
58986		9.374936	2.361087	-2.218013	0.797445	0.045570	-0.037683	-0.831299	-0.283203	-0.390625	0.627914	0.145095	-0.764085	-0.029060
58987		9.363327	2.191783	-2.171228	0.816647	0.047530	-0.042827	-0.829590	-0.295898	-0.379395	0.627115	0.149511	-0.764061	-0.024166
58988		9.362587	2.259475	-2.081585	0.803646	0.042032	-0.038410	-0.820557	-0.303223	-0.377930	0.626165	0.154012	-0.764085	-0.019271
58989		9.337116	2.379758	-2.025324	0.760479	0.041338	-0.034371	-0.822998	-0.311279	-0.375732	0.625298	0.158345	-0.764013	-0.014642
58990		9.329421	2.437857	-2.121010	0.724074	0.044575	-0.025312	-0.824707	-0.316650	-0.369629	0.624481	0.162445	-0.763892	-0.010198
58991		9.297628	2.387785	-2.160204	0.703937	0.045589	-0.018151	-0.825439	-0.311035	-0.369873	0.623632	0.166395	-0.763781	-0.005832
58992		9.310816	2.339964	-2.276283	0.699039	0.046778	-0.011715	-0.821777	-0.321289	-0.358643	0.622830	0.170003	-0.763662	-0.001517
58993		9.305355	2.421925	-2.247151	0.702063	0.049013	-0.005896	-0.825928	-0.326416	-0.364746	0.621914	0.173803	-0.763549	0.002915
58994		9.352985	2.677449	-2.196639	0.669838	0.048593	0.017301	-0.819336	-0.325928	-0.360596	0.621132	0.177200	-0.763377	0.007204
58995		9.361129	2.667953	-2.274736	0.581969	0.039092	0.051701	-0.819824	-0.328125	-0.359863	0.620424	0.179869	-0.763282	0.011069
58996		9.340882	2.622323	-2.336559	0.521732	0.049164	0.076843	-0.821533	-0.331543	-0.359375	0.619883	0.182029	-0.763148	0.014667
58997		9.361822	2.576751	-2.412423	0.454803	0.050448	0.098148	-0.831787	-0.329346	-0.353760	0.619456	0.183718	-0.763021	0.017936
58998		9.377887	2.449414	-2.435739	0.409174	0.044906	0.125065	-0.822998	-0.329346	-0.357910	0.618943	0.184866	-0.763080	0.021053
58999		9.342172	2.475551	-2.343376	0.324189	0.047993	0.140787	-0.825439	-0.338379	-0.349609	0.618711	0.185475	-0.763044	0.023656
59000		9.283604	2.382353	-2.273652	0.209618	0.049473	0.159532	-0.820801	-0.331543	-0.354492	0.618537	0.185674	-0.763070	0.025717
59001		9.256375	2.156865	-2.305824	0.101377	0.044424	0.174516	-0.827637	-0.321533	-0.351562	0.618611	0.185037	-0.763118	0.027079
59002		9.250619	1.973221	-2.318173	0.031388	0.032479	0.172485	-0.826904	-0.321533	-0.352051	0.618638	0.183821	-0.763357	0.027966
59003		9.250910	1.783717	-2.241644	-0.050799	0.033800	0.163941	-0.824707	-0.326660	-0.352783	0.618814	0.182310	-0.763565	0.028301
59004		9.290556	1.325478	-2.242076	-0.113414	0.029581	0.140492	-0.832520	-0.313721	-0.347412	0.619082	0.180860	-0.763698	0.028147
59005		9.295907	1.137730	-2.180880	-0.105509	0.031860	0.103467	-0.827148	-0.314453	-0.352539	0.619219	0.179420	-0.763935	0.027907
59006		9.272134	1.301160	-2.033722	-0.088302	0.029101	0.058521	-0.830078	-0.321289	-0.348633	0.619429	0.178420	-0.764013	0.027525
59007		9.350861	1.511134	-1.904723	-0.116411	0.026911	0.026438	-0.838379	-0.313721	-0.355957	0.619589	0.177762	-0.764059	0.026911
59008		9.394651	1.595835	-1.905575	-0.192982	0.017743	0.017081	-0.833008	-0.314697	-0.352051	0.619866	0.176450	-0.764181	0.025679
59009		9.445066	1.640117	-2.059212	-0.254958	0.013585	0.008497	-0.827148	-0.312744	-0.356445	0.620171	0.175039	-0.764311	0.024064
59010		9.448080	1.730928	-2.039318	-0.291209	0.011791	0.000531	-0.825684	-0.312744	-0.365967	0.620605	0.173472	-0.764374	0.022133
59011		9.462239	1.897447	-2.023181	-0.361620	0.009306	0.002781	-0.828857	-0.307617	-0.365234	0.621256	0.171490	-0.764359	0.019695
59012		9.438052	2.068825	-2.088709	-0.456625	0.003150	0.005439	-0.827393	-0.310303	-0.367188	0.621934	0.168933	-0.764449	0.016682
59013		9.484439	2.313517	-2.069103	-0.565450	0.008563	0.019371	-0.822266	-0.302246	-0.375244	0.622789	0.165899	-0.764487	0.013084
59014		9.460131	2.711029	-2.186010	-0.771305	0.015738	0.056992	-0.832764	-0.302490	-0.369141	0.624062	0.161389	-0.764481	0.008287
59015		9.349078	2.771068	-2.409803	-1.046599	0.011936	0.103981	-0.834473	-0.287109	-0.374023	0.625419	0.155383	-0.764659	0.002121
59016		9.357130	2.960881	-2.488320	-1.252667	-0.000816	0.138365	-0.830322	-0.281982	-0.385254	0.626889	0.147851	-0.764933	-0.005246
59017		9.327419	3.299237	-2.320253	-1.495981	-0.018706	0.195369	-0.834961	-0.264404	-0.386230	0.628569	0.138772	-0.765146	-0.013949
59018		9.301942	3.314263	-2.172674	-1.816060	-0.033495	0.247594	-0.829590	-0.259766	-0.401611	0.630300	0.127546	-0.765413	-0.024426
59019		9.344800	2.826483	-2.082388	-2.111043	-0.046858	0.295869	-0.837158	-0.228760	-0.402588	0.632256	0.114697	-0.765348	-0.036593
59020		9.435281	2.686565	-2.123218	-2.307176	-0.047365	0.323650	-0.838623	-0.206543	-0.415283	0.634044	0.100253	-0.765148	-0.049859
59021		9.412102	2.458034	-2.007838	-2.450128	-0.058040	0.344939	-0.835938	-0.190674	-0.431396	0.635703	0.084784	-0.764593	-0.063967
59022		9.542208	2.410177	-1.971060	-2.531433	-0.058933	0.357100	-0.842285	-0.160889	-0.439941	0.637284	0.068907	-0.763513	-0.078538
59023		9.499315	2.454666	-1.813613	-2.625397	-0.062225	0.381676	-0.840576	-0.141602	-0.434082	0.638595	0.052128	-0.762054	-0.093561
59024		9.385144	2.390283	-1.829156	-2.731130	-0.060703	0.400338	-0.838379	-0.113525	-0.443604	0.639496	0.034881	-0.760228	-0.108998
59025		9.424242	2.015189	-1.862492	-2.747980	-0.074937	0.392203	-0.848389	-0.091309	-0.453613	0.640041	0.017468	-0.757972	-0.124583
59026		9.463004	1.855522	-1.850975	-2.688411	-0.078543	0.379510	-0.846436	-0.060791	-0.447266	0.640231	0.000518	-0.755360	-0.139771
59027		9.455553	1.902645	-1.652312	-2.633974	-0.078132	0.369134	-0.842529	-0.038818	-0.460205	0.639977	-0.016178	-0.752515	-0.154558
59028		9.438478	1.609397	-1.522154	-2.574086	-0.075902	0.350461	-0.846191	-0.012207	-0.451904	0.639596	-0.032379	-0.749194	-0.169049
59029		9.475842	1.574978	-1.273972	-2.474238	-0.072905	0.326274	-0.846436	0.015869	-0.455811	0.638797	-0.047909	-0.745784	-0.182895
59030		9.503636	1.677863	-1.167184	-2.370076	-0.065717	0.311042	-0.839844	0.030518	-0.453369	0.637852	-0.062902	-0.742106	-0.196127
59031		9.532270	1.616611	-1.088411	-2.253110	-0.061668	0.297194	-0.845459	0.049072	-0.449707	0.636759	-0.076945	-0.738310	-0.208603
59032		9.561572	1.288986	-1.085700	-2.107680	-0.057001	0.275153	-0.849854	0.066895	-0.445068	0.635486	-0.089963	-0.734565	-0.220180
59033		9.660683	1.145288	-1.084059	-1.888872	-0.049759	0.236937	-0.848389	0.086670	-0.440186	0.634126	-0.101494	-0.731058	-0.230517
59034		9.670565	1.378766	-0.834601	-1.709601	-0.041297	0.213001	-0.847656	0.105713	-0.440674	0.632765	-0.111964	-0.727706	-0.239825
59035		9.734243	1.652336	-0.676742	-1.601909	-0.038403	0.207223	-0.851074	0.119141	-0.435791	0.631443	-0.121895	-0.724350	-0.248474
59036		9.709373	1.876144	-0.629521	-1.552409	-0.029308	0.215832	-0.854248	0.134277	-0.438965	0.630094	-0.131536	-0.720954	-0.256720
59037		9.564840	1.858243	-0.703566	-1.493807	-0.025669	0.215982	-0.845215	0.157959	-0.432373	0.628795	-0.140838	-0.717480	-0.264581
59038		9.671615	1.785204	-0.755179	-1.397628	-0.027565	0.207189	-0.847412	0.158936	-0.438232	0.627494	-0.149828	-0.714061	-0.271883
59039		9.735131	2.028877	-0.607194	-1.352954	-0.020945	0.214744	-0.839600	0.171387	-0.420654	0.626319	-0.158270	-0.710578	-0.278845
59040		9.739966	2.352191	-0.464779	-1.413987	-0.010564	0.242271	-0.844482	0.193115	-0.424072	0.624972	-0.167181	-0.706885	-0.285962
59041		9.733080	2.324902	-0.613248	-1.485838	-0.009689	0.270720	-0.845215	0.206543	-0.416992	0.623567	-0.176763	-0.702765	-0.293326
59042		9.594784	2.132794	-0.826470	-1.502509	-0.006663	0.287923	-0.851562	0.213623	-0.404541	0.622053	-0.186472	-0.698491	-0.300647
59043		9.628801	2.055415	-0.812546	-1.491860	-0.015295	0.297353	-0.850586	0.228271	-0.402344	0.620289	-0.196006	-0.694329	-0.307784
59044		9.653708	2.051287	-0.743450	-1.486638	-0.008138	0.318247	-0.849609	0.244141	-0.405273	0.618569	-0.205579	-0.689959	-0.314748
59045		9.680878	2.128874	-0.472295	-1.451991	-0.007545	0.332971	-0.846191	0.261230	-0.392578	0.616957	-0.215018	-0.685449	-0.321390
59046		9.639630	2.028398	-0.480567	-1.490248	-0.001994	0.358304	-0.842773	0.271729	-0.387207	0.615208	-0.224831	-0.680693	-0.328066
59047		9.801273	1.670386	-0.507701	-1.427077	0.003046	0.367888	-0.850830	0.289307	-0.380371	0.613552	-0.234234	-0.675969	-0.334295
59048		9.683272	1.386575	-0.388252	-1.326758	0.009163	0.373800	-0.836182	0.297119	-0.377197	0.611999	-0.243150	-0.671419	-0.339900
59049		9.797089	1.117598	-0.260635	-1.216421	0.016534	0.372016	-0.833496	0.313965	-0.367432	0.610736	-0.251339	-0.667016	-0.344848
59050		9.788226	1.069943	-0.059556	-1.104952	0.038236	0.367245	-0.844482	0.326416	-0.362305	0.609717	-0.258946	-0.662768	-0.349186
59051		9.763677	1.682834	0.077893	-1.104324	0.052953	0.373127	-0.840576	0.335938	-0.357666	0.608662	-0.266496	-0.658431	-0.353523
59052		9.714075	1.558515	-0.115987	-1.234711	0.051949	0.395034	-0.831787	0.349121	-0.350586	0.607325	-0.274758	-0.653599	-0.358432
59053		9.673620	0.869470	-0.372575	-1.305657	0.047304	0.387324	-0.824707	0.358887	-0.346924	0.605733	-0.283340	-0.648489	-0.363686
59054		9.673091	0.418280	-0.455041	-1.273729	0.043634	0.360232	-0.825928	0.367920	-0.337402	0.604105	-0.291520	-0.643460	-0.368827
59055		9.664258	0.502343	-0.238573	-1.217925	0.038448	0.326116	-0.823975	0.377686	-0.326172	0.602346	-0.299179	-0.638698	-0.373814
59056		9.733788	0.536524	-0.173328	-1.228760	0.027919	0.294227	-0.820312	0.382568	-0.322266	0.600278	-0.306738	-0.634004	-0.378968
59057		9.773422	0.004334	-0.051025	-1.191030	0.026643	0.259487	-0.814209	0.398926	-0.322266	0.598173	-0.313774	-0.629472	-0.384057
59058		9.784028	0.592609	0.211766	-1.087176	0.032584	0.228589	-0.827393	0.403564	-0.312744	0.596386	-0.320123	-0.625163	-0.388607
59059		9.627563	0.568575	0.145344	-1.138839	0.017631	0.217199	-0.811768	0.419922	-0.304932	0.594119	-0.326638	-0.620839	-0.393559
59060		9.585171	-0.261271	-0.007929	-1.033261	0.015679	0.177364	-0.819336	0.423096	-0.301025	0.592096	-0.332546	-0.616824	-0.397950
59061		9.566779	-0.091906	0.168628	-0.830955	0.011588	0.121878	-0.820801	0.426025	-0.291016	0.590346	-0.337055	-0.613668	-0.401619
59062		9.692047	0.015744	0.225290	-0.732658	0.010903	0.090450	-0.816650	0.432373	-0.286865	0.588638	-0.340930	-0.610945	-0.404991
59063		9.767721	-0.121326	0.240788	-0.551162	0.002734	0.055535	-0.815186	0.441895	-0.284668	0.587328	-0.343775	-0.608931	-0.407513
59064		9.808085	0.333534	0.436988	-0.373982	0.011630	0.022531	-0.813232	0.438721	-0.278320	0.586526	-0.345618	-0.607514	-0.409223
59065		9.816613	0.884049	0.390094	-0.313528	0.018230	0.013228	-0.813965	0.446289	-0.277344	0.585815	-0.347082	-0.606326	-0.410759
59066		9.694343	0.579305	-0.004879	-0.289505	0.014556	0.010240	-0.816162	0.448486	-0.275635	0.585189	-0.348485	-0.605209	-0.412109
59067		9.672245	0.309679	-0.190215	-0.175652	0.007651	-0.014051	-0.820312	0.447266	-0.274170	0.584757	-0.349239	-0.604589	-0.412994
59068		9.686391	0.611585	-0.060873	-0.094834	0.004704	-0.036888	-0.813477	0.449219	-0.272461	0.584408	-0.349475	-0.604350	-0.413636
59069		9.761816	0.983816	0.088460	-0.120159	-0.004439	-0.033215	-0.816895	0.444336	-0.276123	0.584015	-0.349929	-0.604034	-0.414270
59070		9.662444	0.513188	0.113807	-0.114025	-0.012992	-0.042561	-0.819092	0.452637	-0.267822	0.583568	-0.350213	-0.603834	-0.414950
59071		9.773890	0.725935	0.374066	-0.040773	-0.012255	-0.056389	-0.822754	0.451416	-0.276123	0.583216	-0.350266	-0.603899	-0.415307
59072		9.766241	0.868661	0.392222	-0.046708	-0.016099	-0.061602	-0.825928	0.445557	-0.270752	0.582912	-0.350209	-0.603970	-0.415677
59073		9.772277	0.670811	0.339723	-0.018075	-0.017413	-0.061866	-0.824951	0.437500	-0.268066	0.582538	-0.350026	-0.604184	-0.416043
59074		9.767588	0.619087	0.212131	0.055953	-0.020727	-0.063792	-0.821045	0.443848	-0.270264	0.582279	-0.349444	-0.604709	-0.416134
59075		9.659107	0.579199	0.152858	0.145418	-0.021575	-0.088044	-0.810303	0.437988	-0.270264	0.582330	-0.348361	-0.605573	-0.415715
59076		9.728069	0.662239	0.155493	0.199871	-0.024154	-0.084047	-0.820068	0.445312	-0.274170	0.582606	-0.347007	-0.606626	-0.414925
59077		9.680418	0.554466	0.306869	0.249267	-0.025561	-0.098044	-0.818115	0.433105	-0.273682	0.582993	-0.345411	-0.607863	-0.413899
59078		9.727849	0.910685	0.377045	0.294890	-0.017691	-0.112176	-0.818848	0.428223	-0.279785	0.583415	-0.343419	-0.609297	-0.412853
59079		9.782709	0.947051	0.191786	0.274152	-0.017100	-0.100468	-0.821289	0.428467	-0.272217	0.583868	-0.341508	-0.610623	-0.411838
59080		9.708080	0.830621	0.054466	0.344132	-0.018712	-0.106474	-0.820801	0.428223	-0.280518	0.584342	-0.339389	-0.612208	-0.410562
59081		9.657517	0.903126	-0.085901	0.411308	-0.030794	-0.115023	-0.820068	0.426758	-0.280518	0.585045	-0.336880	-0.614080	-0.408827
59082		9.677841	0.300181	-0.141386	0.523219	-0.040326	-0.128999	-0.818848	0.424561	-0.280762	0.585946	-0.333832	-0.616403	-0.406535
59083		9.758059	0.150108	0.162623	0.705816	-0.039110	-0.162920	-0.829834	0.416748	-0.291992	0.587221	-0.329762	-0.619407	-0.403440
59084		9.840393	0.896593	0.484772	0.760687	-0.028161	-0.177777	-0.827148	0.415039	-0.300537	0.588628	-0.325194	-0.622571	-0.400214
59085		9.904664	1.800512	0.377825	0.654073	-0.034154	-0.144205	-0.821289	0.396240	-0.300293	0.589936	-0.321322	-0.625265	-0.397205
59086		9.615435	0.158243	-0.442237	0.574636	-0.048035	-0.115019	-0.822754	0.404297	-0.296875	0.590925	-0.317941	-0.627719	-0.394576
59087		9.559984	-1.809764	-0.537655	1.110236	-0.041003	-0.220237	-0.828857	0.401367	-0.311035	0.592980	-0.311540	-0.632104	-0.389567
59088		9.848270	0.952642	-0.096251	1.548040	-0.027249	-0.323480	-0.830078	0.379639	-0.315430	0.595956	-0.302310	-0.637998	-0.382627
59089		10.079235	1.803828	0.361505	1.417779	-0.023304	-0.284546	-0.825195	0.376465	-0.318359	0.598506	-0.293850	-0.643298	-0.376312
59090		9.845627	1.737082	0.273249	1.286683	0.004247	-0.268063	-0.822998	0.355469	-0.332764	0.600893	-0.286136	-0.647891	-0.370529
59091		9.643146	1.773283	-0.327005	1.151062	0.006679	-0.258848	-0.838379	0.356445	-0.335938	0.602991	-0.278915	-0.651979	-0.365420
59092		9.551123	1.414992	-0.880016	1.089640	-0.006249	-0.241783	-0.840088	0.337891	-0.341309	0.604762	-0.272293	-0.655831	-0.360563
59093		9.543109	0.907332	-0.913908	1.134451	-0.010909	-0.259255	-0.837402	0.337158	-0.355469	0.606423	-0.265259	-0.659862	-0.355627
59094		9.673708	0.841423	-0.431784	1.278736	-0.016041	-0.283769	-0.833984	0.325928	-0.355225	0.608461	-0.257328	-0.664270	-0.349718
59095		9.881722	2.004168	0.094819	1.301954	-0.005985	-0.286528	-0.833496	0.310547	-0.364502	0.610463	-0.249267	-0.668630	-0.343707
59096		9.826549	2.560040	0.248884	1.118251	-0.008221	-0.248442	-0.839111	0.303955	-0.368652	0.612142	-0.242258	-0.672324	-0.338487
59097		9.698827	2.297786	-0.048531	0.894451	-0.000905	-0.203291	-0.837646	0.294434	-0.378174	0.613452	-0.236662	-0.675205	-0.334314
59098		9.608980	1.758089	-0.632653	0.822952	-0.006325	-0.191377	-0.843018	0.286621	-0.382324	0.614673	-0.231422	-0.677835	-0.330393
59099		9.536528	1.490448	-0.931137	0.875159	-0.010383	-0.198972	-0.840576	0.281006	-0.377441	0.615880	-0.225876	-0.680618	-0.326237
59100		9.552360	1.181266	-0.909949	0.972583	-0.016386	-0.218617	-0.837646	0.264404	-0.384766	0.617062	-0.219821	-0.683710	-0.321643
59101		9.698986	1.341374	-0.596233	1.092706	-0.009004	-0.232246	-0.841797	0.259277	-0.380859	0.618450	-0.212922	-0.687064	-0.316429
59102		9.735922	1.932153	-0.097276	1.102247	-0.002947	-0.243616	-0.836426	0.245850	-0.401611	0.619693	-0.206014	-0.690393	-0.311282
59103		9.814064	2.085717	-0.015100	0.965022	0.003197	-0.213036	-0.849121	0.234131	-0.397217	0.621021	-0.199745	-0.693159	-0.306538
59104		9.684291	1.867116	-0.230678	0.884515	0.010520	-0.200334	-0.843750	0.227295	-0.407715	0.622029	-0.194037	-0.695679	-0.302422
59105		9.574511	1.465929	-0.762628	0.872192	0.006523	-0.208228	-0.844971	0.220459	-0.411865	0.623088	-0.188271	-0.698115	-0.298246
59106		9.613980	1.217248	-0.899250	0.978622	0.008337	-0.224944	-0.844482	0.218506	-0.406250	0.624257	-0.181847	-0.700780	-0.293500
59107		9.605976	0.995354	-0.941446	1.121159	0.012721	-0.256025	-0.848877	0.197266	-0.413330	0.625466	-0.174621	-0.703776	-0.288096
59108		9.617311	0.906821	-0.742185	1.315727	0.014740	-0.288993	-0.847656	0.195068	-0.424805	0.626784	-0.166063	-0.707223	-0.281780
59109		9.667023	1.410006	-0.283712	1.471752	0.019041	-0.326741	-0.853271	0.179199	-0.418701	0.628327	-0.156449	-0.710896	-0.274511
59110		9.769179	2.204692	0.047953	1.441305	0.036532	-0.323814	-0.850098	0.160400	-0.429199	0.629667	-0.147050	-0.714357	-0.267565
59111		9.670345	2.514006	-0.317581	1.280609	0.035281	-0.296022	-0.851807	0.145752	-0.430664	0.630860	-0.138541	-0.717303	-0.261338
59112		9.517114	2.299827	-0.877227	1.161427	0.031965	-0.282660	-0.847656	0.135010	-0.432373	0.631812	-0.130741	-0.719930	-0.255776
59113		9.380071	2.016466	-1.316557	1.141364	0.021217	-0.289016	-0.849365	0.121582	-0.435547	0.632618	-0.123024	-0.722499	-0.250308
59114		9.346700	2.279865	-1.269657	1.147744	0.020733	-0.305585	-0.850342	0.110352	-0.444580	0.633322	-0.115153	-0.725036	-0.244880
59115		9.522313	2.528477	-1.131067	1.089750	0.019262	-0.288592	-0.846924	0.102783	-0.447754	0.634015	-0.107643	-0.727338	-0.239618
59116		9.537658	2.811001	-0.781856	1.006790	0.021127	-0.262746	-0.856201	0.084717	-0.445068	0.634693	-0.100727	-0.729356	-0.234647
59117		9.569773	2.791650	-0.722705	0.887943	0.018739	-0.236243	-0.845947	0.069580	-0.444824	0.635124	-0.094610	-0.731150	-0.230404
59118		9.619633	2.959082	-0.642493	0.766180	0.021188	-0.201833	-0.845703	0.067139	-0.447021	0.635526	-0.089270	-0.732625	-0.226710
59119		9.517391	3.236498	-0.704655	0.585045	0.018157	-0.162390	-0.844727	0.066162	-0.448486	0.635862	-0.085171	-0.733699	-0.223856
59120		9.454324	3.156304	-0.899779	0.416229	0.011163	-0.134478	-0.850830	0.053223	-0.447510	0.636104	-0.082185	-0.734442	-0.221841
59121		9.516774	3.032189	-1.098446	0.290406	0.007467	-0.090100	-0.846924	0.053467	-0.446289	0.636226	-0.080115	-0.734978	-0.220468
59122		9.533683	2.896916	-1.095174	0.203073	-0.000020	-0.061208	-0.845459	0.054688	-0.441406	0.636308	-0.078723	-0.735363	-0.219447
59123		9.544360	2.950431	-1.007235	0.078624	-0.006665	-0.036248	-0.842041	0.052002	-0.445068	0.636273	-0.078214	-0.735558	-0.219073
59124		9.547580	2.714962	-1.030658	-0.061942	-0.010023	0.004095	-0.843750	0.047363	-0.448975	0.636250	-0.078653	-0.735460	-0.219314
59125		9.445485	2.503114	-0.987773	-0.142947	-0.015702	0.014788	-0.854248	0.052734	-0.452393	0.636173	-0.079535	-0.735226	-0.220002
59126		9.455907	2.290043	-0.803999	-0.173595	-0.016262	0.021478	-0.847168	0.055176	-0.446533	0.636080	-0.080665	-0.734932	-0.220840
59127		9.568895	2.252223	-0.655653	-0.163141	-0.012477	0.021368	-0.849121	0.058350	-0.449463	0.635994	-0.081751	-0.734649	-0.221626
59128		9.575543	2.204730	-0.680603	-0.179064	-0.007656	0.025171	-0.847656	0.054688	-0.444336	0.635962	-0.082935	-0.734290	-0.222471
59129		9.532660	1.969158	-0.823282	-0.147524	-0.005011	0.021620	-0.847412	0.058594	-0.450439	0.635895	-0.083907	-0.734013	-0.223208
59130		9.490161	1.999905	-0.912062	-0.099396	-0.001750	0.011760	-0.854980	0.060059	-0.451416	0.635937	-0.084539	-0.733771	-0.223646
59131		9.481468	2.016441	-0.979120	-0.058986	-0.003138	0.001011	-0.843750	0.059570	-0.450928	0.635952	-0.084913	-0.733633	-0.223914
59132		9.545495	2.075295	-1.052966	-0.026253	-0.000165	-0.004393	-0.845703	0.057129	-0.452393	0.636044	-0.085039	-0.733519	-0.223980
59133		9.540183	2.244525	-0.949853	-0.009278	0.002566	-0.010627	-0.850586	0.055664	-0.446777	0.636145	-0.085009	-0.733430	-0.223993
59134		9.536213	2.412126	-0.915547	-0.009232	0.001224	-0.005743	-0.851562	0.056152	-0.445068	0.636160	-0.085047	-0.733397	-0.224043
59135		9.465442	2.456193	-0.900686	-0.054891	0.003350	0.005141	-0.840088	0.061035	-0.447266	0.636155	-0.085405	-0.733273	-0.224329
59136		9.472783	2.256816	-0.903096	-0.063895	-0.000996	0.010247	-0.847656	0.062012	-0.446045	0.636216	-0.085843	-0.733096	-0.224565
59137		9.463911	2.192378	-0.883654	-0.053725	0.007334	0.001899	-0.856201	0.057617	-0.445801	0.636271	-0.086189	-0.732929	-0.224823
59138		9.541848	2.199856	-0.926077	-0.044111	0.007695	0.003543	-0.849121	0.057861	-0.442383	0.636278	-0.086477	-0.732813	-0.225070
59139		9.608128	2.261883	-0.904874	-0.017796	0.006355	0.004128	-0.848145	0.052490	-0.437988	0.636296	-0.086631	-0.732755	-0.225151
59140		9.639324	2.278268	-0.909249	0.009541	0.011109	0.009438	-0.851562	0.062012	-0.442871	0.636318	-0.086638	-0.732755	-0.225087
59141		9.616198	2.416333	-0.945313	0.015558	0.013080	0.016596	-0.846436	0.056885	-0.443604	0.636428	-0.086714	-0.732711	-0.224889
59142		9.587827	2.322891	-0.998616	-0.002413	0.013253	0.024347	-0.852051	0.061035	-0.449951	0.636553	-0.086872	-0.732621	-0.224767
59143		9.591754	2.102024	-1.111264	0.008587	0.011693	0.027155	-0.842773	0.057861	-0.449219	0.636724	-0.087005	-0.732529	-0.224531
59144		9.594589	2.065874	-1.012840	0.039299	0.010182	0.023449	-0.840820	0.061523	-0.446289	0.636923	-0.086908	-0.732493	-0.224121
59145		9.610712	2.147411	-0.826527	0.064456	0.015560	0.024143	-0.846680	0.057617	-0.448242	0.637162	-0.086716	-0.732481	-0.223552
59146		9.609247	1.986215	-0.826070	0.050967	0.013873	0.026041	-0.849609	0.062988	-0.449951	0.637361	-0.086581	-0.732468	-0.223079
59147		9.542895	1.592773	-0.972090	0.093055	0.013478	0.018452	-0.847168	0.060059	-0.445312	0.637588	-0.086225	-0.732529	-0.222369
59148		9.525954	1.121903	-1.124827	0.242755	0.020534	-0.021359	-0.852051	0.057373	-0.442139	0.637848	-0.084813	-0.732886	-0.220985
59149		9.600716	0.901332	-1.163071	0.508733	0.027347	-0.074750	-0.849365	0.055420	-0.443115	0.638175	-0.081670	-0.733766	-0.218288
59150		9.629821	1.306417	-0.905240	0.746825	0.037641	-0.117432	-0.843506	0.051270	-0.444092	0.638654	-0.076998	-0.735018	-0.214338
59151		9.616726	1.325417	-0.839896	0.898836	0.036870	-0.136533	-0.847412	0.040527	-0.451172	0.639193	-0.071416	-0.736500	-0.209523
59152		9.595209	1.023558	-0.879812	1.111490	0.052120	-0.179533	-0.851074	0.029541	-0.451172	0.639862	-0.064365	-0.738223	-0.203616
59153		9.585063	0.926687	-1.105530	1.402756	0.052889	-0.239624	-0.846924	0.016113	-0.453857	0.640489	-0.055395	-0.740407	-0.196224
59154		9.467072	1.195952	-1.150035	1.637063	0.067179	-0.291546	-0.837891	0.003906	-0.451660	0.641152	-0.044813	-0.742775	-0.187619
59155		9.420192	1.231143	-1.348620	1.817576	0.068664	-0.337502	-0.844727	-0.020996	-0.451904	0.641702	-0.033008	-0.745262	-0.178086
59156		9.498156	1.243627	-1.635020	2.070879	0.075449	-0.389516	-0.843994	-0.045654	-0.451172	0.642060	-0.019452	-0.747939	-0.167234
59157		9.482479	1.609743	-1.594211	2.320270	0.081256	-0.431971	-0.842285	-0.066162	-0.453857	0.642200	-0.004242	-0.750691	-0.155000
59158		9.390013	2.091169	-1.391732	2.484085	0.087625	-0.462252	-0.840332	-0.089111	-0.450439	0.642122	0.012021	-0.753273	-0.141823
59159		9.417447	2.304670	-1.376948	2.496822	0.089691	-0.479779	-0.844727	-0.122803	-0.446045	0.641743	0.028431	-0.755527	-0.128594
59160		9.426650	2.520540	-1.599889	2.472797	0.098561	-0.472910	-0.841064	-0.145752	-0.443115	0.641091	0.044754	-0.757413	-0.115435
59161		9.278462	2.942706	-1.818180	2.407202	0.105549	-0.465312	-0.834961	-0.162109	-0.441650	0.640262	0.060648	-0.758855	-0.102592
59162		9.266834	3.084557	-2.027921	2.252746	0.099032	-0.442313	-0.835449	-0.188232	-0.438232	0.639304	0.075453	-0.759866	-0.090560
59163		9.314432	3.094993	-2.283596	2.132336	0.106495	-0.405700	-0.835449	-0.206055	-0.433350	0.638274	0.089406	-0.760500	-0.079073
59164		9.182532	3.453630	-2.338674	2.014310	0.101390	-0.372625	-0.832520	-0.229980	-0.426514	0.637125	0.102437	-0.760879	-0.068136
59165		9.161091	3.591395	-2.361208	1.821911	0.081786	-0.322563	-0.826660	-0.240723	-0.414307	0.635861	0.114159	-0.761095	-0.058167
59166		9.283270	3.572636	-2.342018	1.644300	0.076833	-0.267330	-0.832031	-0.262207	-0.409668	0.634585	0.124491	-0.761185	-0.049004
59167		9.227750	3.423930	-2.071322	1.483441	0.069438	-0.219676	-0.824707	-0.274902	-0.400146	0.633307	0.133715	-0.761178	-0.040614
59168		9.318273	3.366168	-1.992763	1.247088	0.062537	-0.172952	-0.825195	-0.281006	-0.394531	0.632165	0.141404	-0.761085	-0.033478
59169		9.338898	3.371414	-2.088836	1.002903	0.066557	-0.109112	-0.822021	-0.290283	-0.392090	0.631289	0.147315	-0.760930	-0.027529
59170		9.477024	2.715464	-2.506594	0.897177	0.062639	-0.073760	-0.819336	-0.300781	-0.380859	0.630511	0.152461	-0.760739	-0.022089
59171		9.346274	2.676427	-2.390921	0.935517	0.059614	-0.049522	-0.823975	-0.314941	-0.382812	0.629547	0.157748	-0.760607	-0.016240
59172		9.316596	2.707461	-2.091614	0.876894	0.053688	-0.036033	-0.817871	-0.318359	-0.372803	0.628621	0.162709	-0.760424	-0.010738
59173		9.479726	2.611147	-1.970947	0.793599	0.053877	-0.003559	-0.820312	-0.317871	-0.378174	0.627740	0.167029	-0.760272	-0.005560
59174		9.400909	2.560586	-1.975985	0.741843	0.061398	0.015453	-0.822754	-0.325195	-0.371826	0.627055	0.170796	-0.760020	-0.000651
59175		9.375508	2.340221	-2.100258	0.704775	0.053939	0.023437	-0.823975	-0.329590	-0.370850	0.626297	0.174369	-0.759823	0.004089
59176		9.432956	2.177866	-2.219477	0.736586	0.049408	0.040653	-0.822510	-0.328369	-0.364990	0.625461	0.177979	-0.759631	0.009101
59177		9.243819	2.057636	-1.979266	0.803484	0.052748	0.020053	-0.827393	-0.329346	-0.362793	0.624507	0.181987	-0.759383	0.014463
59178		9.160238	2.151874	-1.796486	0.769352	0.056726	0.000346	-0.819092	-0.338135	-0.352295	0.623607	0.185835	-0.759077	0.019535
59179		9.112974	2.386844	-1.867625	0.602182	0.064617	0.008731	-0.823730	-0.338379	-0.357422	0.622941	0.188923	-0.758746	0.023629
59180		9.100463	1.972210	-2.392745	0.506786	0.047062	0.003938	-0.815674	-0.348633	-0.354004	0.622382	0.191406	-0.758468	0.027013
59181		9.141846	1.974752	-2.419763	0.540669	0.040621	-0.020035	-0.823486	-0.344482	-0.348145	0.621736	0.194406	-0.758106	0.030423
59182		9.197606	2.440882	-2.365738	0.436751	0.031363	-0.016858	-0.815186	-0.351318	-0.344238	0.621118	0.196682	-0.757906	0.033291
59183		9.171171	2.685653	-2.204945	0.239779	0.026603	0.001576	-0.820801	-0.354980	-0.345947	0.620793	0.197961	-0.757763	0.034961
59184		9.287062	1.938760	-2.584603	0.081471	0.020339	0.003023	-0.821289	-0.352783	-0.347656	0.620697	0.198404	-0.757695	0.035619
59185		9.415314	1.683414	-2.686776	-0.000381	0.024419	0.016595	-0.817139	-0.355225	-0.351807	0.620786	0.198266	-0.757649	0.035819
59186		9.394946	1.560819	-2.586887	0.020854	0.025181	-0.006449	-0.816650	-0.352295	-0.349854	0.620919	0.198426	-0.757492	0.035943
59187		9.503357	1.874639	-2.186963	0.049230	0.029077	-0.016534	-0.821533	-0.354248	-0.339600	0.621009	0.198753	-0.757319	0.036239
59188		9.504980	2.311518	-2.032267	-0.025246	0.037164	-0.004825	-0.820068	-0.347168	-0.343018	0.621107	0.198713	-0.757244	0.036332
59189		9.423742	2.292385	-2.017907	-0.095626	0.039371	0.005125	-0.819824	-0.351807	-0.349854	0.621391	0.198083	-0.757193	0.035996
59190		9.341321	2.190470	-2.140260	-0.147156	0.037910	0.019513	-0.819092	-0.346191	-0.346680	0.621818	0.197157	-0.757117	0.035298
59191		9.390927	2.143521	-2.299029	-0.171084	0.037092	0.027364	-0.812012	-0.348145	-0.352539	0.622227	0.196011	-0.757112	0.034566
59192		9.403724	2.154851	-2.288135	-0.144859	0.030937	0.037647	-0.824707	-0.347900	-0.357666	0.622640	0.195005	-0.757062	0.033902
59193		9.392789	2.375505	-2.066144	-0.144587	0.034238	0.041297	-0.824463	-0.343750	-0.357422	0.623059	0.193902	-0.757028	0.033298
59194		9.464790	2.450207	-1.978144	-0.254978	0.037794	0.068712	-0.823486	-0.342041	-0.351562	0.623654	0.192015	-0.757067	0.032174
59195		9.430266	2.322450	-2.054805	-0.404581	0.048573	0.089971	-0.818604	-0.334961	-0.363281	0.624451	0.189314	-0.757165	0.030357
59196		9.428863	2.269523	-2.107648	-0.559183	0.044875	0.099097	-0.822998	-0.330078	-0.355713	0.625602	0.185617	-0.757243	0.027405
59197		9.408832	2.806081	-2.247685	-0.827103	0.057778	0.132754	-0.820312	-0.326172	-0.370117	0.627055	0.180396	-0.757444	0.023197
59198		9.302761	2.784534	-2.573963	-1.130547	0.042364	0.179908	-0.816162	-0.322266	-0.371094	0.628942	0.173271	-0.757705	0.017085
59199		9.403654	2.870466	-2.673936	-1.277443	0.025471	0.205891	-0.821777	-0.301025	-0.381592	0.630814	0.165390	-0.758034	0.010207
59200		9.418660	3.459009	-2.341487	-1.507397	0.011854	0.265253	-0.821289	-0.291748	-0.395264	0.632859	0.155627	-0.758462	0.002146
59201		9.549387	4.043122	-1.926459	-1.845501	0.006783	0.340408	-0.829590	-0.280273	-0.406250	0.635255	0.143620	-0.758791	-0.007801
59202		9.520404	3.515968	-2.014736	-2.269125	0.017306	0.426970	-0.827393	-0.258545	-0.415527	0.638016	0.128857	-0.758903	-0.019938
59203		9.362289	2.590402	-2.442795	-2.473226	0.019928	0.468729	-0.826904	-0.225342	-0.421387	0.640769	0.112708	-0.758692	-0.033149
59204		9.272316	2.151859	-2.568855	-2.505125	0.014467	0.485792	-0.829346	-0.203125	-0.427002	0.643206	0.096063	-0.758224	-0.046407
59205		9.259138	2.007621	-2.306543	-2.399941	0.000751	0.473020	-0.829834	-0.183594	-0.439941	0.645137	0.080094	-0.757564	-0.058987
59206		9.367031	2.647558	-1.715146	-2.348882	-0.004626	0.477977	-0.834473	-0.154297	-0.447754	0.646798	0.064401	-0.756586	-0.071292
59207		9.472493	3.185436	-1.324797	-2.492418	-0.012595	0.513122	-0.835449	-0.133545	-0.450195	0.648231	0.047552	-0.755268	-0.084295
59208		9.437621	3.054768	-1.503442	-2.697060	-0.009968	0.555073	-0.843994	-0.101318	-0.460205	0.649432	0.029447	-0.753470	-0.098249
59209		9.332030	2.423038	-1.867652	-2.864335	-0.027887	0.577965	-0.837158	-0.067871	-0.468018	0.650231	0.010146	-0.751199	-0.113119
59210		9.301356	2.317727	-2.047683	-2.925843	-0.036633	0.580816	-0.838379	-0.036865	-0.461914	0.650674	-0.009596	-0.748357	-0.128430
59211		9.231401	1.933880	-2.020840	-2.990703	-0.047618	0.574278	-0.845703	-0.005371	-0.464844	0.650528	-0.029629	-0.745124	-0.143962
59212		9.294738	1.257367	-2.114396	-2.954533	-0.053458	0.543952	-0.841553	0.017334	-0.463623	0.649886	-0.049270	-0.741509	-0.159328
59213		9.375186	1.107205	-1.881651	-2.839416	-0.045977	0.508567	-0.840332	0.057373	-0.462402	0.648914	-0.067851	-0.737569	-0.174067
59214		9.395428	1.090984	-1.513605	-2.728294	-0.042559	0.478394	-0.844238	0.082764	-0.460693	0.647645	-0.085844	-0.733308	-0.188272
59215		9.469419	0.882169	-1.220376	-2.609960	-0.043390	0.434612	-0.837402	0.106445	-0.453369	0.646045	-0.102823	-0.728905	-0.201869
59216		9.557042	0.966833	-0.806724	-2.495284	-0.039867	0.397978	-0.841553	0.128906	-0.443848	0.644206	-0.118862	-0.724365	-0.214864
59217		9.618788	1.309088	-0.610253	-2.457088	-0.028121	0.382297	-0.830566	0.146729	-0.447754	0.642095	-0.134482	-0.719620	-0.227542
59218		9.664860	1.140569	-0.770742	-2.439054	-0.033019	0.372258	-0.844238	0.171631	-0.434082	0.639841	-0.149765	-0.714484	-0.240180
59219		9.623821	0.678636	-0.773371	-2.310818	-0.025210	0.351276	-0.839111	0.195557	-0.426758	0.637345	-0.164199	-0.709472	-0.251951
59220		9.652530	0.445665	-0.923976	-2.125950	-0.019653	0.310602	-0.834717	0.216797	-0.413818	0.634855	-0.177397	-0.704575	-0.262801
59221		9.697828	0.507166	-0.626597	-1.938228	-0.017825	0.277545	-0.831787	0.233398	-0.414307	0.632357	-0.189421	-0.699937	-0.272639
59222		9.821565	0.790440	-0.345690	-1.776623	-0.009514	0.243046	-0.838867	0.253662	-0.414551	0.630027	-0.200272	-0.695412	-0.281708
59223		9.825368	1.078942	-0.339635	-1.712285	0.001016	0.242818	-0.836670	0.260498	-0.397461	0.627766	-0.210745	-0.690776	-0.290387
59224		9.786935	1.017320	-0.450107	-1.625594	-0.004880	0.240846	-0.835693	0.275879	-0.390625	0.625388	-0.220626	-0.686408	-0.298426
59225		9.784511	0.988427	-0.467440	-1.494064	0.004750	0.222676	-0.834473	0.292236	-0.389404	0.623161	-0.229676	-0.682214	-0.305783
59226		9.721038	1.168444	-0.286228	-1.445760	0.006709	0.221724	-0.828857	0.307373	-0.376953	0.621008	-0.238455	-0.677946	-0.312854
59227		9.674443	1.192891	-0.201110	-1.443797	0.005361	0.213416	-0.838379	0.315186	-0.376953	0.618704	-0.247247	-0.673596	-0.319910
59228		9.739070	1.217652	-0.144501	-1.455652	0.011767	0.205570	-0.827393	0.324463	-0.368408	0.616315	-0.255835	-0.669151	-0.327018
59229		9.715124	1.412227	-0.131774	-1.564724	0.026796	0.205552	-0.826416	0.341309	-0.358154	0.613722	-0.264888	-0.664192	-0.334708
59230		9.661248	1.372872	-0.339332	-1.700915	0.018944	0.218930	-0.830811	0.352051	-0.354736	0.610686	-0.274778	-0.658714	-0.343009
59231		9.683186	0.990195	-0.634412	-1.728157	0.007251	0.200080	-0.822754	0.357910	-0.340576	0.607378	-0.284568	-0.653146	-0.351444
59232		9.683529	0.771032	-0.388808	-1.679100	-0.001711	0.172723	-0.835938	0.367676	-0.325195	0.603915	-0.293871	-0.647750	-0.359648
59233		9.838897	0.992726	-0.032560	-1.617063	0.001760	0.161972	-0.835205	0.384033	-0.317383	0.600320	-0.302726	-0.642557	-0.367551
59234		10.002190	1.227481	0.095165	-1.612429	0.001219	0.183839	-0.824951	0.387207	-0.310791	0.596734	-0.311686	-0.637141	-0.375249
59235		9.980881	0.638715	0.077387	-1.487037	0.001802	0.202315	-0.824951	0.408691	-0.300537	0.593525	-0.319925	-0.631960	-0.382103
59236		9.771219	0.176654	0.005739	-1.271774	0.008187	0.185291	-0.823242	0.414307	-0.293213	0.590809	-0.327125	-0.627298	-0.387856
59237		9.716465	-0.031332	-0.059571	-1.016946	0.004892	0.146933	-0.828613	0.425293	-0.283691	0.588601	-0.332787	-0.623547	-0.392418
59238		9.758959	-0.048654	0.007031	-0.831980	0.006448	0.117156	-0.824463	0.416016	-0.286377	0.586716	-0.337439	-0.620442	-0.396171
59239		9.779950	-0.027443	-0.072179	-0.710477	0.005493	0.080730	-0.823242	0.428467	-0.276855	0.585109	-0.340989	-0.617910	-0.399451
59240		9.943733	0.349994	-0.065686	-0.583209	0.004737	0.055650	-0.822754	0.428711	-0.276855	0.583731	-0.343966	-0.615795	-0.402171
59241		9.901533	0.635545	-0.119420	-0.542499	-0.003629	0.047291	-0.822998	0.439209	-0.265869	0.582431	-0.346629	-0.613888	-0.404678
59242		9.854011	0.337368	-0.161582	-0.445882	-0.014954	0.029686	-0.819824	0.437744	-0.263184	0.581207	-0.348966	-0.612354	-0.406747
59243		9.858804	0.417265	0.087081	-0.363555	-0.021040	0.005923	-0.822021	0.442627	-0.258545	0.580118	-0.350748	-0.611208	-0.408490
59244		9.918774	0.591545	0.188432	-0.365201	-0.020521	0.002691	-0.820801	0.437744	-0.255859	0.578985	-0.352579	-0.610043	-0.410260
59245		9.812588	0.269744	-0.010087	-0.323086	-0.019438	-0.007645	-0.823486	0.438721	-0.253418	0.577919	-0.354066	-0.609081	-0.411907
59246		9.696586	0.074288	-0.065127	-0.148870	-0.028671	-0.042913	-0.823486	0.443604	-0.256348	0.577178	-0.354558	-0.608871	-0.412831
59247		9.780021	0.451405	0.291368	0.028231	-0.029428	-0.063202	-0.822510	0.427979	-0.259521	0.576987	-0.354098	-0.609302	-0.412858
59248		9.761127	1.053859	0.527144	0.043075	-0.014517	-0.057379	-0.828857	0.437744	-0.256592	0.576913	-0.353325	-0.609783	-0.412915
59249		9.671474	1.094813	0.424326	0.036239	-0.002010	-0.043473	-0.822754	0.439453	-0.249268	0.576894	-0.352789	-0.610082	-0.412957
59250		9.584755	1.030068	0.312633	0.042199	-0.001260	-0.027991	-0.821045	0.445557	-0.248779	0.576893	-0.352460	-0.610309	-0.412905
59251		9.537430	0.845065	0.164190	0.073996	0.001878	-0.046464	-0.824219	0.446533	-0.252197	0.576981	-0.351965	-0.610640	-0.412712
59252		9.538734	0.955634	0.141128	0.071508	0.006086	-0.057533	-0.833740	0.436279	-0.251953	0.577080	-0.351383	-0.610978	-0.412571
59253		9.739153	1.128854	0.093935	0.048158	0.003711	-0.052694	-0.823486	0.439697	-0.257812	0.576969	-0.350835	-0.611301	-0.412714
59254		9.623509	0.967871	0.094327	0.082496	0.003610	-0.058055	-0.823486	0.437012	-0.255859	0.577140	-0.350085	-0.611720	-0.412490
59255		9.781677	0.914156	0.245018	0.159777	-0.004117	-0.053636	-0.825439	0.439941	-0.257568	0.577461	-0.349035	-0.612431	-0.411876
59256		9.772189	1.077696	0.514624	0.154924	0.009329	-0.043915	-0.823486	0.434082	-0.263428	0.577890	-0.348049	-0.613015	-0.411239
59257		9.683909	0.704671	0.368636	0.175805	0.009546	-0.045409	-0.823730	0.432129	-0.265137	0.578432	-0.346841	-0.613699	-0.410477
59258		9.673235	0.515143	0.123114	0.252112	0.018113	-0.053882	-0.834229	0.426270	-0.267822	0.579203	-0.345185	-0.614628	-0.409395
59259		9.666160	0.285861	-0.026404	0.373647	0.007234	-0.077306	-0.829590	0.430420	-0.266357	0.580078	-0.342800	-0.616118	-0.407917
59260		9.639885	0.480385	0.011828	0.487057	0.005183	-0.115089	-0.823730	0.420410	-0.263184	0.581151	-0.339818	-0.618058	-0.405946
59261		9.722420	0.499038	0.067175	0.571671	-0.003314	-0.120357	-0.825928	0.419189	-0.269043	0.582296	-0.336458	-0.620328	-0.403634
59262		9.734010	0.338347	0.196673	0.676510	0.000922	-0.141348	-0.835449	0.420898	-0.285400	0.583710	-0.332461	-0.622966	-0.400830
59263		9.847507	0.767176	0.502722	0.781923	0.006378	-0.157460	-0.827881	0.413086	-0.281738	0.585520	-0.327738	-0.625962	-0.397398
59264		9.668874	1.232449	0.497864	0.740992	0.014993	-0.149868	-0.831543	0.403564	-0.288086	0.587175	-0.323326	-0.628710	-0.394220
59265		9.588933	0.678708	-0.057529	0.748438	0.007941	-0.153212	-0.828125	0.398926	-0.289795	0.588747	-0.318813	-0.631518	-0.391049
59266		9.619034	0.218783	-0.556758	0.925610	-0.009239	-0.194749	-0.828369	0.392090	-0.300293	0.590523	-0.313311	-0.635052	-0.387076
59267		9.772027	0.256242	-0.654431	1.137310	-0.021987	-0.232249	-0.829834	0.385498	-0.310059	0.592696	-0.306528	-0.639387	-0.382015
59268		9.859985	0.414822	-0.475739	1.355856	-0.022978	-0.272568	-0.832031	0.373291	-0.313721	0.595279	-0.298408	-0.644450	-0.375873
59269		9.857654	0.782769	-0.133386	1.520631	-0.025354	-0.296135	-0.835693	0.364746	-0.320801	0.598011	-0.289350	-0.650000	-0.368998
59270		9.977676	1.154403	0.194169	1.586017	-0.010880	-0.307085	-0.843506	0.352783	-0.331543	0.600820	-0.279873	-0.655579	-0.361806
59271		9.771961	1.308862	0.066018	1.540355	0.009813	-0.300080	-0.840576	0.335938	-0.346680	0.603531	-0.270542	-0.660790	-0.354845
59272		9.561784	1.273993	-0.299871	1.529448	0.011867	-0.322406	-0.837891	0.328857	-0.346680	0.606161	-0.260969	-0.665908	-0.347894
59273		9.610672	1.387866	-0.666321	1.520206	0.016448	-0.324137	-0.845703	0.314697	-0.367188	0.608628	-0.251542	-0.670835	-0.340995
59274		9.571962	1.110084	-0.815492	1.577803	0.008087	-0.342466	-0.848389	0.305908	-0.375000	0.611130	-0.241552	-0.675901	-0.333662
59275		9.760171	1.474657	-0.482501	1.704201	0.007063	-0.367517	-0.843506	0.283447	-0.370605	0.613700	-0.230793	-0.681220	-0.325648
59276		9.788770	2.677373	0.050081	1.596197	0.020860	-0.348441	-0.832275	0.270996	-0.380615	0.615908	-0.220673	-0.686024	-0.318326
59277		9.756179	2.984646	-0.125612	1.331288	0.020925	-0.298703	-0.841797	0.259521	-0.388428	0.617798	-0.212143	-0.689894	-0.312037
59278		9.583574	2.750592	-0.550248	1.083946	0.026389	-0.247271	-0.848145	0.247559	-0.387695	0.619313	-0.205146	-0.692934	-0.306937
59279		9.500485	2.401999	-1.065811	0.957197	0.018665	-0.228622	-0.847168	0.234619	-0.398926	0.620445	-0.198962	-0.695626	-0.302600
59280		9.565548	2.276491	-1.137044	0.906240	0.010703	-0.217039	-0.842041	0.238770	-0.402100	0.621525	-0.193003	-0.698167	-0.298362
59281		9.657135	2.216887	-0.832596	0.886956	0.009389	-0.202051	-0.851807	0.220703	-0.409668	0.622648	-0.187350	-0.700552	-0.294002
59282		9.748172	2.378727	-0.364350	0.840696	0.004792	-0.187382	-0.849854	0.213135	-0.409180	0.623624	-0.181903	-0.702822	-0.289906
59283		9.839830	2.475954	-0.166124	0.739330	0.007330	-0.148827	-0.848877	0.201904	-0.400391	0.624499	-0.177227	-0.704745	-0.286228
59284		9.757036	2.299566	-0.180892	0.669924	0.011934	-0.126099	-0.845215	0.199951	-0.411621	0.625186	-0.173086	-0.706452	-0.283035
59285		9.597606	1.955181	-0.479938	0.642631	0.010679	-0.114747	-0.851074	0.198730	-0.405029	0.625979	-0.169108	-0.708026	-0.279735
59286		9.446490	1.416624	-0.833671	0.667294	0.009957	-0.120254	-0.847656	0.186523	-0.408447	0.626649	-0.165091	-0.709665	-0.276464
59287		9.580383	0.780677	-1.010909	0.869576	0.005707	-0.156962	-0.842773	0.181641	-0.425049	0.627479	-0.159725	-0.711821	-0.272156
59288		9.627366	0.830089	-0.684903	1.124452	0.007960	-0.211901	-0.855957	0.165283	-0.417236	0.628688	-0.152596	-0.714513	-0.266342
59289		9.697207	1.248506	-0.332628	1.264113	0.008983	-0.251371	-0.849609	0.153076	-0.426514	0.629714	-0.144534	-0.717553	-0.260171
59290		9.765311	1.719562	-0.211256	1.300502	0.019105	-0.254059	-0.850830	0.143799	-0.429443	0.630868	-0.136171	-0.720507	-0.253637
59291		9.555358	2.048763	-0.394721	1.254595	0.022071	-0.263440	-0.849121	0.127686	-0.432617	0.631893	-0.128009	-0.723268	-0.247402
59292		9.481759	1.939141	-0.798696	1.203264	0.010786	-0.270913	-0.852295	0.126465	-0.437012	0.632712	-0.120044	-0.725915	-0.241480
59293		9.454304	2.140581	-0.993704	1.187964	0.011040	-0.288688	-0.845215	0.109131	-0.441162	0.633446	-0.112138	-0.728444	-0.235672
59294		9.498203	2.407401	-0.900767	1.121765	0.013321	-0.287244	-0.853027	0.093750	-0.439697	0.634117	-0.104502	-0.730745	-0.230187
59295		9.618536	2.662445	-1.003154	1.013269	0.013092	-0.255351	-0.854004	0.088379	-0.440918	0.634615	-0.097630	-0.732787	-0.225290
59296		9.487344	2.786672	-0.864659	0.866516	0.005907	-0.236937	-0.849365	0.082520	-0.446777	0.634945	-0.091710	-0.734520	-0.221165
59297		9.522453	2.908380	-0.883219	0.707104	0.001079	-0.207037	-0.861084	0.072998	-0.438721	0.635228	-0.086820	-0.735889	-0.217750
59298		9.510651	3.216138	-0.877434	0.524791	0.002757	-0.169845	-0.847168	0.058838	-0.446289	0.635287	-0.083172	-0.736940	-0.215436
59299		9.479224	3.291233	-0.921295	0.317746	-0.003607	-0.131723	-0.847412	0.058594	-0.449951	0.635342	-0.080726	-0.737566	-0.214054
59300		9.504166	3.135814	-1.080708	0.139737	-0.006765	-0.085515	-0.858398	0.050781	-0.453369	0.635374	-0.079531	-0.737836	-0.213479
59301		9.506067	2.915313	-1.186769	0.038499	-0.012227	-0.053669	-0.854736	0.052734	-0.443115	0.635324	-0.079032	-0.737954	-0.213404
59302		9.470130	2.913005	-0.976568	-0.033042	-0.014618	-0.033510	-0.855225	0.050293	-0.446289	0.635177	-0.079106	-0.737976	-0.213738
59303		9.569720	2.825888	-0.848423	-0.112578	-0.015339	-0.001268	-0.854736	0.058838	-0.445068	0.635053	-0.079766	-0.737828	-0.214370
59304		9.555595	2.615818	-0.789388	-0.181088	-0.015122	0.024025	-0.859619	0.057373	-0.439941	0.634939	-0.081012	-0.737529	-0.215271
59305		9.515132	2.430535	-0.849945	-0.188421	-0.015674	0.031237	-0.856689	0.061523	-0.440918	0.634755	-0.082342	-0.737250	-0.216259
59306		9.515718	2.244428	-0.917650	-0.166365	-0.015960	0.035746	-0.852539	0.065186	-0.440430	0.634623	-0.083590	-0.736991	-0.217052
59307		9.490070	1.936690	-0.943942	-0.120171	-0.017270	0.029700	-0.859131	0.064209	-0.432861	0.634523	-0.084567	-0.736812	-0.217570
59308		9.499693	1.954598	-0.877941	-0.074781	-0.012308	0.011626	-0.851562	0.056396	-0.442871	0.634359	-0.085198	-0.736754	-0.218001
59309		9.555925	2.059527	-0.854705	-0.062064	-0.012078	0.008477	-0.849609	0.063965	-0.444580	0.634301	-0.085620	-0.736670	-0.218286
59310		9.531083	1.900568	-0.876321	-0.044363	-0.015194	-0.001292	-0.853516	0.060303	-0.447021	0.634255	-0.085944	-0.736618	-0.218469
59311		9.534560	2.096994	-0.857087	-0.014018	-0.008590	-0.012536	-0.850830	0.062744	-0.445312	0.634247	-0.085988	-0.736598	-0.218541
59312		9.508273	2.213080	-0.970411	-0.016613	-0.009170	-0.017576	-0.856934	0.058594	-0.439697	0.634227	-0.086038	-0.736577	-0.218650
59313		9.502426	2.259204	-1.009921	-0.009222	-0.008094	-0.009655	-0.852783	0.062012	-0.443604	0.634155	-0.086087	-0.736604	-0.218747
59314		9.482258	2.312706	-0.928039	0.000777	-0.006494	-0.018579	-0.853027	0.059082	-0.446289	0.634139	-0.086036	-0.736614	-0.218780
59315		9.466999	2.454230	-0.813512	-0.018084	-0.006092	-0.010414	-0.853027	0.068115	-0.442139	0.634141	-0.086103	-0.736575	-0.218880
59316		9.480212	2.449905	-0.865174	-0.075599	-0.003528	0.000863	-0.854492	0.063965	-0.438965	0.634123	-0.086624	-0.736413	-0.219272
59317		9.497334	2.263816	-1.033099	-0.082603	-0.003212	0.002053	-0.855713	0.067627	-0.449707	0.634065	-0.087160	-0.736260	-0.219742
59318		9.474346	2.129090	-1.116222	-0.030560	-0.001712	-0.003747	-0.859131	0.065674	-0.438965	0.634124	-0.087376	-0.736148	-0.219859
59319		9.529812	2.043901	-1.089306	0.046511	-0.001794	-0.015947	-0.850098	0.069580	-0.446777	0.634119	-0.087125	-0.736247	-0.219644
59320		9.590245	2.264514	-0.961725	0.106280	0.002943	-0.013765	-0.851562	0.069336	-0.444580	0.634289	-0.086568	-0.736365	-0.218974
59321		9.537469	2.188361	-0.889610	0.133099	0.001914	-0.012497	-0.849121	0.063232	-0.440674	0.634451	-0.085890	-0.736550	-0.218148
59322		9.545098	1.842217	-0.976476	0.222405	0.005842	-0.023600	-0.853516	0.061035	-0.441406	0.634647	-0.084633	-0.736905	-0.216868
59323		9.601943	1.805964	-0.944422	0.349947	0.012721	-0.040669	-0.855469	0.057373	-0.444336	0.634927	-0.082583	-0.737470	-0.214909
59324		9.621586	1.867594	-0.956406	0.429609	0.010219	-0.052907	-0.857422	0.045654	-0.445312	0.635226	-0.080031	-0.738186	-0.212519
59325		9.611321	1.813174	-1.028775	0.487710	0.013912	-0.064510	-0.852539	0.044189	-0.444092	0.635536	-0.077033	-0.738998	-0.209863
59326		9.490394	1.363961	-1.356751	0.596718	0.020042	-0.085909	-0.852051	0.038818	-0.443115	0.635913	-0.073336	-0.739959	-0.206632
59327		9.459629	0.362104	-1.622777	0.904047	0.012916	-0.137344	-0.849854	0.031494	-0.443848	0.636309	-0.067707	-0.741495	-0.201770
59328		9.535834	0.304734	-1.297922	1.350840	0.022715	-0.232229	-0.843018	0.020020	-0.449463	0.636809	-0.059106	-0.743708	-0.194623
59329		9.640861	0.991078	-0.775991	1.685201	0.025816	-0.304932	-0.850830	0.005127	-0.446045	0.637330	-0.048263	-0.746317	-0.185722
59330		9.753249	1.765648	-0.562977	1.824038	0.046446	-0.329157	-0.846436	-0.011230	-0.447266	0.637802	-0.036519	-0.748915	-0.176075
59331		9.469026	1.689213	-1.089966	1.896634	0.054192	-0.341596	-0.853760	-0.029053	-0.444824	0.638191	-0.024300	-0.751379	-0.165988
59332		9.329070	1.155520	-1.797251	2.117916	0.057675	-0.398408	-0.851318	-0.056152	-0.442627	0.638339	-0.010557	-0.753959	-0.154783
59333		9.372336	1.382734	-1.999727	2.426546	0.066542	-0.456409	-0.848633	-0.080322	-0.439453	0.638244	0.005259	-0.756624	-0.141906
59334		9.371100	2.176696	-1.800499	2.599679	0.066882	-0.492615	-0.848389	-0.096191	-0.436279	0.637805	0.022223	-0.759151	-0.128062
59335		9.391711	2.769508	-1.653171	2.589702	0.069682	-0.486197	-0.846191	-0.126709	-0.432129	0.637096	0.038987	-0.761286	-0.114156
59336		9.250228	2.814844	-1.803976	2.506173	0.071661	-0.477541	-0.844482	-0.154541	-0.439453	0.636133	0.055285	-0.762981	-0.100693
59337		9.236874	2.802338	-2.176060	2.389177	0.070737	-0.467283	-0.841064	-0.179932	-0.415771	0.635050	0.070896	-0.764173	-0.087894
59338		9.276013	2.606839	-2.570985	2.313547	0.068965	-0.454900	-0.841064	-0.208008	-0.417725	0.633604	0.086042	-0.765146	-0.075467
59339		9.272225	2.705151	-2.705266	2.275896	0.076446	-0.446084	-0.829834	-0.229004	-0.402344	0.632054	0.100952	-0.765715	-0.063225
59340		9.299642	3.135980	-2.465667	2.220345	0.072918	-0.428438	-0.838135	-0.245117	-0.394531	0.630267	0.115448	-0.766037	-0.051217
59341		9.380736	3.758974	-2.254059	2.025494	0.070217	-0.364166	-0.830811	-0.266113	-0.390381	0.628433	0.128392	-0.766148	-0.040063
59342		9.225025	3.843415	-2.115055	1.787407	0.074367	-0.297051	-0.831055	-0.288086	-0.384033	0.626789	0.139665	-0.765979	-0.030096
59343		9.288269	3.509071	-2.313195	1.527657	0.063108	-0.250806	-0.823975	-0.301758	-0.375732	0.625253	0.149331	-0.765698	-0.021572
59344		9.452197	3.610868	-2.472489	1.305176	0.067697	-0.173339	-0.822754	-0.299805	-0.362305	0.623949	0.157353	-0.765330	-0.014069
59345		9.452204	3.401406	-2.691471	1.138452	0.069929	-0.105115	-0.829102	-0.308594	-0.365234	0.622749	0.163920	-0.765024	-0.007183
59346		9.138139	3.291146	-2.503075	1.034242	0.081129	-0.063632	-0.823975	-0.323486	-0.366211	0.621767	0.169615	-0.764615	-0.000750
59347		9.128309	2.729964	-2.389186	0.900517	0.063330	-0.044086	-0.824707	-0.321289	-0.356445	0.620888	0.174581	-0.764197	0.004820
59348		9.229633	2.643548	-2.378392	0.737067	0.060786	-0.008885	-0.816895	-0.331543	-0.351318	0.620138	0.178375	-0.763884	0.009609
59349		9.200222	2.300288	-2.453121	0.632997	0.055476	-0.002891	-0.820312	-0.337646	-0.358154	0.619492	0.181715	-0.763559	0.013714
59350		9.153855	2.159160	-2.372094	0.573221	0.052738	0.000758	-0.824707	-0.333984	-0.345215	0.618994	0.184680	-0.763176	0.017373
59351		9.224967	2.153344	-2.242498	0.511537	0.043579	-0.007942	-0.826416	-0.339600	-0.344971	0.618385	0.187323	-0.762941	0.020741
59352		9.262319	2.245544	-2.200271	0.442109	0.053366	-0.003810	-0.824219	-0.343018	-0.343750	0.617950	0.189599	-0.762646	0.023686
59353		9.293105	2.098200	-2.328921	0.417442	0.052527	-0.020800	-0.826904	-0.351318	-0.343262	0.617561	0.191870	-0.762306	0.026362
59354		9.343533	2.221281	-2.343090	0.397540	0.052655	-0.013709	-0.829346	-0.346191	-0.337891	0.617190	0.194063	-0.761957	0.028930
59355		9.241231	2.434249	-2.315817	0.344943	0.059992	-0.013144	-0.820312	-0.353271	-0.341553	0.616896	0.195872	-0.761640	0.031280
59356		9.238774	2.194200	-2.559914	0.274648	0.053465	-0.007496	-0.818848	-0.350830	-0.338867	0.616765	0.197360	-0.761286	0.033053
59357		9.264438	2.264285	-2.528400	0.243698	0.049798	0.001339	-0.818359	-0.349609	-0.340332	0.616644	0.198582	-0.760993	0.034702
59358		9.201751	2.548163	-2.424600	0.135078	0.047678	0.015147	-0.823730	-0.348877	-0.341064	0.616716	0.199097	-0.760754	0.035709
59359		9.179967	2.317816	-2.478376	-0.009640	0.040720	0.029958	-0.822266	-0.357910	-0.335938	0.616965	0.198730	-0.760639	0.035900
59360		9.287345	1.940063	-2.600535	-0.045084	0.029265	0.030319	-0.828369	-0.351074	-0.324707	0.617125	0.198402	-0.760596	0.035871
59361		9.302607	2.016063	-2.382270	-0.099901	0.029944	0.030862	-0.823730	-0.352295	-0.336426	0.617215	0.197765	-0.760695	0.035758
59362		9.432826	2.099896	-2.249213	-0.118800	0.029947	0.031594	-0.822998	-0.347168	-0.342773	0.617494	0.196982	-0.760692	0.035308
59363		9.379949	2.176944	-2.167512	-0.162351	0.035054	0.037752	-0.820068	-0.346680	-0.341064	0.617951	0.195818	-0.760656	0.034549
59364		9.346420	2.173663	-2.107057	-0.206220	0.036191	0.036924	-0.825195	-0.346680	-0.343750	0.618460	0.194492	-0.760629	0.033528
59365		9.367211	2.254857	-2.295064	-0.271743	0.036038	0.054615	-0.819336	-0.343994	-0.349609	0.619055	0.192718	-0.760653	0.032202
59366		9.372715	2.315258	-2.347609	-0.304889	0.034751	0.059472	-0.829346	-0.339844	-0.343506	0.619767	0.190722	-0.760644	0.030570
59367		9.389061	2.324605	-2.404491	-0.335488	0.035696	0.073405	-0.822998	-0.333008	-0.347656	0.620380	0.188494	-0.760759	0.029056
59368		9.392525	2.554353	-2.375307	-0.417827	0.036508	0.098490	-0.823975	-0.335449	-0.352051	0.621174	0.185615	-0.760892	0.027068
59369		9.403380	2.551180	-2.306178	-0.525900	0.035364	0.117485	-0.823486	-0.324951	-0.353760	0.622126	0.182154	-0.761040	0.024440
59370		9.390678	2.799098	-2.153371	-0.677865	0.039658	0.154170	-0.827148	-0.320557	-0.362793	0.623304	0.177578	-0.761258	0.021083
59371		9.403346	2.843165	-2.267962	-0.926142	0.039405	0.186509	-0.823975	-0.315430	-0.363525	0.624854	0.171481	-0.761504	0.016247
59372		9.463688	2.788164	-2.436589	-1.140595	0.033956	0.232068	-0.831055	-0.301270	-0.372314	0.626582	0.164078	-0.761818	0.010313
59373		9.443343	3.090466	-2.483452	-1.313837	0.036408	0.272611	-0.828125	-0.289795	-0.385742	0.628497	0.155383	-0.762125	0.003512
59374		9.263250	2.937400	-2.295811	-1.553562	0.034150	0.314015	-0.827881	-0.270752	-0.397217	0.630703	0.145115	-0.762321	-0.004765
59375		9.392321	2.675406	-2.329802	-1.753695	0.029340	0.345175	-0.830078	-0.260498	-0.401855	0.633045	0.133456	-0.762391	-0.014228
59376		9.403836	2.775953	-2.203023	-1.973705	0.032076	0.382293	-0.830078	-0.240234	-0.405273	0.635439	0.120516	-0.762284	-0.024821
59377		9.325401	2.679624	-2.231993	-2.171469	0.034783	0.406635	-0.835205	-0.221191	-0.423828	0.637807	0.106351	-0.761947	-0.036441
59378		9.301377	2.456178	-2.221062	-2.289172	0.023178	0.422281	-0.833008	-0.200195	-0.427734	0.640063	0.091373	-0.761303	-0.048872
59379		9.270431	2.453782	-2.094071	-2.341029	0.014518	0.437361	-0.838379	-0.176270	-0.439209	0.642030	0.076041	-0.760418	-0.061485
59380		9.346483	2.650937	-1.776526	-2.375839	0.010086	0.442661	-0.838623	-0.148926	-0.443604	0.643755	0.060411	-0.759217	-0.074298
59381		9.357269	2.658944	-1.662407	-2.466058	0.010592	0.468358	-0.839355	-0.122803	-0.447021	0.645255	0.044054	-0.757663	-0.087477
59382		9.325951	2.469566	-1.709978	-2.487534	0.016183	0.479507	-0.844482	-0.102295	-0.442627	0.646496	0.027489	-0.755750	-0.100650
59383		9.320933	2.037855	-1.633426	-2.501976	0.012390	0.474064	-0.837891	-0.074951	-0.455322	0.647305	0.011006	-0.753625	-0.113690
59384		9.437714	2.377796	-1.679325	-2.519029	0.018140	0.477091	-0.842773	-0.049805	-0.459473	0.647982	-0.005662	-0.750972	-0.126998
59385		9.310802	2.469231	-1.799185	-2.611935	0.017222	0.490197	-0.839600	-0.024170	-0.463867	0.648344	-0.022897	-0.747878	-0.140731
59386		9.407274	1.646792	-1.949263	-2.574456	0.003430	0.480497	-0.842529	0.008057	-0.458008	0.648338	-0.039856	-0.744492	-0.154274
59387		9.397074	1.085067	-1.881664	-2.393984	-0.007809	0.447050	-0.841553	0.031982	-0.454102	0.647922	-0.055721	-0.741150	-0.166700
59388		9.497696	0.939994	-1.428665	-2.229882	-0.017547	0.401549	-0.844727	0.049561	-0.452881	0.647184	-0.070390	-0.737852	-0.178250
59389		9.742065	1.076582	-1.020954	-2.068618	-0.013189	0.375812	-0.846191	0.075195	-0.455566	0.646299	-0.083897	-0.734570	-0.188852
59390		9.681727	1.017193	-0.655148	-1.932296	-0.004453	0.349071	-0.844482	0.091797	-0.452148	0.645375	-0.096554	-0.731197	-0.198794
59391		9.691183	0.661042	-0.547060	-1.722483	-0.003433	0.310567	-0.844727	0.110840	-0.452148	0.644405	-0.107765	-0.728032	-0.207601
59392		9.719112	0.885991	-0.520082	-1.544482	0.001328	0.282729	-0.840332	0.131836	-0.450439	0.643476	-0.117847	-0.724997	-0.215478
59393		9.665207	0.894696	-0.561219	-1.412647	0.008252	0.265186	-0.839111	0.140137	-0.452637	0.642617	-0.127184	-0.721996	-0.222686
59394		9.608533	0.689582	-0.697695	-1.220307	0.003170	0.229487	-0.843750	0.153564	-0.443359	0.641825	-0.135150	-0.719301	-0.228913
59395		9.505290	0.693865	-0.621037	-1.027096	-0.004621	0.190029	-0.843750	0.168945	-0.442871	0.640990	-0.141866	-0.717091	-0.234065
59396		9.557108	0.812391	-0.524295	-0.861822	-0.014152	0.148165	-0.828613	0.167725	-0.440186	0.640191	-0.147537	-0.715208	-0.238465
59397		9.708658	1.207550	-0.341103	-0.764375	-0.010534	0.121536	-0.844482	0.187256	-0.441895	0.639508	-0.152378	-0.713464	-0.242445
59398		9.675633	1.463889	-0.315649	-0.770551	-0.009865	0.118700	-0.841797	0.186768	-0.425049	0.638757	-0.157386	-0.711670	-0.246466
59399		9.646040	1.241040	-0.456264	-0.783129	-0.010456	0.105577	-0.832520	0.198975	-0.434570	0.637816	-0.162285	-0.710009	-0.250484
59400		9.685670	1.325742	-0.596206	-0.759387	-0.019208	0.088418	-0.837646	0.192871	-0.424072	0.636936	-0.167034	-0.708238	-0.254581
59401		9.703273	1.846100	-0.370351	-0.806373	-0.027583	0.087451	-0.841064	0.202637	-0.422363	0.635814	-0.171841	-0.706563	-0.258805
59402		9.707308	2.170732	-0.244395	-0.924441	-0.029007	0.103370	-0.827881	0.207764	-0.420898	0.634514	-0.177396	-0.704571	-0.263633
59403		9.666769	1.975108	-0.234948	-1.070475	-0.043158	0.116019	-0.839355	0.220215	-0.424561	0.632971	-0.183792	-0.702187	-0.269261
59404		9.727312	1.824244	-0.272269	-1.146813	-0.050462	0.124866	-0.842529	0.235840	-0.416504	0.631252	-0.190643	-0.699575	-0.275265
59405		9.774471	1.747129	-0.360877	-1.235846	-0.040732	0.141254	-0.835938	0.242920	-0.413330	0.629388	-0.198111	-0.696619	-0.281683
59406		9.713065	1.790095	-0.372471	-1.278555	-0.028928	0.154101	-0.835205	0.254883	-0.399658	0.627524	-0.205778	-0.693372	-0.288278
59407		9.672492	1.690365	-0.477524	-1.319379	-0.027584	0.158119	-0.835938	0.268799	-0.398438	0.625467	-0.213707	-0.689984	-0.295031
59408		9.702995	1.646713	-0.471762	-1.333658	-0.033505	0.168225	-0.838867	0.276123	-0.389893	0.623336	-0.221771	-0.686439	-0.301780
59409		9.686178	1.694232	-0.248161	-1.346845	-0.034263	0.165073	-0.835205	0.283936	-0.388428	0.621051	-0.229806	-0.682844	-0.308561
59410		9.759624	1.954787	-0.134629	-1.391209	-0.029540	0.181935	-0.830322	0.297119	-0.372803	0.618727	-0.238056	-0.678955	-0.315479
59411		9.679769	1.774897	-0.123979	-1.475316	-0.029655	0.199187	-0.835449	0.305176	-0.364990	0.616135	-0.246887	-0.674735	-0.322734
59412		9.673653	1.672713	-0.070348	-1.528104	-0.039004	0.205348	-0.840576	0.327393	-0.359375	0.613267	-0.255943	-0.670357	-0.330180
59413		9.619235	1.867401	-0.092779	-1.646961	-0.047923	0.216060	-0.835205	0.339111	-0.354248	0.610031	-0.265752	-0.665495	-0.338164
59414		9.743691	2.000058	-0.156285	-1.785952	-0.045855	0.231579	-0.831787	0.345703	-0.336670	0.606480	-0.276252	-0.660016	-0.346764
59415		9.797731	1.456554	-0.647340	-1.887124	-0.049452	0.238133	-0.834473	0.356445	-0.321533	0.602481	-0.287206	-0.654164	-0.355808
59416		9.776609	0.862180	-0.927034	-1.841014	-0.054920	0.239745	-0.830566	0.373047	-0.317627	0.598360	-0.297861	-0.648364	-0.364512
59417		9.814065	0.378565	-0.811461	-1.640563	-0.046923	0.203699	-0.844238	0.384277	-0.312744	0.594651	-0.307215	-0.643009	-0.372221
59418		9.863439	0.585658	-0.446100	-1.452535	-0.039183	0.179729	-0.832764	0.392822	-0.292969	0.591282	-0.315339	-0.638198	-0.379012
59419		9.913675	0.811836	-0.022592	-1.296247	-0.032744	0.171817	-0.831543	0.406982	-0.294922	0.588197	-0.322694	-0.633778	-0.384992
59420		9.797497	0.805216	0.155398	-1.179639	-0.021893	0.171509	-0.833008	0.413330	-0.283936	0.585566	-0.329366	-0.629538	-0.390273
59421		9.716414	0.463778	-0.055666	-1.037350	-0.013132	0.153783	-0.831787	0.421387	-0.274902	0.583210	-0.335194	-0.625743	-0.394913
59422		9.561846	0.222815	-0.103768	-0.851397	-0.015644	0.124044	-0.824707	0.428223	-0.269775	0.581211	-0.339983	-0.622613	-0.398697
59423		9.536848	0.009538	-0.014828	-0.670562	-0.021665	0.068985	-0.828613	0.430664	-0.260254	0.579541	-0.343637	-0.620209	-0.401730
59424		9.580634	0.337952	0.274868	-0.531161	-0.017013	0.034995	-0.826416	0.428955	-0.263184	0.578076	-0.346438	-0.618367	-0.404266
59425		9.654926	0.614793	0.451273	-0.485045	-0.019697	0.022559	-0.820801	0.429443	-0.255859	0.576760	-0.348830	-0.616729	-0.406584
59426		9.765233	0.511399	0.321418	-0.419801	-0.012143	0.018630	-0.824219	0.442627	-0.251709	0.575628	-0.350894	-0.615276	-0.408608
59427		9.764145	0.356308	0.168657	-0.270414	-0.009487	0.006174	-0.832764	0.433594	-0.249268	0.574916	-0.352298	-0.614299	-0.409872
59428		9.731248	0.481915	-0.112334	-0.119099	-0.007394	-0.012471	-0.836914	0.448242	-0.245605	0.574480	-0.352738	-0.613968	-0.410599
59429		9.657217	0.530536	-0.186200	-0.002497	-0.019663	-0.033710	-0.817139	0.436035	-0.256104	0.574262	-0.352739	-0.614091	-0.410719
59430		9.708435	0.684976	-0.106944	0.129070	-0.014761	-0.060733	-0.823730	0.441895	-0.253418	0.574578	-0.351741	-0.614723	-0.410187
59431		9.791591	1.314365	0.111592	0.185040	-0.020399	-0.063956	-0.822266	0.432129	-0.256104	0.574963	-0.350587	-0.615566	-0.409373
59432		9.888997	1.487127	0.272282	0.177190	-0.017140	-0.045450	-0.829346	0.434082	-0.255127	0.575389	-0.349448	-0.616347	-0.408571
59433		9.759809	1.449385	0.142604	0.139958	-0.009949	-0.024104	-0.825684	0.430420	-0.247314	0.575755	-0.348623	-0.616905	-0.407917
59434		9.712881	0.916134	-0.132653	0.164970	-0.018840	-0.013268	-0.835693	0.426514	-0.254395	0.576073	-0.347851	-0.617560	-0.407136
59435		9.702609	0.759511	-0.099974	0.245432	-0.020256	-0.027187	-0.836426	0.418457	-0.253906	0.576568	-0.346496	-0.618570	-0.406055
59436		9.627751	0.583889	0.050342	0.297519	-0.022268	-0.048024	-0.830078	0.429199	-0.257080	0.577061	-0.344746	-0.619851	-0.404890
59437		9.739476	0.692956	0.061718	0.332244	-0.018692	-0.058887	-0.830566	0.430420	-0.244873	0.577771	-0.342895	-0.621191	-0.403393
59438		9.651503	0.680120	0.102457	0.378238	-0.022968	-0.075468	-0.831543	0.415527	-0.254150	0.578349	-0.340962	-0.622721	-0.401841
59439		9.708965	0.767456	0.110755	0.474233	-0.024010	-0.095394	-0.829834	0.420410	-0.257080	0.579151	-0.338240	-0.624686	-0.399933
59440		9.686811	0.805235	-0.024487	0.544999	-0.030660	-0.102022	-0.831055	0.413818	-0.269775	0.580147	-0.335253	-0.626886	-0.397553
59441		9.790349	0.790768	-0.212419	0.651000	-0.035099	-0.114611	-0.827881	0.420166	-0.272217	0.581473	-0.331547	-0.629501	-0.394582
59442		9.739690	0.714107	-0.305774	0.784817	-0.038771	-0.137516	-0.834473	0.411621	-0.274658	0.583111	-0.327217	-0.632561	-0.390868
59443		9.818940	0.463959	-0.340550	0.928447	-0.041609	-0.147909	-0.830811	0.397217	-0.279053	0.584970	-0.322111	-0.636118	-0.386533
59444		9.838380	0.585422	-0.137982	1.084408	-0.038264	-0.175273	-0.826416	0.389893	-0.287598	0.587108	-0.316000	-0.640213	-0.381543
59445		9.939183	0.921423	-0.057434	1.155175	-0.024080	-0.190888	-0.835205	0.388428	-0.295654	0.589471	-0.309372	-0.644440	-0.376177
59446		9.880972	0.954525	-0.154860	1.170508	-0.018291	-0.189457	-0.829590	0.379150	-0.303467	0.591843	-0.302684	-0.648608	-0.370691
59447		9.690858	0.556505	-0.246056	1.229802	-0.016021	-0.223068	-0.836426	0.361572	-0.309814	0.594261	-0.295472	-0.652958	-0.364961
59448		9.788575	1.061889	-0.214191	1.238984	-0.005736	-0.244740	-0.839844	0.357910	-0.316406	0.596533	-0.287950	-0.657307	-0.359417
59449		9.805501	1.412573	-0.366562	1.139135	-0.008588	-0.235308	-0.834717	0.351807	-0.319092	0.598520	-0.281033	-0.661261	-0.354300
59450		9.798753	1.084576	-0.749009	1.110710	-0.001433	-0.237315	-0.847412	0.350342	-0.327148	0.600424	-0.274281	-0.665018	-0.349301
59451		9.677969	1.110779	-0.650960	1.186164	0.002160	-0.255541	-0.843506	0.325439	-0.337158	0.602390	-0.267072	-0.668946	-0.343961
59452		9.566585	1.426402	-0.310695	1.258800	0.004232	-0.269859	-0.843018	0.320312	-0.334229	0.604440	-0.259186	-0.673078	-0.338291
59453		9.745303	1.812436	-0.065113	1.250111	0.008853	-0.265094	-0.845703	0.312988	-0.349365	0.606352	-0.251494	-0.677056	-0.332690
59454		9.763558	2.092917	-0.120008	1.188623	0.019007	-0.240129	-0.843262	0.298340	-0.364014	0.608309	-0.244147	-0.680674	-0.327162
59455		9.652518	1.621102	-0.481065	1.166303	0.022973	-0.227278	-0.837646	0.290283	-0.360596	0.610322	-0.236821	-0.684120	-0.321562
59456		9.639786	1.786459	-0.639920	1.180839	0.025586	-0.230171	-0.849121	0.282227	-0.366943	0.612239	-0.229487	-0.687520	-0.315936
59457		9.622614	1.800591	-0.733382	1.145299	0.019600	-0.223260	-0.850830	0.273682	-0.366699	0.613958	-0.222389	-0.690786	-0.310506
59458		9.754711	2.022830	-0.600355	1.094886	0.030696	-0.209044	-0.849365	0.270264	-0.381592	0.615562	-0.215650	-0.693780	-0.305365
59459		9.692105	1.856261	-0.616912	1.036477	0.030952	-0.193818	-0.843750	0.246338	-0.379150	0.617195	-0.209258	-0.696506	-0.300268
59460		9.748128	1.746739	-0.755775	0.989488	0.024396	-0.193605	-0.848145	0.241455	-0.386475	0.618570	-0.203010	-0.699144	-0.295560
59461		9.703188	1.797919	-0.708190	0.978523	0.023920	-0.181760	-0.847412	0.245117	-0.389160	0.619932	-0.196895	-0.701679	-0.290798
59462		9.649584	1.299881	-0.871775	1.011350	0.032936	-0.191608	-0.845459	0.226318	-0.391846	0.621358	-0.190659	-0.704177	-0.285830
59463		9.554352	0.530451	-0.987094	1.228806	0.025743	-0.220104	-0.844971	0.214111	-0.396973	0.622932	-0.183035	-0.707241	-0.279758
59464		9.638434	0.979382	-0.532560	1.499695	0.030767	-0.275195	-0.847900	0.198486	-0.396973	0.624744	-0.173627	-0.710901	-0.272338
59465		9.585345	0.944810	-0.516671	1.642813	0.035114	-0.301815	-0.846436	0.190918	-0.404297	0.626543	-0.163298	-0.714801	-0.264266
59466		9.527278	0.632846	-0.617304	1.905772	0.023208	-0.348805	-0.851807	0.164307	-0.409668	0.628433	-0.151372	-0.719217	-0.254725
59467		9.471273	1.456221	-0.496636	2.070532	0.028402	-0.408237	-0.852051	0.152832	-0.417969	0.630210	-0.138085	-0.723865	-0.244513
59468		9.466738	1.946646	-0.785275	2.084849	0.028769	-0.428262	-0.850342	0.130371	-0.424316	0.631818	-0.124635	-0.728308	-0.234178
59469		9.279239	1.984768	-1.232681	2.004607	0.025530	-0.442130	-0.847412	0.109863	-0.435059	0.633128	-0.111460	-0.732402	-0.224306
59470		9.327187	2.045223	-1.650542	1.936200	0.024448	-0.455677	-0.854980	0.085205	-0.429443	0.634246	-0.098488	-0.736144	-0.214763
59471		9.376753	2.461161	-1.607997	1.859958	0.019311	-0.449845	-0.853760	0.069336	-0.435303	0.634979	-0.085947	-0.739648	-0.205757
59472		9.496160	2.942595	-1.365323	1.715616	0.012153	-0.433447	-0.854736	0.052246	-0.443359	0.635491	-0.074289	-0.742730	-0.197447
59473		9.621310	3.459767	-0.998528	1.510574	0.019251	-0.378007	-0.858643	0.029785	-0.433838	0.635949	-0.064022	-0.745227	-0.190018
59474		9.562335	3.797583	-0.862641	1.239993	0.020424	-0.319421	-0.846924	0.023438	-0.434814	0.636139	-0.055523	-0.747235	-0.184075
59475		9.570768	3.864117	-1.036637	0.899625	0.015937	-0.246947	-0.844238	0.014648	-0.447998	0.636272	-0.049344	-0.748600	-0.179783
59476		9.448896	3.672874	-1.313387	0.564886	0.008622	-0.177332	-0.856445	0.007812	-0.437500	0.636432	-0.045344	-0.749361	-0.177077
59477		9.479955	3.685231	-1.423845	0.308627	0.006635	-0.116867	-0.849365	-0.009277	-0.442139	0.636399	-0.043138	-0.749819	-0.175804
59478		9.521471	3.911655	-1.407561	0.039620	0.005819	-0.046456	-0.848633	-0.005615	-0.436523	0.636424	-0.042612	-0.749833	-0.175783
59479		9.484493	3.594289	-1.499523	-0.238848	-0.004508	0.024225	-0.850586	0.001953	-0.440674	0.636342	-0.044091	-0.749491	-0.177165
59480		9.371446	3.166018	-1.332521	-0.391961	-0.010456	0.061437	-0.850342	0.006836	-0.434570	0.636252	-0.046679	-0.748908	-0.179279
59481		9.443125	2.722968	-1.339138	-0.469841	-0.010483	0.090758	-0.849365	0.012451	-0.442627	0.636116	-0.049890	-0.748218	-0.181763
59482		9.487001	2.284138	-1.181679	-0.463132	-0.010447	0.104517	-0.852783	0.018066	-0.440918	0.636071	-0.053134	-0.747468	-0.184071
59483		9.544535	1.906262	-1.074840	-0.390517	-0.007238	0.096978	-0.851562	0.017578	-0.440186	0.636028	-0.055954	-0.746824	-0.185988
59484		9.486615	1.759496	-0.903504	-0.301170	-0.005564	0.083833	-0.850342	0.024658	-0.440918	0.636006	-0.058158	-0.746316	-0.187421
59485		9.553208	1.731628	-0.884116	-0.240301	-0.003578	0.063523	-0.857910	0.031494	-0.437744	0.636007	-0.059946	-0.745884	-0.188570
59486		9.528920	1.697607	-0.982141	-0.182780	-0.000164	0.052015	-0.857422	0.027344	-0.439209	0.635985	-0.061414	-0.745558	-0.189459
59487		9.481209	1.731012	-1.240238	-0.112226	-0.001088	0.030295	-0.852539	0.028076	-0.434814	0.635965	-0.062296	-0.745359	-0.190019
59488		9.521504	1.618565	-1.248160	-0.014557	-0.002241	0.007252	-0.852539	0.030762	-0.442383	0.635938	-0.062514	-0.745344	-0.190100
59489		9.563012	1.796866	-1.187206	0.052453	-0.005551	-0.013868	-0.854004	0.038086	-0.445068	0.635954	-0.062260	-0.745418	-0.189838
59490		9.536463	2.271122	-0.959403	0.026941	-0.003910	-0.014034	-0.846680	0.026611	-0.446289	0.635990	-0.062217	-0.745420	-0.189722
59491		9.567073	2.368556	-1.035977	-0.051148	-0.003097	-0.011873	-0.852783	0.022949	-0.439697	0.636017	-0.062467	-0.745287	-0.190073
59492		9.581476	2.157407	-1.280136	-0.090828	-0.002495	-0.004411	-0.856201	0.030029	-0.435303	0.635960	-0.062949	-0.745142	-0.190674
59493		9.532684	2.004314	-1.317514	-0.067167	-0.002633	-0.003993	-0.847168	0.024658	-0.441895	0.635876	-0.063388	-0.745056	-0.191139
59494		9.535629	2.019225	-1.223413	-0.027982	-0.002489	-0.014888	-0.847412	0.034180	-0.439453	0.635874	-0.063467	-0.744988	-0.191386
59495		9.557794	2.282646	-1.077920	-0.027693	0.000447	-0.010792	-0.855469	0.037354	-0.438721	0.635889	-0.063670	-0.744901	-0.191610
59496		9.523301	2.209451	-1.021878	-0.023199	-0.000139	-0.010558	-0.851074	0.029053	-0.444824	0.635869	-0.063889	-0.744845	-0.191818
59497		9.502159	2.272033	-1.021310	-0.020589	0.000879	-0.012337	-0.848877	0.030762	-0.440186	0.635904	-0.063980	-0.744759	-0.192008
59498		9.496764	2.332289	-1.126572	-0.050846	0.000630	-0.005895	-0.848389	0.029297	-0.442627	0.635908	-0.064294	-0.744638	-0.192358
59499		9.534378	2.208299	-1.149082	-0.044836	-0.002791	-0.004018	-0.848389	0.029297	-0.446777	0.635912	-0.064569	-0.744534	-0.192657
59500		9.497654	2.179743	-1.110739	-0.030049	-0.004363	-0.007407	-0.852051	0.035889	-0.445557	0.635935	-0.064739	-0.744443	-0.192874
59501		9.461616	2.322284	-1.071257	-0.054185	-0.002789	-0.007108	-0.852295	0.029053	-0.445557	0.635941	-0.065105	-0.744310	-0.193242
59502		9.521872	2.121030	-1.151354	-0.080467	-0.002066	-0.001990	-0.854004	0.037354	-0.445557	0.635935	-0.065567	-0.744141	-0.193757
59503		9.447176	1.980657	-1.153916	-0.051579	-0.001606	-0.013406	-0.846191	0.026123	-0.435791	0.635931	-0.065882	-0.744016	-0.194146
59504		9.490938	2.049000	-1.137459	-0.012919	-0.000852	-0.020965	-0.852051	0.034912	-0.439209	0.635889	-0.065835	-0.744001	-0.194356
59505		9.505075	2.065048	-1.107324	0.014160	0.000033	-0.027205	-0.855225	0.023926	-0.445312	0.635870	-0.065692	-0.744012	-0.194421
59506		9.540662	2.039609	-1.143171	0.070203	0.000285	-0.039939	-0.854004	0.031494	-0.435059	0.635879	-0.065065	-0.744113	-0.194218
59507		9.560958	2.094505	-1.141633	0.118907	0.005251	-0.042180	-0.854004	0.029297	-0.439453	0.635888	-0.064251	-0.744305	-0.193723
59508		9.455217	1.991193	-1.213258	0.164316	0.006765	-0.045627	-0.848145	0.029541	-0.442627	0.635952	-0.063159	-0.744541	-0.192962
59509		9.479349	1.694157	-1.327050	0.278557	0.013928	-0.067266	-0.854736	0.022461	-0.448486	0.636123	-0.061329	-0.744899	-0.191603
59510		9.446845	1.485420	-1.329071	0.431503	0.015012	-0.093142	-0.852295	0.022949	-0.443359	0.636338	-0.058485	-0.745498	-0.189438
59511		9.549741	1.709506	-1.192410	0.581892	0.018731	-0.122020	-0.855713	0.010498	-0.441650	0.636571	-0.054705	-0.746331	-0.186482
59512		9.554005	2.009401	-1.082111	0.656808	0.025367	-0.131996	-0.847656	0.007568	-0.437744	0.636814	-0.050396	-0.747259	-0.183121
59513		9.553564	2.004048	-1.291101	0.730387	0.033819	-0.139729	-0.854736	0.004150	-0.440674	0.637109	-0.045665	-0.748229	-0.179332
59514		9.474888	1.541292	-1.471732	0.867762	0.036563	-0.154992	-0.837402	-0.012939	-0.451660	0.637418	-0.040142	-0.749364	-0.174756
59515		9.474628	1.335581	-1.761000	1.093212	0.046135	-0.194456	-0.850830	-0.025879	-0.450684	0.637869	-0.033063	-0.750648	-0.168989
59516		9.369892	0.815531	-1.915296	1.452948	0.052238	-0.251464	-0.853760	-0.037842	-0.441650	0.638244	-0.023693	-0.752382	-0.161260
59517		9.335119	0.734637	-1.721011	1.878546	0.055761	-0.328222	-0.841797	-0.044434	-0.444580	0.638430	-0.011593	-0.754589	-0.151223
59518		9.445378	1.210719	-1.293176	2.229041	0.060190	-0.397688	-0.837891	-0.072754	-0.445557	0.638469	0.002715	-0.756933	-0.139294
59519		9.583084	1.726355	-1.170493	2.427523	0.068777	-0.435748	-0.853516	-0.104492	-0.436035	0.638284	0.018392	-0.759150	-0.126280
59520		9.491837	2.213632	-1.323419	2.525456	0.076723	-0.456500	-0.846680	-0.124268	-0.433838	0.637721	0.034788	-0.761186	-0.112686
59521		9.441298	2.581536	-1.631581	2.558402	0.078324	-0.463608	-0.847168	-0.147217	-0.433350	0.636889	0.051344	-0.762864	-0.098866
59522		9.391887	3.346984	-1.818283	2.479301	0.086126	-0.442026	-0.838623	-0.173340	-0.422607	0.635894	0.067295	-0.764080	-0.085392
59523		9.309218	3.789223	-2.040310	2.225247	0.086828	-0.387117	-0.838135	-0.199219	-0.414062	0.634814	0.081570	-0.764851	-0.073213
59524		9.317810	3.623429	-2.504378	1.953248	0.080944	-0.320684	-0.840088	-0.211182	-0.414551	0.633687	0.094014	-0.765316	-0.062397
59525		9.221418	3.519670	-2.678195	1.726294	0.075285	-0.255604	-0.838623	-0.233398	-0.404053	0.632622	0.104727	-0.765536	-0.052679
59526		9.274486	3.389038	-2.614909	1.539451	0.060323	-0.199955	-0.834229	-0.238770	-0.406006	0.631478	0.114171	-0.765687	-0.043859
59527		9.429132	3.429300	-2.332846	1.338115	0.054342	-0.138112	-0.839600	-0.253906	-0.390137	0.630497	0.122030	-0.765692	-0.036024
59528		9.419785	3.452904	-2.118546	1.137700	0.059838	-0.074568	-0.834229	-0.255615	-0.386963	0.629580	0.128501	-0.765684	-0.029057
59529		9.365566	3.148513	-2.047974	1.002656	0.068619	-0.028721	-0.829346	-0.255859	-0.379883	0.628857	0.133886	-0.765570	-0.022699
59530		9.273149	2.580893	-2.047092	0.877921	0.068233	-0.014768	-0.827637	-0.275391	-0.382080	0.628226	0.138464	-0.765422	-0.017033
59531		9.176552	2.238487	-2.128136	0.812545	0.065511	-0.002344	-0.832031	-0.276367	-0.376953	0.627660	0.142770	-0.765193	-0.011806
59532		9.174292	1.801410	-2.200411	0.724155	0.058486	-0.026552	-0.833008	-0.278564	-0.371338	0.627090	0.146707	-0.764972	-0.007225
59533		9.358063	1.621960	-2.342542	0.672589	0.047345	-0.030074	-0.828369	-0.284668	-0.364014	0.626459	0.150367	-0.764807	-0.002961
59534		9.480878	1.645003	-2.377167	0.708222	0.040931	-0.047301	-0.833984	-0.297363	-0.376221	0.625690	0.154377	-0.764642	0.001451
59535		9.460706	1.847274	-2.216174	0.760983	0.039233	-0.052891	-0.835693	-0.298340	-0.367188	0.624937	0.158699	-0.764351	0.006040
59536		9.467927	2.001230	-1.923616	0.756887	0.041011	-0.063072	-0.830566	-0.302734	-0.367188	0.624112	0.163022	-0.764065	0.010634
59537		9.507893	2.403035	-1.858108	0.714039	0.041623	-0.049370	-0.820312	-0.302490	-0.361328	0.623378	0.167006	-0.763731	0.014977
59538		9.271769	2.689972	-1.837666	0.597187	0.051957	-0.030460	-0.838623	-0.305908	-0.362549	0.622868	0.170227	-0.763354	0.018681
59539		9.304722	2.476036	-2.179653	0.466491	0.046798	-0.020892	-0.825439	-0.314453	-0.353271	0.622456	0.172622	-0.763073	0.021668
59540		9.321091	2.147880	-2.659383	0.426281	0.039925	0.009819	-0.830322	-0.324951	-0.349121	0.622014	0.174783	-0.762855	0.024531
59541		9.183627	2.185084	-2.616243	0.468445	0.035488	0.011757	-0.825928	-0.317139	-0.355713	0.621419	0.177272	-0.762657	0.027689
59542		9.229649	1.962873	-2.266910	0.440247	0.036286	-0.004878	-0.828857	-0.322266	-0.353271	0.620988	0.179509	-0.762378	0.030499
59543		9.336977	1.904084	-2.260879	0.319611	0.039203	0.008973	-0.833008	-0.322266	-0.339355	0.620724	0.181065	-0.762136	0.032634
59544		9.235297	1.869594	-2.340996	0.215064	0.045652	0.007099	-0.829834	-0.316650	-0.347412	0.620500	0.182145	-0.761989	0.034295
59545		9.284032	1.684046	-2.464840	0.189937	0.040871	-0.004943	-0.827881	-0.322754	-0.345947	0.620402	0.183011	-0.761800	0.035626
59546		9.400775	1.728237	-2.459330	0.176745	0.033175	-0.015885	-0.825439	-0.317139	-0.344971	0.620271	0.183974	-0.761619	0.036784
59547		9.490616	1.951979	-2.333157	0.128046	0.030902	-0.006485	-0.832031	-0.320557	-0.346680	0.620209	0.184529	-0.761491	0.037696
59548		9.396812	2.139091	-2.083659	0.071085	0.031462	-0.001426	-0.830811	-0.320557	-0.346680	0.620227	0.184766	-0.761390	0.038283
59549		9.304629	2.469582	-1.909330	-0.041878	0.037173	0.005036	-0.824463	-0.329346	-0.342529	0.620459	0.184376	-0.761300	0.038187
59550		9.426510	2.361770	-2.113671	-0.254712	0.023896	0.032889	-0.829102	-0.325439	-0.345947	0.620890	0.182925	-0.761365	0.036848
59551		9.393436	2.019345	-2.300219	-0.370454	0.022750	0.053245	-0.826416	-0.313965	-0.344238	0.621484	0.180681	-0.761508	0.034892
59552		9.332074	1.753747	-2.375529	-0.381994	0.016980	0.051009	-0.827148	-0.321777	-0.358154	0.622031	0.178291	-0.761714	0.032905
59553		9.330029	1.937937	-2.136313	-0.401891	0.017575	0.046784	-0.822510	-0.311279	-0.351074	0.622726	0.175906	-0.761797	0.030562
59554		9.326563	2.329679	-2.090849	-0.553209	0.032139	0.055042	-0.827637	-0.315430	-0.353027	0.623647	0.172644	-0.761909	0.027451
59555		9.292366	2.337618	-2.295141	-0.714799	0.027314	0.073641	-0.822998	-0.310547	-0.364990	0.624707	0.168556	-0.762090	0.023432
59556		9.281477	2.287899	-2.476866	-0.792097	0.021830	0.079773	-0.827881	-0.302734	-0.365723	0.625925	0.163975	-0.762218	0.018784
59557		9.300112	2.522317	-2.322694	-0.917632	0.018289	0.098636	-0.837402	-0.290771	-0.367920	0.627201	0.158593	-0.762420	0.013524
59558		9.315315	2.677833	-2.196424	-1.142751	0.014601	0.132151	-0.829834	-0.280273	-0.380127	0.628640	0.151717	-0.762721	0.007117
59559		9.432028	2.483168	-2.176069	-1.342873	0.011395	0.158891	-0.833008	-0.269043	-0.391357	0.630349	0.143556	-0.762923	-0.000591
59560		9.504905	2.387774	-2.268761	-1.474815	0.005485	0.186920	-0.828613	-0.258301	-0.388428	0.632129	0.134458	-0.763054	-0.009055
59561		9.549692	2.433198	-2.161253	-1.545109	0.009031	0.205457	-0.835205	-0.249512	-0.402100	0.633833	0.124958	-0.763103	-0.017760
59562		9.471963	2.713112	-2.046036	-1.640707	0.026844	0.233082	-0.834229	-0.234863	-0.414795	0.635681	0.114774	-0.762895	-0.026977
59563		9.377003	2.539642	-2.070073	-1.781987	0.024480	0.258092	-0.829834	-0.215332	-0.420166	0.637587	0.103621	-0.762478	-0.037056
59564		9.420151	2.296233	-2.157942	-1.808006	0.015782	0.264695	-0.833252	-0.205078	-0.417480	0.639323	0.092219	-0.761923	-0.047272
59565		9.338694	2.532229	-1.904735	-1.820265	0.001535	0.281242	-0.834717	-0.174561	-0.432129	0.640730	0.080774	-0.761351	-0.057320
59566		9.265346	2.736352	-1.677089	-1.895972	-0.002067	0.294818	-0.832764	-0.160645	-0.430420	0.642106	0.068530	-0.760522	-0.067895
59567		9.452467	2.407161	-1.594349	-2.009034	-0.013862	0.311116	-0.840820	-0.144531	-0.437012	0.643246	0.055662	-0.759536	-0.079003
59568		9.606662	2.329783	-1.634305	-2.043653	-0.015404	0.329002	-0.837891	-0.123779	-0.450684	0.644194	0.042516	-0.758336	-0.090182
59569		9.384180	2.562692	-1.540762	-2.129159	-0.004361	0.347076	-0.844727	-0.108887	-0.444092	0.645154	0.028743	-0.756677	-0.101932
59570		9.233683	1.949719	-1.627664	-2.221188	-0.009287	0.347300	-0.842773	-0.084473	-0.449707	0.645760	0.014597	-0.754837	-0.114025
59571		9.383147	1.710944	-1.674276	-2.168072	-0.022082	0.317839	-0.835449	-0.067871	-0.451904	0.646064	0.000849	-0.752817	-0.125962
59572		9.474394	2.185722	-1.596665	-2.122498	-0.021547	0.307955	-0.849609	-0.033691	-0.453857	0.646181	-0.012514	-0.750562	-0.137662
59573		9.467198	1.946429	-1.463269	-2.119585	-0.031446	0.312676	-0.849121	-0.017334	-0.461426	0.645987	-0.026139	-0.748163	-0.149230
59574		9.601126	1.638259	-1.358487	-1.951044	-0.033183	0.286512	-0.840576	-0.003662	-0.464355	0.645652	-0.038618	-0.745700	-0.159920
59575		9.653407	2.207244	-1.030942	-1.874557	-0.021073	0.285851	-0.842285	0.016357	-0.458740	0.645303	-0.050565	-0.743014	-0.170166
59576		9.550742	2.055348	-1.014005	-1.902092	-0.014156	0.304872	-0.843506	0.034668	-0.453613	0.644800	-0.062777	-0.740107	-0.180370
59577		9.540198	1.395109	-1.175588	-1.768171	-0.019361	0.277315	-0.841797	0.056641	-0.458252	0.644098	-0.074082	-0.737311	-0.189795
59578		9.687660	2.021173	-0.870803	-1.656238	-0.016873	0.264930	-0.842041	0.074219	-0.454346	0.643384	-0.084763	-0.734447	-0.198645
59579		9.552453	2.650492	-0.754826	-1.713331	-0.004829	0.289728	-0.845703	0.089355	-0.458740	0.642595	-0.095882	-0.731270	-0.207658
59580		9.463070	1.990294	-1.115851	-1.790327	-0.012051	0.296483	-0.842285	0.108887	-0.456543	0.641601	-0.107402	-0.727797	-0.217082
59581		9.410616	1.135955	-1.212333	-1.633075	-0.024991	0.265404	-0.845215	0.114502	-0.443115	0.640497	-0.117919	-0.724519	-0.225681
59582		9.606380	1.383940	-0.887125	-1.469680	-0.043549	0.221235	-0.843506	0.142090	-0.437012	0.639146	-0.127160	-0.721721	-0.233327
59583		9.719054	1.864329	-0.533051	-1.484639	-0.040389	0.229026	-0.831055	0.145996	-0.435059	0.637714	-0.136716	-0.718706	-0.241023
59584		9.627198	1.245439	-0.483154	-1.470035	-0.035286	0.213841	-0.850342	0.155518	-0.429688	0.636257	-0.145923	-0.715560	-0.248712
59585		9.624792	0.979319	-0.377096	-1.395213	-0.039942	0.177051	-0.841064	0.176514	-0.431885	0.634600	-0.154419	-0.712671	-0.256004
59586		9.719192	1.677062	-0.210789	-1.359651	-0.050848	0.161507	-0.840088	0.195068	-0.424316	0.632903	-0.162757	-0.709687	-0.263225
59587		9.627017	2.167511	-0.066715	-1.454693	-0.046929	0.165053	-0.842773	0.195801	-0.424805	0.631006	-0.171688	-0.706354	-0.270960
59588		9.634615	2.311260	-0.193513	-1.594505	-0.050229	0.180854	-0.847412	0.212402	-0.406250	0.628842	-0.181228	-0.702615	-0.279368
59589		9.569021	2.634628	-0.500197	-1.728395	-0.054856	0.208337	-0.842529	0.220459	-0.403809	0.626273	-0.191686	-0.698519	-0.288286
59590		9.586953	2.746114	-0.689237	-1.873501	-0.071009	0.232215	-0.846191	0.239502	-0.403809	0.623343	-0.202929	-0.693937	-0.297851
59591		9.613678	2.286155	-1.006907	-1.991434	-0.070315	0.245976	-0.840576	0.256348	-0.390869	0.620142	-0.214810	-0.688787	-0.307981
59592		9.585969	1.789660	-1.111573	-2.041896	-0.066261	0.260956	-0.848145	0.273438	-0.380859	0.616726	-0.226995	-0.683262	-0.318238
59593		9.571034	1.272272	-1.127169	-1.969338	-0.066322	0.245936	-0.835449	0.288574	-0.374756	0.613196	-0.238647	-0.677805	-0.328054
59594		9.741449	1.280741	-0.683851	-1.790902	-0.072546	0.225842	-0.841797	0.302002	-0.364258	0.609869	-0.249218	-0.672650	-0.336886
59595		9.814569	1.551289	-0.101727	-1.639287	-0.058656	0.223293	-0.841553	0.311279	-0.355957	0.606762	-0.258894	-0.667764	-0.344827
59596		9.871026	1.615544	0.111222	-1.523958	-0.045496	0.237810	-0.841797	0.334717	-0.337158	0.603912	-0.267927	-0.663015	-0.352018
59597		9.745856	1.172348	-0.043317	-1.414795	-0.042958	0.243215	-0.837646	0.343018	-0.338623	0.601159	-0.276617	-0.658444	-0.358527
59598		9.711354	0.696771	-0.213091	-1.239355	-0.034438	0.227231	-0.834229	0.351807	-0.329102	0.598844	-0.284163	-0.654256	-0.364124
59599		9.662364	0.536931	-0.177996	-1.061984	-0.020242	0.193768	-0.837891	0.357422	-0.327881	0.596857	-0.290574	-0.650561	-0.368915
59600		9.662978	0.481555	-0.240325	-0.969869	-0.008975	0.170858	-0.835205	0.362061	-0.316406	0.595064	-0.296253	-0.647121	-0.373321
59601		9.637928	0.325082	-0.247468	-0.845752	-0.010939	0.119472	-0.838623	0.367432	-0.305176	0.593313	-0.301044	-0.644207	-0.377293
59602		9.648326	0.629064	0.039116	-0.753464	-0.005392	0.084527	-0.840088	0.376465	-0.303223	0.591597	-0.305198	-0.641667	-0.380960
59603		9.650920	0.708857	-0.022224	-0.773296	-0.005126	0.071099	-0.836670	0.385010	-0.313965	0.589799	-0.309385	-0.639036	-0.384773
59604		9.726416	0.362575	-0.093369	-0.691448	-0.010618	0.043344	-0.830811	0.390137	-0.294434	0.588280	-0.312930	-0.636636	-0.388196
59605		9.812133	0.502058	0.298614	-0.540035	-0.010825	0.008462	-0.841309	0.391357	-0.296875	0.586887	-0.315714	-0.634831	-0.390996
59606		9.977522	1.250743	0.527062	-0.506198	0.000596	0.013168	-0.837646	0.389160	-0.293457	0.585652	-0.318209	-0.633093	-0.393635
59607		9.913778	1.332304	0.189786	-0.541113	0.012524	0.040610	-0.835205	0.389893	-0.295898	0.584465	-0.320926	-0.631115	-0.396360
59608		9.753811	0.964017	-0.110888	-0.418736	0.017535	0.045883	-0.831787	0.395996	-0.287598	0.583711	-0.322970	-0.629480	-0.398406
59609		9.773077	1.253698	-0.084312	-0.251787	0.019614	0.046068	-0.835205	0.397217	-0.285889	0.583373	-0.324307	-0.628368	-0.399568
59610		9.819262	1.777134	0.083879	-0.186867	0.029671	0.059792	-0.828369	0.398682	-0.292725	0.583274	-0.325355	-0.627406	-0.400371
59611		9.643137	1.548027	-0.013994	-0.197263	0.027258	0.091972	-0.836426	0.396240	-0.284180	0.583370	-0.326559	-0.626288	-0.401001
59612		9.507554	1.043670	-0.221263	-0.121580	0.021015	0.071213	-0.837891	0.407715	-0.285645	0.583393	-0.327323	-0.625592	-0.401431
59613		9.546881	0.971487	0.035215	-0.039097	0.007670	0.031894	-0.836914	0.393311	-0.287598	0.583496	-0.327618	-0.625287	-0.401516
59614		9.656573	1.310163	0.557362	-0.073584	0.017293	0.020211	-0.826172	0.402344	-0.285156	0.583475	-0.327796	-0.624931	-0.401955
59615		9.725049	1.506997	0.702121	-0.195518	0.016632	0.049399	-0.825439	0.406738	-0.273438	0.583293	-0.328869	-0.624008	-0.402777
59616		9.719861	0.976458	0.336251	-0.256426	0.021839	0.066809	-0.830078	0.404053	-0.282471	0.582904	-0.330464	-0.622808	-0.403889
59617		9.664792	0.352751	-0.133722	-0.114784	0.017085	0.044317	-0.835449	0.405029	-0.286133	0.582880	-0.331086	-0.622193	-0.404361
59618		9.760984	0.357850	-0.189360	0.094744	0.011071	0.003809	-0.830811	0.413818	-0.283691	0.583279	-0.330446	-0.622438	-0.403934
59619		9.741582	0.694506	0.111048	0.247400	0.004730	-0.025216	-0.827637	0.404785	-0.279541	0.583996	-0.329085	-0.623250	-0.402755
59620		9.712266	1.076048	0.341690	0.311196	0.001638	-0.049268	-0.832275	0.404297	-0.284912	0.584695	-0.327289	-0.624390	-0.401436
59621		9.721443	1.149394	0.392022	0.308018	0.004748	-0.041604	-0.821533	0.398193	-0.289062	0.585443	-0.325511	-0.625480	-0.400092
59622		9.742622	0.818300	0.239030	0.328606	0.007091	-0.035703	-0.840576	0.395996	-0.293945	0.586350	-0.323607	-0.626594	-0.398563
59623		9.742690	0.464992	0.021384	0.429397	0.008466	-0.058152	-0.831787	0.404785	-0.292480	0.587360	-0.321032	-0.628139	-0.396722
59624		9.725995	0.420698	-0.078459	0.574948	-0.001425	-0.079012	-0.836426	0.395264	-0.298096	0.588688	-0.317853	-0.630184	-0.394062
59625		9.702573	0.427332	-0.026286	0.737461	-0.005014	-0.103599	-0.831299	0.380615	-0.310547	0.590294	-0.313665	-0.632862	-0.390709
59626		9.665961	0.123597	-0.013870	0.901380	-0.015864	-0.135486	-0.841309	0.384521	-0.302490	0.592224	-0.308350	-0.636200	-0.386576
59627		9.738597	0.079308	0.192923	1.123886	-0.021049	-0.182898	-0.833496	0.378418	-0.316406	0.594320	-0.301932	-0.640347	-0.381545
59628		9.765887	0.536096	0.373501	1.256616	-0.015796	-0.214201	-0.838867	0.371826	-0.319336	0.596774	-0.294600	-0.644866	-0.375793
59629		9.744292	0.397869	0.120949	1.372225	-0.018540	-0.238988	-0.842041	0.362061	-0.327637	0.599274	-0.286608	-0.649746	-0.369536
59630		9.715437	0.386516	-0.197331	1.534960	-0.012112	-0.268804	-0.840820	0.338379	-0.339111	0.602013	-0.277583	-0.655069	-0.362509
59631		9.741300	0.846097	-0.290251	1.723350	0.001769	-0.308107	-0.840576	0.337646	-0.347412	0.605030	-0.267159	-0.660896	-0.354656
59632		9.732088	1.495949	-0.427093	1.790054	0.005239	-0.315018	-0.843506	0.309570	-0.352783	0.608109	-0.256450	-0.666716	-0.346304
59633		9.684428	1.369715	-0.643576	1.834833	0.003753	-0.321197	-0.843994	0.295410	-0.363281	0.611004	-0.245322	-0.672598	-0.337792
59634		9.586404	1.471134	-0.529633	1.877850	-0.000533	-0.344410	-0.836426	0.282227	-0.374756	0.613773	-0.233802	-0.678496	-0.329034
59635		9.636774	2.130107	-0.323690	1.768025	0.006394	-0.350569	-0.844971	0.269043	-0.380615	0.616296	-0.222748	-0.683866	-0.320764
59636		9.714501	2.528209	-0.310461	1.606404	0.009276	-0.327024	-0.848633	0.254639	-0.387939	0.618412	-0.212656	-0.688619	-0.313285
59637		9.658342	2.672240	-0.390686	1.434002	0.016388	-0.294261	-0.840332	0.247803	-0.388916	0.620235	-0.203590	-0.692717	-0.306598
59638		9.610092	2.767703	-0.625526	1.327062	0.014576	-0.269889	-0.847168	0.231689	-0.405518	0.621862	-0.195304	-0.696383	-0.300323
59639		9.537739	2.569598	-0.791957	1.220728	0.013653	-0.232605	-0.853760	0.213135	-0.403809	0.623405	-0.187635	-0.699640	-0.294385
59640		9.523773	2.169799	-0.909582	1.184646	0.012321	-0.222389	-0.851807	0.209229	-0.409668	0.624723	-0.180170	-0.702789	-0.288699
59641		9.612955	2.318249	-0.727907	1.151967	0.005328	-0.214513	-0.856201	0.190186	-0.416992	0.625959	-0.172986	-0.705780	-0.283065
59642		9.649165	2.493054	-0.480113	1.058491	0.008834	-0.193864	-0.850342	0.191162	-0.423828	0.627067	-0.166280	-0.708466	-0.277875
59643		9.662565	2.384076	-0.369416	0.966069	0.013440	-0.170080	-0.853516	0.178711	-0.420654	0.628174	-0.160265	-0.710766	-0.272991
59644		9.638724	2.256579	-0.442790	0.900613	0.022539	-0.154008	-0.848145	0.174805	-0.425293	0.629161	-0.154663	-0.712845	-0.268492
59645		9.553243	1.907618	-0.568890	0.897417	0.013957	-0.154311	-0.851318	0.158691	-0.424561	0.630109	-0.149116	-0.714890	-0.263932
59646		9.576420	1.839009	-0.541587	0.925633	0.014251	-0.162450	-0.849365	0.153076	-0.430176	0.630975	-0.143307	-0.717005	-0.259302
59647		9.661539	1.640089	-0.657987	0.952480	0.023596	-0.158845	-0.849609	0.145264	-0.429688	0.631941	-0.137360	-0.719056	-0.254443
59648		9.553608	1.133773	-0.865366	1.068751	0.013262	-0.183674	-0.854004	0.132324	-0.435059	0.632853	-0.130692	-0.721394	-0.249012
59649		9.549676	1.095635	-0.738169	1.266580	0.013874	-0.238642	-0.850586	0.119873	-0.439453	0.633808	-0.122598	-0.724136	-0.242661
59650		9.620243	1.704309	-0.478541	1.337591	0.017429	-0.261829	-0.848389	0.105957	-0.444092	0.634763	-0.113955	-0.726924	-0.235950
59651		9.651414	2.188084	-0.477657	1.297543	0.020656	-0.258428	-0.853271	0.096924	-0.441406	0.635651	-0.105507	-0.729510	-0.229416
59652		9.502593	2.134782	-0.689928	1.235925	0.019595	-0.261318	-0.851318	0.080322	-0.442871	0.636342	-0.097426	-0.731927	-0.223295
59653		9.421876	1.973496	-1.084562	1.222345	0.022228	-0.264749	-0.856689	0.072021	-0.442871	0.636960	-0.089343	-0.734233	-0.217258
59654		9.353849	1.951081	-1.245393	1.246469	0.021567	-0.284566	-0.853271	0.059326	-0.457031	0.637456	-0.081057	-0.736535	-0.211177
59655		9.363458	2.041121	-1.297602	1.270167	0.021404	-0.302062	-0.854004	0.048584	-0.452881	0.637979	-0.072479	-0.738740	-0.204923
59656		9.390833	2.342845	-1.065832	1.270463	0.025427	-0.301913	-0.846680	0.031982	-0.453613	0.638408	-0.063934	-0.740860	-0.198681
59657		9.457399	2.673116	-0.915246	1.183658	0.021638	-0.297302	-0.849854	0.020020	-0.454346	0.638726	-0.055841	-0.742761	-0.192916
59658		9.481024	3.161428	-0.827229	1.018132	0.022991	-0.267707	-0.850830	0.002930	-0.445312	0.638953	-0.048820	-0.744317	-0.188014
59659		9.462166	3.377838	-0.900420	0.809641	0.024804	-0.232416	-0.859863	-0.009277	-0.459473	0.639034	-0.043099	-0.745534	-0.184274
59660		9.458339	3.286729	-1.190149	0.595937	0.020541	-0.187902	-0.849609	-0.014893	-0.447510	0.639120	-0.038744	-0.746361	-0.181576
59661		9.432662	3.191691	-1.422169	0.432606	0.011709	-0.144066	-0.851074	-0.015381	-0.449219	0.639101	-0.035578	-0.746992	-0.179689
59662		9.468402	3.220478	-1.432956	0.295546	0.004834	-0.121253	-0.843994	-0.014893	-0.452637	0.639038	-0.033335	-0.747429	-0.178521
59663		9.531664	3.438706	-1.378987	0.134203	-0.001004	-0.075885	-0.855713	-0.028320	-0.445801	0.639015	-0.032263	-0.747600	-0.178080
59664		9.581037	3.483052	-1.302211	-0.043428	-0.005445	-0.026696	-0.851318	-0.023438	-0.453125	0.638881	-0.032377	-0.747598	-0.178552
59665		9.560832	3.384687	-1.301121	-0.191791	-0.012262	0.018300	-0.848633	-0.021973	-0.454834	0.638806	-0.033593	-0.747342	-0.179664
59666		9.435674	2.823257	-1.295259	-0.281359	-0.013992	0.061172	-0.851074	-0.015137	-0.451904	0.638777	-0.035546	-0.746930	-0.181097
59667		9.489469	2.304377	-1.205046	-0.262317	-0.010439	0.061382	-0.846680	-0.024902	-0.453369	0.638749	-0.037436	-0.746539	-0.182421
59668		9.536639	2.308066	-1.100066	-0.223145	-0.011557	0.067482	-0.844238	-0.007568	-0.449707	0.638742	-0.039034	-0.746206	-0.183472
59669		9.485650	2.165442	-0.891898	-0.192385	-0.008946	0.055562	-0.850586	-0.014160	-0.456543	0.638743	-0.040526	-0.745900	-0.184384
59670		9.523151	2.124930	-0.785866	-0.153636	-0.006202	0.053112	-0.848145	0.000000	-0.448975	0.638782	-0.041706	-0.745632	-0.185071
59671		9.492604	2.159948	-0.857400	-0.160665	-0.000810	0.048349	-0.842773	-0.010498	-0.458252	0.638816	-0.043004	-0.745340	-0.185830
59672		9.497447	2.173621	-1.050732	-0.157780	-0.001813	0.047448	-0.844482	0.000977	-0.461670	0.638905	-0.044149	-0.745014	-0.186562
59673		9.435409	2.015238	-1.289049	-0.117778	-0.004686	0.029090	-0.851807	-0.008545	-0.448975	0.638988	-0.045050	-0.744748	-0.187124
59674		9.445402	1.980996	-1.297552	-0.059088	-0.005425	0.011656	-0.851074	0.001709	-0.449463	0.638939	-0.045470	-0.744678	-0.187468
59675		9.512899	2.281250	-1.160994	-0.035638	-0.005755	0.009200	-0.848633	0.000488	-0.442383	0.638911	-0.045828	-0.744631	-0.187663
59676		9.564901	2.476816	-0.995961	-0.058127	-0.005693	0.006829	-0.848145	-0.002686	-0.455566	0.638834	-0.046286	-0.744578	-0.188023
59677		9.538776	2.438935	-0.963067	-0.099721	-0.003271	0.019514	-0.844727	0.000732	-0.453369	0.638855	-0.046985	-0.744381	-0.188555
59678		9.533800	2.339669	-1.084026	-0.118001	-0.005139	0.023871	-0.844971	-0.002197	-0.452148	0.638863	-0.047831	-0.744163	-0.189176
59679		9.464497	2.183697	-1.147202	-0.111463	-0.001391	0.022209	-0.851562	0.006348	-0.446777	0.638879	-0.048593	-0.743947	-0.189775
59680		9.433877	1.887572	-1.245089	-0.052584	-0.006630	0.006801	-0.847412	0.011963	-0.450928	0.638818	-0.049029	-0.743891	-0.190091
59681		9.491617	1.968595	-1.123923	0.040832	-0.004838	-0.013409	-0.842285	-0.001465	-0.453369	0.638819	-0.048869	-0.743944	-0.189920
59682		9.546224	2.044908	-0.950420	0.094135	-0.001586	-0.022299	-0.848877	0.002197	-0.455078	0.638861	-0.048250	-0.744061	-0.189480
59683		9.617240	2.242222	-0.870958	0.120877	0.002425	-0.023999	-0.848877	0.008057	-0.451172	0.638930	-0.047512	-0.744201	-0.188880
59684		9.522524	2.032505	-0.968519	0.136127	0.003737	-0.020941	-0.850342	-0.003174	-0.450439	0.639002	-0.046772	-0.744368	-0.188163
59685		9.556148	1.708856	-1.205992	0.248081	0.002039	-0.041809	-0.842773	-0.001953	-0.454102	0.639052	-0.045230	-0.744744	-0.186877
59686		9.463967	1.491861	-1.137570	0.404427	0.002975	-0.074562	-0.848389	-0.004395	-0.454834	0.639157	-0.042668	-0.745327	-0.184784
59687		9.562758	1.762296	-1.073411	0.501485	0.002258	-0.098332	-0.852783	-0.017822	-0.458740	0.639236	-0.039457	-0.746070	-0.182210
59688		9.512697	1.757818	-1.052705	0.584357	0.004805	-0.112010	-0.849365	-0.019287	-0.448486	0.639321	-0.035649	-0.746917	-0.179202
59689		9.482071	1.377572	-1.231581	0.743579	0.009501	-0.133750	-0.852295	-0.018555	-0.455566	0.639388	-0.030892	-0.747994	-0.175308
59690		9.405466	1.338486	-1.180407	0.978255	0.021108	-0.185533	-0.847412	-0.037109	-0.455322	0.639520	-0.024601	-0.749292	-0.170208
59691		9.453635	1.619056	-1.169024	1.156944	0.028422	-0.214559	-0.847900	-0.050049	-0.448730	0.639642	-0.017093	-0.750747	-0.164147
59692		9.412739	1.757660	-1.208710	1.300749	0.039688	-0.247065	-0.842285	-0.061279	-0.440674	0.639703	-0.008593	-0.752296	-0.157341
59693		9.428325	1.752089	-1.457153	1.450325	0.040805	-0.277185	-0.843262	-0.080566	-0.447754	0.639630	0.000881	-0.753958	-0.149731
59694		9.406272	1.855680	-1.659446	1.593557	0.049272	-0.303804	-0.841064	-0.091553	-0.437988	0.639505	0.011338	-0.755596	-0.141347
59695		9.364190	1.800236	-1.803328	1.762015	0.057320	-0.332070	-0.838623	-0.102783	-0.441162	0.639215	0.022835	-0.757269	-0.132009
59696		9.347235	1.954616	-1.808752	1.940983	0.069796	-0.363063	-0.846436	-0.122803	-0.445557	0.638820	0.035438	-0.758848	-0.121668
59697		9.404023	2.527330	-1.583236	2.025093	0.070779	-0.370895	-0.833252	-0.150146	-0.430176	0.638236	0.048524	-0.760278	-0.110805
59698		9.402578	3.040664	-1.474845	1.984494	0.075497	-0.357843	-0.840332	-0.167480	-0.435791	0.637480	0.061388	-0.761466	-0.100100
59699		9.390832	3.179910	-1.582228	1.872033	0.077484	-0.331462	-0.836914	-0.181885	-0.430664	0.636684	0.073435	-0.762332	-0.089948
59700		9.401188	3.262519	-1.922197	1.723421	0.091089	-0.299308	-0.831055	-0.198242	-0.423828	0.635948	0.084453	-0.762857	-0.080539
59701		9.235132	3.203535	-2.215285	1.598644	0.085321	-0.253908	-0.843018	-0.213379	-0.418701	0.635165	0.094510	-0.763215	-0.071674
59702		9.249530	3.276151	-2.240893	1.500441	0.071890	-0.227642	-0.833008	-0.226562	-0.411865	0.634231	0.103838	-0.763522	-0.063265
59703		9.294136	3.818071	-2.102191	1.315121	0.060020	-0.172638	-0.835693	-0.241943	-0.406494	0.633335	0.111831	-0.763722	-0.055757
59704		9.216014	4.017898	-2.027832	0.976014	0.057218	-0.106419	-0.826416	-0.243896	-0.399658	0.632682	0.117638	-0.763786	-0.050052
59705		9.179896	3.782312	-2.208481	0.636436	0.050281	-0.046355	-0.825928	-0.253174	-0.399414	0.632321	0.121226	-0.763768	-0.046192
59706		9.065933	3.187417	-2.347245	0.363856	0.032733	-0.002410	-0.839355	-0.251953	-0.402100	0.632136	0.123131	-0.763753	-0.043872
59707		9.120878	2.735921	-2.438458	0.140218	0.015022	0.025204	-0.828857	-0.252441	-0.398193	0.632060	0.123597	-0.763800	-0.042818
59708		9.241290	2.466182	-2.466295	-0.017874	0.006491	0.041785	-0.832031	-0.255859	-0.398193	0.632108	0.123154	-0.763838	-0.042708
59709		9.256642	2.039299	-2.213121	-0.068182	0.000204	0.041706	-0.827637	-0.263916	-0.398682	0.632151	0.122486	-0.763898	-0.042922
59710		9.427689	1.704175	-1.943857	0.002238	-0.002827	0.011452	-0.833496	-0.254150	-0.401367	0.632100	0.122496	-0.763941	-0.042886
59711		9.550338	2.044724	-1.669028	0.052679	0.007690	0.004190	-0.831787	-0.252686	-0.405273	0.632074	0.122688	-0.763951	-0.042531
59712		9.556182	2.174807	-1.603968	0.108338	0.018168	-0.002986	-0.831055	-0.262939	-0.402588	0.632095	0.123195	-0.763888	-0.041874
59713		9.505041	2.159787	-1.603125	0.234168	0.017296	-0.007843	-0.827637	-0.252197	-0.395020	0.631950	0.124517	-0.763870	-0.040450
59714		9.486915	2.169480	-1.588044	0.345372	0.026548	-0.012406	-0.833740	-0.259766	-0.395020	0.631714	0.126339	-0.763879	-0.038271
59715		9.563483	1.958405	-1.766552	0.408395	0.032183	-0.017549	-0.834717	-0.268555	-0.399902	0.631421	0.128571	-0.763873	-0.035704
59716		9.436467	1.661773	-1.997779	0.569586	0.032710	-0.029478	-0.825928	-0.268555	-0.394043	0.630985	0.131773	-0.763842	-0.032225
59717		9.412392	1.434236	-2.148726	0.791158	0.037166	-0.065310	-0.824219	-0.273926	-0.391846	0.630308	0.136346	-0.763784	-0.027514
59718		9.348926	1.517046	-2.148687	1.021958	0.033035	-0.093252	-0.826660	-0.279785	-0.385254	0.629310	0.142291	-0.763715	-0.021492
59719		9.253765	1.744996	-2.048315	1.196048	0.033042	-0.128550	-0.831543	-0.289307	-0.382812	0.628017	0.149340	-0.763598	-0.014506
59720		9.215981	1.919769	-1.994954	1.291711	0.029628	-0.157445	-0.833496	-0.298584	-0.384033	0.626514	0.157032	-0.763394	-0.007060
59721		9.298327	2.104105	-2.056826	1.334421	0.036843	-0.172265	-0.833252	-0.316650	-0.372070	0.624980	0.164972	-0.763010	0.000550
59722		9.319789	2.510173	-2.148312	1.289365	0.041804	-0.170908	-0.823486	-0.319092	-0.356201	0.623401	0.172766	-0.762536	0.007916
59723		9.227962	2.696204	-2.262517	1.155818	0.040969	-0.150785	-0.825684	-0.327881	-0.353271	0.621893	0.179692	-0.762067	0.014603
59724		9.225322	2.488257	-2.396674	1.002426	0.038972	-0.137683	-0.817871	-0.336914	-0.345703	0.620564	0.185700	-0.761578	0.020372
59725		9.313054	2.514970	-2.601846	0.876980	0.030612	-0.109620	-0.826904	-0.339844	-0.343262	0.619332	0.190922	-0.761137	0.025457
59726		9.253852	2.588528	-2.647710	0.751343	0.026220	-0.087533	-0.821045	-0.354004	-0.340332	0.618226	0.195257	-0.760774	0.029899
59727		9.293737	2.376926	-2.541221	0.645217	0.024691	-0.074179	-0.823486	-0.361084	-0.341064	0.617281	0.199081	-0.760393	0.033657
59728		9.295674	2.470326	-2.438370	0.539885	0.026525	-0.051117	-0.812988	-0.365234	-0.328369	0.616530	0.202207	-0.760031	0.036835
59729		9.250567	2.629951	-2.368123	0.406114	0.028802	-0.030849	-0.820801	-0.367676	-0.334717	0.615940	0.204613	-0.759741	0.039308
59730		9.188555	2.660463	-2.368599	0.249317	0.031405	-0.011664	-0.815430	-0.361084	-0.330566	0.615679	0.206004	-0.759495	0.040854
59731		9.179147	2.613764	-2.460188	0.105077	0.027058	0.016795	-0.823486	-0.366943	-0.334229	0.615623	0.206398	-0.759390	0.041658
59732		9.167552	2.594855	-2.323023	-0.048493	0.024953	0.031696	-0.823242	-0.362793	-0.333252	0.615817	0.205936	-0.759364	0.041547
59733		9.257945	2.351194	-2.478477	-0.253596	0.020748	0.056583	-0.824951	-0.361572	-0.332031	0.616315	0.204227	-0.759490	0.040286
59734		9.314926	1.986380	-2.584663	-0.372646	0.025582	0.065214	-0.821533	-0.358398	-0.338867	0.617000	0.201880	-0.759660	0.038359
59735		9.319296	1.745460	-2.592600	-0.381435	0.025464	0.054433	-0.813721	-0.357178	-0.345947	0.617759	0.199536	-0.759767	0.036250
59736		9.430200	1.890319	-2.363746	-0.362434	0.026731	0.045833	-0.816162	-0.356445	-0.342041	0.618568	0.197363	-0.759775	0.034113
59737		9.542726	2.822164	-1.926331	-0.492221	0.045675	0.054531	-0.817383	-0.356689	-0.348633	0.619620	0.194521	-0.759771	0.031309
59738		9.352682	3.506231	-1.936131	-0.885913	0.060731	0.120663	-0.823975	-0.344238	-0.347656	0.621391	0.189247	-0.759845	0.026335
59739		9.355242	3.024039	-2.587957	-1.157742	0.048147	0.168963	-0.824707	-0.330322	-0.354980	0.623364	0.182187	-0.760148	0.020003
59740		9.343145	2.981777	-2.804860	-1.271785	0.043761	0.207047	-0.819580	-0.325439	-0.371094	0.625418	0.174204	-0.760482	0.013148
59741		9.355216	3.072416	-2.646773	-1.514388	0.034607	0.259385	-0.821289	-0.314941	-0.381592	0.627782	0.164653	-0.760760	0.004857
59742		9.430172	2.896155	-2.612661	-1.707423	0.022420	0.310600	-0.826172	-0.293213	-0.383545	0.630230	0.153761	-0.761018	-0.004432
59743		9.467746	2.874563	-2.442932	-1.840969	0.037913	0.341037	-0.818848	-0.274658	-0.406494	0.632727	0.141868	-0.761134	-0.014272
59744		9.410220	2.590696	-2.311821	-1.966416	0.036571	0.380020	-0.829590	-0.260010	-0.406738	0.635378	0.128955	-0.760951	-0.024898
59745		9.499853	2.427517	-2.243983	-1.994726	0.030851	0.392457	-0.826416	-0.234619	-0.410645	0.637708	0.115857	-0.760688	-0.035487
59746		9.469095	2.531802	-2.032179	-2.021246	0.031801	0.416657	-0.830566	-0.222412	-0.427002	0.639872	0.102365	-0.760239	-0.046070
59747		9.351518	2.311440	-1.952258	-2.031585	0.023153	0.429061	-0.826172	-0.189941	-0.431152	0.641861	0.088787	-0.759548	-0.056730
59748		9.398674	2.034839	-1.788260	-1.998870	0.005561	0.423084	-0.834473	-0.177246	-0.444336	0.643528	0.075222	-0.758748	-0.067193
59749		9.519028	2.306201	-1.538867	-2.003788	0.003535	0.428329	-0.833252	-0.155029	-0.446533	0.645021	0.061665	-0.757702	-0.077677
59750		9.588338	2.365243	-1.463265	-2.102049	0.001591	0.453522	-0.835938	-0.130371	-0.449707	0.646348	0.047394	-0.756399	-0.088596
59751		9.392737	2.229262	-1.589984	-2.189618	0.016534	0.466826	-0.845459	-0.105957	-0.456299	0.647573	0.032526	-0.754722	-0.099929
59752		9.194734	1.332756	-1.808151	-2.208226	0.004997	0.449992	-0.839355	-0.088623	-0.462158	0.648465	0.017614	-0.752842	-0.111408
59753		9.238008	1.106993	-1.793924	-2.076257	-0.012488	0.404861	-0.834717	-0.063477	-0.464111	0.649011	0.003772	-0.750871	-0.122324
59754		9.247194	1.614014	-1.473123	-1.989769	-0.028305	0.375836	-0.838867	-0.039795	-0.463867	0.649252	-0.009486	-0.748823	-0.132836
59755		9.358418	1.808568	-0.959165	-1.966469	-0.034564	0.349388	-0.840332	-0.027832	-0.466553	0.649214	-0.022500	-0.746651	-0.143271
59756		9.482775	1.849827	-0.833400	-1.997288	-0.029152	0.336238	-0.843018	-0.002930	-0.464600	0.649006	-0.035461	-0.744202	-0.153935
59757		9.399405	1.346755	-1.010093	-2.068200	-0.017416	0.328716	-0.846191	0.011719	-0.469727	0.648625	-0.048802	-0.741401	-0.165009
59758		9.367616	0.728036	-1.148193	-1.958079	-0.037787	0.279408	-0.840088	0.034668	-0.463135	0.647932	-0.061165	-0.738644	-0.175636
59759		9.451087	0.956311	-0.950645	-1.798091	-0.036151	0.228172	-0.846680	0.049561	-0.460938	0.647081	-0.072390	-0.735960	-0.185495
59760		9.567454	1.008482	-0.704191	-1.657199	-0.048172	0.182520	-0.841797	0.061035	-0.461182	0.646000	-0.082544	-0.733471	-0.194656
59761		9.823346	1.381957	-0.577100	-1.536197	-0.046231	0.156102	-0.839844	0.083740	-0.459229	0.644893	-0.091810	-0.731018	-0.203215
59762		9.824381	1.608777	-0.531437	-1.464910	-0.024009	0.156136	-0.844482	0.099854	-0.449463	0.643898	-0.100766	-0.728407	-0.211342
59763		9.705021	1.156147	-0.797314	-1.339037	-0.027970	0.147046	-0.839111	0.110596	-0.447021	0.642803	-0.109032	-0.726020	-0.218660
59764		9.727075	1.145664	-0.943513	-1.109883	-0.029352	0.116196	-0.843506	0.121094	-0.448975	0.641804	-0.115854	-0.723984	-0.224749
59765		9.630815	1.494825	-0.705280	-0.942505	-0.028677	0.099145	-0.844727	0.129395	-0.444336	0.640908	-0.121658	-0.722202	-0.229913
59766		9.686260	1.943982	-0.367291	-0.841642	-0.031072	0.087616	-0.846436	0.135254	-0.445801	0.640017	-0.126853	-0.720623	-0.234499
59767		9.612112	2.326898	-0.284135	-0.974750	-0.016272	0.113828	-0.846436	0.147949	-0.439453	0.639106	-0.132842	-0.718618	-0.239758
59768		9.602329	2.061771	-0.698013	-1.076536	-0.026436	0.123028	-0.840820	0.153320	-0.437744	0.637966	-0.139499	-0.716416	-0.245535
59769		9.632916	1.850289	-0.973464	-1.078929	-0.037926	0.118724	-0.842041	0.170898	-0.434570	0.636721	-0.146096	-0.714195	-0.251331
59770		9.470302	1.943520	-0.718971	-1.109364	-0.047320	0.107216	-0.843994	0.176758	-0.436768	0.635310	-0.152894	-0.711885	-0.257341
59771		9.583819	1.827210	-0.476861	-1.205453	-0.058466	0.097093	-0.842773	0.182129	-0.427246	0.633660	-0.160078	-0.709353	-0.263950
59772		9.809819	2.334915	-0.269383	-1.325521	-0.055299	0.110828	-0.841309	0.199707	-0.423828	0.631785	-0.167908	-0.706495	-0.271146
59773		9.751348	2.573464	-0.334165	-1.540447	-0.054330	0.154263	-0.844238	0.205322	-0.411133	0.629647	-0.177177	-0.702932	-0.279354
59774		9.589922	1.872112	-0.709314	-1.662525	-0.062252	0.167076	-0.843750	0.222168	-0.408691	0.627120	-0.187076	-0.699080	-0.288115
59775		9.531073	1.563106	-0.636553	-1.632517	-0.077345	0.145712	-0.840820	0.235596	-0.407471	0.624421	-0.196714	-0.695228	-0.296750
59776		9.727171	1.929735	-0.251582	-1.644003	-0.089524	0.126176	-0.841553	0.248535	-0.395996	0.621527	-0.206270	-0.691253	-0.305494
59777		9.710642	2.351226	-0.033196	-1.808596	-0.079976	0.157538	-0.844971	0.258057	-0.396973	0.618321	-0.216809	-0.686638	-0.314963
59778		9.511092	1.713429	-0.256497	-1.923146	-0.087681	0.166048	-0.844238	0.277100	-0.384033	0.614793	-0.227841	-0.681554	-0.324966
59779		9.550200	1.166220	-0.371016	-1.836143	-0.100273	0.128983	-0.840820	0.292236	-0.367676	0.611090	-0.238265	-0.676665	-0.334548
59780		9.658729	1.474562	-0.350786	-1.780101	-0.095857	0.119319	-0.845947	0.303467	-0.355957	0.607319	-0.248347	-0.671790	-0.343782
59781		9.709371	1.137875	-0.343303	-1.698215	-0.098739	0.110005	-0.846924	0.315430	-0.347168	0.603503	-0.257902	-0.667082	-0.352522
59782		9.798076	1.191239	-0.239256	-1.546130	-0.084514	0.093904	-0.847656	0.318848	-0.344482	0.599942	-0.266507	-0.662654	-0.360462
59783		9.870340	1.535452	-0.104712	-1.385337	-0.079064	0.098208	-0.844727	0.333740	-0.336914	0.596734	-0.274140	-0.658579	-0.367465
59784		9.921463	1.621777	-0.105152	-1.250409	-0.057329	0.119277	-0.842529	0.343994	-0.327148	0.593985	-0.281186	-0.654623	-0.373610
59785		9.643535	1.322680	-0.273287	-1.105289	-0.044557	0.132040	-0.842529	0.339844	-0.328125	0.591622	-0.287554	-0.650955	-0.378884
59786		9.643138	1.122169	-0.281840	-0.890943	-0.033279	0.117733	-0.844482	0.354004	-0.311035	0.589787	-0.292518	-0.647936	-0.383097
59787		9.656348	1.476264	0.006340	-0.735191	-0.020272	0.100987	-0.838135	0.354248	-0.310303	0.588213	-0.296760	-0.645385	-0.386546
59788		9.730961	1.745952	-0.044192	-0.735792	-0.016450	0.130993	-0.834473	0.359375	-0.308594	0.586788	-0.301058	-0.642699	-0.389849
59789		9.650150	1.526357	-0.296242	-0.722650	-0.006069	0.149216	-0.842529	0.370850	-0.293701	0.585534	-0.305319	-0.639911	-0.392994
59790		9.633437	1.024273	-0.613306	-0.600504	-0.009374	0.123261	-0.839355	0.377197	-0.302490	0.584324	-0.308996	-0.637640	-0.395603
59791		9.703556	1.230031	-0.438803	-0.456570	-0.015939	0.114197	-0.834961	0.375244	-0.293701	0.583571	-0.311843	-0.635805	-0.397430
59792		9.775979	1.561756	-0.186926	-0.401036	-0.012662	0.117530	-0.835938	0.386230	-0.295166	0.582914	-0.314415	-0.634171	-0.398976
59793		9.755979	1.298131	-0.130171	-0.339467	-0.003148	0.120385	-0.836426	0.374023	-0.298828	0.582539	-0.316714	-0.632623	-0.400160
59794		9.613525	0.922136	-0.243987	-0.211530	-0.006771	0.100526	-0.840576	0.383057	-0.283936	0.582405	-0.318048	-0.631653	-0.400830
59795		9.533244	0.719796	-0.098540	-0.058084	-0.001790	0.059756	-0.840332	0.378662	-0.292480	0.582405	-0.318617	-0.631314	-0.400911
59796		9.647768	0.999803	0.278305	0.056975	-0.007526	0.029063	-0.839844	0.396484	-0.297363	0.582660	-0.318328	-0.631468	-0.400528
59797		9.741554	0.942805	0.204745	0.044727	-0.003471	0.039180	-0.840332	0.387695	-0.291504	0.583073	-0.318308	-0.631403	-0.400046
59798		9.668804	0.446755	-0.047635	0.120799	-0.004035	0.012624	-0.839844	0.385986	-0.289062	0.583470	-0.317735	-0.631751	-0.399372
59799		9.707967	0.534377	-0.067778	0.266948	-0.000896	-0.022255	-0.834473	0.388428	-0.293213	0.584109	-0.316276	-0.632681	-0.398122
59800		9.784210	0.694826	0.075262	0.359851	0.003576	-0.050564	-0.836670	0.382080	-0.286621	0.585001	-0.314234	-0.633912	-0.396468
59801		9.816127	1.015715	0.073143	0.359459	0.004704	-0.055577	-0.838135	0.369385	-0.287598	0.585734	-0.312205	-0.635211	-0.394907
59802		9.720430	0.940707	-0.190855	0.396829	-0.000075	-0.069150	-0.843750	0.382324	-0.301270	0.586418	-0.309825	-0.636753	-0.393277
59803		9.682327	0.866380	-0.358866	0.518744	-0.001124	-0.091220	-0.841797	0.380127	-0.301025	0.587511	-0.306797	-0.638633	-0.390966
59804		9.630204	0.539191	-0.610260	0.725194	-0.010582	-0.109341	-0.841064	0.372803	-0.308594	0.588983	-0.302744	-0.641256	-0.387603
59805		9.658909	-0.046647	-0.554898	1.042805	-0.020293	-0.155264	-0.838867	0.369141	-0.313477	0.591060	-0.296844	-0.645028	-0.382715
59806		9.780256	0.013199	0.057748	1.399218	-0.016292	-0.221093	-0.843750	0.356445	-0.328613	0.593786	-0.288853	-0.649984	-0.376169
59807		9.874619	0.833433	0.685449	1.484595	0.006856	-0.244089	-0.850586	0.338867	-0.324707	0.596730	-0.280098	-0.655052	-0.369277
59808		9.785463	1.103771	0.331594	1.410601	0.017407	-0.252350	-0.838867	0.330811	-0.339600	0.599229	-0.271636	-0.659868	-0.362922
59809		9.663515	0.831147	-0.277738	1.431180	0.023056	-0.274289	-0.840088	0.313721	-0.347900	0.601828	-0.262886	-0.664577	-0.356414
59810		9.489954	0.644238	-0.756466	1.582578	0.021055	-0.325531	-0.845459	0.304199	-0.355713	0.604474	-0.252991	-0.669776	-0.349295
59811		9.547361	1.002615	-0.783718	1.725313	0.020712	-0.368016	-0.842041	0.298340	-0.361816	0.607158	-0.242148	-0.675346	-0.341514
59812		9.733935	1.768385	-0.649717	1.804521	0.029197	-0.379242	-0.845947	0.277100	-0.368652	0.609916	-0.230904	-0.680919	-0.333220
59813		9.673935	2.144440	-0.411812	1.837356	0.036955	-0.366425	-0.847900	0.260498	-0.379395	0.612611	-0.219442	-0.686400	-0.324665
59814		9.622153	2.416694	-0.315584	1.785036	0.039013	-0.360236	-0.844727	0.239502	-0.385742	0.615113	-0.208205	-0.691549	-0.316300
59815		9.607943	2.823837	-0.370020	1.634934	0.048301	-0.322995	-0.849121	0.233887	-0.395508	0.617367	-0.197840	-0.696058	-0.308578
59816		9.494416	2.718605	-0.734761	1.472363	0.040271	-0.305146	-0.853027	0.214355	-0.401367	0.619283	-0.188496	-0.699999	-0.301594
59817		9.444160	2.412013	-0.911702	1.359665	0.034990	-0.287306	-0.851074	0.198486	-0.407715	0.620907	-0.179755	-0.703590	-0.295167
59818		9.575542	2.484595	-0.987751	1.328165	0.027946	-0.271129	-0.860352	0.189941	-0.415283	0.622417	-0.171223	-0.707020	-0.288793
59819		9.543406	2.594594	-0.770484	1.286302	0.030299	-0.257743	-0.844482	0.188721	-0.414062	0.623831	-0.162996	-0.710231	-0.282559
59820		9.581899	2.492538	-0.585573	1.248190	0.030328	-0.236036	-0.849854	0.164795	-0.421875	0.625236	-0.155237	-0.713177	-0.276334
59821		9.582537	2.431263	-0.574822	1.185977	0.035774	-0.217845	-0.850098	0.154053	-0.415527	0.626541	-0.147714	-0.715891	-0.270418
59822		9.592859	2.501783	-0.628212	1.134255	0.027943	-0.207205	-0.854492	0.135010	-0.423340	0.627602	-0.140591	-0.718504	-0.264768
59823		9.574357	2.317748	-0.751687	1.054773	0.016448	-0.196419	-0.855225	0.135742	-0.424072	0.628473	-0.133843	-0.720940	-0.259525
59824		9.571555	2.052406	-0.850266	1.043405	0.013087	-0.192772	-0.857910	0.123779	-0.430420	0.629278	-0.127308	-0.723289	-0.254274
59825		9.590299	2.184358	-0.713594	1.033574	0.012613	-0.193093	-0.847168	0.117188	-0.428467	0.630042	-0.120773	-0.725555	-0.249060
59826		9.533858	2.234746	-0.794211	0.981026	0.013537	-0.191951	-0.848389	0.108154	-0.432373	0.630738	-0.114557	-0.727634	-0.244120
59827		9.500836	1.825181	-0.832652	1.003945	0.007836	-0.197068	-0.845947	0.098877	-0.438721	0.631380	-0.108189	-0.729735	-0.239041
59828		9.534599	2.233772	-0.504525	1.054322	0.008372	-0.212879	-0.851074	0.085449	-0.430664	0.632044	-0.101433	-0.731859	-0.233696
59829		9.557140	3.291660	-0.243805	0.865775	0.013004	-0.192034	-0.864258	0.072754	-0.430664	0.632460	-0.095792	-0.733604	-0.229442
59830		9.460993	3.604869	-0.538300	0.558461	0.015325	-0.136290	-0.844971	0.070068	-0.442871	0.632651	-0.092080	-0.734731	-0.226812
59831		9.346452	3.098856	-1.173987	0.333167	0.009263	-0.093672	-0.844727	0.070801	-0.436279	0.632891	-0.089798	-0.735291	-0.225240
59832		9.352318	2.823179	-1.623875	0.229650	0.001619	-0.074532	-0.849609	0.065918	-0.441406	0.632985	-0.088263	-0.735710	-0.224211
59833		9.427073	2.943314	-1.524438	0.148961	-0.014471	-0.053427	-0.849121	0.056885	-0.441895	0.632972	-0.087275	-0.736038	-0.223554
59834		9.441449	2.866956	-1.167900	0.046690	-0.019754	-0.029408	-0.857178	0.062988	-0.437500	0.632888	-0.086908	-0.736198	-0.223412
59835		9.575972	2.783942	-0.919758	-0.051897	-0.021404	-0.001080	-0.850830	0.064941	-0.442871	0.632721	-0.087325	-0.736194	-0.223736
59836		9.626068	2.533028	-0.699270	-0.128683	-0.019330	0.016888	-0.856689	0.056885	-0.433594	0.632615	-0.088242	-0.735971	-0.224406
59837		9.636766	2.530620	-0.567383	-0.178203	-0.015010	0.035634	-0.854980	0.063721	-0.439941	0.632426	-0.089471	-0.735698	-0.225346
59838		9.538023	2.421536	-0.677407	-0.236772	-0.012554	0.047644	-0.848145	0.068115	-0.432861	0.632295	-0.091101	-0.735242	-0.226548
59839		9.539196	2.162706	-0.902866	-0.245994	-0.016344	0.049560	-0.853027	0.068604	-0.438721	0.632114	-0.092829	-0.734795	-0.227797
59840		9.570628	2.086214	-1.047574	-0.198633	-0.011954	0.045882	-0.859131	0.064941	-0.435791	0.632011	-0.094241	-0.734400	-0.228772
59841		9.594995	2.143642	-1.089294	-0.168126	-0.012901	0.045219	-0.854248	0.080078	-0.434570	0.631873	-0.095451	-0.734106	-0.229595
