// Start Time: Unknown
// Update Rate: 60.0Hz
// Filter Profile: human (46.1)
// Firmware Version: 4.6.0
PacketCounter	SampleTimeFine	Acc_X	Acc_Y	Acc_Z	Gyr_X	Gyr_Y	Gyr_Z	Mag_X	Mag_Y	Mag_Z	Quat_q0	Quat_q1	Quat_q2	Quat_q3
21292		9.632903	0.286040	-1.837537	-0.019459	0.005893	-0.017638	-0.767090	-0.359619	-0.109375	0.577099	0.347654	-0.687613	0.270705
21293		9.633669	0.222167	-1.868830	-0.013551	0.001426	-0.021320	-0.769531	-0.341309	-0.102783	0.577195	0.347708	-0.687575	0.270529
21294		9.667917	0.159985	-1.875937	-0.002353	0.004284	-0.022468	-0.764404	-0.348145	-0.102295	0.577264	0.347802	-0.687508	0.270431
21295		9.684694	0.220643	-1.813669	0.010475	0.005922	-0.025461	-0.762451	-0.347412	-0.102051	0.577324	0.347984	-0.687383	0.270387
21296		9.664827	0.251288	-1.768993	0.014520	0.011219	-0.025395	-0.765869	-0.353027	-0.100342	0.577402	0.348172	-0.687223	0.270383
21297		9.673925	0.258692	-1.814942	0.011573	0.010321	-0.026927	-0.764893	-0.344727	-0.104736	0.577489	0.348355	-0.687069	0.270355
21298		9.631061	0.306217	-1.845268	0.001023	0.008759	-0.030592	-0.755615	-0.350098	-0.106201	0.577605	0.348510	-0.686936	0.270245
21299		9.661416	0.321352	-1.851392	-0.001259	0.003239	-0.031691	-0.759033	-0.354492	-0.109619	0.577699	0.348673	-0.686831	0.270101
21300		9.697386	0.274874	-1.861388	-0.001158	0.005061	-0.031889	-0.757568	-0.348633	-0.111328	0.577802	0.348834	-0.686717	0.269960
21301		9.667090	0.269914	-1.853401	0.006198	0.006279	-0.033495	-0.761963	-0.352295	-0.099854	0.577893	0.349036	-0.686578	0.269859
21302		9.670284	0.303069	-1.858695	0.019446	0.006749	-0.029915	-0.763916	-0.357422	-0.107178	0.577938	0.349279	-0.686419	0.269855
21303		9.675904	0.338557	-1.849333	0.022616	0.013027	-0.029886	-0.757324	-0.350586	-0.098633	0.578007	0.349522	-0.686224	0.269887
21304		9.651284	0.400726	-1.870119	0.019918	0.014128	-0.029798	-0.754639	-0.347900	-0.098877	0.578090	0.349750	-0.686030	0.269907
21305		9.643259	0.464041	-1.879015	-0.004371	0.008390	-0.028302	-0.767334	-0.347656	-0.097168	0.578207	0.349871	-0.685923	0.269772
21306		9.661048	0.439378	-1.935743	-0.023528	-0.000739	-0.029609	-0.763916	-0.350586	-0.103271	0.578332	0.349936	-0.685898	0.269484
21307		9.642381	0.311547	-1.935392	-0.032790	0.003170	-0.033026	-0.758789	-0.352051	-0.104492	0.578509	0.349976	-0.685868	0.269127
21308		9.665745	0.282404	-1.946295	-0.015063	0.006628	-0.033786	-0.767334	-0.351318	-0.105957	0.578648	0.350098	-0.685787	0.268878
21309		9.670521	0.293617	-1.916497	0.005680	0.011090	-0.032100	-0.759766	-0.349365	-0.104736	0.578735	0.350300	-0.685652	0.268770
21310		9.665739	0.274851	-1.818168	0.017041	0.013352	-0.030408	-0.758789	-0.350586	-0.110596	0.578792	0.350537	-0.685492	0.268746
21311		9.676473	0.297059	-1.866802	0.011616	0.013813	-0.029128	-0.760010	-0.357178	-0.101318	0.578867	0.350731	-0.685345	0.268706
21312		9.682756	0.358366	-1.877229	0.005155	0.013332	-0.028598	-0.754395	-0.355957	-0.108643	0.578947	0.350898	-0.685219	0.268636
21313		9.671648	0.393048	-1.879255	0.001803	0.015673	-0.025821	-0.764404	-0.361328	-0.106445	0.579052	0.351022	-0.685094	0.268566
21314		9.685667	0.369457	-1.858306	0.005568	0.014699	-0.024147	-0.762695	-0.357666	-0.095215	0.579119	0.351168	-0.684980	0.268522
21315		9.670107	0.360975	-1.850813	0.004626	0.015580	-0.025095	-0.766846	-0.348877	-0.109375	0.579191	0.351318	-0.684863	0.268471
21316		9.639344	0.365793	-1.858739	0.007330	0.014485	-0.025178	-0.762451	-0.354980	-0.111328	0.579255	0.351453	-0.684756	0.268427
21317		9.646268	0.415302	-1.852119	0.016093	0.009958	-0.028118	-0.761719	-0.357666	-0.110596	0.579283	0.351665	-0.684632	0.268407
21318		9.684151	0.463897	-1.835541	0.019879	0.010719	-0.027551	-0.758301	-0.349121	-0.100098	0.579303	0.351898	-0.684492	0.268413
21319		9.652991	0.476942	-1.741533	0.014883	-0.008639	-0.029764	-0.757812	-0.350342	-0.106201	0.579236	0.352164	-0.684451	0.268314
21320		9.621671	0.355898	-1.849056	0.008584	-0.016122	-0.034059	-0.758789	-0.350830	-0.106445	0.579175	0.352432	-0.684436	0.268132
21321		9.653184	0.411690	-1.882675	-0.002931	-0.020331	-0.036468	-0.762695	-0.359375	-0.103027	0.579123	0.352664	-0.684465	0.267866
21322		9.654914	0.339273	-1.900473	-0.008908	-0.021439	-0.041458	-0.761719	-0.356445	-0.108643	0.579071	0.352931	-0.684497	0.267544
21323		9.663463	0.420840	-1.905060	-0.020958	-0.016574	-0.045708	-0.768555	-0.361572	-0.105957	0.579103	0.353125	-0.684525	0.267147
21324		9.561712	0.594366	-1.819360	-0.012150	-0.017624	-0.050867	-0.762939	-0.361328	-0.103271	0.579084	0.353416	-0.684535	0.266779
21325		9.572742	0.669762	-1.793783	-0.065704	-0.041985	-0.056360	-0.756592	-0.362061	-0.103271	0.579115	0.353549	-0.684746	0.265993
21326		9.658429	0.551793	-1.801780	-0.146239	-0.035896	-0.050097	-0.754150	-0.361816	-0.101807	0.579437	0.353255	-0.685096	0.264776
21327		9.661063	0.286381	-1.629664	-0.207747	-0.034809	-0.045615	-0.759033	-0.360840	-0.104736	0.579944	0.352640	-0.685580	0.263229
21328		9.735373	0.237748	-1.679184	-0.212207	-0.028438	-0.048683	-0.760498	-0.356445	-0.103027	0.580505	0.351976	-0.686039	0.261682
21329		9.753265	0.203929	-1.826954	-0.251069	-0.016567	-0.033996	-0.757324	-0.354736	-0.102051	0.581204	0.350975	-0.686583	0.260042
21330		9.654984	0.080575	-1.876265	-0.269570	0.001153	-0.023229	-0.760254	-0.351562	-0.103760	0.582027	0.349766	-0.687117	0.258417
21331		9.664177	0.165589	-1.874709	-0.247610	0.014010	-0.011311	-0.762451	-0.359863	-0.108643	0.582807	0.348529	-0.687600	0.257042
21332		9.622683	0.283143	-1.945630	-0.230221	0.006159	0.003842	-0.757568	-0.359863	-0.109131	0.583454	0.347331	-0.688108	0.255832
21333		9.644535	0.321529	-1.922931	-0.199983	0.002582	0.002837	-0.767822	-0.355225	-0.114258	0.583994	0.346302	-0.688559	0.254782
21334		9.722321	0.222023	-1.809290	-0.189837	0.015029	-0.006421	-0.757568	-0.354980	-0.110596	0.584577	0.345278	-0.688943	0.253793
21335		9.732278	0.169574	-1.795121	-0.186302	0.045345	-0.005671	-0.757812	-0.348145	-0.120117	0.585323	0.344243	-0.689148	0.252922
21336		9.674056	0.248097	-1.743378	-0.181731	0.061821	0.006408	-0.758789	-0.347900	-0.119385	0.586169	0.343019	-0.689311	0.252178
21337		9.750028	0.374903	-1.839478	-0.153427	0.066263	0.011312	-0.763672	-0.346680	-0.113525	0.586929	0.341904	-0.689411	0.251653
21338		9.652031	0.506508	-1.908373	-0.120026	0.062161	0.016574	-0.760986	-0.344971	-0.119873	0.587486	0.340965	-0.689502	0.251377
21339		9.678038	0.537699	-1.966214	-0.089566	0.061511	0.017159	-0.763184	-0.346191	-0.124023	0.587995	0.340142	-0.689525	0.251240
21340		9.685295	0.571562	-1.840169	-0.086422	0.079254	0.021928	-0.761963	-0.354980	-0.129150	0.588597	0.339251	-0.689475	0.251171
21341		9.628413	0.740734	-1.647229	-0.150812	0.095907	0.037239	-0.766846	-0.345947	-0.131348	0.589481	0.337962	-0.689484	0.250812
21342		9.668584	0.986439	-1.463447	-0.243616	0.090537	0.058193	-0.767090	-0.339600	-0.121094	0.590546	0.336024	-0.689809	0.250011
21343		9.807360	1.052852	-1.385097	-0.355901	0.089527	0.086600	-0.752686	-0.346191	-0.129395	0.591760	0.333510	-0.690433	0.248784
21344		9.696639	0.884636	-1.518480	-0.410967	0.088105	0.102656	-0.757080	-0.337402	-0.136963	0.593204	0.330745	-0.691091	0.247205
21345		9.680059	0.727209	-1.626137	-0.350161	0.073377	0.099519	-0.762695	-0.341064	-0.134766	0.594432	0.328196	-0.691719	0.245890
21346		9.622183	0.565466	-1.702750	-0.228442	0.055623	0.074786	-0.759521	-0.329834	-0.134766	0.595208	0.326511	-0.692115	0.245143
21347		9.734980	0.462660	-1.666132	-0.112472	0.059821	0.056339	-0.758057	-0.333984	-0.141602	0.595712	0.325466	-0.692223	0.245004
21348		9.719646	0.362932	-1.700675	-0.026397	0.068699	0.041531	-0.751465	-0.332520	-0.145996	0.596126	0.324897	-0.692044	0.245257
21349		9.680737	0.444597	-1.516133	0.018995	0.061268	0.037990	-0.759033	-0.333984	-0.144287	0.596430	0.324576	-0.691775	0.245702
21350		9.687395	0.520845	-1.548891	-0.006735	0.039184	0.043949	-0.763672	-0.339355	-0.154785	0.596616	0.324137	-0.691712	0.246006
21351		9.698336	0.521021	-1.590971	-0.033179	0.019966	0.050681	-0.754395	-0.330078	-0.149658	0.596858	0.323458	-0.691804	0.246055
21352		9.687904	0.544569	-1.590198	-0.033764	0.012484	0.048446	-0.758789	-0.339844	-0.141602	0.597007	0.322876	-0.691923	0.246124
21353		9.668341	0.522430	-1.613822	-0.023334	0.000907	0.035597	-0.758545	-0.329590	-0.138672	0.596995	0.322628	-0.692024	0.246191
21354		9.699143	0.435043	-1.758010	-0.017956	-0.012570	0.031498	-0.761475	-0.328369	-0.141602	0.596846	0.322419	-0.692215	0.246292
21355		9.652592	0.407453	-1.750281	-0.026324	-0.011301	0.029220	-0.756104	-0.334717	-0.145752	0.596758	0.322106	-0.692428	0.246316
21356		9.599398	0.403197	-1.699189	-0.046634	-0.010155	0.013944	-0.761230	-0.332031	-0.141846	0.596833	0.321820	-0.692580	0.246080
21357		9.676196	0.319162	-1.597258	-0.061758	-0.010522	0.008549	-0.769775	-0.323242	-0.140137	0.596888	0.321492	-0.692792	0.245778
21358		9.711595	0.097324	-1.563324	-0.064150	-0.019605	0.008366	-0.764893	-0.329834	-0.144287	0.596840	0.321055	-0.693135	0.245499
21359		9.812354	-0.074275	-1.649971	-0.032211	-0.014753	0.013254	-0.763916	-0.327148	-0.136230	0.596799	0.320778	-0.693340	0.245383
21360		9.766701	-0.033200	-1.813954	0.030668	-0.004991	0.008347	-0.762939	-0.333252	-0.150146	0.596545	0.320912	-0.693379	0.245714
21361		9.733915	0.096749	-1.853567	0.075474	0.017439	-0.002568	-0.766846	-0.327393	-0.139648	0.596514	0.321142	-0.693133	0.246180
21362		9.688632	0.191094	-1.840048	0.084644	0.026478	-0.011131	-0.770996	-0.319336	-0.143799	0.596364	0.321509	-0.692873	0.246796
21363		9.643712	0.128149	-1.896877	0.083824	0.020552	-0.018061	-0.767090	-0.329102	-0.153320	0.596228	0.321733	-0.692688	0.247354
21364		9.644435	0.181017	-1.945234	0.103441	0.017107	-0.024689	-0.768311	-0.330566	-0.141846	0.596182	0.322078	-0.692387	0.247857
21365		9.629724	0.275573	-1.922609	0.153326	0.017052	-0.036335	-0.757080	-0.329834	-0.137451	0.595858	0.322934	-0.691966	0.248696
21366		9.698201	0.345007	-1.804897	0.193561	0.017966	-0.041851	-0.758789	-0.328369	-0.141602	0.595407	0.324146	-0.691403	0.249764
21367		9.722563	0.247320	-1.748415	0.202764	0.022613	-0.046451	-0.764160	-0.330811	-0.141602	0.595030	0.325282	-0.690808	0.250829
21368		9.753401	0.208251	-1.699117	0.208298	0.028336	-0.051806	-0.755127	-0.335449	-0.138428	0.594680	0.326429	-0.690175	0.251910
21369		9.709737	0.241422	-1.723198	0.225252	0.026782	-0.059245	-0.757324	-0.337158	-0.135986	0.594281	0.327851	-0.689428	0.253047
21370		9.666908	0.302477	-1.767139	0.233168	0.020591	-0.074026	-0.762695	-0.339111	-0.131592	0.593825	0.329422	-0.688664	0.254157
21371		9.635555	0.321740	-1.793495	0.257705	0.009170	-0.083956	-0.764648	-0.335938	-0.139160	0.593188	0.331220	-0.687902	0.255366
21372		9.681225	0.368406	-1.701875	0.267027	0.002486	-0.091382	-0.758057	-0.342773	-0.129150	0.592625	0.332871	-0.687172	0.256491
21373		9.618545	0.509500	-1.491160	0.255355	-0.004794	-0.109358	-0.765381	-0.351074	-0.137207	0.591979	0.334859	-0.686382	0.257507
21374		9.721136	0.651999	-1.380048	0.218655	-0.010976	-0.130399	-0.762451	-0.346191	-0.142090	0.591578	0.336657	-0.685630	0.258087
21375		9.696966	0.605095	-1.506004	0.167744	-0.021859	-0.139055	-0.751709	-0.351807	-0.130859	0.591380	0.338077	-0.685042	0.258247
21376		9.634550	0.387002	-1.779975	0.174126	-0.047003	-0.148353	-0.757812	-0.351807	-0.128418	0.590920	0.339941	-0.684459	0.258399
21377		9.599007	0.225989	-1.890008	0.225768	-0.067455	-0.160968	-0.760254	-0.355225	-0.124023	0.590184	0.342111	-0.683880	0.258751
21378		9.596901	0.111200	-1.894192	0.252817	-0.077431	-0.163655	-0.757568	-0.351074	-0.130371	0.589269	0.344479	-0.683295	0.259239
21379		9.612730	0.132453	-1.879965	0.273548	-0.072810	-0.161715	-0.752197	-0.358643	-0.118408	0.588447	0.346676	-0.682680	0.259797
21380		9.844745	0.243996	-1.760763	0.306482	-0.041846	-0.148316	-0.755615	-0.348145	-0.112793	0.587535	0.349172	-0.681820	0.260773
21381		9.866720	0.475354	-1.645784	0.293825	-0.010580	-0.126464	-0.749756	-0.368164	-0.113770	0.586707	0.351251	-0.681012	0.261953
21382		9.707269	0.764297	-1.605601	0.227128	-0.005555	-0.106813	-0.750977	-0.364746	-0.117676	0.586143	0.353130	-0.680210	0.262776
21383		9.598330	0.943548	-1.780175	0.159132	-0.031182	-0.098770	-0.748535	-0.365723	-0.115479	0.585698	0.354485	-0.679750	0.263130
21384		9.500682	0.978087	-1.855666	0.112182	-0.054549	-0.095089	-0.750000	-0.365723	-0.112793	0.585245	0.355670	-0.679507	0.263167
21385		9.554775	0.885439	-1.914850	0.093631	-0.074285	-0.097335	-0.755127	-0.368896	-0.120117	0.584712	0.356815	-0.679415	0.263041
21386		9.685247	0.689393	-1.873850	0.096669	-0.068873	-0.097173	-0.755859	-0.364014	-0.116943	0.584333	0.357782	-0.679302	0.262859
21387		9.760285	0.534959	-1.724653	0.101430	-0.042821	-0.084537	-0.753662	-0.368164	-0.110107	0.584018	0.358578	-0.679145	0.262881
21388		9.730795	0.558862	-1.609513	0.097110	-0.032223	-0.073358	-0.749023	-0.362549	-0.111572	0.583661	0.359443	-0.678943	0.263015
21389		9.703030	0.664379	-1.662373	0.063689	-0.031559	-0.062836	-0.752441	-0.376221	-0.102783	0.583434	0.359969	-0.678864	0.263004
21390		9.668308	0.621175	-1.773444	0.042790	-0.033723	-0.056554	-0.755615	-0.366943	-0.104004	0.583113	0.360693	-0.678778	0.262945
21391		9.653054	0.505105	-1.795314	0.039263	-0.022427	-0.047372	-0.751221	-0.373291	-0.101318	0.582856	0.361106	-0.678770	0.262969
21392		9.669106	0.461896	-1.745331	0.038895	-0.017252	-0.042365	-0.746094	-0.375732	-0.108154	0.582603	0.361643	-0.678680	0.263024
21393		9.686824	0.545466	-1.661592	0.046979	-0.010445	-0.036271	-0.757080	-0.378418	-0.101807	0.582503	0.362076	-0.678516	0.263073
21394		9.712157	0.577555	-1.597919	0.027491	-0.011080	-0.023774	-0.751465	-0.375977	-0.098877	0.582294	0.362418	-0.678481	0.263155
21395		9.723113	0.561406	-1.612783	0.004167	-0.012650	-0.012758	-0.753418	-0.369629	-0.106689	0.582093	0.362637	-0.678526	0.263180
21396		9.728471	0.484165	-1.628316	-0.013521	-0.006466	-0.004826	-0.748535	-0.370361	-0.107666	0.582100	0.362419	-0.678669	0.263096
21397		9.739331	0.469118	-1.762568	-0.039403	0.006284	0.001106	-0.752686	-0.377686	-0.106445	0.582279	0.362046	-0.678787	0.262912
21398		9.611001	0.487895	-1.851277	-0.034457	0.015284	0.000706	-0.742920	-0.381592	-0.109863	0.582462	0.361803	-0.678808	0.262785
21399		9.647478	0.509314	-1.813839	-0.015464	0.005278	0.000489	-0.754639	-0.374023	-0.114746	0.582622	0.361751	-0.678746	0.262663
21400		9.735044	0.450222	-1.782726	-0.003140	0.007032	0.004069	-0.749268	-0.374268	-0.108887	0.582780	0.361431	-0.678787	0.262646
21401		9.671264	0.493822	-1.735177	0.003037	0.019926	0.005937	-0.754883	-0.372803	-0.103516	0.582897	0.361273	-0.678727	0.262762
21402		9.686070	0.564927	-1.673775	0.008765	0.022599	0.007101	-0.751221	-0.374023	-0.107422	0.582884	0.361188	-0.678687	0.263008
21403		9.689343	0.631691	-1.700115	0.007177	0.026522	0.008631	-0.757080	-0.370850	-0.104248	0.582981	0.361047	-0.678603	0.263206
21404		9.670676	0.749691	-1.704122	-0.012006	0.020605	0.015202	-0.763184	-0.372314	-0.103760	0.582999	0.360775	-0.678665	0.263378
21405		9.594841	0.748328	-1.720367	-0.046195	0.011436	0.020373	-0.754395	-0.376953	-0.107178	0.583031	0.360325	-0.678881	0.263365
21406		9.626276	0.607709	-1.723031	-0.072576	0.010418	0.026896	-0.753174	-0.373047	-0.118408	0.583220	0.359792	-0.679087	0.263144
21407		9.678925	0.539084	-1.729437	-0.095638	0.009217	0.041525	-0.754395	-0.371094	-0.114014	0.583632	0.358806	-0.679404	0.262760
21408		9.705770	0.488702	-1.720803	-0.101051	0.015300	0.053253	-0.748047	-0.365479	-0.106445	0.583966	0.357799	-0.679754	0.262487
21409		9.711920	0.477033	-1.671844	-0.107000	0.014523	0.061131	-0.749268	-0.366943	-0.110840	0.584144	0.356894	-0.680137	0.262328
21410		9.706719	0.435218	-1.690763	-0.112951	0.015470	0.067905	-0.758057	-0.369385	-0.113281	0.584405	0.355864	-0.680536	0.262113
21411		9.642584	0.410180	-1.719457	-0.125718	0.017902	0.068524	-0.756348	-0.360107	-0.106201	0.584727	0.354712	-0.680975	0.261815
21412		9.612364	0.429165	-1.747276	-0.130312	0.008951	0.060532	-0.760010	-0.364502	-0.112061	0.584861	0.353688	-0.681487	0.261569
21413		9.717424	0.379084	-1.705983	-0.130458	0.009581	0.057715	-0.752441	-0.371094	-0.117432	0.585105	0.352613	-0.681968	0.261219
21414		9.705530	0.253403	-1.708192	-0.113048	0.011271	0.054526	-0.762451	-0.359863	-0.114014	0.585445	0.351708	-0.682290	0.260837
21415		9.638739	0.305960	-1.814323	-0.051923	-0.003921	0.039906	-0.757080	-0.355469	-0.106445	0.585411	0.351091	-0.682640	0.260829
21416		9.556107	0.393641	-1.836940	-0.030414	-0.019977	0.027121	-0.756104	-0.352539	-0.120361	0.585110	0.350852	-0.682981	0.260934
21417		9.523544	0.303313	-2.137189	0.067390	-0.047333	-0.010046	-0.755371	-0.366211	-0.108154	0.584717	0.351020	-0.683139	0.261176
21418		9.670238	0.365951	-2.077056	0.162519	-0.081901	-0.027868	-0.765137	-0.361084	-0.110596	0.583704	0.352283	-0.683109	0.261818
21419		9.682162	0.539985	-2.112030	0.097787	-0.070357	-0.023637	-0.759033	-0.356689	-0.117188	0.582979	0.352918	-0.683275	0.262146
21420		9.629767	0.390443	-1.933549	0.049070	-0.051591	-0.032315	-0.758545	-0.365479	-0.111572	0.582681	0.353131	-0.683425	0.262129
21421		9.779975	0.229886	-1.675450	0.004920	-0.056521	-0.026875	-0.759766	-0.361328	-0.107178	0.582406	0.353336	-0.683652	0.261872
21422		9.729387	0.126461	-1.637707	-0.019696	-0.023016	-0.016571	-0.762207	-0.361816	-0.114258	0.582285	0.353306	-0.683835	0.261704
21423		9.698933	0.063462	-1.818265	0.002581	-0.001623	-0.014790	-0.760498	-0.360352	-0.112061	0.582351	0.353146	-0.683882	0.261651
21424		9.657802	0.068983	-2.022040	0.033022	0.030076	-0.008178	-0.757324	-0.361816	-0.113525	0.582449	0.353073	-0.683727	0.261935
21425		9.626099	0.234271	-2.166039	0.038409	0.037870	-0.001968	-0.751221	-0.358398	-0.103516	0.582597	0.352988	-0.683516	0.262269
21426		9.545824	0.588282	-2.144600	0.028673	0.033215	-0.006347	-0.760254	-0.367432	-0.104248	0.582557	0.353153	-0.683312	0.262669
21427		9.558050	0.874400	-1.927397	-0.013571	0.027861	-0.013009	-0.751953	-0.361572	-0.111084	0.582646	0.353169	-0.683214	0.262704
21428		9.690533	0.949182	-1.759619	-0.085344	0.029781	-0.023921	-0.755615	-0.354492	-0.108154	0.583110	0.352744	-0.683220	0.262230
21429		9.728723	0.789469	-1.678992	-0.146152	0.039302	-0.028070	-0.760498	-0.358398	-0.114502	0.583711	0.351996	-0.683364	0.261524
21430		9.723534	0.639486	-1.712853	-0.179381	0.049674	-0.021281	-0.760742	-0.361084	-0.116699	0.584550	0.350916	-0.683555	0.260600
21431		9.715616	0.523074	-1.797574	-0.212781	0.054081	-0.000035	-0.759521	-0.356445	-0.112793	0.585482	0.349567	-0.683839	0.259573
21432		9.640838	0.483397	-1.887686	-0.236281	0.054221	0.020025	-0.750977	-0.361084	-0.116699	0.586312	0.348092	-0.684241	0.258620
21433		9.588689	0.601927	-1.921812	-0.228041	0.041524	0.026238	-0.763916	-0.355469	-0.121094	0.587110	0.346743	-0.684618	0.257621
21434		9.653042	0.644963	-1.915504	-0.195682	0.027726	0.021676	-0.753906	-0.356445	-0.124023	0.587741	0.345379	-0.685089	0.256763
21435		9.667499	0.599694	-1.766356	-0.177775	0.034987	0.008747	-0.756836	-0.359375	-0.123535	0.588449	0.344237	-0.685374	0.255913
21436		9.622066	0.590900	-1.765386	-0.161579	0.032040	0.004250	-0.760498	-0.357178	-0.125488	0.589066	0.343276	-0.685618	0.255129
21437		9.627186	0.457195	-1.856725	-0.097248	0.020176	-0.005439	-0.757324	-0.354004	-0.118652	0.589446	0.342646	-0.685788	0.254641
21438		9.748211	0.284441	-1.705470	-0.015762	0.010994	-0.008218	-0.750000	-0.357178	-0.122070	0.589399	0.342631	-0.685812	0.254706
21439		9.757558	0.053642	-1.575042	0.044853	0.010340	0.002553	-0.758789	-0.349609	-0.114746	0.589247	0.342872	-0.685681	0.255086
21440		9.713715	0.021941	-1.666882	0.096941	0.014094	0.007055	-0.757812	-0.351318	-0.125244	0.588779	0.343324	-0.685534	0.255953
21441		9.766001	0.128097	-1.690539	0.144561	0.026039	0.008363	-0.756592	-0.349121	-0.125000	0.588462	0.343737	-0.685220	0.256963
21442		9.726778	0.221257	-1.727916	0.195075	0.037998	0.011326	-0.757324	-0.345703	-0.126221	0.588065	0.344328	-0.684754	0.258319
21443		9.667382	0.332624	-1.826085	0.212555	0.036309	0.011270	-0.764160	-0.345947	-0.117188	0.587633	0.344910	-0.684285	0.259765
21444		9.588926	0.460188	-1.851486	0.218521	0.023650	-0.002670	-0.753174	-0.352539	-0.123291	0.586957	0.345790	-0.683846	0.261275
21445		9.607108	0.549158	-1.901062	0.213644	0.006959	-0.024720	-0.760254	-0.356201	-0.118652	0.586436	0.346802	-0.683337	0.262434
21446		9.595470	0.540379	-1.868847	0.218879	0.005810	-0.043384	-0.757324	-0.364746	-0.118896	0.585851	0.348021	-0.682782	0.263570
21447		9.641249	0.600719	-1.782402	0.219655	0.008947	-0.048343	-0.754395	-0.356445	-0.114014	0.585348	0.349349	-0.682129	0.264617
21448		9.673991	0.764718	-1.639961	0.206114	0.004650	-0.041477	-0.761475	-0.357422	-0.116943	0.584753	0.350577	-0.681581	0.265720
21449		9.689393	0.891898	-1.610666	0.159619	-0.013137	-0.035707	-0.754639	-0.358643	-0.111328	0.584246	0.351416	-0.681290	0.266472
21450		9.644889	0.924705	-1.630674	0.068397	-0.025452	-0.039604	-0.765381	-0.349854	-0.111816	0.583876	0.352046	-0.681190	0.266708
21451		9.584834	0.899678	-1.728397	-0.046097	-0.054467	-0.035606	-0.758301	-0.353271	-0.113770	0.583647	0.351906	-0.681632	0.266264
21452		9.609371	0.712116	-1.729890	-0.115614	-0.059165	-0.037044	-0.768799	-0.353516	-0.116943	0.583673	0.351495	-0.682181	0.265340
21453		9.697647	0.468058	-1.773407	-0.169622	-0.049532	-0.036337	-0.759766	-0.360107	-0.117920	0.583949	0.350627	-0.682875	0.264094
21454		9.735124	0.325637	-1.708560	-0.192386	-0.036505	-0.026002	-0.755615	-0.367920	-0.115479	0.584391	0.349712	-0.683484	0.262750
21455		9.706732	0.416919	-1.755669	-0.203857	-0.032329	-0.007191	-0.760742	-0.361084	-0.112305	0.584817	0.348841	-0.684068	0.261440
21456		9.617558	0.520691	-1.824965	-0.237600	-0.022325	0.006081	-0.754150	-0.351807	-0.111816	0.585257	0.347691	-0.684770	0.260145
21457		9.576185	0.574263	-1.830337	-0.266525	-0.034017	0.007331	-0.765137	-0.357666	-0.110107	0.585673	0.346411	-0.685599	0.258730
21458		9.616070	0.652637	-1.912740	-0.254546	-0.036337	0.007689	-0.762695	-0.364014	-0.117188	0.585980	0.345248	-0.686431	0.257380
21459		9.723738	0.646064	-1.868339	-0.255829	-0.028660	0.010774	-0.760254	-0.356445	-0.118896	0.586465	0.344004	-0.687186	0.255922
21460		9.762945	0.400040	-1.844928	-0.274855	-0.008058	0.016678	-0.761230	-0.351807	-0.115234	0.587111	0.342502	-0.687926	0.254463
21461		9.740178	0.085809	-1.799105	-0.282773	0.022067	0.031177	-0.757812	-0.348633	-0.124268	0.587816	0.340878	-0.688594	0.253207
21462		9.780306	0.078637	-1.828677	-0.263510	0.030372	0.051297	-0.759033	-0.349365	-0.119141	0.588606	0.339037	-0.689241	0.252079
21463		9.732097	0.300336	-1.671707	-0.258806	0.039201	0.060399	-0.754639	-0.355225	-0.127930	0.589283	0.337343	-0.689833	0.251148
21464		9.682147	0.597760	-1.583334	-0.259617	0.046298	0.057136	-0.760742	-0.343750	-0.127441	0.590155	0.335628	-0.690311	0.250084
21465		9.703577	0.693691	-1.604846	-0.293573	0.056436	0.052203	-0.760986	-0.346191	-0.129150	0.591115	0.333610	-0.690896	0.248898
21466		9.695714	0.709353	-1.682170	-0.293160	0.066440	0.051438	-0.754395	-0.338135	-0.135254	0.592122	0.331654	-0.691393	0.247733
21467		9.630836	0.568807	-1.745742	-0.256847	0.037849	0.046562	-0.761475	-0.339600	-0.135498	0.592948	0.329827	-0.691953	0.246633
21468		9.631517	0.407481	-1.626685	-0.173806	0.024870	0.029104	-0.764160	-0.339111	-0.130615	0.593458	0.328572	-0.692370	0.245909
21469		9.709918	0.322700	-1.650816	-0.130433	0.025884	0.029846	-0.764404	-0.343506	-0.135498	0.593736	0.327666	-0.692693	0.245538
21470		9.727800	0.374572	-1.669277	-0.114053	0.040992	0.045208	-0.753418	-0.343018	-0.136963	0.594103	0.326704	-0.692917	0.245300
21471		9.730344	0.479662	-1.616837	-0.104172	0.042135	0.054609	-0.759277	-0.334473	-0.135254	0.594463	0.325824	-0.693070	0.245164
21472		9.694190	0.481603	-1.679342	-0.093235	0.045100	0.050935	-0.752930	-0.332031	-0.136230	0.594752	0.324907	-0.693265	0.245131
21473		9.605832	0.493185	-1.811245	-0.063575	0.034364	0.046957	-0.757324	-0.341309	-0.148193	0.594922	0.324209	-0.693414	0.245219
21474		9.667585	0.444020	-1.763710	-0.042734	0.029656	0.044994	-0.758057	-0.338623	-0.143799	0.595205	0.323510	-0.693496	0.245227
21475		9.678408	0.351666	-1.734062	-0.019942	0.031144	0.040659	-0.760498	-0.334473	-0.139160	0.595351	0.323031	-0.693523	0.245427
21476		9.696761	0.333303	-1.700032	-0.003475	0.030358	0.039647	-0.760498	-0.332031	-0.138672	0.595352	0.322689	-0.693551	0.245795
21477		9.708350	0.321492	-1.726149	0.012140	0.025266	0.042657	-0.760010	-0.331787	-0.137207	0.595262	0.322406	-0.693592	0.246265
21478		9.659648	0.218888	-1.688526	0.028644	0.025383	0.041591	-0.768066	-0.327393	-0.149170	0.595106	0.322261	-0.693587	0.246848
21479		9.655202	0.126315	-1.659179	0.102873	0.013952	0.030232	-0.767334	-0.327393	-0.129639	0.594897	0.322161	-0.693548	0.247591
21480		9.728714	0.233132	-1.757610	0.184322	-0.001538	0.004902	-0.760742	-0.329102	-0.142578	0.594093	0.323133	-0.693303	0.248939
21481		9.679037	0.335032	-1.766150	0.239892	-0.000239	-0.019886	-0.761475	-0.334473	-0.143555	0.593467	0.324240	-0.692846	0.250260
21482		9.659634	0.345098	-1.692053	0.193449	-0.001362	-0.026035	-0.762207	-0.333496	-0.142334	0.593010	0.325181	-0.692439	0.251246
21483		9.698158	0.350801	-1.624582	0.092614	0.000008	-0.005895	-0.761963	-0.336182	-0.137695	0.592786	0.325475	-0.692308	0.251756
21484		9.694618	0.374900	-1.553097	0.010152	0.004093	0.011947	-0.762939	-0.335693	-0.137695	0.592698	0.325402	-0.692344	0.251956
21485		9.658702	0.356436	-1.590660	-0.016853	-0.005710	-0.000355	-0.760254	-0.333008	-0.138672	0.592653	0.325274	-0.692459	0.251911
21486		9.671119	0.213311	-1.857581	0.010467	-0.019713	-0.024095	-0.767822	-0.329834	-0.135986	0.592526	0.325403	-0.692528	0.251855
21487		9.688619	0.120959	-1.998641	0.046355	-0.016136	-0.041375	-0.764404	-0.340332	-0.133301	0.592299	0.325747	-0.692521	0.251964
21488		9.646749	0.132505	-1.980586	0.070528	-0.002022	-0.047632	-0.764160	-0.333984	-0.134033	0.592073	0.326463	-0.692272	0.252253
21489		9.657461	0.165670	-1.791993	0.104784	0.004616	-0.049383	-0.763184	-0.333252	-0.130371	0.591816	0.327193	-0.691974	0.252726
21490		9.729521	0.140476	-1.661985	0.135993	0.011066	-0.055531	-0.755127	-0.335938	-0.142334	0.591473	0.328152	-0.691563	0.253411
21491		9.770122	0.125038	-1.677566	0.157057	0.014412	-0.059877	-0.757324	-0.338623	-0.131592	0.591335	0.329019	-0.691045	0.254021
21492		9.712473	0.104661	-1.767936	0.189472	0.022004	-0.062503	-0.768799	-0.330322	-0.133057	0.590976	0.330300	-0.690388	0.254979
21493		9.653578	0.134556	-1.910396	0.235637	0.019988	-0.074449	-0.758057	-0.336670	-0.131348	0.590518	0.331569	-0.689762	0.256084
21494		9.654048	0.139024	-1.907698	0.257551	0.020535	-0.078609	-0.763184	-0.335449	-0.127686	0.590019	0.333155	-0.688965	0.257320
21495		9.665910	0.157725	-1.819153	0.267467	0.018894	-0.081830	-0.756348	-0.341064	-0.128662	0.589433	0.334783	-0.688189	0.258622
21496		9.656267	0.157264	-1.770497	0.265059	0.007679	-0.084384	-0.764893	-0.348145	-0.130127	0.588845	0.336500	-0.687396	0.259836
21497		9.652044	0.191138	-1.700520	0.272766	-0.006590	-0.085430	-0.758545	-0.347168	-0.120361	0.588188	0.338243	-0.686662	0.261000
21498		9.696719	0.170096	-1.674323	0.300347	-0.016099	-0.096392	-0.765137	-0.349365	-0.124268	0.587289	0.340406	-0.685842	0.262369
21499		9.720098	0.050773	-1.627684	0.328709	-0.016759	-0.100815	-0.760498	-0.343994	-0.123291	0.586402	0.342536	-0.684999	0.263775
21500		9.785593	0.002944	-1.658131	0.347780	-0.005435	-0.099344	-0.759521	-0.352783	-0.123779	0.585548	0.344604	-0.684101	0.265304
21501		9.756573	0.037464	-1.674704	0.367006	0.008724	-0.097264	-0.755127	-0.348389	-0.123047	0.584755	0.346781	-0.683034	0.266962
21502		9.762201	0.154393	-1.710866	0.390624	0.023246	-0.099215	-0.755127	-0.349365	-0.109375	0.584003	0.348946	-0.681867	0.268765
21503		9.702049	0.417013	-1.784173	0.397155	0.028896	-0.103845	-0.745605	-0.357666	-0.118652	0.583058	0.351434	-0.680597	0.270787
21504		9.643202	0.631501	-1.805533	0.386600	0.022188	-0.108893	-0.755127	-0.359619	-0.114990	0.582331	0.353790	-0.679305	0.272523
21505		9.602939	0.738614	-1.838882	0.361993	0.016454	-0.117807	-0.759277	-0.359131	-0.119629	0.581612	0.356049	-0.678115	0.274074
21506		9.643768	0.766921	-1.745258	0.339947	0.009300	-0.113781	-0.753662	-0.368164	-0.105225	0.581011	0.357956	-0.677092	0.275389
21507		9.669164	0.847526	-1.693702	0.313314	-0.002813	-0.106118	-0.758057	-0.363770	-0.114746	0.580192	0.360169	-0.676068	0.276747
21508		9.642219	0.928576	-1.713548	0.284231	-0.010736	-0.095092	-0.748535	-0.365234	-0.112061	0.579576	0.361786	-0.675303	0.277790
21509		9.690887	0.970803	-1.689544	0.260629	-0.015440	-0.086619	-0.759033	-0.370850	-0.110840	0.578982	0.363341	-0.674586	0.278741
21510		9.702999	0.961361	-1.693877	0.224670	-0.015101	-0.070637	-0.758057	-0.375977	-0.110107	0.578460	0.364585	-0.674032	0.279539
21511		9.664602	0.939297	-1.748856	0.167653	-0.014493	-0.050667	-0.758545	-0.367432	-0.109131	0.578094	0.365460	-0.673649	0.280077
21512		9.586902	1.043049	-1.846995	0.104062	-0.031279	-0.038256	-0.751953	-0.374512	-0.105469	0.577774	0.365904	-0.673585	0.280312
21513		9.538068	1.120109	-1.928981	0.040777	-0.052774	-0.033556	-0.752441	-0.355957	-0.108398	0.577500	0.366233	-0.673711	0.280145
21514		9.643088	1.065239	-1.860811	-0.019942	-0.066104	-0.036511	-0.754639	-0.367676	-0.097168	0.577338	0.366094	-0.674127	0.279659
21515		9.741308	0.762348	-1.819225	-0.082260	-0.070115	-0.024814	-0.749268	-0.372803	-0.101562	0.577164	0.365942	-0.674647	0.278963
21516		9.730420	0.399180	-1.793081	-0.103579	-0.057354	-0.016822	-0.760986	-0.364014	-0.104736	0.577226	0.365548	-0.675167	0.278092
21517		9.673262	0.255742	-1.801466	-0.080466	-0.051958	-0.019857	-0.757324	-0.379395	-0.099854	0.577258	0.365055	-0.675701	0.277372
21518		9.627533	0.250483	-1.800374	-0.038286	-0.046009	-0.028779	-0.753418	-0.372559	-0.104492	0.577205	0.365024	-0.675996	0.276805
21519		9.677736	0.320079	-1.784947	-0.000358	-0.041814	-0.030752	-0.755127	-0.371826	-0.097656	0.577127	0.365042	-0.676206	0.276432
21520		9.710414	0.357782	-1.774108	0.002064	-0.039043	-0.022929	-0.756104	-0.367432	-0.104004	0.576916	0.365178	-0.676388	0.276247
21521		9.694964	0.323063	-1.752593	-0.001770	-0.026942	-0.015897	-0.756104	-0.368896	-0.094727	0.576867	0.365025	-0.676599	0.276035
21522		9.669562	0.348510	-1.728785	0.002453	-0.023439	-0.009208	-0.749023	-0.372070	-0.097412	0.576653	0.365099	-0.676739	0.276042
21523		9.661236	0.521371	-1.775226	-0.006154	-0.024619	-0.013137	-0.750732	-0.372803	-0.094727	0.576551	0.365127	-0.676876	0.275882
21524		9.646195	0.671658	-1.738325	-0.043119	-0.024444	-0.012658	-0.752686	-0.372803	-0.096680	0.576519	0.365030	-0.677089	0.275553
21525		9.680587	0.550180	-1.867463	-0.086247	-0.027918	-0.005765	-0.757812	-0.363525	-0.100098	0.576617	0.364627	-0.677462	0.274966
21526		9.624278	0.389074	-1.989260	-0.092347	-0.022696	-0.002329	-0.759521	-0.366211	-0.104248	0.576758	0.364024	-0.677887	0.274421
21527		9.607096	0.389691	-2.004502	-0.055495	-0.019559	-0.006012	-0.755371	-0.367676	-0.097900	0.576894	0.363506	-0.678231	0.273971
21528		9.629387	0.419446	-1.955815	-0.008481	-0.011421	-0.011904	-0.758789	-0.369629	-0.098389	0.576845	0.363437	-0.678345	0.273884
21529		9.711966	0.447211	-1.898896	0.028285	-0.001445	-0.005344	-0.751709	-0.374268	-0.093262	0.576744	0.363447	-0.678366	0.274031
21530		9.703670	0.511398	-1.883289	0.028061	0.006870	0.001957	-0.760742	-0.361084	-0.102783	0.576622	0.363580	-0.678302	0.274268
21531		9.586907	0.768284	-1.777790	-0.002599	0.016141	0.010174	-0.755127	-0.373535	-0.107910	0.576711	0.363172	-0.678398	0.274385
21532		9.595839	0.795397	-1.722430	-0.060585	0.012031	0.016268	-0.751465	-0.366455	-0.098877	0.577106	0.362372	-0.678672	0.273933
21533		9.698703	0.707815	-1.803022	-0.107417	0.017310	0.033419	-0.759766	-0.359131	-0.100830	0.577426	0.361530	-0.678990	0.273584
21534		9.674607	0.488377	-1.879518	-0.122824	0.012922	0.054372	-0.755859	-0.365234	-0.106689	0.577685	0.360431	-0.679463	0.273311
21535		9.604711	0.373581	-1.782794	-0.096614	-0.029257	0.063404	-0.756592	-0.368896	-0.100098	0.577747	0.359384	-0.680131	0.272898
21536		9.709063	0.311781	-1.743539	-0.119308	-0.040204	0.074523	-0.760498	-0.359375	-0.096436	0.577697	0.358367	-0.680892	0.272442
21537		9.744498	0.207400	-1.759646	-0.154618	-0.012673	0.087369	-0.751953	-0.361084	-0.097656	0.577750	0.357152	-0.681610	0.272133
21538		9.780133	0.180071	-1.700794	-0.156787	-0.006380	0.093239	-0.758301	-0.357178	-0.101562	0.577873	0.355914	-0.682288	0.271793
21539		9.692800	0.396847	-1.590328	-0.205729	-0.007606	0.093817	-0.760986	-0.360840	-0.104736	0.578167	0.354316	-0.683128	0.271144
21540		9.587884	0.547670	-1.582160	-0.262130	-0.020604	0.070389	-0.754150	-0.354492	-0.096436	0.578669	0.352533	-0.684113	0.269909
21541		9.635634	0.564005	-1.687080	-0.267733	-0.045613	0.052374	-0.762207	-0.364502	-0.101807	0.578897	0.351195	-0.685072	0.268731
21542		9.685272	0.460674	-1.934391	-0.234165	-0.049490	0.044134	-0.760254	-0.350342	-0.108887	0.579154	0.349899	-0.686016	0.267460
21543		9.706056	0.458108	-1.881687	-0.226621	-0.039063	0.040657	-0.758545	-0.360352	-0.106201	0.579493	0.348477	-0.686908	0.266287
21544		9.628324	0.360291	-2.080190	-0.212077	-0.027666	0.031080	-0.765625	-0.354980	-0.108643	0.579875	0.347268	-0.687652	0.265113
21545		9.606929	0.253676	-2.177705	-0.151196	-0.017006	0.011083	-0.761719	-0.349121	-0.098145	0.580179	0.346355	-0.688188	0.264248
21546		9.626744	0.246162	-2.014280	-0.107880	-0.014961	0.008866	-0.762207	-0.354248	-0.108154	0.580169	0.345967	-0.688530	0.263889
21547		9.637082	0.236915	-1.925211	-0.090436	-0.018293	0.008953	-0.761719	-0.347412	-0.117188	0.580275	0.345426	-0.688906	0.263381
21548		9.687144	0.319359	-1.814752	-0.085475	-0.006524	0.008331	-0.756592	-0.354004	-0.106689	0.580545	0.344668	-0.689260	0.262853
21549		9.706743	0.379574	-1.813598	-0.082146	0.010883	0.008174	-0.755371	-0.354004	-0.104980	0.580769	0.344203	-0.689437	0.262503
21550		9.674122	0.377601	-1.835555	-0.069432	0.017228	0.002053	-0.763916	-0.348145	-0.105957	0.580974	0.343885	-0.689520	0.262251
21551		9.616680	0.262112	-1.981298	-0.054230	0.020464	-0.006686	-0.760986	-0.351074	-0.107666	0.581145	0.343604	-0.689571	0.262103
21552		9.642296	0.195393	-2.087977	-0.050866	0.024719	0.000041	-0.769287	-0.351318	-0.112305	0.581353	0.343288	-0.689605	0.261965
21553		9.620103	0.273641	-2.079803	-0.067635	0.034227	0.006683	-0.763184	-0.345703	-0.101318	0.581704	0.342686	-0.689703	0.261719
21554		9.637005	0.388794	-2.021822	-0.068508	0.052341	0.012324	-0.760742	-0.343506	-0.107666	0.581956	0.342301	-0.689656	0.261785
21555		9.679100	0.516213	-1.890930	-0.087910	0.073548	0.015220	-0.756836	-0.346924	-0.110840	0.582461	0.341635	-0.689580	0.261734
21556		9.729569	0.493159	-1.834685	-0.106293	0.079466	0.013095	-0.760986	-0.344971	-0.114502	0.583103	0.340878	-0.689493	0.261520
21557		9.607306	0.377614	-1.917481	-0.116946	0.069377	0.010167	-0.757812	-0.344482	-0.109131	0.583746	0.340026	-0.689500	0.261177
21558		9.582005	0.283675	-1.946972	-0.072399	0.033221	0.004289	-0.762207	-0.343262	-0.113770	0.583971	0.339670	-0.689529	0.261059
21559		9.645666	0.234052	-1.881007	-0.049891	0.022948	0.001045	-0.751221	-0.349365	-0.118652	0.584132	0.339341	-0.689590	0.260966
21560		9.633899	0.305298	-1.903189	-0.030272	0.028845	0.001983	-0.762695	-0.344482	-0.112793	0.584360	0.339115	-0.689528	0.260914
21561		9.649970	0.486735	-1.888987	0.011357	0.032592	-0.012117	-0.753906	-0.344727	-0.115723	0.584409	0.339185	-0.689362	0.261150
21562		9.650431	0.549313	-1.804181	0.044844	0.042966	-0.027234	-0.761475	-0.344482	-0.119873	0.584505	0.339483	-0.689003	0.261497
21563		9.695601	0.488689	-1.881940	0.039295	0.041349	-0.026725	-0.762939	-0.339600	-0.122803	0.584652	0.339622	-0.688712	0.261754
21564		9.662251	0.459169	-1.895520	0.038732	0.034845	-0.017769	-0.763672	-0.344238	-0.121826	0.584769	0.339614	-0.688516	0.262018
21565		9.620295	0.478148	-1.888791	0.048659	0.023677	-0.015479	-0.766602	-0.345947	-0.114990	0.584779	0.339726	-0.688339	0.262315
21566		9.650859	0.464615	-1.872963	0.064177	0.008908	-0.010421	-0.759521	-0.350586	-0.118652	0.584554	0.340049	-0.688198	0.262769
21567		9.598548	0.551620	-1.747231	0.056817	-0.000509	-0.005359	-0.759521	-0.348145	-0.112549	0.584356	0.340331	-0.688097	0.263107
21568		9.635003	0.634411	-1.618693	0.021261	-0.005845	0.003846	-0.761963	-0.345703	-0.117432	0.584126	0.340488	-0.688120	0.263355
21569		9.700501	0.574158	-1.526896	-0.034998	-0.010276	0.005965	-0.764160	-0.342773	-0.118652	0.584090	0.340233	-0.688329	0.263216
21570		9.725907	0.399041	-1.573488	-0.091618	-0.015635	0.017423	-0.759033	-0.346191	-0.117432	0.584170	0.339589	-0.688744	0.262785
21571		9.731253	0.190779	-1.642328	-0.126423	-0.021270	0.023852	-0.764893	-0.339844	-0.120361	0.584293	0.338850	-0.689235	0.262179
21572		9.727107	0.009481	-1.806471	-0.108920	-0.021859	0.023727	-0.759033	-0.346191	-0.114258	0.584382	0.338062	-0.689745	0.261653
21573		9.721264	-0.025385	-1.831889	-0.042676	-0.008297	0.014556	-0.772217	-0.346680	-0.127441	0.584313	0.337847	-0.689942	0.261567
21574		9.725871	0.126027	-1.891276	0.037164	0.005400	0.001739	-0.768311	-0.340820	-0.118164	0.584284	0.337755	-0.689944	0.261748
21575		9.700011	0.284976	-1.841184	0.092953	0.014444	-0.010032	-0.761475	-0.344482	-0.123779	0.584052	0.338118	-0.689735	0.262345
21576		9.653081	0.423252	-1.829569	0.119830	0.010708	-0.020596	-0.763184	-0.346924	-0.116211	0.583838	0.338644	-0.689426	0.262955
21577		9.638698	0.640665	-1.718609	0.108168	0.001398	-0.025414	-0.765137	-0.342529	-0.109863	0.583522	0.339298	-0.689154	0.263524
21578		9.655384	0.658696	-1.710941	0.059405	-0.014984	-0.029962	-0.762939	-0.347168	-0.113037	0.583177	0.339825	-0.689071	0.263827
21579		9.656732	0.706275	-1.722877	-0.030450	-0.024241	-0.031672	-0.754639	-0.341064	-0.114502	0.583096	0.339927	-0.689207	0.263519
21580		9.710929	0.540659	-1.896842	-0.122645	-0.034133	-0.011946	-0.767090	-0.340332	-0.114258	0.583200	0.339445	-0.689651	0.262747
21581		9.675000	0.434317	-1.874147	-0.139964	-0.022792	-0.014696	-0.763184	-0.340088	-0.118896	0.583406	0.338797	-0.690122	0.261890
21582		9.621388	0.405845	-1.923180	-0.169023	-0.026158	-0.020808	-0.766357	-0.341309	-0.109131	0.583743	0.338001	-0.690647	0.260780
21583		9.587681	0.311929	-2.009050	-0.153766	-0.039988	-0.035233	-0.761963	-0.340332	-0.114990	0.583855	0.337571	-0.691146	0.259761
21584		9.594739	0.206804	-1.995666	-0.130581	-0.051492	-0.042112	-0.763428	-0.340576	-0.117920	0.583927	0.337232	-0.691632	0.258746
21585		9.684275	0.183245	-1.844014	-0.091954	-0.043919	-0.047153	-0.758545	-0.341553	-0.115967	0.583978	0.337035	-0.691995	0.257915
21586		9.718467	0.221590	-1.935693	-0.065114	-0.043132	-0.060034	-0.756836	-0.343018	-0.122070	0.583967	0.337111	-0.692232	0.257203
21587		9.626331	0.389907	-1.925894	-0.054800	-0.021056	-0.067309	-0.761963	-0.343506	-0.120117	0.584151	0.337144	-0.692319	0.256508
21588		9.630288	0.510078	-1.829437	-0.082403	-0.032665	-0.061683	-0.762451	-0.343262	-0.117188	0.584301	0.337037	-0.692555	0.255666
21589		9.623415	0.610588	-1.923200	-0.124005	-0.027873	-0.051988	-0.765137	-0.340576	-0.114990	0.584538	0.336700	-0.692884	0.254677
21590		9.579571	0.695210	-1.948347	-0.157691	-0.033598	-0.043719	-0.763184	-0.354492	-0.116699	0.584783	0.336156	-0.693357	0.253543
21591		9.595930	0.509543	-2.056711	-0.171667	-0.047709	-0.040635	-0.755859	-0.351074	-0.116699	0.584999	0.335707	-0.693850	0.252288
21592		9.681770	0.393243	-2.007683	-0.156337	-0.034945	-0.037218	-0.760010	-0.347656	-0.113037	0.585241	0.335292	-0.694247	0.251184
21593		9.702936	0.283002	-2.009298	-0.152544	-0.018443	-0.014906	-0.762939	-0.348877	-0.107178	0.585469	0.334728	-0.694650	0.250290
21594		9.673958	0.281408	-1.885335	-0.128994	-0.003955	0.000731	-0.766602	-0.339600	-0.115479	0.585605	0.334255	-0.694972	0.249708
21595		9.700750	0.320636	-1.924408	-0.121110	0.003766	0.018912	-0.760498	-0.351807	-0.123047	0.585819	0.333429	-0.695378	0.249180
21596		9.737997	0.337008	-1.989250	-0.114797	0.024326	0.036167	-0.761475	-0.344238	-0.119141	0.586172	0.332617	-0.695602	0.248810
21597		9.679142	0.376007	-2.011628	-0.088657	0.040292	0.048791	-0.762695	-0.349609	-0.117432	0.586468	0.331791	-0.695779	0.248720
21598		9.651887	0.516761	-1.843170	-0.078185	0.046648	0.051273	-0.764404	-0.345703	-0.127197	0.586732	0.331114	-0.695864	0.248761
21599		9.640490	0.685431	-1.680244	-0.100598	0.046859	0.046308	-0.760254	-0.344482	-0.126709	0.587163	0.330186	-0.696010	0.248568
21600		9.684539	0.701698	-1.814332	-0.139390	0.052185	0.042027	-0.766113	-0.340576	-0.126465	0.587729	0.329122	-0.696183	0.248158
21601		9.707514	0.673140	-1.861252	-0.184321	0.072555	0.063695	-0.764160	-0.334717	-0.125488	0.588470	0.327615	-0.696451	0.247645
21602		9.659176	0.579033	-1.856804	-0.215675	0.079776	0.087308	-0.756836	-0.335938	-0.130371	0.589265	0.325778	-0.696838	0.247087
21603		9.564000	0.496043	-1.878936	-0.198857	0.067035	0.096361	-0.760986	-0.333740	-0.124023	0.589954	0.324050	-0.697221	0.246636
21604		9.616335	0.531357	-1.732591	-0.198669	0.041421	0.124865	-0.768311	-0.332031	-0.137695	0.590344	0.322287	-0.697824	0.246308
21605		9.791750	0.560824	-1.547319	-0.217252	0.008828	0.151332	-0.767090	-0.332520	-0.136475	0.590652	0.320167	-0.698708	0.245825
21606		9.798751	0.574207	-1.402117	-0.200203	-0.015311	0.170282	-0.770508	-0.329834	-0.139404	0.590706	0.318161	-0.699692	0.245503
21607		9.782450	0.412056	-1.458144	-0.093251	-0.021242	0.148153	-0.776611	-0.326660	-0.129639	0.590502	0.316788	-0.700430	0.245665
21608		9.705355	0.351527	-1.698379	0.115647	-0.012087	0.073329	-0.767090	-0.319824	-0.127197	0.589847	0.316936	-0.700531	0.246756
21609		9.684831	0.387800	-1.896071	0.289672	0.020308	0.001050	-0.760986	-0.325195	-0.138672	0.589076	0.318261	-0.699935	0.248578
21610		9.622111	0.379161	-1.810228	0.324263	0.039112	-0.001519	-0.775879	-0.328369	-0.131104	0.588452	0.319694	-0.699087	0.250592
21611		9.576420	0.292418	-1.536144	0.279803	0.027989	0.027919	-0.761475	-0.331055	-0.131836	0.587731	0.320802	-0.698501	0.252497
21612		9.650878	0.207567	-1.488676	0.201111	0.013561	0.057032	-0.769775	-0.323242	-0.129639	0.587105	0.321476	-0.698149	0.254065
21613		9.688536	0.316807	-1.630787	0.149149	0.001769	0.071366	-0.766846	-0.330078	-0.123291	0.586509	0.321687	-0.698093	0.255326
21614		9.669941	0.508296	-1.929612	0.117503	-0.011644	0.073490	-0.775146	-0.329102	-0.126953	0.585852	0.321962	-0.698105	0.256452
21615		9.645896	0.507323	-2.140092	0.083511	-0.009653	0.058940	-0.760742	-0.327637	-0.118896	0.585362	0.322065	-0.698163	0.257283
21616		9.660597	0.171426	-2.034453	0.018344	-0.005470	0.045292	-0.768311	-0.319336	-0.125244	0.585052	0.322045	-0.698272	0.257716
21617		9.707558	-0.242873	-1.965096	-0.016819	-0.008965	0.030321	-0.770020	-0.328125	-0.122314	0.584917	0.321711	-0.698517	0.257774
21618		9.694676	-0.406768	-1.954398	-0.005584	0.003841	0.011110	-0.768066	-0.311768	-0.115723	0.584819	0.321710	-0.698548	0.257917
21619		9.656358	-0.523071	-1.944193	0.051259	0.024312	-0.005173	-0.770752	-0.326172	-0.116699	0.584709	0.321788	-0.698479	0.258254
21620		9.713454	-0.558466	-1.940636	0.144133	0.038281	-0.015878	-0.779785	-0.315674	-0.123779	0.584419	0.322615	-0.697975	0.259237
21621		9.707436	-0.597491	-1.969362	0.225093	0.058194	-0.015220	-0.770508	-0.321045	-0.125732	0.584111	0.323468	-0.697323	0.260621
21622		9.729976	-0.459193	-1.892253	0.290523	0.072391	-0.024152	-0.765869	-0.326416	-0.134277	0.583743	0.324781	-0.696342	0.262430
21623		9.671529	-0.172319	-1.858610	0.330519	0.072417	-0.048720	-0.765869	-0.327637	-0.122070	0.583389	0.326460	-0.695117	0.264372
21624		9.669538	0.124836	-1.852606	0.333320	0.061877	-0.072821	-0.772705	-0.327148	-0.122314	0.582915	0.328407	-0.693896	0.266211
21625		9.654416	0.338939	-1.760862	0.288301	0.034803	-0.085143	-0.769775	-0.328613	-0.120117	0.582438	0.330183	-0.692909	0.267625
21626		9.569337	0.330159	-1.715032	0.219255	0.006727	-0.097731	-0.766113	-0.325439	-0.119141	0.582009	0.331774	-0.692168	0.268505
21627		9.656691	0.142752	-1.706447	0.187559	-0.015912	-0.105674	-0.761963	-0.333984	-0.119629	0.581573	0.333226	-0.691622	0.269059
21628		9.704434	-0.135514	-1.722070	0.192057	-0.029392	-0.100040	-0.767090	-0.333496	-0.118652	0.581031	0.334837	-0.691052	0.269693
21629		9.791433	-0.259713	-1.770706	0.235175	-0.015037	-0.097561	-0.771484	-0.335449	-0.120850	0.580446	0.336542	-0.690360	0.270602
21630		9.786686	-0.169950	-1.741497	0.286143	-0.004255	-0.100757	-0.767090	-0.335938	-0.119873	0.579807	0.338445	-0.689489	0.271814
21631		9.705693	0.153105	-1.764559	0.306029	-0.001359	-0.110521	-0.767090	-0.337402	-0.109619	0.579162	0.340481	-0.688524	0.273091
21632		9.568163	0.448396	-1.868370	0.295144	-0.006777	-0.121269	-0.763916	-0.344482	-0.115234	0.578468	0.342586	-0.687606	0.274242
21633		9.643656	0.383109	-1.926601	0.274343	-0.019380	-0.124192	-0.762207	-0.338867	-0.110352	0.577811	0.344692	-0.686697	0.275263
21634		9.764100	0.433240	-1.926294	0.269741	-0.025672	-0.106594	-0.761719	-0.340576	-0.109131	0.577089	0.346566	-0.685962	0.276255
21635		9.612257	0.535906	-1.752522	0.264188	-0.025708	-0.108082	-0.766113	-0.343750	-0.106689	0.576387	0.348416	-0.685230	0.277207
21636		9.614090	0.620015	-1.641359	0.238785	-0.045122	-0.122804	-0.766357	-0.348877	-0.111328	0.575665	0.350284	-0.684606	0.277894
21637		9.644240	0.518621	-1.811929	0.203271	-0.065170	-0.121102	-0.763672	-0.350586	-0.105225	0.574968	0.352030	-0.684112	0.278348
21638		9.620898	0.455010	-1.955860	0.189039	-0.073551	-0.109080	-0.761719	-0.343750	-0.100586	0.574205	0.353694	-0.683728	0.278757
21639		9.653869	0.410193	-2.006548	0.193740	-0.079790	-0.105842	-0.761719	-0.344482	-0.098633	0.573389	0.355243	-0.683461	0.279122
21640		9.618564	0.298567	-1.971144	0.207334	-0.076376	-0.112625	-0.759033	-0.353760	-0.094482	0.572568	0.356873	-0.683130	0.279536
21641		9.662304	0.246840	-1.928673	0.231095	-0.067945	-0.121591	-0.768555	-0.354248	-0.093994	0.571708	0.358809	-0.682592	0.280132
21642		9.658804	0.336741	-1.989713	0.250778	-0.055749	-0.123401	-0.755127	-0.361572	-0.094727	0.570866	0.360742	-0.681983	0.280848
21643		9.621910	0.474588	-1.982145	0.270575	-0.051277	-0.120571	-0.750977	-0.351318	-0.087158	0.570005	0.362866	-0.681207	0.281742
21644		9.617415	0.549467	-1.917637	0.260512	-0.049253	-0.106303	-0.754395	-0.356201	-0.088623	0.569143	0.364696	-0.680607	0.282572
21645		9.650863	0.609702	-1.900276	0.219873	-0.044828	-0.093190	-0.756836	-0.363281	-0.083496	0.568412	0.366264	-0.680089	0.283262
21646		9.616669	0.654359	-1.945931	0.169412	-0.048354	-0.085796	-0.755859	-0.363037	-0.089355	0.567751	0.367671	-0.679685	0.283735
21647		9.589478	0.697045	-2.053344	0.136365	-0.048999	-0.081738	-0.764893	-0.362061	-0.086182	0.567243	0.368817	-0.679372	0.284011
21648		9.606368	0.684347	-2.135901	0.098155	-0.046950	-0.072150	-0.768555	-0.362793	-0.083252	0.566821	0.369667	-0.679221	0.284111
21649		9.680357	0.600444	-2.083367	0.049629	-0.045733	-0.049733	-0.767578	-0.377197	-0.081787	0.566482	0.370155	-0.679264	0.284049
21650		9.681701	0.396637	-1.971264	0.015112	-0.041072	-0.040723	-0.761719	-0.369629	-0.081055	0.566223	0.370643	-0.679265	0.283925
21651		9.661764	0.300936	-1.962396	0.005026	-0.041587	-0.039069	-0.758057	-0.361328	-0.078125	0.566010	0.370975	-0.679353	0.283708
21652		9.650723	0.372143	-1.954580	0.016975	-0.033065	-0.042875	-0.759277	-0.370117	-0.083740	0.565822	0.371254	-0.679436	0.283519
21653		9.642431	0.405382	-2.027121	0.023334	-0.023610	-0.047373	-0.755615	-0.358154	-0.082275	0.565707	0.371652	-0.679359	0.283410
21654		9.609522	0.423611	-1.936508	0.029305	-0.007686	-0.045331	-0.757324	-0.362305	-0.079102	0.565682	0.371854	-0.679304	0.283328
21655		9.609115	0.429730	-1.937181	0.029625	0.001896	-0.042971	-0.750977	-0.371338	-0.077393	0.565670	0.372095	-0.679187	0.283316
21656		9.689481	0.362299	-1.973175	0.024027	0.010944	-0.031813	-0.760742	-0.371338	-0.075684	0.565682	0.372383	-0.678989	0.283388
21657		9.677750	0.359784	-1.828997	0.004425	0.024582	-0.009259	-0.754883	-0.366943	-0.085449	0.565752	0.372395	-0.678873	0.283510
21658		9.653876	0.496075	-1.721433	-0.050311	0.027276	0.017109	-0.763916	-0.383545	-0.077148	0.566035	0.371880	-0.678961	0.283411
21659		9.666954	0.569894	-1.769425	-0.132805	0.033128	0.042987	-0.760742	-0.364746	-0.078613	0.566436	0.371092	-0.679197	0.283078
21660		9.682116	0.617622	-1.793315	-0.205902	0.041703	0.069722	-0.762451	-0.362061	-0.084961	0.567083	0.369541	-0.679780	0.282410
21661		9.671792	0.630679	-1.772387	-0.296058	0.038000	0.092739	-0.752930	-0.363770	-0.090576	0.567964	0.367390	-0.680662	0.281318
21662		9.661878	0.573445	-1.839544	-0.371609	0.036135	0.110841	-0.761230	-0.356934	-0.087891	0.569054	0.364832	-0.681725	0.279867
21663		9.669883	0.344173	-1.926284	-0.395625	0.033555	0.123851	-0.761230	-0.363281	-0.091797	0.570120	0.362039	-0.682951	0.278333
21664		9.589477	0.174329	-1.912657	-0.387444	0.029146	0.120209	-0.758301	-0.358154	-0.088867	0.571135	0.359424	-0.684091	0.276837
21665		9.569901	0.212471	-1.854972	-0.349209	0.017240	0.097978	-0.752441	-0.350830	-0.089844	0.571983	0.357144	-0.685152	0.275408
21666		9.644432	0.126754	-1.934341	-0.288438	-0.003076	0.070652	-0.759277	-0.354980	-0.097656	0.572603	0.355299	-0.686116	0.274104
21667		9.753023	0.155711	-1.787944	-0.250329	0.015042	0.067012	-0.760498	-0.354004	-0.093506	0.573244	0.353643	-0.686846	0.273076
21668		9.649825	0.262780	-1.840502	-0.256590	0.026933	0.065134	-0.760498	-0.347168	-0.093506	0.573930	0.351976	-0.687537	0.272049
21669		9.616627	0.213467	-1.850573	-0.259109	0.020367	0.055892	-0.763916	-0.348389	-0.099854	0.574600	0.350297	-0.688278	0.270923
21670		9.759065	0.035343	-1.811656	-0.258890	0.018803	0.058835	-0.767334	-0.348877	-0.101074	0.575275	0.348609	-0.689005	0.269818
21671		9.762501	-0.000804	-1.890776	-0.251334	0.037165	0.068370	-0.761475	-0.345703	-0.104980	0.575997	0.346884	-0.689644	0.268868
21672		9.661851	0.149215	-1.948261	-0.230901	0.045374	0.080971	-0.763916	-0.347168	-0.106445	0.576704	0.345140	-0.690228	0.268099
21673		9.647773	0.209371	-1.982237	-0.182767	0.046192	0.082450	-0.772461	-0.340820	-0.102295	0.577261	0.343657	-0.690684	0.267630
21674		9.692198	0.329684	-1.931176	-0.162165	0.037579	0.075583	-0.762695	-0.341553	-0.110352	0.577677	0.342280	-0.691177	0.267224
21675		9.607965	0.556809	-1.899471	-0.179530	0.034983	0.064035	-0.760010	-0.341309	-0.121338	0.578212	0.340903	-0.691636	0.266637
21676		9.575239	0.552478	-2.054051	-0.184690	0.022166	0.045359	-0.760742	-0.344238	-0.111084	0.578796	0.339609	-0.692074	0.265884
21677		9.600433	0.196873	-2.028105	-0.162612	0.022752	0.029172	-0.767334	-0.341797	-0.110352	0.579271	0.338623	-0.692421	0.265202
21678		9.699293	-0.040423	-2.066631	-0.110397	0.024053	0.037768	-0.760742	-0.334961	-0.114014	0.579565	0.337812	-0.692697	0.264874
21679		9.660962	0.019084	-2.053841	-0.062853	0.033359	0.042207	-0.768311	-0.335205	-0.114990	0.579810	0.337096	-0.692858	0.264830
21680		9.615185	0.114943	-2.001155	-0.012541	0.035033	0.035233	-0.759277	-0.349121	-0.114990	0.579922	0.336665	-0.692882	0.265068
21681		9.666783	0.143631	-1.963424	0.004797	0.035205	0.032300	-0.765137	-0.339111	-0.113525	0.579985	0.336552	-0.692747	0.265428
21682		9.617267	0.193850	-1.917031	-0.006700	0.028667	0.028101	-0.755859	-0.325684	-0.116943	0.580044	0.336288	-0.692737	0.265659
21683		9.580150	0.200839	-1.865053	-0.002541	0.021700	0.023900	-0.761475	-0.341797	-0.109131	0.580123	0.335893	-0.692810	0.265797
21684		9.494066	0.128502	-1.930643	0.034522	-0.016204	0.014173	-0.768311	-0.333984	-0.114258	0.579809	0.336083	-0.692873	0.266077
21685		9.560585	0.189112	-1.899456	0.101364	-0.080607	0.006074	-0.768799	-0.331787	-0.116699	0.578988	0.336649	-0.693119	0.266508
21686		9.720088	0.285778	-1.972616	0.044751	-0.131810	0.022818	-0.763672	-0.335205	-0.111084	0.578020	0.336914	-0.693784	0.266545
21687		9.662645	0.407901	-2.263708	0.028906	-0.088292	0.029758	-0.768066	-0.327881	-0.105957	0.577314	0.337038	-0.694272	0.266646
21688		9.731115	0.368807	-2.279671	0.003622	-0.069162	0.029522	-0.774170	-0.335205	-0.104248	0.576773	0.336906	-0.694794	0.266624
21689		9.655939	0.390730	-2.177295	-0.092090	-0.034902	0.031459	-0.775391	-0.337402	-0.106445	0.576664	0.336340	-0.695321	0.266201
21690		9.623443	0.444911	-1.989795	-0.170328	-0.004289	0.019765	-0.767822	-0.333740	-0.109375	0.576983	0.335431	-0.695813	0.265371
21691		9.657230	0.459347	-1.843425	-0.223010	0.019442	0.020950	-0.764893	-0.327393	-0.111084	0.577615	0.334165	-0.696313	0.264278
21692		9.706941	0.420038	-1.897063	-0.245019	0.023658	0.020156	-0.765869	-0.331055	-0.104736	0.578352	0.332707	-0.696872	0.263030
21693		9.666144	0.233644	-1.882769	-0.204593	0.016090	0.021003	-0.772217	-0.331055	-0.110107	0.578874	0.331542	-0.697378	0.262010
21694		9.606354	0.198331	-2.105977	-0.168352	0.000036	0.018255	-0.769287	-0.326660	-0.116943	0.579216	0.330598	-0.697858	0.261167
21695		9.706885	0.246780	-2.156323	-0.098878	0.008883	0.005620	-0.772461	-0.323730	-0.112793	0.579492	0.329976	-0.698107	0.260676
21696		9.713351	0.335950	-1.914858	0.006170	0.017203	-0.012025	-0.773193	-0.334229	-0.109619	0.579539	0.329916	-0.698081	0.260716
21697		9.704626	0.297678	-1.724261	0.071303	0.015610	-0.029905	-0.771484	-0.327881	-0.114258	0.579394	0.330445	-0.697809	0.261096
21698		9.682547	0.014823	-1.744967	0.116315	0.008541	-0.043235	-0.761475	-0.337646	-0.111572	0.579158	0.331171	-0.697463	0.261624
21699		9.722511	-0.267063	-1.744382	0.088261	0.001983	-0.032559	-0.770508	-0.326660	-0.110352	0.578925	0.331866	-0.697166	0.262051
21700		9.749215	-0.488395	-1.646521	0.133904	0.015032	-0.016376	-0.767090	-0.333008	-0.104980	0.578610	0.332474	-0.696853	0.262806
21701		9.728540	-0.201825	-1.855955	0.168390	0.031798	-0.003504	-0.768066	-0.328369	-0.109131	0.578235	0.333243	-0.696388	0.263890
21702		9.603976	0.153038	-1.868597	0.150117	0.041716	0.008736	-0.766113	-0.330078	-0.111084	0.577975	0.333745	-0.695965	0.264939
21703		9.626837	0.271448	-1.753856	0.095146	0.030380	0.018804	-0.760498	-0.324463	-0.111328	0.577791	0.333974	-0.695717	0.265701
21704		9.654427	0.392502	-1.476475	0.017703	0.020979	0.022726	-0.771240	-0.331299	-0.116455	0.577786	0.333743	-0.695732	0.265961
21705		9.707363	0.377966	-1.523165	-0.046614	0.016425	0.013372	-0.775391	-0.333496	-0.108398	0.577941	0.333370	-0.695816	0.265873
21706		9.692313	0.139338	-1.758916	-0.053041	0.021504	-0.003289	-0.765381	-0.336426	-0.118408	0.578122	0.333104	-0.695866	0.265682
21707		9.652841	-0.116348	-1.942507	-0.051957	0.026119	-0.002863	-0.769531	-0.328613	-0.113525	0.578386	0.332875	-0.695809	0.265546
21708		9.598139	-0.093708	-1.920167	-0.035270	0.023142	0.000058	-0.776855	-0.330078	-0.109863	0.578563	0.332596	-0.695831	0.265450
21709		9.585347	-0.062975	-1.922014	-0.003943	0.000628	-0.004420	-0.767334	-0.332520	-0.115479	0.578494	0.332571	-0.695896	0.265463
21710		9.704240	-0.208111	-1.956405	0.052037	-0.007871	-0.019098	-0.768311	-0.335205	-0.114014	0.578292	0.332963	-0.695774	0.265729
21711		9.749601	-0.247414	-1.924674	0.082372	0.006200	-0.026896	-0.765381	-0.329834	-0.107422	0.578090	0.333557	-0.695482	0.266189
21712		9.738470	-0.017444	-1.902687	0.082850	0.024539	-0.027715	-0.768555	-0.336670	-0.114014	0.577990	0.334020	-0.695177	0.266622
21713		9.601173	0.184122	-1.678465	0.074214	0.012317	-0.042619	-0.761230	-0.329346	-0.113281	0.577879	0.334667	-0.694817	0.266990
21714		9.568808	0.260113	-1.866711	0.035889	0.001476	-0.061345	-0.760742	-0.336426	-0.108887	0.577890	0.335128	-0.694605	0.266937
21715		9.642266	0.019501	-1.979672	0.031265	-0.002854	-0.059726	-0.768799	-0.331543	-0.117188	0.577849	0.335675	-0.694397	0.266883
21716		9.696718	-0.143817	-1.924365	0.051375	0.001273	-0.049375	-0.765625	-0.329102	-0.112793	0.577786	0.336159	-0.694159	0.267026
21717		9.671002	-0.041450	-1.819455	0.064251	-0.006190	-0.046687	-0.775146	-0.333252	-0.107178	0.577638	0.336649	-0.693986	0.267180
21718		9.697423	0.090016	-1.787833	0.041628	-0.007263	-0.054407	-0.766113	-0.338623	-0.105713	0.577512	0.337130	-0.693856	0.267184
21719		9.726315	-0.006976	-1.861863	0.008441	0.003298	-0.058914	-0.766113	-0.333008	-0.104492	0.577549	0.337539	-0.693690	0.267020
21720		9.687436	-0.110377	-1.757401	0.005332	0.026401	-0.059116	-0.760986	-0.326172	-0.109375	0.577744	0.337769	-0.693483	0.266842
21721		9.679941	0.057217	-1.781775	0.003368	0.038303	-0.050931	-0.767578	-0.326416	-0.111328	0.578048	0.337794	-0.693279	0.266682
21722		9.690517	0.267710	-1.800317	-0.018116	0.048292	-0.029389	-0.763916	-0.330566	-0.107178	0.578413	0.337570	-0.693133	0.266554
21723		9.634704	0.344002	-1.813804	-0.046958	0.052276	-0.004987	-0.760010	-0.330078	-0.117676	0.578800	0.337130	-0.693086	0.266395
21724		9.571423	0.352492	-1.858879	-0.070345	0.045720	0.007189	-0.762939	-0.331543	-0.117188	0.579238	0.336520	-0.693100	0.266177
21725		9.670774	0.382541	-1.914310	-0.081494	0.041396	0.007349	-0.763672	-0.330811	-0.114746	0.579664	0.335894	-0.693155	0.265897
21726		9.714097	0.378746	-1.925583	-0.084070	0.050601	0.006628	-0.770264	-0.334473	-0.118164	0.580136	0.335236	-0.693189	0.265608
21727		9.712268	0.569757	-1.786098	-0.100348	0.057646	0.008767	-0.762451	-0.326172	-0.117432	0.580675	0.334533	-0.693193	0.265306
21728		9.616065	0.795927	-1.715140	-0.162711	0.055095	0.014500	-0.764160	-0.326904	-0.114746	0.581388	0.333377	-0.693429	0.264583
21729		9.625322	0.746984	-1.741141	-0.176058	0.047580	0.009525	-0.766113	-0.330322	-0.124023	0.582077	0.332229	-0.693725	0.263734
21730		9.706581	0.517125	-1.685298	-0.176925	0.035215	0.015308	-0.761230	-0.322998	-0.124023	0.582704	0.331127	-0.694028	0.262936
21731		9.722966	0.450538	-1.637554	-0.195078	0.040024	0.033427	-0.770020	-0.332764	-0.116699	0.583388	0.329721	-0.694450	0.262072
21732		9.726324	0.457499	-1.751101	-0.155053	0.040533	0.040310	-0.763184	-0.324951	-0.123291	0.583862	0.328643	-0.694765	0.261534
21733		9.722123	0.351369	-1.739225	-0.124153	0.052030	0.044012	-0.769775	-0.331299	-0.128418	0.584366	0.327559	-0.694986	0.261183
21734		9.669033	0.356105	-1.695627	-0.121520	0.045544	0.044419	-0.760010	-0.327393	-0.129395	0.584810	0.326606	-0.695164	0.260906
21735		9.690951	0.455580	-1.692914	-0.128688	0.034017	0.036589	-0.766846	-0.325439	-0.128174	0.585249	0.325648	-0.695403	0.260482
21736		9.587875	0.435137	-1.822191	-0.076214	0.018088	0.027615	-0.760254	-0.322266	-0.125244	0.585452	0.325014	-0.695610	0.260268
21737		9.653876	0.221045	-1.913025	-0.001800	0.001409	0.016551	-0.773926	-0.318359	-0.131104	0.585383	0.324810	-0.695735	0.260343
21738		9.667933	-0.022419	-1.919555	0.067431	0.008787	0.016683	-0.770508	-0.316895	-0.126465	0.585179	0.324861	-0.695691	0.260856
21739		9.712072	-0.098690	-1.881191	0.106742	0.015782	0.024959	-0.765625	-0.319824	-0.125732	0.584879	0.325030	-0.695573	0.261628
21740		9.719943	-0.015944	-1.863736	0.113320	0.026848	0.038398	-0.770996	-0.322754	-0.134033	0.584596	0.325185	-0.695391	0.262551
21741		9.752749	0.154619	-1.667316	0.101302	0.049624	0.042664	-0.767334	-0.322021	-0.126709	0.584492	0.325237	-0.695079	0.263543
21742		9.661942	0.287184	-1.642232	0.087138	0.058277	0.031659	-0.764160	-0.317627	-0.132080	0.584471	0.325279	-0.694753	0.264395
21743		9.692462	0.323814	-1.808972	0.139409	0.051985	-0.002866	-0.769775	-0.317871	-0.125000	0.584389	0.325720	-0.694253	0.265346
21744		9.608079	0.238633	-1.867072	0.180816	0.052005	-0.020750	-0.771729	-0.314697	-0.134033	0.584186	0.326480	-0.693648	0.266439
21745		9.603605	0.031270	-1.929153	0.130326	0.024834	-0.021152	-0.762207	-0.315674	-0.130127	0.584016	0.326981	-0.693277	0.267164
21746		9.574240	-0.047752	-1.879028	0.039866	0.008431	-0.016696	-0.762451	-0.321289	-0.122559	0.583984	0.327077	-0.693194	0.267330
21747		9.660696	-0.016181	-1.773607	-0.019553	0.001054	-0.004580	-0.770508	-0.322510	-0.135254	0.583992	0.326936	-0.693298	0.267216
21748		9.710759	-0.006919	-1.720824	-0.030952	-0.002724	-0.009158	-0.769775	-0.314453	-0.125488	0.584071	0.326741	-0.693390	0.267040
21749		9.749592	-0.014805	-1.768016	-0.011726	0.005379	-0.015513	-0.765381	-0.324219	-0.133057	0.584121	0.326588	-0.693474	0.266903
21750		9.762482	-0.079224	-1.890574	0.018054	0.012407	-0.030619	-0.769775	-0.318115	-0.131836	0.584195	0.326758	-0.693314	0.266947
21751		9.667912	-0.174511	-1.889660	0.057826	0.014553	-0.045812	-0.770508	-0.322266	-0.124756	0.584203	0.327123	-0.693069	0.267119
21752		9.662186	-0.113641	-1.836890	0.113591	0.007398	-0.067450	-0.769043	-0.322754	-0.129150	0.584018	0.327975	-0.692674	0.267504
21753		9.628367	-0.020408	-1.787432	0.146832	0.006015	-0.082885	-0.766113	-0.327637	-0.125977	0.583798	0.329055	-0.692154	0.268002
21754		9.642290	-0.026007	-1.786376	0.164226	-0.009412	-0.095258	-0.766357	-0.326416	-0.131348	0.583453	0.330385	-0.691613	0.268514
21755		9.729392	-0.193717	-1.840090	0.190653	-0.023830	-0.094362	-0.761719	-0.331787	-0.123535	0.582988	0.331809	-0.691082	0.269135
21756		9.793049	-0.418791	-1.804348	0.224130	-0.012703	-0.094416	-0.760742	-0.327881	-0.127197	0.582457	0.333450	-0.690406	0.269990
21757		9.897304	-0.493406	-1.603286	0.273954	0.002911	-0.101313	-0.770020	-0.328125	-0.125488	0.581928	0.335247	-0.689540	0.271116
21758		9.850009	-0.381998	-1.402553	0.290247	0.036177	-0.105477	-0.766113	-0.334473	-0.121094	0.581534	0.337044	-0.688486	0.272408
21759		9.740173	-0.261506	-1.389102	0.266633	0.051290	-0.106700	-0.767090	-0.328857	-0.123047	0.581273	0.338772	-0.687377	0.273621
21760		9.636645	-0.118606	-1.622845	0.263249	0.040264	-0.115498	-0.756592	-0.336182	-0.119873	0.580999	0.340454	-0.686345	0.274704
21761		9.619713	0.057436	-1.892102	0.288862	0.025885	-0.115251	-0.765869	-0.335693	-0.117920	0.580562	0.342377	-0.685272	0.275914
21762		9.607965	0.301040	-1.985335	0.307775	0.013730	-0.121318	-0.766602	-0.339111	-0.121094	0.579994	0.344417	-0.684226	0.277161
21763		9.551862	0.412817	-2.003767	0.318578	-0.005007	-0.121589	-0.756592	-0.342285	-0.117676	0.579309	0.346542	-0.683221	0.278420
21764		9.573167	0.519957	-1.973358	0.330910	-0.025417	-0.128153	-0.756104	-0.344971	-0.114746	0.578488	0.348841	-0.682243	0.279653
21765		9.620233	0.580510	-1.953058	0.342733	-0.033454	-0.131476	-0.764893	-0.351807	-0.111328	0.577585	0.351240	-0.681260	0.280912
21766		9.650844	0.571789	-1.915487	0.350648	-0.038424	-0.140491	-0.764893	-0.344238	-0.107910	0.576619	0.353782	-0.680237	0.282182
21767		9.604777	0.532299	-1.893696	0.362107	-0.056343	-0.148998	-0.758301	-0.349609	-0.105469	0.575537	0.356362	-0.679309	0.283378
21768		9.678517	0.524587	-1.863957	0.362996	-0.064046	-0.150820	-0.756348	-0.351074	-0.097412	0.574416	0.359008	-0.678373	0.284551
21769		9.693205	0.558355	-1.853428	0.325990	-0.051970	-0.139382	-0.759277	-0.361084	-0.096436	0.573413	0.361402	-0.677509	0.285602
21770		9.729613	0.630841	-1.639767	0.249750	-0.036135	-0.117199	-0.756348	-0.359863	-0.104248	0.572669	0.363334	-0.676765	0.286405
21771		9.638174	0.675755	-1.370525	0.072886	-0.027083	-0.105573	-0.765625	-0.362793	-0.096924	0.572548	0.364251	-0.676430	0.286272
21772		9.660013	0.626325	-1.558983	-0.026240	-0.037304	-0.106452	-0.760010	-0.362305	-0.101562	0.572616	0.364765	-0.676395	0.285564
21773		9.753101	0.515224	-1.752117	-0.047758	-0.020953	-0.096445	-0.749512	-0.363525	-0.105225	0.572857	0.365043	-0.676356	0.284818
21774		9.765598	0.363788	-1.862329	-0.034484	-0.005247	-0.075204	-0.760254	-0.362061	-0.097900	0.573133	0.365221	-0.676252	0.284280
21775		9.690741	0.345016	-1.861496	0.000766	0.001601	-0.056685	-0.747803	-0.364502	-0.104980	0.573235	0.365452	-0.676133	0.284062
21776		9.607413	0.508176	-1.850420	0.028922	-0.013015	-0.046925	-0.754639	-0.360352	-0.098389	0.573207	0.365789	-0.676006	0.283986
21777		9.560000	0.661116	-1.767496	0.034670	-0.035832	-0.058017	-0.760254	-0.364258	-0.096191	0.573013	0.366253	-0.675988	0.283822
21778		9.621246	0.525527	-1.695305	0.041977	-0.045784	-0.076478	-0.767090	-0.368896	-0.089355	0.572764	0.366912	-0.675936	0.283597
21779		9.673916	0.298824	-1.687551	0.054114	-0.033381	-0.093603	-0.750488	-0.368408	-0.094482	0.572539	0.367755	-0.675742	0.283422
21780		9.703891	0.216437	-1.653697	0.080130	-0.020482	-0.093031	-0.755127	-0.364502	-0.094482	0.572367	0.368658	-0.675404	0.283403
21781		9.772391	0.226008	-1.555944	0.107688	-0.004148	-0.080993	-0.753174	-0.370361	-0.094971	0.572172	0.369531	-0.674991	0.283641
21782		9.771679	0.276763	-1.568913	0.123639	-0.003132	-0.059762	-0.757812	-0.358643	-0.101562	0.571891	0.370396	-0.674572	0.284080
21783		9.689534	0.307812	-1.798003	0.132687	-0.000430	-0.046730	-0.758301	-0.377197	-0.091064	0.571605	0.371071	-0.674218	0.284614
21784		9.635651	0.386309	-1.905811	0.129266	0.008531	-0.042252	-0.756104	-0.370361	-0.097412	0.571306	0.371883	-0.673767	0.285219
21785		9.626591	0.620450	-1.894052	0.116605	0.017586	-0.037312	-0.754639	-0.370605	-0.094482	0.571132	0.372489	-0.673343	0.285780
21786		9.604940	0.885764	-1.721657	0.078150	0.012366	-0.029000	-0.755127	-0.374023	-0.095947	0.571015	0.372889	-0.673064	0.286148
21787		9.690037	0.891747	-1.608070	0.015569	0.008019	-0.021407	-0.750000	-0.376953	-0.085938	0.571060	0.372970	-0.672965	0.286184
21788		9.681222	0.724655	-1.663400	-0.060998	0.007815	0.002059	-0.757812	-0.364990	-0.095459	0.571236	0.372637	-0.673116	0.285913
21789		9.664428	0.606170	-1.808391	-0.105539	0.011066	0.017803	-0.752686	-0.372803	-0.101562	0.571568	0.371856	-0.673453	0.285472
21790		9.678137	0.602286	-1.820340	-0.129425	0.018017	0.020837	-0.748291	-0.375000	-0.088135	0.572050	0.370954	-0.673781	0.284905
21791		9.654189	0.615691	-1.771263	-0.150670	0.015353	0.021387	-0.751465	-0.364990	-0.103027	0.572504	0.370059	-0.674171	0.284234
21792		9.724435	0.572417	-1.654356	-0.181486	0.022592	0.033080	-0.750244	-0.373047	-0.098145	0.573137	0.368790	-0.674661	0.283445
21793		9.697339	0.473388	-1.617379	-0.232504	0.033884	0.047111	-0.753906	-0.358154	-0.103516	0.573925	0.367261	-0.675232	0.282473
21794		9.698607	0.471816	-1.610218	-0.253406	0.031042	0.053197	-0.750244	-0.368408	-0.097656	0.574750	0.365501	-0.675926	0.281417
21795		9.664283	0.512738	-1.672288	-0.256595	0.025166	0.043973	-0.756348	-0.362793	-0.102783	0.575539	0.363903	-0.676590	0.280276
21796		9.655149	0.444738	-1.754067	-0.244105	0.017338	0.034197	-0.753174	-0.363770	-0.101318	0.576272	0.362391	-0.677245	0.279145
21797		9.669550	0.276835	-1.874448	-0.171219	0.016588	0.030591	-0.757568	-0.369141	-0.111572	0.576777	0.361281	-0.677715	0.278402
21798		9.727556	0.185917	-1.868572	-0.110825	0.021675	0.036119	-0.754883	-0.366943	-0.110352	0.577167	0.360389	-0.678018	0.278010
21799		9.740104	0.254407	-1.761707	-0.065450	0.035419	0.036700	-0.752686	-0.360840	-0.113037	0.577488	0.359685	-0.678156	0.277918
21800		9.704426	0.397284	-1.713428	-0.042639	0.037329	0.030691	-0.761719	-0.358398	-0.106201	0.577775	0.359084	-0.678225	0.277932
21801		9.664428	0.514867	-1.704364	-0.058008	0.027267	0.038272	-0.755371	-0.362793	-0.103027	0.577968	0.358431	-0.678410	0.277921
21802		9.572086	0.511860	-1.752026	-0.093602	0.013905	0.048190	-0.758301	-0.360596	-0.111328	0.578165	0.357626	-0.678759	0.277695
21803		9.627995	0.498226	-1.784638	-0.089012	-0.007187	0.049667	-0.756836	-0.358154	-0.115234	0.578264	0.356829	-0.679205	0.277424
21804		9.744757	0.376162	-1.768432	-0.119078	-0.015147	0.058620	-0.752441	-0.362549	-0.112305	0.578409	0.355826	-0.679787	0.276986
21805		9.655538	0.233847	-1.894274	-0.140153	-0.020134	0.062137	-0.756348	-0.360352	-0.110107	0.578576	0.354751	-0.680440	0.276410
21806		9.622514	0.187181	-2.066942	-0.093816	-0.038653	0.049131	-0.755859	-0.349854	-0.110840	0.578506	0.354029	-0.681042	0.276002
21807		9.657502	0.121759	-2.137546	-0.037405	-0.038303	0.032379	-0.762939	-0.359131	-0.111572	0.578299	0.353639	-0.681476	0.275863
21808		9.613040	0.111507	-1.984782	0.010078	-0.024443	0.019975	-0.764160	-0.348877	-0.108398	0.578069	0.353540	-0.681686	0.275952
21809		9.655212	0.224496	-1.884809	0.011454	-0.020098	0.010147	-0.758545	-0.344238	-0.104980	0.577846	0.353485	-0.681856	0.276068
21810		9.673758	0.217967	-1.843245	-0.010265	-0.016198	0.018181	-0.755615	-0.354492	-0.111328	0.577676	0.353278	-0.682086	0.276122
21811		9.695544	0.217824	-1.772431	-0.041186	-0.009441	0.026348	-0.757080	-0.352783	-0.109131	0.577681	0.352843	-0.682364	0.275980
21812		9.701530	0.243034	-1.720315	-0.090714	-0.006505	0.032250	-0.753906	-0.354736	-0.111084	0.577816	0.352142	-0.682761	0.275611
21813		9.685521	0.252292	-1.736581	-0.133143	-0.000676	0.031905	-0.760742	-0.345215	-0.112793	0.578130	0.351220	-0.683222	0.274988
21814		9.664760	0.181541	-1.777508	-0.171006	0.001344	0.030861	-0.752930	-0.345459	-0.112793	0.578544	0.350091	-0.683766	0.274203
21815		9.656915	0.065030	-1.823527	-0.179972	0.009168	0.034106	-0.764404	-0.343994	-0.113281	0.579031	0.348888	-0.684298	0.273379
21816		9.678432	-0.038384	-1.875103	-0.155799	0.018337	0.035489	-0.759277	-0.345703	-0.111084	0.579469	0.347780	-0.684736	0.272766
21817		9.679718	0.060543	-1.894612	-0.130957	0.026062	0.032403	-0.755371	-0.351074	-0.114258	0.579880	0.346820	-0.685065	0.272289
21818		9.639687	0.250654	-1.913630	-0.126067	0.030920	0.018688	-0.766846	-0.349854	-0.112061	0.580369	0.345944	-0.685313	0.271735
21819		9.639105	0.407104	-1.821994	-0.127491	0.030725	0.008637	-0.760986	-0.343506	-0.119629	0.580840	0.345146	-0.685538	0.271177
21820		9.665568	0.331745	-1.832193	-0.135379	0.022434	-0.000186	-0.750977	-0.343506	-0.118896	0.581344	0.344318	-0.685801	0.270485
21821		9.677344	0.271971	-1.845476	-0.129907	0.017691	-0.000866	-0.758789	-0.346191	-0.113281	0.581815	0.343540	-0.686068	0.269782
21822		9.671325	0.191638	-1.883754	-0.103146	0.012939	0.000138	-0.760986	-0.342041	-0.123291	0.582130	0.342954	-0.686296	0.269266
21823		9.641998	0.123787	-1.863276	-0.077402	0.008921	-0.000731	-0.765869	-0.352051	-0.112305	0.582396	0.342432	-0.686492	0.268858
21824		9.602672	0.108326	-1.809154	-0.075775	0.000301	-0.003579	-0.759521	-0.342041	-0.120850	0.582556	0.342057	-0.686705	0.268443
21825		9.642005	0.116230	-1.859174	-0.063690	-0.000608	-0.019765	-0.758301	-0.339355	-0.120361	0.582753	0.341757	-0.686859	0.268004
21826		9.651006	0.168171	-1.780036	-0.024392	-0.003464	-0.026056	-0.761719	-0.340088	-0.119141	0.582828	0.341692	-0.686921	0.267765
21827		9.688865	0.204961	-1.701565	0.038521	-0.009946	-0.038690	-0.755859	-0.339844	-0.119385	0.582701	0.342031	-0.686839	0.267820
21828		9.621275	0.181291	-1.630021	0.054979	-0.011274	-0.041225	-0.757812	-0.342773	-0.120605	0.582538	0.342460	-0.686718	0.267936
21829		9.731308	0.400955	-1.464954	0.061032	-0.022042	-0.029322	-0.753906	-0.348145	-0.122314	0.582282	0.342866	-0.686669	0.268099
21830		9.810913	0.271281	-1.662378	0.112750	-0.052212	-0.023190	-0.764160	-0.335693	-0.122314	0.581723	0.343543	-0.686665	0.268454
21831		9.819801	0.033136	-1.800481	0.184288	-0.043608	-0.032389	-0.763672	-0.348633	-0.115479	0.580990	0.344576	-0.686443	0.269284
21832		9.640425	0.084183	-1.980657	0.212997	-0.034580	-0.032087	-0.752197	-0.344482	-0.109619	0.580219	0.345781	-0.686102	0.270269
21833		9.620559	0.320370	-1.795516	0.177749	-0.017444	-0.021098	-0.764893	-0.344482	-0.107178	0.579605	0.346738	-0.685782	0.271171
21834		9.703431	0.383621	-1.717227	0.129351	-0.020810	-0.029275	-0.762695	-0.348877	-0.112793	0.579099	0.347527	-0.685565	0.271791
21835		9.596015	0.479848	-1.777223	0.017002	-0.031609	-0.041574	-0.762207	-0.344482	-0.112061	0.578938	0.347819	-0.685623	0.271614
21836		9.633677	0.484786	-2.119443	-0.076132	-0.046379	-0.038711	-0.751953	-0.345947	-0.107910	0.578945	0.347674	-0.685974	0.270899
21837		9.590749	0.351983	-1.634945	-0.085178	-0.037910	-0.053958	-0.762451	-0.348877	-0.108154	0.579056	0.347584	-0.686251	0.270071
21838		9.677414	0.247838	-1.760030	-0.132180	-0.046834	-0.069840	-0.762939	-0.352051	-0.109131	0.579276	0.347381	-0.686633	0.268887
21839		9.697088	0.289451	-1.850098	-0.135895	-0.038707	-0.071472	-0.766846	-0.353760	-0.103760	0.579566	0.347148	-0.686978	0.267680
21840		9.762809	0.076351	-1.735872	-0.129109	-0.028966	-0.066454	-0.758301	-0.345947	-0.107910	0.579841	0.346943	-0.687269	0.266603
21841		9.728882	0.155695	-1.645703	-0.113883	-0.029028	-0.058040	-0.768066	-0.343506	-0.108154	0.580072	0.346720	-0.687555	0.265648
21842		9.674318	0.236087	-1.749366	-0.108359	-0.026349	-0.058628	-0.756348	-0.342773	-0.112793	0.580281	0.346519	-0.687820	0.264768
21843		9.639594	0.254831	-1.794574	-0.114214	-0.010490	-0.065553	-0.764893	-0.346680	-0.117188	0.580658	0.346253	-0.688003	0.263814
21844		9.701097	0.376974	-1.780698	-0.106602	-0.009155	-0.061496	-0.759277	-0.345459	-0.107178	0.581026	0.345975	-0.688177	0.262912
21845		9.637104	0.409643	-1.687554	-0.104069	-0.000447	-0.066242	-0.765137	-0.345947	-0.114014	0.581387	0.345799	-0.688276	0.262083
21846		9.649341	0.318009	-1.831860	-0.104091	-0.003285	-0.066865	-0.755859	-0.351807	-0.108887	0.581763	0.345581	-0.688397	0.261219
21847		9.721539	0.388933	-1.986062	-0.059574	0.015654	-0.062022	-0.756348	-0.351318	-0.107910	0.582097	0.345565	-0.688327	0.260679
21848		9.726512	0.540724	-1.951654	-0.029580	0.034155	-0.052649	-0.760742	-0.346680	-0.111572	0.582419	0.345610	-0.688128	0.260424
21849		9.716176	0.849290	-1.796492	-0.029744	0.039312	-0.038426	-0.759766	-0.351562	-0.107910	0.582744	0.345524	-0.687959	0.260261
21850		9.720877	1.010465	-1.763291	-0.045325	0.027390	-0.019778	-0.754639	-0.344482	-0.113281	0.582987	0.345326	-0.687923	0.260073
21851		9.612470	0.821110	-1.661333	-0.034312	0.030911	0.014300	-0.753906	-0.350830	-0.120850	0.583173	0.344919	-0.687959	0.260100
21852		9.639453	0.840067	-1.693335	-0.032867	0.031887	0.041771	-0.754639	-0.338379	-0.114502	0.583355	0.344319	-0.688066	0.260204
21853		9.696493	1.030820	-1.597948	-0.083777	0.043296	0.072758	-0.757812	-0.345703	-0.117920	0.583621	0.343296	-0.688324	0.260280
21854		9.624794	1.137476	-1.605002	-0.190121	0.035959	0.082722	-0.760254	-0.346191	-0.125244	0.584149	0.341715	-0.688867	0.259736
21855		9.508862	1.072400	-1.736622	-0.287346	0.024777	0.072292	-0.756836	-0.347412	-0.118164	0.584946	0.339699	-0.689650	0.258506
21856		9.631372	0.873455	-1.821956	-0.360622	0.018027	0.078576	-0.763428	-0.331299	-0.113770	0.585848	0.337388	-0.690615	0.256911
21857		9.694618	0.600045	-1.754471	-0.388725	0.014002	0.085010	-0.761230	-0.334961	-0.125000	0.586713	0.334927	-0.691686	0.255271
21858		9.707766	0.251256	-2.018148	-0.294529	-0.005832	0.071844	-0.757324	-0.343018	-0.127686	0.587294	0.332974	-0.692617	0.253961
21859		9.689406	0.081782	-2.031698	-0.222402	-0.007370	0.077466	-0.767822	-0.341064	-0.123047	0.587677	0.331367	-0.693395	0.253049
21860		9.657235	0.255008	-1.940553	-0.147899	-0.004036	0.076088	-0.770752	-0.339355	-0.123291	0.587823	0.330175	-0.693992	0.252635
21861		9.665230	0.413883	-1.746636	-0.081856	-0.011028	0.072346	-0.759766	-0.331787	-0.122314	0.587746	0.329344	-0.694475	0.252572
21862		9.649885	0.456415	-1.620576	-0.059338	-0.011001	0.062895	-0.774658	-0.332764	-0.131348	0.587631	0.328664	-0.694888	0.252587
21863		9.674505	0.383272	-1.658525	-0.076374	-0.015356	0.054028	-0.764648	-0.334473	-0.128662	0.587591	0.327890	-0.695352	0.252410
21864		9.670400	0.188730	-1.807873	-0.060046	-0.015814	0.049534	-0.755615	-0.335449	-0.131836	0.587514	0.327260	-0.695753	0.252301
21865		9.619937	0.086730	-1.849329	-0.014274	-0.022797	0.045877	-0.764404	-0.332764	-0.124756	0.587314	0.326875	-0.696075	0.252379
21866		9.745096	-0.017151	-1.897459	0.035043	-0.050085	0.041864	-0.765625	-0.333496	-0.126953	0.586773	0.326860	-0.696416	0.252716
21867		9.671010	-0.110723	-1.880130	0.102995	-0.010583	0.034975	-0.775879	-0.333008	-0.121094	0.586309	0.327114	-0.696403	0.253500
21868		9.666588	-0.025599	-1.940594	0.093858	0.005954	0.034073	-0.769287	-0.326904	-0.124023	0.585920	0.327333	-0.696326	0.254323
21869		9.700262	0.186544	-1.949672	0.066764	0.023312	0.041403	-0.769287	-0.338135	-0.123779	0.585718	0.327286	-0.696256	0.255040
21870		9.658948	0.472189	-1.708814	0.071865	0.015319	0.034453	-0.763184	-0.326660	-0.127686	0.585478	0.327379	-0.696163	0.255725
21871		9.629950	0.483173	-1.709120	0.095822	-0.017440	-0.012770	-0.771240	-0.331543	-0.120117	0.585110	0.327846	-0.696080	0.256196
21872		9.585060	0.152074	-1.919578	0.061879	-0.029110	-0.044008	-0.770020	-0.328857	-0.124023	0.584784	0.328429	-0.696026	0.256340
21873		9.695079	-0.316876	-2.167507	-0.015887	-0.032393	-0.034982	-0.764648	-0.324707	-0.119385	0.584660	0.328534	-0.696192	0.256037
21874		9.771094	-0.441980	-1.976357	-0.020155	-0.000295	-0.015463	-0.759521	-0.325928	-0.118164	0.584672	0.328449	-0.696269	0.255910
21875		9.672211	-0.336758	-1.818717	0.058379	0.001862	-0.027210	-0.764893	-0.326416	-0.124512	0.584507	0.328830	-0.696125	0.256189
21876		9.632747	-0.104711	-1.960321	0.121127	-0.017656	-0.056464	-0.768311	-0.323486	-0.124023	0.584151	0.329671	-0.695874	0.256601
21877		9.660715	0.047262	-2.141278	0.179111	-0.008606	-0.075093	-0.765137	-0.337158	-0.122314	0.583723	0.330857	-0.695418	0.257283
21878		9.686181	0.057433	-2.039869	0.179623	0.010721	-0.085144	-0.763916	-0.337402	-0.121338	0.583432	0.332137	-0.694794	0.257979
21879		9.650007	0.133930	-1.836586	0.184084	0.017038	-0.106214	-0.770508	-0.333252	-0.125244	0.583210	0.333541	-0.694072	0.258614
21880		9.671049	0.204679	-1.924431	0.226861	-0.005823	-0.132138	-0.768799	-0.338867	-0.118164	0.582805	0.335278	-0.693325	0.259282
21881		9.667337	0.184803	-1.949830	0.248491	-0.013281	-0.141784	-0.756104	-0.340088	-0.116211	0.582284	0.337258	-0.692517	0.260044
21882		9.708510	0.020436	-1.951609	0.269828	-0.011373	-0.140338	-0.760498	-0.340576	-0.115479	0.581721	0.339331	-0.691645	0.260926
21883		9.704148	0.082208	-1.857019	0.312804	0.000548	-0.130909	-0.758545	-0.341309	-0.107422	0.581079	0.341511	-0.690655	0.262133
21884		9.699852	0.260877	-1.771620	0.345062	0.003066	-0.132876	-0.762451	-0.347656	-0.110107	0.580322	0.343896	-0.689563	0.263561
21885		9.632619	0.595712	-1.730182	0.342919	0.001240	-0.140868	-0.763428	-0.344238	-0.110107	0.579597	0.346298	-0.688454	0.264907
21886		9.616011	0.666344	-1.880843	0.291506	-0.007951	-0.139008	-0.763184	-0.354004	-0.103027	0.578967	0.348409	-0.687527	0.265924
21887		9.592890	0.620691	-1.945371	0.245838	-0.012940	-0.132361	-0.767334	-0.356934	-0.115234	0.578394	0.350355	-0.686706	0.266734
21888		9.614033	0.620032	-2.010849	0.249087	-0.025117	-0.125625	-0.753174	-0.357178	-0.105469	0.577801	0.352191	-0.685978	0.267474
21889		9.669883	0.781434	-1.890884	0.227059	-0.002578	-0.104909	-0.759521	-0.350342	-0.108154	0.577323	0.353815	-0.685227	0.268285
21890		9.769703	0.929386	-1.634459	0.123570	0.001522	-0.072237	-0.760986	-0.359375	-0.111328	0.577109	0.354664	-0.684824	0.268653
21891		9.695108	0.773358	-1.497421	0.011738	-0.004949	-0.058194	-0.755859	-0.355225	-0.106934	0.577184	0.354914	-0.684728	0.268406
21892		9.571009	0.628548	-1.690755	-0.045380	-0.012606	-0.057049	-0.756348	-0.353760	-0.103516	0.577359	0.354917	-0.684801	0.267840
21893		9.538855	0.613726	-1.986294	-0.097424	-0.022053	-0.047653	-0.750488	-0.359131	-0.101074	0.577587	0.354661	-0.685061	0.267021
21894		9.519229	0.536790	-2.164122	-0.101134	-0.036053	-0.032896	-0.754883	-0.356445	-0.101074	0.577709	0.354380	-0.685416	0.266217
21895		9.505073	0.352912	-2.154855	-0.065833	-0.064424	-0.033321	-0.755127	-0.358154	-0.102295	0.577556	0.354322	-0.685839	0.265538
21896		9.594613	0.142362	-2.275926	-0.000096	-0.081429	-0.049646	-0.760498	-0.358398	-0.100098	0.577159	0.354702	-0.686149	0.265092
21897		9.716327	0.046592	-2.231923	0.099477	-0.071476	-0.067277	-0.761963	-0.364502	-0.102783	0.576548	0.355646	-0.686142	0.265175
21898		9.714674	0.283687	-2.221070	0.190031	-0.044176	-0.078193	-0.752441	-0.357178	-0.100342	0.575877	0.357008	-0.685767	0.265772
21899		9.632151	0.718034	-2.126845	0.244512	-0.032532	-0.093657	-0.757568	-0.360596	-0.093506	0.575142	0.358671	-0.685180	0.266638
21900		9.593222	0.986638	-2.044913	0.242821	-0.039965	-0.093599	-0.756348	-0.360352	-0.098877	0.574330	0.360390	-0.684617	0.267514
21901		9.585898	0.954406	-1.968139	0.184217	-0.035864	-0.084381	-0.755859	-0.368896	-0.096191	0.573741	0.361692	-0.684213	0.268054
21902		9.599133	0.827084	-1.852485	0.096684	-0.038196	-0.064422	-0.755127	-0.364502	-0.095703	0.573359	0.362501	-0.684055	0.268181
21903		9.635175	0.699728	-1.799333	0.048528	-0.042699	-0.050993	-0.759277	-0.364990	-0.087158	0.573065	0.362991	-0.684079	0.268085
21904		9.652723	0.638091	-1.775200	0.022687	-0.029438	-0.030864	-0.751221	-0.363281	-0.095215	0.572824	0.363284	-0.684140	0.268048
21905		9.675470	0.580045	-1.964191	-0.040305	-0.023585	0.000622	-0.755127	-0.354248	-0.089844	0.572801	0.362999	-0.684432	0.267738
21906		9.617623	0.643494	-1.945497	-0.094614	-0.009385	0.024112	-0.759766	-0.365234	-0.093750	0.572919	0.362314	-0.684851	0.267341
21907		9.579494	0.546821	-1.902813	-0.124047	-0.020956	0.023528	-0.760010	-0.365234	-0.097900	0.573093	0.361514	-0.685381	0.266694
21908		9.631242	0.396333	-1.979448	-0.109396	-0.025045	0.003790	-0.768799	-0.363281	-0.093262	0.573267	0.360870	-0.685848	0.265989
21909		9.679743	0.241071	-2.084330	-0.069878	-0.011787	-0.013033	-0.761719	-0.356445	-0.087891	0.573388	0.360525	-0.686104	0.265535
21910		9.693706	0.198363	-1.968749	-0.019279	0.000829	-0.013777	-0.753662	-0.361572	-0.093750	0.573394	0.360444	-0.686171	0.265459
21911		9.694565	0.249770	-1.829021	0.030521	0.002300	-0.014964	-0.760010	-0.355469	-0.091064	0.573318	0.360558	-0.686126	0.265584
21912		9.650983	0.250138	-1.823463	0.053686	0.005634	-0.013003	-0.758057	-0.364014	-0.091064	0.573153	0.360775	-0.686023	0.265913
21913		9.629686	0.452652	-1.855791	0.064783	0.008663	-0.012161	-0.753662	-0.366455	-0.093018	0.572987	0.361051	-0.685870	0.266291
21914		9.611974	0.693787	-1.852838	0.062137	0.010798	-0.009501	-0.754150	-0.360107	-0.095459	0.572860	0.361277	-0.685722	0.266638
21915		9.616801	0.750265	-1.805587	0.019189	0.012192	-0.000752	-0.757568	-0.364258	-0.089111	0.572858	0.361201	-0.685710	0.266776
21916		9.610135	0.670713	-1.874394	-0.052375	0.007680	0.023290	-0.757324	-0.351807	-0.092773	0.572952	0.360734	-0.685921	0.266664
21917		9.621615	0.550880	-1.919657	-0.111328	0.012130	0.043655	-0.755615	-0.361816	-0.095215	0.573207	0.359798	-0.686331	0.266326
21918		9.633337	0.554292	-1.949527	-0.139346	0.017821	0.055638	-0.753174	-0.357666	-0.085449	0.573582	0.358652	-0.686802	0.265848
21919		9.642050	0.596174	-2.002776	-0.137341	0.023836	0.059412	-0.759521	-0.363525	-0.096680	0.573901	0.357595	-0.687209	0.265532
21920		9.630457	0.594520	-1.981796	-0.120918	0.024507	0.055630	-0.753662	-0.354492	-0.088379	0.574255	0.356536	-0.687599	0.265182
21921		9.640831	0.532368	-1.903125	-0.128412	0.024132	0.053325	-0.765381	-0.355225	-0.104248	0.574567	0.355541	-0.687970	0.264879
21922		9.711840	0.383298	-1.946317	-0.137547	0.032699	0.056522	-0.760498	-0.357666	-0.102539	0.575035	0.354302	-0.688390	0.264431
21923		9.639121	0.281288	-1.953245	-0.147046	0.048105	0.070953	-0.763916	-0.341797	-0.101074	0.575579	0.352941	-0.688781	0.264051
21924		9.639179	0.330828	-1.957496	-0.147373	0.054008	0.082288	-0.758057	-0.339355	-0.095459	0.576084	0.351505	-0.689180	0.263822
21925		9.632623	0.441140	-2.019328	-0.162973	0.059605	0.084356	-0.775146	-0.342529	-0.094727	0.576619	0.350050	-0.689560	0.263593
21926		9.568970	0.537297	-2.069735	-0.182171	0.067220	0.088239	-0.761475	-0.346436	-0.104492	0.577213	0.348495	-0.689948	0.263339
21927		9.664263	0.525165	-2.022047	-0.187472	0.055338	0.089842	-0.766602	-0.354492	-0.106201	0.577833	0.346848	-0.690431	0.262891
21928		9.701190	0.497555	-1.966852	-0.153340	0.043348	0.087464	-0.772705	-0.337646	-0.104736	0.578294	0.345430	-0.690873	0.262581
21929		9.657000	0.453988	-1.977667	-0.104287	0.027160	0.070902	-0.762939	-0.339355	-0.111572	0.578509	0.344371	-0.691251	0.262503
21930		9.610556	0.423203	-2.007134	-0.086637	0.032189	0.056510	-0.762451	-0.346680	-0.102051	0.578792	0.343407	-0.691542	0.262376
21931		9.668392	0.353091	-1.887879	-0.099710	0.033610	0.053366	-0.764160	-0.344971	-0.103516	0.579067	0.342540	-0.691787	0.262258
21932		9.581972	0.362456	-1.875840	-0.117370	0.030380	0.050032	-0.779053	-0.340820	-0.111328	0.579382	0.341604	-0.692080	0.262009
21933		9.606474	0.406768	-1.928578	-0.118451	0.024425	0.046101	-0.766602	-0.338135	-0.119141	0.579696	0.340609	-0.692432	0.261679
21934		9.613316	0.445342	-2.009118	-0.122764	0.017500	0.050730	-0.761475	-0.334717	-0.109619	0.580034	0.339499	-0.692864	0.261229
21935		9.624173	0.433101	-2.050383	-0.126776	0.009358	0.043478	-0.763184	-0.333740	-0.107422	0.580286	0.338541	-0.693283	0.260803
21936		9.634461	0.331024	-1.953664	-0.141852	0.004882	0.036428	-0.772461	-0.337158	-0.110107	0.580546	0.337593	-0.693724	0.260276
21937		9.617086	0.324709	-1.979801	-0.158624	-0.003962	0.031741	-0.763916	-0.336426	-0.104736	0.580818	0.336600	-0.694235	0.259593
21938		9.657699	0.319466	-2.013257	-0.152454	-0.010083	0.025571	-0.761230	-0.331055	-0.113037	0.581021	0.335754	-0.694716	0.258945
21939		9.660149	0.176804	-1.985859	-0.147051	-0.006627	0.023108	-0.765381	-0.334473	-0.113525	0.581286	0.334834	-0.695202	0.258238
21940		9.658463	0.086211	-1.998720	-0.138895	-0.008735	0.020118	-0.767578	-0.334717	-0.119141	0.581518	0.333993	-0.695662	0.257565
21941		9.628899	0.121046	-2.138433	-0.106416	-0.012647	0.006806	-0.769531	-0.334717	-0.114990	0.581696	0.333345	-0.696050	0.256956
21942		9.596236	0.188985	-2.028877	-0.056484	-0.007266	-0.006465	-0.763672	-0.334473	-0.121338	0.581761	0.333056	-0.696250	0.256638
21943		9.627163	0.166234	-2.013059	-0.025819	-0.004589	-0.018464	-0.766602	-0.330322	-0.120605	0.581831	0.332912	-0.696359	0.256371
21944		9.616891	0.323319	-1.832424	0.004206	-0.011604	-0.025842	-0.776123	-0.332520	-0.108643	0.581781	0.332962	-0.696426	0.256239
21945		9.679618	0.219359	-1.791333	0.032248	-0.024225	-0.053771	-0.760498	-0.328369	-0.112549	0.581551	0.333476	-0.696372	0.256240
21946		9.625610	0.062393	-1.878236	0.016993	-0.026162	-0.063830	-0.766357	-0.338623	-0.114990	0.581421	0.333908	-0.696354	0.256021
21947		9.701892	0.043134	-2.125039	-0.049593	-0.026319	-0.051981	-0.767090	-0.333984	-0.112549	0.581466	0.333960	-0.696499	0.255454
21948		9.697551	0.220809	-2.023234	-0.084745	0.004572	-0.034574	-0.771484	-0.330811	-0.112061	0.581733	0.333675	-0.696624	0.254878
21949		9.577025	0.234074	-1.907577	-0.058631	-0.024232	-0.048948	-0.767578	-0.337158	-0.120361	0.581777	0.333655	-0.696802	0.254318
21950		9.594416	0.152234	-2.016321	-0.019709	-0.032351	-0.079746	-0.761475	-0.332764	-0.121094	0.581791	0.333959	-0.696861	0.253723
21951		9.730345	0.122663	-2.117243	0.004058	-0.024773	-0.099217	-0.765869	-0.335693	-0.116211	0.581836	0.334440	-0.696794	0.253171
21952		9.649885	0.211099	-2.035048	0.065330	-0.005421	-0.104304	-0.768555	-0.340576	-0.114014	0.581798	0.335265	-0.696469	0.253060
21953		9.659121	0.162221	-1.815482	0.127682	-0.005363	-0.109509	-0.770264	-0.339600	-0.117188	0.581583	0.336457	-0.695983	0.253309
21954		9.739009	0.143093	-1.758762	0.145032	0.000813	-0.094449	-0.769287	-0.339355	-0.109375	0.581344	0.337576	-0.695495	0.253711
21955		9.745445	0.398234	-1.807968	0.113566	-0.006623	-0.081920	-0.763672	-0.333252	-0.113281	0.581077	0.338557	-0.695119	0.254043
21956		9.560991	0.573727	-1.853286	0.078430	-0.015752	-0.086523	-0.768066	-0.346191	-0.113037	0.580900	0.339329	-0.694883	0.254062
21957		9.555238	0.574743	-1.763222	0.070028	-0.011195	-0.104938	-0.762207	-0.346924	-0.103516	0.580815	0.340206	-0.694562	0.253963
21958		9.592864	0.628230	-1.807605	0.065905	-0.013035	-0.113751	-0.764893	-0.339355	-0.110107	0.580696	0.341217	-0.694196	0.253878
21959		9.577126	0.711228	-1.927830	0.062790	-0.019441	-0.122170	-0.756592	-0.349609	-0.110596	0.580607	0.342149	-0.693900	0.253639
21960		9.604059	0.807413	-1.921179	0.071641	-0.026658	-0.131151	-0.762451	-0.351807	-0.107666	0.580489	0.343223	-0.693567	0.253368
21961		9.539178	1.056065	-2.042548	0.034506	-0.043006	-0.141343	-0.756592	-0.354248	-0.113770	0.580382	0.344234	-0.693356	0.252817
21962		9.498445	1.107060	-1.975848	-0.035073	-0.041338	-0.149713	-0.755615	-0.360352	-0.099121	0.580552	0.344882	-0.693281	0.251747
21963		9.640880	0.871720	-2.050230	-0.068753	-0.051721	-0.145925	-0.755615	-0.356445	-0.109619	0.580661	0.345545	-0.693267	0.250623
21964		9.659201	0.559996	-1.947665	-0.045574	-0.059824	-0.129810	-0.756104	-0.362793	-0.109131	0.580687	0.346098	-0.693349	0.249571
21965		9.727364	0.359124	-2.039422	-0.011017	-0.051575	-0.118713	-0.763184	-0.359131	-0.110596	0.580638	0.346760	-0.693336	0.248800
21966		9.677241	0.499213	-2.171665	0.036436	-0.039164	-0.105988	-0.750977	-0.358643	-0.102051	0.580499	0.347503	-0.693228	0.248388
21967		9.623353	0.729970	-2.050675	0.060923	-0.029007	-0.092694	-0.754883	-0.356445	-0.100342	0.580285	0.348347	-0.693026	0.248273
21968		9.530217	0.891270	-2.031634	0.052241	-0.030173	-0.083799	-0.756836	-0.365479	-0.108643	0.580058	0.349092	-0.692881	0.248160
21969		9.539341	0.897700	-2.067466	0.033016	-0.032353	-0.082503	-0.755371	-0.362061	-0.105225	0.579927	0.349681	-0.692804	0.247852
21970		9.599359	0.716788	-2.234610	0.027056	-0.020788	-0.085173	-0.757568	-0.366455	-0.113281	0.579869	0.350242	-0.692676	0.247553
21971		9.595047	0.765778	-2.123594	0.050852	0.002678	-0.077818	-0.752930	-0.358643	-0.102295	0.579912	0.350750	-0.692434	0.247411
21972		9.671496	0.818419	-2.080211	0.055271	0.013827	-0.059835	-0.757812	-0.358398	-0.103760	0.579903	0.351232	-0.692158	0.247518
21973		9.626822	0.960689	-1.906482	0.072090	0.020323	-0.036549	-0.763428	-0.364990	-0.105957	0.579839	0.351624	-0.691897	0.247843
21974		9.637679	0.940319	-1.946841	0.073236	0.008968	-0.021623	-0.761475	-0.358643	-0.111572	0.579686	0.351955	-0.691730	0.248197
21975		9.619648	0.867857	-2.002412	0.022964	0.028766	-0.004245	-0.755859	-0.371338	-0.103760	0.579795	0.351810	-0.691663	0.248335
21976		9.629947	0.754807	-1.959299	-0.051027	0.036613	0.028581	-0.749268	-0.356445	-0.092041	0.580062	0.351242	-0.691739	0.248302
21977		9.676608	0.637651	-1.858811	-0.086360	0.031830	0.054082	-0.751953	-0.370361	-0.100586	0.580270	0.350465	-0.691954	0.248316
21978		9.716102	0.599738	-1.790744	-0.127746	0.024735	0.085669	-0.760498	-0.359131	-0.107910	0.580548	0.349283	-0.692384	0.248131
21979		9.671575	0.710523	-1.760577	-0.181702	0.020015	0.107545	-0.757324	-0.350830	-0.106445	0.580935	0.347609	-0.693067	0.247670
21980		9.737013	0.645385	-1.734033	-0.209165	0.046561	0.122080	-0.759277	-0.366699	-0.105957	0.581505	0.345669	-0.693719	0.247222
21981		9.720036	0.502530	-1.679200	-0.292699	0.075492	0.156059	-0.764648	-0.344727	-0.111328	0.582404	0.343165	-0.694441	0.246566
21982		9.706794	0.526229	-1.670055	-0.368199	0.082633	0.191676	-0.756348	-0.355469	-0.114746	0.583482	0.339959	-0.695441	0.245639
21983		9.588876	0.638880	-1.786274	-0.372840	0.071358	0.201213	-0.758301	-0.341064	-0.115967	0.584501	0.336752	-0.696483	0.244681
21984		9.530809	0.524790	-1.959705	-0.313107	0.042925	0.169245	-0.764404	-0.342773	-0.114502	0.585228	0.334050	-0.697464	0.243851
21985		9.505743	0.332773	-2.113077	-0.238150	0.020893	0.133126	-0.761963	-0.342529	-0.120361	0.585659	0.332028	-0.698270	0.243270
21986		9.628151	0.068025	-2.137729	-0.168381	0.025928	0.113394	-0.767578	-0.334229	-0.118164	0.585996	0.330410	-0.698863	0.242957
21987		9.658184	0.117839	-1.848124	-0.082641	0.028003	0.099536	-0.757324	-0.345703	-0.120117	0.586106	0.329295	-0.699239	0.243122
21988		9.721295	0.204914	-1.792851	0.010026	0.016269	0.073584	-0.766357	-0.331787	-0.120117	0.585970	0.328859	-0.699374	0.243652
21989		9.689699	0.234817	-1.808875	0.086375	0.014453	0.037562	-0.767334	-0.335693	-0.119141	0.585674	0.328943	-0.699307	0.244444
21990		9.670231	0.178841	-2.005502	0.091170	0.017100	0.024215	-0.764893	-0.336426	-0.122070	0.585402	0.329152	-0.699164	0.245220
21991		9.629051	0.057787	-2.142401	0.064626	0.031988	0.030794	-0.764893	-0.340820	-0.116943	0.585300	0.329132	-0.699029	0.245875
21992		9.535542	-0.008229	-2.207506	0.066851	0.027360	0.019105	-0.768066	-0.348633	-0.119141	0.585158	0.329284	-0.698843	0.246537
21993		9.580522	-0.026286	-2.206336	0.103633	0.014052	-0.002828	-0.760986	-0.338623	-0.114746	0.584892	0.329789	-0.698570	0.247264
21994		9.655336	-0.070302	-2.204753	0.102900	0.008075	-0.018846	-0.771484	-0.338867	-0.127441	0.584612	0.330380	-0.698300	0.247902
21995		9.705945	-0.150405	-2.162010	0.116244	0.036011	-0.038492	-0.769775	-0.344727	-0.117920	0.584563	0.330954	-0.697864	0.248480
21996		9.648764	-0.088799	-2.143738	0.149344	0.058355	-0.051323	-0.757080	-0.346680	-0.116699	0.584524	0.331843	-0.697162	0.249352
21997		9.603342	0.014883	-2.147692	0.197183	0.056363	-0.071050	-0.767578	-0.345703	-0.126465	0.584390	0.333104	-0.696298	0.250397
21998		9.640451	0.159717	-2.198502	0.284166	0.050274	-0.101547	-0.770020	-0.342773	-0.120605	0.584085	0.334863	-0.695242	0.251693
21999		9.635320	0.228617	-2.097569	0.367413	0.051415	-0.132485	-0.763428	-0.339600	-0.121582	0.583584	0.337218	-0.693918	0.253361
22000		9.652572	0.317087	-1.912552	0.406570	0.059400	-0.141635	-0.766602	-0.338379	-0.120117	0.583053	0.339740	-0.692463	0.255185
22001		9.728730	0.570825	-1.827417	0.415679	0.056065	-0.148223	-0.758789	-0.341064	-0.114746	0.582481	0.342326	-0.690994	0.257015
22002		9.644573	0.731403	-1.740436	0.382100	0.056970	-0.159635	-0.757568	-0.344971	-0.121338	0.582013	0.344848	-0.689532	0.258624
22003		9.624546	0.669783	-1.808982	0.343168	0.039123	-0.155006	-0.768555	-0.352539	-0.108887	0.581588	0.347115	-0.688273	0.259899
22004		9.625912	0.591522	-1.816643	0.310019	0.030737	-0.140570	-0.765625	-0.357666	-0.120605	0.581093	0.349294	-0.687108	0.261165
22005		9.661922	0.575682	-1.751842	0.303194	0.020964	-0.135494	-0.754150	-0.362305	-0.110352	0.580631	0.351306	-0.686059	0.262250
22006		9.707015	0.578818	-1.738297	0.297210	0.018813	-0.128532	-0.754395	-0.364502	-0.102295	0.580117	0.353354	-0.685000	0.263401
22007		9.667397	0.486907	-1.723839	0.286724	0.027158	-0.133655	-0.755371	-0.359619	-0.107666	0.579647	0.355430	-0.683877	0.264560
22008		9.596749	0.413833	-1.875289	0.290002	0.035631	-0.140375	-0.757812	-0.363525	-0.105713	0.579263	0.357436	-0.682730	0.265655
22009		9.662791	0.426033	-1.952732	0.345199	0.040092	-0.145308	-0.757080	-0.361328	-0.114502	0.578740	0.359738	-0.681414	0.267065
22010		9.690828	0.544472	-2.071508	0.369315	0.023356	-0.136033	-0.754639	-0.376465	-0.104736	0.578085	0.362009	-0.680205	0.268492
22011		9.622170	0.795018	-2.055625	0.410943	0.004875	-0.130039	-0.753906	-0.373047	-0.108398	0.577142	0.364616	-0.678934	0.270207
22012		9.616642	0.872666	-1.912892	0.433977	-0.009564	-0.145870	-0.750000	-0.371094	-0.108398	0.576111	0.367363	-0.677667	0.271860
22013		9.701035	0.955546	-1.901597	0.410423	0.000640	-0.153639	-0.753418	-0.374756	-0.090332	0.575239	0.369968	-0.676396	0.273335
22014		9.570994	1.010815	-1.833290	0.350354	-0.006927	-0.161043	-0.753906	-0.376465	-0.107178	0.574414	0.372517	-0.675189	0.274589
22015		9.546520	1.074131	-1.883423	0.292291	-0.016860	-0.165399	-0.745605	-0.380371	-0.094238	0.573842	0.374614	-0.674246	0.275249
22016		9.608779	0.881706	-1.787322	0.252989	-0.013772	-0.153915	-0.743896	-0.382568	-0.099121	0.573321	0.376572	-0.673350	0.275854
22017		9.673760	0.655977	-1.693950	0.193327	-0.009879	-0.119387	-0.744873	-0.382080	-0.100586	0.572975	0.377962	-0.672717	0.276218
22018		9.749731	0.596619	-1.851000	0.195711	-0.004594	-0.084139	-0.741943	-0.391602	-0.095947	0.572582	0.379115	-0.672183	0.276753
22019		9.632102	0.594279	-1.995586	0.210780	-0.000877	-0.056643	-0.752197	-0.383301	-0.086182	0.572097	0.380210	-0.671663	0.277514
22020		9.644485	0.795672	-2.047074	0.206485	-0.001706	-0.030367	-0.748535	-0.388428	-0.089355	0.571463	0.381254	-0.671185	0.278542
22021		9.589777	1.068843	-1.840842	0.152886	-0.007124	-0.010434	-0.748291	-0.388428	-0.087891	0.570971	0.381877	-0.670952	0.279258
22022		9.551043	1.369375	-1.754434	0.079409	-0.025375	-0.008940	-0.750244	-0.389648	-0.087646	0.570605	0.382188	-0.670980	0.279514
22023		9.577999	1.312797	-1.806210	0.021609	-0.040546	-0.027165	-0.751709	-0.390137	-0.081055	0.570387	0.382350	-0.671163	0.279300
22024		9.664140	1.061048	-1.967871	-0.012754	-0.029793	-0.039333	-0.745850	-0.392090	-0.085938	0.570321	0.382469	-0.671296	0.278949
22025		9.653930	0.918994	-2.000050	-0.021306	-0.018187	-0.034249	-0.747070	-0.386963	-0.086182	0.570389	0.382413	-0.671451	0.278514
22026		9.577601	0.778022	-2.103987	-0.011635	-0.021585	-0.028598	-0.747803	-0.387451	-0.087402	0.570377	0.382390	-0.671612	0.278182
22027		9.552236	0.573309	-2.178620	0.030736	-0.039761	-0.030517	-0.749268	-0.388184	-0.086670	0.570144	0.382600	-0.671767	0.277998
22028		9.637007	0.348892	-2.196692	0.109633	-0.039520	-0.030506	-0.748779	-0.390137	-0.091553	0.569660	0.383182	-0.671739	0.278256
22029		9.736851	0.254525	-1.994494	0.191272	-0.018486	-0.034834	-0.745117	-0.393311	-0.082031	0.569096	0.384031	-0.671459	0.278914
22030		9.695338	0.527167	-1.804323	0.201609	0.011760	-0.028039	-0.742432	-0.396240	-0.082764	0.568607	0.384914	-0.670983	0.279837
22031		9.628058	0.887792	-1.670041	0.152973	0.024124	-0.025888	-0.751953	-0.392334	-0.089844	0.568370	0.385478	-0.670595	0.280473
22032		9.640011	1.051140	-1.600137	0.054436	0.013366	-0.016772	-0.741699	-0.392090	-0.080322	0.568396	0.385463	-0.670562	0.280520
22033		9.586341	1.008792	-1.858965	-0.002546	0.004650	-0.010852	-0.743652	-0.394531	-0.078369	0.568484	0.385294	-0.670653	0.280355
22034		9.617439	0.826607	-1.953915	-0.006861	0.007936	-0.000963	-0.743652	-0.398193	-0.073975	0.568575	0.385053	-0.670766	0.280231
22035		9.697147	0.682131	-1.986699	-0.005058	0.029317	0.015940	-0.748047	-0.394531	-0.086914	0.568725	0.384714	-0.670809	0.280290
22036		9.653845	0.748754	-1.799377	-0.007431	0.042711	0.036184	-0.743896	-0.380859	-0.083496	0.568991	0.384048	-0.670950	0.280323
22037		9.686150	0.961917	-1.650861	-0.076280	0.042936	0.054171	-0.746094	-0.390381	-0.077881	0.569333	0.383136	-0.671202	0.280276
22038		9.563945	1.106912	-1.760211	-0.153662	0.036643	0.062420	-0.749512	-0.394531	-0.078857	0.569871	0.381833	-0.671690	0.279791
22039		9.615407	1.068314	-1.868509	-0.178261	0.031944	0.067988	-0.749512	-0.383301	-0.086182	0.570471	0.380348	-0.672301	0.279124
22040		9.683402	0.907319	-1.736240	-0.239356	0.042567	0.079262	-0.747314	-0.384521	-0.085938	0.571284	0.378487	-0.673028	0.278237
22041		9.691457	0.789824	-1.735377	-0.330406	0.054292	0.104682	-0.752197	-0.393555	-0.088867	0.572389	0.376026	-0.673984	0.276985
22042		9.650782	0.797414	-1.707916	-0.362078	0.057508	0.121322	-0.746826	-0.375977	-0.093262	0.573633	0.373190	-0.675113	0.275495
22043		9.714962	0.671758	-1.739783	-0.368221	0.058863	0.125980	-0.752197	-0.375977	-0.094238	0.574808	0.370430	-0.676171	0.274170
22044		9.698117	0.640304	-1.794207	-0.405868	0.063118	0.132501	-0.746094	-0.379639	-0.099854	0.576091	0.367454	-0.677299	0.272694
22045		9.587321	0.544134	-1.945283	-0.428982	0.052456	0.141448	-0.744385	-0.377686	-0.098145	0.577430	0.364212	-0.678617	0.270929
22046		9.606875	0.363623	-1.842549	-0.358659	0.024348	0.136780	-0.764404	-0.370605	-0.105225	0.578363	0.361472	-0.679847	0.269522
22047		9.603351	0.225433	-1.634836	-0.272674	0.003940	0.117389	-0.754150	-0.368164	-0.093262	0.578938	0.359293	-0.680914	0.268506
22048		9.522226	0.239737	-1.865846	-0.150897	-0.042419	0.075885	-0.746338	-0.368652	-0.102783	0.578864	0.358291	-0.681676	0.268071
22049		9.587009	0.303368	-1.916264	-0.052509	-0.098111	0.045773	-0.755127	-0.372803	-0.101318	0.578358	0.357851	-0.682505	0.267642
22050		9.691576	0.159375	-1.795840	-0.050096	-0.093209	0.040393	-0.750000	-0.364746	-0.104492	0.577900	0.357399	-0.683311	0.267178
22051		9.741652	0.011182	-1.789773	-0.071818	-0.070141	0.044788	-0.750488	-0.368896	-0.093018	0.577623	0.356773	-0.684059	0.266696
22052		9.759845	-0.005697	-1.903812	-0.085180	-0.038657	0.055130	-0.756348	-0.367432	-0.102051	0.577475	0.356102	-0.684642	0.266419
22053		9.726997	0.156190	-2.011316	-0.073915	-0.015569	0.052532	-0.754639	-0.365723	-0.100342	0.577502	0.355287	-0.685162	0.266113
22054		9.643609	0.320838	-2.036010	-0.048665	-0.006765	0.043769	-0.751221	-0.361816	-0.105225	0.577503	0.354667	-0.685534	0.265977
22055		9.548876	0.326536	-2.094610	0.002577	-0.035932	0.014695	-0.751465	-0.359131	-0.099121	0.577279	0.354472	-0.685873	0.265853
22056		9.638477	0.443822	-2.021146	0.002024	-0.073874	0.000210	-0.753906	-0.358398	-0.098145	0.576801	0.354581	-0.686279	0.265695
22057		9.576743	0.438264	-2.039959	-0.059206	-0.059348	0.003954	-0.761719	-0.357422	-0.105225	0.576573	0.354351	-0.686757	0.265263
22058		9.642631	0.301547	-2.018061	-0.080874	-0.057222	-0.003623	-0.753662	-0.359619	-0.091553	0.576491	0.353924	-0.687315	0.264565
22059		9.709210	0.048256	-2.040604	-0.089513	-0.045468	-0.003795	-0.758301	-0.358398	-0.105713	0.576406	0.353653	-0.687724	0.264048
22060		9.706160	0.011983	-2.081163	-0.064195	-0.022412	-0.002397	-0.760986	-0.365234	-0.098633	0.576493	0.353185	-0.688101	0.263502
22061		9.674815	0.109393	-2.058513	-0.041274	0.009001	-0.007478	-0.758789	-0.355713	-0.108643	0.576684	0.352833	-0.688242	0.263189
22062		9.602053	0.226530	-2.003271	-0.025175	0.019915	-0.012402	-0.758057	-0.366455	-0.098633	0.576927	0.352497	-0.688307	0.262933
22063		9.641264	0.352149	-2.004009	-0.041134	0.029693	-0.011950	-0.760254	-0.361816	-0.095947	0.577254	0.352116	-0.688340	0.262640
22064		9.614746	0.461540	-1.932768	-0.070623	0.028031	-0.011267	-0.750488	-0.357910	-0.095215	0.577590	0.351722	-0.688380	0.262325
22065		9.622428	0.452732	-1.864322	-0.097597	0.023686	-0.017769	-0.756836	-0.357422	-0.100098	0.577965	0.351322	-0.688441	0.261874
22066		9.700117	0.422907	-1.841790	-0.113312	0.029134	-0.014941	-0.757812	-0.352539	-0.103271	0.578439	0.350745	-0.688553	0.261306
22067		9.680995	0.385280	-1.760842	-0.126915	0.052709	-0.015374	-0.751465	-0.360352	-0.101562	0.579075	0.350072	-0.688566	0.260763
22068		9.692361	0.378092	-1.808238	-0.132017	0.069079	-0.016224	-0.764648	-0.362305	-0.105225	0.579855	0.349296	-0.688537	0.260148
22069		9.600639	0.345639	-1.869696	-0.118318	0.065988	-0.022018	-0.758789	-0.367920	-0.112305	0.580604	0.348566	-0.688505	0.259541
22070		9.583537	0.288400	-1.933347	-0.074700	0.048921	-0.028390	-0.763184	-0.354492	-0.106689	0.581236	0.347940	-0.688533	0.258890
22071		9.651624	0.281128	-2.004500	-0.024648	0.031004	-0.035858	-0.757324	-0.362061	-0.104736	0.581481	0.347942	-0.688361	0.258796
22072		9.602235	0.205878	-1.946629	0.056788	0.014061	-0.042968	-0.761719	-0.358643	-0.108154	0.581442	0.348362	-0.688106	0.258997
22073		9.552408	0.267934	-1.820045	0.138904	-0.004631	-0.057269	-0.763916	-0.356689	-0.110352	0.581089	0.349284	-0.687727	0.259551
22074		9.781964	0.319156	-1.701266	0.207855	-0.013510	-0.071242	-0.763184	-0.357910	-0.101074	0.580520	0.350617	-0.687210	0.260395
22075		9.823581	0.227100	-1.620904	0.266082	0.007696	-0.078285	-0.755615	-0.363037	-0.104492	0.579848	0.352369	-0.686368	0.261747
22076		9.769014	0.232947	-1.418190	0.287617	0.021173	-0.064312	-0.748779	-0.367432	-0.097168	0.579233	0.353970	-0.685525	0.263153
22077		9.882061	0.447129	-1.511235	0.283467	0.024247	-0.053453	-0.754150	-0.370850	-0.106201	0.578599	0.355545	-0.684674	0.264636
22078		9.681524	0.765965	-1.746078	0.246710	0.025450	-0.049248	-0.752686	-0.365234	-0.106201	0.578169	0.356698	-0.684017	0.265720
22079		9.451142	1.047763	-2.001666	0.143208	0.009565	-0.060222	-0.754883	-0.366943	-0.106445	0.577949	0.357506	-0.683601	0.266185
22080		9.429857	1.088321	-2.041744	0.052043	-0.011920	-0.067270	-0.753906	-0.372803	-0.099365	0.577905	0.357932	-0.683485	0.266006
22081		9.640976	0.848102	-1.962341	0.034419	-0.018943	-0.073889	-0.751953	-0.366455	-0.094727	0.577867	0.358376	-0.683400	0.265708
22082		9.612407	0.757254	-1.997193	0.058379	-0.025630	-0.081439	-0.751221	-0.368896	-0.100098	0.577650	0.359170	-0.683176	0.265684
22083		9.636349	0.776436	-2.036143	0.057105	-0.017614	-0.083392	-0.750732	-0.371826	-0.107666	0.577552	0.359816	-0.682981	0.265525
22084		9.702405	0.713197	-1.993850	0.048632	-0.015276	-0.063909	-0.752930	-0.371826	-0.098145	0.577534	0.360128	-0.682945	0.265232
22085		9.644236	0.772279	-1.792117	0.032081	-0.005193	-0.053449	-0.750732	-0.369629	-0.100830	0.577513	0.360454	-0.682837	0.265113
22086		9.534911	0.866297	-1.947038	-0.029081	-0.020382	-0.046849	-0.753906	-0.365723	-0.109131	0.577583	0.360465	-0.682964	0.264616
22087		9.555431	0.757702	-2.102266	-0.044005	-0.022366	-0.030192	-0.755371	-0.369873	-0.097656	0.577690	0.360219	-0.683231	0.264030
22088		9.708196	0.628279	-1.972592	-0.040446	-0.011172	-0.003180	-0.749756	-0.375977	-0.099609	0.577715	0.359969	-0.683436	0.263784
22089		9.753648	0.693724	-1.918401	-0.067822	-0.001613	0.013393	-0.761230	-0.364502	-0.109863	0.577911	0.359339	-0.683780	0.263324
22090		9.630448	0.935693	-1.822557	-0.055378	0.004476	0.027752	-0.756836	-0.368896	-0.103760	0.578066	0.358653	-0.684111	0.263058
22091		9.469967	1.187530	-1.498623	-0.036889	-0.005200	0.040260	-0.757080	-0.362061	-0.095459	0.578068	0.358052	-0.684466	0.262950
22092		9.672415	1.145855	-1.415476	-0.013947	-0.025667	0.040132	-0.750732	-0.367188	-0.097656	0.577758	0.357877	-0.684723	0.263199
22093		9.721772	1.112160	-1.536817	-0.025318	-0.016670	0.041285	-0.756104	-0.366455	-0.097900	0.577608	0.357473	-0.685048	0.263234
22094		9.654952	1.036519	-1.665176	-0.071137	-0.003584	0.040659	-0.749023	-0.364746	-0.096191	0.577669	0.356816	-0.685410	0.263049
22095		9.564621	1.074083	-1.818570	-0.154420	0.015697	0.054769	-0.756348	-0.365967	-0.098877	0.578037	0.355690	-0.685875	0.262551
22096		9.667350	0.957619	-1.746800	-0.229033	-0.000924	0.088939	-0.758789	-0.370117	-0.098389	0.578480	0.353977	-0.686718	0.261686
22097		9.729280	0.666458	-1.736175	-0.310346	-0.025010	0.131721	-0.761230	-0.365479	-0.101562	0.578953	0.351624	-0.688006	0.260426
22098		9.737694	0.560049	-1.863382	-0.394231	-0.005676	0.168114	-0.758301	-0.356934	-0.106201	0.579694	0.348614	-0.689478	0.258926
22099		9.645781	0.390659	-2.146830	-0.400844	0.007915	0.190704	-0.754639	-0.359375	-0.101074	0.580459	0.345447	-0.690933	0.257575
22100		9.620750	0.276095	-2.162193	-0.340796	0.014428	0.191795	-0.761230	-0.351074	-0.108398	0.581057	0.342612	-0.692193	0.256631
22101		9.525502	0.346577	-2.201790	-0.262085	0.013607	0.173555	-0.765381	-0.348145	-0.117188	0.581464	0.340233	-0.693241	0.256044
22102		9.640822	0.440191	-2.341273	-0.134133	-0.005066	0.133023	-0.765625	-0.351807	-0.107666	0.581544	0.338605	-0.694056	0.255811
22103		9.632169	0.426489	-2.129493	-0.040346	0.000102	0.107909	-0.761963	-0.355225	-0.110107	0.581393	0.337682	-0.694520	0.256116
22104		9.589178	0.448722	-1.953346	-0.013366	-0.003031	0.090437	-0.756836	-0.335205	-0.111328	0.581243	0.336880	-0.694951	0.256344
22105		9.676760	0.520340	-1.934297	-0.049029	0.010122	0.084104	-0.760986	-0.340576	-0.104004	0.581163	0.336175	-0.695242	0.256660
22106		9.619061	0.439569	-1.957068	-0.100148	0.001361	0.091089	-0.759766	-0.353027	-0.113281	0.581138	0.335246	-0.695687	0.256728
22107		9.672327	0.240663	-1.935721	-0.146721	-0.031482	0.104238	-0.763184	-0.337646	-0.109619	0.581197	0.333719	-0.696603	0.256096
22108		9.604176	-0.003616	-1.958708	-0.191408	-0.047971	0.106242	-0.763184	-0.333252	-0.107910	0.581149	0.332265	-0.697567	0.255473
22109		9.597182	-0.237597	-2.098021	-0.203255	-0.056789	0.104048	-0.770996	-0.333984	-0.111084	0.581049	0.330861	-0.698554	0.254824
22110		9.652622	-0.372314	-2.009609	-0.209540	-0.045320	0.092041	-0.768799	-0.332275	-0.108154	0.581096	0.329369	-0.699511	0.254022
22111		9.711288	-0.388020	-2.004806	-0.184377	-0.023450	0.067352	-0.765381	-0.338379	-0.108154	0.581225	0.328162	-0.700209	0.253366
22112		9.732819	-0.516755	-1.968686	-0.134506	-0.004289	0.038125	-0.757812	-0.330566	-0.110596	0.581433	0.327248	-0.700666	0.252807
22113		9.758284	-0.651974	-2.049082	-0.072369	0.003320	0.010450	-0.768311	-0.334229	-0.113281	0.581551	0.326841	-0.700848	0.252557
22114		9.623486	-0.663451	-2.078265	0.008344	0.011685	-0.013562	-0.770996	-0.334717	-0.108887	0.581587	0.326846	-0.700802	0.252598
22115		9.630232	-0.488083	-2.112104	0.087944	0.015741	-0.043525	-0.764160	-0.334229	-0.111084	0.581457	0.327472	-0.700456	0.253045
22116		9.680638	-0.420808	-2.035574	0.133773	0.022673	-0.065743	-0.774902	-0.327637	-0.116943	0.581306	0.328411	-0.699928	0.253635
22117		9.687430	-0.352958	-1.953961	0.175425	0.025635	-0.080904	-0.775146	-0.339111	-0.117676	0.581092	0.329593	-0.699270	0.254404
22118		9.744878	-0.219367	-1.935244	0.208786	0.033210	-0.094322	-0.772217	-0.344482	-0.103760	0.580926	0.330861	-0.698532	0.255165
22119		9.768181	-0.048870	-1.950926	0.230306	0.041784	-0.104542	-0.766602	-0.342285	-0.107178	0.580691	0.332453	-0.697596	0.256190
22120		9.677023	0.173963	-1.908557	0.245691	0.041230	-0.112576	-0.760010	-0.340088	-0.107910	0.580439	0.334143	-0.696612	0.257237
22121		9.636505	0.288230	-1.832961	0.252150	0.034332	-0.117652	-0.761475	-0.342285	-0.113525	0.580129	0.335932	-0.695617	0.258297
22122		9.610203	0.305453	-1.797711	0.252930	0.031770	-0.123871	-0.759277	-0.337646	-0.097412	0.579866	0.337648	-0.694664	0.259212
22123		9.625033	0.242266	-1.671785	0.241043	0.024603	-0.127141	-0.764893	-0.353760	-0.101807	0.579445	0.339657	-0.693610	0.260348
22124		9.726015	0.190034	-1.722199	0.240133	0.017432	-0.132735	-0.769287	-0.349609	-0.106689	0.579116	0.341456	-0.692696	0.261161
22125		9.661507	0.149293	-1.806828	0.255593	0.019921	-0.138351	-0.755615	-0.345947	-0.109375	0.578776	0.343316	-0.691732	0.262030
22126		9.682349	0.214870	-2.030913	0.282269	0.023106	-0.140860	-0.752197	-0.346680	-0.106934	0.578384	0.345326	-0.690671	0.263049
22127		9.643047	0.314170	-2.092466	0.300870	0.029753	-0.136060	-0.760498	-0.352051	-0.095703	0.577948	0.347416	-0.689530	0.264246
22128		9.589065	0.482255	-2.112342	0.314453	0.016630	-0.133163	-0.755127	-0.364502	-0.101807	0.577327	0.349681	-0.688381	0.265609
22129		9.539510	0.650544	-2.075822	0.318563	0.005423	-0.134692	-0.753906	-0.358887	-0.104736	0.576746	0.351786	-0.687371	0.266705
22130		9.559295	0.834028	-2.067773	0.290333	-0.010984	-0.139652	-0.759033	-0.356445	-0.102783	0.576154	0.353822	-0.686478	0.267590
22131		9.568173	0.835537	-2.117142	0.249136	-0.014494	-0.134648	-0.751221	-0.360107	-0.096191	0.575620	0.355677	-0.685685	0.268313
22132		9.537964	0.760237	-2.157442	0.222969	-0.024875	-0.129336	-0.747070	-0.361816	-0.093018	0.575067	0.357461	-0.684982	0.268921
22133		9.630631	0.769908	-2.094763	0.223267	-0.028273	-0.127045	-0.758789	-0.365234	-0.093018	0.574476	0.359267	-0.684286	0.269550
22134		9.636973	0.929112	-2.069876	0.220365	-0.031003	-0.112662	-0.756348	-0.367676	-0.092773	0.573860	0.360922	-0.683681	0.270187
22135		9.614493	1.011296	-1.930339	0.207234	-0.041673	-0.105948	-0.758545	-0.360596	-0.086426	0.573222	0.362469	-0.683189	0.270712
22136		9.598868	0.951261	-1.811765	0.172870	-0.055080	-0.099729	-0.754150	-0.372314	-0.087402	0.572512	0.363999	-0.682775	0.271208
22137		9.578155	0.739452	-1.846724	0.130657	-0.065142	-0.100098	-0.757324	-0.376221	-0.079590	0.571954	0.365206	-0.682579	0.271252
22138		9.646846	0.501554	-1.895265	0.138877	-0.061124	-0.100144	-0.757568	-0.372559	-0.088867	0.571364	0.366497	-0.682320	0.271410
22139		9.746510	0.286332	-1.920940	0.193654	-0.048854	-0.088705	-0.755859	-0.378418	-0.083740	0.570697	0.367853	-0.681959	0.271883
22140		9.788502	0.390486	-1.869570	0.240989	-0.017734	-0.061248	-0.752930	-0.377197	-0.091553	0.570003	0.369204	-0.681430	0.272833
22141		9.676961	0.756814	-1.701807	0.195838	0.002562	-0.037232	-0.765869	-0.379395	-0.075684	0.569564	0.370050	-0.681033	0.273596
22142		9.573391	1.022651	-1.810672	0.090460	-0.000031	-0.031069	-0.752686	-0.374756	-0.076904	0.569321	0.370531	-0.680822	0.273974
22143		9.507737	1.015697	-2.020020	0.040627	-0.007899	-0.032204	-0.754639	-0.376221	-0.083496	0.569176	0.370853	-0.680729	0.274072
22144		9.512414	0.966824	-2.145602	0.009000	-0.028881	-0.033063	-0.753662	-0.375244	-0.082031	0.569069	0.370960	-0.680866	0.273806
22145		9.543769	0.813649	-2.225202	-0.006159	-0.029774	-0.040580	-0.756104	-0.376465	-0.084229	0.569007	0.371070	-0.681003	0.273446
22146		9.603120	0.656702	-2.181991	0.011143	-0.028053	-0.046292	-0.750732	-0.374512	-0.079590	0.568937	0.371239	-0.681103	0.273114
22147		9.609650	0.616776	-2.141708	0.039001	-0.030964	-0.048996	-0.746582	-0.376465	-0.072266	0.568726	0.371659	-0.681093	0.273008
22148		9.664488	0.675680	-1.997243	0.041017	-0.011010	-0.046628	-0.758057	-0.381104	-0.074463	0.568578	0.372115	-0.680947	0.273058
22149		9.635210	0.720596	-1.962454	0.019584	0.000638	-0.037229	-0.758545	-0.377930	-0.077881	0.568585	0.372281	-0.680883	0.272978
22150		9.608650	0.635624	-1.993484	0.005480	-0.004811	-0.026433	-0.758057	-0.378174	-0.077637	0.568582	0.372322	-0.680912	0.272853
22151		9.500624	0.607260	-1.915292	-0.006171	-0.030765	-0.022760	-0.755859	-0.386230	-0.071533	0.568460	0.372348	-0.681102	0.272599
22152		9.562290	0.555713	-1.923115	-0.051984	-0.039584	-0.018300	-0.751465	-0.381104	-0.075928	0.568432	0.372136	-0.681465	0.272039
22153		9.606160	0.505618	-1.821155	-0.096531	-0.025539	-0.004455	-0.759277	-0.380371	-0.081299	0.568590	0.371607	-0.681899	0.271341
22154		9.723210	0.459947	-1.724976	-0.130799	-0.016222	0.005936	-0.752930	-0.376221	-0.080322	0.568916	0.370754	-0.682440	0.270467
22155		9.776092	0.407136	-1.820410	-0.153737	-0.002377	0.024383	-0.752930	-0.372314	-0.071045	0.569313	0.369738	-0.682976	0.269666
22156		9.734903	0.414136	-1.925493	-0.154866	0.015385	0.056057	-0.757080	-0.365967	-0.077881	0.569644	0.368696	-0.683420	0.269270
22157		9.718062	0.438351	-2.068326	-0.139935	0.018725	0.079886	-0.754150	-0.376953	-0.080811	0.569900	0.367554	-0.683897	0.269077
22158		9.630562	0.517797	-2.145074	-0.130397	0.030857	0.096159	-0.757324	-0.384033	-0.077881	0.570257	0.366155	-0.684447	0.268833
22159		9.583630	0.696448	-2.053940	-0.162991	0.038240	0.099367	-0.753662	-0.374512	-0.077148	0.570772	0.364509	-0.685076	0.268372
22160		9.568122	0.845287	-1.969500	-0.220055	0.037778	0.106726	-0.754150	-0.373535	-0.081543	0.571373	0.362691	-0.685777	0.267766
22161		9.539969	0.884713	-1.941086	-0.269236	0.040185	0.105860	-0.754639	-0.369141	-0.091309	0.572159	0.360588	-0.686595	0.266828
22162		9.663771	0.788034	-1.960823	-0.286458	0.036059	0.108142	-0.759521	-0.367188	-0.083740	0.573005	0.358314	-0.687513	0.265712
22163		9.631818	0.696505	-1.909518	-0.300633	0.030861	0.115049	-0.760498	-0.368408	-0.093262	0.573770	0.356081	-0.688432	0.264681
22164		9.627979	0.511932	-1.928026	-0.293720	0.022742	0.114894	-0.763184	-0.366943	-0.092041	0.574540	0.353742	-0.689448	0.263499
22165		9.567435	0.339821	-2.056167	-0.268190	0.003324	0.108004	-0.760498	-0.351562	-0.083984	0.575114	0.351640	-0.690458	0.262413
22166		9.584285	0.210279	-2.114721	-0.214307	-0.005384	0.103913	-0.756104	-0.358887	-0.091797	0.575324	0.350181	-0.691199	0.261952
22167		9.561551	0.128762	-2.093111	-0.160360	-0.000164	0.093352	-0.765625	-0.363037	-0.091064	0.575540	0.348808	-0.691879	0.261513
22168		9.657307	0.177740	-2.133099	-0.090775	-0.016317	0.084869	-0.750977	-0.358643	-0.087402	0.575501	0.347786	-0.692494	0.261332
22169		9.705194	0.229103	-2.204119	-0.038903	-0.042998	0.085932	-0.761963	-0.354004	-0.095459	0.575109	0.347197	-0.693062	0.261476
22170		9.666677	0.322683	-2.082821	-0.074242	-0.033775	0.088226	-0.763916	-0.355957	-0.099609	0.574906	0.346295	-0.693718	0.261379
22171		9.572461	0.225270	-2.040473	-0.106443	-0.019007	0.082284	-0.762939	-0.351074	-0.093994	0.574943	0.345135	-0.694407	0.261000
22172		9.767280	-0.010729	-1.985193	-0.115356	-0.015073	0.072028	-0.756836	-0.351318	-0.089600	0.574986	0.344118	-0.695000	0.260670
22173		9.803397	-0.205278	-2.016991	-0.127866	0.003238	0.073997	-0.760254	-0.357422	-0.088623	0.575140	0.343060	-0.695504	0.260379
22174		9.767894	-0.268408	-2.104856	-0.089733	0.014699	0.067070	-0.760254	-0.348389	-0.086426	0.575299	0.342128	-0.695888	0.260230
22175		9.689426	-0.280363	-2.155063	-0.044991	0.020745	0.059596	-0.758789	-0.355713	-0.099365	0.575313	0.341579	-0.696055	0.260474
22176		9.554475	-0.248715	-2.013022	-0.011571	0.026722	0.047126	-0.768799	-0.352539	-0.095459	0.575428	0.340978	-0.696214	0.260579
22177		9.520529	-0.075659	-1.823430	-0.012186	0.032972	0.038065	-0.755859	-0.344238	-0.102783	0.575559	0.340475	-0.696290	0.260745
22178		9.549072	0.124048	-1.735730	-0.044206	0.035155	0.026345	-0.769043	-0.346191	-0.096924	0.575821	0.339907	-0.696374	0.260686
22179		9.559472	0.193681	-1.749073	-0.061165	0.033616	0.018078	-0.771240	-0.342285	-0.100098	0.576109	0.339338	-0.696467	0.260541
22180		9.607521	0.188413	-1.716597	-0.063193	0.025965	0.008947	-0.757812	-0.353271	-0.099609	0.576376	0.338829	-0.696572	0.260332
22181		9.707024	0.218487	-1.742923	-0.076059	0.029735	0.012766	-0.769287	-0.348877	-0.093262	0.576750	0.338148	-0.696740	0.259939
22182		9.688322	0.168479	-1.814083	-0.090021	0.034963	0.013685	-0.757812	-0.341064	-0.099365	0.577120	0.337500	-0.696861	0.259637
22183		9.720430	0.167631	-1.946528	-0.084433	0.038266	0.016727	-0.759033	-0.346924	-0.102783	0.577477	0.336899	-0.696935	0.259424
22184		9.609320	0.269034	-1.985910	-0.082428	0.039768	0.021071	-0.763428	-0.341064	-0.102051	0.577882	0.336167	-0.697064	0.259126
22185		9.488651	0.317023	-1.997430	-0.073202	0.020952	0.008133	-0.767334	-0.344482	-0.103760	0.578137	0.335667	-0.697192	0.258859
22186		9.473692	0.322786	-1.843738	-0.070827	0.003493	0.008254	-0.759033	-0.340332	-0.107910	0.578314	0.335146	-0.697433	0.258490
22187		9.490910	0.402775	-1.775002	-0.088673	-0.029402	0.000003	-0.763916	-0.345215	-0.110840	0.578370	0.334673	-0.697837	0.257889
22188		9.603104	0.424979	-2.127296	-0.071750	-0.054699	-0.031012	-0.767822	-0.340332	-0.106201	0.578346	0.334403	-0.698292	0.257057
22189		9.768343	0.323133	-2.137545	0.042056	-0.038457	-0.055545	-0.765625	-0.336426	-0.100342	0.578096	0.334895	-0.698308	0.256936
22190		9.872278	0.229934	-2.020763	0.128649	-0.008666	-0.060172	-0.762939	-0.342285	-0.104248	0.577725	0.335898	-0.697921	0.257514
22191		9.743133	0.233137	-1.981722	0.178575	-0.008256	-0.038474	-0.767090	-0.343018	-0.101807	0.577230	0.336895	-0.697539	0.258353
22192		9.587465	0.093048	-2.135551	0.203515	-0.036407	-0.017770	-0.756348	-0.348145	-0.095215	0.576449	0.337954	-0.697295	0.259371
22193		9.568248	0.249912	-2.089836	0.173080	-0.033743	0.004527	-0.760010	-0.345703	-0.098877	0.575710	0.338779	-0.697145	0.260336
22194		9.615999	0.808620	-1.908813	0.048681	-0.029055	0.014273	-0.762451	-0.338623	-0.096680	0.575349	0.338888	-0.697291	0.260602
22195		9.629229	1.111085	-1.914896	-0.050481	-0.019907	-0.006301	-0.774658	-0.343018	-0.094238	0.575317	0.338711	-0.697507	0.260326
22196		9.572397	1.001373	-1.943420	-0.172445	-0.030883	-0.034415	-0.768799	-0.339844	-0.092773	0.575640	0.338077	-0.697990	0.259136
22197		9.637613	0.488285	-2.139277	-0.256839	-0.040350	-0.029356	-0.772949	-0.342529	-0.090088	0.576102	0.337107	-0.698677	0.257519
22198		9.640993	-0.181515	-2.159191	-0.258165	-0.035141	-0.016082	-0.759766	-0.339844	-0.090332	0.576562	0.336039	-0.699379	0.255975
22199		9.677021	-0.491659	-2.258305	-0.187749	-0.034161	-0.011203	-0.762695	-0.341309	-0.101318	0.576798	0.335352	-0.699902	0.254912
22200		9.775709	-0.451793	-2.280691	-0.048519	-0.022706	-0.007091	-0.775146	-0.342773	-0.103271	0.576778	0.335127	-0.700154	0.254562
22201		9.745537	-0.140604	-1.975260	0.059195	0.003971	-0.014333	-0.768799	-0.343262	-0.097656	0.576651	0.335325	-0.700067	0.254828
22202		9.660084	0.050122	-1.845441	0.059240	0.007645	-0.030455	-0.774414	-0.342041	-0.098145	0.576547	0.335692	-0.699881	0.255092
22203		9.659309	0.069378	-1.846840	0.033119	0.016555	-0.049646	-0.760742	-0.344238	-0.093994	0.576608	0.336011	-0.699660	0.255138
22204		9.593000	0.068063	-1.926750	0.012303	0.017442	-0.059850	-0.762451	-0.347900	-0.096680	0.576733	0.336368	-0.699414	0.255060
22205		9.607514	0.228808	-1.992227	0.008684	0.011449	-0.062676	-0.770508	-0.344727	-0.096680	0.576870	0.336673	-0.699225	0.254866
22206		9.669297	0.180862	-1.996971	0.046501	0.014770	-0.061136	-0.762939	-0.350586	-0.095947	0.576901	0.337148	-0.698943	0.254942
22207		9.636954	0.211306	-2.012775	0.055437	0.013787	-0.048512	-0.764160	-0.343262	-0.093994	0.576892	0.337582	-0.698688	0.255087
