// Start Time: Unknown
// Update Rate: 60.0Hz
// Filter Profile: human (46.1)
// Firmware Version: 4.6.0
PacketCounter	SampleTimeFine	Acc_X	Acc_Y	Acc_Z	Gyr_X	Gyr_Y	Gyr_Z	Mag_X	Mag_Y	Mag_Z	Quat_q0	Quat_q1	Quat_q2	Quat_q3
58930		7.531178	-0.339739	6.138833	-0.013487	0.000179	0.000798	-0.507568	-0.380859	-0.732666	0.787002	0.193578	-0.383159	0.443108
58931		7.537963	-0.321425	6.139355	-0.012498	-0.005371	-0.000824	-0.516357	-0.373047	-0.728760	0.787008	0.193519	-0.383239	0.443054
58932		7.545183	-0.303470	6.139334	-0.017616	-0.008426	0.003151	-0.522461	-0.375488	-0.729248	0.786971	0.193464	-0.383393	0.443011
58933		7.554998	-0.274993	6.121344	-0.018614	-0.014321	0.002385	-0.503662	-0.370605	-0.734131	0.786904	0.193481	-0.383593	0.442949
58934		7.569720	-0.292394	6.123417	-0.017455	-0.016890	-0.001134	-0.519775	-0.371338	-0.735352	0.786927	0.193334	-0.383732	0.442851
58935		7.586825	-0.277738	6.133252	-0.017382	-0.018656	-0.002645	-0.512451	-0.364990	-0.729004	0.786905	0.193303	-0.383914	0.442747
58936		7.595528	-0.321153	6.055015	-0.010391	-0.025198	-0.001075	-0.511475	-0.376221	-0.732422	0.786861	0.193303	-0.384103	0.442661
58937		7.593843	-0.323393	6.112042	-0.005671	-0.024751	0.000137	-0.509521	-0.379883	-0.729736	0.786791	0.193363	-0.384288	0.442598
58938		7.631384	-0.358322	6.128315	0.003977	-0.024497	0.006543	-0.514648	-0.378174	-0.726807	0.786671	0.193492	-0.384456	0.442610
58939		7.618305	-0.333874	6.164402	0.003891	-0.017800	0.009321	-0.511963	-0.378418	-0.730957	0.786545	0.193621	-0.384600	0.442652
58940		7.611229	-0.310481	6.176582	0.007673	-0.015154	0.010765	-0.512207	-0.373047	-0.731934	0.786438	0.193715	-0.384698	0.442717
58941		7.599343	-0.295587	6.170927	0.009090	-0.010267	0.012234	-0.521729	-0.367432	-0.726318	0.786355	0.193761	-0.384748	0.442800
58942		7.543089	-0.351918	6.140003	0.014201	-0.002282	0.009506	-0.517578	-0.376221	-0.722412	0.786275	0.193878	-0.384741	0.442897
58943		7.567396	-0.359131	6.137580	0.026430	-0.004642	0.012598	-0.517578	-0.368896	-0.728271	0.786141	0.194116	-0.384713	0.443054
58944		7.589543	-0.376773	6.152667	0.037113	-0.001842	0.018386	-0.518311	-0.376709	-0.729492	0.786007	0.194314	-0.384622	0.443284
58945		7.598295	-0.399510	6.138462	0.045626	-0.002362	0.026950	-0.520752	-0.374756	-0.726807	0.785824	0.194581	-0.384502	0.443595
58946		7.596201	-0.430186	6.130392	0.051243	-0.004373	0.035236	-0.514160	-0.373779	-0.735107	0.785576	0.194861	-0.384418	0.443985
58947		7.598500	-0.397633	6.138330	0.061333	-0.001954	0.042133	-0.517334	-0.378906	-0.721680	0.785343	0.195097	-0.384243	0.444445
58948		7.589473	-0.372784	6.152997	0.062945	0.003896	0.047505	-0.518555	-0.385742	-0.728027	0.785047	0.195398	-0.384086	0.444971
58949		7.584608	-0.305438	6.158398	0.064322	0.003861	0.047769	-0.519775	-0.374756	-0.727539	0.784769	0.195725	-0.383878	0.445496
58950		7.573091	-0.278185	6.137521	0.069508	0.003117	0.048105	-0.509521	-0.373047	-0.722900	0.784472	0.196002	-0.383706	0.446046
58951		7.539864	-0.265739	6.128980	0.067139	0.002020	0.046794	-0.515381	-0.379150	-0.726562	0.784202	0.196239	-0.383526	0.446571
58952		7.561614	-0.262458	6.170073	0.068356	-0.000751	0.041681	-0.517090	-0.381104	-0.723145	0.783940	0.196567	-0.383328	0.447056
58953		7.561448	-0.260694	6.170352	0.062901	0.000633	0.037429	-0.525146	-0.378418	-0.730957	0.783694	0.196897	-0.383142	0.447501
58954		7.567400	-0.259981	6.146538	0.062799	0.005999	0.033047	-0.518311	-0.368896	-0.718262	0.783486	0.197194	-0.382920	0.447925
58955		7.584411	-0.251873	6.116304	0.056038	-0.001289	0.031612	-0.524658	-0.379150	-0.723389	0.783249	0.197429	-0.382826	0.448316
58956		7.602106	-0.235697	6.164135	0.052699	0.000226	0.024828	-0.528320	-0.378418	-0.719727	0.783052	0.197741	-0.382679	0.448648
58957		7.586129	-0.249779	6.152952	0.045916	0.008167	0.021404	-0.516357	-0.376465	-0.727539	0.782883	0.198011	-0.382526	0.448955
58958		7.591701	-0.228443	6.155068	0.035780	0.012458	0.017230	-0.513184	-0.377930	-0.726807	0.782835	0.198124	-0.382303	0.449177
58959		7.583729	-0.246328	6.156048	0.027397	0.011166	0.007093	-0.523193	-0.379150	-0.723145	0.782847	0.198225	-0.382086	0.449298
58960		7.599924	-0.250985	6.180247	0.027139	0.013551	0.004593	-0.515137	-0.382568	-0.722656	0.782824	0.198382	-0.381900	0.449425
58961		7.597886	-0.248197	6.182865	0.029778	0.025933	-0.002325	-0.518311	-0.380127	-0.721924	0.782894	0.198533	-0.381563	0.449523
58962		7.564605	-0.222899	6.159555	0.026346	0.029009	-0.000320	-0.521973	-0.379150	-0.718262	0.782954	0.198636	-0.381254	0.449635
58963		7.577325	-0.203567	6.174896	0.028417	0.024202	-0.004030	-0.519531	-0.383057	-0.723389	0.782981	0.198803	-0.381000	0.449730
58964		7.574405	-0.213159	6.231893	0.023578	0.032267	-0.001028	-0.513672	-0.381348	-0.722900	0.783061	0.198903	-0.380665	0.449830
58965		7.594398	-0.252093	6.262878	0.032535	0.039101	0.001997	-0.517578	-0.383301	-0.721680	0.783157	0.198990	-0.380239	0.449985
58966		7.574102	-0.265121	6.257022	0.036025	0.054023	0.003431	-0.517334	-0.379639	-0.718750	0.783268	0.199074	-0.379721	0.450192
58967		7.542218	-0.264368	6.283424	0.039553	0.053719	0.006865	-0.515137	-0.385254	-0.723145	0.783343	0.199145	-0.379235	0.450440
58968		7.480125	-0.229595	6.229306	0.034372	0.054091	0.012233	-0.520752	-0.386719	-0.726562	0.783434	0.199186	-0.378713	0.450703
58969		7.421995	-0.241417	6.196600	0.038220	0.054572	0.017901	-0.514893	-0.384033	-0.724365	0.783486	0.199254	-0.378192	0.451019
58970		7.401861	-0.222808	6.162523	0.034419	0.043428	0.021175	-0.508789	-0.388184	-0.726807	0.783508	0.199285	-0.377761	0.451329
58971		7.393844	-0.188023	6.199000	0.037395	0.029876	0.016186	-0.520508	-0.386475	-0.726318	0.783537	0.199406	-0.377330	0.451586
58972		7.469935	-0.157517	6.169512	0.042377	0.026161	0.018483	-0.525635	-0.386963	-0.724854	0.783484	0.199597	-0.376991	0.451876
58973		7.506935	-0.126003	6.207654	0.045588	0.020124	0.018463	-0.509033	-0.388672	-0.728271	0.783380	0.199863	-0.376719	0.452166
58974		7.568265	-0.102390	6.243609	0.051042	0.018573	0.021210	-0.515625	-0.387695	-0.727295	0.783335	0.200095	-0.376311	0.452481
58975		7.622497	-0.119314	6.254430	0.053985	0.024813	0.021142	-0.512695	-0.393311	-0.726807	0.783273	0.200343	-0.375909	0.452812
58976		7.564453	-0.174190	6.264321	0.054876	0.027563	0.022195	-0.519775	-0.391846	-0.726562	0.783230	0.200631	-0.375440	0.453148
58977		7.556913	-0.180182	6.250114	0.056366	0.032269	0.022040	-0.520752	-0.386963	-0.719482	0.783166	0.200921	-0.374999	0.453495
58978		7.476303	-0.173911	6.295147	0.047435	0.041873	0.022519	-0.515625	-0.385498	-0.725830	0.783108	0.201087	-0.374621	0.453833
58979		7.417427	-0.141929	6.275084	0.038028	0.049316	0.022551	-0.518555	-0.389893	-0.722168	0.783130	0.201095	-0.374166	0.454167
58980		7.388389	-0.153931	6.257810	0.028904	0.046429	0.016824	-0.517090	-0.391602	-0.721680	0.783155	0.201150	-0.373771	0.454424
58981		7.373154	-0.127359	6.241174	0.022131	0.045874	0.018025	-0.517578	-0.387451	-0.729004	0.783188	0.201174	-0.373392	0.454669
58982		7.367077	-0.126147	6.210411	0.016672	0.035573	0.018658	-0.512451	-0.385498	-0.726318	0.783215	0.201120	-0.373093	0.454892
58983		7.374621	-0.174152	6.211266	0.019461	0.017087	0.021437	-0.516846	-0.387939	-0.729004	0.783179	0.201113	-0.372905	0.455111
58984		7.421140	-0.191213	6.209803	0.024845	0.007415	0.023264	-0.512207	-0.386230	-0.720459	0.783088	0.201207	-0.372763	0.455342
58985		7.466672	-0.206681	6.171611	0.027930	0.001581	0.024911	-0.520996	-0.381348	-0.724609	0.782954	0.201335	-0.372684	0.455581
58986		7.456448	-0.213327	6.176842	0.043248	-0.020124	0.024492	-0.520996	-0.382324	-0.725098	0.782697	0.201600	-0.372772	0.455834
58987		7.472002	-0.205700	6.203217	0.048785	-0.033383	0.023333	-0.521729	-0.389160	-0.715820	0.782398	0.201955	-0.372912	0.456075
58988		7.526250	-0.209328	6.177832	0.054514	-0.043693	0.020251	-0.514404	-0.391602	-0.716797	0.782030	0.202531	-0.373093	0.456302
58989		7.528457	-0.217236	6.189897	0.047050	-0.049345	0.022964	-0.517090	-0.395264	-0.721680	0.781700	0.203051	-0.373251	0.456507
58990		7.513149	-0.120417	6.188258	0.039825	-0.050120	0.017897	-0.518311	-0.397217	-0.718018	0.781413	0.203559	-0.373393	0.456657
58991		7.491229	-0.064609	6.161046	0.028657	-0.056148	0.007584	-0.520752	-0.386475	-0.717285	0.781148	0.204093	-0.373608	0.456696
58992		7.525939	-0.083277	6.144794	0.012837	-0.072539	-0.006440	-0.521484	-0.392334	-0.710449	0.780902	0.204485	-0.374083	0.456552
58993		7.557726	-0.178299	6.202866	0.001502	-0.073048	-0.019561	-0.525391	-0.393555	-0.714600	0.780694	0.204968	-0.374563	0.456297
58994		7.561991	-0.186457	6.212537	-0.007989	-0.055119	-0.021225	-0.519775	-0.387695	-0.717285	0.780567	0.205323	-0.374952	0.456035
58995		7.468073	-0.149665	6.140557	-0.018922	-0.055871	-0.015051	-0.516113	-0.385254	-0.718506	0.780491	0.205449	-0.375379	0.455759
58996		7.465591	-0.147671	6.121632	-0.026678	-0.064595	-0.003009	-0.522461	-0.390381	-0.719727	0.780392	0.205453	-0.375884	0.455509
58997		7.524310	-0.169499	6.181588	-0.029682	-0.065858	-0.001642	-0.533691	-0.387207	-0.713379	0.780256	0.205537	-0.376404	0.455276
58998		7.557071	-0.181681	6.207403	-0.031115	-0.063874	-0.007679	-0.523193	-0.386963	-0.719971	0.780047	0.205672	-0.377067	0.455023
58999		7.535020	-0.205401	6.158159	-0.030322	-0.065372	-0.019197	-0.524414	-0.394775	-0.714355	0.779994	0.205747	-0.377567	0.454665
59000		7.535756	-0.170690	6.145518	-0.032256	-0.065546	-0.025649	-0.521973	-0.388916	-0.720703	0.779929	0.205995	-0.378018	0.454289
59001		7.572232	-0.082795	6.120495	-0.043858	-0.067899	-0.023860	-0.526855	-0.381836	-0.717529	0.779933	0.206013	-0.378522	0.453854
59002		7.682530	-0.055212	6.154101	-0.047211	-0.069957	-0.024688	-0.526123	-0.385742	-0.715820	0.779896	0.205959	-0.379176	0.453398
59003		7.678127	-0.064060	6.152309	-0.057678	-0.057798	-0.034321	-0.523438	-0.391846	-0.714355	0.779952	0.205896	-0.379724	0.452871
59004		7.637583	-0.092178	6.135151	-0.061489	-0.053033	-0.053369	-0.531982	-0.378662	-0.709717	0.780116	0.205949	-0.380134	0.452219
59005		7.674033	-0.113172	6.154791	-0.064344	-0.061088	-0.063594	-0.525879	-0.385986	-0.713379	0.780209	0.205922	-0.380824	0.451489
59006		7.715306	-0.124520	6.192250	-0.068247	-0.055038	-0.068096	-0.527344	-0.390381	-0.711426	0.780419	0.205917	-0.381319	0.450711
59007		7.742332	-0.120288	6.226872	-0.072406	-0.034942	-0.071259	-0.535156	-0.385254	-0.714844	0.780686	0.205917	-0.381667	0.449953
59008		7.655198	-0.163202	6.185380	-0.067785	-0.022631	-0.073377	-0.531738	-0.390625	-0.706787	0.780950	0.205837	-0.382025	0.449226
59009		7.614153	-0.201889	6.262040	-0.050360	-0.014453	-0.069176	-0.525879	-0.385010	-0.716064	0.781165	0.205973	-0.382222	0.448622
59010		7.623729	-0.269096	6.329616	-0.044585	0.008136	-0.056484	-0.522217	-0.387451	-0.720703	0.781507	0.205814	-0.382224	0.448098
59011		7.540523	-0.335941	6.280126	-0.030452	0.025911	-0.049321	-0.528076	-0.385986	-0.718994	0.781906	0.205642	-0.381986	0.447685
59012		7.541297	-0.292060	6.368882	-0.011829	0.024395	-0.036747	-0.523438	-0.392334	-0.719238	0.782150	0.205579	-0.381802	0.447443
59013		7.508929	-0.269140	6.382819	-0.010599	0.056199	-0.024568	-0.518799	-0.388916	-0.723389	0.782479	0.205444	-0.381321	0.447341
59014		7.434208	-0.242603	6.336576	0.013854	0.070729	-0.009302	-0.528809	-0.396484	-0.713867	0.782809	0.205255	-0.380655	0.447417
59015		7.442007	-0.223518	6.357330	0.030603	0.073628	0.003707	-0.526611	-0.388184	-0.716064	0.782916	0.205378	-0.380024	0.447710
59016		7.472084	-0.245862	6.406581	0.042289	0.101979	0.013488	-0.517822	-0.391113	-0.718750	0.783080	0.205274	-0.379238	0.448137
59017		7.508984	-0.149857	6.409140	0.059286	0.110631	0.030023	-0.523926	-0.389160	-0.714111	0.783254	0.205180	-0.378241	0.448719
59018		7.486479	-0.011575	6.394036	0.052787	0.114574	0.020351	-0.515137	-0.398193	-0.717529	0.783397	0.205098	-0.377350	0.449256
59019		7.446853	0.036881	6.309139	0.041628	0.100221	-0.001238	-0.520264	-0.387695	-0.713623	0.783670	0.205144	-0.376375	0.449577
59020		7.441099	0.018351	6.367487	0.037865	0.088397	-0.025295	-0.523926	-0.389404	-0.718994	0.783930	0.205173	-0.375650	0.449716
59021		7.485948	0.041111	6.322675	0.027667	0.099556	-0.034086	-0.508545	-0.396973	-0.726074	0.784267	0.205117	-0.374885	0.449792
59022		7.499206	0.115769	6.354961	0.022696	0.106059	-0.030915	-0.516113	-0.386230	-0.726074	0.784767	0.204990	-0.373847	0.449843
59023		7.506475	0.071360	6.378055	0.019005	0.122804	-0.030715	-0.514648	-0.395020	-0.716553	0.785253	0.204641	-0.372926	0.449919
59024		7.417255	-0.047352	6.284779	0.017689	0.130946	-0.038814	-0.507568	-0.393799	-0.724121	0.785728	0.204508	-0.371917	0.449984
59025		7.412103	-0.084135	6.225441	0.024217	0.107590	-0.048324	-0.512695	-0.397217	-0.732666	0.786238	0.204424	-0.370946	0.449933
59026		7.429416	-0.053304	6.279599	0.018997	0.096855	-0.050910	-0.510254	-0.392090	-0.722412	0.786723	0.204354	-0.370068	0.449840
59027		7.411197	-0.030031	6.227032	0.017037	0.102867	-0.050543	-0.504395	-0.397217	-0.730957	0.787172	0.204250	-0.369262	0.449763
59028		7.347372	-0.014729	6.187816	0.008690	0.090863	-0.042950	-0.501709	-0.394043	-0.724854	0.787648	0.204097	-0.368452	0.449665
59029		7.359532	-0.025786	6.177638	0.007825	0.061797	-0.041028	-0.502197	-0.392090	-0.728027	0.787999	0.204040	-0.367896	0.449531
59030		7.420227	-0.044099	6.240972	-0.001533	0.055725	-0.037581	-0.495361	-0.397705	-0.729736	0.788338	0.203880	-0.367447	0.449376
59031		7.409817	-0.028151	6.254638	-0.013603	0.057636	-0.035306	-0.496826	-0.404297	-0.728516	0.788748	0.203673	-0.366919	0.449181
59032		7.391631	0.023024	6.227763	-0.030214	0.049519	-0.042464	-0.505127	-0.404297	-0.726807	0.789158	0.203532	-0.366476	0.448886
59033		7.429958	0.009584	6.290323	-0.047265	0.031480	-0.056680	-0.500732	-0.404053	-0.722412	0.789510	0.203445	-0.366305	0.448446
59034		7.489023	0.034342	6.328724	-0.053432	0.033383	-0.069574	-0.497070	-0.397949	-0.728271	0.789926	0.203372	-0.366112	0.447904
59035		7.463096	0.021827	6.345551	-0.067520	0.040069	-0.072467	-0.501709	-0.399902	-0.724854	0.790446	0.203041	-0.365920	0.447293
59036		7.484070	0.013953	6.385417	-0.080119	0.044934	-0.076591	-0.502930	-0.398438	-0.734375	0.790954	0.202710	-0.365801	0.446644
59037		7.508030	0.061610	6.327002	-0.097225	0.058618	-0.084385	-0.494141	-0.386963	-0.731445	0.791591	0.202154	-0.365631	0.445906
59038		7.441188	0.072148	6.307116	-0.102301	0.057966	-0.100611	-0.494629	-0.395508	-0.741943	0.792330	0.201458	-0.365495	0.445018
59039		7.459749	0.012436	6.316493	-0.097780	0.057513	-0.111835	-0.485352	-0.399658	-0.730713	0.793134	0.200894	-0.365220	0.444066
59040		7.523192	-0.050635	6.366080	-0.096891	0.061904	-0.119571	-0.489990	-0.389893	-0.739990	0.793968	0.200483	-0.364841	0.443072
59041		7.497890	-0.052938	6.404726	-0.103665	0.073367	-0.115207	-0.489258	-0.393555	-0.740234	0.794826	0.199785	-0.364531	0.442103
59042		7.422048	-0.024485	6.321971	-0.105171	0.081177	-0.117424	-0.494873	-0.394775	-0.733154	0.795704	0.199126	-0.364151	0.441132
59043		7.361802	-0.048428	6.343481	-0.105738	0.071357	-0.124301	-0.490479	-0.398438	-0.737793	0.796478	0.198641	-0.363933	0.440133
59044		7.406353	-0.031358	6.429079	-0.108547	0.069491	-0.127677	-0.487793	-0.398438	-0.746826	0.797300	0.198169	-0.363652	0.439088
59045		7.397393	0.027876	6.435203	-0.110603	0.075580	-0.135873	-0.486084	-0.391602	-0.740723	0.798220	0.197621	-0.363275	0.437975
59046		7.356623	0.129757	6.438860	-0.127301	0.067506	-0.151595	-0.482178	-0.395020	-0.747314	0.799161	0.197003	-0.363079	0.436699
59047		7.359860	0.161523	6.502214	-0.136831	0.059143	-0.167686	-0.492676	-0.392822	-0.745117	0.800188	0.196405	-0.362867	0.435260
59048		7.330436	0.101356	6.452825	-0.152545	0.068720	-0.182513	-0.476074	-0.396973	-0.750977	0.801220	0.195757	-0.362782	0.433723
59049		7.295598	0.055820	6.374116	-0.157516	0.057462	-0.189807	-0.469482	-0.393066	-0.745605	0.802369	0.195118	-0.362565	0.432065
59050		7.258088	-0.014349	6.364493	-0.160344	0.053412	-0.188918	-0.480713	-0.390625	-0.747803	0.803504	0.194459	-0.362399	0.430389
59051		7.289873	-0.062778	6.366104	-0.161510	0.052960	-0.178656	-0.475586	-0.390625	-0.751465	0.804513	0.193772	-0.362406	0.428804
59052		7.362368	-0.006384	6.403726	-0.149869	0.042377	-0.175157	-0.472900	-0.389893	-0.748779	0.805489	0.193168	-0.362397	0.427249
59053		7.389034	0.041372	6.453443	-0.139042	0.042674	-0.169697	-0.462402	-0.394287	-0.759521	0.806415	0.192643	-0.362363	0.425765
59054		7.372810	0.041929	6.428540	-0.130228	0.041146	-0.161797	-0.464355	-0.395752	-0.756104	0.807393	0.192121	-0.362150	0.424327
59055		7.377575	-0.020544	6.463387	-0.109715	0.033511	-0.158915	-0.467041	-0.393799	-0.750488	0.808255	0.191826	-0.361964	0.422976
59056		7.383414	-0.018270	6.514572	-0.095426	0.030117	-0.157824	-0.458740	-0.398926	-0.755371	0.809021	0.191670	-0.361840	0.421686
59057		7.348433	0.027317	6.588375	-0.079386	0.037050	-0.165109	-0.453613	-0.396729	-0.761719	0.809865	0.191634	-0.361472	0.420396
59058		7.324299	0.097505	6.605053	-0.068694	0.048856	-0.167454	-0.468262	-0.400879	-0.757080	0.810779	0.191549	-0.360943	0.419126
59059		7.212930	0.154113	6.551685	-0.066867	0.059818	-0.174907	-0.452881	-0.389404	-0.761963	0.811622	0.191592	-0.360491	0.417861
59060		7.138798	0.220609	6.511228	-0.075762	0.062531	-0.170652	-0.457764	-0.398682	-0.765869	0.812574	0.191325	-0.359990	0.416563
59061		7.109904	0.214938	6.530087	-0.093471	0.065787	-0.173176	-0.457031	-0.401611	-0.762451	0.813536	0.191052	-0.359515	0.415220
59062		7.124876	0.178433	6.509051	-0.096503	0.056211	-0.162671	-0.450684	-0.397949	-0.765381	0.814409	0.190827	-0.359143	0.413931
59063		7.148221	0.087854	6.579016	-0.091764	0.066006	-0.148502	-0.453125	-0.393066	-0.765625	0.815287	0.190483	-0.358683	0.412758
59064		7.129732	0.008589	6.627352	-0.078179	0.069593	-0.131191	-0.448242	-0.396484	-0.763428	0.816069	0.190119	-0.358264	0.411744
59065		7.083663	0.003505	6.623593	-0.070088	0.076649	-0.105762	-0.446045	-0.392334	-0.768555	0.816774	0.189765	-0.357765	0.410944
59066		7.032037	0.058576	6.547843	-0.056933	0.074139	-0.091133	-0.447510	-0.392578	-0.768066	0.817417	0.189384	-0.357268	0.410272
59067		7.038896	0.051669	6.523741	-0.044227	0.047904	-0.074294	-0.451660	-0.394043	-0.767822	0.817883	0.189148	-0.356968	0.409714
59068		7.065925	0.081493	6.512808	-0.025877	0.036582	-0.056580	-0.443604	-0.394043	-0.767822	0.818193	0.189058	-0.356757	0.409319
59069		7.147288	0.076136	6.508302	-0.015001	0.021460	-0.040484	-0.444824	-0.396240	-0.770996	0.818423	0.189029	-0.356564	0.409040
59070		7.252983	0.123889	6.555693	-0.002140	0.016905	-0.024953	-0.444824	-0.387939	-0.764648	0.818565	0.189068	-0.356376	0.408902
59071		7.282738	0.148966	6.578067	0.002305	0.025033	-0.016987	-0.448242	-0.389404	-0.772461	0.818679	0.189022	-0.356222	0.408829
59072		7.241918	0.140212	6.568648	0.010508	0.028697	-0.010994	-0.449219	-0.399170	-0.768066	0.818775	0.188981	-0.356024	0.408828
59073		7.165302	0.131813	6.529804	0.014790	0.028437	-0.001738	-0.451660	-0.400879	-0.769531	0.818802	0.189090	-0.355788	0.408929
59074		7.121827	0.117179	6.465501	0.016973	0.020788	0.007939	-0.447021	-0.398438	-0.768066	0.818759	0.189225	-0.355624	0.409096
59075		7.110829	0.081331	6.427133	0.020702	-0.001178	0.012360	-0.436768	-0.401611	-0.767090	0.818650	0.189412	-0.355585	0.409260
59076		7.150094	0.089429	6.474367	0.023866	-0.017934	0.021380	-0.440918	-0.393555	-0.770020	0.818503	0.189667	-0.355542	0.409475
59077		7.202825	0.120378	6.462484	0.024254	-0.020666	0.032262	-0.444580	-0.403564	-0.764648	0.818308	0.189790	-0.355622	0.409736
59078		7.218483	0.135468	6.473244	0.024213	-0.023977	0.042569	-0.442139	-0.402832	-0.773682	0.818027	0.190048	-0.355721	0.410094
59079		7.209694	0.080697	6.483084	0.031921	-0.031291	0.056362	-0.446045	-0.401123	-0.760254	0.817707	0.190271	-0.355808	0.410553
59080		7.248911	0.001817	6.507132	0.044080	-0.041761	0.070979	-0.445068	-0.399902	-0.767090	0.817235	0.190627	-0.356041	0.411125
59081		7.254008	-0.030447	6.457150	0.048001	-0.045763	0.079855	-0.445557	-0.399658	-0.763428	0.816745	0.190933	-0.356265	0.411761
59082		7.196250	-0.037404	6.403800	0.045190	-0.053827	0.089993	-0.443115	-0.394531	-0.760010	0.816195	0.191229	-0.356579	0.412444
59083		7.223752	-0.026639	6.385934	0.044266	-0.065507	0.095736	-0.451172	-0.397461	-0.767334	0.815605	0.191488	-0.356995	0.413128
59084		7.293708	-0.000601	6.433610	0.047995	-0.074997	0.102707	-0.451172	-0.394775	-0.768066	0.814946	0.191787	-0.357489	0.413863
59085		7.340289	0.027496	6.517293	0.046922	-0.073358	0.108571	-0.446777	-0.404541	-0.759766	0.814286	0.192013	-0.357983	0.414629
59086		7.345841	0.008031	6.525571	0.056158	-0.068982	0.111094	-0.450439	-0.393555	-0.756836	0.813609	0.192422	-0.358316	0.415480
59087		7.286308	-0.087416	6.486675	0.051936	-0.066632	0.112681	-0.457275	-0.390869	-0.760010	0.812936	0.192678	-0.358758	0.416296
59088		7.217714	-0.088165	6.498422	0.061870	-0.072661	0.117883	-0.457520	-0.399902	-0.754395	0.812201	0.192965	-0.359269	0.417156
59089		7.205344	-0.034161	6.465090	0.078538	-0.079281	0.123660	-0.454102	-0.392090	-0.749268	0.811379	0.193496	-0.359710	0.418128
59090		7.279418	-0.024345	6.448830	0.096196	-0.091100	0.130957	-0.452393	-0.399414	-0.755859	0.810488	0.194087	-0.360203	0.419157
59091		7.280410	-0.026270	6.426585	0.106402	-0.085893	0.131540	-0.468750	-0.395020	-0.750000	0.809624	0.194754	-0.360514	0.420250
59092		7.243069	0.024850	6.409514	0.112971	-0.093012	0.141360	-0.471191	-0.400635	-0.746826	0.808616	0.195459	-0.361048	0.421402
59093		7.330187	0.040580	6.421395	0.121722	-0.101621	0.147320	-0.469238	-0.395996	-0.754883	0.807531	0.196303	-0.361586	0.422628
59094		7.411555	-0.043866	6.503188	0.126496	-0.094228	0.147564	-0.467041	-0.397949	-0.745850	0.806514	0.197032	-0.362025	0.423853
59095		7.372338	-0.101335	6.514084	0.130617	-0.076646	0.153697	-0.468018	-0.395508	-0.744873	0.805514	0.197756	-0.362312	0.425171
59096		7.375018	-0.094155	6.512097	0.138139	-0.073712	0.157870	-0.475098	-0.395020	-0.744141	0.804502	0.198470	-0.362571	0.426530
59097		7.366665	0.002295	6.505374	0.136347	-0.067773	0.163148	-0.471924	-0.397705	-0.749268	0.803470	0.199129	-0.362853	0.427926
59098		7.311524	0.057182	6.503819	0.133402	-0.057570	0.163063	-0.479248	-0.398682	-0.746094	0.802515	0.199707	-0.362995	0.429327
59099		7.259761	0.102515	6.460377	0.128140	-0.051519	0.163366	-0.476562	-0.398193	-0.735352	0.801549	0.200256	-0.363164	0.430731
59100		7.265611	0.096545	6.453889	0.126071	-0.052199	0.161281	-0.476562	-0.401123	-0.738281	0.800579	0.200837	-0.363333	0.432119
59101		7.294032	0.104240	6.471757	0.120785	-0.047264	0.156102	-0.482422	-0.400391	-0.728516	0.799668	0.201380	-0.363433	0.433467
59102		7.293463	0.078583	6.464866	0.111660	-0.046001	0.145533	-0.479248	-0.401855	-0.743408	0.798763	0.201938	-0.363603	0.434732
59103		7.353509	0.044275	6.485378	0.106724	-0.048060	0.144626	-0.489746	-0.404785	-0.738525	0.797940	0.202379	-0.363712	0.435944
59104		7.373079	0.001761	6.459336	0.101928	-0.039643	0.146875	-0.483154	-0.405762	-0.739746	0.797080	0.202821	-0.363849	0.437197
59105		7.381998	0.016747	6.419640	0.100622	-0.038549	0.141909	-0.489014	-0.401367	-0.742432	0.796286	0.203243	-0.363897	0.438406
59106		7.372926	0.025483	6.410040	0.103044	-0.041097	0.138907	-0.486084	-0.396484	-0.726074	0.795488	0.203639	-0.364006	0.439578
59107		7.360636	0.025605	6.381588	0.095683	-0.046843	0.132842	-0.496826	-0.406494	-0.729004	0.794681	0.204054	-0.364211	0.440675
59108		7.348899	0.026085	6.352478	0.092396	-0.052055	0.123515	-0.494873	-0.395508	-0.736328	0.793850	0.204593	-0.364437	0.441734
59109		7.409160	0.025661	6.344054	0.083046	-0.054583	0.112383	-0.501953	-0.394531	-0.723389	0.793132	0.204940	-0.364725	0.442625
59110		7.411413	0.030558	6.380143	0.076693	-0.050072	0.112277	-0.499512	-0.401611	-0.733398	0.792367	0.205303	-0.365085	0.443530
59111		7.434440	-0.002225	6.372205	0.081351	-0.044985	0.111738	-0.503174	-0.401611	-0.729248	0.791660	0.205677	-0.365285	0.444454
59112		7.420776	-0.033021	6.335934	0.090247	-0.049897	0.118285	-0.495850	-0.403076	-0.727295	0.790873	0.206131	-0.365520	0.445449
59113		7.425347	0.016635	6.326436	0.096882	-0.048023	0.122826	-0.502686	-0.402100	-0.728760	0.790101	0.206607	-0.365652	0.446488
59114		7.384466	0.037821	6.305750	0.095433	-0.044985	0.120895	-0.504639	-0.400879	-0.726562	0.789331	0.207052	-0.365809	0.447515
59115		7.357272	0.043907	6.289258	0.091715	-0.057543	0.117091	-0.502930	-0.398438	-0.730713	0.788537	0.207526	-0.366071	0.448480
59116		7.419759	-0.013637	6.319497	0.083696	-0.057303	0.120401	-0.511963	-0.403076	-0.727295	0.787784	0.207871	-0.366348	0.449416
59117		7.475230	-0.036789	6.345791	0.082857	-0.052310	0.117245	-0.501953	-0.405518	-0.720459	0.787004	0.208279	-0.366617	0.450374
59118		7.498315	-0.015949	6.333457	0.073810	-0.054229	0.115512	-0.504395	-0.403809	-0.721924	0.786272	0.208673	-0.366843	0.451285
59119		7.503772	-0.022557	6.326971	0.067086	-0.049897	0.109111	-0.503662	-0.395508	-0.722168	0.785595	0.208996	-0.367069	0.452130
59120		7.545878	0.056703	6.316741	0.058098	-0.040163	0.102348	-0.510254	-0.401611	-0.719727	0.785013	0.209153	-0.367291	0.452888
59121		7.488987	0.136289	6.306179	0.048000	-0.030820	0.092010	-0.510986	-0.400146	-0.715576	0.784473	0.209324	-0.367471	0.453598
59122		7.448196	0.133969	6.299190	0.033613	-0.019215	0.076735	-0.509521	-0.397461	-0.710693	0.784040	0.209413	-0.367616	0.454187
59123		7.476827	0.054832	6.256708	0.037063	-0.023734	0.067698	-0.507568	-0.397217	-0.714355	0.783619	0.209568	-0.367771	0.454717
59124		7.512264	0.039382	6.263313	0.033885	-0.030636	0.058293	-0.509521	-0.403320	-0.719727	0.783248	0.209724	-0.367940	0.455146
59125		7.541184	0.004932	6.269309	0.031490	-0.028031	0.052611	-0.520264	-0.401367	-0.725586	0.782922	0.209898	-0.368049	0.455538
59126		7.554677	0.008711	6.260087	0.014523	-0.018496	0.040906	-0.513184	-0.397705	-0.718262	0.782672	0.209929	-0.368206	0.455828
59127		7.537504	0.012166	6.199250	-0.004086	-0.015028	0.031170	-0.516113	-0.393799	-0.719727	0.782518	0.209848	-0.368379	0.455989
59128		7.529947	-0.022115	6.214652	-0.018775	-0.017446	0.018731	-0.514160	-0.398193	-0.715332	0.782425	0.209682	-0.368637	0.456016
59129		7.588746	-0.034721	6.167600	-0.025716	-0.014069	0.017216	-0.514893	-0.399902	-0.720459	0.782352	0.209529	-0.368861	0.456032
59130		7.582546	-0.113305	6.169932	-0.024675	-0.009605	0.010773	-0.524414	-0.397461	-0.721436	0.782331	0.209375	-0.369022	0.456008
59131		7.580934	-0.170681	6.137153	-0.022934	-0.007265	0.013109	-0.513428	-0.398926	-0.724854	0.782259	0.209216	-0.369232	0.456034
59132		7.553890	-0.218488	6.069578	-0.016274	-0.016751	0.016865	-0.515869	-0.399658	-0.720947	0.782206	0.209094	-0.369401	0.456044
59133		7.570117	-0.250186	6.160898	0.002833	-0.027994	0.024617	-0.518066	-0.402832	-0.712891	0.782028	0.209153	-0.369599	0.456162
59134		7.566166	-0.208211	6.231223	0.014239	-0.027674	0.036143	-0.523438	-0.400879	-0.717529	0.781745	0.209329	-0.369779	0.456421
59135		7.542764	-0.158834	6.243491	0.015162	-0.018380	0.038238	-0.512451	-0.392578	-0.715332	0.781476	0.209434	-0.369927	0.456713
59136		7.482115	-0.128979	6.203544	0.007666	-0.020320	0.036598	-0.517334	-0.399902	-0.716064	0.781279	0.209413	-0.370095	0.456924
59137		7.475500	-0.151925	6.164806	-0.008487	-0.021555	0.036796	-0.529053	-0.399902	-0.718750	0.781082	0.209363	-0.370315	0.457105
59138		7.486522	-0.160232	6.173159	-0.012191	-0.027243	0.028268	-0.520264	-0.402588	-0.714600	0.780855	0.209350	-0.370629	0.457243
59139		7.565213	-0.180661	6.183279	-0.011869	-0.024512	0.024680	-0.520020	-0.405029	-0.709717	0.780686	0.209366	-0.370855	0.457342
59140		7.601907	-0.197481	6.226035	-0.010539	-0.020832	0.020600	-0.524414	-0.397461	-0.710693	0.780527	0.209438	-0.371036	0.457435
59141		7.655809	-0.229832	6.213819	-0.005964	-0.016661	0.017583	-0.521729	-0.401123	-0.712646	0.780370	0.209471	-0.371226	0.457533
59142		7.646708	-0.217956	6.242584	-0.002830	-0.018983	0.013265	-0.522949	-0.397705	-0.719971	0.780239	0.209560	-0.371371	0.457597
59143		7.584079	-0.230836	6.286111	-0.002596	-0.004195	0.007887	-0.514648	-0.404541	-0.718018	0.780198	0.209542	-0.371418	0.457638
59144		7.557001	-0.276337	6.256381	0.009688	0.009805	0.005758	-0.517090	-0.395020	-0.714600	0.780220	0.209607	-0.371243	0.457711
59145		7.532085	-0.277163	6.181368	0.021776	0.015557	0.010070	-0.521484	-0.400879	-0.712891	0.780201	0.209658	-0.371065	0.457867
59146		7.544415	-0.236700	6.183773	0.033288	0.011027	0.013052	-0.521973	-0.393555	-0.716064	0.780105	0.209858	-0.370877	0.458089
59147		7.532261	-0.284491	6.141657	0.043643	0.001151	0.011292	-0.519531	-0.395508	-0.712402	0.779978	0.210087	-0.370746	0.458308
59148		7.534983	-0.291683	6.098859	0.052091	-0.010501	0.003177	-0.523926	-0.397217	-0.706055	0.779832	0.210466	-0.370628	0.458477
59149		7.547372	-0.290605	6.144063	0.061292	-0.026065	0.002389	-0.522705	-0.402588	-0.709717	0.779581	0.211018	-0.370605	0.458668
59150		7.578488	-0.261878	6.182266	0.069695	-0.024754	0.003745	-0.518555	-0.393799	-0.706299	0.779337	0.211625	-0.370503	0.458885
59151		7.628913	-0.207592	6.250818	0.074631	-0.013903	0.015419	-0.518799	-0.397217	-0.706543	0.779089	0.212111	-0.370361	0.459197
59152		7.634340	-0.138393	6.264491	0.069199	0.012455	0.018615	-0.526367	-0.402100	-0.712158	0.778922	0.212468	-0.370058	0.459559
59153		7.576741	-0.081179	6.229553	0.057212	0.024741	0.017576	-0.521729	-0.399902	-0.710693	0.778798	0.212722	-0.369728	0.459917
59154		7.510292	0.000538	6.208209	0.061453	0.022808	0.016858	-0.514404	-0.396729	-0.705078	0.778684	0.212987	-0.369385	0.460264
59155		7.523907	0.021801	6.222067	0.067290	0.013837	0.012062	-0.523682	-0.405273	-0.707764	0.778569	0.213322	-0.369059	0.460564
59156		7.543010	-0.002275	6.294138	0.069346	0.018900	0.010811	-0.520264	-0.406738	-0.705078	0.778430	0.213724	-0.368696	0.460904
59157		7.522247	-0.022333	6.303753	0.076530	0.033441	0.006651	-0.516113	-0.403320	-0.712891	0.778348	0.214140	-0.368187	0.461255
59158		7.486761	0.007281	6.244419	0.076004	0.036253	0.007460	-0.520264	-0.404053	-0.707764	0.778323	0.214450	-0.367649	0.461583
59159		7.448303	-0.006365	6.231757	0.077788	0.026567	0.011698	-0.526367	-0.410400	-0.708740	0.778206	0.214833	-0.367207	0.461955
59160		7.453534	0.008028	6.324732	0.075699	0.028075	0.014060	-0.523926	-0.409424	-0.708252	0.778057	0.215241	-0.366771	0.462360
59161		7.425936	0.022298	6.330475	0.069653	0.042584	0.016023	-0.521729	-0.402832	-0.714600	0.777968	0.215528	-0.366265	0.462778
59162		7.353824	0.018267	6.309028	0.068650	0.042935	0.022105	-0.523438	-0.410400	-0.715332	0.777892	0.215691	-0.365782	0.463213
59163		7.335178	0.004737	6.339105	0.065767	0.050818	0.035552	-0.524414	-0.408691	-0.718750	0.777783	0.215819	-0.365261	0.463746
59164		7.329866	-0.036799	6.296324	0.073297	0.043606	0.044596	-0.521240	-0.409668	-0.716553	0.777608	0.215963	-0.364783	0.464348
59165		7.379395	-0.086966	6.303611	0.083144	0.030463	0.058140	-0.516602	-0.405273	-0.711670	0.777331	0.216190	-0.364363	0.465036
59166		7.413604	-0.154403	6.299299	0.090181	0.037603	0.070160	-0.526123	-0.410400	-0.713135	0.777024	0.216375	-0.363896	0.465828
59167		7.386917	-0.135066	6.251219	0.089498	0.032025	0.075890	-0.517334	-0.410400	-0.710693	0.776633	0.216607	-0.363498	0.466681
59168		7.359205	-0.027700	6.226332	0.082008	0.011236	0.080861	-0.522949	-0.406250	-0.707520	0.776215	0.216845	-0.363238	0.467468
59169		7.420886	0.037176	6.272557	0.079518	-0.000910	0.073300	-0.521973	-0.408447	-0.708740	0.775753	0.217130	-0.363096	0.468213
59170		7.495893	0.054992	6.389237	0.080118	0.006539	0.061865	-0.520508	-0.409180	-0.703857	0.775372	0.217426	-0.362864	0.468886
59171		7.512297	0.038248	6.336035	0.080219	0.020188	0.052472	-0.522217	-0.419922	-0.707275	0.775063	0.217719	-0.362524	0.469522
59172		7.468742	-0.011322	6.244221	0.083562	0.017308	0.044968	-0.517822	-0.414062	-0.701904	0.774780	0.218126	-0.362140	0.470098
59173		7.465213	-0.062168	6.252295	0.085056	0.017278	0.037924	-0.516846	-0.409180	-0.708984	0.774525	0.218532	-0.361748	0.470631
59174		7.495765	-0.015386	6.223205	0.088278	0.017305	0.043205	-0.526367	-0.416992	-0.705811	0.774272	0.218859	-0.361359	0.471195
59175		7.551919	0.022479	6.228612	0.094047	0.014574	0.045314	-0.523193	-0.417725	-0.709473	0.773932	0.219315	-0.360985	0.471826
59176		7.585874	-0.074073	6.253253	0.096113	0.019860	0.038355	-0.521240	-0.415283	-0.705078	0.773666	0.219754	-0.360537	0.472401
59177		7.571609	-0.120287	6.214958	0.094291	0.024548	0.032980	-0.529053	-0.411377	-0.709717	0.773432	0.220172	-0.360064	0.472949
59178		7.395565	-0.086107	6.111070	0.080402	0.009845	0.032592	-0.518066	-0.417236	-0.700684	0.773149	0.220517	-0.359779	0.473468
59179		7.227808	0.054777	6.064494	0.060425	0.001116	0.044579	-0.526123	-0.414551	-0.705566	0.772869	0.220789	-0.359604	0.473932
59180		7.248130	0.124973	6.103805	0.051919	-0.021461	0.065644	-0.518799	-0.419434	-0.706543	0.772423	0.221000	-0.359677	0.474504
59181		7.414351	0.018370	6.177692	0.051813	-0.033685	0.073455	-0.525879	-0.414795	-0.704102	0.771967	0.221242	-0.359797	0.475042
59182		7.562412	-0.016059	6.226943	0.056983	-0.036755	0.076673	-0.525391	-0.414551	-0.699707	0.771432	0.221513	-0.359960	0.475662
59183		7.649661	0.037095	6.194058	0.051122	-0.036729	0.063526	-0.528320	-0.420654	-0.706299	0.770954	0.221799	-0.360123	0.476179
59184		7.608230	0.053373	6.226591	0.045798	-0.046360	0.047037	-0.530273	-0.416016	-0.706055	0.770543	0.222146	-0.360318	0.476534
59185		7.613792	0.044352	6.310347	0.038683	-0.049517	0.026508	-0.526611	-0.423828	-0.702881	0.770207	0.222490	-0.360540	0.476750
59186		7.685153	0.045220	6.385267	0.032700	-0.040193	0.007524	-0.523682	-0.417969	-0.700928	0.770013	0.222868	-0.360659	0.476796
59187		7.639114	0.065272	6.347782	0.019299	-0.017764	-0.002533	-0.531006	-0.419434	-0.693604	0.769959	0.223060	-0.360675	0.476782
59188		7.530015	0.087523	6.339118	0.006083	-0.010839	-0.019265	-0.529297	-0.413818	-0.697021	0.769951	0.223251	-0.360697	0.476689
59189		7.482263	0.131182	6.328028	-0.010596	-0.005273	-0.039391	-0.529297	-0.416992	-0.699463	0.770084	0.223313	-0.360717	0.476429
59190		7.499782	0.183089	6.308445	-0.037030	0.000896	-0.059799	-0.526123	-0.414062	-0.695801	0.770378	0.223248	-0.360754	0.475956
59191		7.478409	0.173926	6.358099	-0.051880	0.006562	-0.074897	-0.520020	-0.420166	-0.705078	0.770775	0.223106	-0.360788	0.475353
59192		7.486635	0.107729	6.372751	-0.062735	0.030738	-0.082814	-0.531982	-0.421631	-0.705811	0.771371	0.222802	-0.360654	0.474631
59193		7.446991	0.067376	6.337263	-0.077502	0.036659	-0.078341	-0.530518	-0.415283	-0.702148	0.771915	0.222406	-0.360583	0.473985
59194		7.402861	0.051999	6.385441	-0.076294	0.030072	-0.078898	-0.529053	-0.416504	-0.696289	0.772416	0.222029	-0.360565	0.473360
59195		7.368301	0.042410	6.391123	-0.083087	0.036424	-0.075158	-0.521973	-0.413086	-0.708740	0.772917	0.221613	-0.360541	0.472756
59196		7.323986	-0.018762	6.390938	-0.072216	0.021119	-0.076220	-0.525146	-0.412842	-0.697754	0.773428	0.221237	-0.360547	0.472091
59197		7.344097	-0.057431	6.422613	-0.053016	0.021861	-0.066710	-0.523682	-0.417236	-0.701904	0.773802	0.221022	-0.360512	0.471604
59198		7.413795	-0.035700	6.469762	-0.028466	0.021096	-0.054301	-0.516113	-0.421875	-0.698486	0.774106	0.220939	-0.360393	0.471236
59199		7.445939	0.011072	6.513812	-0.025269	0.041788	-0.054312	-0.521729	-0.413818	-0.702637	0.774503	0.220827	-0.360103	0.470856
59200		7.491751	0.008109	6.498858	-0.001749	0.042152	-0.045682	-0.517090	-0.418701	-0.708740	0.774782	0.220783	-0.359765	0.470677
59201		7.493477	0.078017	6.552774	0.000852	0.062505	-0.044603	-0.524414	-0.420898	-0.710205	0.775165	0.220662	-0.359261	0.470488
59202		7.359453	0.171029	6.434745	-0.001492	0.074753	-0.042409	-0.519775	-0.424805	-0.708984	0.775533	0.220497	-0.358708	0.470381
59203		7.215918	0.212153	6.310705	-0.003344	0.057668	-0.046483	-0.513428	-0.417725	-0.705078	0.775891	0.220423	-0.358251	0.470174
59204		7.264389	0.232044	6.391803	-0.020379	0.032889	-0.054447	-0.512939	-0.417236	-0.701904	0.776242	0.220324	-0.358011	0.469823
59205		7.389590	0.289785	6.444681	-0.040957	0.035567	-0.070171	-0.510986	-0.422852	-0.706055	0.776685	0.220142	-0.357810	0.469329
59206		7.468823	0.351688	6.458674	-0.062189	0.047881	-0.082489	-0.514404	-0.414795	-0.708740	0.777281	0.219825	-0.357574	0.468672
59207		7.496078	0.299129	6.464828	-0.068628	0.065243	-0.087240	-0.510742	-0.425049	-0.706299	0.777919	0.219364	-0.357264	0.468063
59208		7.470121	0.307967	6.451961	-0.066169	0.096706	-0.079760	-0.517578	-0.420654	-0.712646	0.778640	0.218849	-0.356734	0.467510
59209		7.382561	0.204688	6.383646	-0.070960	0.106243	-0.078690	-0.507812	-0.414795	-0.715820	0.779348	0.218230	-0.356184	0.467039
59210		7.411656	0.094261	6.376766	-0.055122	0.097318	-0.074985	-0.505859	-0.424561	-0.707764	0.780031	0.217676	-0.355628	0.466581
59211		7.431073	0.130896	6.412578	-0.055364	0.107330	-0.072488	-0.510254	-0.416992	-0.714111	0.780723	0.217178	-0.355001	0.466133
59212		7.318760	0.157427	6.412222	-0.062268	0.125205	-0.073772	-0.504883	-0.424805	-0.714111	0.781447	0.216512	-0.354304	0.465759
59213		7.201376	0.174111	6.357905	-0.061402	0.109890	-0.075819	-0.500244	-0.414795	-0.714844	0.782163	0.215964	-0.353680	0.465286
59214		7.269438	0.171115	6.367748	-0.065880	0.086049	-0.075893	-0.506104	-0.418213	-0.722412	0.782815	0.215416	-0.353239	0.464779
59215		7.288484	0.195983	6.455219	-0.072895	0.079416	-0.072534	-0.497559	-0.416260	-0.716064	0.783426	0.214845	-0.352880	0.464286
59216		7.245115	0.175258	6.447874	-0.083963	0.080803	-0.070755	-0.499023	-0.422363	-0.716309	0.784071	0.214201	-0.352549	0.463745
59217		7.194798	0.134539	6.403927	-0.085846	0.070536	-0.072265	-0.486084	-0.422607	-0.726562	0.784684	0.213639	-0.352285	0.463169
59218		7.252501	0.111958	6.433893	-0.089830	0.054123	-0.076477	-0.495605	-0.423584	-0.719238	0.785374	0.213062	-0.352104	0.462400
59219		7.279562	0.155099	6.446248	-0.096879	0.049864	-0.082975	-0.496338	-0.421143	-0.720215	0.785996	0.212544	-0.351993	0.461667
59220		7.315954	0.173974	6.445910	-0.101937	0.047822	-0.096018	-0.488525	-0.416504	-0.716064	0.786655	0.212031	-0.351897	0.460853
59221		7.309666	0.196538	6.476242	-0.111379	0.045823	-0.102567	-0.484375	-0.420410	-0.727051	0.787366	0.211468	-0.351836	0.459943
59222		7.291336	0.212112	6.476931	-0.115711	0.049140	-0.103467	-0.491455	-0.412842	-0.733398	0.788153	0.210840	-0.351748	0.458950
59223		7.258585	0.155224	6.506401	-0.115643	0.046834	-0.100770	-0.489014	-0.421143	-0.722168	0.788874	0.210166	-0.351706	0.458051
59224		7.291582	0.110329	6.492536	-0.111210	0.042941	-0.104406	-0.484131	-0.419189	-0.725342	0.789570	0.209652	-0.351654	0.457126
59225		7.316050	0.090075	6.526968	-0.119842	0.044054	-0.115470	-0.484375	-0.415039	-0.733154	0.790352	0.209083	-0.351602	0.456074
59226		7.312586	0.123036	6.539522	-0.130212	0.047239	-0.123608	-0.478271	-0.413818	-0.729492	0.791197	0.208409	-0.351559	0.454949
59227		7.268580	0.114818	6.533736	-0.140212	0.044678	-0.130606	-0.486816	-0.415771	-0.735107	0.792088	0.207707	-0.351553	0.453723
59228		7.220316	0.153573	6.433164	-0.148303	0.038947	-0.132480	-0.476074	-0.415771	-0.734619	0.792937	0.206994	-0.351625	0.452508
59229		7.181715	0.098709	6.448013	-0.154287	0.025054	-0.130545	-0.475342	-0.408936	-0.735352	0.793799	0.206281	-0.351793	0.451191
59230		7.211664	0.086899	6.461929	-0.159167	0.016678	-0.131042	-0.479980	-0.413086	-0.742920	0.794631	0.205537	-0.352047	0.449866
59231		7.289655	0.081757	6.498094	-0.148711	0.003826	-0.132263	-0.470947	-0.417480	-0.737061	0.795401	0.204927	-0.352342	0.448550
59232		7.352801	0.080854	6.581707	-0.147590	0.004252	-0.137287	-0.486084	-0.416992	-0.730469	0.796221	0.204378	-0.352597	0.447142
59233		7.389758	0.056080	6.659454	-0.146737	0.017599	-0.141542	-0.484131	-0.408691	-0.736572	0.796973	0.203863	-0.352790	0.445884
59234		7.316758	0.055526	6.711282	-0.142538	0.031296	-0.146282	-0.472412	-0.421387	-0.744873	0.797785	0.203272	-0.352879	0.444630
59235		7.266535	0.083042	6.699947	-0.141051	0.046034	-0.147667	-0.472656	-0.406494	-0.742188	0.798736	0.202664	-0.352806	0.443257
59236		7.164487	0.096302	6.612213	-0.150257	0.056164	-0.146230	-0.468994	-0.411377	-0.742188	0.799687	0.201891	-0.352738	0.441947
59237		7.071204	0.139166	6.507977	-0.168291	0.046209	-0.155070	-0.473633	-0.405762	-0.744385	0.800681	0.201094	-0.352769	0.440482
59238		7.028058	0.164975	6.437123	-0.191624	0.034185	-0.169613	-0.471924	-0.419189	-0.753662	0.801692	0.200208	-0.352967	0.438887
59239		7.029151	0.089183	6.417645	-0.191817	0.008338	-0.176994	-0.467041	-0.408203	-0.745117	0.802686	0.199486	-0.353285	0.437139
59240		7.200833	0.032874	6.556500	-0.167633	-0.006081	-0.180218	-0.463867	-0.408447	-0.753174	0.803588	0.198963	-0.353625	0.435442
59241		7.371613	-0.118067	6.706924	-0.130689	0.011960	-0.166017	-0.465576	-0.403564	-0.746094	0.804459	0.198554	-0.353721	0.433940
59242		7.421065	-0.116068	6.726779	-0.086588	0.035819	-0.145551	-0.461670	-0.409668	-0.748291	0.805209	0.198303	-0.353554	0.432799
59243		7.360058	-0.090657	6.720906	-0.052202	0.038047	-0.120900	-0.459717	-0.401611	-0.747314	0.805838	0.198226	-0.353265	0.431897
59244		7.243851	-0.066129	6.643515	-0.027510	0.035897	-0.104923	-0.457764	-0.410889	-0.748535	0.806357	0.198233	-0.352948	0.431184
59245		7.141688	-0.059108	6.606531	-0.015775	0.035621	-0.089669	-0.458496	-0.411133	-0.748535	0.806810	0.198320	-0.352590	0.430590
59246		7.075905	-0.021530	6.606576	-0.001528	0.024746	-0.083365	-0.459473	-0.409180	-0.750977	0.807173	0.198524	-0.352269	0.430078
59247		7.046197	0.081284	6.616030	0.010230	0.023367	-0.073575	-0.458496	-0.424316	-0.754639	0.807473	0.198763	-0.351942	0.429671
59248		7.032537	0.177602	6.649095	0.014422	0.028745	-0.062135	-0.460205	-0.419189	-0.753174	0.807754	0.199043	-0.351539	0.429343
59249		7.006769	0.298413	6.660894	0.010537	0.038871	-0.047948	-0.453369	-0.411377	-0.746826	0.808002	0.199195	-0.351129	0.429141
59250		6.960396	0.319107	6.607429	0.006470	0.050759	-0.032246	-0.451904	-0.408691	-0.745117	0.808245	0.199200	-0.350689	0.429041
59251		6.955517	0.260945	6.560165	0.004142	0.033280	-0.006763	-0.455322	-0.404541	-0.746826	0.808347	0.199167	-0.350425	0.429081
59252		6.916924	0.203040	6.445470	0.002450	0.017629	0.016004	-0.465820	-0.412354	-0.746094	0.808311	0.199088	-0.350334	0.429259
59253		7.044503	0.151455	6.508156	0.014392	-0.003725	0.033211	-0.451660	-0.410156	-0.752441	0.808078	0.199178	-0.350378	0.429620
59254		7.167866	0.145075	6.548486	0.019159	-0.008238	0.041893	-0.456543	-0.410889	-0.751953	0.807878	0.199234	-0.350413	0.429940
59255		7.248147	0.047126	6.522123	0.025422	-0.017049	0.045583	-0.455078	-0.403076	-0.746826	0.807608	0.199364	-0.350502	0.430316
59256		7.266199	0.008536	6.499645	0.029753	-0.016435	0.057260	-0.453125	-0.412842	-0.755859	0.807289	0.199458	-0.350613	0.430780
59257		7.229776	-0.004388	6.449217	0.027716	-0.019500	0.077853	-0.456543	-0.408691	-0.750244	0.806924	0.199506	-0.350742	0.431336
59258		7.186727	0.109891	6.418219	0.019630	-0.036591	0.095351	-0.464111	-0.415283	-0.755127	0.806433	0.199511	-0.351068	0.431986
59259		7.188172	0.057133	6.422752	0.016299	-0.040618	0.101625	-0.460693	-0.405762	-0.751709	0.805896	0.199517	-0.351435	0.432687
59260		7.203893	0.056575	6.375789	0.009167	-0.052913	0.104367	-0.459229	-0.413330	-0.743164	0.805341	0.199467	-0.351935	0.433336
59261		7.246682	0.071551	6.478062	0.010121	-0.063504	0.095302	-0.460693	-0.407959	-0.744141	0.804770	0.199557	-0.352448	0.433939
59262		7.311858	0.137054	6.541092	-0.002393	-0.057716	0.086370	-0.467285	-0.403809	-0.752930	0.804275	0.199536	-0.352971	0.434440
59263		7.346509	0.160345	6.559578	-0.000815	-0.063785	0.079906	-0.466797	-0.404541	-0.744385	0.803790	0.199523	-0.353547	0.434876
59264		7.271296	0.107956	6.562346	-0.008551	-0.056795	0.083249	-0.468018	-0.411621	-0.744629	0.803309	0.199456	-0.354099	0.435346
59265		7.106824	0.002336	6.430675	-0.015295	-0.070064	0.086713	-0.466309	-0.408447	-0.744873	0.802782	0.199420	-0.354739	0.435813
59266		7.042257	-0.020233	6.414834	-0.024955	-0.100601	0.077420	-0.469727	-0.405762	-0.748779	0.802232	0.199439	-0.355602	0.436115
59267		7.149748	-0.041535	6.459991	-0.018860	-0.115313	0.076094	-0.469971	-0.401123	-0.750977	0.801639	0.199531	-0.356551	0.436387
59268		7.329130	-0.096771	6.554437	-0.006952	-0.113624	0.075440	-0.471436	-0.404785	-0.743896	0.801053	0.199666	-0.357454	0.436663
59269		7.455814	-0.109440	6.568596	-0.000935	-0.106918	0.075146	-0.475342	-0.400635	-0.741699	0.800456	0.199860	-0.358271	0.437000
59270		7.422575	-0.079552	6.487490	0.005614	-0.096639	0.073609	-0.483398	-0.400879	-0.740967	0.799874	0.200054	-0.359013	0.437367
59271		7.328258	-0.155746	6.328418	0.017958	-0.113100	0.077860	-0.481201	-0.408691	-0.747070	0.799179	0.200388	-0.359842	0.437801
59272		7.266627	-0.171499	6.272360	0.025866	-0.139122	0.090826	-0.479492	-0.399658	-0.738525	0.798375	0.200845	-0.360792	0.438279
59273		7.336821	-0.127110	6.359445	0.030293	-0.140437	0.099626	-0.492676	-0.399170	-0.745605	0.797529	0.201281	-0.361771	0.438811
59274		7.399878	-0.032254	6.354749	0.037797	-0.123296	0.102828	-0.491211	-0.395508	-0.746826	0.796691	0.201680	-0.362647	0.439427
59275		7.475141	-0.001885	6.472290	0.045248	-0.119810	0.102968	-0.491211	-0.397705	-0.728760	0.795874	0.202084	-0.363475	0.440037
59276		7.468464	-0.016719	6.489005	0.046685	-0.095230	0.104046	-0.478516	-0.398438	-0.735596	0.795080	0.202472	-0.364118	0.440761
59277		7.429961	-0.061861	6.446652	0.059611	-0.091506	0.108329	-0.490723	-0.398926	-0.731689	0.794340	0.202876	-0.364648	0.441471
59278		7.422913	-0.028762	6.384389	0.060914	-0.093533	0.114441	-0.496338	-0.402588	-0.726562	0.793517	0.203304	-0.365225	0.442277
59279		7.442973	-0.007800	6.391910	0.062270	-0.098468	0.113574	-0.497070	-0.402588	-0.731689	0.792648	0.203800	-0.365822	0.443113
59280		7.441179	-0.001948	6.411330	0.056491	-0.091711	0.105160	-0.491211	-0.391357	-0.731445	0.791863	0.204235	-0.366377	0.443857
59281		7.452578	-0.031882	6.411246	0.055944	-0.079574	0.103832	-0.504883	-0.397949	-0.735107	0.791164	0.204554	-0.366876	0.444544
59282		7.435169	-0.009759	6.429063	0.055096	-0.063027	0.094297	-0.503906	-0.399414	-0.728760	0.790512	0.204870	-0.367258	0.445243
59283		7.464682	-0.001914	6.445747	0.051001	-0.051761	0.084012	-0.504639	-0.405273	-0.715088	0.789930	0.205173	-0.367549	0.445896
59284		7.484736	0.043260	6.424275	0.043178	-0.040247	0.079180	-0.499512	-0.398926	-0.724365	0.789371	0.205469	-0.367758	0.446576
59285		7.446612	0.033263	6.337318	0.036777	-0.031940	0.074794	-0.507080	-0.393555	-0.719727	0.788924	0.205631	-0.367938	0.447142
59286		7.426276	-0.004167	6.247903	0.023333	-0.044019	0.061896	-0.501953	-0.396973	-0.717041	0.788480	0.205784	-0.368266	0.447586
59287		7.446693	0.007463	6.253664	0.012067	-0.060887	0.045260	-0.497314	-0.394531	-0.728516	0.788077	0.205996	-0.368684	0.447852
59288		7.528523	0.043377	6.257602	0.001441	-0.050468	0.034382	-0.513672	-0.401123	-0.724609	0.787825	0.206072	-0.369049	0.447960
59289		7.515723	0.012806	6.257335	-0.000266	-0.037691	0.019715	-0.506104	-0.400879	-0.723633	0.787594	0.206201	-0.369328	0.448077
59290		7.534248	-0.061126	6.296342	0.007263	-0.030540	0.015349	-0.510254	-0.399902	-0.725586	0.787418	0.206358	-0.369501	0.448173
59291		7.560879	-0.070482	6.291736	0.012316	-0.018432	0.025253	-0.507324	-0.401367	-0.722900	0.787227	0.206463	-0.369607	0.448372
59292		7.522558	-0.099683	6.217730	0.020658	-0.020045	0.028419	-0.511230	-0.390381	-0.721924	0.787008	0.206631	-0.369683	0.448615
59293		7.507146	-0.107344	6.245176	0.034061	-0.028947	0.039710	-0.508301	-0.397217	-0.722168	0.786694	0.206836	-0.369841	0.448942
59294		7.491870	-0.115071	6.272497	0.046531	-0.022778	0.051880	-0.513428	-0.403320	-0.721191	0.786340	0.207089	-0.369896	0.449401
59295		7.462271	-0.086805	6.321436	0.052396	-0.012663	0.063234	-0.514160	-0.395996	-0.717529	0.785940	0.207344	-0.369871	0.450002
59296		7.454685	-0.140403	6.311952	0.065615	-0.008082	0.071227	-0.507324	-0.393066	-0.725342	0.785500	0.207617	-0.369810	0.450695
59297		7.444791	-0.170819	6.292049	0.071899	-0.010031	0.075307	-0.521973	-0.393066	-0.715820	0.785079	0.207873	-0.369735	0.451371
59298		7.476509	-0.106978	6.286693	0.071433	-0.012980	0.086234	-0.505615	-0.399414	-0.723389	0.784533	0.208150	-0.369740	0.452188
59299		7.505455	-0.012427	6.348756	0.073091	-0.010635	0.088668	-0.512939	-0.396729	-0.727539	0.784060	0.208402	-0.369655	0.452960
59300		7.460290	0.010534	6.333770	0.060969	0.003005	0.086163	-0.520508	-0.401855	-0.723877	0.783651	0.208510	-0.369551	0.453703
59301		7.423584	0.063207	6.302626	0.044208	0.003511	0.074444	-0.520752	-0.401611	-0.718262	0.783278	0.208589	-0.369486	0.454364
59302		7.476501	0.085307	6.289218	0.030788	-0.005008	0.055593	-0.520264	-0.401123	-0.719727	0.782959	0.208686	-0.369495	0.454861
59303		7.450735	0.155301	6.329383	0.019072	-0.001301	0.041536	-0.515381	-0.395020	-0.717773	0.782734	0.208727	-0.369499	0.455226
59304		7.444934	0.144898	6.275337	0.003118	0.000954	0.026880	-0.523438	-0.396484	-0.716064	0.782618	0.208670	-0.369531	0.455426
59305		7.475175	0.077426	6.253091	-0.012015	0.001208	0.013650	-0.521484	-0.395264	-0.714600	0.782545	0.208578	-0.369611	0.455528
59306		7.529556	0.002003	6.229063	-0.017639	-0.003184	0.005789	-0.516113	-0.393555	-0.715820	0.782503	0.208488	-0.369726	0.455549
59307		7.565013	-0.043966	6.171246	-0.029435	0.000349	-0.000981	-0.524170	-0.393066	-0.707520	0.782542	0.208310	-0.369841	0.455470
59308		7.560660	-0.110462	6.155980	-0.032163	-0.007884	-0.004077	-0.514893	-0.402832	-0.717773	0.782521	0.208193	-0.370038	0.455400
59309		7.573802	-0.182866	6.163053	-0.026960	-0.006672	-0.009503	-0.511475	-0.397705	-0.722412	0.782567	0.208126	-0.370135	0.455271
59310		7.582510	-0.221255	6.201832	-0.019362	-0.008491	-0.003580	-0.516113	-0.395020	-0.720459	0.782601	0.208054	-0.370233	0.455166
59311		7.589431	-0.258015	6.204886	-0.008255	-0.005666	0.007012	-0.513428	-0.396484	-0.723389	0.782565	0.208010	-0.370311	0.455185
59312		7.529077	-0.248771	6.177838	0.005523	-0.002338	0.014059	-0.520264	-0.398682	-0.716797	0.782505	0.208016	-0.370313	0.455285
59313		7.473257	-0.251354	6.143787	0.023886	-0.010238	0.027355	-0.518066	-0.396240	-0.719971	0.782296	0.208172	-0.370332	0.455557
59314		7.497635	-0.252296	6.218994	0.031542	-0.017784	0.043378	-0.516846	-0.398926	-0.719971	0.782009	0.208330	-0.370400	0.455922
59315		7.470659	-0.234311	6.225658	0.034800	-0.011141	0.051245	-0.518311	-0.392090	-0.716064	0.781711	0.208468	-0.370413	0.456358
59316		7.411347	-0.248086	6.172432	0.031668	-0.019131	0.058803	-0.521729	-0.398193	-0.715332	0.781358	0.208573	-0.370528	0.456822
59317		7.416276	-0.220730	6.176676	0.031762	-0.033163	0.066330	-0.522461	-0.393066	-0.726562	0.780917	0.208743	-0.370735	0.457329
59318		7.474191	-0.158783	6.244937	0.034660	-0.033454	0.065206	-0.525146	-0.393066	-0.713867	0.780507	0.208875	-0.370941	0.457802
59319		7.501497	-0.129071	6.289192	0.030251	-0.032715	0.060513	-0.517090	-0.391602	-0.720703	0.780088	0.209031	-0.371159	0.458268
59320		7.518469	-0.115091	6.261237	0.030859	-0.033749	0.052287	-0.519287	-0.392334	-0.719971	0.779745	0.209180	-0.371346	0.458633
59321		7.523281	-0.162580	6.243275	0.021053	-0.029863	0.044688	-0.520020	-0.395752	-0.713867	0.779453	0.209280	-0.371532	0.458932
59322		7.530873	-0.135562	6.282536	0.016320	-0.031499	0.037866	-0.523438	-0.395020	-0.714355	0.779175	0.209413	-0.371727	0.459185
59323		7.566757	-0.138574	6.235489	0.004428	-0.022771	0.033966	-0.526123	-0.398682	-0.712402	0.778953	0.209444	-0.371913	0.459398
59324		7.598390	-0.185101	6.235681	0.010944	-0.014532	0.025803	-0.528564	-0.400146	-0.715576	0.778763	0.209538	-0.372001	0.459606
59325		7.618965	-0.183071	6.239677	0.017702	-0.004083	0.027081	-0.524658	-0.396973	-0.715088	0.778590	0.209630	-0.371996	0.459861
59326		7.646726	-0.204935	6.231650	0.020278	0.008465	0.021807	-0.524414	-0.400146	-0.714600	0.778485	0.209689	-0.371891	0.460097
59327		7.606389	-0.213010	6.222547	0.017583	0.008725	0.013985	-0.520508	-0.398682	-0.715332	0.778416	0.209768	-0.371771	0.460275
59328		7.575379	-0.190340	6.196433	0.013136	0.011615	0.005051	-0.514648	-0.397217	-0.718018	0.778413	0.209820	-0.371628	0.460371
59329		7.591169	-0.217191	6.195808	0.009568	0.010710	-0.003946	-0.523193	-0.392090	-0.712646	0.778473	0.209857	-0.371478	0.460373
59330		7.574209	-0.232135	6.185764	0.010756	0.017619	0.000696	-0.520752	-0.391357	-0.712891	0.778494	0.209864	-0.371325	0.460459
59331		7.543734	-0.231395	6.171972	0.016590	0.025324	0.000949	-0.522705	-0.391846	-0.713379	0.778534	0.209871	-0.371097	0.460571
59332		7.511375	-0.186751	6.172604	0.018168	0.025916	0.010790	-0.524414	-0.396484	-0.709717	0.778529	0.209859	-0.370880	0.460760
59333		7.497635	-0.171951	6.207128	0.026366	0.027620	0.015416	-0.524414	-0.394043	-0.711426	0.778483	0.209914	-0.370625	0.461018
59334		7.467979	-0.194532	6.205187	0.032186	0.030009	0.020154	-0.525391	-0.387939	-0.712158	0.778418	0.209965	-0.370346	0.461328
59335		7.459727	-0.236404	6.219228	0.036948	0.024551	0.029994	-0.524658	-0.394287	-0.709229	0.778287	0.210009	-0.370118	0.461713
59336		7.428945	-0.258705	6.180645	0.041127	0.018730	0.040917	-0.524658	-0.391846	-0.724609	0.778085	0.210104	-0.369917	0.462171
59337		7.423200	-0.226429	6.214172	0.041042	0.011485	0.051265	-0.522461	-0.400146	-0.704834	0.777854	0.210134	-0.369776	0.462659
59338		7.458947	-0.153597	6.228084	0.049502	-0.000885	0.054501	-0.524414	-0.405029	-0.716309	0.777525	0.210353	-0.369677	0.463191
59339		7.543178	-0.174849	6.253398	0.055157	0.002079	0.055239	-0.518555	-0.402832	-0.706787	0.777214	0.210580	-0.369523	0.463732
59340		7.542707	-0.231673	6.294227	0.065445	0.010429	0.058538	-0.526855	-0.395996	-0.705811	0.776899	0.210841	-0.369279	0.464335
59341		7.494610	-0.259048	6.285493	0.078585	0.016534	0.066552	-0.523193	-0.398926	-0.710205	0.776517	0.211119	-0.368993	0.465076
59342		7.440521	-0.195147	6.232491	0.085954	0.013150	0.072820	-0.525146	-0.406738	-0.712646	0.776110	0.211429	-0.368692	0.465850
59343		7.395092	-0.145559	6.243201	0.090173	-0.002100	0.068350	-0.519775	-0.407959	-0.709717	0.775670	0.211865	-0.368452	0.466575
59344		7.421384	-0.132231	6.301730	0.099499	-0.009805	0.066893	-0.519531	-0.394775	-0.702881	0.775210	0.212398	-0.368210	0.467288
59345		7.509672	-0.239782	6.335927	0.109669	0.001939	0.071645	-0.531250	-0.396973	-0.706299	0.774733	0.212892	-0.367891	0.468105
59346		7.469944	-0.199793	6.208326	0.112465	0.011252	0.078780	-0.524902	-0.406982	-0.715332	0.774221	0.213354	-0.367531	0.469022
59347		7.402284	-0.073989	6.125795	0.102893	-0.003275	0.085583	-0.531006	-0.396484	-0.704590	0.773702	0.213792	-0.367274	0.469881
59348		7.436957	0.034087	6.167672	0.088950	-0.016556	0.083467	-0.516846	-0.403564	-0.707764	0.773129	0.214188	-0.367193	0.470706
59349		7.577120	0.079892	6.226145	0.067712	-0.012820	0.073073	-0.525391	-0.405518	-0.711182	0.772709	0.214463	-0.367105	0.471339
59350		7.602773	0.024393	6.210362	0.054626	-0.008664	0.061763	-0.533447	-0.397949	-0.706055	0.772351	0.214678	-0.367032	0.471884
59351		7.612137	0.019395	6.220788	0.041073	-0.007966	0.044392	-0.532715	-0.397949	-0.706299	0.772047	0.214845	-0.367010	0.472323
59352		7.584715	-0.003728	6.178142	0.023029	-0.017870	0.021571	-0.529053	-0.401367	-0.707764	0.771839	0.215002	-0.367078	0.472537
59353		7.571822	-0.031712	6.253486	0.004107	-0.024268	0.004499	-0.534668	-0.409668	-0.707764	0.771734	0.215118	-0.367217	0.472549
59354		7.541385	-0.141580	6.244283	-0.014860	-0.015515	-0.007334	-0.536621	-0.400879	-0.703369	0.771725	0.215155	-0.367351	0.472442
59355		7.476532	-0.139318	6.161484	-0.025058	-0.020670	-0.010915	-0.526367	-0.403076	-0.707764	0.771711	0.215136	-0.367573	0.472302
59356		7.478385	-0.096591	6.171399	-0.033403	-0.027400	-0.009398	-0.524414	-0.403076	-0.709961	0.771732	0.215069	-0.367844	0.472087
59357		7.462513	-0.124987	6.174472	-0.035362	-0.024006	-0.012961	-0.523926	-0.397949	-0.708008	0.771793	0.214978	-0.368088	0.471839
59358		7.547873	-0.080226	6.197618	-0.040014	-0.034059	-0.022427	-0.530762	-0.398193	-0.710693	0.771862	0.214911	-0.368404	0.471509
59359		7.638523	-0.025016	6.237796	-0.044845	-0.038078	-0.038850	-0.531006	-0.407471	-0.704590	0.771974	0.214881	-0.368746	0.471072
59360		7.656606	-0.018663	6.299194	-0.048120	-0.021971	-0.055983	-0.533936	-0.400879	-0.693359	0.772208	0.214877	-0.368962	0.470520
59361		7.637005	-0.074233	6.296315	-0.057018	-0.017675	-0.072249	-0.528809	-0.402100	-0.707275	0.772496	0.214860	-0.369181	0.469883
59362		7.580715	-0.104219	6.290556	-0.061990	-0.011499	-0.084546	-0.532471	-0.402100	-0.712646	0.772903	0.214782	-0.369332	0.469130
59363		7.533417	-0.104694	6.268174	-0.075619	0.000132	-0.088063	-0.525146	-0.399414	-0.706787	0.773378	0.214570	-0.369457	0.468346
59364		7.466698	-0.098386	6.187603	-0.083927	-0.003127	-0.092464	-0.533203	-0.400146	-0.708252	0.773883	0.214331	-0.369624	0.467488
59365		7.417052	-0.110387	6.182693	-0.089559	-0.013355	-0.091663	-0.526123	-0.404541	-0.710938	0.774335	0.214105	-0.369894	0.466630
59366		7.503680	-0.106544	6.230113	-0.089516	-0.016933	-0.094542	-0.532715	-0.402832	-0.705811	0.774820	0.213905	-0.370163	0.465702
59367		7.573830	-0.129649	6.319662	-0.082257	-0.009491	-0.095600	-0.527588	-0.398926	-0.705566	0.775281	0.213745	-0.370374	0.464839
59368		7.570436	-0.113879	6.325507	-0.079971	-0.000230	-0.093161	-0.526123	-0.402832	-0.706055	0.775767	0.213538	-0.370515	0.464011
59369		7.501957	-0.130318	6.352661	-0.077081	0.006013	-0.093156	-0.526855	-0.400146	-0.708252	0.776275	0.213339	-0.370599	0.463185
59370		7.465957	-0.027306	6.371294	-0.080964	0.014765	-0.084914	-0.529053	-0.395508	-0.710449	0.776778	0.213043	-0.370658	0.462430
59371		7.427588	-0.001427	6.370210	-0.082062	0.018799	-0.083100	-0.522705	-0.402588	-0.706543	0.777273	0.212698	-0.370705	0.461719
59372		7.423739	-0.044165	6.455239	-0.068613	0.026430	-0.084283	-0.525635	-0.403076	-0.707520	0.777795	0.212452	-0.370638	0.461006
59373		7.408824	-0.069268	6.440926	-0.062090	0.042433	-0.085743	-0.524658	-0.400879	-0.713623	0.778347	0.212196	-0.370446	0.460346
59374		7.416364	-0.024467	6.411017	-0.056916	0.039886	-0.086775	-0.522217	-0.397949	-0.718262	0.778891	0.211961	-0.370242	0.459698
59375		7.374781	0.081766	6.397716	-0.055063	0.033692	-0.088590	-0.520020	-0.401611	-0.716064	0.779425	0.211743	-0.370063	0.459038
59376		7.321319	0.105446	6.369327	-0.052632	0.034777	-0.096067	-0.515137	-0.402344	-0.711914	0.779990	0.211580	-0.369853	0.458320
59377		7.373679	0.063328	6.241927	-0.049332	0.018633	-0.100106	-0.520264	-0.402588	-0.718018	0.780522	0.211524	-0.369726	0.457542
59378		7.430432	-0.005612	6.290723	-0.048595	-0.001748	-0.096313	-0.517578	-0.403564	-0.713623	0.780962	0.211529	-0.369740	0.456778
59379		7.458161	-0.019069	6.283085	-0.049220	0.012928	-0.098767	-0.519043	-0.405273	-0.719971	0.781459	0.211495	-0.369657	0.456011
59380		7.463937	0.019227	6.232066	-0.058068	0.016990	-0.095423	-0.517090	-0.402100	-0.717773	0.781972	0.211369	-0.369583	0.455248
59381		7.458959	0.049328	6.186894	-0.062602	0.006062	-0.095077	-0.516602	-0.402588	-0.711670	0.782453	0.211247	-0.369600	0.454464
59382		7.429910	0.052789	6.171250	-0.069603	0.008678	-0.085121	-0.517090	-0.407715	-0.705811	0.782907	0.211059	-0.369652	0.453727
59383		7.407908	0.052562	6.130950	-0.082292	0.001747	-0.076947	-0.509033	-0.405518	-0.717285	0.783324	0.210829	-0.369819	0.452977
59384		7.430221	0.001403	6.174020	-0.076286	-0.022555	-0.072624	-0.516113	-0.406250	-0.717285	0.783679	0.210669	-0.370104	0.452205
59385		7.532024	-0.054790	6.211932	-0.079880	-0.011561	-0.062297	-0.510742	-0.406006	-0.716553	0.784010	0.210425	-0.370361	0.451534
59386		7.567831	-0.034893	6.227932	-0.084266	-0.008062	-0.061527	-0.513672	-0.400391	-0.714111	0.784372	0.210134	-0.370605	0.450840
59387		7.555457	0.033967	6.219389	-0.094550	-0.006965	-0.065396	-0.511719	-0.401367	-0.711670	0.784746	0.209775	-0.370885	0.450126
59388		7.577824	0.090063	6.256096	-0.112922	-0.015472	-0.090921	-0.516602	-0.405029	-0.713623	0.785224	0.209418	-0.371244	0.449160
59389		7.597337	0.117728	6.248171	-0.121879	-0.028384	-0.109466	-0.517090	-0.398682	-0.718994	0.785737	0.209127	-0.371695	0.448024
59390		7.602080	0.096467	6.255624	-0.130032	-0.023897	-0.124776	-0.513916	-0.397949	-0.720459	0.786329	0.208777	-0.372117	0.446798
59391		7.597186	0.065897	6.305706	-0.145106	-0.015081	-0.137520	-0.512451	-0.397705	-0.719971	0.787029	0.208328	-0.372509	0.445446
59392		7.523516	0.058762	6.302497	-0.166640	0.003377	-0.147450	-0.509033	-0.392090	-0.720703	0.787860	0.207703	-0.372842	0.443988
59393		7.488542	0.052360	6.232710	-0.182399	0.008483	-0.160304	-0.507812	-0.400879	-0.728760	0.788779	0.206975	-0.373174	0.442415
59394		7.452618	-0.005774	6.129275	-0.187482	0.003439	-0.169558	-0.509277	-0.397461	-0.720947	0.789745	0.206279	-0.373528	0.440714
59395		7.432283	0.011921	6.149740	-0.196336	0.000199	-0.173359	-0.506104	-0.392090	-0.726074	0.790702	0.205564	-0.373945	0.438975
59396		7.435843	-0.010181	6.158710	-0.204446	-0.019314	-0.174721	-0.494141	-0.399414	-0.729492	0.791619	0.204840	-0.374509	0.437177
59397		7.569364	-0.045692	6.271789	-0.205152	-0.029813	-0.178944	-0.510986	-0.385986	-0.731445	0.792566	0.204178	-0.375109	0.435251
59398		7.669178	-0.070670	6.376412	-0.205473	-0.000107	-0.174851	-0.502930	-0.393799	-0.722168	0.793513	0.203358	-0.375556	0.433520
59399		7.572954	-0.067409	6.280750	-0.199525	0.020379	-0.170344	-0.494141	-0.389893	-0.735352	0.794516	0.202544	-0.375848	0.431808
59400		7.474328	-0.075024	6.202767	-0.181918	0.008786	-0.163842	-0.503174	-0.398926	-0.727051	0.795461	0.201817	-0.376136	0.430155
59401		7.431503	-0.105018	6.226344	-0.156882	-0.003092	-0.158095	-0.500488	-0.394287	-0.729980	0.796271	0.201354	-0.376448	0.428597
59402		7.456902	-0.124017	6.275953	-0.152458	-0.010684	-0.147313	-0.489258	-0.396484	-0.729736	0.797011	0.200889	-0.376807	0.427122
59403		7.485038	-0.100326	6.317452	-0.143419	-0.002964	-0.141811	-0.502197	-0.393311	-0.740723	0.797773	0.200442	-0.377069	0.425677
59404		7.492594	-0.030619	6.389609	-0.147373	0.001768	-0.137884	-0.499268	-0.389160	-0.739746	0.798505	0.199917	-0.377335	0.424312
59405		7.438636	0.042493	6.358513	-0.151646	0.011963	-0.138110	-0.494629	-0.389404	-0.742676	0.799275	0.199316	-0.377548	0.422955
59406		7.406514	0.112278	6.290334	-0.155636	0.006001	-0.140646	-0.489258	-0.385986	-0.733887	0.800053	0.198713	-0.377798	0.421542
59407		7.437608	0.122812	6.326668	-0.160602	0.005244	-0.144652	-0.493408	-0.385254	-0.738770	0.800846	0.198101	-0.378068	0.420080
59408		7.503094	0.134950	6.355882	-0.168721	0.015769	-0.147974	-0.496094	-0.388184	-0.737305	0.801684	0.197403	-0.378295	0.418603
59409		7.510332	0.081277	6.334285	-0.182413	0.027384	-0.158469	-0.492188	-0.389893	-0.744385	0.802604	0.196631	-0.378483	0.417029
59410		7.480326	0.045175	6.347880	-0.185121	0.037019	-0.164695	-0.487061	-0.385986	-0.735840	0.803596	0.195819	-0.378588	0.415403
59411		7.473447	0.019135	6.308176	-0.183792	0.050205	-0.165670	-0.488037	-0.391357	-0.739746	0.804621	0.194982	-0.378605	0.413794
59412		7.495665	-0.041333	6.312168	-0.190690	0.058907	-0.158231	-0.489258	-0.381348	-0.742920	0.805658	0.194066	-0.378595	0.412213
59413		7.519224	-0.138434	6.342623	-0.189207	0.068424	-0.151962	-0.488037	-0.382080	-0.749023	0.806681	0.193069	-0.378536	0.410732
59414		7.508141	-0.163861	6.385182	-0.182953	0.086286	-0.146527	-0.482422	-0.383789	-0.742432	0.807733	0.192033	-0.378337	0.409331
59415		7.465219	-0.106989	6.344692	-0.168520	0.091856	-0.140754	-0.480957	-0.381592	-0.741211	0.808760	0.191084	-0.378058	0.408003
59416		7.482304	-0.116662	6.389124	-0.136511	0.088732	-0.134855	-0.479980	-0.381104	-0.750488	0.809696	0.190344	-0.377706	0.406816
59417		7.493372	-0.096171	6.389794	-0.113822	0.098705	-0.125735	-0.488037	-0.378906	-0.757324	0.810601	0.189677	-0.377215	0.405781
59418		7.432987	-0.138299	6.349917	-0.105129	0.099756	-0.117474	-0.475830	-0.380371	-0.756592	0.811443	0.189028	-0.376721	0.404858
59419		7.334709	-0.111413	6.265192	-0.099646	0.074822	-0.116934	-0.472900	-0.375488	-0.761963	0.812220	0.188500	-0.376350	0.403889
59420		7.383757	-0.086713	6.255260	-0.097907	0.057490	-0.114432	-0.478760	-0.374268	-0.764160	0.812935	0.188006	-0.376090	0.402923
59421		7.405578	0.059127	6.189892	-0.101966	0.051838	-0.112402	-0.478271	-0.374268	-0.757080	0.813612	0.187496	-0.375906	0.401964
59422		7.362144	0.086341	6.080329	-0.107580	0.046290	-0.108960	-0.466553	-0.367676	-0.762207	0.814259	0.186977	-0.375796	0.400999
59423		7.361573	0.113449	6.051994	-0.114468	0.024170	-0.107438	-0.472656	-0.373047	-0.759033	0.814867	0.186436	-0.375834	0.399977
59424		7.479801	0.044015	6.129476	-0.112045	0.012939	-0.100860	-0.468018	-0.375488	-0.764404	0.815395	0.185969	-0.375968	0.398992
59425		7.513308	-0.045387	6.171449	-0.122829	0.021571	-0.083411	-0.463135	-0.376953	-0.760498	0.815924	0.185342	-0.376083	0.398093
59426		7.548493	-0.117011	6.295631	-0.116612	0.027516	-0.065088	-0.464600	-0.365234	-0.761719	0.816404	0.184697	-0.376155	0.397340
59427		7.578791	-0.179800	6.350778	-0.117342	0.054692	-0.054838	-0.472900	-0.374268	-0.763672	0.816928	0.183883	-0.376085	0.396707
59428		7.495497	-0.183692	6.245862	-0.111783	0.053543	-0.047669	-0.470215	-0.358887	-0.758545	0.817397	0.183135	-0.376026	0.396142
59429		7.353199	-0.179719	6.111826	-0.104657	0.014687	-0.049917	-0.452637	-0.367920	-0.770996	0.817735	0.182526	-0.376234	0.395527
59430		7.340413	-0.199721	6.096943	-0.083315	-0.022788	-0.046463	-0.461670	-0.360596	-0.767822	0.817964	0.182170	-0.376542	0.394923
59431		7.344070	-0.158402	6.087709	-0.067946	-0.038410	-0.041343	-0.457275	-0.369385	-0.769043	0.818080	0.181945	-0.376962	0.394387
59432		7.438110	-0.183904	6.177057	-0.044514	-0.055478	-0.024758	-0.464844	-0.368408	-0.768066	0.818062	0.181914	-0.377410	0.394009
59433		7.559955	-0.207944	6.283626	-0.027817	-0.036218	-0.003553	-0.462646	-0.368408	-0.760498	0.817994	0.181874	-0.377730	0.393862
59434		7.634108	-0.209341	6.301674	-0.021152	-0.013370	0.015452	-0.475586	-0.373047	-0.767578	0.817922	0.181760	-0.377901	0.393902
59435		7.590217	-0.183894	6.307336	-0.021212	-0.006543	0.032357	-0.474609	-0.376709	-0.766357	0.817797	0.181586	-0.378075	0.394074
59436		7.472480	-0.156139	6.257141	-0.026134	-0.001515	0.036570	-0.468994	-0.367432	-0.765137	0.817681	0.181367	-0.378225	0.394270
59437		7.359753	-0.152511	6.214131	-0.028295	-0.022179	0.036617	-0.467773	-0.362305	-0.750000	0.817516	0.181162	-0.378524	0.394420
59438		7.377213	-0.174531	6.213395	-0.029171	-0.038070	0.036748	-0.472168	-0.376221	-0.760742	0.817288	0.181020	-0.378957	0.394541
59439		7.341449	-0.249096	6.217209	-0.028140	-0.047314	0.032751	-0.466797	-0.365967	-0.761475	0.817042	0.180964	-0.379407	0.394644
59440		7.324814	-0.243601	6.232421	-0.027672	-0.049834	0.034993	-0.469971	-0.367676	-0.764160	0.816797	0.180864	-0.379876	0.394747
59441		7.371885	-0.233069	6.256638	-0.023943	-0.063282	0.040911	-0.467529	-0.353760	-0.762207	0.816482	0.180820	-0.380432	0.394884
59442		7.497540	-0.207075	6.339663	-0.017881	-0.057753	0.045231	-0.471191	-0.360352	-0.766602	0.816173	0.180730	-0.380962	0.395052
59443		7.502931	-0.215249	6.333009	-0.018728	-0.047669	0.054631	-0.467773	-0.369629	-0.761475	0.815863	0.180592	-0.381425	0.395310
59444		7.507893	-0.297770	6.320929	-0.000941	-0.045959	0.058048	-0.463623	-0.366211	-0.763916	0.815514	0.180607	-0.381782	0.395679
59445		7.548106	-0.350619	6.348801	0.011092	-0.037349	0.061312	-0.472412	-0.362061	-0.763672	0.815176	0.180640	-0.382030	0.396120
59446		7.585661	-0.353494	6.338042	0.021154	-0.019031	0.067424	-0.469238	-0.360596	-0.763916	0.814851	0.180654	-0.382173	0.396645
59447		7.554775	-0.392741	6.253221	0.035943	-0.017346	0.070536	-0.474609	-0.368652	-0.762451	0.814505	0.180742	-0.382247	0.397242
59448		7.506121	-0.355297	6.266873	0.052186	-0.017164	0.075434	-0.477295	-0.365967	-0.756836	0.814104	0.180964	-0.382269	0.397941
59449		7.447145	-0.343981	6.337805	0.071213	-0.009141	0.078913	-0.473633	-0.362793	-0.760254	0.813681	0.181280	-0.382203	0.398726
59450		7.438195	-0.310544	6.337176	0.095472	-0.008607	0.082021	-0.485352	-0.356201	-0.759521	0.813225	0.181721	-0.382043	0.399607
59451		7.420696	-0.272078	6.325232	0.107112	-0.012999	0.089858	-0.477783	-0.370361	-0.761475	0.812702	0.182211	-0.381958	0.400528
59452		7.467064	-0.203836	6.369708	0.107329	0.001042	0.094060	-0.476562	-0.364502	-0.750732	0.812209	0.182683	-0.381698	0.401560
59453		7.473266	-0.098196	6.362880	0.093084	0.011130	0.100566	-0.480225	-0.361572	-0.758057	0.811744	0.183000	-0.381454	0.402587
59454		7.443598	-0.121588	6.399793	0.077372	0.021238	0.106892	-0.478271	-0.369873	-0.766357	0.811321	0.183126	-0.381218	0.403603
59455		7.398867	-0.157482	6.309915	0.071177	0.033269	0.111493	-0.468994	-0.368652	-0.756104	0.810932	0.183166	-0.380878	0.404686
59456		7.417963	-0.133782	6.286980	0.065668	0.026040	0.113364	-0.479736	-0.366943	-0.758545	0.810522	0.183197	-0.380583	0.405770
59457		7.439170	-0.147148	6.288672	0.061360	0.033000	0.113432	-0.486328	-0.362305	-0.749512	0.810133	0.183171	-0.380304	0.406819
59458		7.456688	-0.204174	6.375113	0.060673	0.029490	0.116280	-0.482178	-0.355713	-0.762451	0.809713	0.183151	-0.380112	0.407842
59459		7.468899	-0.245338	6.355348	0.055786	0.033428	0.110416	-0.475830	-0.373291	-0.757080	0.809358	0.183042	-0.379885	0.408805
59460		7.404389	-0.225361	6.281181	0.063104	0.023454	0.097578	-0.484619	-0.371582	-0.758789	0.808982	0.183135	-0.379593	0.409779
59461		7.451921	-0.210684	6.289305	0.082473	-0.002317	0.089688	-0.480225	-0.359131	-0.752441	0.808516	0.183467	-0.379439	0.410691
59462		7.511586	-0.215951	6.279810	0.093717	-0.005570	0.083605	-0.479980	-0.366211	-0.752441	0.808059	0.183862	-0.379291	0.411550
59463		7.483848	-0.199885	6.210863	0.085156	0.000226	0.072887	-0.479248	-0.369141	-0.750244	0.807661	0.184238	-0.379087	0.412351
59464		7.515845	-0.142359	6.205178	0.084998	-0.009616	0.060797	-0.481934	-0.374268	-0.747070	0.807269	0.184697	-0.378919	0.413068
59465		7.544528	-0.078034	6.242480	0.067250	-0.002820	0.046755	-0.482666	-0.364258	-0.751953	0.806962	0.185083	-0.378740	0.413657
59466		7.544474	-0.015871	6.263670	0.043829	0.007553	0.044356	-0.482910	-0.372559	-0.747070	0.806753	0.185228	-0.378604	0.414124
59467		7.534715	0.003820	6.202149	0.029941	0.018157	0.040314	-0.484375	-0.364258	-0.746826	0.806596	0.185300	-0.378414	0.414572
59468		7.495288	-0.075447	6.207772	0.025103	0.023328	0.044506	-0.479492	-0.364258	-0.752930	0.806460	0.185275	-0.378252	0.414994
59469		7.421408	-0.123094	6.116675	0.023428	0.017344	0.049384	-0.478516	-0.366699	-0.755127	0.806301	0.185227	-0.378112	0.415453
59470		7.392144	-0.176351	6.142090	0.030350	-0.005084	0.056828	-0.486572	-0.371338	-0.748779	0.806032	0.185283	-0.378092	0.415967
59471		7.488210	-0.252548	6.253567	0.053064	-0.016368	0.069088	-0.485352	-0.367432	-0.749512	0.805632	0.185532	-0.378115	0.416610
59472		7.569751	-0.313139	6.362456	0.073492	0.004377	0.083444	-0.488770	-0.368652	-0.754639	0.805224	0.185779	-0.377955	0.417432
59473		7.574800	-0.362608	6.381379	0.101922	0.011286	0.099774	-0.492188	-0.374023	-0.749023	0.804739	0.186135	-0.377678	0.418459
59474		7.505926	-0.344258	6.365910	0.106114	0.027516	0.112467	-0.479248	-0.366211	-0.745361	0.804238	0.186456	-0.377298	0.419622
59475		7.418905	-0.266047	6.250841	0.108799	0.018212	0.116573	-0.480957	-0.364746	-0.759277	0.803705	0.186777	-0.376948	0.420813
59476		7.418810	-0.175409	6.282856	0.106768	0.002467	0.111069	-0.492676	-0.362549	-0.745117	0.803160	0.187116	-0.376696	0.421925
59477		7.451062	-0.076014	6.349941	0.098024	0.008618	0.105074	-0.485840	-0.374268	-0.750244	0.802656	0.187425	-0.376509	0.422915
59478		7.448318	0.038631	6.372785	0.083941	0.018995	0.090031	-0.485596	-0.369141	-0.743408	0.802245	0.187674	-0.376186	0.423869
59479		7.419639	0.098532	6.377966	0.073744	0.019955	0.071363	-0.488525	-0.371338	-0.748047	0.801923	0.187903	-0.375891	0.424638
59480		7.416315	0.102677	6.344604	0.065098	0.017697	0.052948	-0.487549	-0.366943	-0.741699	0.801673	0.188139	-0.375613	0.425252
59481		7.398956	0.091412	6.297447	0.042319	0.014679	0.033270	-0.486816	-0.368652	-0.749023	0.801522	0.188288	-0.375427	0.425634
59482		7.401773	0.017595	6.271022	0.021275	0.001467	0.019610	-0.487061	-0.370605	-0.748291	0.801416	0.188374	-0.375364	0.425851
59483		7.443320	-0.093254	6.183458	0.005516	0.000285	0.005616	-0.490234	-0.375244	-0.750488	0.801377	0.188411	-0.375336	0.425933
59484		7.508076	-0.176452	6.182336	0.000611	-0.005429	-0.007928	-0.490479	-0.370117	-0.746826	0.801369	0.188494	-0.375336	0.425913
59485		7.587710	-0.263591	6.282694	0.002656	0.002786	-0.010706	-0.494141	-0.364014	-0.744629	0.801399	0.188558	-0.375297	0.425861
59486		7.594627	-0.296722	6.285359	0.010608	0.016617	-0.007466	-0.492920	-0.369629	-0.746338	0.801457	0.188600	-0.375191	0.425825
59487		7.526283	-0.304691	6.258789	0.023210	0.017030	0.002337	-0.487549	-0.372803	-0.746582	0.801454	0.188711	-0.375023	0.425932
59488		7.485148	-0.328057	6.301513	0.046642	0.014015	0.019685	-0.489258	-0.370361	-0.747314	0.801339	0.188940	-0.374780	0.426261
59489		7.462922	-0.331640	6.412536	0.061948	0.020871	0.031280	-0.491455	-0.364258	-0.751221	0.801185	0.189199	-0.374475	0.426701
59490		7.356001	-0.352257	6.411288	0.078184	0.031907	0.042331	-0.482422	-0.375244	-0.752197	0.801018	0.189460	-0.374091	0.427236
59491		7.280294	-0.363995	6.446247	0.088306	0.023433	0.052820	-0.485840	-0.377441	-0.747559	0.800754	0.189813	-0.373653	0.427957
59492		7.268026	-0.307031	6.474594	0.090985	0.026231	0.061935	-0.494385	-0.376709	-0.746094	0.800452	0.190165	-0.373216	0.428746
59493		7.284267	-0.233492	6.467992	0.100910	0.030483	0.071982	-0.482178	-0.382568	-0.749268	0.800110	0.190541	-0.372780	0.429597
59494		7.297529	-0.203477	6.468438	0.097466	0.026818	0.071259	-0.481689	-0.371094	-0.747070	0.799760	0.190908	-0.372291	0.430508
59495		7.347288	-0.141048	6.470730	0.094269	0.022869	0.067276	-0.491699	-0.366943	-0.745605	0.799439	0.191239	-0.371885	0.431307
59496		7.343663	-0.088489	6.510046	0.082370	0.031666	0.059917	-0.485840	-0.378662	-0.750977	0.799196	0.191477	-0.371523	0.431964
59497		7.267109	-0.046249	6.430724	0.068683	0.031978	0.052073	-0.483398	-0.383057	-0.746582	0.798989	0.191668	-0.371110	0.432617
59498		7.251809	-0.033483	6.465896	0.064051	0.023863	0.042494	-0.486328	-0.382568	-0.748535	0.798786	0.191909	-0.370729	0.433211
59499		7.327912	-0.068306	6.492730	0.057744	0.030220	0.033701	-0.484131	-0.377930	-0.753906	0.798648	0.192106	-0.370330	0.433719
59500		7.349181	-0.124661	6.459589	0.048976	0.033594	0.032378	-0.488770	-0.375488	-0.749512	0.798555	0.192204	-0.369944	0.434176
59501		7.344726	-0.205691	6.419258	0.047576	0.038251	0.030372	-0.489990	-0.382080	-0.753662	0.798486	0.192287	-0.369570	0.434585
59502		7.323628	-0.197034	6.401290	0.047104	0.037689	0.029820	-0.489014	-0.374756	-0.751953	0.798408	0.192385	-0.369177	0.435018
59503		7.329668	-0.184085	6.364472	0.044986	0.031101	0.032597	-0.481689	-0.386963	-0.740723	0.798317	0.192460	-0.368870	0.435412
59504		7.318554	-0.179913	6.356151	0.044821	0.017106	0.036520	-0.485352	-0.375488	-0.741699	0.798136	0.192632	-0.368591	0.435904
59505		7.302311	-0.230862	6.371480	0.048893	0.015727	0.040506	-0.490234	-0.388428	-0.747559	0.797953	0.192784	-0.368378	0.436351
59506		7.316700	-0.285240	6.325426	0.059486	0.015507	0.048150	-0.490723	-0.385498	-0.740967	0.797704	0.193018	-0.368104	0.436934
59507		7.322207	-0.303969	6.391164	0.065648	0.007599	0.057176	-0.489746	-0.382324	-0.744141	0.797388	0.193298	-0.367896	0.437563
59508		7.376839	-0.267163	6.400433	0.071251	0.006040	0.059788	-0.485352	-0.378418	-0.744141	0.797058	0.193590	-0.367688	0.438209
59509		7.353472	-0.279728	6.376351	0.069097	-0.002118	0.062686	-0.489502	-0.385254	-0.747070	0.796706	0.193869	-0.367542	0.438847
59510		7.319955	-0.214837	6.365262	0.062611	-0.010169	0.064948	-0.488037	-0.380127	-0.742188	0.796321	0.194145	-0.367462	0.439490
59511		7.345028	-0.171989	6.397755	0.061377	-0.012026	0.061607	-0.494141	-0.389404	-0.742432	0.795951	0.194419	-0.367413	0.440081
59512		7.341198	-0.160889	6.403829	0.060830	-0.010454	0.055431	-0.486328	-0.386963	-0.739014	0.795590	0.194736	-0.367331	0.440661
59513		7.393904	-0.167688	6.418960	0.057701	-0.004907	0.050881	-0.493896	-0.380371	-0.741943	0.795272	0.195016	-0.367192	0.441228
59514		7.402604	-0.171054	6.430079	0.054860	-0.002860	0.043207	-0.479736	-0.390869	-0.746582	0.795009	0.195268	-0.367098	0.441668
59515		7.403822	-0.190415	6.404203	0.053068	0.001217	0.040564	-0.493164	-0.389160	-0.750000	0.794758	0.195510	-0.366861	0.442208
59516		7.447342	-0.208935	6.347452	0.054261	0.002411	0.031296	-0.495850	-0.389404	-0.739258	0.794548	0.195782	-0.366665	0.442627
59517		7.447311	-0.172391	6.321064	0.043692	0.002634	0.023628	-0.486084	-0.382568	-0.740723	0.794374	0.196031	-0.366517	0.442952
59518		7.457498	-0.145659	6.377807	0.034093	0.007537	0.009748	-0.480469	-0.384521	-0.748047	0.794300	0.196203	-0.366333	0.443162
59519		7.433191	-0.138971	6.416224	0.024106	0.012926	0.000762	-0.498047	-0.390625	-0.738770	0.794297	0.196301	-0.366094	0.443320
59520		7.406369	-0.163292	6.447163	0.025459	0.029299	-0.005409	-0.492676	-0.385254	-0.739990	0.794341	0.196421	-0.365801	0.443432
59521		7.301539	-0.225413	6.430699	0.021163	0.044254	0.004286	-0.491943	-0.385986	-0.743408	0.794414	0.196403	-0.365440	0.443605
59522		7.171805	-0.246998	6.389696	0.033183	0.048803	0.028662	-0.484619	-0.386475	-0.740479	0.794394	0.196367	-0.365037	0.443988
59523		7.138462	-0.283329	6.405021	0.049095	0.044213	0.059134	-0.490479	-0.389893	-0.738770	0.794219	0.196361	-0.364626	0.444642
59524		7.173608	-0.280206	6.457471	0.066372	0.033763	0.084633	-0.494629	-0.391846	-0.748535	0.793878	0.196451	-0.364276	0.445496
59525		7.202015	-0.290455	6.435528	0.088974	0.019204	0.092352	-0.494629	-0.395020	-0.739746	0.793433	0.196709	-0.363953	0.446439
59526		7.246805	-0.321229	6.487802	0.103348	0.003863	0.099457	-0.488281	-0.385742	-0.746582	0.792876	0.197123	-0.363683	0.447465
59527		7.230622	-0.335400	6.439791	0.106637	-0.001051	0.104885	-0.495117	-0.386719	-0.736816	0.792305	0.197508	-0.363444	0.448499
59528		7.170206	-0.216804	6.408207	0.099888	-0.021065	0.103986	-0.491211	-0.383301	-0.739746	0.791675	0.197951	-0.363394	0.449455
59529		7.211954	0.024574	6.321160	0.071124	-0.044032	0.100861	-0.489014	-0.378174	-0.734619	0.791047	0.198275	-0.363589	0.450262
59530		7.353637	0.136577	6.327359	0.025133	-0.051520	0.090176	-0.488281	-0.391357	-0.740234	0.790517	0.198346	-0.363998	0.450830
59531		7.455225	0.151615	6.314778	-0.008336	-0.045790	0.063361	-0.495850	-0.385010	-0.734863	0.790142	0.198284	-0.364379	0.451206
59532		7.511898	0.245986	6.321810	-0.029373	-0.046887	0.032733	-0.498535	-0.385986	-0.729004	0.789916	0.198180	-0.364854	0.451263
59533		7.604579	0.192011	6.424566	-0.045497	-0.037080	0.006718	-0.493408	-0.384766	-0.729980	0.789835	0.198031	-0.365289	0.451119
59534		7.654664	-0.008805	6.512732	-0.046656	-0.007772	-0.024779	-0.499512	-0.392090	-0.742188	0.789968	0.197850	-0.365460	0.450826
59535		7.657149	-0.107409	6.499263	-0.045563	0.017397	-0.048949	-0.502686	-0.389160	-0.738525	0.790264	0.197660	-0.365407	0.450434
59536		7.526309	-0.134195	6.436812	-0.032851	0.023423	-0.062343	-0.496826	-0.390381	-0.743164	0.790607	0.197574	-0.365276	0.449977
59537		7.373213	-0.085767	6.357758	-0.026560	0.031100	-0.057277	-0.485840	-0.380371	-0.742920	0.790948	0.197475	-0.365048	0.449605
59538		7.250426	-0.081133	6.280791	-0.037898	0.032373	-0.055166	-0.501709	-0.382568	-0.745605	0.791325	0.197251	-0.364857	0.449195
59539		7.284227	-0.188924	6.279129	-0.045428	0.008615	-0.046059	-0.488281	-0.387451	-0.739014	0.791600	0.197056	-0.364926	0.448740
59540		7.352441	-0.294930	6.383598	-0.041283	0.012928	-0.038363	-0.492676	-0.393066	-0.735840	0.791841	0.196867	-0.364893	0.448424
59541		7.432172	-0.286391	6.366239	-0.031972	0.023526	-0.034672	-0.490234	-0.387451	-0.746582	0.792070	0.196717	-0.364761	0.448193
59542		7.448915	-0.172408	6.371606	-0.029254	0.013073	-0.020850	-0.490723	-0.388184	-0.742432	0.792232	0.196542	-0.364717	0.448019
59543		7.463928	-0.112417	6.492723	-0.034390	0.023243	-0.006570	-0.497070	-0.384033	-0.730225	0.792373	0.196265	-0.364652	0.447944
59544		7.323845	-0.035681	6.452725	-0.045440	0.038452	-0.008504	-0.492676	-0.380859	-0.742676	0.792576	0.195885	-0.364578	0.447811
59545		7.259110	-0.059906	6.419665	-0.046489	0.016261	-0.018073	-0.489502	-0.383057	-0.739746	0.792768	0.195573	-0.364624	0.447570
59546		7.232974	-0.037441	6.484306	-0.052418	0.014964	-0.033935	-0.494141	-0.373291	-0.740723	0.793018	0.195288	-0.364655	0.447227
59547		7.305325	-0.080781	6.456219	-0.049033	0.010485	-0.050966	-0.493408	-0.379395	-0.743408	0.793326	0.195069	-0.364733	0.446713
59548		7.458778	-0.092901	6.433941	-0.039478	0.001656	-0.066260	-0.493164	-0.376465	-0.746826	0.793640	0.195006	-0.364780	0.446144
59549		7.575572	-0.065844	6.505759	-0.040861	0.007352	-0.079488	-0.487061	-0.387207	-0.738281	0.794031	0.194937	-0.364783	0.445475
59550		7.573452	-0.042884	6.569374	-0.039408	0.025165	-0.087287	-0.494141	-0.384766	-0.741699	0.794478	0.194880	-0.364592	0.444859
59551		7.492518	-0.017961	6.523332	-0.037007	0.048733	-0.095736	-0.487549	-0.377441	-0.739014	0.795026	0.194771	-0.364264	0.444195
59552		7.369237	-0.015473	6.520007	-0.036464	0.057475	-0.104265	-0.482422	-0.385986	-0.751465	0.795643	0.194638	-0.363872	0.443470
59553		7.243800	-0.009691	6.482317	-0.037394	0.074736	-0.102289	-0.481689	-0.386230	-0.738525	0.796309	0.194424	-0.363316	0.442823
59554		7.117316	-0.087633	6.400937	-0.038145	0.063383	-0.098971	-0.482422	-0.394531	-0.739990	0.796912	0.194266	-0.362857	0.442184
59555		7.230219	-0.115181	6.515741	-0.032864	0.043236	-0.090506	-0.476318	-0.390869	-0.745361	0.797400	0.194215	-0.362504	0.441616
59556		7.321883	-0.176082	6.580068	-0.038298	0.064984	-0.082221	-0.477539	-0.390625	-0.746582	0.797947	0.193996	-0.362031	0.441113
59557		7.323559	-0.222129	6.528491	-0.032384	0.060444	-0.071622	-0.486816	-0.384766	-0.745361	0.798430	0.193800	-0.361595	0.440681
59558		7.305095	-0.169663	6.540207	-0.027683	0.056706	-0.075630	-0.478516	-0.381836	-0.753174	0.798911	0.193659	-0.361228	0.440173
59559		7.252310	-0.085304	6.567272	-0.014955	0.057137	-0.077471	-0.479004	-0.385498	-0.753418	0.799397	0.193575	-0.360786	0.439690
59560		7.234014	-0.030635	6.578465	-0.005117	0.050885	-0.072317	-0.473633	-0.387451	-0.747559	0.799821	0.193576	-0.360353	0.439272
59561		7.248986	-0.034031	6.529149	-0.002043	0.052113	-0.075128	-0.479980	-0.392822	-0.751953	0.800248	0.193613	-0.359877	0.438869
59562		7.204732	-0.065775	6.513373	0.003142	0.040612	-0.071058	-0.475586	-0.396729	-0.755859	0.800608	0.193728	-0.359474	0.438492
59563		7.194606	-0.108204	6.506552	0.003337	0.026302	-0.070425	-0.471436	-0.389648	-0.752441	0.800924	0.193892	-0.359138	0.438118
59564		7.189571	-0.114714	6.562486	0.001550	0.028241	-0.067423	-0.471680	-0.397949	-0.748779	0.801247	0.194011	-0.358819	0.437735
59565		7.230537	-0.039371	6.517702	-0.005701	0.028383	-0.068506	-0.472412	-0.384521	-0.755371	0.801568	0.194114	-0.358500	0.437363
59566		7.241417	0.022562	6.471929	-0.018390	0.025132	-0.073604	-0.467529	-0.388672	-0.748291	0.801949	0.194110	-0.358297	0.436832
59567		7.206725	0.033097	6.535985	-0.024750	0.028404	-0.080694	-0.472656	-0.391357	-0.748291	0.802362	0.194094	-0.358058	0.436277
59568		7.196100	0.068394	6.608929	-0.019699	0.038883	-0.080764	-0.468506	-0.390137	-0.756348	0.802789	0.194086	-0.357744	0.435751
59569		7.158313	0.092954	6.531484	-0.018688	0.037741	-0.075557	-0.471680	-0.394287	-0.746338	0.803207	0.194051	-0.357433	0.435251
59570		7.119180	0.070617	6.496167	-0.019540	0.015341	-0.076493	-0.469482	-0.397461	-0.749512	0.803540	0.194130	-0.357278	0.434728
59571		7.130466	-0.032147	6.474429	-0.025949	0.003150	-0.078106	-0.461182	-0.399902	-0.750732	0.803853	0.194214	-0.357208	0.434170
59572		7.181630	-0.129833	6.499843	-0.027798	-0.001545	-0.066130	-0.475830	-0.387207	-0.748291	0.804114	0.194263	-0.357156	0.433708
59573		7.236883	-0.188928	6.552442	-0.013958	-0.007760	-0.048417	-0.470947	-0.391846	-0.752930	0.804279	0.194360	-0.357235	0.433292
59574		7.303380	-0.177370	6.618240	-0.004605	0.003286	-0.035288	-0.466797	-0.396729	-0.755859	0.804416	0.194439	-0.357190	0.433041
59575		7.247526	-0.145425	6.593141	-0.002966	0.021661	-0.025794	-0.468018	-0.396729	-0.753174	0.804568	0.194437	-0.356996	0.432919
59576		7.150021	-0.069435	6.555860	-0.008512	0.019433	-0.022739	-0.468262	-0.394531	-0.751953	0.804707	0.194403	-0.356850	0.432796
59577		7.108052	0.008795	6.553467	-0.017814	0.007824	-0.030347	-0.464600	-0.389893	-0.752686	0.804855	0.194368	-0.356815	0.432565
59578		7.149165	0.091048	6.603731	-0.026530	0.002288	-0.035325	-0.466309	-0.392334	-0.753174	0.805031	0.194293	-0.356846	0.432245
59579		7.202843	0.102328	6.568472	-0.025697	0.003439	-0.034124	-0.465332	-0.392090	-0.760986	0.805199	0.194224	-0.356866	0.431947
59580		7.155808	0.065187	6.535467	-0.032825	0.001373	-0.029675	-0.463379	-0.389648	-0.760498	0.805368	0.194085	-0.356929	0.431641
59581		7.134249	0.048452	6.545909	-0.041422	-0.004313	-0.036256	-0.467529	-0.396729	-0.749268	0.805563	0.193922	-0.357054	0.431249
59582		7.241291	0.050206	6.562082	-0.044612	-0.010217	-0.049630	-0.470215	-0.386230	-0.749023	0.805759	0.193845	-0.357196	0.430800
59583		7.362404	0.069217	6.591441	-0.049626	-0.010011	-0.054724	-0.455811	-0.398193	-0.748535	0.805998	0.193725	-0.357399	0.430237
59584		7.299954	0.039672	6.533998	-0.050571	-0.004932	-0.057700	-0.472412	-0.401855	-0.748047	0.806252	0.193607	-0.357464	0.429760
59585		7.216107	-0.005858	6.486857	-0.050512	-0.013312	-0.068284	-0.462891	-0.392090	-0.753174	0.806496	0.193580	-0.357614	0.429189
59586		7.229879	-0.032967	6.541273	-0.043459	-0.026103	-0.072765	-0.461426	-0.387451	-0.750488	0.806740	0.193615	-0.357824	0.428540
59587		7.289876	-0.018230	6.593382	-0.044355	-0.014376	-0.066649	-0.463867	-0.395996	-0.756348	0.807004	0.193576	-0.357984	0.427926
59588		7.320350	0.029462	6.603083	-0.033855	0.003151	-0.051939	-0.468506	-0.396240	-0.748291	0.807240	0.193514	-0.357984	0.427508
59589		7.283693	0.030273	6.610855	-0.016431	0.021481	-0.038416	-0.465332	-0.398926	-0.750732	0.807438	0.193486	-0.357838	0.427270
59590		7.253170	-0.000250	6.587120	-0.009617	0.036293	-0.025294	-0.466553	-0.398193	-0.757080	0.807621	0.193411	-0.357569	0.427182
59591		7.200323	0.014741	6.593284	0.003810	0.033261	-0.013945	-0.460693	-0.397461	-0.753418	0.807744	0.193391	-0.357300	0.427185
59592		7.169747	-0.019769	6.605719	0.012682	0.034044	-0.008820	-0.466797	-0.401611	-0.756836	0.807836	0.193413	-0.356987	0.427262
59593		7.147374	-0.025982	6.639052	0.014726	0.032872	-0.009556	-0.450684	-0.395508	-0.760986	0.807915	0.193465	-0.356680	0.427345
59594		7.144058	0.004371	6.687916	0.006991	0.031362	-0.016647	-0.465576	-0.398438	-0.755127	0.808060	0.193452	-0.356371	0.427336
59595		7.180364	0.091890	6.706837	0.004012	0.040654	-0.020594	-0.460205	-0.401123	-0.757080	0.808223	0.193430	-0.356047	0.427306
59596		7.206900	0.154803	6.670528	-0.001173	0.053856	-0.016818	-0.460449	-0.394043	-0.746094	0.808422	0.193314	-0.355631	0.427330
59597		7.213024	0.153220	6.575091	-0.010315	0.067116	-0.025580	-0.458008	-0.394287	-0.760254	0.808703	0.193118	-0.355179	0.427263
59598		7.230009	0.152300	6.546523	-0.020622	0.064754	-0.030844	-0.456787	-0.394043	-0.754395	0.809034	0.192851	-0.354766	0.427099
59599		7.214357	0.129404	6.498025	-0.028868	0.069898	-0.034891	-0.456787	-0.393799	-0.759277	0.809399	0.192533	-0.354341	0.426905
59600		7.141110	0.149653	6.484902	-0.033114	0.070798	-0.031699	-0.456787	-0.398926	-0.754639	0.809767	0.192167	-0.353936	0.426707
59601		7.167598	0.077334	6.484474	-0.026116	0.054675	-0.025865	-0.458252	-0.397217	-0.751709	0.810034	0.191911	-0.353602	0.426592
59602		7.233554	-0.024400	6.558008	-0.023548	0.054485	-0.015117	-0.454102	-0.395508	-0.759033	0.810254	0.191647	-0.353292	0.426549
59603		7.209360	-0.093525	6.539044	-0.018696	0.052385	-0.001269	-0.455566	-0.389893	-0.771240	0.810429	0.191363	-0.352998	0.426589
59604		7.142002	-0.102687	6.567688	-0.008960	0.036969	0.001114	-0.450928	-0.388672	-0.757080	0.810565	0.191159	-0.352814	0.426573
59605		7.190094	-0.107898	6.589130	0.003514	0.029355	0.002116	-0.458496	-0.393066	-0.764404	0.810637	0.191083	-0.352625	0.426627
59606		7.191495	-0.056187	6.604558	0.019656	0.034133	0.012124	-0.453369	-0.394287	-0.761719	0.810656	0.191076	-0.352371	0.426803
59607		7.143410	0.039986	6.630815	0.029875	0.030417	0.020858	-0.451172	-0.398438	-0.767578	0.810614	0.191128	-0.352097	0.427086
59608		7.109957	0.090243	6.651375	0.033567	0.024459	0.020485	-0.446289	-0.398682	-0.760986	0.810552	0.191223	-0.351826	0.427385
59609		7.141786	0.152505	6.703106	0.026576	0.027279	0.014465	-0.455078	-0.398438	-0.760254	0.810523	0.191286	-0.351533	0.427653
59610		7.092459	0.182329	6.655071	0.023518	0.026445	0.010213	-0.445068	-0.397949	-0.764893	0.810504	0.191354	-0.351283	0.427864
59611		7.009287	0.119626	6.548449	0.022656	0.019209	0.012408	-0.456055	-0.402344	-0.761230	0.810475	0.191414	-0.351060	0.428074
59612		7.038592	0.071363	6.532429	0.020585	0.001563	0.010816	-0.454102	-0.392822	-0.761963	0.810378	0.191556	-0.350978	0.428263
59613		7.160647	0.101980	6.548070	0.002005	-0.000617	0.011743	-0.458008	-0.410156	-0.762451	0.810329	0.191551	-0.351020	0.428323
59614		7.211758	0.126590	6.575397	-0.010674	0.005701	0.013968	-0.445801	-0.398682	-0.761475	0.810263	0.191474	-0.350995	0.428503
59615		7.219531	0.053351	6.605054	-0.011832	0.010478	0.019673	-0.444336	-0.397705	-0.754639	0.810230	0.191320	-0.350965	0.428659
59616		7.213184	-0.037370	6.621564	-0.015540	0.017447	0.025482	-0.451172	-0.400635	-0.762695	0.810193	0.191107	-0.350905	0.428872
59617		7.179608	-0.091429	6.557736	-0.012334	0.010459	0.031576	-0.455566	-0.401855	-0.766113	0.810109	0.190924	-0.350902	0.429115
59618		7.124821	-0.071539	6.566309	-0.003094	-0.008002	0.029599	-0.450195	-0.390625	-0.760986	0.809961	0.190878	-0.350996	0.429337
59619		7.125990	-0.074839	6.565003	0.007851	-0.014034	0.030363	-0.450684	-0.400391	-0.755615	0.809802	0.190901	-0.351127	0.429520
59620		7.193010	-0.062075	6.558837	0.014162	-0.019742	0.033662	-0.454346	-0.394775	-0.758057	0.809566	0.191011	-0.351226	0.429835
59621		7.197428	0.006152	6.594034	0.018140	-0.020944	0.039230	-0.441895	-0.396973	-0.763672	0.809319	0.191120	-0.351368	0.430136
59622		7.171999	0.029193	6.618640	0.024768	-0.014796	0.050519	-0.461914	-0.401367	-0.766113	0.809053	0.191202	-0.351411	0.430564
59623		7.163082	-0.010347	6.576868	0.024521	-0.016097	0.053808	-0.455078	-0.389160	-0.759033	0.808749	0.191301	-0.351514	0.431005
59624		7.203355	-0.035281	6.578357	0.028792	-0.023228	0.052491	-0.458740	-0.394775	-0.763184	0.808451	0.191435	-0.351682	0.431370
59625		7.230634	-0.044844	6.574645	0.030519	-0.028163	0.051274	-0.454346	-0.404541	-0.767822	0.808129	0.191609	-0.351858	0.431752
59626		7.215462	-0.080304	6.518954	0.024114	-0.041259	0.045689	-0.468018	-0.395020	-0.756836	0.807784	0.191813	-0.352072	0.432132
59627		7.201590	-0.024740	6.525194	0.014339	-0.055326	0.028139	-0.453125	-0.390625	-0.760010	0.807474	0.192061	-0.352473	0.432274
59628		7.264976	0.019880	6.547100	0.007597	-0.059874	0.016849	-0.460205	-0.390625	-0.756104	0.807235	0.192282	-0.352884	0.432287
59629		7.282341	0.094238	6.517572	0.009796	-0.059171	0.007384	-0.464844	-0.394043	-0.753662	0.807016	0.192555	-0.353286	0.432247
59630		7.277392	0.051302	6.542594	0.012159	-0.048918	0.003701	-0.465088	-0.396729	-0.755371	0.806820	0.192832	-0.353597	0.432235
59631		7.298639	0.041847	6.596272	0.018462	-0.038279	0.005523	-0.459717	-0.387939	-0.753906	0.806636	0.193109	-0.353803	0.432286
59632		7.310264	0.008078	6.594814	0.023148	-0.024870	0.014105	-0.464111	-0.399902	-0.750977	0.806482	0.193319	-0.353945	0.432362
59633		7.217622	0.020263	6.533057	0.037322	-0.025759	0.014176	-0.459961	-0.401367	-0.753662	0.806259	0.193663	-0.353989	0.432588
59634		7.172123	-0.019569	6.440492	0.041262	-0.045916	0.015916	-0.457031	-0.402100	-0.756348	0.805971	0.194094	-0.354139	0.432809
59635		7.224810	-0.044849	6.484543	0.055798	-0.069816	0.014547	-0.462646	-0.400879	-0.755127	0.805603	0.194704	-0.354384	0.433020
59636		7.289946	-0.005764	6.612080	0.058334	-0.061277	0.027324	-0.465088	-0.402588	-0.749512	0.805210	0.195263	-0.354609	0.433316
59637		7.301511	0.041742	6.688559	0.064531	-0.037173	0.030904	-0.461914	-0.395996	-0.745605	0.804850	0.195777	-0.354649	0.433718
59638		7.260944	0.081752	6.653015	0.077761	-0.018041	0.046103	-0.466309	-0.399902	-0.754150	0.804489	0.196252	-0.354562	0.434245
59639		7.172020	0.082718	6.585988	0.077477	-0.005381	0.062129	-0.468750	-0.407227	-0.750488	0.804113	0.196626	-0.354419	0.434887
59640		7.110736	0.111899	6.581894	0.079874	-0.014185	0.071094	-0.468018	-0.401855	-0.749023	0.803645	0.197045	-0.354308	0.435654
59641		7.140680	0.141587	6.642322	0.074195	-0.020462	0.070505	-0.472656	-0.408447	-0.751221	0.803187	0.197436	-0.354284	0.436340
59642		7.221239	0.140481	6.639843	0.056581	-0.007098	0.060199	-0.467773	-0.399170	-0.755127	0.802818	0.197704	-0.354199	0.436967
59643		7.222233	0.171015	6.648042	0.041949	-0.002623	0.046797	-0.472412	-0.405273	-0.747314	0.802578	0.197863	-0.354155	0.437371
59644		7.192442	0.223380	6.629328	0.029506	0.007754	0.034597	-0.466309	-0.399902	-0.752441	0.802395	0.197967	-0.354040	0.437752
59645		7.180398	0.221306	6.563849	0.027055	0.004680	0.023913	-0.469971	-0.404297	-0.746338	0.802280	0.198070	-0.353952	0.437986
59646		7.207200	0.191268	6.573137	0.024845	0.000366	0.022629	-0.470215	-0.405762	-0.748779	0.802132	0.198201	-0.353882	0.438255
59647		7.184639	0.146508	6.539339	0.024660	0.002118	0.024190	-0.469482	-0.405029	-0.746094	0.801986	0.198318	-0.353799	0.438538
59648		7.205657	0.064678	6.537763	0.021472	-0.003191	0.023332	-0.472168	-0.403320	-0.748047	0.801830	0.198436	-0.353761	0.438800
59649		7.230510	0.029116	6.491148	0.019771	-0.017374	0.019201	-0.469482	-0.405029	-0.749512	0.801658	0.198602	-0.353837	0.438977
59650		7.260111	0.027910	6.542650	0.024765	-0.018236	0.011817	-0.469727	-0.405029	-0.749268	0.801504	0.198825	-0.353872	0.439130
59651		7.291710	0.077013	6.515060	0.032840	-0.006899	0.015999	-0.472900	-0.404541	-0.747559	0.801356	0.199046	-0.353810	0.439349
59652		7.251451	0.091510	6.491901	0.032247	-0.003601	0.027868	-0.471680	-0.407471	-0.745117	0.801172	0.199220	-0.353760	0.439647
59653		7.230430	0.109852	6.474931	0.034802	-0.007930	0.033408	-0.474121	-0.403320	-0.742676	0.800938	0.199418	-0.353717	0.440017
59654		7.195958	0.073411	6.506993	0.034862	-0.010046	0.039015	-0.471680	-0.404297	-0.754883	0.800685	0.199603	-0.353725	0.440387
59655		7.202631	0.057569	6.534419	0.035578	-0.010315	0.041915	-0.473633	-0.397217	-0.748535	0.800447	0.199765	-0.353737	0.440737
59656		7.189997	0.039508	6.519667	0.034648	-0.013417	0.047963	-0.467529	-0.401611	-0.747803	0.800186	0.199908	-0.353822	0.441077
59657		7.197276	0.018786	6.582533	0.028920	-0.012774	0.058035	-0.473145	-0.403809	-0.746826	0.799892	0.199986	-0.353896	0.441516
59658		7.179132	0.009901	6.575175	0.026900	-0.005885	0.062416	-0.475098	-0.407959	-0.737793	0.799591	0.200023	-0.353940	0.442008
59659		7.198818	0.009800	6.580866	0.021938	-0.003038	0.062628	-0.480957	-0.411377	-0.754883	0.799271	0.200041	-0.353955	0.442567
59660		7.219048	0.040630	6.595335	0.021933	-0.003547	0.068198	-0.475586	-0.411621	-0.737061	0.798951	0.200028	-0.353996	0.443117
59661		7.149215	0.067527	6.580247	0.023186	-0.003398	0.070098	-0.476807	-0.404297	-0.741455	0.798587	0.200042	-0.353996	0.443766
59662		7.157997	-0.053094	6.503486	0.028639	-0.014695	0.065452	-0.472168	-0.397217	-0.748535	0.798230	0.200124	-0.354089	0.444297
59663		7.239470	-0.061990	6.535833	0.040730	-0.028639	0.068642	-0.485596	-0.407471	-0.738525	0.797843	0.200298	-0.354268	0.444772
59664		7.300338	-0.054629	6.586972	0.051787	-0.025325	0.073704	-0.482910	-0.403320	-0.744385	0.797361	0.200566	-0.354358	0.445443
59665		7.340784	-0.045383	6.560967	0.064771	-0.018449	0.077842	-0.477539	-0.403564	-0.746338	0.796893	0.200859	-0.354383	0.446128
59666		7.325953	-0.038084	6.499696	0.059970	-0.018424	0.071053	-0.481445	-0.399170	-0.742432	0.796470	0.201132	-0.354399	0.446746
59667		7.305674	0.032862	6.478890	0.046328	-0.028353	0.062674	-0.480957	-0.413574	-0.741943	0.796075	0.201373	-0.354548	0.447224
59668		7.343882	0.114625	6.511961	0.028054	-0.022714	0.043368	-0.475586	-0.403320	-0.738281	0.795756	0.201560	-0.354613	0.447656
59669		7.361634	0.197593	6.467883	0.005545	-0.018582	0.023391	-0.482178	-0.409180	-0.744629	0.795592	0.201618	-0.354739	0.447821
59670		7.353760	0.219513	6.479441	-0.007729	-0.020586	0.004117	-0.480469	-0.398682	-0.737793	0.795507	0.201661	-0.354886	0.447836
59671		7.292539	0.133434	6.423504	-0.011557	-0.012739	-0.009068	-0.473877	-0.405762	-0.749268	0.795520	0.201674	-0.355018	0.447704
59672		7.296640	0.024192	6.424996	-0.005053	-0.018987	-0.010458	-0.477539	-0.400879	-0.746094	0.795520	0.201750	-0.355122	0.447586
59673		7.330984	-0.023127	6.496602	0.001939	-0.017869	-0.002152	-0.485596	-0.407959	-0.735840	0.795485	0.201840	-0.355239	0.447514
59674		7.335956	-0.100245	6.506747	0.012562	-0.010389	0.002021	-0.480957	-0.400879	-0.740234	0.795386	0.201998	-0.355244	0.447615
59675		7.334514	-0.112950	6.558677	0.025374	-0.006381	0.009492	-0.484131	-0.405518	-0.730713	0.795287	0.202176	-0.355219	0.447730
59676		7.271288	-0.147735	6.574516	0.033404	0.003009	0.020901	-0.482422	-0.407471	-0.746826	0.795122	0.202366	-0.355094	0.448037
59677		7.224864	-0.121058	6.559840	0.045337	0.008063	0.038167	-0.479492	-0.402832	-0.744141	0.794921	0.202541	-0.354926	0.448447
59678		7.157039	-0.079216	6.565006	0.049715	0.010006	0.048258	-0.480225	-0.409424	-0.740967	0.794694	0.202698	-0.354761	0.448909
59679		7.146733	-0.021638	6.552558	0.052996	0.006865	0.055106	-0.484619	-0.404053	-0.736572	0.794399	0.202888	-0.354581	0.449487
59680		7.189039	0.029524	6.556106	0.056350	-0.003741	0.056805	-0.480957	-0.399658	-0.736328	0.794063	0.203131	-0.354495	0.450038
59681		7.240619	0.074260	6.606410	0.046747	-0.002934	0.055756	-0.476318	-0.410645	-0.739258	0.793769	0.203298	-0.354453	0.450516
59682		7.243811	0.081458	6.625080	0.041076	0.005452	0.047198	-0.480469	-0.406738	-0.737549	0.793523	0.203435	-0.354297	0.451010
59683		7.224988	0.110336	6.591806	0.039673	0.001195	0.041657	-0.482910	-0.402100	-0.737061	0.793290	0.203591	-0.354194	0.451428
59684		7.285928	0.132140	6.628879	0.038073	0.003949	0.031825	-0.482910	-0.405029	-0.737305	0.793117	0.203747	-0.354091	0.451744
59685		7.299460	0.146329	6.679006	0.029809	0.019511	0.024630	-0.475586	-0.408203	-0.739990	0.793023	0.203816	-0.353891	0.452034
59686		7.237790	0.141360	6.556191	0.025468	0.028503	0.012320	-0.485596	-0.405273	-0.735840	0.793018	0.203856	-0.353598	0.452254
59687		7.225139	0.120231	6.467426	0.033128	0.017136	0.003671	-0.488525	-0.411865	-0.744141	0.792983	0.204021	-0.353371	0.452417
59688		7.248950	0.059032	6.506359	0.036872	0.012338	0.000128	-0.484375	-0.406982	-0.732422	0.792940	0.204243	-0.353142	0.452572
59689		7.307284	0.050489	6.572969	0.035321	0.023039	0.004877	-0.487061	-0.402344	-0.738525	0.792907	0.204403	-0.352859	0.452779
59690		7.292215	0.050078	6.510590	0.026479	0.037268	0.009854	-0.482422	-0.412598	-0.738770	0.792935	0.204418	-0.352564	0.452951
59691		7.230142	0.040502	6.460782	0.022500	0.034951	0.011530	-0.484131	-0.409668	-0.733154	0.792936	0.204429	-0.352243	0.453195
59692		7.185994	0.055873	6.442092	0.029472	0.031794	0.014591	-0.477051	-0.407471	-0.732910	0.792897	0.204492	-0.351934	0.453475
59693		7.195309	0.007126	6.477816	0.025406	0.021249	0.023909	-0.480225	-0.416260	-0.737549	0.792814	0.204531	-0.351724	0.453765
59694		7.233790	-0.010029	6.538927	0.026906	0.021709	0.033626	-0.480469	-0.411133	-0.730225	0.792677	0.204563	-0.351491	0.454172
59695		7.262517	0.032456	6.550842	0.022801	0.032121	0.034612	-0.473877	-0.405762	-0.732910	0.792569	0.204526	-0.351224	0.454582
59696		7.218821	0.044448	6.531613	0.017277	0.026846	0.037840	-0.486572	-0.403564	-0.742188	0.792473	0.204443	-0.351035	0.454932
59697		7.148411	0.052125	6.529756	0.016257	0.023829	0.043971	-0.474609	-0.407715	-0.733154	0.792356	0.204337	-0.350930	0.455266
59698		7.183564	0.023187	6.572389	0.015556	0.018852	0.046920	-0.479492	-0.406738	-0.740723	0.792198	0.204251	-0.350807	0.455673
59699		7.130058	0.025112	6.557202	0.003906	0.016324	0.048363	-0.480225	-0.405273	-0.739746	0.792061	0.204084	-0.350771	0.456015
59700		7.120631	0.022855	6.546912	-0.002133	0.007934	0.047198	-0.477783	-0.400635	-0.737061	0.791912	0.203911	-0.350817	0.456314
59701		7.116999	-0.046406	6.531776	0.000529	0.008053	0.049359	-0.490479	-0.403564	-0.739258	0.791760	0.203743	-0.350867	0.456615
59702		7.148497	-0.011087	6.576813	0.001935	0.001207	0.055577	-0.480469	-0.401367	-0.739990	0.791538	0.203605	-0.350978	0.456977
59703		7.148645	-0.068193	6.507493	-0.001094	-0.003749	0.062595	-0.486816	-0.406494	-0.734131	0.791302	0.203433	-0.351134	0.457341
59704		7.116377	-0.201617	6.420160	0.001196	-0.020567	0.070637	-0.483154	-0.398438	-0.734131	0.790944	0.203341	-0.351381	0.457811
59705		7.251246	-0.134483	6.438560	0.000083	-0.044059	0.079577	-0.479736	-0.404541	-0.731445	0.790512	0.203286	-0.351831	0.458236
59706		7.329991	-0.028907	6.469901	-0.010553	-0.049890	0.075284	-0.491699	-0.400391	-0.736084	0.790082	0.203209	-0.352309	0.458644
59707		7.346831	0.021430	6.491438	-0.009650	-0.052594	0.065579	-0.485840	-0.396240	-0.734619	0.789681	0.203171	-0.352827	0.458954
59708		7.349151	0.055373	6.536254	-0.005249	-0.042967	0.043464	-0.493896	-0.402100	-0.734131	0.789403	0.203179	-0.353230	0.459118
59709		7.340879	0.068003	6.490082	-0.012608	-0.046762	0.025033	-0.486572	-0.410156	-0.734375	0.789168	0.203226	-0.353637	0.459187
59710		7.367647	0.045328	6.500194	-0.017858	-0.058792	0.010234	-0.494385	-0.400146	-0.731934	0.788959	0.203338	-0.354067	0.459166
59711		7.395918	-0.054285	6.523304	-0.017590	-0.043262	0.006079	-0.492432	-0.397949	-0.738770	0.788817	0.203394	-0.354441	0.459097
59712		7.397985	-0.197937	6.515630	-0.012945	-0.026909	0.006547	-0.492432	-0.410156	-0.735352	0.788740	0.203398	-0.354705	0.459023
59713		7.354766	-0.279769	6.466095	0.004486	-0.017298	0.009602	-0.489746	-0.393066	-0.730225	0.788614	0.203502	-0.354781	0.459136
59714		7.317449	-0.343975	6.454653	0.015836	-0.011221	0.026375	-0.493896	-0.399414	-0.728027	0.788456	0.203577	-0.354870	0.459305
59715		7.322372	-0.284427	6.505325	0.033586	-0.011468	0.041829	-0.494385	-0.407471	-0.736816	0.788180	0.203744	-0.354893	0.459686
59716		7.321985	-0.210845	6.527277	0.042228	-0.007075	0.056582	-0.488770	-0.399658	-0.731201	0.787850	0.203909	-0.354854	0.460209
59717		7.283510	-0.164485	6.476254	0.051318	-0.006422	0.066606	-0.486572	-0.401611	-0.733887	0.787484	0.204089	-0.354813	0.460787
59718		7.248744	-0.166759	6.482000	0.061640	-0.007207	0.078645	-0.492920	-0.406250	-0.729004	0.787060	0.204300	-0.354749	0.461466
59719		7.202081	-0.118197	6.419364	0.055531	-0.003887	0.086466	-0.500732	-0.403564	-0.728760	0.786594	0.204455	-0.354682	0.462243
59720		7.188490	-0.027985	6.364510	0.043624	-0.014055	0.090136	-0.500244	-0.395508	-0.739746	0.786096	0.204562	-0.354757	0.462986
59721		7.178026	-0.019235	6.356963	0.031176	-0.030526	0.089591	-0.502930	-0.407471	-0.733154	0.785620	0.204615	-0.355036	0.463554
59722		7.285211	-0.044411	6.422512	0.020174	-0.037501	0.088729	-0.497070	-0.397461	-0.729004	0.785099	0.204663	-0.355340	0.464183
59723		7.411198	-0.047658	6.555064	0.013988	-0.029307	0.082701	-0.502197	-0.398438	-0.726562	0.784662	0.204636	-0.355631	0.464711
59724		7.402230	0.068866	6.542016	0.000036	-0.015248	0.068135	-0.491211	-0.398193	-0.729004	0.784329	0.204517	-0.355855	0.465153
59725		7.385588	0.037062	6.508797	-0.000133	-0.017304	0.045115	-0.502686	-0.395264	-0.727051	0.784109	0.204460	-0.356041	0.465407
59726		7.340656	-0.028385	6.521005	0.004150	-0.026684	0.025577	-0.501709	-0.402832	-0.730469	0.783909	0.204532	-0.356261	0.465545
59727		7.339769	-0.039339	6.499469	0.002572	-0.023805	0.017217	-0.500977	-0.402100	-0.732666	0.783747	0.204616	-0.356424	0.465656
59728		7.305908	-0.017448	6.492234	-0.000302	-0.028469	0.017017	-0.494141	-0.405273	-0.725830	0.783587	0.204694	-0.356633	0.465731
59729		7.268875	-0.025471	6.441830	-0.013843	-0.015841	0.008752	-0.503662	-0.404053	-0.732666	0.783511	0.204670	-0.356765	0.465767
59730		7.259433	-0.036101	6.445447	-0.032091	-0.018551	0.004035	-0.498291	-0.395996	-0.728760	0.783478	0.204546	-0.357003	0.465696
59731		7.337532	0.019592	6.480995	-0.047873	-0.029031	-0.011602	-0.502930	-0.401367	-0.732666	0.783518	0.204391	-0.357365	0.465418
59732		7.444873	0.109762	6.506354	-0.074313	-0.017436	-0.035549	-0.503174	-0.395508	-0.727783	0.783719	0.204100	-0.357699	0.464951
59733		7.487566	0.068052	6.538258	-0.092172	-0.000398	-0.054321	-0.505859	-0.398193	-0.731934	0.784071	0.203680	-0.357974	0.464329
59734		7.392143	0.001702	6.494308	-0.104071	0.009088	-0.070950	-0.497314	-0.397705	-0.732422	0.784531	0.203198	-0.358199	0.463589
59735		7.323037	-0.040096	6.457256	-0.106250	-0.000825	-0.084662	-0.492920	-0.399902	-0.736084	0.785033	0.202776	-0.358463	0.462720
59736		7.369358	-0.018167	6.542401	-0.105266	0.008561	-0.091082	-0.493896	-0.401367	-0.733154	0.785595	0.202340	-0.358638	0.461821
59737		7.288345	-0.143241	6.525454	-0.099928	0.035285	-0.097760	-0.495605	-0.402832	-0.738281	0.786236	0.201867	-0.358595	0.460969
59738		7.218308	-0.202671	6.465132	-0.084152	0.017416	-0.087714	-0.497559	-0.402100	-0.729736	0.786758	0.201536	-0.358627	0.460198
59739		7.302804	-0.191141	6.538694	-0.080548	0.023262	-0.086178	-0.497559	-0.391846	-0.732178	0.787259	0.201217	-0.358603	0.459498
59740		7.307313	-0.242181	6.483410	-0.065179	0.025654	-0.076320	-0.490723	-0.399902	-0.737793	0.787725	0.200937	-0.358564	0.458853
59741		7.384891	-0.248631	6.556119	-0.049708	0.021038	-0.077325	-0.492676	-0.398926	-0.742188	0.788162	0.200783	-0.358460	0.458251
59742		7.375663	-0.263640	6.557967	-0.034804	0.034636	-0.072693	-0.492676	-0.396729	-0.734619	0.788602	0.200655	-0.358229	0.457730
59743		7.339762	-0.247344	6.551532	-0.031200	0.036818	-0.065416	-0.487061	-0.396240	-0.746094	0.788998	0.200529	-0.357984	0.457294
59744		7.333058	-0.147310	6.605716	-0.032831	0.043412	-0.064289	-0.496338	-0.399658	-0.741943	0.789448	0.200341	-0.357711	0.456813
59745		7.334228	-0.016909	6.645678	-0.037336	0.059636	-0.064121	-0.489014	-0.392578	-0.735840	0.789915	0.200084	-0.357345	0.456404
59746		7.303836	0.029107	6.627518	-0.039563	0.075863	-0.068014	-0.488770	-0.402344	-0.740967	0.790459	0.199753	-0.356886	0.455968
59747		7.219198	0.102949	6.619290	-0.047307	0.079856	-0.079447	-0.481934	-0.388672	-0.740234	0.791060	0.199403	-0.356380	0.455474
59748		7.237355	0.162837	6.645262	-0.064181	0.081021	-0.096693	-0.486084	-0.397949	-0.744873	0.791788	0.198959	-0.355944	0.454743
59749		7.262606	0.168445	6.649830	-0.073276	0.095437	-0.121560	-0.481201	-0.395508	-0.745117	0.792647	0.198492	-0.355382	0.453889
59750		7.200127	0.128131	6.646392	-0.069895	0.102996	-0.134999	-0.478760	-0.395752	-0.745361	0.793581	0.198052	-0.354739	0.452952
59751		7.192231	0.093523	6.643055	-0.066371	0.099848	-0.138428	-0.489502	-0.398926	-0.744873	0.794508	0.197658	-0.354095	0.452001
59752		7.124909	0.069416	6.610598	-0.070366	0.102013	-0.139987	-0.479004	-0.402100	-0.750977	0.795418	0.197252	-0.353454	0.451079
59753		7.083735	0.068821	6.585325	-0.074335	0.090016	-0.139309	-0.467041	-0.393555	-0.752930	0.796317	0.196855	-0.352891	0.450106
59754		7.133518	-0.015818	6.581649	-0.071777	0.085903	-0.142315	-0.469971	-0.397217	-0.748535	0.797245	0.196472	-0.352359	0.449045
59755		7.139414	-0.042453	6.570678	-0.064317	0.085148	-0.130779	-0.470947	-0.403809	-0.750732	0.798087	0.196126	-0.351811	0.448130
59756		7.023414	-0.061990	6.517920	-0.066127	0.082744	-0.118009	-0.470703	-0.398193	-0.753418	0.798862	0.195752	-0.351288	0.447323
59757		6.965827	-0.098039	6.438149	-0.069315	0.059600	-0.110916	-0.472168	-0.401123	-0.757324	0.799556	0.195410	-0.350966	0.446484
59758		7.049684	-0.067072	6.463056	-0.070672	0.014263	-0.101223	-0.464355	-0.403320	-0.751221	0.800078	0.195203	-0.350964	0.445640
59759		7.203899	-0.078681	6.480829	-0.077486	-0.002733	-0.092293	-0.471924	-0.403564	-0.753906	0.800524	0.194995	-0.351090	0.444830
59760		7.231997	-0.078560	6.533668	-0.075487	-0.013861	-0.085425	-0.463379	-0.401611	-0.755127	0.800896	0.194825	-0.351305	0.444064
59761		7.309209	-0.064372	6.630119	-0.071988	-0.001208	-0.091178	-0.466064	-0.400879	-0.756348	0.801341	0.194638	-0.351409	0.443261
59762		7.276044	-0.050841	6.619844	-0.066909	0.015832	-0.083565	-0.464111	-0.394287	-0.747070	0.801794	0.194400	-0.351401	0.442551
59763		7.236732	0.002223	6.662861	-0.065113	0.021021	-0.084416	-0.462891	-0.397217	-0.752930	0.802256	0.194158	-0.351361	0.441853
59764		7.242965	0.036656	6.650598	-0.069275	0.022405	-0.088322	-0.464111	-0.395508	-0.754639	0.802748	0.193892	-0.351314	0.441111
59765		7.223747	0.043387	6.666054	-0.076337	0.029032	-0.099959	-0.461914	-0.394775	-0.750488	0.803314	0.193586	-0.351240	0.440274
59766		7.151879	0.024476	6.655420	-0.083577	0.035254	-0.104424	-0.463135	-0.398682	-0.756592	0.803919	0.193226	-0.351138	0.439408
59767		7.074682	0.027785	6.545332	-0.090190	0.038714	-0.109783	-0.463135	-0.394775	-0.753174	0.804563	0.192826	-0.351022	0.438498
59768		7.109176	0.036764	6.597921	-0.086548	0.023334	-0.108114	-0.458740	-0.394775	-0.757812	0.805143	0.192502	-0.351009	0.437584
59769		7.222634	0.014028	6.641251	-0.078758	0.033232	-0.101991	-0.457275	-0.392578	-0.755615	0.805731	0.192169	-0.350909	0.436728
59770		7.286836	0.013139	6.615301	-0.070775	0.037339	-0.101204	-0.457764	-0.393311	-0.761963	0.806313	0.191871	-0.350756	0.435907
59771		7.250152	-0.007237	6.634716	-0.062328	0.032746	-0.096356	-0.455322	-0.397461	-0.756348	0.806856	0.191628	-0.350617	0.435121
59772		7.226845	-0.046248	6.694180	-0.056806	0.037471	-0.095449	-0.453613	-0.392822	-0.759033	0.807383	0.191417	-0.350403	0.434408
59773		7.159604	-0.048099	6.721951	-0.048455	0.044752	-0.088686	-0.454102	-0.397705	-0.755127	0.807906	0.191204	-0.350139	0.433741
59774		7.057294	-0.106355	6.665334	-0.039422	0.045236	-0.086622	-0.454346	-0.395264	-0.759521	0.808388	0.191060	-0.349821	0.433162
59775		7.061881	-0.095587	6.610109	-0.026434	0.030319	-0.083159	-0.448730	-0.398926	-0.763672	0.808802	0.191039	-0.349579	0.432595
59776		7.096270	-0.020311	6.681329	-0.020051	0.022404	-0.074335	-0.450928	-0.398682	-0.758789	0.809161	0.191060	-0.349365	0.432086
59777		7.055221	0.042522	6.654374	-0.015137	0.030273	-0.061646	-0.448730	-0.399658	-0.768555	0.809475	0.191058	-0.349101	0.431713
59778		7.063785	-0.006685	6.633375	-0.016948	0.021420	-0.053598	-0.450195	-0.394775	-0.763916	0.809756	0.191038	-0.348922	0.431338
59779		7.099546	0.038125	6.658333	-0.028707	0.010927	-0.048740	-0.447266	-0.392090	-0.760742	0.810004	0.190962	-0.348881	0.430941
59780		7.086880	0.031222	6.665204	-0.044109	0.021045	-0.046370	-0.451172	-0.395508	-0.759277	0.810299	0.190737	-0.348833	0.430524
59781		7.020752	-0.011086	6.625353	-0.042282	0.008419	-0.044250	-0.453125	-0.395264	-0.760742	0.810528	0.190575	-0.348858	0.430143
59782		7.036176	-0.025376	6.720138	-0.035242	-0.007134	-0.044008	-0.451416	-0.401367	-0.763916	0.810699	0.190516	-0.348968	0.429759
59783		7.067323	-0.014736	6.847982	-0.028686	0.008753	-0.043154	-0.450439	-0.395508	-0.763184	0.810899	0.190448	-0.348926	0.429445
59784		7.034932	0.075314	6.805791	-0.033509	0.025444	-0.041905	-0.446533	-0.395508	-0.764648	0.811160	0.190274	-0.348811	0.429122
59785		6.925441	0.113576	6.636696	-0.037959	0.010829	-0.039688	-0.446533	-0.403809	-0.769531	0.811387	0.190112	-0.348809	0.428767
59786		6.914776	0.140737	6.615318	-0.046463	-0.018188	-0.045545	-0.449219	-0.395752	-0.760986	0.811555	0.190023	-0.348998	0.428334
59787		7.021366	0.205045	6.652252	-0.073434	-0.016207	-0.054028	-0.446289	-0.398926	-0.765625	0.811795	0.189768	-0.349281	0.427762
59788		7.074932	0.162481	6.694293	-0.085932	-0.018849	-0.056926	-0.440186	-0.400146	-0.765869	0.812063	0.189445	-0.349608	0.427128
59789		7.104709	0.062586	6.717637	-0.095848	-0.008054	-0.057360	-0.445801	-0.394043	-0.758789	0.812386	0.189017	-0.349880	0.426481
59790		7.115787	-0.034096	6.663253	-0.092116	-0.008509	-0.055600	-0.442627	-0.391846	-0.770752	0.812680	0.188615	-0.350165	0.425864
59791		7.166825	-0.085583	6.686192	-0.081931	-0.017744	-0.049024	-0.442139	-0.396729	-0.765137	0.812937	0.188276	-0.350501	0.425246
59792		7.181212	-0.137365	6.623627	-0.063115	-0.017726	-0.044505	-0.442383	-0.391113	-0.768555	0.813127	0.188068	-0.350748	0.424772
59793		7.162095	-0.151373	6.595367	-0.044106	-0.019952	-0.034573	-0.443848	-0.398682	-0.773682	0.813260	0.187955	-0.350982	0.424372
59794		7.148521	-0.108947	6.543034	-0.030601	-0.035592	-0.027563	-0.450928	-0.396484	-0.759766	0.813294	0.187976	-0.351263	0.424066
59795		7.122440	-0.051632	6.484968	-0.026791	-0.046720	-0.019328	-0.449463	-0.397949	-0.768311	0.813225	0.188059	-0.351622	0.423864
59796		7.139487	0.025904	6.513449	-0.024180	-0.050078	-0.007000	-0.450195	-0.385010	-0.774170	0.813116	0.188124	-0.352015	0.423719
59797		7.222039	0.042499	6.625506	-0.021817	-0.038525	0.005719	-0.451660	-0.393311	-0.773682	0.813029	0.188096	-0.352397	0.423580
59798		7.220760	-0.021399	6.680423	-0.015399	-0.022097	0.020608	-0.450684	-0.391113	-0.768799	0.812908	0.188027	-0.352636	0.423644
59799		7.223403	-0.092553	6.694321	-0.012092	-0.004345	0.024214	-0.445312	-0.389404	-0.767090	0.812818	0.187909	-0.352748	0.423775
59800		7.193483	-0.115004	6.728109	-0.003593	0.005979	0.029173	-0.446045	-0.394531	-0.756592	0.812737	0.187792	-0.352763	0.423970
59801		7.153184	-0.071097	6.771383	0.003301	0.012432	0.031765	-0.448730	-0.401367	-0.754639	0.812622	0.187717	-0.352683	0.424292
59802		7.101779	0.009979	6.723013	0.012920	0.009510	0.030499	-0.453857	-0.389404	-0.765869	0.812464	0.187738	-0.352560	0.424685
59803		7.071002	0.030380	6.696262	0.017584	0.002166	0.025833	-0.451904	-0.391602	-0.766602	0.812333	0.187797	-0.352532	0.424934
59804		7.033573	-0.012114	6.672906	0.017933	0.001266	0.028065	-0.450439	-0.392090	-0.765381	0.812192	0.187855	-0.352500	0.425204
59805		7.071012	-0.003035	6.686843	0.019443	0.005791	0.025014	-0.446289	-0.386719	-0.766846	0.812071	0.187919	-0.352422	0.425471
59806		7.183898	-0.000348	6.683244	0.013136	0.018462	0.022373	-0.455811	-0.387695	-0.770508	0.812029	0.187886	-0.352293	0.425672
59807		7.171059	-0.001537	6.619528	0.004053	0.024905	0.020993	-0.459229	-0.394775	-0.762207	0.812014	0.187778	-0.352167	0.425854
59808		7.150831	-0.035397	6.569374	0.001693	0.012177	0.020747	-0.447021	-0.389404	-0.767578	0.811928	0.187727	-0.352102	0.426093
59809		7.133566	-0.070436	6.608503	0.010062	0.008476	0.023101	-0.445312	-0.397217	-0.767822	0.811852	0.187712	-0.352043	0.426293
59810		7.168056	-0.033930	6.577975	0.016413	0.001279	0.027897	-0.449951	-0.392822	-0.766846	0.811715	0.187765	-0.351983	0.426580
59811		7.167513	-0.008653	6.623362	0.027846	-0.004690	0.036157	-0.445557	-0.388916	-0.767090	0.811513	0.187888	-0.351961	0.426928
59812		7.151221	-0.011350	6.670862	0.046504	-0.002054	0.047611	-0.444092	-0.391846	-0.762939	0.811267	0.188083	-0.351882	0.427376
59813		7.147026	-0.089711	6.613012	0.065895	0.004267	0.065693	-0.450928	-0.392822	-0.764160	0.810933	0.188342	-0.351701	0.428044
59814		7.113058	-0.146483	6.527362	0.076877	-0.009023	0.082204	-0.446045	-0.395996	-0.763672	0.810475	0.188678	-0.351606	0.428841
59815		7.144497	-0.139057	6.562734	0.086330	-0.029362	0.096451	-0.449707	-0.387207	-0.763672	0.809894	0.189109	-0.351617	0.429739
59816		7.157438	-0.070610	6.574419	0.084870	-0.024473	0.103946	-0.457520	-0.396729	-0.764893	0.809318	0.189475	-0.351654	0.430630
59817		7.181148	0.036326	6.590811	0.072489	-0.027818	0.104985	-0.453857	-0.399170	-0.760742	0.808721	0.189785	-0.351735	0.431549
59818		7.194015	0.126023	6.683117	0.070594	-0.024804	0.095538	-0.463623	-0.396240	-0.766113	0.808165	0.190104	-0.351766	0.432425
59819		7.179614	0.125244	6.693345	0.058739	-0.007650	0.087061	-0.448486	-0.383057	-0.757812	0.807712	0.190299	-0.351745	0.433202
59820		7.126691	0.149488	6.664920	0.043026	-0.013946	0.083197	-0.456543	-0.397949	-0.763672	0.807318	0.190396	-0.351837	0.433818
59821		7.069838	0.094854	6.577985	0.032566	-0.028809	0.073701	-0.457520	-0.394775	-0.756104	0.806899	0.190529	-0.352009	0.434399
59822		7.095896	0.071614	6.589339	0.030732	-0.049279	0.063432	-0.460205	-0.401367	-0.755859	0.806451	0.190758	-0.352313	0.434883
59823		7.186123	0.056363	6.575968	0.028439	-0.057000	0.052888	-0.463867	-0.391113	-0.756592	0.806007	0.191043	-0.352636	0.435321
59824		7.273778	0.061465	6.588508	0.027785	-0.053157	0.041295	-0.465820	-0.394043	-0.755615	0.805637	0.191325	-0.352965	0.435614
59825		7.271233	0.028540	6.596586	0.032866	-0.050859	0.032233	-0.456299	-0.392578	-0.757812	0.805290	0.191666	-0.353235	0.435886
59826		7.252078	0.003193	6.581772	0.025317	-0.047418	0.032690	-0.457275	-0.390869	-0.751709	0.804990	0.191928	-0.353504	0.436108
59827		7.238562	0.067763	6.517253	0.017745	-0.048013	0.029387	-0.455566	-0.391113	-0.760498	0.804704	0.192155	-0.353801	0.436295
59828		7.228024	0.077396	6.451933	0.012630	-0.057899	0.023915	-0.459717	-0.392822	-0.750732	0.804440	0.192386	-0.354179	0.436373
59829		7.220878	0.024118	6.456694	0.010823	-0.066266	0.024949	-0.474854	-0.397461	-0.750488	0.804122	0.192650	-0.354610	0.436493
59830		7.183346	-0.113112	6.512443	0.022726	-0.056062	0.036435	-0.458984	-0.392334	-0.757324	0.803741	0.192941	-0.354950	0.436790
59831		7.196844	-0.123433	6.553909	0.032099	-0.041664	0.058937	-0.454834	-0.392090	-0.749756	0.803359	0.193144	-0.355200	0.437200
59832		7.217478	-0.107656	6.617961	0.037947	-0.031681	0.078282	-0.466309	-0.392578	-0.754395	0.802920	0.193298	-0.355377	0.437793
59833		7.253138	-0.096376	6.670938	0.048748	-0.018291	0.095590	-0.466797	-0.398193	-0.755371	0.802432	0.193425	-0.355473	0.438552
59834		7.217473	-0.049803	6.674876	0.049103	-0.017295	0.107255	-0.474121	-0.390137	-0.755615	0.801895	0.193525	-0.355557	0.439423
59835		7.189930	-0.007590	6.690603	0.040503	-0.014221	0.102687	-0.466797	-0.391602	-0.754883	0.801404	0.193559	-0.355687	0.440197
59836		7.126092	0.013098	6.596072	0.021265	-0.013977	0.092136	-0.474854	-0.397949	-0.744873	0.800992	0.193492	-0.355849	0.440845
59837		7.178426	0.084918	6.620481	0.009615	-0.021393	0.075764	-0.472168	-0.390137	-0.754883	0.800590	0.193453	-0.356048	0.441431
59838		7.249358	0.130184	6.642052	-0.006905	-0.011055	0.059792	-0.470703	-0.391602	-0.745361	0.800347	0.193284	-0.356250	0.441783
59839		7.241361	0.091013	6.656161	-0.020700	0.001550	0.040297	-0.470703	-0.391602	-0.750732	0.800214	0.193050	-0.356365	0.442033
59840		7.185991	0.082689	6.620955	-0.029215	0.012023	0.022755	-0.477783	-0.394531	-0.748047	0.800201	0.192766	-0.356417	0.442139
59841		7.189734	0.034365	6.605146	-0.033676	0.003019	0.009100	-0.472900	-0.381348	-0.750977	0.800193	0.192541	-0.356517	0.442170
59842		7.291587	-0.040416	6.585008	-0.016927	-0.001236	0.003510	-0.468262	-0.389160	-0.750000	0.800208	0.192429	-0.356622	0.442108
59843		7.322765	-0.116226	6.576843	-0.014392	0.002177	0.007117	-0.470947	-0.387451	-0.754883	0.800204	0.192324	-0.356660	0.442131
59844		7.304034	-0.205005	6.525730	-0.004915	0.006312	0.009558	-0.472168	-0.391602	-0.753418	0.800196	0.192253	-0.356654	0.442180
59845		7.227398	-0.189706	6.474249	-0.006559	0.001856	0.012731	-0.474365	-0.388916	-0.748291	0.800152	0.192188	-0.356673	0.442273
59846		7.202816	-0.181493	6.439493	-0.012738	-0.000767	0.016820	-0.475098	-0.388428	-0.754883	0.800086	0.192083	-0.356746	0.442378
59847		7.203318	-0.188920	6.474644	-0.006368	-0.007287	0.024025	-0.473877	-0.384766	-0.747070	0.799977	0.192014	-0.356859	0.442514
59848		7.171918	-0.182058	6.462593	-0.005349	-0.014702	0.030995	-0.471924	-0.384033	-0.744141	0.799813	0.191962	-0.357032	0.442694
59849		7.192585	-0.209419	6.421148	-0.000248	-0.030746	0.038267	-0.477783	-0.387451	-0.747803	0.799564	0.191983	-0.357300	0.442918
59850		7.248123	-0.228560	6.505463	0.000018	-0.037847	0.042380	-0.475098	-0.383301	-0.746582	0.799270	0.192025	-0.357619	0.443173
