// Start Time: Unknown
// Update Rate: 60.0Hz
// Filter Profile: human (46.1)
// Firmware Version: 4.6.0
PacketCounter	SampleTimeFine	Acc_X	Acc_Y	Acc_Z	Gyr_X	Gyr_Y	Gyr_Z	Mag_X	Mag_Y	Mag_Z	Quat_q0	Quat_q1	Quat_q2	Quat_q3
05288		11.861275	1.607505	7.562921	0.118722	0.036059	-0.149869	-0.325439	0.163086	-0.840820	0.847602	-0.058543	-0.479132	-0.220400
05289		10.448021	1.163593	7.926333	0.081223	-0.004627	-0.306332	-0.317627	0.156982	-0.837646	0.847057	-0.056755	-0.479462	-0.222237
05290		9.317694	0.026454	8.729067	0.088985	-0.291372	-0.432947	-0.331543	0.155273	-0.839355	0.845131	-0.054932	-0.481874	-0.224796
05291		8.548570	-1.048047	8.927939	0.136915	-0.283612	-0.510073	-0.343262	0.150879	-0.829346	0.843109	-0.052463	-0.484320	-0.227701
05292		7.510142	-0.777150	8.479114	0.201238	-0.210077	-0.488986	-0.342041	0.145264	-0.832520	0.841477	-0.049529	-0.486278	-0.230210
05293		6.292577	0.442027	8.154023	0.125108	-0.122174	-0.440747	-0.337158	0.145264	-0.835449	0.840313	-0.047205	-0.487335	-0.232704
05294		5.618561	1.646083	7.943026	-0.014409	-0.068014	-0.450271	-0.341309	0.140137	-0.825439	0.839363	-0.045725	-0.487596	-0.235860
05295		5.468758	2.230553	7.925187	-0.186567	-0.051148	-0.542508	-0.338379	0.139893	-0.826904	0.838307	-0.044995	-0.487259	-0.240407
05296		5.782798	1.652505	7.900070	-0.288298	-0.069774	-0.665198	-0.355713	0.138672	-0.824707	0.836962	-0.044435	-0.486689	-0.246279
05297		6.696286	-0.619598	7.709897	-0.292598	-0.103850	-0.717052	-0.351562	0.137939	-0.829102	0.835444	-0.043724	-0.486142	-0.252560
05298		7.676507	-2.957684	7.289462	-0.256163	-0.088557	-0.650577	-0.360840	0.144287	-0.824707	0.834236	-0.043123	-0.485314	-0.258188
05299		7.645577	-2.918835	6.835374	-0.180221	0.065593	-0.402809	-0.364258	0.144531	-0.829102	0.834330	-0.042991	-0.483287	-0.261685
05300		7.016477	-1.421780	6.471071	-0.152508	0.097346	-0.091250	-0.357910	0.141357	-0.828125	0.835361	-0.044189	-0.480812	-0.262754
05301		7.153302	-0.161069	6.161967	-0.162536	-0.005214	0.137779	-0.346924	0.146729	-0.821533	0.836557	-0.046797	-0.478815	-0.262143
05302		7.080735	0.173007	5.745100	-0.196127	-0.053975	0.231368	-0.356445	0.151367	-0.827148	0.837763	-0.050179	-0.477018	-0.260940
05303		6.941637	-0.190610	5.457637	-0.188464	-0.095027	0.223057	-0.361084	0.164795	-0.827637	0.838905	-0.053726	-0.475315	-0.259670
05304		6.856414	-0.868482	5.356001	-0.141755	-0.080689	0.175673	-0.365479	0.163574	-0.819092	0.840109	-0.056876	-0.473527	-0.258370
05305		6.883329	-1.400735	5.157613	-0.062570	-0.039176	0.139738	-0.361328	0.167969	-0.820312	0.841325	-0.059273	-0.471850	-0.256938
05306		6.890807	-1.685455	4.966994	0.018316	-0.001770	0.135252	-0.360596	0.173340	-0.816895	0.842747	-0.061158	-0.470023	-0.255177
05307		6.826427	-1.638634	4.832058	0.075025	0.023763	0.149851	-0.356934	0.164307	-0.822266	0.844328	-0.062777	-0.468233	-0.252837
05308		6.619699	-1.407838	4.606096	0.128947	0.043219	0.189887	-0.356201	0.161133	-0.823730	0.846019	-0.064297	-0.466303	-0.250360
05309		6.322407	-0.934660	4.390426	0.185088	0.030783	0.196836	-0.357178	0.161865	-0.819824	0.847665	-0.065616	-0.464588	-0.247624
05310		6.276291	-0.334235	4.109771	0.226787	-0.028052	0.154579	-0.362793	0.167725	-0.825439	0.848940	-0.066527	-0.463690	-0.244675
05311		6.506816	0.109154	4.042388	0.253037	-0.103657	0.069303	-0.359619	0.160400	-0.827148	0.850151	-0.067696	-0.462809	-0.241801
05312		6.777583	0.188560	3.995832	0.273877	-0.141023	-0.033884	-0.365723	0.153564	-0.822266	0.850769	-0.068133	-0.462530	-0.240034
05313		7.016130	-0.066966	4.059906	0.298676	-0.172506	-0.120628	-0.354004	0.154053	-0.819824	0.850862	-0.067870	-0.463162	-0.238554
05314		7.334550	-0.352823	4.309333	0.360879	-0.187433	-0.154467	-0.366211	0.147949	-0.817627	0.850547	-0.066001	-0.464617	-0.237371
05315		7.658431	-0.659214	4.692553	0.452893	-0.141163	-0.140552	-0.365234	0.136475	-0.816650	0.850616	-0.063968	-0.465877	-0.235200
05316		8.102105	-0.854252	5.162402	0.548163	-0.049390	-0.091946	-0.365479	0.125488	-0.823486	0.850909	-0.060950	-0.467006	-0.232690
05317		8.371936	-0.835879	5.530583	0.592163	0.085649	-0.011813	-0.368652	0.112549	-0.818604	0.851947	-0.058155	-0.466822	-0.229959
05318		8.249519	-0.392736	5.691852	0.520993	0.151040	0.076449	-0.360840	0.105469	-0.831299	0.853158	-0.055832	-0.466571	-0.226531
05319		8.234134	0.532492	5.943193	0.359556	0.087126	0.158148	-0.360840	0.102295	-0.827637	0.854314	-0.055605	-0.465719	-0.223968
05320		8.736648	1.546957	5.716844	0.147058	0.018470	0.204298	-0.359131	0.102295	-0.829834	0.855154	-0.056776	-0.465234	-0.221463
05321		9.823567	1.457206	5.062569	-0.054490	-0.075133	0.213646	-0.360352	0.107422	-0.824219	0.855545	-0.059531	-0.464959	-0.219801
05322		11.014001	0.039357	6.085483	-0.163398	-0.052546	0.213440	-0.359131	0.105225	-0.825439	0.855911	-0.062491	-0.464716	-0.218061
05323		12.027899	-0.767179	7.763850	-0.233244	0.135934	0.220443	-0.350342	0.120361	-0.823975	0.856775	-0.065695	-0.463152	-0.217051
05324		11.984319	0.344969	7.429852	-0.243491	0.165972	0.292615	-0.348389	0.117432	-0.826904	0.858065	-0.068823	-0.461165	-0.215208
05325		10.424829	0.698806	8.328282	-0.277422	-0.086883	0.345524	-0.345947	0.126465	-0.830322	0.858252	-0.073082	-0.461009	-0.213383
05326		9.376118	1.132368	9.206125	-0.283870	-0.079396	0.423881	-0.354980	0.117676	-0.828125	0.858704	-0.077866	-0.460331	-0.211327
05327		7.580831	1.247235	8.512353	-0.472379	-0.010680	0.389948	-0.353760	0.132812	-0.825439	0.859024	-0.083822	-0.459102	-0.210422
05328		6.167316	-0.270768	7.788881	-0.454774	-0.077576	0.334888	-0.357910	0.145996	-0.823242	0.859221	-0.089272	-0.458130	-0.209494
05329		5.633130	-1.797064	7.775853	-0.308117	-0.073871	0.314659	-0.355225	0.145020	-0.826172	0.859706	-0.093711	-0.457097	-0.207814
05330		6.126465	-2.132166	7.648666	-0.111729	-0.060293	0.387814	-0.355713	0.145264	-0.825439	0.860441	-0.097066	-0.456062	-0.205490
05331		6.899276	-1.757589	7.702327	0.013007	-0.065949	0.430977	-0.347656	0.153809	-0.818604	0.861345	-0.099651	-0.455176	-0.202408
05332		7.628279	0.067458	7.818718	0.106414	-0.022162	0.426194	-0.361084	0.147705	-0.821777	0.862609	-0.100658	-0.454259	-0.198550
05333		8.245538	2.300644	7.545455	0.121750	0.038210	0.311166	-0.350098	0.155029	-0.829590	0.863889	-0.101690	-0.452886	-0.195571
05334		7.850122	2.630186	7.040505	0.057754	0.137129	0.100824	-0.341797	0.152588	-0.823242	0.865216	-0.102299	-0.450388	-0.195157
05335		6.762408	1.465359	6.495333	0.033657	0.217904	-0.119372	-0.348877	0.152344	-0.828613	0.866340	-0.101095	-0.447996	-0.196304
05336		6.095933	0.591562	5.732084	0.078459	0.149701	-0.234888	-0.349365	0.148926	-0.836182	0.867142	-0.099814	-0.445958	-0.198047
05337		6.095227	0.123521	5.439495	0.137016	0.010983	-0.263738	-0.343506	0.143799	-0.838135	0.867429	-0.098671	-0.444707	-0.200165
05338		6.353919	-0.056925	5.505572	0.180143	-0.017372	-0.213820	-0.350098	0.143799	-0.838379	0.867625	-0.097323	-0.443715	-0.202167
05339		6.485722	0.235639	5.343456	0.166998	0.056422	-0.146290	-0.348145	0.135986	-0.833008	0.868291	-0.096328	-0.442078	-0.203368
05340		6.601286	0.794790	5.139032	0.140179	0.071029	-0.080045	-0.346924	0.138916	-0.842285	0.868946	-0.095128	-0.440766	-0.203981
05341		6.619383	1.351816	5.137225	0.104610	0.076491	-0.043338	-0.350342	0.148682	-0.839844	0.869742	-0.094949	-0.438807	-0.204894
05342		6.432896	1.442888	4.863587	0.052699	0.129154	-0.039145	-0.350098	0.133057	-0.825439	0.870869	-0.094916	-0.436536	-0.204976
05343		6.150398	1.159314	4.455875	-0.012245	0.140640	-0.045715	-0.345703	0.133301	-0.835938	0.871636	-0.093904	-0.435296	-0.204817
05344		5.896181	0.695300	4.233161	-0.065526	0.090021	-0.039128	-0.342285	0.135254	-0.840576	0.872167	-0.094089	-0.433770	-0.205707
05345		6.136430	0.230871	4.170151	-0.102107	0.041096	-0.013105	-0.345703	0.140869	-0.839844	0.872526	-0.094955	-0.432330	-0.206814
05346		6.673206	0.126080	4.199845	-0.146742	0.028087	0.031095	-0.349609	0.139893	-0.832031	0.872948	-0.096322	-0.430949	-0.207286
05347		6.918250	0.282867	4.324129	-0.209776	0.029626	0.095772	-0.343506	0.151855	-0.834717	0.873344	-0.097881	-0.429947	-0.206966
05348		6.908381	0.590858	4.536489	-0.289565	-0.001908	0.130916	-0.347168	0.149658	-0.843994	0.873679	-0.100424	-0.428844	-0.206622
05349		6.944008	0.978352	4.802255	-0.396456	-0.051887	0.116201	-0.344482	0.159668	-0.836914	0.873638	-0.104309	-0.427493	-0.207668
05350		7.285786	1.130036	5.099522	-0.503068	-0.112182	0.070812	-0.338379	0.161377	-0.831299	0.873171	-0.108543	-0.426805	-0.208874
05351		8.073229	0.920200	5.840635	-0.522362	-0.149118	0.029785	-0.340088	0.180664	-0.824707	0.872291	-0.112509	-0.426700	-0.210660
05352		8.581887	0.102103	6.250768	-0.442387	-0.029474	0.028242	-0.345459	0.179443	-0.840332	0.872043	-0.115528	-0.426014	-0.211440
05353		8.294508	-1.000295	5.683037	-0.265693	0.078213	0.059860	-0.344482	0.185059	-0.823975	0.872357	-0.117995	-0.424043	-0.212740
05354		8.740740	-2.051283	4.867431	-0.041714	-0.021840	0.070744	-0.353027	0.188232	-0.827881	0.872503	-0.118308	-0.424020	-0.212010
05355		10.047358	-1.857834	4.620307	0.106918	-0.037488	0.037749	-0.335693	0.184814	-0.823486	0.872721	-0.117793	-0.424226	-0.210986
05356		11.068423	-0.097292	5.366510	0.178371	0.050344	0.002234	-0.338867	0.173584	-0.829102	0.873119	-0.116225	-0.424254	-0.210152
05357		11.938511	1.495860	6.904916	0.226135	0.094600	-0.066098	-0.338867	0.178223	-0.817871	0.873480	-0.114172	-0.424031	-0.210227
05358		12.101416	2.068527	7.411805	0.203558	0.169620	-0.216849	-0.341553	0.175293	-0.825439	0.873848	-0.111177	-0.423868	-0.210629
05359		10.020357	1.616030	7.113883	0.111127	0.110367	-0.331650	-0.331055	0.172363	-0.827148	0.873714	-0.108832	-0.423842	-0.212454
05360		8.565151	0.236684	8.286619	0.065395	-0.301933	-0.429464	-0.345215	0.162598	-0.824463	0.871914	-0.107122	-0.426759	-0.214868
05361		8.240338	-1.527481	9.480956	0.151460	-0.352436	-0.521095	-0.351074	0.160400	-0.823730	0.869764	-0.104517	-0.430331	-0.217719
05362		7.313776	-2.222353	9.031326	0.271054	-0.150627	-0.534401	-0.342529	0.156250	-0.819092	0.868469	-0.100707	-0.432513	-0.220347
05363		6.008814	-0.766523	8.391145	0.307804	-0.070238	-0.461803	-0.343994	0.151855	-0.826660	0.867714	-0.096543	-0.434093	-0.222069
05364		5.442790	1.260777	7.980487	0.231852	-0.037077	-0.432478	-0.357178	0.145264	-0.822754	0.867162	-0.093185	-0.434925	-0.224023
05365		5.594154	2.269834	7.990564	0.070760	-0.087902	-0.532182	-0.363525	0.147461	-0.820068	0.866032	-0.090723	-0.436012	-0.227268
05366		6.212368	2.117054	8.131603	-0.057015	-0.079178	-0.650632	-0.368408	0.132812	-0.833496	0.864617	-0.088777	-0.436850	-0.231771
05367		7.079459	0.309527	8.006237	-0.127601	-0.050685	-0.688885	-0.365967	0.131592	-0.813477	0.863154	-0.087261	-0.437030	-0.237395
05368		8.280325	-1.737700	7.370361	-0.185033	-0.066763	-0.589082	-0.371338	0.132812	-0.824463	0.861711	-0.086121	-0.437593	-0.241971
05369		8.340110	-2.031177	6.810231	-0.192558	0.073548	-0.309833	-0.364990	0.136963	-0.823486	0.861390	-0.086127	-0.436584	-0.244916
05370		7.524529	-0.851304	6.291355	-0.215452	0.161920	0.009565	-0.366455	0.137451	-0.823242	0.862089	-0.087274	-0.434631	-0.245523
05371		6.954889	-0.016462	5.714991	-0.256812	0.100561	0.187632	-0.370850	0.147949	-0.817627	0.862837	-0.089530	-0.432962	-0.245031
05372		6.488774	0.165806	5.220213	-0.281334	0.032414	0.226310	-0.368652	0.153564	-0.820312	0.863317	-0.092367	-0.431838	-0.244272
05373		6.316915	-0.033002	5.101406	-0.279537	-0.011937	0.167196	-0.361816	0.150146	-0.826416	0.863536	-0.095106	-0.430996	-0.243933
05374		6.270171	-0.429251	5.029713	-0.262433	-0.002113	0.087611	-0.368652	0.165039	-0.821289	0.863704	-0.097270	-0.430049	-0.244154
05375		6.492641	-0.909546	4.809243	-0.213703	-0.007170	0.039776	-0.362061	0.157715	-0.815186	0.863733	-0.099162	-0.429348	-0.244525
05376		6.881295	-1.322776	4.707539	-0.153620	-0.028214	0.034429	-0.364746	0.174316	-0.814697	0.863690	-0.100355	-0.429111	-0.244606
05377		6.972564	-1.571430	4.459189	-0.081124	-0.024686	0.049233	-0.364990	0.160400	-0.818848	0.863774	-0.101382	-0.428886	-0.244279
05378		6.762118	-1.513990	4.160492	0.018017	-0.024804	0.048351	-0.372803	0.172607	-0.815186	0.863903	-0.101511	-0.428902	-0.243742
05379		6.589052	-1.158785	3.763559	0.122466	-0.072320	0.032532	-0.368896	0.170166	-0.806396	0.863840	-0.101258	-0.429526	-0.242971
05380		6.559191	-0.599141	3.650154	0.230737	-0.147335	-0.006930	-0.372070	0.168213	-0.825928	0.863485	-0.100110	-0.431124	-0.241877
05381		6.516105	-0.209766	3.541778	0.312759	-0.205445	-0.050225	-0.375000	0.165771	-0.815674	0.863025	-0.098527	-0.432927	-0.240945
05382		6.654694	-0.038203	3.493286	0.377979	-0.304733	-0.080316	-0.380371	0.152344	-0.813965	0.862106	-0.096535	-0.435813	-0.239834
05383		7.121718	-0.130850	3.934947	0.443617	-0.384932	-0.089589	-0.383301	0.155273	-0.813477	0.860873	-0.094058	-0.439512	-0.238494
05384		7.875574	-0.437629	4.570483	0.520345	-0.323564	-0.067514	-0.382568	0.138184	-0.811035	0.859979	-0.091152	-0.442802	-0.236757
05385		8.716296	-0.685755	5.078429	0.606625	-0.154652	-0.023943	-0.390869	0.135986	-0.817139	0.859866	-0.087171	-0.445091	-0.234363
05386		8.929651	-0.728467	5.451267	0.637283	0.038077	0.011543	-0.385742	0.123291	-0.808105	0.860504	-0.083011	-0.445916	-0.231949
05387		8.733008	-0.356970	5.808001	0.561212	0.152159	0.060741	-0.388184	0.121826	-0.812988	0.861567	-0.079114	-0.445940	-0.229306
05388		8.529447	0.387737	6.175884	0.388083	0.179284	0.125374	-0.380371	0.111328	-0.821289	0.862688	-0.076882	-0.445324	-0.227034
05389		8.630868	1.264379	5.583736	0.197773	0.127930	0.169717	-0.376953	0.106689	-0.816650	0.863664	-0.076121	-0.444571	-0.225050
05390		9.379616	1.201700	4.648819	0.072388	-0.070445	0.181802	-0.377686	0.111572	-0.817627	0.863828	-0.076517	-0.445121	-0.223192
05391		10.110659	-0.062234	4.705804	0.030463	-0.055964	0.182046	-0.373047	0.104492	-0.811523	0.863995	-0.077316	-0.445454	-0.221595
05392		10.670935	-1.731996	6.318053	-0.011276	0.137927	0.192954	-0.375488	0.106934	-0.813477	0.864905	-0.077790	-0.444435	-0.219923
05393		11.349588	-1.229665	7.224364	-0.021546	0.296309	0.307350	-0.367432	0.108887	-0.822021	0.866547	-0.078620	-0.442188	-0.217682
05394		11.184536	1.005273	7.465815	-0.065206	0.114912	0.477874	-0.369141	0.110352	-0.823730	0.867852	-0.080744	-0.440921	-0.214249
05395		10.208867	1.748944	8.554384	-0.148175	-0.103898	0.567867	-0.362305	0.118896	-0.821533	0.868402	-0.084191	-0.441058	-0.210374
05396		9.118452	2.435245	9.338521	-0.309137	-0.051575	0.578513	-0.370361	0.122314	-0.820801	0.869087	-0.088683	-0.440446	-0.206955
05397		7.428604	2.263616	8.710265	-0.576375	-0.009658	0.459603	-0.373047	0.131348	-0.814453	0.869429	-0.094578	-0.439223	-0.205502
05398		5.928231	0.594325	7.785614	-0.593666	0.013124	0.331256	-0.364014	0.144775	-0.819092	0.869551	-0.100028	-0.437980	-0.205057
05399		5.457458	-1.679841	7.841959	-0.372417	0.033630	0.287594	-0.363525	0.146973	-0.820312	0.869956	-0.103654	-0.436790	-0.204077
05400		6.378933	-2.903066	7.894642	-0.151748	-0.024309	0.368936	-0.366943	0.149170	-0.822998	0.870509	-0.105963	-0.436306	-0.201553
05401		7.279795	-2.487762	7.808484	0.023158	-0.036789	0.477976	-0.358154	0.153320	-0.819580	0.871334	-0.107455	-0.436085	-0.197634
05402		8.109496	-0.359461	7.795415	0.152485	-0.001852	0.523049	-0.359863	0.156738	-0.826904	0.872536	-0.108030	-0.435722	-0.192762
05403		8.511072	2.337659	7.520747	0.191476	0.075237	0.430193	-0.356934	0.153320	-0.827637	0.873877	-0.107979	-0.434849	-0.188641
05404		7.869000	3.017171	6.983544	0.095503	0.149793	0.183248	-0.360352	0.156738	-0.832031	0.875021	-0.107481	-0.433527	-0.186656
05405		6.896830	1.934597	6.293811	0.043187	0.211352	-0.078670	-0.355713	0.157227	-0.820312	0.875857	-0.106487	-0.431893	-0.187089
05406		6.558874	0.962401	5.647079	0.073545	0.131507	-0.234965	-0.357178	0.148926	-0.819580	0.876121	-0.104829	-0.431155	-0.188489
05407		6.644604	0.341569	5.481835	0.117695	0.039276	-0.292543	-0.352783	0.155518	-0.834229	0.875976	-0.102671	-0.431291	-0.190032
05408		6.751588	-0.040361	5.428321	0.144549	0.086182	-0.262929	-0.355713	0.138428	-0.834717	0.876167	-0.100499	-0.430830	-0.191354
05409		6.694545	0.149644	5.261199	0.129453	0.142420	-0.191017	-0.359863	0.144287	-0.832520	0.876659	-0.098325	-0.430007	-0.192081
05410		6.800208	0.852921	5.181757	0.083226	0.153594	-0.134868	-0.354736	0.132568	-0.836670	0.877109	-0.097007	-0.429003	-0.192939
05411		6.929332	1.530259	5.203294	0.012309	0.198837	-0.123520	-0.350830	0.136230	-0.838135	0.877772	-0.095858	-0.427558	-0.193702
05412		6.755732	1.771080	4.970249	-0.081112	0.252127	-0.155506	-0.346191	0.145020	-0.838135	0.878491	-0.095272	-0.425560	-0.195131
05413		6.382615	1.623249	4.581735	-0.197156	0.263404	-0.187128	-0.347900	0.143066	-0.843262	0.879071	-0.095576	-0.423266	-0.197343
05414		6.215419	1.288138	4.312271	-0.295797	0.242105	-0.192807	-0.342773	0.139648	-0.844238	0.879449	-0.096594	-0.421000	-0.199995
05415		6.193859	0.768533	4.253703	-0.379753	0.196430	-0.158913	-0.341553	0.148682	-0.837891	0.879689	-0.098227	-0.418929	-0.202477
05416		6.323637	0.302074	4.101633	-0.428868	0.171859	-0.099260	-0.337646	0.154297	-0.849854	0.879810	-0.100627	-0.416953	-0.204840
05417		6.410714	0.025294	3.877227	-0.474970	0.140414	-0.041678	-0.326660	0.169189	-0.837402	0.879967	-0.103529	-0.414957	-0.206762
05418		6.354827	-0.112906	3.901539	-0.466961	0.038784	0.000315	-0.333984	0.179443	-0.837646	0.879835	-0.106794	-0.413678	-0.208219
05419		6.385185	-0.064975	4.253526	-0.452199	-0.037878	0.025666	-0.324951	0.181396	-0.834473	0.879371	-0.110382	-0.412993	-0.209662
05420		7.052782	0.111760	4.856841	-0.435312	-0.087659	0.057274	-0.335938	0.180908	-0.844482	0.878912	-0.113801	-0.412654	-0.210429
05421		7.966303	0.340179	5.599184	-0.418972	-0.085106	0.102426	-0.341553	0.186279	-0.836182	0.878520	-0.117189	-0.412307	-0.210886
05422		8.550175	0.179123	5.961619	-0.374605	0.008819	0.160592	-0.325439	0.199707	-0.830811	0.878474	-0.120389	-0.411393	-0.211058
05423		8.469701	-0.653497	6.093673	-0.221277	0.068843	0.204410	-0.330078	0.200928	-0.831299	0.878993	-0.122446	-0.410149	-0.210134
05424		8.421221	-1.630908	5.846116	0.012676	0.084695	0.237362	-0.328369	0.209717	-0.827881	0.879788	-0.122912	-0.409228	-0.208322
05425		8.894310	-1.974257	4.966581	0.206077	0.052881	0.238468	-0.326416	0.206543	-0.828613	0.880606	-0.122226	-0.408858	-0.205985
05426		9.800125	-1.153413	4.506146	0.296229	-0.019767	0.189591	-0.329102	0.203369	-0.832520	0.881176	-0.120817	-0.409244	-0.203595
05427		11.017485	0.573566	5.353520	0.354787	-0.064041	0.082051	-0.332520	0.187744	-0.826416	0.881438	-0.118720	-0.410177	-0.201809
05428		11.956625	2.078764	6.979591	0.366972	0.073553	-0.084241	-0.325928	0.181641	-0.829590	0.881843	-0.115587	-0.410446	-0.201314
05429		11.859512	2.328380	7.653968	0.325954	0.196927	-0.265501	-0.323730	0.175049	-0.835693	0.882390	-0.111805	-0.409872	-0.202217
05430		10.234376	1.506332	7.786587	0.218238	0.106877	-0.356196	-0.319336	0.181885	-0.841064	0.882392	-0.108597	-0.409841	-0.204013
05431		8.805369	0.040667	8.499592	0.146943	-0.284103	-0.406886	-0.324707	0.172607	-0.836914	0.880915	-0.106570	-0.412473	-0.206148
05432		8.320162	-1.765416	9.310454	0.246940	-0.363573	-0.445924	-0.330811	0.171387	-0.829346	0.879167	-0.103721	-0.415935	-0.208100
05433		7.283788	-2.720387	8.823638	0.386038	-0.161907	-0.439733	-0.329590	0.153809	-0.824951	0.878167	-0.099686	-0.418143	-0.209862
05434		5.914095	-1.125879	7.919259	0.461655	0.015185	-0.320981	-0.338623	0.153320	-0.836426	0.878112	-0.094953	-0.419114	-0.210350
05435		5.358314	1.046433	7.860621	0.363756	0.033826	-0.245005	-0.334717	0.137939	-0.833740	0.878105	-0.091390	-0.419644	-0.210899
05436		5.750235	2.514773	8.455383	0.157361	-0.020705	-0.329185	-0.344727	0.132324	-0.823242	0.877665	-0.088889	-0.420299	-0.212488
05437		6.493404	3.096846	8.314849	-0.025991	0.031211	-0.431197	-0.338867	0.141113	-0.829102	0.876897	-0.087468	-0.420459	-0.215906
05438		7.089759	1.633968	7.994907	-0.121625	0.020821	-0.480945	-0.344238	0.133057	-0.831543	0.875998	-0.086670	-0.420387	-0.219977
05439		8.144210	-0.930142	7.523526	-0.167682	-0.022179	-0.454764	-0.350098	0.148193	-0.834473	0.874954	-0.086241	-0.420572	-0.223913
05440		8.106944	-2.394865	6.918128	-0.197606	0.113648	-0.294711	-0.351807	0.136963	-0.832275	0.874535	-0.086758	-0.419511	-0.227314
05441		7.171330	-1.870852	6.147233	-0.209882	0.201500	-0.032129	-0.345703	0.144287	-0.826904	0.874932	-0.087876	-0.417699	-0.228688
05442		6.486033	-0.904087	5.542522	-0.231472	0.116235	0.167307	-0.351074	0.148682	-0.827148	0.875366	-0.090131	-0.416298	-0.228708
05443		6.108540	-0.433291	5.190154	-0.228614	0.026766	0.247863	-0.347168	0.157715	-0.829590	0.875558	-0.092911	-0.415547	-0.228222
05444		6.029628	-0.324177	5.038908	-0.214695	-0.003703	0.224010	-0.345215	0.151855	-0.833496	0.875635	-0.095611	-0.414987	-0.227832
05445		6.056770	-0.499278	4.921410	-0.170422	-0.002604	0.164861	-0.339600	0.164307	-0.827637	0.875764	-0.097446	-0.414571	-0.227317
05446		6.263916	-0.869545	4.859450	-0.112055	0.001952	0.093559	-0.349609	0.165283	-0.828369	0.875768	-0.098833	-0.414217	-0.227346
05447		6.581121	-1.202860	4.754101	-0.054614	-0.012177	0.044590	-0.344727	0.165771	-0.831787	0.875592	-0.099722	-0.414207	-0.227655
05448		6.682788	-1.393030	4.544166	-0.018588	-0.021432	0.010747	-0.344238	0.167725	-0.833008	0.875427	-0.100166	-0.414299	-0.227928
05449		6.533306	-1.341328	4.179147	0.034525	-0.044364	-0.006690	-0.346436	0.171875	-0.821777	0.875193	-0.100245	-0.414651	-0.228150
05450		6.441093	-0.924473	3.881188	0.107953	-0.111063	-0.033364	-0.349609	0.164307	-0.825439	0.874636	-0.100009	-0.415708	-0.228467
05451		6.421432	-0.352681	3.914796	0.168439	-0.173044	-0.072799	-0.348877	0.156250	-0.830566	0.873904	-0.099124	-0.417399	-0.228571
05452		6.312918	0.124074	3.955258	0.205672	-0.201196	-0.122728	-0.357910	0.161377	-0.825195	0.873109	-0.097649	-0.419376	-0.228625
05453		6.397163	0.065970	4.167664	0.249950	-0.256002	-0.173734	-0.349854	0.156494	-0.819580	0.871898	-0.096094	-0.421906	-0.229247
05454		7.024912	-0.562485	4.674645	0.324634	-0.267328	-0.198701	-0.363037	0.157227	-0.821533	0.870740	-0.093832	-0.424603	-0.229608
05455		7.744351	-1.221338	5.102102	0.431755	-0.185249	-0.177241	-0.360840	0.144287	-0.826904	0.869854	-0.090970	-0.426917	-0.229826
05456		8.052712	-1.389078	5.093722	0.518386	-0.102530	-0.125953	-0.362061	0.143311	-0.823730	0.869532	-0.087283	-0.428709	-0.229139
05457		8.160521	-0.811754	5.126665	0.573488	-0.095613	-0.037133	-0.357422	0.127686	-0.814209	0.869349	-0.083721	-0.430468	-0.227861
05458		8.300699	0.067832	5.682622	0.504999	-0.103366	0.059719	-0.360840	0.115479	-0.833496	0.869388	-0.080672	-0.432144	-0.225628
05459		8.541744	1.079268	6.523161	0.309280	-0.043046	0.134266	-0.372070	0.118408	-0.825439	0.869697	-0.079113	-0.432880	-0.223571
05460		8.921053	2.031222	5.990930	0.074591	0.023533	0.152108	-0.367432	0.107178	-0.831787	0.869985	-0.079391	-0.432814	-0.222478
05461		9.634535	1.494833	4.525308	-0.080244	-0.097714	0.131592	-0.358887	0.111572	-0.817139	0.869846	-0.080569	-0.433336	-0.221579
05462		10.951351	-0.679975	5.117664	-0.066185	-0.237437	0.155393	-0.358643	0.116943	-0.826904	0.869277	-0.081958	-0.434877	-0.220278
05463		12.252561	-2.331505	7.718999	-0.044733	-0.015214	0.233925	-0.361572	0.114258	-0.823975	0.869635	-0.083261	-0.434672	-0.218775
05464		12.256605	-0.966406	8.064787	-0.091091	0.325250	0.381172	-0.353271	0.114746	-0.825195	0.871487	-0.084659	-0.431888	-0.216368
05465		10.657227	1.184902	8.126802	-0.172495	0.059691	0.528539	-0.357422	0.121826	-0.824707	0.872622	-0.087550	-0.430771	-0.212845
05466		9.521554	2.361092	8.995399	-0.233555	-0.232637	0.635494	-0.355957	0.125000	-0.824951	0.872767	-0.091861	-0.431633	-0.208641
05467		7.576510	2.782604	8.544619	-0.481192	-0.137203	0.525925	-0.364502	0.142578	-0.829102	0.872905	-0.097271	-0.431418	-0.206043
05468		6.213564	1.246548	7.330403	-0.537436	-0.167855	0.313148	-0.366211	0.140869	-0.818115	0.872370	-0.102671	-0.431466	-0.205589
05469		5.688610	-0.876259	7.216770	-0.399004	-0.167206	0.160606	-0.367920	0.150879	-0.819092	0.871780	-0.106126	-0.431991	-0.205232
05470		6.306639	-2.866231	7.881042	-0.241053	-0.118784	0.170945	-0.363281	0.153809	-0.816895	0.871481	-0.108523	-0.432366	-0.204460
05471		7.135789	-2.897085	7.879189	-0.075902	-0.065719	0.329518	-0.368652	0.154053	-0.820312	0.871839	-0.110139	-0.432443	-0.201888
05472		7.656365	-1.151777	7.973799	0.039943	0.026704	0.452550	-0.363037	0.154541	-0.822998	0.872833	-0.111156	-0.431959	-0.198037
05473		8.186773	1.707714	7.744755	0.159721	0.083106	0.453457	-0.364502	0.158203	-0.825195	0.874175	-0.111139	-0.431214	-0.193702
05474		8.072579	2.948453	7.209445	0.133197	0.150000	0.297711	-0.362061	0.154053	-0.821045	0.875412	-0.110764	-0.430078	-0.190834
05475		6.898888	2.025369	6.727796	0.065560	0.216702	0.055317	-0.356934	0.158203	-0.828125	0.876442	-0.109806	-0.428623	-0.189932
05476		6.192056	0.919462	5.860638	0.076604	0.190605	-0.134326	-0.356934	0.160645	-0.824707	0.877081	-0.108228	-0.427471	-0.190485
05477		6.099960	0.291894	5.269316	0.126570	0.013382	-0.224675	-0.353271	0.146973	-0.823975	0.876911	-0.106415	-0.427780	-0.191592
05478		6.440865	-0.205240	5.274671	0.210836	-0.080087	-0.242711	-0.359619	0.156006	-0.825928	0.876561	-0.103739	-0.428957	-0.192026
05479		6.708538	-0.086594	5.303054	0.249695	-0.010482	-0.207158	-0.355957	0.139160	-0.825928	0.876405	-0.101213	-0.429596	-0.192660
05480		6.779021	0.486500	5.100879	0.232044	0.057848	-0.152166	-0.358154	0.140625	-0.826904	0.876689	-0.098525	-0.429699	-0.192530
05481		6.778520	1.324359	5.023040	0.180099	0.079381	-0.109864	-0.359131	0.141846	-0.833008	0.877001	-0.096523	-0.429510	-0.192546
05482		6.721692	1.776453	4.857340	0.101415	0.128412	-0.112474	-0.360596	0.137939	-0.844482	0.877395	-0.095104	-0.428806	-0.193025
05483		6.334406	1.669841	4.484142	0.003978	0.163484	-0.129338	-0.352295	0.139404	-0.831787	0.877847	-0.094175	-0.427697	-0.193882
05484		6.074090	1.169680	4.155226	-0.096858	0.127223	-0.126026	-0.345703	0.140625	-0.836182	0.878059	-0.094157	-0.426680	-0.195169
05485		6.178802	0.590650	4.030149	-0.177948	0.049856	-0.094930	-0.355713	0.139404	-0.841309	0.878042	-0.094893	-0.426020	-0.196326
05486		6.751977	0.130613	4.145004	-0.233871	0.010152	-0.038055	-0.350586	0.140625	-0.835693	0.877883	-0.096294	-0.425592	-0.197283
05487		7.106370	0.071377	4.229346	-0.286755	0.049408	0.047460	-0.347900	0.141357	-0.833740	0.877984	-0.098269	-0.424714	-0.197749
05488		7.033339	0.366195	4.338036	-0.365724	0.067487	0.115838	-0.348145	0.149902	-0.838135	0.878219	-0.100947	-0.423531	-0.197896
05489		7.025583	0.639508	4.682904	-0.426440	0.009793	0.140063	-0.345947	0.150879	-0.828125	0.878225	-0.104286	-0.422630	-0.198063
05490		7.310120	0.874479	5.278683	-0.461275	-0.032584	0.119985	-0.354492	0.167236	-0.831543	0.877995	-0.107827	-0.422044	-0.198435
05491		7.785538	0.768229	5.430765	-0.483079	0.024081	0.088771	-0.343750	0.173584	-0.824951	0.877769	-0.111590	-0.421021	-0.199526
05492		7.971518	0.307231	5.542714	-0.406790	0.045095	0.071109	-0.345215	0.182129	-0.824219	0.877713	-0.114619	-0.419935	-0.200342
05493		8.210952	-0.469502	5.666189	-0.185293	0.050755	0.104023	-0.347900	0.182861	-0.833252	0.877897	-0.116218	-0.419145	-0.200268
05494		8.822786	-1.257611	5.135975	0.041822	0.074934	0.118824	-0.333984	0.184570	-0.824219	0.878454	-0.116037	-0.418563	-0.199144
05495		10.049216	-1.344283	4.852393	0.202354	0.025838	0.086693	-0.343506	0.179199	-0.817383	0.878979	-0.114670	-0.418572	-0.197594
05496		11.133127	-0.099073	5.770421	0.260749	0.054572	0.026236	-0.332275	0.174072	-0.825928	0.879410	-0.112785	-0.418621	-0.196659
05497		11.785757	1.207641	7.488111	0.303082	0.093071	-0.058776	-0.331787	0.174805	-0.838379	0.880037	-0.109964	-0.418472	-0.195763
05498		12.224581	1.568264	7.955858	0.256664	0.092360	-0.230210	-0.333252	0.161133	-0.824463	0.880375	-0.106862	-0.418366	-0.196191
05499		10.429831	1.250753	8.372771	0.268328	0.038570	-0.334683	-0.343262	0.164551	-0.830566	0.880262	-0.103437	-0.418851	-0.197492
05500		9.033956	0.365168	8.245595	0.246438	-0.170395	-0.431334	-0.350098	0.154297	-0.823730	0.879115	-0.100431	-0.420912	-0.199760
05501		7.467757	-0.766133	7.986922	0.218345	-0.303514	-0.500523	-0.350098	0.151855	-0.829346	0.877279	-0.097645	-0.424004	-0.202653
05502		6.327022	-0.461660	8.246807	0.196057	-0.240481	-0.462533	-0.353516	0.144775	-0.820312	0.875788	-0.094952	-0.426484	-0.205160
05503		6.081010	0.236883	8.216415	0.115110	-0.075025	-0.471691	-0.359619	0.133301	-0.826172	0.874748	-0.092595	-0.427630	-0.208268
05504		6.118286	0.950688	8.006669	0.053741	-0.032993	-0.557282	-0.355469	0.137207	-0.829102	0.873702	-0.090099	-0.428462	-0.212009
05505		6.606817	1.511340	7.980336	-0.040199	-0.021561	-0.681629	-0.364014	0.136719	-0.818848	0.872423	-0.087887	-0.429033	-0.216992
05506		7.192165	0.683253	7.969905	-0.111306	0.003776	-0.685124	-0.361816	0.135010	-0.828857	0.870970	-0.086429	-0.429325	-0.222757
05507		7.987585	-1.096710	7.652493	-0.150333	-0.013871	-0.567924	-0.367432	0.125488	-0.821777	0.869743	-0.085525	-0.429521	-0.227475
05508		8.298847	-1.976661	6.859413	-0.104555	0.068864	-0.316171	-0.370605	0.128418	-0.828613	0.869264	-0.084985	-0.429099	-0.230285
05509		7.540475	-1.242192	6.303546	-0.107048	0.136365	0.003333	-0.366211	0.132080	-0.827148	0.869631	-0.085517	-0.427943	-0.230853
05510		6.920431	-0.473038	5.745760	-0.135876	0.080011	0.237875	-0.367676	0.135986	-0.820068	0.870223	-0.087251	-0.426945	-0.229819
05511		6.408735	-0.077159	5.194339	-0.166925	0.032653	0.303520	-0.362549	0.145508	-0.820557	0.870653	-0.089677	-0.426214	-0.228611
05512		6.179514	0.014837	4.973789	-0.183913	-0.034806	0.248947	-0.366455	0.135010	-0.815918	0.870734	-0.092226	-0.425918	-0.227841
05513		6.133395	-0.162547	4.947275	-0.192656	-0.030641	0.158228	-0.362793	0.156006	-0.818604	0.870698	-0.094221	-0.425759	-0.227455
05514		6.164165	-0.419063	4.750438	-0.163634	-0.013363	0.082769	-0.365234	0.142822	-0.823486	0.870523	-0.096069	-0.425454	-0.227923
05515		6.517028	-0.828439	4.661872	-0.119015	-0.016158	0.023344	-0.364014	0.158936	-0.813477	0.870411	-0.096934	-0.425398	-0.228089
05516		6.963630	-1.096897	4.646788	-0.066116	0.018455	0.004946	-0.371582	0.165039	-0.822021	0.870257	-0.097748	-0.425133	-0.228822
05517		7.021982	-1.168291	4.438239	-0.014661	0.111481	-0.018687	-0.358887	0.154297	-0.824707	0.870378	-0.098033	-0.424319	-0.229749
05518		6.455764	-1.054848	4.053020	0.070764	0.137661	-0.035344	-0.367920	0.152832	-0.827148	0.870834	-0.097188	-0.423471	-0.229946
05519		6.118928	-0.649706	3.747392	0.152340	0.048550	-0.057744	-0.366211	0.161377	-0.826416	0.870923	-0.095902	-0.423525	-0.230050
05520		6.170707	-0.218971	3.827791	0.233420	-0.072726	-0.085267	-0.361572	0.148438	-0.820801	0.870496	-0.094463	-0.424566	-0.230344
05521		6.794776	-0.200095	4.199174	0.329123	-0.135193	-0.121942	-0.364746	0.147217	-0.824707	0.869956	-0.092054	-0.426302	-0.230149
05522		7.524849	-0.748955	4.704429	0.444294	-0.116007	-0.129197	-0.362793	0.139160	-0.815674	0.869521	-0.088843	-0.428095	-0.229729
05523		7.876933	-1.276937	4.961318	0.552968	-0.060609	-0.099805	-0.365967	0.124756	-0.822266	0.869411	-0.084827	-0.429678	-0.228706
05524		7.773010	-1.176020	4.784651	0.615923	-0.023076	-0.016088	-0.358887	0.122070	-0.822510	0.869691	-0.080385	-0.431075	-0.226604
05525		7.854286	-0.353147	4.867358	0.599600	-0.052396	0.112787	-0.365723	0.105469	-0.818359	0.870063	-0.076720	-0.432468	-0.223777
05526		8.255951	0.582393	5.560497	0.495255	-0.097989	0.229314	-0.357178	0.109863	-0.824951	0.870442	-0.074087	-0.434035	-0.220128
05527		8.779275	1.112602	6.400706	0.291390	-0.065718	0.274758	-0.366211	0.110596	-0.830322	0.870855	-0.073272	-0.434804	-0.217229
05528		9.278984	1.314879	6.095213	0.090664	-0.016735	0.236301	-0.361084	0.104736	-0.824463	0.871180	-0.073800	-0.434911	-0.215525
05529		10.190623	0.500352	5.113231	-0.001528	-0.044473	0.160040	-0.363281	0.102539	-0.824707	0.871284	-0.074573	-0.435115	-0.214424
05530		11.032125	-0.796479	5.565955	-0.011898	-0.120300	0.111665	-0.359619	0.096924	-0.826904	0.871040	-0.075291	-0.435915	-0.213539
05531		11.846315	-1.059127	7.195015	-0.049209	-0.000431	0.154149	-0.364746	0.103271	-0.820557	0.871375	-0.076012	-0.435733	-0.212286
05532		12.046224	0.637040	7.308050	-0.123268	0.241730	0.294571	-0.366699	0.105957	-0.819824	0.872694	-0.077532	-0.433618	-0.210639
05533		10.188780	1.483253	7.362511	-0.225635	0.015361	0.451284	-0.359863	0.106689	-0.821777	0.873362	-0.080765	-0.432926	-0.208065
05534		9.024765	1.295126	8.956463	-0.228673	-0.232220	0.564640	-0.354004	0.113037	-0.817627	0.873393	-0.084678	-0.433914	-0.204288
05535		8.000729	1.623813	9.522171	-0.355750	-0.116182	0.561253	-0.363525	0.124023	-0.816162	0.873756	-0.089277	-0.433772	-0.201049
05536		6.652094	0.938933	8.589214	-0.448883	-0.045533	0.503910	-0.360352	0.123291	-0.827393	0.874102	-0.094352	-0.433045	-0.198783
05537		5.516925	-0.494498	8.001767	-0.368666	-0.061687	0.446092	-0.359131	0.133545	-0.823975	0.874475	-0.098307	-0.432593	-0.196193
05538		5.733322	-1.756472	8.113028	-0.193431	-0.058518	0.475904	-0.361816	0.145264	-0.814209	0.875007	-0.101174	-0.432353	-0.192868
05539		6.244673	-1.872115	7.733761	-0.059002	0.037785	0.511453	-0.358643	0.139893	-0.823730	0.875929	-0.103294	-0.431595	-0.189220
05540		6.932111	-1.091852	7.537597	0.048336	0.064793	0.507404	-0.351807	0.145264	-0.821533	0.877141	-0.104244	-0.430821	-0.184797
05541		7.778502	1.357222	7.550366	0.156907	0.045082	0.399935	-0.366699	0.149658	-0.829590	0.878185	-0.104132	-0.430393	-0.180856
05542		8.119131	2.850028	7.018084	0.114024	0.124672	0.166848	-0.349121	0.154053	-0.825684	0.879005	-0.103542	-0.429595	-0.179100
05543		7.268200	2.244394	6.369889	0.060410	0.185342	-0.074969	-0.351318	0.149170	-0.834473	0.879676	-0.102456	-0.428346	-0.179422
05544		6.501135	1.173718	5.797364	0.072623	0.136265	-0.191631	-0.349121	0.142090	-0.823975	0.880036	-0.100800	-0.427610	-0.180349
05545		6.167413	0.483159	5.395922	0.100066	0.046770	-0.215586	-0.350342	0.137939	-0.829834	0.880039	-0.098972	-0.427634	-0.181285
05546		6.192959	-0.158066	5.235853	0.148226	0.011158	-0.178521	-0.348145	0.141113	-0.834717	0.880036	-0.096899	-0.427963	-0.181646
05547		6.380846	-0.337733	5.085502	0.188497	0.033687	-0.114117	-0.353271	0.135254	-0.837402	0.880239	-0.094820	-0.428073	-0.181497
05548		6.719857	-0.005116	5.033367	0.187921	0.037351	-0.054677	-0.355225	0.140137	-0.831543	0.880528	-0.092917	-0.428152	-0.180893
05549		7.088199	0.751693	5.021906	0.177153	0.098347	-0.015209	-0.338867	0.130371	-0.839355	0.880973	-0.091438	-0.427722	-0.180498
05550		6.991700	1.280531	4.802723	0.128748	0.175535	0.002927	-0.352051	0.132324	-0.843750	0.881886	-0.089861	-0.426559	-0.179582
05551		6.595116	1.421775	4.574364	0.061371	0.194447	0.009087	-0.339111	0.131348	-0.842285	0.882691	-0.088977	-0.425235	-0.179208
05552		6.368021	1.210243	4.489447	-0.015302	0.186622	0.004882	-0.341309	0.126953	-0.841064	0.883468	-0.088580	-0.423795	-0.178988
05553		6.316595	0.815907	4.367772	-0.097955	0.173671	0.014765	-0.335938	0.135254	-0.840576	0.884119	-0.088822	-0.422377	-0.179002
05554		6.558551	0.555883	4.272418	-0.183163	0.156492	0.047842	-0.330322	0.133301	-0.846680	0.884671	-0.089974	-0.420885	-0.179213
05555		6.704720	0.558860	4.303065	-0.279480	0.124983	0.086921	-0.334473	0.140381	-0.840820	0.885185	-0.091802	-0.419449	-0.179118
05556		6.654684	0.638955	4.449962	-0.353193	0.043504	0.106347	-0.331543	0.146240	-0.833008	0.885269	-0.094576	-0.418521	-0.179428
05557		6.778917	0.695106	4.410202	-0.415656	-0.053155	0.075988	-0.331055	0.143799	-0.842285	0.884873	-0.097943	-0.418225	-0.180261
05558		7.367658	0.701514	4.787128	-0.483265	-0.156700	0.016873	-0.337646	0.159912	-0.836182	0.884091	-0.101406	-0.418666	-0.181163
05559		8.005639	0.360974	5.612331	-0.471607	-0.188762	-0.018998	-0.339355	0.156982	-0.836670	0.883019	-0.105010	-0.419370	-0.182700
05560		8.233116	-0.134957	6.328353	-0.341783	-0.049103	0.012898	-0.337646	0.166016	-0.827393	0.882662	-0.107314	-0.419253	-0.183354
05561		8.107988	-0.983364	5.924938	-0.164373	0.086438	0.076954	-0.333252	0.174072	-0.834229	0.882964	-0.108527	-0.418316	-0.183325
05562		8.592699	-1.874226	4.532243	-0.011048	0.046622	0.092598	-0.333008	0.173340	-0.827393	0.883348	-0.108679	-0.417854	-0.182437
05563		9.714411	-1.359653	3.899198	0.036732	-0.058104	0.025668	-0.332275	0.166016	-0.828857	0.883245	-0.108518	-0.418306	-0.181993
05564		11.001382	0.397938	5.179682	0.060468	-0.078704	-0.070424	-0.336914	0.172852	-0.825684	0.883002	-0.107705	-0.419063	-0.181916
05565		12.246874	2.349093	7.168150	0.065503	0.011376	-0.222134	-0.334473	0.169678	-0.832031	0.882749	-0.106440	-0.419280	-0.183381
05566		12.635515	2.498660	7.679759	0.012082	0.123226	-0.401941	-0.330322	0.168457	-0.826904	0.882641	-0.104600	-0.418745	-0.186162
05567		10.331118	1.483005	8.007753	-0.024851	-0.030574	-0.498445	-0.333740	0.169434	-0.822510	0.881776	-0.103014	-0.419338	-0.189776
05568		8.744520	-0.589194	9.083530	-0.044946	-0.283878	-0.593394	-0.351562	0.169922	-0.832031	0.879767	-0.101801	-0.421823	-0.194195
05569		7.570138	-2.316679	9.509456	0.070018	-0.243557	-0.641038	-0.353271	0.163330	-0.819824	0.877862	-0.099518	-0.424277	-0.198606
05570		6.578736	-2.429880	8.757260	0.163660	-0.119900	-0.612809	-0.353027	0.151855	-0.817627	0.876434	-0.096559	-0.425931	-0.202789
05571		5.634935	-0.447341	8.041151	0.149913	-0.032870	-0.519343	-0.357666	0.152344	-0.822266	0.875487	-0.093764	-0.426846	-0.206238
05572		5.680070	1.622198	7.901542	0.080073	-0.031480	-0.521580	-0.351807	0.137207	-0.824707	0.874456	-0.091528	-0.427611	-0.209995
05573		6.412455	2.721974	8.080661	-0.049712	-0.078822	-0.653599	-0.366943	0.140137	-0.816406	0.873054	-0.089507	-0.428586	-0.214661
05574		7.025869	2.413370	8.263277	-0.126503	-0.029215	-0.715825	-0.365234	0.141846	-0.826416	0.871411	-0.088111	-0.429139	-0.220723
05575		7.814914	-0.007156	7.849908	-0.206286	0.003354	-0.670480	-0.360596	0.141113	-0.823242	0.869986	-0.087260	-0.429210	-0.226470
05576		8.487087	-2.312476	6.998435	-0.214291	-0.040358	-0.475557	-0.372314	0.140137	-0.811768	0.868774	-0.087229	-0.429392	-0.230749
05577		7.997821	-2.490590	6.545714	-0.212109	0.031500	-0.151646	-0.371338	0.140137	-0.814697	0.868254	-0.088446	-0.428890	-0.233164
05578		7.120367	-1.413282	5.783739	-0.229103	0.090553	0.151192	-0.362305	0.141357	-0.818359	0.868573	-0.090646	-0.427704	-0.233310
05579		6.415648	-0.600067	5.170108	-0.207568	-0.001684	0.314392	-0.373291	0.144287	-0.827148	0.869006	-0.093271	-0.427064	-0.231831
05580		5.981476	-0.186766	4.927484	-0.195638	-0.071363	0.302775	-0.363037	0.160645	-0.812744	0.869156	-0.095848	-0.427029	-0.230277
05581		6.020892	-0.188971	4.817745	-0.170539	-0.070608	0.214547	-0.368408	0.156738	-0.815186	0.869064	-0.098254	-0.426990	-0.229682
05582		6.267958	-0.278763	4.708124	-0.128449	-0.052327	0.130004	-0.374512	0.165283	-0.807617	0.868944	-0.099853	-0.427033	-0.229366
05583		6.631583	-0.646205	4.643906	-0.078394	-0.032407	0.077704	-0.377930	0.170410	-0.814941	0.868707	-0.101110	-0.427082	-0.229619
05584		7.074959	-1.129270	4.633459	-0.016889	-0.017320	0.067993	-0.377930	0.160400	-0.806885	0.868573	-0.101852	-0.427142	-0.229689
05585		7.081784	-1.318927	4.510634	0.035789	0.025144	0.071683	-0.368408	0.164062	-0.805420	0.868680	-0.101973	-0.427065	-0.229373
05586		6.772485	-1.149085	4.155768	0.097771	0.045043	0.051770	-0.375244	0.171875	-0.813232	0.868900	-0.101578	-0.426902	-0.229018
05587		6.601480	-0.689560	3.976281	0.164099	0.036745	0.012502	-0.370605	0.152588	-0.814941	0.869003	-0.100743	-0.426951	-0.228906
05588		6.588731	-0.064279	3.972273	0.225018	0.017978	-0.062441	-0.377441	0.159180	-0.816406	0.869119	-0.098797	-0.427385	-0.228502
05589		6.730412	0.202438	3.920651	0.269585	-0.009292	-0.142256	-0.369629	0.157227	-0.817627	0.868902	-0.096556	-0.428155	-0.228844
05590		7.046707	-0.161005	4.048696	0.322357	-0.059540	-0.209589	-0.366699	0.149414	-0.816406	0.868443	-0.093807	-0.429367	-0.229459
05591		7.541979	-0.874355	4.482633	0.411136	-0.101508	-0.222226	-0.370361	0.141113	-0.820312	0.867902	-0.090390	-0.431046	-0.229726
05592		7.929346	-1.331679	4.795942	0.496020	-0.066553	-0.198843	-0.375732	0.128906	-0.826416	0.867599	-0.086326	-0.432625	-0.229468
05593		8.191404	-1.117798	4.944668	0.542929	-0.000400	-0.117590	-0.375488	0.123291	-0.811768	0.867742	-0.081973	-0.433786	-0.228329
05594		8.193228	-0.398001	5.302491	0.535784	0.067489	0.000502	-0.373779	0.115479	-0.818115	0.868264	-0.078101	-0.434380	-0.226566
05595		8.294819	0.190941	6.183559	0.426806	0.110226	0.106276	-0.366211	0.113037	-0.814941	0.869082	-0.075280	-0.434368	-0.224399
05596		8.534605	0.986428	6.682549	0.216761	0.222577	0.146586	-0.362793	0.102783	-0.823242	0.870233	-0.073981	-0.433076	-0.222861
05597		9.016955	1.422943	5.781873	0.045985	0.183751	0.108809	-0.357178	0.109375	-0.826416	0.871152	-0.073626	-0.431788	-0.221881
05598		10.358147	0.621399	4.592431	-0.051219	-0.117515	0.069423	-0.358887	0.108887	-0.822510	0.870813	-0.074544	-0.432474	-0.221574
05599		11.752039	-0.903292	5.875559	-0.049807	-0.168173	0.130214	-0.365723	0.107178	-0.817383	0.870406	-0.075734	-0.433513	-0.220738
05600		12.617442	-1.157502	7.464537	-0.103512	0.176301	0.288876	-0.370605	0.111328	-0.826172	0.871495	-0.077198	-0.431917	-0.219054
05601		11.785306	0.251988	7.269167	-0.159465	0.277984	0.514614	-0.355225	0.109863	-0.822998	0.873291	-0.079715	-0.429360	-0.216006
05602		10.355567	0.745015	8.056664	-0.132625	-0.083489	0.703104	-0.356201	0.112061	-0.823975	0.874208	-0.083190	-0.429313	-0.211023
05603		9.130054	1.152691	9.332135	-0.147370	-0.096797	0.775122	-0.358154	0.127197	-0.823486	0.875182	-0.086962	-0.429294	-0.205429
05604		7.425723	1.715131	8.621405	-0.333896	0.003395	0.684367	-0.346924	0.133789	-0.823975	0.876107	-0.091810	-0.428242	-0.201533
05605		6.068747	1.063338	7.725048	-0.345870	-0.115017	0.557127	-0.353271	0.138184	-0.814697	0.876413	-0.096410	-0.428052	-0.198436
05606		5.271068	-0.444567	7.683357	-0.241189	-0.019644	0.440294	-0.344971	0.141357	-0.823242	0.876907	-0.099635	-0.427503	-0.195829
05607		5.844062	-1.734717	7.741910	-0.102110	0.015826	0.446991	-0.354004	0.151367	-0.822754	0.877716	-0.101686	-0.426845	-0.192556
05608		6.703571	-1.699040	7.714920	0.047685	-0.012728	0.500755	-0.348145	0.141602	-0.821777	0.878532	-0.103050	-0.426625	-0.188553
05609		7.470273	-0.511695	7.738696	0.152871	0.056247	0.509292	-0.348145	0.151123	-0.823975	0.879778	-0.103288	-0.426081	-0.183787
05610		7.885985	1.512791	7.220913	0.214284	0.108516	0.414621	-0.342041	0.144287	-0.827637	0.881033	-0.102861	-0.425283	-0.179817
05611		7.622104	2.468444	6.739147	0.174083	0.076569	0.230786	-0.339600	0.141602	-0.825928	0.881917	-0.101957	-0.424815	-0.177085
05612		6.769488	1.745315	6.545387	0.155431	0.092927	0.030694	-0.344482	0.150635	-0.832275	0.882541	-0.100444	-0.424371	-0.175899
05613		6.210755	0.923936	5.856455	0.161360	0.112076	-0.094186	-0.342773	0.142090	-0.831055	0.882977	-0.098639	-0.423875	-0.175934
05614		5.972126	0.326459	5.409773	0.197931	-0.017731	-0.162321	-0.352295	0.140869	-0.835205	0.882903	-0.096413	-0.424467	-0.176106
05615		6.022133	-0.021454	5.412797	0.247535	-0.067307	-0.165682	-0.349854	0.133057	-0.834229	0.882638	-0.093949	-0.425534	-0.176193
05616		6.043606	0.051411	5.181067	0.260878	-0.010900	-0.136385	-0.347412	0.128662	-0.839600	0.882654	-0.091331	-0.426170	-0.175952
05617		6.246620	0.545765	4.962031	0.265926	-0.037389	-0.087463	-0.342285	0.121338	-0.840576	0.882685	-0.088829	-0.426942	-0.175208
05618		6.660594	1.007722	4.937040	0.238220	-0.055906	-0.052351	-0.344482	0.122314	-0.839844	0.882727	-0.086579	-0.427756	-0.174130
05619		6.799675	1.268675	4.851524	0.171366	0.016158	-0.030492	-0.349609	0.126953	-0.832520	0.882969	-0.084904	-0.427915	-0.173337
05620		6.595486	1.313936	4.484589	0.058700	0.078317	-0.010930	-0.342773	0.113770	-0.832764	0.883266	-0.084308	-0.427446	-0.173271
05621		6.491791	1.155290	4.158162	-0.047900	0.051817	0.005532	-0.345215	0.124268	-0.838867	0.883509	-0.084319	-0.427024	-0.173067
05622		6.698958	0.815628	4.095077	-0.140946	0.015955	0.019224	-0.350586	0.122314	-0.836182	0.883544	-0.085259	-0.426696	-0.173236
05623		6.837923	0.474481	3.959569	-0.225597	0.035022	0.042240	-0.343750	0.126953	-0.839844	0.883583	-0.086879	-0.426139	-0.173605
05624		6.786716	0.359420	4.028065	-0.315623	0.016014	0.066519	-0.345215	0.128418	-0.836182	0.883578	-0.089202	-0.425532	-0.173941
05625		6.826848	0.427517	4.474175	-0.399476	-0.038503	0.074444	-0.343506	0.132812	-0.832031	0.883303	-0.092247	-0.425221	-0.174506
05626		7.016086	0.879557	5.037833	-0.493413	-0.068853	0.050116	-0.345459	0.141846	-0.836914	0.882802	-0.095939	-0.425009	-0.175567
05627		7.214786	1.272983	5.233098	-0.588672	-0.094285	-0.002099	-0.347168	0.152344	-0.828125	0.882066	-0.100139	-0.424878	-0.177230
05628		7.630566	0.978661	5.783959	-0.570607	-0.170976	-0.050909	-0.339111	0.159180	-0.832520	0.880920	-0.104289	-0.425359	-0.179370
05629		8.034633	-0.224473	6.058738	-0.404161	-0.092010	-0.053707	-0.343506	0.160156	-0.831055	0.880307	-0.106879	-0.425464	-0.180601
05630		8.704530	-1.675815	4.796034	-0.228594	0.017574	-0.043721	-0.347412	0.165771	-0.828125	0.880245	-0.108006	-0.425054	-0.181199
05631		9.857906	-2.001641	3.789121	-0.080776	-0.100330	-0.086839	-0.347412	0.167480	-0.823486	0.879771	-0.108200	-0.425776	-0.181689
05632		10.920242	-0.518177	5.567313	-0.018810	-0.128362	-0.159993	-0.351807	0.164551	-0.820557	0.879118	-0.107792	-0.426850	-0.182571
05633		12.181939	1.060349	7.670228	0.035210	0.024508	-0.242229	-0.345459	0.165039	-0.822021	0.878900	-0.106492	-0.426974	-0.184087
05634		12.678064	1.676562	7.797999	0.038125	0.118728	-0.400310	-0.343018	0.167236	-0.816162	0.878825	-0.104409	-0.426516	-0.186679
05635		10.443058	1.273708	8.325204	0.070805	-0.055666	-0.497532	-0.345459	0.155273	-0.813477	0.877935	-0.102185	-0.427430	-0.189980
05636		9.326145	-0.216980	8.721986	0.101933	-0.350058	-0.586116	-0.364746	0.157715	-0.822266	0.875861	-0.099808	-0.430639	-0.193535
05637		8.062001	-1.358252	8.641420	0.145651	-0.308415	-0.609781	-0.367188	0.141357	-0.812256	0.873864	-0.097022	-0.433654	-0.197214
05638		6.986278	-0.726375	7.732683	0.145636	-0.184193	-0.538810	-0.372559	0.135254	-0.813477	0.872395	-0.094242	-0.435710	-0.200505
05639		6.001583	0.869107	7.450315	0.037397	-0.123487	-0.463730	-0.373779	0.140869	-0.811523	0.871179	-0.092388	-0.437084	-0.203642
05640		5.782215	1.865543	7.936543	-0.077749	-0.102100	-0.503742	-0.377686	0.131104	-0.815186	0.869839	-0.091326	-0.438087	-0.207651
05641		6.437706	2.057853	8.221250	-0.165272	-0.059311	-0.671992	-0.383545	0.133789	-0.803223	0.868333	-0.090024	-0.438779	-0.212993
05642		7.239681	0.852576	8.500159	-0.203988	-0.010694	-0.783955	-0.384277	0.131104	-0.807617	0.866586	-0.088807	-0.439103	-0.219843
05643		8.083575	-1.391137	7.962051	-0.290039	0.062155	-0.758081	-0.378418	0.130859	-0.806396	0.865111	-0.088050	-0.438704	-0.226647
05644		8.215474	-2.385847	7.025202	-0.272581	0.121582	-0.504938	-0.382324	0.136230	-0.807129	0.864364	-0.087932	-0.437675	-0.231481
05645		7.745522	-1.491304	6.427884	-0.265141	0.127263	-0.167899	-0.388184	0.136230	-0.806641	0.864229	-0.089088	-0.436366	-0.234002
05646		7.379261	-0.290465	6.078129	-0.300242	0.093434	0.090681	-0.374023	0.144531	-0.816406	0.864388	-0.091538	-0.435077	-0.234865
05647		6.872862	0.274318	5.499326	-0.348886	0.067875	0.188280	-0.381592	0.148438	-0.807861	0.864785	-0.094527	-0.433730	-0.234712
05648		6.577868	0.264095	5.055148	-0.366200	0.001200	0.147558	-0.375977	0.154297	-0.804932	0.864700	-0.097794	-0.432902	-0.235215
05649		6.440748	-0.219455	4.965587	-0.366725	0.008617	0.061168	-0.380371	0.161133	-0.810303	0.864491	-0.100716	-0.432060	-0.236295
05650		6.433175	-0.873115	4.699433	-0.345843	0.047320	-0.010319	-0.376465	0.169434	-0.812500	0.864303	-0.103122	-0.431053	-0.237780
05651		6.530385	-1.447904	4.500329	-0.285954	0.064236	-0.051953	-0.386719	0.169434	-0.802979	0.864172	-0.104906	-0.430047	-0.239295
05652		6.728868	-1.611469	4.304490	-0.223840	0.075119	-0.046222	-0.385498	0.180908	-0.804443	0.863999	-0.106393	-0.429139	-0.240887
05653		6.768688	-1.375867	4.111202	-0.162200	0.069704	-0.034322	-0.382080	0.180420	-0.808594	0.863863	-0.107594	-0.428345	-0.242249
05654		6.599602	-0.990391	3.831232	-0.069368	0.075548	-0.033037	-0.378174	0.179688	-0.810547	0.863901	-0.108002	-0.427697	-0.243077
05655		6.399468	-0.655087	3.545298	0.052125	0.029743	-0.052589	-0.376709	0.167969	-0.808838	0.863887	-0.107493	-0.427635	-0.243460
05656		6.360438	-0.443357	3.516702	0.159656	-0.050865	-0.088853	-0.380127	0.170898	-0.810791	0.863662	-0.106076	-0.428448	-0.243451
05657		6.516795	-0.555731	3.644403	0.263680	-0.125999	-0.134651	-0.372070	0.171143	-0.799072	0.863128	-0.103992	-0.430039	-0.243439
05658		6.951586	-0.859076	3.942764	0.372493	-0.186195	-0.151523	-0.378418	0.163330	-0.809326	0.862391	-0.101337	-0.432226	-0.243297
05659		7.634497	-1.246771	4.437600	0.511196	-0.193092	-0.120663	-0.382080	0.152100	-0.806152	0.861853	-0.097684	-0.434735	-0.242224
05660		8.228116	-1.401244	4.761648	0.639373	-0.096601	-0.058699	-0.385010	0.145752	-0.809814	0.861869	-0.093110	-0.436773	-0.240294
05661		8.480860	-0.982202	5.124079	0.722853	-0.016491	0.020036	-0.380615	0.131348	-0.810547	0.862366	-0.088091	-0.438323	-0.237568
05662		8.581315	-0.315220	5.656466	0.686531	0.010186	0.127531	-0.386230	0.125488	-0.810303	0.863166	-0.083569	-0.439512	-0.234073
05663		8.597232	0.489986	6.535429	0.515618	0.058444	0.248230	-0.388428	0.111572	-0.803223	0.864176	-0.080715	-0.439949	-0.230498
05664		8.562071	1.304980	6.082204	0.274889	0.144503	0.303170	-0.378418	0.113281	-0.806152	0.865417	-0.079554	-0.439326	-0.227412
05665		9.241738	1.308808	4.420707	0.114937	0.000419	0.294092	-0.379150	0.114014	-0.807617	0.866029	-0.079804	-0.439381	-0.224876
05666		10.633575	-0.024785	4.898930	0.099293	-0.274797	0.273248	-0.378174	0.113770	-0.809570	0.865573	-0.080609	-0.441409	-0.222362
05667		12.037115	-1.212628	7.218157	0.068544	-0.070303	0.296321	-0.382568	0.116699	-0.822998	0.865926	-0.081283	-0.441859	-0.219833
05668		12.898910	0.046666	7.641335	-0.030905	0.264651	0.410852	-0.369141	0.111328	-0.816895	0.867678	-0.082432	-0.439623	-0.216958
05669		11.560832	1.595742	8.018858	-0.109948	0.046382	0.554371	-0.374512	0.114014	-0.815186	0.868873	-0.084939	-0.438711	-0.213021
05670		9.777240	2.046252	8.943496	-0.152281	-0.138216	0.702706	-0.370117	0.121582	-0.813477	0.869560	-0.088628	-0.438997	-0.208069
05671		7.615702	1.955997	8.932972	-0.369528	-0.095791	0.677714	-0.364258	0.142334	-0.816162	0.870176	-0.093730	-0.438570	-0.204121
05672		6.263415	0.728844	7.679697	-0.470346	-0.204521	0.525174	-0.374756	0.140137	-0.808105	0.870014	-0.099336	-0.438779	-0.201696
05673		5.554343	-1.004962	7.286136	-0.324697	-0.203198	0.379280	-0.382080	0.147461	-0.809814	0.869683	-0.103232	-0.439434	-0.199732
05674		5.619229	-2.316365	7.943169	-0.095058	-0.086716	0.373886	-0.373779	0.150635	-0.812012	0.869940	-0.105251	-0.439649	-0.197069
05675		6.570972	-2.536268	8.148535	0.031306	-0.026755	0.448642	-0.378662	0.149658	-0.805664	0.870705	-0.106451	-0.439519	-0.193300
05676		7.541443	-1.202383	7.981723	0.147815	0.005397	0.542987	-0.374756	0.153076	-0.806152	0.871769	-0.107145	-0.439295	-0.188569
05677		8.230970	1.131791	7.706768	0.238393	0.045312	0.518659	-0.367676	0.149658	-0.808350	0.873005	-0.107054	-0.438913	-0.183731
05678		8.290623	2.708866	7.059516	0.223534	0.121310	0.333664	-0.374023	0.146240	-0.818115	0.874255	-0.106176	-0.438098	-0.180209
05679		7.408887	2.172450	6.610295	0.180539	0.154291	0.063094	-0.360107	0.155762	-0.824707	0.875176	-0.104485	-0.437264	-0.178748
05680		6.591828	1.196459	6.085829	0.174222	0.167776	-0.137053	-0.368164	0.145020	-0.826172	0.875896	-0.102148	-0.436393	-0.178699
05681		6.253898	0.520365	5.414240	0.198321	0.081936	-0.203698	-0.367920	0.142334	-0.825928	0.876182	-0.099466	-0.436309	-0.179014
05682		6.408059	-0.021673	5.166395	0.242346	-0.011831	-0.207199	-0.364502	0.138184	-0.822021	0.876136	-0.096634	-0.436968	-0.179182
05683		6.776192	-0.051945	5.138145	0.252995	0.022514	-0.169976	-0.364746	0.132080	-0.827881	0.876267	-0.093852	-0.437335	-0.179124
05684		7.174155	0.478480	5.055875	0.221677	0.081544	-0.126634	-0.373535	0.128418	-0.824707	0.876687	-0.091274	-0.437194	-0.178747
05685		7.351474	1.306973	5.005066	0.170533	0.146061	-0.092275	-0.372803	0.134277	-0.832520	0.877245	-0.089259	-0.436510	-0.178699
05686		7.243253	1.808080	4.871456	0.101317	0.233526	-0.082317	-0.358643	0.127930	-0.831055	0.878098	-0.087691	-0.435055	-0.178835
05687		6.872486	1.814865	4.570760	0.009084	0.288253	-0.093188	-0.358643	0.132324	-0.836914	0.879128	-0.086566	-0.433033	-0.179225
05688		6.672990	1.272813	4.442643	-0.087683	0.281252	-0.093686	-0.365479	0.125977	-0.832520	0.880047	-0.086201	-0.430920	-0.179984
05689		6.732866	0.738703	4.439168	-0.169727	0.287454	-0.071290	-0.357910	0.132812	-0.840088	0.880843	-0.086622	-0.428671	-0.181258
05690		6.860424	0.409182	4.409882	-0.234704	0.323582	-0.017969	-0.346924	0.129639	-0.843750	0.881861	-0.087583	-0.425995	-0.182153
05691		6.925454	0.495551	4.410128	-0.286344	0.333994	0.050753	-0.340088	0.138672	-0.838623	0.883052	-0.088979	-0.423106	-0.182435
05692		6.739702	0.816599	4.333742	-0.365300	0.289556	0.078445	-0.346680	0.143555	-0.841309	0.884013	-0.091267	-0.420375	-0.182966
05693		6.413106	1.001601	4.314544	-0.433906	0.164304	0.069295	-0.329834	0.149414	-0.839111	0.884382	-0.094299	-0.418502	-0.183935
05694		6.404177	0.875345	4.350635	-0.466844	0.012572	0.036187	-0.336182	0.161621	-0.830078	0.884233	-0.097571	-0.417675	-0.184822
05695		6.771599	0.481539	4.417548	-0.456132	-0.130908	0.019432	-0.333984	0.160156	-0.831543	0.883422	-0.101194	-0.417920	-0.186193
05696		7.430575	-0.171691	4.856488	-0.397757	-0.229386	0.030009	-0.340820	0.170166	-0.826172	0.882394	-0.104394	-0.418983	-0.186910
05697		8.037744	-0.855534	5.534051	-0.228945	-0.214265	0.082329	-0.341553	0.178467	-0.829102	0.881574	-0.106649	-0.420141	-0.186910
05698		8.462504	-1.370359	5.452868	-0.020946	-0.119763	0.144024	-0.338623	0.174805	-0.827637	0.881410	-0.107391	-0.420868	-0.185618
05699		9.130119	-1.311982	4.872181	0.136933	-0.087568	0.144983	-0.348633	0.172852	-0.822754	0.881531	-0.106852	-0.421602	-0.183675
05700		10.067443	-0.359375	5.133040	0.185319	-0.089582	0.080990	-0.345947	0.164551	-0.830322	0.881474	-0.105908	-0.422493	-0.182447
05701		11.271568	1.208062	6.645632	0.215190	-0.051533	0.007092	-0.344482	0.171875	-0.827393	0.881561	-0.104201	-0.423238	-0.181275
05702		12.392244	1.921391	7.681930	0.213650	0.032682	-0.136294	-0.344727	0.162842	-0.825928	0.881697	-0.102007	-0.423449	-0.181370
05703		11.525995	1.424248	7.756042	0.177890	0.057961	-0.310462	-0.342285	0.161865	-0.826660	0.881607	-0.099415	-0.423573	-0.182953
05704		9.384178	0.750195	8.354957	0.223172	-0.116857	-0.390309	-0.338379	0.157959	-0.824707	0.880817	-0.096481	-0.425098	-0.184782
05705		8.364991	-0.757723	8.452339	0.166793	-0.350202	-0.538238	-0.352539	0.157715	-0.826416	0.878941	-0.093774	-0.428335	-0.187613
05706		7.420179	-1.265583	8.052720	0.185455	-0.317356	-0.545632	-0.351562	0.141602	-0.819336	0.877118	-0.090923	-0.431364	-0.190585
05707		6.663798	-0.207745	7.724952	0.093172	-0.188421	-0.490750	-0.357910	0.135498	-0.816895	0.875771	-0.088671	-0.433248	-0.193542
05708		6.495420	0.864686	7.815101	0.015239	-0.119745	-0.467983	-0.368652	0.140137	-0.814697	0.874604	-0.086995	-0.434487	-0.196777
05709		6.680394	1.645184	8.095753	-0.097534	-0.057807	-0.578123	-0.368652	0.124268	-0.818359	0.873293	-0.085816	-0.435160	-0.201569
05710		6.832587	1.883961	8.101592	-0.193134	0.049615	-0.664263	-0.377197	0.124512	-0.814697	0.872205	-0.084615	-0.434968	-0.207126
05711		7.150833	0.464935	7.824829	-0.239672	0.046011	-0.656298	-0.374756	0.129395	-0.812744	0.870959	-0.083933	-0.434711	-0.213102
05712		8.146374	-1.848873	7.293635	-0.228039	-0.016684	-0.535584	-0.379883	0.133057	-0.814697	0.869688	-0.083752	-0.434809	-0.218102
05713		8.114189	-2.533227	6.725223	-0.194516	0.083252	-0.276250	-0.373291	0.125732	-0.818604	0.869253	-0.084109	-0.434061	-0.221169
05714		7.344279	-1.532015	6.008912	-0.202680	0.125867	0.034482	-0.371338	0.135742	-0.806152	0.869629	-0.085380	-0.432774	-0.221724
05715		6.629256	-0.625911	5.447368	-0.214239	0.023583	0.233377	-0.373047	0.149902	-0.816650	0.869878	-0.087889	-0.432035	-0.221211
05716		6.315642	-0.228952	5.109704	-0.211391	-0.084133	0.264299	-0.371826	0.150391	-0.816650	0.869848	-0.090645	-0.432049	-0.220184
05717		6.338453	-0.257586	5.099481	-0.200860	-0.090617	0.188732	-0.370117	0.154297	-0.811523	0.869688	-0.092994	-0.432189	-0.219563
05718		6.511992	-0.607087	5.011868	-0.165590	-0.044923	0.100441	-0.383057	0.158936	-0.812744	0.869541	-0.094720	-0.432117	-0.219547
05719		6.620830	-1.070401	4.891827	-0.114816	-0.001935	0.041781	-0.377686	0.159668	-0.820312	0.869413	-0.095861	-0.431909	-0.219968
05720		6.720311	-1.449193	4.714014	-0.061098	0.027202	0.017237	-0.374512	0.165039	-0.813721	0.869480	-0.096330	-0.431598	-0.220108
05721		6.717201	-1.456090	4.411540	-0.020384	0.032136	0.022449	-0.373535	0.165283	-0.814697	0.869570	-0.096619	-0.431299	-0.220214
05722		6.609527	-1.104342	4.145549	0.021552	0.011676	0.031172	-0.370361	0.161377	-0.811035	0.869646	-0.096659	-0.431218	-0.220054
05723		6.535698	-0.586022	4.069250	0.078244	-0.006255	0.016385	-0.375000	0.156982	-0.814697	0.869680	-0.096250	-0.431383	-0.219776
05724		6.655545	-0.071138	4.062793	0.139350	-0.021512	-0.033061	-0.365723	0.166992	-0.807617	0.869624	-0.095196	-0.431837	-0.219567
05725		6.921805	0.149494	4.252310	0.185925	-0.025091	-0.105755	-0.378174	0.157959	-0.807373	0.869433	-0.093709	-0.432391	-0.219871
05726		7.246882	-0.214683	4.451256	0.252130	-0.019521	-0.171971	-0.372559	0.152344	-0.811035	0.869144	-0.091480	-0.433139	-0.220479
05727		7.638785	-1.000736	4.642221	0.348010	0.002109	-0.191665	-0.377441	0.145020	-0.812012	0.869016	-0.088373	-0.433899	-0.220756
05728		7.935654	-1.539099	4.664251	0.459457	0.010125	-0.143293	-0.375977	0.137207	-0.815674	0.869063	-0.084615	-0.434790	-0.220292
05729		8.012970	-1.337170	4.609014	0.538458	0.023418	-0.032092	-0.370605	0.135742	-0.815674	0.869426	-0.080626	-0.435638	-0.218669
05730		7.981798	-0.535900	4.765993	0.544554	0.002141	0.082895	-0.375732	0.118408	-0.819336	0.869907	-0.077116	-0.436531	-0.216229
05731		7.952339	0.422127	5.244844	0.478427	-0.020621	0.176178	-0.373779	0.122070	-0.819824	0.870439	-0.074331	-0.437452	-0.213183
05732		8.273592	1.003745	6.120992	0.295750	-0.029083	0.199076	-0.370117	0.115479	-0.814209	0.870832	-0.073081	-0.438058	-0.210753
05733		8.968507	1.484427	5.957338	0.083870	0.023497	0.141157	-0.369873	0.115479	-0.816162	0.871186	-0.073040	-0.437944	-0.209534
05734		10.101731	1.200398	4.501856	-0.058581	0.023490	0.055714	-0.366943	0.108154	-0.822998	0.871308	-0.073714	-0.437631	-0.209444
05735		11.100705	-0.195241	4.616824	-0.026393	-0.112053	0.054169	-0.365723	0.111084	-0.815918	0.871012	-0.074231	-0.438364	-0.208962
05736		11.757077	-1.443872	6.796960	0.009454	-0.023611	0.130219	-0.373535	0.109619	-0.819824	0.871173	-0.074670	-0.438462	-0.207928
05737		11.732699	-0.337274	7.507173	-0.004333	0.207336	0.304102	-0.366455	0.108154	-0.825928	0.872460	-0.075414	-0.436787	-0.205776
05738		10.437419	1.187406	8.593608	-0.095627	0.004522	0.504907	-0.366943	0.117188	-0.824951	0.873322	-0.077823	-0.436284	-0.202258
05739		9.388666	2.223898	9.803063	-0.195172	-0.157562	0.672323	-0.364746	0.119873	-0.823730	0.873764	-0.081905	-0.436669	-0.197858
05740		7.659640	2.833430	9.353164	-0.474684	-0.095776	0.640204	-0.367432	0.142090	-0.817139	0.874174	-0.087740	-0.436143	-0.194680
05741		6.112135	1.395791	8.138295	-0.612715	-0.117885	0.474668	-0.368164	0.147461	-0.810547	0.874032	-0.094196	-0.435640	-0.193426
05742		5.195104	-0.638155	7.354913	-0.493301	-0.023545	0.310417	-0.360107	0.147217	-0.819580	0.874035	-0.098979	-0.434777	-0.192964
05743		5.780851	-2.495026	7.568353	-0.284720	-0.054234	0.272047	-0.373291	0.158691	-0.815430	0.874109	-0.101966	-0.434475	-0.191751
05744		7.066351	-3.170603	7.964536	-0.108107	-0.096103	0.349049	-0.360107	0.150879	-0.815918	0.874224	-0.104132	-0.434738	-0.189452
05745		7.891716	-2.020845	8.025755	0.014243	0.048405	0.397180	-0.362305	0.161865	-0.819824	0.875121	-0.105174	-0.434064	-0.186253
05746		8.564471	0.656963	7.656322	0.153164	0.108579	0.363516	-0.365723	0.161621	-0.819580	0.876267	-0.105085	-0.433181	-0.182943
05747		8.718361	2.735843	7.091414	0.187651	0.125384	0.237463	-0.366943	0.160645	-0.822266	0.877277	-0.104281	-0.432362	-0.180482
05748		7.577304	2.320784	6.783685	0.148045	0.277738	0.039963	-0.350098	0.162109	-0.824951	0.878488	-0.102826	-0.430551	-0.179754
05749		6.308557	1.171574	6.018886	0.162626	0.359400	-0.108684	-0.356689	0.151855	-0.832031	0.879812	-0.100611	-0.428218	-0.180104
05750		5.833581	0.350029	5.326504	0.197982	0.226971	-0.179088	-0.354736	0.146484	-0.826904	0.880573	-0.097994	-0.427030	-0.180650
05751		6.072284	-0.357410	5.179677	0.262576	0.105800	-0.172052	-0.355957	0.154297	-0.835449	0.880933	-0.095144	-0.426829	-0.180891
05752		6.493898	-0.502370	5.123098	0.294709	0.148603	-0.109078	-0.341797	0.138916	-0.836426	0.881545	-0.092320	-0.426280	-0.180667
05753		6.778692	-0.008174	4.944834	0.291423	0.201579	-0.053987	-0.347900	0.145264	-0.837402	0.882492	-0.089477	-0.425264	-0.179868
05754		6.947581	0.914890	4.959582	0.264334	0.221082	-0.032899	-0.340332	0.130371	-0.841064	0.883446	-0.087038	-0.424055	-0.179234
05755		6.912406	1.589970	4.824206	0.188498	0.240482	-0.040256	-0.347168	0.133789	-0.845703	0.884447	-0.084947	-0.422599	-0.178740
05756		6.644314	1.651511	4.493392	0.083946	0.230770	-0.049439	-0.338135	0.135498	-0.842285	0.885274	-0.083696	-0.421089	-0.178801
05757		6.448655	1.252387	4.245590	-0.009901	0.163332	-0.029599	-0.337158	0.130859	-0.838135	0.885823	-0.083358	-0.419890	-0.179056
05758		6.503641	0.668695	4.122964	-0.090540	0.106964	0.002194	-0.332764	0.127686	-0.844971	0.886149	-0.083804	-0.418983	-0.179359
05759		6.593161	0.160128	3.983562	-0.159878	0.078955	0.047617	-0.330811	0.134521	-0.839844	0.886444	-0.084853	-0.418144	-0.179368
05760		6.486480	0.108542	4.005787	-0.228609	0.013058	0.091307	-0.328857	0.143311	-0.843262	0.886494	-0.086746	-0.417646	-0.179373
05761		6.512327	0.307138	4.207113	-0.304701	-0.095160	0.112664	-0.327881	0.144287	-0.843994	0.886151	-0.089456	-0.417797	-0.179385
05762		6.857728	0.647235	4.556445	-0.370528	-0.181342	0.099176	-0.333984	0.151611	-0.836426	0.885457	-0.092664	-0.418495	-0.179560
05763		7.402818	0.877827	4.981618	-0.405523	-0.216309	0.070715	-0.337891	0.159424	-0.835938	0.884512	-0.096165	-0.419429	-0.180193
05764		8.046302	0.863353	5.808715	-0.374615	-0.174675	0.072906	-0.340820	0.162354	-0.836182	0.883728	-0.099389	-0.420095	-0.180738
05765		8.366326	0.214388	6.614664	-0.271872	-0.041317	0.121613	-0.341553	0.171631	-0.827637	0.883573	-0.101782	-0.419901	-0.180616
05766		8.172962	-1.030187	6.156559	-0.139836	0.123352	0.188914	-0.340820	0.171387	-0.836670	0.884155	-0.103310	-0.418621	-0.179870
05767		8.283466	-1.755596	4.758649	-0.033044	0.137535	0.222610	-0.332275	0.174805	-0.840576	0.884964	-0.104043	-0.417382	-0.178340
05768		8.870828	-0.736937	4.331926	-0.004870	0.018642	0.163504	-0.327393	0.171387	-0.833008	0.885332	-0.104503	-0.417087	-0.176932
05769		10.144810	1.417427	5.609973	-0.030489	-0.022543	0.031469	-0.334473	0.175537	-0.830322	0.885333	-0.104759	-0.417168	-0.176585
05770		11.675680	3.156965	7.388121	-0.091995	0.083243	-0.183636	-0.326660	0.173828	-0.828857	0.885277	-0.104655	-0.416582	-0.178303
05771		12.519578	2.662751	7.895480	-0.100470	0.213542	-0.452962	-0.324707	0.184326	-0.828125	0.885285	-0.103446	-0.415229	-0.182081
05772		10.991028	1.070343	7.953914	-0.093051	0.090699	-0.697793	-0.323730	0.169678	-0.831543	0.884447	-0.101648	-0.414962	-0.187688
05773		9.398571	-0.350631	8.945421	-0.145637	-0.092276	-0.771898	-0.333984	0.168701	-0.823975	0.882831	-0.100106	-0.416035	-0.193660
05774		8.477348	-1.359578	9.537707	-0.157026	-0.042122	-0.718521	-0.328125	0.167725	-0.826416	0.881359	-0.098852	-0.416679	-0.199532
05775		7.572848	-1.839555	8.707434	-0.120270	0.007222	-0.635075	-0.338135	0.161865	-0.825439	0.880256	-0.097476	-0.416905	-0.204546
05776		6.153174	-1.235739	8.017296	-0.087867	0.041840	-0.581811	-0.342773	0.166016	-0.830078	0.879329	-0.095992	-0.416920	-0.209150
05777		5.361046	0.360280	7.690176	-0.169409	0.140677	-0.592065	-0.340820	0.161865	-0.831299	0.878631	-0.094935	-0.416062	-0.214213
05778		5.290091	1.461687	7.305166	-0.247787	0.118882	-0.679299	-0.340576	0.161377	-0.826660	0.877631	-0.094140	-0.415280	-0.220099
05779		5.938170	1.442254	7.428864	-0.221805	-0.042968	-0.755188	-0.342041	0.163086	-0.819336	0.875894	-0.093222	-0.415768	-0.226398
05780		7.213603	-0.263273	7.912202	-0.238096	-0.090631	-0.765890	-0.346191	0.162354	-0.817139	0.873882	-0.092551	-0.416549	-0.232918
05781		8.376798	-2.508715	7.263861	-0.218354	0.013823	-0.591401	-0.358398	0.159912	-0.822021	0.872542	-0.092150	-0.416460	-0.238199
05782		7.977629	-2.747152	6.463786	-0.152359	0.082754	-0.220862	-0.360596	0.161133	-0.818604	0.872191	-0.092399	-0.415761	-0.240598
05783		7.250739	-1.675252	6.060158	-0.132913	0.042907	0.126162	-0.355713	0.166992	-0.819336	0.872381	-0.093827	-0.415133	-0.240444
05784		6.802605	-1.055071	5.495646	-0.136210	0.004665	0.333944	-0.353027	0.170410	-0.818359	0.872866	-0.096084	-0.414584	-0.238732
05785		6.292978	-0.856922	5.105879	-0.099281	-0.044763	0.361665	-0.350830	0.175781	-0.824219	0.873268	-0.098256	-0.414436	-0.236625
05786		6.050900	-0.794587	5.054969	-0.039671	-0.049740	0.298879	-0.348877	0.175293	-0.822021	0.873603	-0.099757	-0.414473	-0.234687
05787		6.049611	-0.749572	4.978005	0.014361	-0.040272	0.229786	-0.354248	0.187256	-0.823242	0.873888	-0.100582	-0.414603	-0.233038
05788		6.128938	-0.672129	4.807307	0.075673	-0.041011	0.190244	-0.359619	0.181152	-0.822998	0.874087	-0.100955	-0.414876	-0.231642
05789		6.318174	-0.861315	4.663985	0.108490	-0.038130	0.164415	-0.364258	0.175781	-0.819092	0.874275	-0.100931	-0.415260	-0.230250
05790		6.378887	-1.083220	4.478055	0.149464	-0.044630	0.146310	-0.352051	0.177734	-0.821289	0.874430	-0.100526	-0.415830	-0.228808
05791		6.158500	-1.108316	4.253680	0.189634	-0.074298	0.119779	-0.355225	0.181152	-0.818604	0.874502	-0.099799	-0.416638	-0.227374
05792		6.037182	-0.971416	4.147614	0.229728	-0.125206	0.089239	-0.349609	0.170166	-0.815430	0.874332	-0.098853	-0.417912	-0.226100
05793		6.259720	-0.627192	4.134310	0.285247	-0.178076	0.044029	-0.351562	0.173096	-0.813965	0.873986	-0.097340	-0.419711	-0.224757
05794		6.687514	-0.196404	4.177533	0.328783	-0.217476	-0.034240	-0.361084	0.166504	-0.819824	0.873353	-0.095398	-0.421914	-0.223925
05795		7.221517	0.028414	4.316279	0.365556	-0.264857	-0.101965	-0.356689	0.155273	-0.819092	0.872454	-0.092991	-0.424615	-0.223337
05796		7.908236	-0.009738	4.443105	0.382851	-0.265938	-0.144818	-0.370117	0.155029	-0.818604	0.871520	-0.090229	-0.427362	-0.222878
05797		8.532773	-0.161719	4.593230	0.388578	-0.236159	-0.129093	-0.369629	0.154541	-0.825195	0.870660	-0.087504	-0.429914	-0.222413
05798		8.874758	-0.173998	4.840342	0.410502	-0.188243	-0.067516	-0.367188	0.139893	-0.820801	0.870089	-0.084813	-0.432054	-0.221544
05799		9.058670	0.066934	5.049625	0.397188	-0.106848	0.025262	-0.368408	0.128906	-0.815186	0.870007	-0.082291	-0.433521	-0.219943
05800		9.083547	0.346058	5.577624	0.337687	-0.025421	0.124631	-0.374023	0.131592	-0.810059	0.870371	-0.080337	-0.434251	-0.217774
05801		8.882630	0.343146	6.374536	0.214942	0.100384	0.186264	-0.361572	0.128906	-0.820801	0.871164	-0.079365	-0.433821	-0.215811
05802		8.464390	0.297403	6.101358	0.084337	0.230067	0.180188	-0.359863	0.126465	-0.817139	0.872362	-0.079067	-0.432137	-0.214456
05803		8.734300	0.088118	4.781572	0.029536	0.114000	0.153369	-0.355469	0.129395	-0.818848	0.873056	-0.079247	-0.431246	-0.213356
05804		10.045190	-0.771345	4.395837	0.087225	-0.176253	0.162242	-0.371094	0.118164	-0.817139	0.872751	-0.079590	-0.432537	-0.211853
05805		11.598356	-1.829707	6.337059	0.169541	-0.152010	0.252833	-0.363525	0.125977	-0.823486	0.872775	-0.079441	-0.433859	-0.209093
05806		12.279840	-0.713492	8.063974	0.146002	0.121738	0.459520	-0.364990	0.123047	-0.819336	0.874102	-0.079868	-0.432905	-0.205329
05807		11.339148	1.418960	9.037627	0.005064	0.021294	0.689676	-0.357666	0.116455	-0.828125	0.875351	-0.082266	-0.432328	-0.200213
05808		10.109778	2.598551	9.631537	-0.184726	-0.162661	0.878743	-0.361816	0.134277	-0.815674	0.876145	-0.086884	-0.432613	-0.194080
05809		7.387353	2.769701	8.921647	-0.458164	-0.149541	0.758284	-0.364258	0.138184	-0.819092	0.876478	-0.093185	-0.432434	-0.190011
05810		5.625919	0.797274	7.619665	-0.474867	-0.111398	0.472130	-0.355225	0.155273	-0.821045	0.876474	-0.098407	-0.432178	-0.187970
05811		5.098710	-0.741280	7.384503	-0.279975	-0.082651	0.248593	-0.366455	0.157959	-0.812744	0.876353	-0.101471	-0.432096	-0.187091
05812		6.207015	-2.300263	7.671176	-0.098111	-0.041255	0.194677	-0.368652	0.154297	-0.818604	0.876426	-0.102907	-0.432127	-0.185889
05813		7.320202	-3.154541	7.866099	0.070723	-0.028977	0.286149	-0.362061	0.154297	-0.822754	0.876855	-0.103325	-0.432271	-0.183280
05814		8.156188	-2.014235	8.030805	0.235425	0.002999	0.374908	-0.359863	0.161133	-0.824707	0.877689	-0.102801	-0.432309	-0.179454
05815		8.382014	0.689087	7.544137	0.318817	0.119439	0.344917	-0.361816	0.155518	-0.822998	0.878929	-0.101490	-0.431600	-0.175797
05816		7.886082	1.852496	6.755459	0.367331	0.077623	0.227538	-0.355713	0.157227	-0.820557	0.879871	-0.099420	-0.431404	-0.172722
05817		7.192281	1.423420	6.450967	0.425562	0.046300	0.095998	-0.355469	0.138184	-0.827637	0.880530	-0.096579	-0.431586	-0.170509
05818		6.507308	0.919320	5.914828	0.422388	0.081322	-0.013476	-0.360107	0.136963	-0.832031	0.881200	-0.093119	-0.431627	-0.168860
05819		5.926910	0.477747	5.232887	0.420596	0.003687	-0.077218	-0.354980	0.130859	-0.830811	0.881461	-0.089605	-0.432288	-0.167700
05820		5.776243	0.242108	4.936578	0.438443	-0.068653	-0.079269	-0.359863	0.122803	-0.837891	0.881468	-0.086063	-0.433473	-0.166456
05821		6.052383	0.489559	4.851339	0.426117	-0.059537	-0.068113	-0.355713	0.124023	-0.832031	0.881509	-0.082602	-0.434572	-0.165126
05822		6.469920	0.909407	4.733762	0.384250	-0.029888	-0.046728	-0.356689	0.111572	-0.832031	0.881623	-0.079598	-0.435335	-0.163976
05823		6.870832	1.464072	4.675263	0.313387	-0.014486	-0.011280	-0.359863	0.104004	-0.835449	0.881805	-0.077136	-0.435883	-0.162715
05824		6.844390	1.542617	4.433988	0.246416	0.009158	0.020515	-0.357178	0.109375	-0.834473	0.882073	-0.075203	-0.436162	-0.161416
05825		6.530676	1.205792	4.139553	0.178330	0.045818	0.049717	-0.357910	0.100342	-0.833252	0.882445	-0.073940	-0.436025	-0.160332
05826		6.262745	0.717888	3.932570	0.118404	0.064635	0.074479	-0.359375	0.095215	-0.841797	0.882890	-0.073104	-0.435682	-0.159195
05827		6.140415	0.343927	3.955544	0.038395	0.048942	0.107033	-0.358398	0.094238	-0.837646	0.883290	-0.072924	-0.435339	-0.157991
05828		6.207320	0.296169	3.924954	-0.070845	0.009407	0.157903	-0.353516	0.102783	-0.833740	0.883538	-0.073789	-0.435121	-0.156798
05829		6.681942	0.634221	4.362372	-0.185265	-0.058490	0.186358	-0.355469	0.105957	-0.840332	0.883490	-0.075781	-0.435200	-0.155895
05830		7.349296	1.340314	5.174093	-0.307686	-0.078122	0.168940	-0.363037	0.108887	-0.828125	0.883280	-0.078600	-0.435273	-0.155490
05831		8.002468	1.913186	5.500196	-0.435993	-0.024894	0.085787	-0.362549	0.113770	-0.834961	0.883013	-0.082033	-0.434894	-0.156289
05832		8.495275	1.802756	5.745829	-0.477776	0.034845	-0.010290	-0.355469	0.127930	-0.825928	0.882824	-0.085286	-0.434072	-0.157891
05833		8.365454	0.530733	5.679127	-0.420114	0.082238	-0.092851	-0.356689	0.128418	-0.828613	0.882706	-0.087875	-0.432985	-0.160102
05834		8.540222	-1.226187	5.311439	-0.260579	0.129941	-0.146844	-0.353027	0.135254	-0.823730	0.882809	-0.088964	-0.431817	-0.162076
05835		9.327039	-1.923210	4.819584	-0.113739	0.151231	-0.203243	-0.345459	0.131348	-0.831543	0.882997	-0.088816	-0.430711	-0.164057
05836		10.087868	-0.653112	4.841330	-0.103165	0.176151	-0.244694	-0.341309	0.140869	-0.833740	0.883277	-0.088302	-0.429443	-0.166141
05837		10.927355	1.276480	6.254028	-0.164058	0.179466	-0.250661	-0.341064	0.128418	-0.828369	0.883499	-0.088304	-0.428029	-0.168593
05838		12.034193	2.279469	7.467207	-0.204866	0.114976	-0.305158	-0.337158	0.136230	-0.829590	0.883382	-0.088396	-0.427121	-0.171436
05839		11.729898	2.182266	7.568631	-0.251204	0.102773	-0.435706	-0.338379	0.126221	-0.832520	0.882986	-0.088442	-0.426293	-0.175463
05840		9.714885	1.283087	8.015607	-0.281325	-0.044674	-0.521959	-0.346680	0.137695	-0.826660	0.881931	-0.088484	-0.426598	-0.179950
05841		8.584020	-0.850960	8.359464	-0.197034	-0.268500	-0.611613	-0.349609	0.135986	-0.818115	0.879912	-0.088091	-0.428730	-0.184890
05842		7.218225	-2.095938	8.325000	-0.069836	-0.195193	-0.615874	-0.347656	0.138916	-0.827637	0.878201	-0.086666	-0.430507	-0.189516
05843		6.067791	-1.322556	7.469710	-0.037708	-0.071116	-0.559718	-0.358154	0.134033	-0.821777	0.877080	-0.084971	-0.431324	-0.193572
05844		5.485364	0.558960	7.110402	-0.096283	-0.077503	-0.504602	-0.364990	0.131348	-0.824707	0.875914	-0.083959	-0.432091	-0.197540
05845		5.951824	1.712392	7.690879	-0.188742	-0.150251	-0.567401	-0.366943	0.125488	-0.812988	0.874296	-0.083494	-0.433291	-0.202224
05846		7.017975	1.819209	8.336242	-0.245709	-0.135526	-0.692866	-0.380615	0.123779	-0.818604	0.872423	-0.082981	-0.434376	-0.208109
05847		7.995174	0.124513	8.267914	-0.303779	-0.041611	-0.751061	-0.375977	0.131836	-0.814941	0.870699	-0.082491	-0.434740	-0.214663
05848		8.555530	-2.242717	7.401659	-0.324332	0.023409	-0.630836	-0.384033	0.128906	-0.812012	0.869371	-0.082552	-0.434440	-0.220546
05849		7.992994	-2.453642	6.665615	-0.282861	0.121649	-0.348118	-0.376221	0.129639	-0.815430	0.868895	-0.083157	-0.433344	-0.224320
05850		7.264020	-1.329679	6.268064	-0.292687	0.129225	-0.069444	-0.381348	0.138184	-0.817627	0.869002	-0.084765	-0.431945	-0.225994
05851		6.943239	-0.347052	5.711469	-0.318425	0.065244	0.132171	-0.379150	0.146484	-0.820068	0.869200	-0.087468	-0.430829	-0.226336
05852		6.508632	0.038601	5.099833	-0.336379	-0.011368	0.197826	-0.376953	0.141602	-0.822998	0.869233	-0.090692	-0.430163	-0.226204
05853		6.316244	-0.192065	4.845754	-0.318324	-0.073556	0.161544	-0.376465	0.157471	-0.806396	0.869039	-0.093621	-0.430029	-0.226013
05854		6.437848	-0.674124	4.860740	-0.288344	-0.052720	0.100451	-0.376221	0.174561	-0.807373	0.868728	-0.096288	-0.429814	-0.226495
05855		6.507580	-1.149493	4.576871	-0.243692	0.026082	0.042253	-0.375244	0.168945	-0.810303	0.868594	-0.098396	-0.429109	-0.227441
05856		6.536456	-1.399556	4.215530	-0.177301	0.055474	0.006943	-0.374023	0.169678	-0.810547	0.868598	-0.099710	-0.428372	-0.228239
05857		6.627735	-1.310244	4.131779	-0.125840	0.042680	-0.015022	-0.366943	0.165527	-0.813721	0.868568	-0.100571	-0.427847	-0.228961
05858		6.552531	-0.905552	4.014813	-0.075447	0.068950	-0.046380	-0.380371	0.169434	-0.810791	0.868669	-0.100808	-0.427240	-0.229604
05859		6.477670	-0.254954	3.650883	-0.011346	0.096688	-0.103182	-0.367432	0.167480	-0.809814	0.868742	-0.100404	-0.426666	-0.230569
05860		6.525653	0.459900	3.544530	0.053739	0.058898	-0.187064	-0.369385	0.161865	-0.808838	0.868615	-0.099271	-0.426508	-0.231828
05861		6.778204	0.529642	3.720368	0.103433	0.009166	-0.264129	-0.373291	0.161621	-0.813721	0.868203	-0.097565	-0.426895	-0.233379
05862		7.138845	-0.010582	4.026164	0.168839	-0.052040	-0.293103	-0.369629	0.158936	-0.804932	0.867556	-0.095418	-0.427874	-0.234874
05863		7.804116	-0.834560	4.414869	0.246373	-0.089890	-0.264627	-0.378662	0.154541	-0.824219	0.866868	-0.092935	-0.429233	-0.235929
05864		8.190321	-1.273091	4.805224	0.327637	-0.107568	-0.186394	-0.375488	0.145996	-0.806641	0.866357	-0.090114	-0.430825	-0.235997
05865		8.414543	-1.049501	4.928137	0.356037	-0.097078	-0.058850	-0.381104	0.142822	-0.810547	0.866127	-0.087553	-0.432306	-0.235097
05866		8.505913	-0.257574	5.454844	0.295140	-0.060457	0.094049	-0.379883	0.135742	-0.819580	0.866266	-0.085926	-0.433299	-0.233349
05867		8.644746	0.209125	5.924757	0.115532	0.014955	0.167890	-0.375488	0.129150	-0.808105	0.866735	-0.085634	-0.433334	-0.231645
05868		8.929822	0.694870	5.407556	-0.061507	0.124432	0.179998	-0.367188	0.132812	-0.811035	0.867499	-0.086414	-0.432247	-0.230522
05869		9.602018	0.637101	5.003521	-0.141048	0.091610	0.133271	-0.366211	0.141357	-0.807129	0.868013	-0.087671	-0.431235	-0.230009
05870		10.424908	-0.396385	7.348754	-0.082571	-0.007369	0.149696	-0.364746	0.138916	-0.816162	0.868204	-0.088846	-0.431026	-0.229225
05871		12.015058	-0.020062	9.128951	-0.039961	0.063531	0.304999	-0.361328	0.145996	-0.810791	0.869023	-0.090041	-0.430267	-0.227074
05872		11.449671	1.981311	10.190677	-0.277891	0.004745	0.498242	-0.359619	0.149414	-0.816650	0.869776	-0.093841	-0.429313	-0.224443
05873		10.171778	2.115971	9.561738	-0.505827	-0.096986	0.621367	-0.362061	0.150635	-0.815430	0.870218	-0.099853	-0.428561	-0.221553
05874		7.058941	0.698557	7.870504	-0.656599	0.021397	0.431635	-0.357910	0.159912	-0.813232	0.870598	-0.105943	-0.426860	-0.220512
05875		5.612253	-1.556437	7.034872	-0.456944	-0.123043	0.249443	-0.368164	0.171875	-0.805908	0.870292	-0.110174	-0.426719	-0.219917
05876		5.762195	-2.426994	7.655402	-0.240831	-0.166101	0.227765	-0.366455	0.177246	-0.811035	0.869914	-0.112932	-0.427335	-0.218816
05877		6.935329	-2.780001	7.994040	-0.055298	-0.122853	0.344485	-0.365723	0.176025	-0.810303	0.870100	-0.114654	-0.427836	-0.216187
05878		8.040077	-1.985300	8.458701	0.090012	-0.152928	0.490631	-0.359863	0.184814	-0.809082	0.870586	-0.115846	-0.428681	-0.211877
05879		9.014946	0.199986	8.345476	0.216829	-0.031546	0.535795	-0.359863	0.174805	-0.821533	0.871686	-0.116139	-0.428759	-0.206979
05880		8.999167	1.686833	7.692095	0.272886	0.171515	0.414093	-0.364990	0.183350	-0.813477	0.873405	-0.115053	-0.427603	-0.202689
05881		7.991473	1.385353	7.131765	0.286002	0.275186	0.190875	-0.360596	0.177490	-0.822998	0.875009	-0.113091	-0.425930	-0.200382
05882		7.282393	0.641757	6.624966	0.341167	0.293327	0.021707	-0.351807	0.172119	-0.815186	0.876469	-0.110018	-0.424375	-0.199008
05883		6.594136	0.126999	5.904836	0.365658	0.269456	-0.051656	-0.354004	0.164551	-0.827393	0.877713	-0.106592	-0.423080	-0.198145
05884		6.069051	-0.249089	5.346354	0.435650	0.171016	-0.027909	-0.347412	0.167969	-0.828613	0.878715	-0.102831	-0.422618	-0.196670
05885		6.033232	-0.312057	5.104726	0.521384	0.117472	0.043006	-0.347900	0.149902	-0.835205	0.879691	-0.098876	-0.422571	-0.194426
05886		6.239230	0.304276	4.913029	0.535461	0.119751	0.078002	-0.346924	0.150879	-0.839600	0.880759	-0.094797	-0.422531	-0.191690
05887		6.462991	1.196804	4.865348	0.494231	0.100982	0.073756	-0.343506	0.141602	-0.829102	0.881687	-0.091104	-0.422535	-0.189187
05888		6.492738	1.824484	4.786896	0.412831	0.098330	0.039255	-0.347168	0.138672	-0.832275	0.882440	-0.087942	-0.422453	-0.187350
05889		6.289302	1.769183	4.552488	0.315774	0.127292	0.010954	-0.349121	0.137451	-0.834961	0.883144	-0.085384	-0.422035	-0.186154
05890		6.094925	1.311084	4.292282	0.200880	0.158997	0.008463	-0.333008	0.129395	-0.844238	0.883847	-0.083652	-0.421209	-0.185471
05891		6.019277	0.744602	4.113535	0.102401	0.164866	0.044460	-0.339600	0.120605	-0.840820	0.884664	-0.082598	-0.420114	-0.184529
05892		6.090224	0.393124	4.000314	0.034850	0.132924	0.100120	-0.336670	0.133301	-0.850098	0.885360	-0.082282	-0.419171	-0.183475
05893		6.118436	0.418883	4.104740	-0.047230	0.097910	0.160753	-0.339600	0.131592	-0.844727	0.885979	-0.082896	-0.418278	-0.182243
05894		6.127198	0.628732	4.477228	-0.134288	0.009395	0.196304	-0.333496	0.137939	-0.846191	0.886239	-0.084446	-0.417911	-0.181109
05895		6.304158	1.141899	5.038719	-0.221033	-0.087721	0.198616	-0.330078	0.135742	-0.845947	0.886125	-0.086784	-0.418096	-0.180129
05896		6.818622	1.605750	5.495290	-0.341803	-0.129821	0.164598	-0.336426	0.141602	-0.835449	0.885755	-0.089873	-0.418434	-0.179647
05897		7.502855	1.802460	5.693665	-0.442521	-0.161928	0.123985	-0.334229	0.146973	-0.830078	0.885059	-0.093710	-0.418902	-0.180029
05898		8.034919	1.131351	5.892813	-0.411591	-0.165186	0.109394	-0.340332	0.153564	-0.839600	0.884348	-0.097267	-0.419433	-0.180398
05899		8.215354	-0.242136	5.970757	-0.255965	-0.080430	0.115754	-0.337891	0.156982	-0.837891	0.884091	-0.099496	-0.419583	-0.180095
05900		8.609533	-1.689927	5.140200	-0.062413	-0.017385	0.116561	-0.328613	0.158203	-0.827148	0.884228	-0.100191	-0.419548	-0.179115
05901		9.487193	-1.782807	4.240422	0.063453	-0.043164	0.077914	-0.335938	0.157715	-0.828125	0.884320	-0.099906	-0.419890	-0.178014
05902		10.463846	-0.041000	4.395122	0.057659	-0.043203	0.027085	-0.337158	0.153809	-0.825684	0.884298	-0.099518	-0.420291	-0.177394
05903		11.421402	2.074720	6.138378	0.026729	0.012218	-0.041653	-0.331543	0.161865	-0.825684	0.884332	-0.099035	-0.420304	-0.177464
05904		12.546603	3.023948	7.648819	0.011411	0.158217	-0.172301	-0.336426	0.154053	-0.828613	0.884683	-0.098035	-0.419286	-0.178672
05905		12.072743	1.822865	7.516266	-0.044644	0.225248	-0.376072	-0.333496	0.161865	-0.827881	0.884895	-0.096600	-0.417892	-0.181646
05906		9.545724	0.265055	7.811102	-0.023337	-0.009804	-0.465865	-0.333496	0.146729	-0.832520	0.884135	-0.095141	-0.418303	-0.185138
05907		8.320128	-1.467129	9.021218	0.024940	-0.204724	-0.522201	-0.329590	0.146973	-0.836426	0.882686	-0.093270	-0.420291	-0.188474
05908		7.518024	-2.779182	9.243859	0.189661	-0.118195	-0.514362	-0.344238	0.144531	-0.822021	0.881730	-0.090010	-0.421854	-0.191022
05909		6.110615	-2.290512	8.278835	0.283983	0.044522	-0.429564	-0.342041	0.134521	-0.826660	0.881382	-0.086337	-0.422316	-0.193291
05910		5.092821	-0.038460	7.901771	0.227762	0.031884	-0.336238	-0.337891	0.138916	-0.827637	0.881129	-0.083340	-0.422710	-0.194887
05911		5.340111	2.125130	8.137428	0.081828	-0.013346	-0.374342	-0.342529	0.134277	-0.824951	0.880559	-0.081399	-0.423183	-0.197244
05912		6.175861	3.160262	7.989550	-0.048770	-0.039906	-0.523230	-0.342041	0.130371	-0.823730	0.879512	-0.079974	-0.423743	-0.201259
05913		6.893118	2.155215	8.350790	-0.116867	-0.061221	-0.619059	-0.354248	0.127686	-0.827881	0.878171	-0.078725	-0.424393	-0.206175
05914		8.161546	-0.747713	8.015091	-0.215630	-0.108212	-0.602597	-0.354736	0.128662	-0.825684	0.876568	-0.078345	-0.425228	-0.211356
05915		8.600315	-2.790201	7.158170	-0.211991	-0.031911	-0.361610	-0.355225	0.130127	-0.832031	0.875650	-0.078665	-0.425334	-0.214801
05916		7.781954	-2.210395	6.286126	-0.224656	0.086274	-0.020271	-0.353027	0.123291	-0.819092	0.875793	-0.080011	-0.424326	-0.215715
05917		7.088200	-1.230843	5.695743	-0.250001	0.028202	0.222054	-0.355225	0.138428	-0.820068	0.876093	-0.082541	-0.423550	-0.215066
05918		6.475766	-0.744307	5.299246	-0.229198	-0.016634	0.329726	-0.355957	0.141846	-0.822021	0.876408	-0.085467	-0.423045	-0.213629
05919		6.172736	-0.505193	5.005397	-0.191117	-0.009991	0.288968	-0.357178	0.143555	-0.824707	0.876706	-0.087925	-0.422593	-0.212301
05920		6.137725	-0.383836	5.002395	-0.139945	0.009713	0.202380	-0.349121	0.156006	-0.824463	0.876966	-0.089626	-0.422162	-0.211368
05921		6.337536	-0.453575	4.984989	-0.092776	0.069436	0.128386	-0.358398	0.158936	-0.824219	0.877363	-0.090657	-0.421381	-0.210840
05922		6.475361	-0.820271	4.740373	-0.048788	0.111612	0.089666	-0.351074	0.160889	-0.823486	0.877810	-0.091218	-0.420430	-0.210633
05923		6.530594	-1.213351	4.548332	-0.009797	0.089800	0.085839	-0.352051	0.160156	-0.824219	0.878227	-0.091507	-0.419689	-0.210251
05924		6.333987	-1.320211	4.260187	0.029461	0.069055	0.089235	-0.351074	0.157959	-0.826416	0.878599	-0.091553	-0.419179	-0.209693
05925		6.039065	-1.031513	3.914598	0.092874	0.023332	0.071329	-0.345947	0.168213	-0.824463	0.878842	-0.091118	-0.419136	-0.208949
05926		6.086835	-0.665178	3.963845	0.181725	-0.043173	0.025842	-0.343018	0.150391	-0.816406	0.878825	-0.090087	-0.419720	-0.208293
05927		6.150408	-0.342583	4.190536	0.267272	-0.095928	-0.038915	-0.350586	0.153320	-0.825439	0.878593	-0.088198	-0.420921	-0.207658
05928		6.409361	-0.488170	4.220753	0.343139	-0.150370	-0.109965	-0.350586	0.149902	-0.826660	0.878088	-0.085620	-0.422703	-0.207251
05929		7.168219	-0.811425	4.528475	0.464754	-0.216349	-0.119214	-0.357910	0.137939	-0.823975	0.877419	-0.082236	-0.425164	-0.206417
05930		8.205756	-1.155349	5.076494	0.553495	-0.185142	-0.087232	-0.355469	0.129395	-0.827393	0.876946	-0.078243	-0.427552	-0.205046
05931		8.582792	-1.111765	5.036155	0.605944	-0.076498	-0.050218	-0.356201	0.121094	-0.822998	0.876971	-0.073771	-0.429179	-0.203187
05932		8.436877	-0.311083	4.808697	0.585389	-0.035364	0.040192	-0.345703	0.121094	-0.829346	0.877244	-0.069734	-0.430408	-0.200820
05933		8.735024	0.954996	5.592641	0.472807	-0.111397	0.174394	-0.360840	0.109619	-0.822021	0.877426	-0.067147	-0.431845	-0.197802
05934		8.914521	1.677084	6.593920	0.252562	-0.009732	0.228612	-0.355225	0.104004	-0.831055	0.877866	-0.066212	-0.432224	-0.195319
05935		8.698833	1.712685	5.840812	0.055903	0.139030	0.167714	-0.349365	0.093750	-0.831055	0.878687	-0.066160	-0.431202	-0.193900
05936		9.203769	1.064009	4.707869	-0.041879	0.068243	0.077300	-0.357666	0.103271	-0.833496	0.879090	-0.066503	-0.430602	-0.193289
05937		10.505523	-0.640558	5.297451	-0.099563	-0.035914	0.046331	-0.350586	0.101807	-0.831787	0.878984	-0.067425	-0.430706	-0.193216
05938		11.776184	-1.667399	7.072713	-0.170047	0.133624	0.080802	-0.350830	0.110352	-0.825928	0.879533	-0.068672	-0.429413	-0.193158
05939		12.485322	-0.506799	7.240049	-0.195007	0.234177	0.264982	-0.351318	0.103516	-0.831543	0.880675	-0.070695	-0.427236	-0.192051
05940		11.341701	0.991857	8.111577	-0.240882	-0.096247	0.464403	-0.344482	0.113770	-0.834473	0.880948	-0.074168	-0.427333	-0.189251
05941		9.762205	0.962921	9.269837	-0.294046	-0.062717	0.570959	-0.339111	0.120850	-0.824219	0.881480	-0.078363	-0.426976	-0.185861
05942		7.306937	1.199359	8.502339	-0.443935	0.057168	0.504560	-0.346191	0.132324	-0.834961	0.882199	-0.083268	-0.425524	-0.183633
05943		5.780819	0.262661	7.739025	-0.434269	-0.115401	0.363403	-0.344482	0.137939	-0.833740	0.882068	-0.087851	-0.425465	-0.182256
05944		5.524194	-0.679565	8.080062	-0.296174	-0.084728	0.280146	-0.343994	0.144287	-0.825928	0.882022	-0.091042	-0.425440	-0.180969
05945		6.134596	-1.292189	7.644880	-0.163843	-0.003649	0.293341	-0.329102	0.139648	-0.821777	0.882355	-0.093226	-0.425002	-0.179256
05946		6.996461	-2.092547	7.762697	0.017299	-0.084260	0.367419	-0.346436	0.150391	-0.825195	0.882705	-0.094363	-0.425332	-0.176124
05947		7.773040	-1.226641	7.953289	0.170008	-0.015085	0.373634	-0.348389	0.153076	-0.824463	0.883348	-0.094406	-0.425413	-0.172646
05948		8.109540	0.856691	7.570414	0.229790	0.115217	0.286668	-0.339355	0.145264	-0.836426	0.884345	-0.093555	-0.424688	-0.169769
05949		7.747129	1.998565	6.907531	0.235135	0.074828	0.130412	-0.344971	0.137939	-0.827148	0.885048	-0.092025	-0.424368	-0.167731
05950		7.077989	1.690582	6.687419	0.271268	0.052706	-0.027016	-0.341309	0.136475	-0.832031	0.885425	-0.089740	-0.424427	-0.166827
05951		6.412435	1.005862	6.079538	0.268896	0.096914	-0.152298	-0.337891	0.130615	-0.838135	0.885794	-0.086957	-0.424224	-0.166856
05952		6.001338	0.340757	5.387495	0.303170	0.009271	-0.221282	-0.344727	0.116455	-0.841064	0.885803	-0.083749	-0.424750	-0.167112
05953		5.953848	-0.042776	5.160752	0.348457	-0.072081	-0.218559	-0.345215	0.122070	-0.835938	0.885550	-0.080256	-0.425980	-0.167040
05954		6.041942	0.160213	5.061292	0.336982	-0.054686	-0.186799	-0.350586	0.109619	-0.840332	0.885343	-0.077079	-0.427004	-0.167013
05955		6.233959	0.788454	4.901107	0.285096	-0.025257	-0.150754	-0.346924	0.106445	-0.843018	0.885261	-0.074299	-0.427743	-0.166818
05956		6.389993	1.491107	4.724719	0.213092	-0.023701	-0.119363	-0.355225	0.104004	-0.846680	0.885201	-0.072142	-0.428323	-0.166594
05957		6.309428	1.792573	4.590437	0.121689	-0.004323	-0.104628	-0.340332	0.099854	-0.839111	0.885149	-0.070705	-0.428648	-0.166652
05958		5.999604	1.508972	4.325247	0.003529	0.055631	-0.092815	-0.350098	0.100830	-0.845459	0.885296	-0.070073	-0.428305	-0.167016
05959		5.870629	0.897514	4.107882	-0.096355	0.042685	-0.068426	-0.344971	0.109619	-0.834473	0.885346	-0.070302	-0.427939	-0.167597
05960		6.088723	0.336065	4.138336	-0.170732	-0.014617	-0.026254	-0.344971	0.109619	-0.842041	0.885165	-0.071446	-0.427834	-0.168335
05961		6.339817	0.129457	4.391157	-0.255667	-0.012793	0.032867	-0.345947	0.118408	-0.842529	0.885059	-0.073340	-0.427561	-0.168771
05962		6.510250	0.359442	4.819463	-0.347044	-0.014371	0.102599	-0.342529	0.108154	-0.840088	0.884974	-0.076198	-0.427119	-0.169070
05963		6.780876	0.794611	5.181135	-0.429239	-0.044655	0.134798	-0.351074	0.122070	-0.838623	0.884801	-0.079684	-0.426786	-0.169208
05964		7.271483	1.195581	5.547332	-0.493715	-0.086118	0.122490	-0.343262	0.129395	-0.831787	0.884353	-0.083767	-0.426683	-0.169837
05965		7.769017	1.360353	5.766004	-0.509459	-0.088019	0.094863	-0.350830	0.136963	-0.825439	0.883850	-0.087868	-0.426553	-0.170706
05966		8.080267	0.691480	5.911965	-0.428761	-0.076695	0.072820	-0.347656	0.138916	-0.823975	0.883347	-0.091358	-0.426486	-0.171646
05967		8.593793	-0.847274	5.787425	-0.246378	-0.029079	0.071145	-0.348145	0.150879	-0.830078	0.883168	-0.093374	-0.426323	-0.171882
05968		9.746653	-1.879669	4.782691	-0.100838	0.032403	0.041915	-0.340332	0.147705	-0.828369	0.883294	-0.094132	-0.425921	-0.171820
05969		10.920277	-1.148850	4.166916	-0.047922	0.072738	-0.011217	-0.348877	0.147461	-0.831055	0.883563	-0.094194	-0.425329	-0.171869
05970		11.484232	0.692487	4.692391	-0.081323	0.122139	-0.064787	-0.349121	0.149902	-0.827637	0.883870	-0.094267	-0.424402	-0.172542
05971		11.881564	2.094220	6.560742	-0.009055	0.144630	-0.133903	-0.326172	0.149658	-0.822021	0.884180	-0.093592	-0.423467	-0.173611
05972		12.278984	1.646771	7.081703	0.016229	0.238950	-0.270513	-0.341064	0.140869	-0.821533	0.884715	-0.092058	-0.421906	-0.175502
05973		10.156259	0.746766	7.728803	0.022744	0.080924	-0.413133	-0.340576	0.146240	-0.818604	0.884393	-0.090267	-0.421696	-0.178529
05974		8.485535	-0.607275	8.922254	0.042197	-0.130043	-0.504586	-0.341797	0.145264	-0.824219	0.883167	-0.088415	-0.423110	-0.182145
05975		7.662788	-2.476773	9.846502	0.159858	-0.187436	-0.573056	-0.345215	0.139404	-0.824707	0.881737	-0.085490	-0.425156	-0.185673
05976		6.879119	-2.846988	9.366949	0.331515	-0.066616	-0.511363	-0.357178	0.130615	-0.829834	0.880939	-0.081318	-0.426524	-0.188181
05977		5.454528	-0.453868	8.142087	0.315427	0.076442	-0.363071	-0.348877	0.119629	-0.819580	0.880829	-0.077566	-0.426743	-0.189775
05978		5.047271	2.247081	7.518806	0.176185	-0.007321	-0.296173	-0.349365	0.116943	-0.821533	0.880421	-0.075226	-0.427291	-0.191372
05979		5.841244	3.810770	7.746459	-0.028583	-0.178148	-0.351061	-0.359619	0.121094	-0.827393	0.879186	-0.074459	-0.428790	-0.193978
05980		7.187714	3.134979	8.413267	-0.227314	-0.217156	-0.466027	-0.360596	0.118408	-0.824463	0.877473	-0.074823	-0.430325	-0.198149
05981		8.376370	0.190620	8.397607	-0.342315	-0.112328	-0.516571	-0.367920	0.120117	-0.822266	0.875973	-0.075640	-0.430921	-0.203119
05982		8.581274	-2.549926	7.135038	-0.371246	0.009656	-0.417193	-0.362061	0.117432	-0.827148	0.875012	-0.076847	-0.430519	-0.207610
05983		7.590243	-2.834175	6.239449	-0.309430	0.045270	-0.170107	-0.369629	0.125000	-0.812012	0.874706	-0.078307	-0.429790	-0.209853
05984		6.869492	-1.905002	5.825733	-0.262666	0.029003	0.076147	-0.355225	0.131836	-0.818115	0.874678	-0.080530	-0.429116	-0.210506
05985		6.299114	-1.072170	5.544542	-0.226486	0.068131	0.249537	-0.372803	0.135254	-0.827393	0.875209	-0.082944	-0.428043	-0.209545
05986		5.749834	-0.327486	5.146095	-0.185285	0.067529	0.281071	-0.362305	0.142822	-0.815918	0.875772	-0.085172	-0.427092	-0.208236
05987		5.587864	-0.080061	5.132247	-0.140863	0.007168	0.226238	-0.365723	0.139893	-0.818359	0.876033	-0.087061	-0.426653	-0.207252
05988		5.873914	-0.315317	5.337679	-0.100117	0.031280	0.146286	-0.352539	0.159424	-0.821533	0.876281	-0.088265	-0.426197	-0.206633
05989		6.509205	-0.871462	5.171243	-0.054686	0.122602	0.090979	-0.357178	0.146973	-0.827148	0.876814	-0.088863	-0.425094	-0.206385
05990		7.022098	-1.467624	4.883615	0.016092	0.155404	0.058621	-0.364014	0.154297	-0.823486	0.877488	-0.088641	-0.423962	-0.205946
05991		6.915262	-1.572349	4.495121	0.105994	0.185007	0.048235	-0.357178	0.156250	-0.827148	0.878238	-0.087801	-0.422788	-0.205521
05992		6.501592	-1.147079	4.010423	0.195645	0.163762	0.052441	-0.358887	0.153564	-0.817871	0.879003	-0.086352	-0.421894	-0.204702
05993		6.364488	-0.384364	3.865236	0.278950	0.045742	0.051319	-0.355469	0.145508	-0.825439	0.879353	-0.084564	-0.422028	-0.203666
05994		6.374640	0.301534	3.822087	0.332229	-0.055254	0.002993	-0.349854	0.145752	-0.824951	0.879348	-0.082293	-0.423026	-0.202544
05995		6.436357	0.477040	3.772181	0.373962	-0.133314	-0.075999	-0.350342	0.133545	-0.826416	0.878961	-0.079602	-0.424677	-0.201841
05996		6.946581	0.167031	4.028149	0.424506	-0.233899	-0.130213	-0.361084	0.133789	-0.825439	0.878179	-0.076442	-0.427194	-0.201158
05997		7.728707	-0.421189	4.583752	0.457010	-0.228140	-0.168237	-0.361816	0.118652	-0.821533	0.877311	-0.072984	-0.429751	-0.200783
05998		8.025878	-0.759967	4.655451	0.500356	-0.119798	-0.148044	-0.357422	0.110352	-0.821777	0.876898	-0.069028	-0.431584	-0.200048
05999		8.132219	-0.793509	4.760507	0.526702	-0.088283	-0.068907	-0.357910	0.102539	-0.821777	0.876752	-0.065092	-0.433153	-0.198614
06000		8.473199	-0.576937	5.718691	0.494173	-0.068195	0.047119	-0.357422	0.088135	-0.822021	0.876839	-0.061777	-0.434448	-0.196449
06001		8.816713	0.170728	6.658720	0.318117	0.080311	0.146902	-0.362793	0.092285	-0.821777	0.877554	-0.059781	-0.434328	-0.194123
06002		8.936844	1.208123	5.982595	0.142682	0.173660	0.157838	-0.355957	0.084717	-0.824463	0.878484	-0.059054	-0.433244	-0.192556
06003		9.424156	1.240538	4.816453	0.037811	-0.014840	0.122928	-0.354980	0.083740	-0.824219	0.878660	-0.059188	-0.433384	-0.191393
06004		10.631331	0.289620	5.585246	-0.012859	-0.158628	0.143454	-0.359375	0.086670	-0.825439	0.878328	-0.059985	-0.434485	-0.190172
06005		11.854968	-0.599120	7.930226	-0.136587	0.087241	0.208149	-0.344971	0.083252	-0.825684	0.878914	-0.061548	-0.433559	-0.189072
06006		12.476452	0.524714	8.232432	-0.234229	0.365476	0.361918	-0.356201	0.092529	-0.828125	0.880743	-0.063856	-0.430318	-0.187191
06007		11.326367	1.777082	8.751787	-0.303841	0.079794	0.522001	-0.352783	0.089844	-0.830566	0.881678	-0.067765	-0.429035	-0.184338
06008		9.988511	1.766027	9.708481	-0.384857	-0.037667	0.615801	-0.345459	0.110107	-0.833252	0.882302	-0.072670	-0.428443	-0.180826
06009		7.688981	1.478005	8.606775	-0.613727	0.121136	0.509903	-0.343506	0.120605	-0.836670	0.883152	-0.078727	-0.426320	-0.179153
06010		5.969425	-0.281310	7.106559	-0.610368	-0.017977	0.331675	-0.343018	0.129395	-0.827637	0.883219	-0.084306	-0.425329	-0.178639
06011		5.149642	-1.575353	7.017264	-0.379843	-0.069917	0.216776	-0.348633	0.130859	-0.831055	0.883055	-0.087879	-0.425147	-0.178161
06012		5.552956	-2.253554	7.896094	-0.145585	-0.042161	0.228185	-0.341064	0.128174	-0.835449	0.883180	-0.089668	-0.425130	-0.176683
06013		6.798700	-2.014320	8.114305	0.008802	0.013000	0.332551	-0.354248	0.134277	-0.828125	0.883818	-0.090509	-0.424836	-0.173748
06014		7.571415	-0.643102	8.029389	0.143022	0.036553	0.433596	-0.337402	0.140137	-0.833984	0.884693	-0.090809	-0.424531	-0.169837
06015		8.035295	1.254027	7.696513	0.270581	0.071041	0.426098	-0.343506	0.130615	-0.831299	0.885815	-0.090069	-0.424068	-0.165486
06016		7.552758	1.892028	7.039579	0.248517	0.179483	0.258788	-0.338867	0.130371	-0.840088	0.887036	-0.088722	-0.422950	-0.162506
06017		6.619451	1.188391	6.621566	0.251188	0.184581	0.052936	-0.339600	0.131104	-0.834717	0.888012	-0.086592	-0.421929	-0.160975
06018		5.994926	0.655003	6.047140	0.278173	0.172038	-0.093703	-0.327393	0.125244	-0.836670	0.888713	-0.083858	-0.421142	-0.160611
06019		5.691778	0.441427	5.557760	0.301857	0.096577	-0.149781	-0.336426	0.117920	-0.840332	0.889125	-0.080802	-0.420943	-0.160421
06020		5.687007	0.294701	5.477186	0.342825	0.014779	-0.125392	-0.342773	0.110107	-0.844482	0.889276	-0.077640	-0.421427	-0.159875
06021		5.972346	0.406711	5.397636	0.321354	0.036732	-0.092269	-0.335693	0.118164	-0.848145	0.889517	-0.074709	-0.421720	-0.159155
06022		6.239725	0.911702	5.122060	0.267583	0.027695	-0.070052	-0.341064	0.112061	-0.846436	0.889724	-0.072335	-0.421930	-0.158539
06023		6.531012	1.485938	4.895921	0.184600	-0.008976	-0.063294	-0.334717	0.106201	-0.848633	0.889729	-0.070674	-0.422322	-0.158212
06024		6.573309	1.679772	4.658355	0.092654	-0.026923	-0.043512	-0.328369	0.104248	-0.843750	0.889680	-0.069721	-0.422694	-0.157919
06025		6.455894	1.359354	4.466483	0.001600	-0.033938	-0.018501	-0.340820	0.095947	-0.848877	0.889595	-0.069542	-0.422960	-0.157761
06026		6.498429	0.902210	4.263966	-0.091219	-0.016512	0.007327	-0.337891	0.110107	-0.846924	0.889538	-0.070069	-0.423022	-0.157688
06027		6.540945	0.511515	4.179171	-0.166398	-0.007180	0.031321	-0.332520	0.108398	-0.841064	0.889480	-0.071332	-0.422859	-0.157882
06028		6.447595	0.279800	4.144738	-0.226889	-0.035364	0.079911	-0.331299	0.110107	-0.846191	0.889359	-0.073234	-0.422788	-0.157886
06029		6.424284	0.388194	4.367482	-0.298811	-0.105948	0.128362	-0.336182	0.113037	-0.842773	0.889033	-0.075866	-0.423114	-0.157603
06030		6.672935	0.779208	4.845881	-0.378362	-0.175308	0.153928	-0.341309	0.118164	-0.842529	0.888417	-0.079290	-0.423847	-0.157426
06031		6.969976	1.225382	5.190839	-0.470108	-0.194496	0.157447	-0.345459	0.134766	-0.839600	0.887656	-0.083425	-0.424606	-0.157534
06032		7.473929	1.409039	5.289802	-0.523731	-0.202698	0.142479	-0.337158	0.140869	-0.828613	0.886762	-0.088002	-0.425341	-0.158092
06033		7.997955	0.687417	5.560705	-0.494571	-0.192675	0.108737	-0.341309	0.147705	-0.829346	0.885877	-0.092232	-0.426024	-0.158805
06034		8.458915	-0.643667	5.741046	-0.351104	-0.113187	0.094896	-0.348633	0.149902	-0.831787	0.885357	-0.095226	-0.426323	-0.159133
06035		9.100092	-1.655178	4.947170	-0.207076	0.007474	0.054991	-0.342285	0.152344	-0.818604	0.885317	-0.096829	-0.425982	-0.159302
06036		9.847720	-1.485839	4.310152	-0.087238	0.033385	-0.003666	-0.343262	0.152588	-0.818848	0.885362	-0.097381	-0.425632	-0.159650
06037		10.475125	-0.293058	5.005742	-0.015782	0.029212	-0.077721	-0.339111	0.156494	-0.821777	0.885349	-0.097148	-0.425475	-0.160284
06038		11.202588	0.881942	7.140340	0.040203	0.099023	-0.169958	-0.342529	0.154053	-0.828857	0.885524	-0.096067	-0.424933	-0.161401
06039		12.182369	1.130072	7.969667	0.039224	0.176305	-0.337216	-0.334473	0.152832	-0.827148	0.885750	-0.094258	-0.423969	-0.163746
06040		11.269453	0.577920	8.550259	0.041218	0.081129	-0.502520	-0.340576	0.144531	-0.824707	0.885417	-0.091981	-0.423810	-0.167218
06041		10.012169	-0.151388	9.261860	0.071867	-0.157917	-0.568759	-0.336670	0.140625	-0.823975	0.884122	-0.089595	-0.425527	-0.170962
06042		8.690233	-1.395825	9.335884	0.115232	-0.110827	-0.572220	-0.343994	0.143555	-0.824707	0.883032	-0.086774	-0.426927	-0.174521
06043		7.060033	-1.565096	8.393071	0.207898	-0.017021	-0.490906	-0.354004	0.125244	-0.819824	0.882414	-0.083493	-0.427696	-0.177341
06044		5.740544	-0.262687	7.867687	0.215543	0.011154	-0.424942	-0.347900	0.130615	-0.822266	0.881943	-0.080347	-0.428272	-0.179731
06045		5.338543	1.213742	8.138720	0.138746	0.001927	-0.430767	-0.352295	0.124023	-0.824951	0.881387	-0.077784	-0.428750	-0.182426
06046		5.793585	2.204029	8.415006	0.024991	-0.002318	-0.511672	-0.357178	0.120361	-0.814453	0.880603	-0.075755	-0.429147	-0.186097
06047		6.604568	1.546139	8.228995	-0.060286	0.032939	-0.553631	-0.355469	0.119629	-0.828857	0.879745	-0.074246	-0.429182	-0.190630
06048		7.528866	-0.393245	7.988079	-0.117176	-0.007033	-0.500324	-0.365967	0.123535	-0.826172	0.878845	-0.073291	-0.429365	-0.194695
06049		7.945738	-1.751868	7.430587	-0.160872	0.066600	-0.301781	-0.356445	0.118164	-0.826416	0.878429	-0.073349	-0.428828	-0.197709
06050		7.299409	-1.435137	6.665502	-0.238109	0.196270	-0.051019	-0.352051	0.122314	-0.826416	0.878891	-0.074564	-0.427043	-0.199059
06051		6.739634	-0.673504	5.775013	-0.266612	0.131747	0.135682	-0.358643	0.132812	-0.823242	0.879413	-0.076765	-0.425555	-0.199104
06052		6.316085	-0.446053	5.364632	-0.275856	0.036843	0.218168	-0.350586	0.136475	-0.825195	0.879660	-0.079591	-0.424703	-0.198722
06053		5.892251	-0.514875	5.085112	-0.264386	0.006938	0.201110	-0.359375	0.140381	-0.833740	0.879817	-0.082261	-0.424077	-0.198276
06054		5.853973	-0.788346	4.944341	-0.237949	-0.013359	0.137779	-0.350342	0.143555	-0.821777	0.879811	-0.084516	-0.423717	-0.198128
06055		6.183168	-0.992811	4.923241	-0.198314	0.008221	0.088714	-0.350586	0.156494	-0.822998	0.879819	-0.086303	-0.423269	-0.198276
06056		6.425392	-1.273852	4.667629	-0.144017	0.054345	0.058961	-0.348145	0.160645	-0.831055	0.879959	-0.087578	-0.422568	-0.198589
06057		6.605719	-1.520887	4.466067	-0.076481	0.022353	0.054353	-0.352295	0.147949	-0.830566	0.880058	-0.088355	-0.422205	-0.198581
06058		6.655255	-1.538699	4.307303	-0.023189	-0.001889	0.046397	-0.360107	0.158203	-0.822510	0.880114	-0.088658	-0.422170	-0.198271
06059		6.589771	-1.171711	4.096071	0.039571	-0.017069	0.028445	-0.350342	0.153809	-0.818604	0.880057	-0.088608	-0.422367	-0.198128
06060		6.489193	-0.542820	3.929791	0.113495	-0.050844	-0.036321	-0.352539	0.156738	-0.820068	0.879862	-0.087801	-0.422959	-0.198091
06061		6.509764	-0.066038	3.961576	0.171270	-0.110305	-0.137422	-0.357422	0.148682	-0.822266	0.879319	-0.086346	-0.424147	-0.198599
06062		6.644512	0.139432	4.083986	0.219425	-0.178541	-0.235372	-0.354492	0.144531	-0.824707	0.878414	-0.084255	-0.426010	-0.199516
06063		7.038354	-0.076607	4.296498	0.279678	-0.227344	-0.285092	-0.360352	0.138184	-0.818848	0.877310	-0.081603	-0.428334	-0.200495
06064		7.666456	-0.590186	4.632950	0.351047	-0.245423	-0.288450	-0.362305	0.128174	-0.818115	0.876152	-0.078466	-0.430921	-0.201265
06065		8.270072	-0.884040	4.873383	0.406858	-0.201141	-0.250242	-0.367676	0.122803	-0.816650	0.875255	-0.074946	-0.433249	-0.201514
06066		8.498948	-0.770700	5.123528	0.416164	-0.150184	-0.169342	-0.368164	0.119141	-0.827393	0.874655	-0.071588	-0.435168	-0.201201
06067		8.620149	-0.219677	5.503085	0.367358	-0.126351	-0.061087	-0.368164	0.112549	-0.814453	0.874307	-0.068921	-0.436736	-0.200249
06068		8.696988	0.535738	6.255617	0.221578	-0.064384	0.051565	-0.368896	0.100098	-0.817139	0.874260	-0.067654	-0.437551	-0.199099
06069		9.044462	1.298235	6.027207	0.041814	0.022444	0.100445	-0.371582	0.116943	-0.822998	0.874544	-0.067630	-0.437431	-0.198122
06070		9.467358	1.272592	4.856607	-0.073037	0.018310	0.093362	-0.371094	0.114746	-0.830811	0.874690	-0.068567	-0.437115	-0.197856
06071		10.386240	-0.144871	4.539559	-0.085161	-0.104902	0.087916	-0.370361	0.111084	-0.814453	0.874397	-0.069717	-0.437680	-0.197500
06072		11.362647	-1.979858	6.529582	-0.061930	0.004085	0.122334	-0.374023	0.113525	-0.820312	0.874560	-0.070635	-0.437496	-0.196857
06073		12.275966	-1.734291	7.379532	0.009560	0.182171	0.307767	-0.362549	0.110840	-0.819092	0.875716	-0.071410	-0.436028	-0.194684
06074		11.305496	0.150769	8.200957	-0.027266	0.051360	0.494414	-0.364258	0.108887	-0.820801	0.876695	-0.073301	-0.435318	-0.191129
06075		10.145400	1.147258	9.377114	-0.087400	-0.083618	0.649926	-0.357910	0.118408	-0.818115	0.877385	-0.076357	-0.435421	-0.186477
06076		8.101700	2.383369	9.402502	-0.308666	0.014138	0.659753	-0.363281	0.122314	-0.810791	0.878270	-0.080955	-0.434408	-0.182696
06077		6.109874	2.091411	7.695227	-0.521712	0.026111	0.471821	-0.354736	0.135498	-0.821533	0.878721	-0.086395	-0.433142	-0.181036
06078		5.107951	0.400057	6.840503	-0.457625	-0.020456	0.277886	-0.362549	0.136963	-0.829102	0.878759	-0.090727	-0.432387	-0.180533
06079		5.470131	-1.531506	7.533587	-0.290239	-0.047487	0.193336	-0.348633	0.142090	-0.815918	0.878703	-0.093489	-0.432183	-0.179883
06080		7.149437	-2.702522	7.771971	-0.119331	-0.073359	0.234244	-0.358887	0.155518	-0.818848	0.878751	-0.095213	-0.432344	-0.178355
06081		8.504134	-2.351297	7.986347	0.027473	-0.067893	0.281639	-0.362793	0.156006	-0.810303	0.878957	-0.096118	-0.432649	-0.176097
06082		8.894216	-0.152132	7.829185	0.150042	0.088751	0.262058	-0.355469	0.147217	-0.825439	0.879770	-0.095847	-0.432026	-0.173698
06083		8.304046	1.631939	7.059118	0.186410	0.185431	0.141363	-0.356201	0.146240	-0.822021	0.880841	-0.094608	-0.430827	-0.171920
06084		7.464979	1.753062	6.678574	0.285734	0.145582	-0.000109	-0.360840	0.153076	-0.820068	0.881617	-0.092216	-0.430188	-0.170840
06085		6.684037	1.273280	6.269116	0.308727	0.213220	-0.116808	-0.352539	0.135742	-0.827393	0.882428	-0.089256	-0.429170	-0.170785
06086		5.875112	0.601405	5.526926	0.316979	0.217026	-0.165563	-0.350342	0.136963	-0.832031	0.883234	-0.085918	-0.428171	-0.170839
06087		5.520805	0.064550	5.057055	0.358450	0.096770	-0.135085	-0.349365	0.127686	-0.842529	0.883660	-0.082607	-0.428069	-0.170521
06088		5.655950	-0.006854	4.967532	0.362741	0.042126	-0.091925	-0.360352	0.125244	-0.835449	0.883972	-0.079436	-0.428340	-0.169728
06089		6.078938	0.449202	4.822392	0.328173	0.037924	-0.062422	-0.348389	0.114746	-0.839844	0.884229	-0.076699	-0.428616	-0.168952
06090		6.515013	1.206638	4.745914	0.280262	0.019998	-0.041541	-0.348389	0.116943	-0.843262	0.884462	-0.074338	-0.428902	-0.168058
06091		6.698694	1.830121	4.677627	0.196497	0.018107	-0.026505	-0.352295	0.108643	-0.841553	0.884643	-0.072699	-0.429055	-0.167431
06092		6.611617	1.780858	4.580662	0.086504	0.047653	-0.001507	-0.344238	0.110596	-0.844727	0.884893	-0.071885	-0.428852	-0.166979
06093		6.560013	1.360249	4.486423	-0.022197	0.072911	0.029803	-0.347168	0.104736	-0.834717	0.885228	-0.071956	-0.428252	-0.166715
06094		6.595161	0.894271	4.401567	-0.120191	0.070899	0.062920	-0.350586	0.113770	-0.843262	0.885524	-0.072859	-0.427553	-0.166548
06095		6.366172	0.542243	4.221729	-0.223174	0.062209	0.107716	-0.343750	0.117920	-0.832275	0.885775	-0.074733	-0.426739	-0.166468
06096		6.083868	0.499497	4.182625	-0.305178	-0.036078	0.146910	-0.345215	0.117432	-0.835693	0.885665	-0.077522	-0.426497	-0.166398
06097		6.473618	0.727833	4.582058	-0.371423	-0.164633	0.147447	-0.339844	0.132324	-0.837646	0.885064	-0.080919	-0.427123	-0.166371
06098		7.287058	1.074077	5.232187	-0.406558	-0.207526	0.130410	-0.356201	0.132568	-0.833008	0.884260	-0.084621	-0.427967	-0.166638
06099		7.873178	1.291134	5.397492	-0.427071	-0.140254	0.106053	-0.345947	0.146484	-0.838623	0.883603	-0.088275	-0.428370	-0.167186
06100		8.272266	0.709603	5.597900	-0.386042	-0.110361	0.087850	-0.351807	0.145020	-0.826904	0.883080	-0.091530	-0.428546	-0.167748
06101		8.599329	-0.473139	5.973251	-0.265599	-0.042281	0.092976	-0.342773	0.149414	-0.828125	0.882871	-0.093811	-0.428428	-0.167893
06102		8.773358	-1.480437	5.355436	-0.146749	0.118465	0.087458	-0.349609	0.157715	-0.821533	0.883347	-0.094949	-0.427257	-0.167732
06103		9.171479	-1.085897	4.425714	-0.041439	0.125410	0.054171	-0.341553	0.151855	-0.821533	0.883830	-0.095278	-0.426232	-0.167607
06104		10.079509	0.368871	4.351965	-0.025382	0.056146	0.006531	-0.341309	0.146729	-0.821777	0.884043	-0.095352	-0.425773	-0.167612
06105		11.167836	1.681107	5.727809	0.019222	0.020017	-0.041105	-0.354980	0.155762	-0.819336	0.884105	-0.094936	-0.425697	-0.167710
06106		12.065916	1.769295	7.194928	0.091906	0.073720	-0.161856	-0.342773	0.156494	-0.830811	0.884180	-0.093597	-0.425453	-0.168688
06107		11.449859	0.684666	7.154803	0.093084	0.143860	-0.351113	-0.342041	0.149170	-0.831787	0.884283	-0.091434	-0.424778	-0.171018
06108		9.494585	0.002957	7.906685	0.121525	-0.115390	-0.467746	-0.350830	0.137695	-0.824707	0.883319	-0.088986	-0.426149	-0.173858
06109		8.910277	-1.136307	9.245024	0.196388	-0.325440	-0.549299	-0.348389	0.144775	-0.829590	0.881506	-0.085981	-0.429272	-0.176858
06110		7.962428	-2.568125	8.968796	0.345405	-0.204113	-0.543507	-0.362061	0.131592	-0.822266	0.880227	-0.081786	-0.431634	-0.179452
06111		6.675798	-1.459195	7.872173	0.423295	-0.067263	-0.423836	-0.365723	0.118652	-0.820557	0.879614	-0.077250	-0.433072	-0.180997
06112		5.612802	0.864396	7.479594	0.306523	-0.045108	-0.296986	-0.358887	0.109131	-0.832031	0.879181	-0.073966	-0.434102	-0.182004
06113		5.784560	2.548761	7.747505	0.126865	-0.088426	-0.307733	-0.356201	0.112549	-0.822510	0.878513	-0.071934	-0.435142	-0.183553
06114		6.605316	3.110054	8.397035	-0.032655	-0.116658	-0.408012	-0.366943	0.112305	-0.815918	0.877458	-0.070838	-0.436173	-0.186554
06115		7.663843	1.505751	8.505632	-0.167549	-0.077611	-0.503816	-0.361328	0.111328	-0.819336	0.876257	-0.070375	-0.436792	-0.190878
06116		8.355252	-1.346872	7.681190	-0.240278	-0.000829	-0.475557	-0.377197	0.115723	-0.818115	0.875353	-0.070387	-0.436674	-0.195242
06117		7.943102	-2.477677	6.744514	-0.217076	0.080650	-0.261844	-0.370605	0.118164	-0.817383	0.875039	-0.070942	-0.435918	-0.198116
06118		7.231661	-1.617289	6.131928	-0.201470	0.093490	0.015156	-0.370850	0.122559	-0.819092	0.875248	-0.072367	-0.434902	-0.198909
06119		6.678368	-0.852048	5.676521	-0.197449	0.077516	0.209084	-0.369141	0.127930	-0.817627	0.875715	-0.074502	-0.433890	-0.198272
06120		6.005311	-0.471015	5.144388	-0.175206	0.051558	0.297090	-0.368896	0.129150	-0.820801	0.876237	-0.076851	-0.433043	-0.196917
06121		5.652552	-0.381730	4.868075	-0.142491	-0.044976	0.270092	-0.379639	0.136719	-0.819092	0.876394	-0.078984	-0.432977	-0.195514
06122		5.856946	-0.505376	4.933931	-0.105108	-0.085383	0.210723	-0.375000	0.133789	-0.814209	0.876291	-0.080744	-0.433339	-0.194455
06123		6.267973	-0.821201	4.773783	-0.069452	-0.050177	0.154885	-0.369629	0.140381	-0.822998	0.876267	-0.081938	-0.433535	-0.193620
06124		6.674778	-1.180205	4.455133	-0.044619	-0.039266	0.121339	-0.371094	0.145020	-0.810547	0.876263	-0.082826	-0.433664	-0.192974
06125		6.860849	-1.230807	4.288297	-0.019763	-0.053947	0.093932	-0.362549	0.145508	-0.819824	0.876146	-0.083517	-0.433970	-0.192519
06126		6.659533	-0.849279	3.909694	0.013557	-0.071188	0.070866	-0.361328	0.135498	-0.814941	0.875989	-0.083880	-0.434419	-0.192062
06127		6.333735	-0.395391	3.612986	0.071713	-0.151538	0.029145	-0.370605	0.142090	-0.811035	0.875541	-0.083707	-0.435605	-0.191491
06128		6.402845	0.016179	3.881587	0.164386	-0.228914	-0.020682	-0.372070	0.139160	-0.808594	0.874755	-0.082877	-0.437553	-0.191002
06129		6.718400	-0.217954	4.416645	0.261422	-0.189679	-0.106676	-0.379639	0.129395	-0.817139	0.874040	-0.080958	-0.439424	-0.190804
06130		7.173213	-0.839702	4.630354	0.359817	-0.126313	-0.186700	-0.394531	0.128906	-0.813232	0.873508	-0.077858	-0.441063	-0.190751
06131		7.666979	-1.361464	4.494989	0.458746	-0.143061	-0.226334	-0.390381	0.128906	-0.807129	0.872859	-0.073973	-0.443049	-0.190667
06132		8.171585	-1.317829	4.538585	0.522396	-0.196565	-0.168922	-0.384277	0.109863	-0.809570	0.872107	-0.070005	-0.445441	-0.190031
06133		8.702954	-0.679987	4.786715	0.512622	-0.177794	-0.041019	-0.389160	0.099854	-0.811035	0.871656	-0.066441	-0.447582	-0.188341
06134		9.147664	0.183660	5.105082	0.423955	-0.088366	0.111448	-0.386230	0.102295	-0.804443	0.871721	-0.063916	-0.448859	-0.185859
06135		9.385621	0.998765	5.704728	0.286723	-0.010344	0.233957	-0.385986	0.094971	-0.809326	0.872163	-0.062805	-0.449261	-0.183170
06136		9.448949	1.296703	6.048265	0.114986	0.088768	0.280759	-0.384521	0.097656	-0.811768	0.872970	-0.062912	-0.448658	-0.180752
06137		9.605976	0.983824	5.433612	-0.025814	0.082530	0.256600	-0.379883	0.095215	-0.808838	0.873633	-0.063986	-0.447888	-0.179075
06138		10.338348	-0.611343	4.643099	-0.097630	0.010102	0.196699	-0.382324	0.099854	-0.807861	0.873909	-0.065422	-0.447573	-0.177993
06139		11.099103	-1.947871	5.481647	-0.048761	0.092193	0.161715	-0.380615	0.100586	-0.814941	0.874454	-0.066267	-0.446761	-0.177041
06140		11.548299	-1.405429	6.945356	-0.049998	0.307449	0.247044	-0.366699	0.095703	-0.816162	0.875927	-0.067114	-0.444317	-0.175582
06141		11.034596	0.824725	6.837152	-0.076071	0.281240	0.441168	-0.366455	0.098633	-0.812988	0.877591	-0.068845	-0.441889	-0.172708
06142		10.203095	1.701471	8.047369	-0.149436	-0.063730	0.575014	-0.364258	0.104980	-0.821045	0.878110	-0.072087	-0.441823	-0.168875
06143		9.505594	2.114120	9.525058	-0.283986	-0.040559	0.631715	-0.367676	0.114502	-0.812500	0.878690	-0.076501	-0.441323	-0.165184
06144		7.853951	2.313315	8.774589	-0.536167	0.113443	0.500838	-0.372070	0.118652	-0.819092	0.879449	-0.082078	-0.439444	-0.163468
06145		6.235422	0.607304	7.481070	-0.556471	0.100274	0.337152	-0.355225	0.130615	-0.815918	0.879903	-0.087150	-0.437767	-0.162899
06146		5.239821	-1.322330	7.327513	-0.352343	0.101836	0.245313	-0.366943	0.133789	-0.816406	0.880378	-0.090431	-0.436340	-0.162372
06147		5.827343	-2.619872	7.844988	-0.128089	0.020426	0.253387	-0.358887	0.136963	-0.817871	0.880718	-0.092161	-0.435875	-0.160794
06148		7.247887	-2.230568	7.968104	0.073480	0.017563	0.332619	-0.363037	0.141113	-0.823730	0.881314	-0.092711	-0.435601	-0.157932
06149		8.131255	-0.688095	7.714345	0.195154	0.100650	0.378983	-0.368652	0.143555	-0.821777	0.882346	-0.092449	-0.434841	-0.154379
06150		8.300296	1.041578	7.098549	0.290574	0.123710	0.319411	-0.363281	0.132080	-0.818359	0.883424	-0.091262	-0.434107	-0.150946
06151		7.724698	1.400488	6.668061	0.327614	0.144934	0.149359	-0.352783	0.136963	-0.830566	0.884402	-0.089078	-0.433405	-0.148519
06152		6.915568	1.041112	6.175867	0.365514	0.207186	-0.012051	-0.354492	0.126953	-0.825928	0.885426	-0.086033	-0.432326	-0.147356
06153		5.993172	0.671271	5.536383	0.382423	0.201956	-0.096831	-0.352783	0.126221	-0.839600	0.886323	-0.082522	-0.431404	-0.146670
06154		5.579082	0.354212	5.206501	0.409776	0.078871	-0.121794	-0.355957	0.114990	-0.835205	0.886752	-0.078904	-0.431408	-0.146056
06155		5.609230	0.229625	5.161445	0.413249	0.025421	-0.127632	-0.347656	0.110840	-0.836426	0.886969	-0.075265	-0.431846	-0.145360
06156		5.955162	0.570390	5.041033	0.363532	0.038893	-0.137926	-0.338867	0.104492	-0.830322	0.887190	-0.071965	-0.432082	-0.144984
06157		6.403731	1.260509	4.901797	0.298394	0.022358	-0.137898	-0.351562	0.106934	-0.833984	0.887312	-0.069171	-0.432331	-0.144854
06158		6.673212	1.779122	4.751314	0.191188	0.011614	-0.126213	-0.348145	0.096191	-0.839844	0.887308	-0.067285	-0.432556	-0.145096
06159		6.624056	1.744334	4.482117	0.085102	0.020970	-0.099787	-0.354492	0.100586	-0.843018	0.887333	-0.066197	-0.432559	-0.145432
06160		6.500827	1.268324	4.309400	-0.023347	0.018008	-0.075250	-0.357666	0.086914	-0.841553	0.887295	-0.066054	-0.432449	-0.146053
06161		6.599896	0.712934	4.195886	-0.119128	0.023707	-0.044367	-0.355957	0.093018	-0.838867	0.887281	-0.066606	-0.432209	-0.146597
06162		6.790231	0.335150	4.170107	-0.196585	0.021389	0.002581	-0.357178	0.101807	-0.829346	0.887262	-0.067948	-0.431852	-0.147149
06163		6.769069	0.366599	4.209939	-0.259134	-0.000511	0.076585	-0.351074	0.093262	-0.838867	0.887191	-0.070113	-0.431544	-0.147466
06164		6.942459	0.571917	4.361978	-0.341893	-0.078283	0.118442	-0.344727	0.111572	-0.834961	0.886884	-0.073011	-0.431669	-0.147540
06165		7.226472	0.863795	4.805625	-0.431271	-0.150914	0.099736	-0.352783	0.109863	-0.830566	0.886212	-0.076707	-0.432172	-0.148228
06166		7.674938	1.222425	5.176773	-0.490106	-0.142942	0.052070	-0.350830	0.116699	-0.826172	0.885459	-0.080590	-0.432617	-0.149368
06167		8.114723	1.206861	5.497102	-0.481583	-0.081408	0.016005	-0.348877	0.126709	-0.827393	0.884877	-0.084204	-0.432624	-0.150795
06168		8.258038	0.499259	5.855975	-0.381523	0.011771	0.011562	-0.348877	0.140869	-0.829834	0.884687	-0.086970	-0.432043	-0.152003
06169		8.428370	-0.971993	5.323413	-0.252380	0.143295	0.008203	-0.349121	0.137939	-0.824707	0.885039	-0.088673	-0.430630	-0.152977
06170		9.052683	-1.764286	4.371604	-0.158136	0.172220	-0.018072	-0.351318	0.140381	-0.832520	0.885527	-0.089507	-0.429174	-0.153753
06171		9.832972	-0.815710	4.346923	-0.118016	0.101854	-0.060893	-0.343750	0.148193	-0.827148	0.885737	-0.089973	-0.428330	-0.154624
06172		10.792268	0.842079	5.896063	-0.123020	0.116499	-0.121944	-0.344727	0.141357	-0.822998	0.885906	-0.090304	-0.427381	-0.156082
06173		11.741971	1.835916	7.872076	-0.119783	0.151970	-0.247439	-0.342285	0.144775	-0.832764	0.886040	-0.090063	-0.426302	-0.158391
06174		11.939161	1.186197	8.073960	-0.181771	0.137590	-0.475420	-0.340576	0.135498	-0.826904	0.885772	-0.089494	-0.425390	-0.162609
06175		10.014166	0.057604	9.200409	-0.136258	-0.088595	-0.602759	-0.346924	0.138184	-0.822754	0.884555	-0.088381	-0.426321	-0.167337
06176		9.173236	-1.229493	9.539925	-0.031124	-0.182618	-0.707465	-0.342773	0.134277	-0.819336	0.882886	-0.086295	-0.428163	-0.172460
06177		7.577200	-1.888213	8.904580	0.114974	-0.070377	-0.683391	-0.348633	0.130371	-0.820312	0.881740	-0.083055	-0.429325	-0.176964
06178		6.332997	-0.667310	8.228995	0.176726	-0.007807	-0.571474	-0.354248	0.123535	-0.818604	0.880992	-0.079682	-0.430036	-0.180480
06179		5.600979	0.952770	8.015859	0.040523	0.066924	-0.499229	-0.350830	0.125488	-0.823486	0.880502	-0.077453	-0.429957	-0.183996
06180		5.961995	1.875597	8.015652	-0.090073	0.023149	-0.529651	-0.354492	0.117676	-0.819824	0.879708	-0.076172	-0.429977	-0.188232
06181		6.884125	1.922408	8.406340	-0.182945	0.009750	-0.591578	-0.366455	0.125488	-0.819824	0.878692	-0.075330	-0.430008	-0.193183
06182		7.911962	0.482510	8.352457	-0.277376	0.091271	-0.583757	-0.353027	0.124268	-0.811035	0.877850	-0.075157	-0.429293	-0.198592
06183		8.264442	-1.348100	7.402519	-0.353271	0.156537	-0.400766	-0.354248	0.125000	-0.821045	0.877493	-0.076078	-0.427809	-0.202972
06184		7.389224	-1.757364	6.519960	-0.375752	0.192800	-0.139326	-0.356201	0.131348	-0.822266	0.877693	-0.077999	-0.425851	-0.205479
06185		6.335794	-1.487809	5.934809	-0.381448	0.176623	0.038620	-0.363281	0.136230	-0.826416	0.878113	-0.080639	-0.423892	-0.206714
06186		5.564100	-1.285778	5.563225	-0.355922	0.133559	0.145330	-0.356201	0.152588	-0.822754	0.878561	-0.083534	-0.422251	-0.207021
06187		5.284694	-0.941114	5.197784	-0.321262	0.086420	0.153055	-0.354248	0.151855	-0.824219	0.878846	-0.086379	-0.420957	-0.207276
06188		5.458732	-0.850060	5.102332	-0.257292	0.041764	0.121996	-0.340332	0.164795	-0.818359	0.878983	-0.088665	-0.420133	-0.207403
06189		6.008714	-0.920902	5.192190	-0.220294	0.056912	0.104027	-0.346191	0.160889	-0.826172	0.879156	-0.090673	-0.419197	-0.207695
06190		6.484202	-1.285442	4.921209	-0.161053	0.057514	0.115697	-0.348633	0.162354	-0.820068	0.879413	-0.092208	-0.418391	-0.207555
06191		6.816269	-1.712050	4.595498	-0.073106	0.060650	0.131126	-0.355957	0.164062	-0.826660	0.879766	-0.093140	-0.417730	-0.206973
06192		7.003559	-1.704979	4.350807	0.028126	0.055659	0.142960	-0.347412	0.170654	-0.826416	0.880195	-0.093367	-0.417299	-0.205914
06193		6.882893	-1.399134	3.954162	0.130329	0.057350	0.118115	-0.358643	0.167969	-0.811768	0.880657	-0.092815	-0.416999	-0.204793
06194		6.511237	-0.927881	3.618164	0.262265	-0.017245	0.070176	-0.354736	0.164551	-0.820801	0.880854	-0.091243	-0.417591	-0.203441
06195		6.302826	-0.550299	3.560299	0.374142	-0.139745	0.007483	-0.350342	0.162598	-0.819580	0.880612	-0.088830	-0.419287	-0.202066
06196		6.374452	-0.244942	3.760502	0.447450	-0.229575	-0.039734	-0.355957	0.145752	-0.822021	0.880017	-0.085897	-0.421760	-0.200777
06197		6.746932	-0.113206	4.084938	0.486764	-0.272043	-0.069210	-0.351074	0.146240	-0.830322	0.879268	-0.082538	-0.424661	-0.199343
06198		7.096447	-0.256471	4.413419	0.515521	-0.254166	-0.090447	-0.355957	0.127686	-0.815918	0.878538	-0.078942	-0.427409	-0.198141
06199		7.616668	-0.295578	4.485251	0.530784	-0.250685	-0.090320	-0.362793	0.125000	-0.822510	0.877839	-0.075119	-0.430208	-0.196666
06200		8.140394	-0.154701	4.779165	0.515971	-0.272196	-0.055094	-0.381592	0.125244	-0.815430	0.877072	-0.071610	-0.433095	-0.195050
