// Start Time: Unknown
// Update Rate: 40.0Hz
// Filter Profile: human (46.1)
// Firmware Version: 4.6.0
PacketCounter	SampleTimeFine	Acc_X	Acc_Y	Acc_Z	Gyr_X	Gyr_Y	Gyr_Z	Mag_X	Mag_Y	Mag_Z	Quat_q0	Quat_q1	Quat_q2	Quat_q3
07338		9.772910	0.701338	0.179500	-0.019321	-0.000749	-0.002612	-0.812012	-0.185791	0.472656	-0.123008	-0.696988	0.071088	-0.702868
07339		9.776338	0.673874	0.186372	-0.006410	-0.003097	-0.003935	-0.810059	-0.187256	0.473877	-0.123095	-0.697009	0.071114	-0.702829
07340		9.763370	0.691110	0.146949	0.006889	-0.003081	-0.008577	-0.816162	-0.189453	0.473145	-0.123124	-0.697054	0.070980	-0.702793
07341		9.784123	0.721643	0.179907	0.009179	-0.004575	-0.011225	-0.811279	-0.189941	0.464600	-0.123176	-0.697114	0.070800	-0.702743
07342		9.781895	0.754162	0.152000	-0.002448	-0.006468	-0.007226	-0.805420	-0.192871	0.473389	-0.123328	-0.697164	0.070750	-0.702671
07343		9.773787	0.711959	0.155239	-0.015622	-0.006309	-0.005993	-0.810303	-0.184814	0.473633	-0.123595	-0.697192	0.070823	-0.702589
07344		9.765547	0.636884	0.135609	-0.011737	-0.004287	-0.007737	-0.807861	-0.187256	0.459229	-0.123736	-0.697227	0.070869	-0.702525
07345		9.751072	0.636486	0.143278	0.010358	-0.002512	-0.013826	-0.807861	-0.182617	0.479248	-0.123803	-0.697277	0.070658	-0.702485
07346		9.773975	0.704084	0.170546	0.024052	-0.002428	-0.014338	-0.813721	-0.184570	0.481934	-0.123634	-0.697378	0.070356	-0.702445
07347		9.798857	0.741515	0.144830	0.014927	-0.007839	-0.010987	-0.813232	-0.179199	0.466309	-0.123521	-0.697505	0.070170	-0.702358
07348		9.777952	0.748303	0.132171	-0.001431	-0.006031	-0.005093	-0.814941	-0.179688	0.480713	-0.123495	-0.697525	0.070188	-0.702340
07349		9.797913	0.693746	0.156213	-0.005662	-0.003485	-0.001843	-0.806152	-0.186768	0.468750	-0.123447	-0.697607	0.070249	-0.702261
07350		9.766332	0.684153	0.132539	0.005198	-0.002178	0.000249	-0.814453	-0.190918	0.472412	-0.123417	-0.697617	0.070219	-0.702260
07351		9.770683	0.690169	0.152277	0.012945	-0.003663	-0.002063	-0.805420	-0.196533	0.468750	-0.123347	-0.697685	0.070106	-0.702215
07352		9.771419	0.741499	0.136263	0.013293	-0.008233	-0.003569	-0.806885	-0.190186	0.474854	-0.123361	-0.697773	0.069975	-0.702139
07353		9.779929	0.737710	0.124640	0.013846	-0.005193	-0.004118	-0.813965	-0.179199	0.481201	-0.123294	-0.697877	0.069839	-0.702060
07354		9.802773	0.720567	0.132547	0.014447	-0.006213	-0.005488	-0.806641	-0.186279	0.467285	-0.123103	-0.698031	0.069704	-0.701954
07355		9.781909	0.726546	0.120474	0.013554	-0.001917	-0.004029	-0.810547	-0.176514	0.477051	-0.123027	-0.698049	0.069574	-0.701962
07356		9.766865	0.723491	0.137512	0.011369	-0.005777	-0.003609	-0.805420	-0.188477	0.469971	-0.122833	-0.698171	0.069482	-0.701885
07357		9.767493	0.725599	0.126071	0.008696	-0.007077	-0.005188	-0.801758	-0.189453	0.476562	-0.122838	-0.698251	0.069381	-0.701814
07358		9.776717	0.706804	0.132744	0.003578	-0.006161	-0.007527	-0.813232	-0.187012	0.475586	-0.122905	-0.698369	0.069291	-0.701693
07359		9.783082	0.701301	0.150467	0.003974	-0.006532	-0.010943	-0.811279	-0.181152	0.470947	-0.122951	-0.698475	0.069186	-0.701590
07360		9.777187	0.696076	0.147486	0.008320	-0.007104	-0.010014	-0.811523	-0.182617	0.468262	-0.122897	-0.698552	0.069071	-0.701534
07361		9.783444	0.707438	0.137287	0.008335	-0.005704	-0.010653	-0.804199	-0.187012	0.470703	-0.122873	-0.698595	0.068952	-0.701508
07362		9.779039	0.687316	0.142668	0.000868	-0.008898	-0.007786	-0.805908	-0.177246	0.478027	-0.122947	-0.698679	0.068915	-0.701415
07363		9.785396	0.648138	0.136675	-0.000315	-0.009586	-0.005139	-0.806396	-0.183350	0.480469	-0.122852	-0.698817	0.068916	-0.701293
07364		9.782469	0.628450	0.121958	0.006375	-0.011143	-0.000674	-0.812744	-0.177002	0.478271	-0.122721	-0.698988	0.068896	-0.701148
07365		9.768165	0.675272	0.123247	0.014314	-0.007778	-0.001456	-0.808838	-0.187256	0.474121	-0.122436	-0.699107	0.068826	-0.701086
07366		9.793242	0.693369	0.124238	0.013244	-0.011057	-0.001631	-0.812500	-0.188232	0.476074	-0.122326	-0.699220	0.068764	-0.700998
07367		9.773879	0.684329	0.118921	0.005703	-0.012030	-0.004859	-0.813477	-0.184814	0.479736	-0.122305	-0.699338	0.068739	-0.700888
07368		9.787284	0.655177	0.094270	0.012149	-0.009280	-0.009869	-0.804688	-0.179199	0.471191	-0.122207	-0.699470	0.068605	-0.700785
07369		9.778609	0.662332	0.101582	0.023877	-0.008156	-0.009138	-0.814209	-0.181885	0.474121	-0.121994	-0.699555	0.068405	-0.700757
07370		9.794790	0.704032	0.084436	0.026454	-0.008796	-0.012440	-0.802246	-0.178467	0.478027	-0.121777	-0.699649	0.068155	-0.700726
07371		9.792473	0.720146	0.082844	0.012367	-0.011294	-0.007870	-0.812988	-0.187744	0.476807	-0.121614	-0.699815	0.068040	-0.700600
07372		9.785926	0.679526	0.065647	0.004508	-0.009986	-0.002119	-0.808594	-0.186279	0.476074	-0.121588	-0.699897	0.068055	-0.700521
07373		9.788064	0.666491	0.061958	0.012984	-0.009105	-0.002281	-0.808105	-0.183105	0.472168	-0.121490	-0.699992	0.067995	-0.700448
07374		9.775155	0.699482	0.071631	0.023216	-0.008596	-0.005784	-0.808838	-0.182617	0.482178	-0.121310	-0.700064	0.067836	-0.700423
07375		9.785217	0.714846	0.090747	0.024903	-0.009069	-0.007077	-0.801758	-0.175537	0.475830	-0.121055	-0.700242	0.067604	-0.700311
07376		9.785751	0.717616	0.078154	0.020552	-0.011268	-0.007404	-0.808594	-0.183105	0.474121	-0.120789	-0.700395	0.067435	-0.700221
07377		9.773350	0.718660	0.054983	0.023093	-0.007395	-0.002337	-0.805420	-0.179199	0.480225	-0.120590	-0.700455	0.067296	-0.700208
07378		9.786260	0.720789	0.063845	0.026734	-0.004760	-0.005478	-0.807129	-0.186035	0.473633	-0.120289	-0.700585	0.067055	-0.700153
07379		9.770376	0.733871	0.062063	0.024337	-0.006614	-0.007050	-0.808105	-0.185791	0.480225	-0.120209	-0.700637	0.066864	-0.700133
07380		9.774417	0.758246	0.052501	0.022772	-0.007341	-0.009223	-0.804688	-0.183350	0.480225	-0.120108	-0.700765	0.066630	-0.700045
07381		9.785049	0.775320	0.062327	0.017037	-0.006818	-0.009535	-0.800293	-0.180908	0.481445	-0.120031	-0.700896	0.066436	-0.699945
07382		9.770542	0.741435	0.046261	0.011280	-0.006328	-0.009161	-0.810547	-0.187012	0.479492	-0.119964	-0.701052	0.066283	-0.699816
07383		9.772872	0.713510	0.071736	0.009550	-0.003155	-0.007105	-0.811523	-0.184082	0.475830	-0.119998	-0.701086	0.066173	-0.699785
07384		9.786269	0.684196	0.048748	0.018868	-0.005266	-0.007334	-0.812012	-0.185059	0.478760	-0.119908	-0.701101	0.066001	-0.699802
07385		9.775150	0.720513	0.030539	0.027243	-0.000377	-0.005348	-0.805420	-0.183594	0.480713	-0.119732	-0.701116	0.065754	-0.699841
07386		9.787800	0.772684	0.035298	0.022096	-0.002280	-0.006383	-0.813477	-0.183594	0.482178	-0.119599	-0.701205	0.065536	-0.699794
07387		9.779174	0.778860	0.043969	0.009739	-0.003829	-0.004374	-0.810791	-0.179932	0.481445	-0.119514	-0.701256	0.065437	-0.699768
07388		9.769244	0.749730	0.049433	0.000432	-0.003086	-0.004184	-0.800781	-0.187500	0.487793	-0.119447	-0.701293	0.065420	-0.699743
07389		9.776356	0.711071	0.035600	-0.003340	-0.003588	-0.005780	-0.810059	-0.179443	0.477783	-0.119603	-0.701471	0.065391	-0.699541
07390		9.765746	0.682049	0.051039	-0.000991	-0.002233	-0.011099	-0.815186	-0.180664	0.482910	-0.119623	-0.701454	0.065343	-0.699559
07391		9.769921	0.658132	0.048059	0.005452	-0.003619	-0.015587	-0.802979	-0.181641	0.484131	-0.119590	-0.701496	0.065181	-0.699537
07392		9.767499	0.708973	0.070893	0.014248	-0.003205	-0.017148	-0.806885	-0.177734	0.480713	-0.119558	-0.701642	0.064925	-0.699420
07393		9.796956	0.753782	0.056382	0.006715	0.000389	-0.013343	-0.801514	-0.184814	0.487061	-0.119477	-0.701667	0.064784	-0.699422
07394		9.790419	0.747897	0.065148	-0.008703	0.000660	-0.010069	-0.808105	-0.185547	0.483154	-0.119641	-0.701782	0.064764	-0.699280
07395		9.791184	0.701795	0.061210	-0.019897	0.001141	-0.010676	-0.810791	-0.181152	0.483643	-0.119919	-0.701776	0.064856	-0.699231
07396		9.760097	0.661046	0.094573	-0.015596	-0.003631	-0.007151	-0.805176	-0.175293	0.489502	-0.119998	-0.701804	0.064958	-0.699179
07397		9.781134	0.675485	0.066845	-0.004380	-0.004079	-0.007230	-0.808594	-0.182373	0.483154	-0.119820	-0.701971	0.064948	-0.699043
07398		9.788940	0.671381	0.066160	0.003759	-0.001331	-0.006010	-0.802979	-0.182373	0.480713	-0.119759	-0.702006	0.064893	-0.699023
07399		9.777450	0.690519	0.086779	0.002676	0.002275	-0.007335	-0.807373	-0.182617	0.487061	-0.119767	-0.702012	0.064843	-0.699021
07400		9.782618	0.716636	0.059873	0.005488	-0.001740	-0.008673	-0.813232	-0.183594	0.478516	-0.119689	-0.702115	0.064730	-0.698941
07401		9.756854	0.700376	0.065479	0.011625	-0.004000	-0.011836	-0.800537	-0.188477	0.472900	-0.119656	-0.702085	0.064590	-0.698990
07402		9.783827	0.707972	0.066218	0.018569	-0.005162	-0.014923	-0.813232	-0.176514	0.478516	-0.119803	-0.702087	0.064378	-0.698983
07403		9.789479	0.736422	0.027981	0.018504	-0.005256	-0.012873	-0.797852	-0.180664	0.486816	-0.119544	-0.702078	0.064182	-0.699054
07404		9.777849	0.757117	0.047188	0.014661	-0.003098	-0.013023	-0.797852	-0.182373	0.481934	-0.119418	-0.702271	0.063952	-0.698903
07405		9.775374	0.773644	0.047335	0.014860	-0.002371	-0.010933	-0.812988	-0.192871	0.481934	-0.119360	-0.702380	0.063764	-0.698820
07406		9.776390	0.778034	0.026977	0.011846	-0.003242	-0.010438	-0.814209	-0.191406	0.485107	-0.119502	-0.702375	0.063591	-0.698817
07407		9.780100	0.752503	0.033321	0.007203	-0.004945	-0.010055	-0.805908	-0.182861	0.480225	-0.119609	-0.702413	0.063449	-0.698773
07408		9.785056	0.728533	0.019835	0.005546	-0.007203	-0.008838	-0.812744	-0.177979	0.477783	-0.119592	-0.702461	0.063379	-0.698734
07409		9.756000	0.741385	0.007956	0.013564	-0.000890	-0.013717	-0.812744	-0.185547	0.485840	-0.119428	-0.702387	0.063209	-0.698852
07410		9.785710	0.769906	0.021682	0.019877	0.001709	-0.015364	-0.813965	-0.180908	0.489258	-0.119339	-0.702412	0.062911	-0.698869
07411		9.775833	0.793521	0.013030	0.014070	0.000722	-0.012961	-0.800781	-0.187744	0.480713	-0.119145	-0.702472	0.062680	-0.698862
07412		9.781881	0.804924	0.004059	0.005487	-0.001745	-0.008686	-0.793457	-0.181885	0.486572	-0.119268	-0.702513	0.062590	-0.698808
07413		9.778226	0.768098	0.039365	-0.004750	-0.000920	-0.005092	-0.803711	-0.181396	0.484131	-0.119300	-0.702663	0.062602	-0.698652
07414		9.774733	0.748131	0.037650	-0.008827	0.003232	-0.007256	-0.806641	-0.179199	0.482666	-0.119353	-0.702659	0.062640	-0.698642
07415		9.760978	0.748005	0.037372	-0.004633	0.002024	-0.009813	-0.808350	-0.182617	0.489502	-0.119337	-0.702635	0.062634	-0.698670
07416		9.782330	0.746865	0.038808	0.004655	0.001285	-0.009333	-0.809082	-0.180420	0.477539	-0.119247	-0.702711	0.062508	-0.698620
07417		9.790109	0.743293	0.039281	0.004859	0.003410	-0.007887	-0.800049	-0.188232	0.480225	-0.119196	-0.702599	0.062462	-0.698746
07418		9.784908	0.738322	0.029347	-0.001400	0.003659	-0.008906	-0.810791	-0.186523	0.481689	-0.119393	-0.702578	0.062424	-0.698736
07419		9.776190	0.745289	0.039993	0.001872	0.003961	-0.008721	-0.805664	-0.179199	0.481934	-0.119458	-0.702505	0.062356	-0.698805
07420		9.781066	0.754365	0.051789	0.002113	0.004752	-0.007999	-0.814209	-0.182373	0.483154	-0.119369	-0.702469	0.062304	-0.698861
07421		9.783231	0.742527	0.051491	-0.001188	0.001627	-0.006205	-0.807373	-0.198242	0.478516	-0.119318	-0.702410	0.062289	-0.698931
07422		9.778702	0.737716	0.031537	-0.002333	0.002375	-0.004871	-0.808350	-0.192383	0.483398	-0.119676	-0.702326	0.062286	-0.698954
07423		9.780705	0.758868	0.054099	0.000146	0.005766	-0.006703	-0.807373	-0.191650	0.484131	-0.119849	-0.702279	0.062229	-0.698976
07424		9.780579	0.760416	0.055076	0.003168	0.002487	-0.005945	-0.809326	-0.188477	0.487061	-0.119963	-0.702282	0.062157	-0.698960
07425		9.766851	0.759922	0.054791	-0.002243	0.003893	-0.008262	-0.806152	-0.173340	0.480225	-0.120047	-0.702292	0.062106	-0.698940
07426		9.780244	0.764603	0.056704	-0.003482	0.002667	-0.011803	-0.803955	-0.182861	0.481445	-0.119908	-0.702252	0.062095	-0.699005
07427		9.760193	0.756306	0.065041	-0.004347	0.002871	-0.010470	-0.805420	-0.188232	0.484619	-0.119967	-0.702238	0.062076	-0.699011
07428		9.794738	0.723582	0.054995	-0.004868	0.002624	-0.011194	-0.813477	-0.181396	0.481201	-0.120117	-0.702254	0.062031	-0.698973
07429		9.778624	0.737561	0.055913	-0.006272	0.003945	-0.010546	-0.804199	-0.182617	0.478027	-0.120120	-0.702161	0.062032	-0.699066
07430		9.773950	0.716220	0.073977	-0.003418	0.001818	-0.004949	-0.798096	-0.180176	0.480469	-0.120128	-0.702112	0.062071	-0.699111
07431		9.797243	0.716681	0.046231	0.003986	0.000831	-0.005261	-0.810547	-0.183838	0.479492	-0.120027	-0.702156	0.062037	-0.699087
07432		9.776553	0.756562	0.048650	0.009468	0.002313	-0.006294	-0.811279	-0.183594	0.482422	-0.119925	-0.702098	0.061943	-0.699170
07433		9.770520	0.783630	0.070610	0.003490	0.002009	-0.007319	-0.808105	-0.182861	0.485107	-0.119858	-0.702069	0.061878	-0.699217
07434		9.767707	0.764782	0.059019	-0.004418	-0.000014	-0.007121	-0.802490	-0.182617	0.477783	-0.119836	-0.702099	0.061874	-0.699191
07435		9.769890	0.753247	0.057760	-0.011137	-0.002724	-0.009631	-0.813965	-0.183594	0.488037	-0.119963	-0.702092	0.061948	-0.699169
07436		9.765204	0.732391	0.074797	-0.005416	-0.000448	-0.009941	-0.803467	-0.176514	0.483887	-0.119940	-0.702123	0.061913	-0.699146
07437		9.787799	0.733123	0.056741	0.001909	0.002634	-0.009452	-0.810791	-0.187012	0.484619	-0.119779	-0.702156	0.061846	-0.699146
07438		9.767609	0.774705	0.049306	-0.002689	-0.001815	-0.009144	-0.805908	-0.186523	0.477295	-0.119830	-0.702179	0.061807	-0.699117
07439		9.769195	0.762222	0.057482	-0.013129	-0.003144	-0.007003	-0.809082	-0.178955	0.479736	-0.120018	-0.702140	0.061923	-0.699114
07440		9.786139	0.737180	0.075680	-0.010200	0.000407	-0.006053	-0.805420	-0.188232	0.485107	-0.119991	-0.702086	0.062016	-0.699165
07441		9.761814	0.721688	0.063262	-0.001687	0.002809	-0.008269	-0.802979	-0.179443	0.482178	-0.120058	-0.702110	0.061962	-0.699134
07442		9.776742	0.761946	0.058067	0.009029	-0.000590	-0.008468	-0.803955	-0.183350	0.487305	-0.119891	-0.702163	0.061850	-0.699119
07443		9.782826	0.772522	0.049067	0.005130	-0.001303	-0.005950	-0.807129	-0.185303	0.481201	-0.119768	-0.702264	0.061757	-0.699047
07444		9.777663	0.749486	0.075665	-0.003164	-0.001551	-0.002971	-0.805420	-0.190918	0.481445	-0.119774	-0.702260	0.061801	-0.699046
07445		9.785052	0.760782	0.047172	-0.003967	-0.002652	-0.003048	-0.810303	-0.183838	0.473877	-0.119893	-0.702276	0.061840	-0.699007
07446		9.778748	0.753132	0.055279	-0.003317	-0.002218	-0.006441	-0.809326	-0.186523	0.480225	-0.119949	-0.702177	0.061904	-0.699090
07447		9.778391	0.720317	0.041779	0.004826	-0.002186	-0.004617	-0.817627	-0.179688	0.471191	-0.119916	-0.702169	0.061868	-0.699107
07448		9.779160	0.756648	0.044546	0.007577	-0.000727	-0.005801	-0.803711	-0.190674	0.479980	-0.119789	-0.702005	0.061859	-0.699295
07449		9.789653	0.772987	0.055785	0.005410	-0.003240	-0.005305	-0.799561	-0.180420	0.480713	-0.119860	-0.702041	0.061811	-0.699250
07450		9.777211	0.773525	0.034743	0.000669	-0.000931	-0.003432	-0.812744	-0.185547	0.476562	-0.119767	-0.702084	0.061816	-0.699222
07451		9.783908	0.766960	0.053686	-0.009684	-0.003541	-0.003385	-0.809082	-0.186523	0.474609	-0.119854	-0.702008	0.061940	-0.699273
07452		9.775021	0.738379	0.049703	-0.012673	-0.004395	-0.003575	-0.807861	-0.184082	0.471191	-0.120011	-0.701938	0.062100	-0.699303
07453		9.787389	0.756636	0.031789	-0.004290	-0.002173	-0.001675	-0.813965	-0.189209	0.477539	-0.120056	-0.701833	0.062216	-0.699390
07454		9.784165	0.735183	0.029189	0.000801	-0.001691	0.001371	-0.811279	-0.184326	0.487061	-0.120061	-0.701762	0.062280	-0.699454
07455		9.771457	0.767657	0.031021	0.005176	-0.000789	0.000948	-0.807373	-0.188721	0.483154	-0.119877	-0.701811	0.062245	-0.699440
07456		9.782089	0.782184	0.042681	-0.000627	-0.000404	0.002708	-0.801270	-0.183105	0.484863	-0.119859	-0.701826	0.062300	-0.699424
07457		9.762922	0.771829	0.040247	-0.003468	-0.002436	-0.001638	-0.801758	-0.186768	0.484375	-0.119806	-0.701911	0.062334	-0.699344
07458		9.775240	0.773004	0.060376	-0.004789	-0.000994	-0.003733	-0.806641	-0.177002	0.476562	-0.119856	-0.701972	0.062363	-0.699272
07459		9.783724	0.769508	0.050527	-0.006068	-0.000885	-0.006553	-0.805664	-0.181641	0.477539	-0.119800	-0.701926	0.062417	-0.699323
07460		9.780394	0.749419	0.048703	-0.003986	0.002900	-0.004952	-0.804443	-0.189697	0.483887	-0.119798	-0.701864	0.062456	-0.699382
07461		9.783275	0.738097	0.038387	0.001275	0.000841	-0.006102	-0.808350	-0.193848	0.486328	-0.119865	-0.701899	0.062411	-0.699339
07462		9.777775	0.765972	0.050722	0.002921	0.003107	-0.007322	-0.809814	-0.185303	0.489746	-0.119972	-0.701918	0.062327	-0.699309
07463		9.775648	0.747882	0.029633	0.003722	0.001417	-0.005952	-0.809814	-0.179443	0.485840	-0.119875	-0.701981	0.062233	-0.699271
07464		9.785516	0.763360	0.051586	0.001232	0.002174	-0.005377	-0.807617	-0.188721	0.485352	-0.119723	-0.701994	0.062187	-0.699288
07465		9.772435	0.763334	0.041500	0.001232	0.003571	-0.006025	-0.800293	-0.187012	0.480469	-0.119749	-0.701999	0.062129	-0.699283
07466		9.786509	0.767854	0.033856	-0.002102	0.004560	-0.004802	-0.802979	-0.182617	0.481445	-0.119820	-0.701982	0.062137	-0.699288
07467		9.780234	0.759961	0.043642	-0.003531	0.004449	-0.002818	-0.809326	-0.186035	0.488281	-0.119796	-0.701959	0.062173	-0.699312
07468		9.773970	0.751942	0.052921	-0.006715	0.000072	-0.003810	-0.806641	-0.187744	0.480225	-0.119796	-0.702003	0.062197	-0.699266
07469		9.786069	0.719207	0.060911	-0.003488	0.003115	-0.003543	-0.798828	-0.187012	0.490234	-0.119860	-0.701959	0.062231	-0.699295
07470		9.775606	0.739373	0.062937	0.002814	0.004349	-0.004538	-0.803711	-0.191162	0.484131	-0.119818	-0.702053	0.062149	-0.699216
07471		9.780492	0.747492	0.075094	0.007946	0.007690	-0.004158	-0.803955	-0.191162	0.488525	-0.119823	-0.702039	0.062047	-0.699239
07472		9.771882	0.769959	0.048601	0.005954	0.005871	-0.000878	-0.797607	-0.178223	0.480957	-0.119785	-0.702074	0.061973	-0.699215
07473		9.779889	0.764012	0.049765	0.000367	0.004218	0.003587	-0.802002	-0.187500	0.480713	-0.119627	-0.702076	0.062046	-0.699234
07474		9.766358	0.761092	0.049652	-0.002556	0.003455	0.001337	-0.800537	-0.177490	0.482422	-0.119648	-0.702056	0.062112	-0.699246
07475		9.787289	0.756986	0.061432	-0.002188	0.004434	-0.002058	-0.807373	-0.185791	0.478516	-0.119538	-0.702055	0.062150	-0.699261
07476		9.765688	0.760756	0.061309	0.003833	0.003418	-0.001755	-0.803711	-0.181885	0.485840	-0.119506	-0.702001	0.062146	-0.699322
07477		9.774274	0.756162	0.052847	0.008336	0.007751	0.000686	-0.805908	-0.177734	0.480225	-0.119321	-0.702001	0.062086	-0.699359
07478		9.782452	0.784239	0.067509	0.004979	0.007312	0.003242	-0.804199	-0.179932	0.471924	-0.119116	-0.701936	0.062112	-0.699456
07479		9.777529	0.776518	0.058462	-0.000457	0.007274	0.002250	-0.807373	-0.185303	0.479736	-0.119064	-0.701799	0.062213	-0.699594
07480		9.778808	0.777748	0.040889	-0.002644	0.007520	0.002136	-0.808105	-0.184814	0.484131	-0.119054	-0.701714	0.062284	-0.699674
07481		9.765779	0.758873	0.069608	-0.003401	0.006480	0.000686	-0.809326	-0.188232	0.480469	-0.119025	-0.701677	0.062328	-0.699712
07482		9.763172	0.738724	0.059431	-0.010609	0.006333	-0.004542	-0.803711	-0.182129	0.475342	-0.119177	-0.701596	0.062403	-0.699761
07483		9.756694	0.697067	0.057128	-0.009764	0.008894	-0.006489	-0.802490	-0.185791	0.477295	-0.119292	-0.701481	0.062479	-0.699850
07484		9.789666	0.660758	0.077726	0.001150	0.009033	-0.005874	-0.806152	-0.182373	0.484131	-0.119349	-0.701405	0.062452	-0.699919
07485		9.774834	0.692459	0.111455	0.008817	0.011681	-0.007434	-0.802246	-0.185547	0.478027	-0.119249	-0.701365	0.062311	-0.699989
07486		9.770510	0.722073	0.106152	0.006629	0.007737	-0.005605	-0.801514	-0.180176	0.476318	-0.119245	-0.701319	0.062237	-0.700042
07487		9.765440	0.716516	0.096994	0.002582	0.006351	-0.006562	-0.799072	-0.187012	0.483398	-0.119216	-0.701271	0.062202	-0.700098
07488		9.790631	0.737617	0.092690	0.004250	0.011442	-0.009769	-0.808838	-0.183350	0.479248	-0.119269	-0.701256	0.062081	-0.700115
07489		9.794119	0.744813	0.125054	0.005006	0.006898	-0.005722	-0.805420	-0.194092	0.477783	-0.119221	-0.701199	0.062017	-0.700186
07490		9.798283	0.700619	0.083591	-0.004161	0.006834	-0.001420	-0.808105	-0.184326	0.482178	-0.119389	-0.701127	0.062071	-0.700225
07491		9.783443	0.696122	0.103492	-0.007894	0.005414	0.004528	-0.811768	-0.190674	0.473877	-0.119360	-0.701086	0.062200	-0.700259
07492		9.778000	0.686108	0.103758	-0.004593	0.004843	0.012277	-0.806152	-0.184814	0.479980	-0.119362	-0.700962	0.062397	-0.700365
07493		9.759778	0.708339	0.105613	0.005420	0.001883	0.008628	-0.802979	-0.195068	0.469971	-0.119206	-0.700963	0.062460	-0.700386
07494		9.779174	0.750865	0.120936	0.003041	0.000003	0.007062	-0.806885	-0.182129	0.482666	-0.119296	-0.700906	0.062567	-0.700417
07495		9.768778	0.734374	0.108817	-0.004794	-0.001947	0.005183	-0.802734	-0.186523	0.476318	-0.119209	-0.700948	0.062688	-0.700380
07496		9.779805	0.680438	0.085165	-0.014738	0.001110	0.006770	-0.808594	-0.182373	0.476074	-0.119304	-0.700911	0.062926	-0.700379
07497		9.775429	0.655716	0.102732	-0.011919	-0.000126	0.004827	-0.805664	-0.177490	0.478516	-0.119316	-0.700864	0.063123	-0.700406
07498		9.769254	0.646062	0.111302	-0.004962	-0.001248	0.001748	-0.815186	-0.182129	0.482666	-0.119219	-0.700876	0.063226	-0.700402
07499		9.781722	0.663682	0.093634	-0.000452	-0.002947	-0.001488	-0.801270	-0.199463	0.477051	-0.119136	-0.700901	0.063251	-0.700388
07500		9.786468	0.637544	0.091000	-0.005230	-0.001150	-0.006531	-0.802979	-0.182129	0.481201	-0.119450	-0.700918	0.063294	-0.700314
07501		9.779465	0.629874	0.108954	0.000927	-0.001977	-0.010337	-0.806396	-0.188477	0.482422	-0.119470	-0.700984	0.063240	-0.700249
07502		9.792208	0.634034	0.120058	0.005800	0.004733	-0.011933	-0.809570	-0.187500	0.479248	-0.119540	-0.700991	0.063116	-0.700241
07503		9.792589	0.603169	0.097761	0.015020	-0.000250	-0.007418	-0.798584	-0.183350	0.476074	-0.119474	-0.701014	0.062966	-0.700244
07504		9.804219	0.586942	0.076820	0.018130	-0.001551	-0.001769	-0.808838	-0.191406	0.471680	-0.119317	-0.701070	0.062855	-0.700224
07505		9.784164	0.660255	0.081459	0.024814	-0.001649	0.002739	-0.806396	-0.179688	0.479980	-0.119165	-0.701053	0.062732	-0.700277
07506		9.795512	0.709106	0.095819	0.024914	-0.001043	0.007579	-0.806152	-0.181396	0.475098	-0.118789	-0.701105	0.062632	-0.700299
07507		9.779191	0.734698	0.067404	0.012028	0.001217	0.007601	-0.808350	-0.187988	0.478516	-0.118578	-0.701079	0.062652	-0.700359
07508		9.755244	0.715534	0.054676	-0.003283	0.001534	0.007434	-0.804932	-0.179688	0.478760	-0.118582	-0.701043	0.062800	-0.700381
07509		9.777581	0.711260	0.045991	0.003605	-0.002473	0.007712	-0.800049	-0.190674	0.478271	-0.118415	-0.701072	0.062893	-0.700372
07510		9.769030	0.714917	0.055389	0.010327	0.001194	0.001303	-0.807617	-0.183105	0.478760	-0.118420	-0.701096	0.062878	-0.700348
07511		9.773981	0.721786	0.066375	0.007340	0.001732	0.000461	-0.802734	-0.172363	0.474609	-0.118333	-0.701085	0.062869	-0.700374
07512		9.781951	0.716367	0.066630	-0.000213	0.000634	-0.002061	-0.806885	-0.180176	0.479980	-0.118213	-0.701068	0.062908	-0.700408
07513		9.783291	0.753273	0.060943	0.001199	0.006296	-0.005960	-0.801514	-0.186523	0.481201	-0.118202	-0.701028	0.062886	-0.700453
07514		9.774406	0.725397	0.059587	-0.003456	0.008724	-0.006846	-0.802490	-0.181396	0.474609	-0.118339	-0.700989	0.062901	-0.700467
07515		9.777297	0.714825	0.050838	-0.007130	0.006916	-0.010548	-0.803955	-0.176758	0.486084	-0.118485	-0.700914	0.062924	-0.700515
07516		9.764615	0.700182	0.069803	-0.005910	0.006265	-0.013943	-0.810791	-0.178223	0.471436	-0.118541	-0.700930	0.062882	-0.700493
07517		9.786370	0.684242	0.100867	0.002557	0.008623	-0.014778	-0.806641	-0.182861	0.471191	-0.118580	-0.700805	0.062777	-0.700621
07518		9.792303	0.696902	0.094358	0.007801	0.009330	-0.016530	-0.806396	-0.181641	0.478027	-0.118662	-0.700699	0.062618	-0.700728
07519		9.789574	0.714297	0.097749	0.002251	0.010530	-0.014748	-0.810303	-0.181885	0.473877	-0.118736	-0.700625	0.062506	-0.700799
07520		9.772635	0.693475	0.097209	-0.000122	0.011923	-0.010023	-0.810303	-0.177002	0.476562	-0.118794	-0.700489	0.062460	-0.700929
07521		9.782881	0.676683	0.098873	0.001525	0.010004	-0.009293	-0.804443	-0.177490	0.469971	-0.118752	-0.700395	0.062395	-0.701037
07522		9.783352	0.714326	0.104177	0.008204	0.008035	-0.011722	-0.808838	-0.181152	0.469971	-0.118716	-0.700308	0.062272	-0.701140
07523		9.786238	0.738570	0.108347	0.004581	0.009562	-0.010512	-0.811768	-0.186279	0.477295	-0.118742	-0.700184	0.062192	-0.701266
07524		9.772019	0.754810	0.081637	-0.003134	0.011029	-0.009539	-0.806396	-0.175781	0.481445	-0.118864	-0.700077	0.062176	-0.701354
07525		9.767333	0.734473	0.101784	-0.016632	0.011016	-0.014456	-0.803223	-0.183838	0.477539	-0.118997	-0.700009	0.062209	-0.701397
07526		9.779279	0.704665	0.112223	-0.017618	0.009181	-0.016634	-0.806396	-0.184814	0.476074	-0.119285	-0.699941	0.062259	-0.701411
07527		9.764102	0.670601	0.120202	-0.014561	0.010138	-0.018504	-0.813232	-0.185547	0.486572	-0.119568	-0.699850	0.062267	-0.701453
07528		9.785983	0.673064	0.114343	-0.008727	0.009803	-0.020936	-0.806396	-0.190674	0.473389	-0.119767	-0.699820	0.062174	-0.701457
07529		9.777478	0.717927	0.129719	-0.011172	0.009220	-0.021099	-0.811279	-0.190186	0.475830	-0.120115	-0.699727	0.062144	-0.701493
07530		9.796275	0.699255	0.121594	-0.012819	0.009741	-0.021186	-0.803955	-0.189941	0.470459	-0.120442	-0.699627	0.062117	-0.701539
07531		9.778616	0.679498	0.130768	-0.011790	0.011638	-0.020388	-0.807617	-0.190186	0.472412	-0.120781	-0.699504	0.062100	-0.701605
07532		9.788791	0.664900	0.132587	-0.007792	0.010182	-0.016745	-0.807617	-0.179199	0.478027	-0.121030	-0.699400	0.062075	-0.701668
07533		9.783701	0.661179	0.123761	0.001103	0.005706	-0.010821	-0.810059	-0.183350	0.476074	-0.120979	-0.699386	0.062003	-0.701697
07534		9.788866	0.705406	0.139447	0.009910	0.008121	-0.006092	-0.813965	-0.186523	0.471924	-0.120865	-0.699339	0.061900	-0.701773
07535		9.781875	0.748549	0.134548	0.006154	0.006179	-0.007060	-0.813721	-0.184814	0.471680	-0.120839	-0.699261	0.061836	-0.701860
07536		9.761982	0.738884	0.143287	-0.002335	0.005157	-0.006212	-0.807861	-0.188477	0.469238	-0.120858	-0.699181	0.061854	-0.701936
07537		9.773736	0.723680	0.124123	-0.003784	0.004531	-0.011148	-0.802490	-0.182617	0.475830	-0.121002	-0.699113	0.061857	-0.701978
07538		9.760420	0.707800	0.152072	0.002520	0.004395	-0.011467	-0.802246	-0.189453	0.466309	-0.121005	-0.699121	0.061780	-0.701976
07539		9.787266	0.715710	0.155573	0.005577	0.005359	-0.013332	-0.809570	-0.185059	0.479492	-0.121120	-0.699064	0.061693	-0.702021
07540		9.771636	0.730919	0.146701	0.002597	0.003093	-0.012881	-0.803711	-0.190918	0.474121	-0.121133	-0.699084	0.061598	-0.702007
07541		9.783539	0.734773	0.167943	-0.003114	0.002175	-0.013248	-0.811768	-0.189453	0.468994	-0.121305	-0.699087	0.061577	-0.701977
07542		9.773690	0.723563	0.147091	-0.006768	0.003657	-0.011356	-0.800049	-0.183838	0.475098	-0.121466	-0.699009	0.061605	-0.702024
07543		9.789531	0.715573	0.148086	-0.006641	0.002419	-0.014146	-0.811279	-0.188721	0.475586	-0.121585	-0.699028	0.061592	-0.701986
07544		9.779829	0.722809	0.168196	-0.000906	0.003371	-0.014469	-0.806152	-0.188721	0.473633	-0.121687	-0.699009	0.061527	-0.701992
07545		9.777535	0.722903	0.119440	-0.000342	0.003685	-0.015119	-0.809570	-0.182373	0.476318	-0.121805	-0.698995	0.061457	-0.701992
07546		9.767795	0.730506	0.139823	-0.000862	0.004831	-0.016502	-0.815918	-0.189941	0.468018	-0.121842	-0.698979	0.061359	-0.702010
07547		9.791948	0.753435	0.144308	-0.001248	0.003342	-0.020023	-0.810547	-0.177246	0.473145	-0.122017	-0.698901	0.061266	-0.702065
07548		9.779212	0.740453	0.162041	-0.000958	0.001404	-0.019370	-0.804688	-0.189209	0.473389	-0.122015	-0.698897	0.061144	-0.702080
07549		9.770014	0.731472	0.131222	-0.006567	0.002509	-0.016224	-0.811035	-0.196533	0.471924	-0.122194	-0.698890	0.061121	-0.702058
07550		9.777783	0.729635	0.132208	-0.006133	0.004062	-0.014083	-0.804688	-0.195068	0.473633	-0.122429	-0.698835	0.061126	-0.702071
07551		9.769435	0.738816	0.133178	-0.004410	0.003643	-0.016067	-0.809570	-0.187256	0.471924	-0.122652	-0.698822	0.061094	-0.702048
07552		9.775803	0.735253	0.153450	-0.005792	0.002188	-0.014809	-0.802979	-0.189209	0.478760	-0.122769	-0.698795	0.061075	-0.702057
07553		9.776228	0.739690	0.144241	-0.008513	0.000738	-0.014324	-0.810547	-0.188965	0.475830	-0.122917	-0.698839	0.061076	-0.701987
07554		9.772386	0.720952	0.152149	-0.005457	0.001712	-0.016188	-0.801270	-0.183838	0.470459	-0.123042	-0.698837	0.061036	-0.701970
07555		9.792993	0.720859	0.163544	0.003525	0.001586	-0.014958	-0.806396	-0.185791	0.474609	-0.123052	-0.698849	0.060935	-0.701965
07556		9.771139	0.727227	0.162779	0.008588	0.003504	-0.012525	-0.803467	-0.188477	0.471191	-0.122994	-0.698857	0.060800	-0.701979
07557		9.771592	0.731295	0.153766	0.011340	0.003591	-0.013050	-0.805664	-0.189209	0.476074	-0.122967	-0.698857	0.060650	-0.701996
07558		9.755877	0.746638	0.144497	0.017156	0.003258	-0.014785	-0.806885	-0.188477	0.467285	-0.122891	-0.698893	0.060422	-0.701994
07559		9.777889	0.766332	0.177608	0.024277	0.004287	-0.015715	-0.812500	-0.189209	0.484375	-0.122783	-0.698873	0.060148	-0.702056
07560		9.769482	0.775943	0.177812	0.024932	0.001905	-0.017129	-0.809326	-0.195068	0.474609	-0.122616	-0.698960	0.059808	-0.702028
07561		9.781441	0.797829	0.160682	0.022668	0.002039	-0.015191	-0.810791	-0.192871	0.475098	-0.122563	-0.698990	0.059545	-0.702029
07562		9.775153	0.827655	0.172196	0.017231	-0.000870	-0.014214	-0.808350	-0.191162	0.473145	-0.122517	-0.699035	0.059338	-0.702011
07563		9.782946	0.825654	0.172009	0.013333	0.001202	-0.013704	-0.807129	-0.187012	0.465576	-0.122494	-0.699051	0.059171	-0.702013
07564		9.795480	0.830701	0.182807	0.007888	-0.000312	-0.013380	-0.803467	-0.189697	0.471680	-0.122498	-0.699032	0.059074	-0.702039
07565		9.772358	0.834301	0.121944	0.004672	-0.000595	-0.014965	-0.818359	-0.194092	0.466309	-0.122558	-0.699059	0.058976	-0.702010
07566		9.763287	0.842224	0.131286	0.005936	-0.000688	-0.012124	-0.809814	-0.189453	0.471924	-0.122619	-0.699006	0.058917	-0.702057
07567		9.772495	0.859346	0.152855	-0.003719	0.000373	-0.010598	-0.805176	-0.190918	0.481689	-0.122696	-0.698990	0.058928	-0.702059
07568		9.760065	0.826193	0.128793	-0.016938	-0.004536	-0.012208	-0.805908	-0.192627	0.472168	-0.122888	-0.699068	0.059018	-0.701940
07569		9.761710	0.779911	0.134114	-0.018621	0.000162	-0.014268	-0.800049	-0.189697	0.470703	-0.123164	-0.699045	0.059131	-0.701904
07570		9.772816	0.730680	0.120625	-0.002909	0.001006	-0.018154	-0.816895	-0.198730	0.468994	-0.123316	-0.699054	0.059070	-0.701875
07571		9.772524	0.770072	0.124036	0.013993	0.001665	-0.017126	-0.810303	-0.189697	0.480469	-0.123382	-0.699017	0.058892	-0.701915
07572		9.791165	0.819581	0.129596	0.017422	0.001318	-0.013470	-0.809570	-0.188477	0.473145	-0.123257	-0.699074	0.058663	-0.701899
07573		9.780708	0.825515	0.158602	0.016522	0.001479	-0.011444	-0.807373	-0.190186	0.472412	-0.123136	-0.699087	0.058481	-0.701922
07574		9.751484	0.837038	0.147898	0.012747	0.004214	-0.007445	-0.820801	-0.192383	0.477051	-0.123043	-0.699070	0.058368	-0.701965
07575		9.762830	0.820724	0.137821	0.014948	0.002597	-0.006663	-0.813965	-0.195557	0.471436	-0.122906	-0.699053	0.058237	-0.702016
07576		9.769343	0.850731	0.160869	0.013421	0.003258	-0.010204	-0.816895	-0.188232	0.473389	-0.122883	-0.699021	0.058111	-0.702063
07577		9.773898	0.877473	0.134376	0.005527	0.002524	-0.010694	-0.803467	-0.190430	0.476074	-0.122841	-0.698987	0.058032	-0.702111
07578		9.773597	0.862879	0.172337	-0.003755	-0.001096	-0.008567	-0.802979	-0.193604	0.473877	-0.122898	-0.699025	0.058048	-0.702062
07579		9.784958	0.846647	0.161743	-0.009322	0.000046	-0.006791	-0.816162	-0.189941	0.462646	-0.123031	-0.699030	0.058141	-0.702026
07580		9.773369	0.796160	0.166528	-0.002291	0.002401	-0.006313	-0.807373	-0.198730	0.475830	-0.123075	-0.698926	0.058210	-0.702116
07581		9.770499	0.811339	0.168313	0.001811	0.003926	-0.007416	-0.805176	-0.191162	0.472656	-0.123156	-0.698912	0.058197	-0.702116
07582		9.761483	0.852664	0.181550	-0.002503	0.000210	-0.006382	-0.806885	-0.195801	0.471191	-0.123195	-0.698916	0.058233	-0.702103
07583		9.782369	0.867235	0.154566	-0.012610	-0.003162	-0.004299	-0.804932	-0.192871	0.475342	-0.123353	-0.698917	0.058396	-0.702060
07584		9.766739	0.827961	0.179185	-0.021405	-0.000917	-0.004770	-0.801514	-0.193604	0.469971	-0.123550	-0.698914	0.058606	-0.702011
07585		9.775535	0.789229	0.166892	-0.021243	0.001212	-0.003323	-0.809082	-0.193359	0.467041	-0.123763	-0.698873	0.058843	-0.701994
07586		9.778229	0.776095	0.166055	-0.015236	-0.002588	-0.000290	-0.803467	-0.197021	0.468994	-0.123885	-0.698836	0.059072	-0.701991
07587		9.756611	0.778988	0.164321	-0.000187	-0.002159	-0.000761	-0.810059	-0.192139	0.475586	-0.123921	-0.698845	0.059163	-0.701968
07588		9.781573	0.798962	0.157346	0.006719	-0.003295	-0.001762	-0.810303	-0.197021	0.469727	-0.123820	-0.698891	0.059156	-0.701940
07589		9.765328	0.810213	0.156103	0.004543	-0.004472	-0.001231	-0.811279	-0.194824	0.469238	-0.123804	-0.698911	0.059206	-0.701919
07590		9.771476	0.784319	0.143493	0.004442	-0.001773	-0.000473	-0.813965	-0.189941	0.470947	-0.123761	-0.698902	0.059257	-0.701932
07591		9.776154	0.791769	0.153781	0.011847	-0.001257	-0.001403	-0.811035	-0.186768	0.467041	-0.123602	-0.698902	0.059218	-0.701962
07592		9.776698	0.863066	0.149511	0.016527	-0.003632	-0.000493	-0.808105	-0.187256	0.483398	-0.123378	-0.698920	0.059155	-0.701990
07593		9.774051	0.841601	0.146051	0.000979	-0.005713	-0.000089	-0.805908	-0.189941	0.475586	-0.123247	-0.699023	0.059177	-0.701908
07594		9.772874	0.786586	0.120457	-0.005177	-0.002100	0.001024	-0.807617	-0.196045	0.469482	-0.123223	-0.699048	0.059294	-0.701878
07595		9.763477	0.772357	0.098526	0.007204	-0.000248	-0.002350	-0.807861	-0.193848	0.475586	-0.123205	-0.699040	0.059309	-0.701888
07596		9.780170	0.816146	0.132613	0.017638	-0.001601	-0.002458	-0.816650	-0.188232	0.470215	-0.123053	-0.699091	0.059207	-0.701872
07597		9.780850	0.817280	0.122181	0.012061	-0.001889	0.000668	-0.814209	-0.194092	0.477051	-0.122869	-0.699082	0.059192	-0.701914
07598		9.776180	0.809854	0.110925	-0.001662	-0.000921	0.001264	-0.805176	-0.186768	0.471924	-0.122847	-0.699084	0.059290	-0.701908
07599		9.774185	0.772108	0.136742	0.001676	-0.000475	-0.000606	-0.806641	-0.188965	0.478760	-0.122769	-0.699089	0.059340	-0.701913
07600		9.776925	0.758449	0.135887	0.010245	0.002651	0.002061	-0.803467	-0.184570	0.473389	-0.122594	-0.699108	0.059313	-0.701927
07601		9.761397	0.769936	0.126464	0.013584	0.003096	0.000189	-0.811035	-0.190674	0.477295	-0.122389	-0.699111	0.059249	-0.701964
07602		9.775559	0.808030	0.121288	0.009134	0.000622	0.004022	-0.809326	-0.188721	0.475342	-0.122227	-0.699124	0.059266	-0.701978
07603		9.769536	0.798372	0.130005	-0.000650	0.000987	0.002066	-0.818115	-0.195801	0.469482	-0.122161	-0.699115	0.059355	-0.701991
07604		9.781753	0.763698	0.147991	0.001751	0.002959	0.002257	-0.817871	-0.193604	0.474854	-0.122154	-0.699038	0.059469	-0.702059
07605		9.768256	0.760845	0.147487	0.003213	0.003114	-0.000426	-0.811279	-0.191895	0.471191	-0.122118	-0.698993	0.059518	-0.702107
07606		9.770882	0.782776	0.150033	0.006341	0.001367	-0.002363	-0.806641	-0.186768	0.477783	-0.122077	-0.698970	0.059533	-0.702135
07607		9.791129	0.795567	0.133258	0.001062	0.001968	-0.000582	-0.806885	-0.190674	0.466064	-0.122002	-0.698979	0.059567	-0.702137
07608		9.780297	0.762416	0.169356	-0.001739	0.001810	0.001328	-0.812744	-0.193115	0.475830	-0.122014	-0.698924	0.059701	-0.702178
07609		9.783035	0.748662	0.168872	-0.001177	0.002127	0.000676	-0.807617	-0.185547	0.472900	-0.122010	-0.698900	0.059794	-0.702195
07610		9.762122	0.752125	0.158249	0.002126	0.001115	0.000847	-0.809570	-0.189209	0.472412	-0.121918	-0.698891	0.059850	-0.702214
07611		9.764072	0.772966	0.170298	0.005490	0.001590	-0.001715	-0.809570	-0.183105	0.475830	-0.121856	-0.698877	0.059867	-0.702238
07612		9.789770	0.758825	0.151641	0.003551	0.002635	-0.001804	-0.813721	-0.185059	0.468506	-0.121743	-0.698869	0.059869	-0.702265
07613		9.793159	0.746567	0.141412	0.000011	0.001426	-0.001351	-0.806641	-0.182129	0.473145	-0.121695	-0.698820	0.059947	-0.702316
07614		9.785015	0.752347	0.141435	-0.002389	-0.000546	-0.001541	-0.813232	-0.192383	0.467285	-0.121636	-0.698826	0.060015	-0.702314
07615		9.768777	0.763289	0.141253	0.002952	0.000863	0.000889	-0.820557	-0.191162	0.471680	-0.121622	-0.698778	0.060114	-0.702356
07616		9.779570	0.779252	0.143115	0.000340	-0.003300	0.000632	-0.815186	-0.192627	0.471436	-0.121593	-0.698766	0.060221	-0.702363
07617		9.762027	0.753351	0.158287	-0.014308	-0.005543	-0.000984	-0.808105	-0.191650	0.468994	-0.121728	-0.698765	0.060449	-0.702321
07618		9.762148	0.683693	0.151143	-0.009331	-0.004209	-0.003430	-0.811035	-0.189209	0.472656	-0.121850	-0.698769	0.060613	-0.702282
07619		9.759910	0.717428	0.182724	0.003838	-0.001247	-0.006736	-0.810059	-0.185547	0.472900	-0.121847	-0.698780	0.060607	-0.702272
07620		9.786850	0.741196	0.147110	0.007040	0.000442	-0.005811	-0.812988	-0.181885	0.468018	-0.121774	-0.698784	0.060567	-0.702284
07621		9.784700	0.756990	0.138437	0.008115	0.001015	-0.005734	-0.805664	-0.186035	0.466309	-0.121667	-0.698756	0.060528	-0.702334
07622		9.781174	0.770857	0.149091	0.001262	-0.000610	-0.004100	-0.808838	-0.185303	0.469482	-0.121665	-0.698740	0.060582	-0.702346
07623		9.760137	0.758484	0.175850	0.003388	0.000506	-0.003254	-0.812012	-0.189453	0.477051	-0.121614	-0.698724	0.060609	-0.702368
07624		9.781850	0.738095	0.136307	0.003314	0.000415	-0.001181	-0.816406	-0.192871	0.474854	-0.121558	-0.698734	0.060639	-0.702366
07625		9.775644	0.764722	0.147767	0.003153	-0.001715	-0.002629	-0.812012	-0.193848	0.474365	-0.121550	-0.698740	0.060685	-0.702357
07626		9.774186	0.763925	0.167078	0.002323	0.001358	-0.004683	-0.803711	-0.190674	0.473389	-0.121588	-0.698728	0.060719	-0.702359
07627		9.778904	0.754312	0.137225	-0.000066	0.000811	-0.006224	-0.803711	-0.195801	0.466309	-0.121644	-0.698736	0.060751	-0.702339
07628		9.784273	0.728882	0.135141	0.007929	-0.001144	-0.006494	-0.812500	-0.188232	0.474609	-0.121703	-0.698740	0.060759	-0.702324
07629		9.773978	0.750305	0.126014	0.014732	0.000424	-0.006749	-0.810791	-0.193359	0.469971	-0.121593	-0.698758	0.060649	-0.702335
07630		9.766954	0.777401	0.147381	0.013354	0.001784	-0.007492	-0.802490	-0.188477	0.469727	-0.121571	-0.698744	0.060578	-0.702358
07631		9.772169	0.787502	0.148266	0.005027	-0.001950	-0.008766	-0.804443	-0.195068	0.472656	-0.121595	-0.698773	0.060556	-0.702328
07632		9.791039	0.764978	0.146868	-0.006790	-0.003492	-0.006031	-0.810303	-0.190186	0.467285	-0.121751	-0.698801	0.060678	-0.702263
07633		9.801834	0.747244	0.145692	-0.005331	0.000009	-0.003781	-0.810547	-0.180908	0.469482	-0.121832	-0.698761	0.060802	-0.702277
07634		9.783577	0.738357	0.134099	0.002820	0.003010	-0.004616	-0.812988	-0.189941	0.478271	-0.121752	-0.698721	0.060801	-0.702331
07635		9.780747	0.752735	0.135435	0.004726	0.000512	-0.002484	-0.804932	-0.192871	0.467529	-0.121699	-0.698734	0.060811	-0.702326
07636		9.769820	0.772206	0.136012	0.002054	-0.002318	-0.002016	-0.808594	-0.192383	0.469727	-0.121734	-0.698739	0.060900	-0.702307
07637		9.771859	0.758283	0.144409	0.000875	-0.000192	-0.001340	-0.805908	-0.185791	0.470947	-0.121758	-0.698724	0.060993	-0.702310
07638		9.779954	0.753275	0.144619	0.002224	0.001238	-0.001920	-0.818604	-0.182129	0.478271	-0.121714	-0.698713	0.061037	-0.702325
07639		9.763656	0.764556	0.144805	0.004911	0.002674	-0.001728	-0.810059	-0.188965	0.473389	-0.121573	-0.698696	0.061022	-0.702368
07640		9.778481	0.769515	0.127394	0.004631	0.004637	-0.003085	-0.809570	-0.195801	0.476074	-0.121541	-0.698660	0.061037	-0.702408
07641		9.777054	0.785302	0.109389	0.004453	-0.000343	-0.001827	-0.812500	-0.184326	0.478027	-0.121557	-0.698677	0.061088	-0.702383
07642		9.766262	0.752830	0.145087	0.003074	0.001016	-0.002570	-0.802490	-0.186768	0.471924	-0.121474	-0.698685	0.061095	-0.702389
07643		9.788319	0.787215	0.140052	0.008661	0.002731	-0.007057	-0.810791	-0.191650	0.474609	-0.121437	-0.698687	0.061038	-0.702398
07644		9.785606	0.766967	0.138669	0.007134	0.003912	-0.003651	-0.815674	-0.191650	0.475830	-0.121413	-0.698664	0.061034	-0.702426
07645		9.780861	0.760562	0.128689	0.003845	0.003524	-0.003160	-0.802490	-0.186279	0.470215	-0.121402	-0.698634	0.061061	-0.702456
07646		9.766596	0.757843	0.138098	0.001366	0.004279	-0.003288	-0.813477	-0.184326	0.473145	-0.121399	-0.698601	0.061103	-0.702485
07647		9.773258	0.751567	0.158427	0.004960	0.002734	-0.003113	-0.806641	-0.192383	0.476807	-0.121320	-0.698576	0.061103	-0.702524
07648		9.779899	0.745617	0.178510	0.005885	0.002601	-0.005837	-0.807861	-0.189697	0.473389	-0.121334	-0.698584	0.061088	-0.702514
07649		9.764933	0.759204	0.159508	0.003844	0.003524	-0.003161	-0.813721	-0.191650	0.472168	-0.121325	-0.698563	0.061115	-0.702535
07650		9.776930	0.761282	0.180958	0.003093	0.003864	-0.005279	-0.808105	-0.186523	0.464600	-0.121353	-0.698520	0.061141	-0.702570
07651		9.786354	0.758758	0.162664	0.001953	0.004625	-0.004635	-0.810303	-0.190186	0.469482	-0.121365	-0.698452	0.061183	-0.702633
07652		9.776985	0.744778	0.142071	0.001530	0.003593	0.000173	-0.812988	-0.188232	0.471680	-0.121356	-0.698403	0.061273	-0.702675
07653		9.766748	0.747514	0.171583	-0.001165	0.000731	0.001336	-0.815430	-0.182129	0.479492	-0.121333	-0.698379	0.061387	-0.702693
07654		9.775630	0.742366	0.161969	-0.002274	-0.001297	0.003305	-0.810547	-0.179932	0.468262	-0.121224	-0.698397	0.061487	-0.702684
07655		9.759407	0.752597	0.161607	-0.000876	0.000192	0.001340	-0.807861	-0.195801	0.470215	-0.121136	-0.698372	0.061579	-0.702717
07656		9.781017	0.749994	0.163420	-0.005749	0.003213	-0.002346	-0.808350	-0.186768	0.477539	-0.121272	-0.698325	0.061733	-0.702726
07657		9.791430	0.712234	0.132076	-0.008783	0.000831	0.000195	-0.807861	-0.190674	0.465820	-0.121309	-0.698325	0.061883	-0.702707
07658		9.762304	0.704668	0.159352	-0.003534	0.003027	-0.002914	-0.808350	-0.185059	0.466064	-0.121391	-0.698268	0.062004	-0.702738
07659		9.776462	0.708577	0.151520	0.007587	0.002689	-0.000183	-0.814209	-0.184570	0.473633	-0.121298	-0.698231	0.062029	-0.702789
07660		9.785800	0.739965	0.135479	0.013370	0.000931	0.000118	-0.811035	-0.187744	0.474609	-0.121124	-0.698236	0.061987	-0.702818
07661		9.796514	0.756100	0.137904	0.009462	0.002984	0.000627	-0.802246	-0.185547	0.474365	-0.121015	-0.698227	0.061992	-0.702845
07662		9.779544	0.765878	0.147998	0.008322	0.003745	0.001270	-0.806152	-0.188232	0.468750	-0.120906	-0.698228	0.062004	-0.702862
07663		9.777510	0.779585	0.140054	0.006569	0.004130	0.003951	-0.812500	-0.191895	0.469482	-0.120822	-0.698189	0.062081	-0.702908
07664		9.761935	0.773793	0.168637	-0.001743	0.001809	0.001326	-0.805420	-0.178955	0.471191	-0.120856	-0.698148	0.062224	-0.702930
07665		9.749307	0.737300	0.154995	-0.006352	-0.000515	-0.005243	-0.815186	-0.193359	0.479248	-0.120875	-0.698152	0.062298	-0.702917
07666		9.761460	0.704749	0.173284	-0.005613	0.004782	-0.007161	-0.817871	-0.179688	0.470215	-0.121009	-0.698119	0.062377	-0.702919
07667		9.788964	0.713246	0.167194	0.001669	0.004630	-0.011592	-0.816162	-0.187256	0.470459	-0.121008	-0.698064	0.062322	-0.702979
07668		9.804389	0.720847	0.140391	0.000180	0.004447	-0.008215	-0.810303	-0.186768	0.468506	-0.121059	-0.698009	0.062339	-0.703023
07669		9.805635	0.707157	0.159715	-0.005120	0.002191	-0.003724	-0.819824	-0.187744	0.472656	-0.121123	-0.697968	0.062448	-0.703043
07670		9.782771	0.673483	0.175593	-0.003413	0.003705	0.000576	-0.820068	-0.181152	0.473145	-0.121121	-0.697909	0.062570	-0.703091
07671		9.759068	0.690266	0.166397	0.010758	0.004360	0.001432	-0.803467	-0.192871	0.470459	-0.120930	-0.697869	0.062548	-0.703166
07672		9.777000	0.734837	0.181631	0.016573	-0.000186	0.003061	-0.802734	-0.187500	0.472656	-0.120806	-0.697899	0.062549	-0.703158
07673		9.786401	0.765460	0.165052	0.006178	-0.000221	0.003137	-0.809326	-0.184326	0.475098	-0.120723	-0.697924	0.062618	-0.703140
07674		9.786663	0.729770	0.162379	-0.005612	0.002496	0.001805	-0.808350	-0.179199	0.471191	-0.120717	-0.697905	0.062757	-0.703148
07675		9.777329	0.698132	0.179263	-0.002256	0.001550	0.000595	-0.813721	-0.194824	0.475830	-0.120656	-0.697889	0.062846	-0.703167
07676		9.769143	0.704076	0.179607	0.009127	0.002932	-0.004944	-0.809570	-0.185791	0.471680	-0.120666	-0.697884	0.062835	-0.703171
07677		9.752135	0.732029	0.151276	0.016852	0.000135	-0.004550	-0.804932	-0.175049	0.477295	-0.120538	-0.697911	0.062739	-0.703175
07678		9.782243	0.744176	0.183399	0.003788	-0.002734	-0.004000	-0.815186	-0.191650	0.471436	-0.120423	-0.697976	0.062715	-0.703132
07679		9.789911	0.720435	0.152096	-0.010004	-0.000459	-0.002684	-0.815430	-0.181396	0.472900	-0.120559	-0.697951	0.062896	-0.703117
07680		9.783322	0.676237	0.167530	-0.010541	-0.000747	-0.002723	-0.817871	-0.192139	0.466553	-0.120609	-0.697935	0.063041	-0.703112
07681		9.783256	0.677133	0.167749	0.000673	0.001857	-0.004777	-0.809082	-0.185791	0.471191	-0.120680	-0.697883	0.063119	-0.703144
07682		9.775083	0.700609	0.129939	0.005682	0.000410	-0.005901	-0.806396	-0.189453	0.472168	-0.120665	-0.697891	0.063112	-0.703140
07683		9.769334	0.712250	0.169352	-0.000251	-0.002786	-0.005629	-0.810547	-0.192627	0.472168	-0.120730	-0.697925	0.063176	-0.703088
07684		9.791569	0.711908	0.160829	0.002401	0.001442	-0.006767	-0.803467	-0.187012	0.470215	-0.120805	-0.697918	0.063212	-0.703079
07685		9.795360	0.720034	0.181579	0.004591	0.001229	-0.006642	-0.806885	-0.188721	0.473145	-0.120826	-0.697925	0.063214	-0.703069
07686		9.786000	0.706790	0.160354	-0.000716	0.001790	-0.004168	-0.805420	-0.186035	0.474609	-0.120876	-0.697920	0.063285	-0.703059
07687		9.784837	0.687516	0.139149	-0.001849	-0.000268	-0.001504	-0.806152	-0.190186	0.471924	-0.120888	-0.697939	0.063379	-0.703030
07688		9.777079	0.712204	0.170045	0.004916	-0.000138	0.000288	-0.803467	-0.178711	0.465820	-0.120864	-0.697952	0.063450	-0.703014
07689		9.783137	0.721089	0.161376	0.001900	0.000326	0.000120	-0.810791	-0.189453	0.478027	-0.120785	-0.697942	0.063514	-0.703032
07690		9.784558	0.722816	0.141946	-0.003775	-0.000622	-0.000931	-0.813965	-0.190186	0.474609	-0.120827	-0.697961	0.063638	-0.702994
07691		9.785907	0.708002	0.160666	-0.007097	0.001774	-0.001770	-0.807129	-0.184814	0.469727	-0.120914	-0.697935	0.063789	-0.702992
07692		9.759617	0.703830	0.148663	0.002018	-0.000952	-0.001984	-0.814941	-0.185303	0.469727	-0.120893	-0.697944	0.063851	-0.702981
07693		9.765171	0.677637	0.146818	0.008315	0.001794	-0.004327	-0.807861	-0.187012	0.472656	-0.120833	-0.697924	0.063834	-0.703012
07694		9.778991	0.717713	0.141356	0.004659	-0.000106	-0.007363	-0.809082	-0.190918	0.468506	-0.120851	-0.697943	0.063829	-0.702991
07695		9.796964	0.729574	0.153238	0.000032	-0.000508	-0.007646	-0.810547	-0.187988	0.478271	-0.120948	-0.697940	0.063884	-0.702973
07696		9.780118	0.706082	0.159824	-0.006366	0.000868	-0.005912	-0.813721	-0.186768	0.475830	-0.121047	-0.697947	0.063983	-0.702940
07697		9.785651	0.680326	0.158463	-0.001833	0.002578	-0.004217	-0.810059	-0.191650	0.468994	-0.121080	-0.697929	0.064051	-0.702945
07698		9.772090	0.678591	0.157738	0.004200	0.001654	-0.003880	-0.812256	-0.183838	0.469971	-0.121109	-0.697910	0.064099	-0.702955
07699		9.774534	0.701210	0.159839	0.010547	0.000221	-0.004231	-0.808838	-0.182373	0.476807	-0.121018	-0.697915	0.064059	-0.702969
07700		9.776958	0.724069	0.161722	0.007872	0.000202	-0.005779	-0.808350	-0.187012	0.473633	-0.120950	-0.697948	0.064019	-0.702951
07701		9.767989	0.730128	0.170827	0.000067	-0.003297	-0.006318	-0.798340	-0.182373	0.474854	-0.120995	-0.697990	0.064069	-0.702898
07702		9.780970	0.698439	0.178388	-0.004134	-0.000712	-0.005816	-0.808105	-0.179688	0.476562	-0.121048	-0.698026	0.064141	-0.702846
07703		9.770231	0.683429	0.176017	-0.000341	-0.001480	-0.004220	-0.809082	-0.183105	0.464111	-0.121017	-0.698061	0.064181	-0.702814
07704		9.812737	0.695168	0.150584	0.004761	0.001972	-0.004537	-0.808594	-0.184570	0.473633	-0.120987	-0.698026	0.064194	-0.702852
07705		9.775417	0.710579	0.139518	0.003176	0.001135	-0.005343	-0.809570	-0.185059	0.470703	-0.120979	-0.698031	0.064209	-0.702847
07706		9.771798	0.724336	0.149996	0.001287	-0.002009	-0.003441	-0.807861	-0.188721	0.473389	-0.120975	-0.698047	0.064267	-0.702826
07707		9.782410	0.741269	0.151196	-0.001650	-0.005701	-0.002306	-0.803467	-0.183838	0.471924	-0.121011	-0.698102	0.064377	-0.702755
07708		9.768476	0.703887	0.155877	-0.008641	-0.002397	-0.008203	-0.809326	-0.190918	0.479004	-0.121132	-0.698126	0.064477	-0.702701
07709		9.778942	0.651416	0.161750	-0.005074	0.000278	-0.010713	-0.808594	-0.181885	0.471191	-0.121284	-0.698146	0.064534	-0.702650
07710		9.780887	0.656657	0.132644	0.005662	-0.000148	-0.012173	-0.802979	-0.188721	0.473633	-0.121292	-0.698163	0.064463	-0.702639
07711		9.782455	0.680421	0.144055	0.010332	-0.001106	-0.011919	-0.815186	-0.178467	0.468506	-0.121314	-0.698213	0.064377	-0.702593
07712		9.781568	0.682268	0.153205	0.002632	-0.002535	-0.009627	-0.816650	-0.192871	0.470703	-0.121292	-0.698222	0.064348	-0.702591
07713		9.777870	0.697120	0.163076	0.005598	-0.003051	-0.008075	-0.806885	-0.181396	0.463379	-0.121337	-0.698240	0.064353	-0.702564
07714		9.777732	0.699177	0.162518	0.009088	-0.000461	-0.008508	-0.818848	-0.184570	0.469482	-0.121289	-0.698237	0.064291	-0.702581
07715		9.775432	0.715649	0.153540	0.012085	0.000475	-0.009008	-0.804932	-0.190186	0.468018	-0.121223	-0.698228	0.064199	-0.702610
07716		9.767820	0.723910	0.143634	0.007118	0.000546	-0.007909	-0.813232	-0.180420	0.470947	-0.121254	-0.698231	0.064186	-0.702603
07717		9.778286	0.742173	0.145704	-0.001307	-0.000525	-0.008427	-0.809570	-0.190186	0.479980	-0.121272	-0.698227	0.064202	-0.702603
07718		9.774262	0.721212	0.162913	-0.006664	-0.001995	-0.010164	-0.806152	-0.189453	0.478516	-0.121421	-0.698265	0.064279	-0.702532
07719		9.757431	0.699053	0.168948	-0.004544	-0.002829	-0.014924	-0.816162	-0.187744	0.479736	-0.121591	-0.698319	0.064296	-0.702448
07720		9.778104	0.699549	0.179363	-0.000915	-0.002909	-0.016800	-0.809570	-0.185059	0.475342	-0.121717	-0.698365	0.064254	-0.702384
07721		9.783513	0.693458	0.139072	0.004517	-0.001350	-0.017145	-0.815186	-0.190674	0.470947	-0.121790	-0.698404	0.064155	-0.702342
07722		9.795976	0.699751	0.149758	0.003133	0.000003	-0.017894	-0.804688	-0.188965	0.474609	-0.121921	-0.698402	0.064082	-0.702327
07723		9.791091	0.696622	0.138880	0.006636	-0.000218	-0.016305	-0.813232	-0.186768	0.475098	-0.122002	-0.698439	0.063985	-0.702285
07724		9.773801	0.709736	0.147751	0.006504	-0.003206	-0.010120	-0.804443	-0.186035	0.469971	-0.121999	-0.698483	0.063937	-0.702246
07725		9.783259	0.707993	0.127426	0.008300	-0.004410	-0.005870	-0.810059	-0.189941	0.474121	-0.121952	-0.698536	0.063917	-0.702204
07726		9.772193	0.711407	0.165039	0.008203	-0.003102	-0.004457	-0.811523	-0.186523	0.471436	-0.121913	-0.698578	0.063917	-0.702169
07727		9.774902	0.716030	0.125525	0.013417	-0.000915	-0.006889	-0.814697	-0.187500	0.475830	-0.121828	-0.698599	0.063837	-0.702170
07728		9.768233	0.744385	0.136888	0.017562	0.002114	-0.010759	-0.813721	-0.190918	0.476074	-0.121743	-0.698611	0.063681	-0.702187
07729		9.773282	0.755583	0.137747	0.015321	-0.001127	-0.013743	-0.812256	-0.192139	0.474609	-0.121727	-0.698652	0.063536	-0.702161
07730		9.773692	0.760230	0.127345	0.011404	-0.002480	-0.017479	-0.802979	-0.190918	0.468750	-0.121790	-0.698700	0.063401	-0.702116
07731		9.783735	0.745506	0.135627	0.005809	-0.001949	-0.021969	-0.809326	-0.192383	0.481201	-0.121947	-0.698735	0.063278	-0.702064
07732		9.786517	0.756479	0.165470	-0.001421	-0.000351	-0.020269	-0.810791	-0.185059	0.475098	-0.122144	-0.698773	0.063223	-0.701997
07733		9.770158	0.717025	0.131205	-0.004882	-0.000954	-0.014917	-0.804688	-0.186523	0.472900	-0.122271	-0.698785	0.063224	-0.701963
07734		9.790190	0.716208	0.151650	-0.004958	-0.002459	-0.011474	-0.813477	-0.186279	0.471680	-0.122386	-0.698811	0.063266	-0.701914
07735		9.789295	0.718272	0.160692	-0.000259	-0.003370	-0.011919	-0.811523	-0.191162	0.469482	-0.122449	-0.698832	0.063260	-0.701882
07736		9.773401	0.732371	0.149878	0.006214	-0.002665	-0.010139	-0.803711	-0.191895	0.478027	-0.122479	-0.698851	0.063231	-0.701861
07737		9.779842	0.744952	0.130677	0.006606	-0.003089	-0.012911	-0.813477	-0.194336	0.470215	-0.122537	-0.698918	0.063174	-0.701789
07738		9.793967	0.734836	0.159289	0.007577	-0.002619	-0.010062	-0.812988	-0.197998	0.471924	-0.122573	-0.698936	0.063143	-0.701768
07739		9.777353	0.748258	0.158312	0.006556	-0.001725	-0.012888	-0.804199	-0.188477	0.477783	-0.122668	-0.698952	0.063108	-0.701738
07740		9.753191	0.768115	0.147204	0.002859	-0.005128	-0.013173	-0.814453	-0.187012	0.479492	-0.122733	-0.699029	0.063073	-0.701653
07741		9.773706	0.749020	0.126009	0.005877	-0.004152	-0.014374	-0.807617	-0.187744	0.471436	-0.122758	-0.699089	0.062988	-0.701596
07742		9.777991	0.760089	0.135639	0.010550	-0.003666	-0.015491	-0.812256	-0.184082	0.470703	-0.122770	-0.699139	0.062862	-0.701555
07743		9.788211	0.744387	0.143466	0.012206	-0.004156	-0.015409	-0.809326	-0.187500	0.465820	-0.122735	-0.699186	0.062708	-0.701529
07744		9.781991	0.774957	0.143921	0.010259	-0.004549	-0.014137	-0.812988	-0.186523	0.476807	-0.122736	-0.699220	0.062601	-0.701504
07745		9.766639	0.790895	0.122890	0.008993	-0.004486	-0.016997	-0.814209	-0.183838	0.472900	-0.122754	-0.699282	0.062465	-0.701451
07746		9.777737	0.795419	0.151819	0.008678	-0.005396	-0.014946	-0.808350	-0.184082	0.472168	-0.122737	-0.699336	0.062343	-0.701412
07747		9.775918	0.778087	0.139033	0.003368	-0.003449	-0.013816	-0.808838	-0.188965	0.475830	-0.122767	-0.699371	0.062278	-0.701377
07748		9.779346	0.768732	0.127476	-0.000987	-0.004448	-0.013387	-0.810547	-0.186279	0.475098	-0.122861	-0.699417	0.062270	-0.701316
07749		9.774571	0.764467	0.115580	0.004734	-0.004819	-0.012376	-0.811279	-0.190186	0.471680	-0.122874	-0.699469	0.062212	-0.701267
07750		9.785738	0.768349	0.144933	0.010154	-0.001814	-0.014101	-0.813232	-0.191895	0.474121	-0.122887	-0.699491	0.062104	-0.701252
07751		9.764365	0.810545	0.126194	0.007649	-0.002529	-0.012167	-0.804688	-0.190186	0.469971	-0.122911	-0.699518	0.062040	-0.701226
07752		9.770025	0.822451	0.116344	0.002572	-0.006017	-0.011828	-0.802490	-0.192139	0.479248	-0.122975	-0.699570	0.062029	-0.701165
07753		9.753466	0.800292	0.121535	-0.006068	-0.006522	-0.014417	-0.809814	-0.183838	0.468262	-0.123142	-0.699647	0.062067	-0.701055
07754		9.751801	0.747712	0.115905	-0.004913	-0.002988	-0.019860	-0.810059	-0.189209	0.479248	-0.123292	-0.699652	0.062020	-0.701028
07755		9.776118	0.737158	0.115955	0.007660	-0.000211	-0.022586	-0.804443	-0.189941	0.480957	-0.123382	-0.699687	0.061841	-0.700993
07756		9.777874	0.764223	0.117066	0.017338	-0.003981	-0.021427	-0.805420	-0.193359	0.474854	-0.123381	-0.699784	0.061593	-0.700918
07757		9.784208	0.797881	0.128125	0.011191	-0.006086	-0.015541	-0.802002	-0.188477	0.479248	-0.123410	-0.699864	0.061476	-0.700843
07758		9.778094	0.792276	0.135251	0.003110	-0.005724	-0.011801	-0.811768	-0.196289	0.478027	-0.123441	-0.699944	0.061436	-0.700761
07759		9.788518	0.775637	0.143104	0.005168	-0.003213	-0.010939	-0.794678	-0.180664	0.472168	-0.123493	-0.699982	0.061413	-0.700716
07760		9.769025	0.766413	0.149803	0.014438	-0.002293	-0.011104	-0.806885	-0.197266	0.479492	-0.123381	-0.700041	0.061254	-0.700691
07761		9.784919	0.775163	0.110969	0.019705	-0.004281	-0.010855	-0.804443	-0.183350	0.470703	-0.123315	-0.700123	0.061109	-0.700634
07762		9.775571	0.817696	0.111334	0.019784	-0.009900	-0.006779	-0.804443	-0.187988	0.479492	-0.123124	-0.700229	0.060966	-0.700573
07763		9.773031	0.833751	0.100360	0.019315	-0.003852	-0.008085	-0.814941	-0.192627	0.474854	-0.122977	-0.700308	0.060812	-0.700533
07764		9.778034	0.844263	0.099607	0.018428	-0.007089	-0.010293	-0.811768	-0.192871	0.474609	-0.122884	-0.700382	0.060679	-0.700488
07765		9.768907	0.851499	0.106999	0.014681	-0.007727	-0.011909	-0.811768	-0.192383	0.471191	-0.122844	-0.700460	0.060568	-0.700426
07766		9.762862	0.845267	0.113470	0.008920	-0.008844	-0.010153	-0.808350	-0.193359	0.477051	-0.122839	-0.700528	0.060528	-0.700363
07767		9.779832	0.838106	0.101899	0.002879	-0.007983	-0.010466	-0.804932	-0.192627	0.489258	-0.122893	-0.700601	0.060531	-0.700279
07768		9.776427	0.834474	0.069667	0.002593	-0.008865	-0.009104	-0.803711	-0.192627	0.479980	-0.122918	-0.700723	0.060525	-0.700153
07769		9.762611	0.817251	0.114238	0.006277	-0.007427	-0.014463	-0.808838	-0.191406	0.479004	-0.122972	-0.700815	0.060455	-0.700058
07770		9.755777	0.791145	0.099925	0.001755	-0.007207	-0.010515	-0.805420	-0.197266	0.476562	-0.123018	-0.700883	0.060453	-0.699982
07771		9.762373	0.768162	0.087094	0.002098	-0.004830	-0.015340	-0.813232	-0.192139	0.482910	-0.123150	-0.700932	0.060432	-0.699912
07772		9.780029	0.782540	0.097501	0.016897	-0.005019	-0.015947	-0.801270	-0.192627	0.479004	-0.123107	-0.701011	0.060244	-0.699857
07773		9.776604	0.800139	0.096651	0.022713	-0.005260	-0.017740	-0.799561	-0.191650	0.485107	-0.123047	-0.701110	0.059998	-0.699789
07774		9.784018	0.815154	0.056921	0.018782	-0.006112	-0.013781	-0.806152	-0.189453	0.485107	-0.122974	-0.701228	0.059809	-0.699699
07775		9.775287	0.787078	0.071974	0.011331	-0.005365	-0.012769	-0.804932	-0.189697	0.480469	-0.122938	-0.701316	0.059685	-0.699629
07776		9.778197	0.776390	0.069701	0.021017	-0.004254	-0.009444	-0.800781	-0.177734	0.483887	-0.122797	-0.701393	0.059512	-0.699591
07777		9.774924	0.791845	0.068992	0.032384	-0.003596	-0.006742	-0.807617	-0.187012	0.478027	-0.122453	-0.701498	0.059206	-0.699571
07778		9.778099	0.816509	0.049862	0.036391	-0.002091	-0.005814	-0.811523	-0.187744	0.479004	-0.122135	-0.701564	0.058924	-0.699585
07779		9.777518	0.853714	0.040879	0.033522	-0.005784	-0.005339	-0.806641	-0.189941	0.482422	-0.121839	-0.701653	0.058681	-0.699568
07780		9.767863	0.858917	0.058466	0.024932	-0.002852	-0.005742	-0.809326	-0.188965	0.472412	-0.121640	-0.701721	0.058509	-0.699549
07781		9.775551	0.890798	0.050296	0.023169	-0.001056	-0.004410	-0.796143	-0.190674	0.484375	-0.121454	-0.701735	0.058378	-0.699578
07782		9.774810	0.891370	0.059198	0.014778	-0.002196	-0.005563	-0.809814	-0.184082	0.481201	-0.121356	-0.701804	0.058295	-0.699533
07783		9.777161	0.878969	0.067546	0.003351	-0.001500	-0.008236	-0.807617	-0.180908	0.480957	-0.121335	-0.701819	0.058267	-0.699523
07784		9.765322	0.843490	0.054120	-0.001329	-0.000599	-0.008463	-0.814209	-0.189941	0.477539	-0.121338	-0.701822	0.058263	-0.699520
07785		9.767014	0.830869	0.072896	-0.001366	0.000790	-0.009141	-0.806152	-0.195068	0.475830	-0.121409	-0.701792	0.058299	-0.699535
07786		9.774467	0.827322	0.082971	0.002212	0.000687	-0.009658	-0.803955	-0.189697	0.479736	-0.121494	-0.701777	0.058324	-0.699533
07787		9.772921	0.808510	0.071652	0.000567	-0.000247	-0.008361	-0.802002	-0.191650	0.475586	-0.121541	-0.701782	0.058343	-0.699518
07788		9.762519	0.793595	0.069849	0.003417	0.000576	-0.004707	-0.805664	-0.188477	0.474365	-0.121551	-0.701773	0.058384	-0.699523
07789		9.783532	0.791570	0.080585	0.005319	-0.001920	-0.001156	-0.802246	-0.194336	0.481201	-0.121490	-0.701776	0.058433	-0.699525
07790		9.773391	0.811164	0.061289	0.010256	0.000038	0.004021	-0.807373	-0.191162	0.481689	-0.121374	-0.701791	0.058494	-0.699526
07791		9.779104	0.783102	0.069266	0.010961	-0.000912	0.000547	-0.808838	-0.187988	0.478271	-0.121258	-0.701811	0.058506	-0.699525
07792		9.768229	0.786617	0.107123	0.013862	-0.004049	-0.008442	-0.808838	-0.192871	0.480225	-0.121177	-0.701857	0.058412	-0.699500
07793		9.766803	0.804161	0.077463	0.020935	-0.002912	-0.008764	-0.816162	-0.192627	0.480957	-0.121068	-0.701909	0.058272	-0.699479
07794		9.780090	0.808900	0.077770	0.024472	0.000382	-0.004343	-0.809570	-0.187012	0.485352	-0.120885	-0.701923	0.058134	-0.699508
07795		9.772338	0.815856	0.067790	0.017005	0.002530	-0.004692	-0.802002	-0.184082	0.470459	-0.120736	-0.701932	0.058019	-0.699535
07796		9.776085	0.840783	0.040395	0.008615	0.001380	-0.005834	-0.814209	-0.185303	0.479004	-0.120677	-0.701909	0.057987	-0.699570
07797		9.797731	0.860100	0.072317	0.009017	-0.000472	-0.007241	-0.810303	-0.191162	0.477783	-0.120614	-0.701908	0.057930	-0.699587
07798		9.776536	0.864163	0.061551	0.006531	0.003687	-0.003810	-0.802490	-0.193604	0.486084	-0.120590	-0.701867	0.057952	-0.699630
07799		9.766107	0.829003	0.029411	0.000477	-0.000352	-0.005574	-0.806396	-0.188232	0.489258	-0.120642	-0.701889	0.058011	-0.699594
07800		9.741160	0.865970	0.060039	-0.002636	0.004252	-0.008460	-0.809814	-0.192139	0.478516	-0.120706	-0.701872	0.058031	-0.699598
07801		9.773510	0.846696	0.071298	-0.005796	0.001089	-0.007968	-0.805176	-0.182861	0.484619	-0.120829	-0.701841	0.058129	-0.699600
07802		9.773354	0.848434	0.071974	-0.017122	0.002456	-0.006425	-0.805420	-0.181885	0.487549	-0.120971	-0.701806	0.058276	-0.699598
07803		9.786518	0.797146	0.060616	-0.026380	0.002928	-0.008290	-0.804688	-0.186035	0.479980	-0.121199	-0.701763	0.058475	-0.699586
07804		9.761425	0.778316	0.078735	-0.022902	0.005581	-0.009475	-0.803955	-0.194336	0.482178	-0.121445	-0.701682	0.058663	-0.699608
07805		9.769553	0.775081	0.080579	-0.004958	0.005733	-0.006458	-0.808594	-0.187012	0.482666	-0.121555	-0.701632	0.058756	-0.699631
07806		9.770112	0.796660	0.102814	0.000227	0.003677	-0.003428	-0.803223	-0.188232	0.473633	-0.121540	-0.701601	0.058795	-0.699662
07807		9.766213	0.810354	0.113837	-0.000458	0.001210	-0.004201	-0.804443	-0.180908	0.477295	-0.121562	-0.701575	0.058863	-0.699679
07808		9.788453	0.810106	0.105982	-0.002986	0.003311	-0.004998	-0.812500	-0.184326	0.475342	-0.121560	-0.701536	0.058898	-0.699715
07809		9.772378	0.822318	0.097145	0.003963	0.007186	-0.005279	-0.806152	-0.189941	0.487793	-0.121523	-0.701456	0.058886	-0.699803
07810		9.772226	0.823957	0.098556	0.005243	0.005144	-0.008044	-0.807373	-0.185791	0.482178	-0.121516	-0.701442	0.058839	-0.699822
07811		9.753550	0.814376	0.097256	0.003189	0.001183	-0.006812	-0.807861	-0.197021	0.482422	-0.121497	-0.701442	0.058820	-0.699827
07812		9.763660	0.776062	0.085251	0.012227	-0.001524	-0.003591	-0.805908	-0.181396	0.483643	-0.121439	-0.701476	0.058810	-0.699804
07813		9.771868	0.828181	0.098642	0.022007	0.001153	-0.005148	-0.808105	-0.197266	0.474609	-0.121211	-0.701510	0.058616	-0.699826
07814		9.779390	0.860359	0.091226	0.023971	0.001578	-0.007143	-0.810303	-0.190186	0.476562	-0.121101	-0.701514	0.058491	-0.699851
07815		9.769634	0.866222	0.110478	0.017439	0.002159	-0.008872	-0.812988	-0.197510	0.479248	-0.121016	-0.701507	0.058368	-0.699883
07816		9.774575	0.856700	0.080673	0.012515	0.000786	-0.007046	-0.808838	-0.191162	0.478271	-0.120998	-0.701506	0.058337	-0.699890
07817		9.764889	0.842199	0.069133	0.008336	0.000516	-0.004466	-0.803223	-0.191650	0.480469	-0.120957	-0.701503	0.058335	-0.699900
07818		9.765426	0.863594	0.089819	0.004029	-0.001903	-0.003320	-0.810303	-0.192383	0.479248	-0.120946	-0.701529	0.058382	-0.699872
07819		9.766609	0.885529	0.100513	-0.005211	-0.002854	-0.003804	-0.817627	-0.192139	0.477539	-0.121022	-0.701535	0.058514	-0.699841
07820		9.767833	0.851457	0.098045	-0.014553	-0.001054	-0.004955	-0.808838	-0.189697	0.484619	-0.121187	-0.701496	0.058717	-0.699835
07821		9.769713	0.798359	0.055484	-0.012126	-0.000401	-0.004823	-0.802979	-0.185547	0.475098	-0.121308	-0.701488	0.058868	-0.699809
07822		9.781790	0.765044	0.093388	-0.006120	0.000158	-0.005209	-0.797607	-0.192139	0.480225	-0.121370	-0.701469	0.058960	-0.699810
07823		9.775922	0.793574	0.084871	0.000475	-0.001783	-0.003501	-0.797607	-0.193604	0.480225	-0.121395	-0.701497	0.059036	-0.699771
07824		9.769476	0.801290	0.054989	0.005347	-0.001886	-0.001854	-0.801270	-0.186768	0.478516	-0.121373	-0.701532	0.059093	-0.699735
07825		9.786673	0.811813	0.075785	0.007516	-0.002086	-0.001047	-0.806396	-0.191406	0.477295	-0.121282	-0.701561	0.059105	-0.699721
07826		9.787905	0.833047	0.086887	0.008668	0.002044	-0.000229	-0.813232	-0.184082	0.477783	-0.121205	-0.701544	0.059137	-0.699749
07827		9.763699	0.812423	0.093956	0.007809	0.000826	0.002509	-0.808105	-0.190918	0.475830	-0.121061	-0.701525	0.059163	-0.699791
07828		9.757325	0.819196	0.064317	0.009921	-0.001455	-0.000216	-0.813232	-0.190186	0.478027	-0.120972	-0.701533	0.059193	-0.699795
07829		9.771949	0.843736	0.076129	0.011884	-0.001030	-0.002211	-0.810303	-0.184570	0.486572	-0.120874	-0.701541	0.059179	-0.699806
07830		9.769951	0.859078	0.057094	0.007459	0.000710	-0.003111	-0.811523	-0.185791	0.479248	-0.120778	-0.701554	0.059146	-0.699811
07831		9.779479	0.839610	0.086131	0.003589	0.002770	-0.004678	-0.802979	-0.190430	0.480713	-0.120751	-0.701524	0.059152	-0.699846
07832		9.765380	0.817080	0.064487	0.001734	0.001026	-0.004097	-0.811035	-0.191650	0.478271	-0.120765	-0.701522	0.059204	-0.699841
07833		9.759559	0.809265	0.073605	-0.000436	0.001225	-0.004904	-0.804932	-0.182129	0.475342	-0.120813	-0.701497	0.059280	-0.699852
07834		9.774864	0.778862	0.063310	0.001860	0.003176	-0.002661	-0.803711	-0.187988	0.479736	-0.120769	-0.701459	0.059306	-0.699895
07835		9.775461	0.779957	0.054073	0.004900	0.001354	-0.001133	-0.805420	-0.195068	0.481445	-0.120716	-0.701454	0.059345	-0.699905
07836		9.779253	0.787235	0.074824	0.012714	0.003615	-0.000706	-0.805664	-0.188232	0.478271	-0.120635	-0.701442	0.059353	-0.699931
07837		9.794474	0.848111	0.060771	0.019091	0.004317	0.003824	-0.804932	-0.177490	0.482910	-0.120420	-0.701422	0.059313	-0.699991
07838		9.789452	0.838972	0.060718	0.008426	0.004664	0.003287	-0.812500	-0.186279	0.488281	-0.120233	-0.701398	0.059294	-0.700049
07839		9.767158	0.839585	0.070185	-0.001942	0.004478	0.002760	-0.805420	-0.179932	0.480957	-0.120186	-0.701362	0.059399	-0.700085
07840		9.764670	0.816819	0.079700	0.002152	0.006090	0.000889	-0.808594	-0.195557	0.477051	-0.120096	-0.701312	0.059431	-0.700147
07841		9.781269	0.806677	0.081251	0.006458	0.003630	-0.001725	-0.813232	-0.187500	0.480225	-0.120093	-0.701276	0.059502	-0.700178
07842		9.756957	0.787271	0.089211	0.005405	0.005897	-0.005949	-0.799072	-0.187256	0.476318	-0.120080	-0.701224	0.059490	-0.700234
07843		9.774766	0.779372	0.071581	0.004483	0.006046	-0.003194	-0.812256	-0.192383	0.481445	-0.120064	-0.701178	0.059517	-0.700279
07844		9.782923	0.811623	0.056069	0.006384	0.007834	-0.005175	-0.800293	-0.180176	0.482666	-0.120066	-0.701115	0.059524	-0.700342
07845		9.800606	0.843004	0.100237	-0.006064	0.007112	-0.000218	-0.807861	-0.186523	0.477051	-0.120063	-0.701059	0.059616	-0.700391
07846		9.784822	0.796974	0.078331	-0.015982	0.004295	0.005539	-0.801514	-0.186768	0.482910	-0.120138	-0.700982	0.059895	-0.700431
07847		9.768378	0.769127	0.096758	-0.013712	0.006226	0.008478	-0.802246	-0.186279	0.476562	-0.120164	-0.700914	0.060165	-0.700471
07848		9.767873	0.766351	0.108424	-0.003706	0.008311	0.009016	-0.807861	-0.184082	0.469238	-0.120106	-0.700826	0.060361	-0.700552
07849		9.790357	0.799264	0.084531	0.007069	0.006642	0.008148	-0.809570	-0.183838	0.476807	-0.119956	-0.700743	0.060462	-0.700653
07850		9.778310	0.815437	0.096255	-0.002719	0.006799	0.006246	-0.796631	-0.187500	0.473145	-0.119897	-0.700663	0.060615	-0.700730
07851		9.759911	0.802649	0.095938	-0.005099	0.006190	0.004715	-0.802002	-0.186523	0.477051	-0.119907	-0.700596	0.060805	-0.700778
07852		9.767571	0.796475	0.107646	-0.000031	0.007697	-0.001303	-0.807861	-0.188721	0.473145	-0.119912	-0.700531	0.060882	-0.700836
07853		9.760512	0.767228	0.107183	0.000620	0.008105	-0.004763	-0.810303	-0.182617	0.476562	-0.119959	-0.700447	0.060943	-0.700907
07854		9.774467	0.772160	0.100235	0.002640	0.005733	-0.004689	-0.811768	-0.187988	0.484131	-0.119941	-0.700393	0.060948	-0.700963
07855		9.799841	0.778146	0.123579	-0.000814	0.007978	-0.002741	-0.805176	-0.184326	0.467773	-0.119959	-0.700330	0.061012	-0.701017
07856		9.795366	0.770813	0.115012	-0.002570	0.008363	-0.000028	-0.802979	-0.180664	0.470215	-0.119974	-0.700228	0.061127	-0.701107
07857		9.781419	0.747031	0.095298	-0.005171	0.010394	0.001260	-0.801025	-0.187256	0.480713	-0.119977	-0.700114	0.061247	-0.701210
07858		9.780112	0.745010	0.116703	0.002304	0.005422	0.005088	-0.806885	-0.178711	0.479492	-0.119903	-0.700081	0.061359	-0.701245
07859		9.798170	0.734486	0.099027	0.003594	0.005416	0.007254	-0.814209	-0.185059	0.472900	-0.119746	-0.700038	0.061434	-0.701309
07860		9.777781	0.755946	0.110374	0.004645	0.007418	0.005934	-0.804443	-0.184814	0.473877	-0.119642	-0.699952	0.061536	-0.701403
07861		9.779056	0.775947	0.123149	0.002910	0.005786	0.003023	-0.805420	-0.182373	0.480225	-0.119579	-0.699898	0.061628	-0.701460
07862		9.778391	0.774869	0.134552	-0.000400	0.008165	0.000778	-0.806152	-0.177979	0.472656	-0.119543	-0.699835	0.061699	-0.701523
07863		9.774631	0.767830	0.116225	-0.006333	0.007673	-0.000940	-0.805664	-0.185791	0.473633	-0.119557	-0.699749	0.061799	-0.701597
07864		9.779179	0.755715	0.097992	-0.010406	0.006085	0.000225	-0.805664	-0.180664	0.479004	-0.119643	-0.699673	0.061989	-0.701641
07865		9.772714	0.746020	0.117925	-0.009773	0.003631	0.000927	-0.814697	-0.183350	0.481201	-0.119675	-0.699634	0.062143	-0.701661
07866		9.784731	0.747818	0.139913	-0.007124	0.006524	-0.000297	-0.809570	-0.187256	0.482178	-0.119705	-0.699567	0.062269	-0.701712
07867		9.754713	0.754796	0.140026	-0.003384	0.007192	0.001309	-0.809326	-0.188965	0.473633	-0.119714	-0.699508	0.062394	-0.701758
07868		9.781510	0.760773	0.143956	-0.005216	0.005471	0.001189	-0.808105	-0.184570	0.473389	-0.119762	-0.699441	0.062563	-0.701801
07869		9.792331	0.741282	0.154801	-0.005514	0.006005	0.001180	-0.809814	-0.190186	0.471436	-0.119787	-0.699371	0.062711	-0.701853
07870		9.785403	0.747468	0.136655	-0.008746	0.005612	0.000302	-0.815674	-0.183594	0.472656	-0.119885	-0.699293	0.062914	-0.701897
07871		9.764998	0.714399	0.134517	-0.007037	0.005183	-0.001012	-0.807129	-0.182373	0.475342	-0.119934	-0.699218	0.063052	-0.701951
07872		9.791784	0.720548	0.138202	-0.001687	0.005330	0.002076	-0.812988	-0.181152	0.471436	-0.119901	-0.699167	0.063158	-0.701998
07873		9.774516	0.729575	0.148422	0.001670	0.002995	0.002927	-0.809326	-0.182861	0.477295	-0.119826	-0.699123	0.063247	-0.702046
07874		9.775927	0.730367	0.130114	0.004580	0.006741	0.001031	-0.810547	-0.181885	0.471191	-0.119749	-0.699072	0.063286	-0.702106
07875		9.762281	0.747402	0.160874	0.002985	0.003814	-0.003990	-0.809814	-0.178955	0.473145	-0.119732	-0.699032	0.063308	-0.702147
07876		9.780666	0.760004	0.163873	-0.000520	0.003978	-0.005577	-0.812744	-0.181641	0.473145	-0.119740	-0.698993	0.063326	-0.702183
07877		9.794159	0.744644	0.135469	-0.005227	0.004844	-0.005121	-0.813965	-0.180420	0.474854	-0.119800	-0.698935	0.063403	-0.702224
07878		9.780191	0.722027	0.114779	-0.003470	0.006497	-0.002907	-0.810791	-0.182861	0.480713	-0.119815	-0.698866	0.063471	-0.702283
07879		9.775529	0.734584	0.136139	0.004754	0.004059	-0.000392	-0.808594	-0.183838	0.475342	-0.119741	-0.698848	0.063492	-0.702312
07880		9.780570	0.743395	0.137785	0.007667	0.002927	-0.003748	-0.819824	-0.180908	0.475342	-0.119686	-0.698837	0.063478	-0.702333
07881		9.788885	0.775336	0.121263	0.005994	0.001969	-0.001751	-0.807129	-0.178711	0.474121	-0.119607	-0.698815	0.063482	-0.702368
07882		9.770794	0.747941	0.157813	-0.002331	0.001474	0.001991	-0.809082	-0.182861	0.479980	-0.119561	-0.698797	0.063584	-0.702385
07883		9.770304	0.727733	0.137155	-0.011070	0.000167	-0.004098	-0.805908	-0.181641	0.470947	-0.119659	-0.698794	0.063721	-0.702359
07884		9.781022	0.709818	0.146793	-0.003093	0.001152	-0.006453	-0.805176	-0.178223	0.482178	-0.119716	-0.698778	0.063778	-0.702360
07885		9.786614	0.684215	0.155646	0.006779	0.002494	-0.008701	-0.808594	-0.186523	0.469238	-0.119669	-0.698796	0.063684	-0.702358
07886		9.776318	0.706420	0.137102	0.008749	0.002919	-0.010690	-0.804199	-0.187988	0.470947	-0.119692	-0.698778	0.063627	-0.702378
07887		9.782367	0.738349	0.149356	0.008084	-0.000961	-0.010074	-0.809570	-0.183594	0.471191	-0.119719	-0.698802	0.063589	-0.702352
07888		9.807609	0.782025	0.153637	0.010669	0.000458	-0.007818	-0.816162	-0.180908	0.474365	-0.119677	-0.698810	0.063524	-0.702358
07889		9.794150	0.779723	0.152388	0.005424	0.000221	0.000996	-0.811279	-0.182129	0.473145	-0.119581	-0.698803	0.063562	-0.702378
07890		9.781077	0.755944	0.121133	-0.005075	0.004800	0.005383	-0.811523	-0.183350	0.470215	-0.119553	-0.698741	0.063732	-0.702429
07891		9.767032	0.714305	0.148337	-0.010341	0.005343	0.006503	-0.808838	-0.177246	0.475098	-0.119574	-0.698658	0.063971	-0.702487
07892		9.767113	0.713017	0.149194	-0.008091	0.000333	0.003764	-0.812012	-0.181396	0.471191	-0.119553	-0.698641	0.064132	-0.702492
07893		9.786823	0.744378	0.162766	0.000564	0.000947	0.005642	-0.806885	-0.182373	0.466064	-0.119471	-0.698616	0.064262	-0.702519
07894		9.762203	0.739350	0.131636	-0.002528	0.002097	-0.000812	-0.811035	-0.190186	0.468506	-0.119491	-0.698576	0.064378	-0.702544
07895		9.759591	0.717441	0.140531	0.001572	0.003711	-0.002670	-0.813965	-0.185791	0.468994	-0.119532	-0.698530	0.064475	-0.702575
07896		9.781942	0.716743	0.133064	0.005956	0.003358	-0.002436	-0.815186	-0.185547	0.473877	-0.119505	-0.698491	0.064511	-0.702615
07897		9.797394	0.685575	0.122607	0.012532	-0.000012	0.001382	-0.807617	-0.183594	0.483154	-0.119375	-0.698498	0.064518	-0.702629
07898		9.781915	0.680018	0.150077	0.006304	-0.002814	0.003110	-0.809082	-0.183594	0.474121	-0.119259	-0.698552	0.064572	-0.702590
07899		9.779915	0.713673	0.161203	0.010067	-0.002121	0.004022	-0.809326	-0.179199	0.469971	-0.119119	-0.698581	0.064618	-0.702581
07900		9.783177	0.699573	0.161141	0.006679	0.007911	0.001853	-0.809570	-0.185791	0.471436	-0.119018	-0.698509	0.064647	-0.702667
07901		9.769309	0.676146	0.140384	0.002130	0.004028	-0.003339	-0.810303	-0.183594	0.477295	-0.119036	-0.698471	0.064709	-0.702696
07902		9.770561	0.642524	0.138775	0.004951	0.000767	-0.008823	-0.810303	-0.177490	0.466309	-0.119053	-0.698483	0.064680	-0.702683
07903		9.765805	0.693441	0.141505	0.014328	0.000426	-0.010419	-0.814941	-0.187012	0.474609	-0.118984	-0.698489	0.064545	-0.702702
07904		9.797456	0.710951	0.144979	0.008829	0.002979	-0.012791	-0.801270	-0.179932	0.478760	-0.119026	-0.698478	0.064468	-0.702713
07905		9.799058	0.699018	0.164474	-0.002520	0.002893	-0.009207	-0.803955	-0.179932	0.483398	-0.119093	-0.698477	0.064478	-0.702701
07906		9.788703	0.648334	0.180966	-0.004776	0.004432	-0.009313	-0.813477	-0.185303	0.471924	-0.119172	-0.698467	0.064495	-0.702697
07907		9.788888	0.630044	0.151500	0.012987	0.005906	-0.003432	-0.814697	-0.178223	0.476074	-0.119090	-0.698425	0.064452	-0.702756
07908		9.780550	0.671997	0.134936	0.023015	0.005181	-0.000097	-0.808350	-0.174561	0.474121	-0.118846	-0.698411	0.064311	-0.702825
07909		9.773359	0.698070	0.146101	0.005461	-0.001162	0.001684	-0.803467	-0.187500	0.473877	-0.118721	-0.698429	0.064335	-0.702825
07910		9.762901	0.701371	0.174566	-0.005035	-0.002100	-0.001695	-0.811768	-0.179688	0.466309	-0.118790	-0.698447	0.064489	-0.702781
07911		9.797208	0.702917	0.186942	-0.005307	0.001293	-0.005876	-0.805908	-0.179932	0.469238	-0.118868	-0.698410	0.064579	-0.702796
07912		9.769899	0.677859	0.164405	0.002035	0.004736	-0.008944	-0.812012	-0.182373	0.467773	-0.118910	-0.698372	0.064567	-0.702829
07913		9.783406	0.663926	0.136035	0.007132	0.004837	-0.013570	-0.807861	-0.180420	0.472656	-0.118961	-0.698332	0.064485	-0.702867
07914		9.779195	0.716386	0.129770	0.011049	0.002828	-0.013380	-0.814453	-0.180664	0.478271	-0.118957	-0.698333	0.064354	-0.702879
07915		9.766631	0.737875	0.140123	0.008467	0.001404	-0.015639	-0.814941	-0.179443	0.473877	-0.118984	-0.698348	0.064219	-0.702872
07916		9.797445	0.755790	0.153185	0.000866	-0.000059	-0.015367	-0.804688	-0.185547	0.483643	-0.119074	-0.698354	0.064157	-0.702856
07917		9.765334	0.744842	0.150068	-0.001924	0.001180	-0.015507	-0.808838	-0.175781	0.471191	-0.119209	-0.698381	0.064127	-0.702809
07918		9.784588	0.744848	0.181412	-0.002911	0.004123	-0.014832	-0.805176	-0.178467	0.471680	-0.119313	-0.698347	0.064081	-0.702830
07919		9.784226	0.784785	0.165134	-0.002380	0.004421	-0.014802	-0.811523	-0.178223	0.472656	-0.119426	-0.698316	0.064040	-0.702845
07920		9.785032	0.808722	0.177003	-0.017422	-0.000586	-0.008664	-0.809814	-0.185547	0.473633	-0.119607	-0.698296	0.064188	-0.702820
07921		9.757455	0.763491	0.132918	-0.032611	-0.002095	-0.010214	-0.807373	-0.175781	0.475342	-0.119970	-0.698272	0.064490	-0.702755
07922		9.785532	0.741487	0.202476	-0.022808	0.000636	-0.012459	-0.811279	-0.183350	0.466309	-0.120210	-0.698249	0.064629	-0.702724
07923		9.793201	0.755446	0.164923	-0.012598	0.000084	-0.014011	-0.810303	-0.187500	0.473633	-0.120428	-0.698220	0.064717	-0.702707
07924		9.786727	0.766189	0.135697	-0.007552	0.000155	-0.017241	-0.809814	-0.175293	0.476562	-0.120638	-0.698219	0.064735	-0.702670
07925		9.770799	0.800800	0.146391	-0.014553	-0.001757	-0.010639	-0.809570	-0.188965	0.472656	-0.120776	-0.698228	0.064811	-0.702631
07926		9.782418	0.748038	0.163233	-0.025073	-0.002110	-0.007019	-0.808838	-0.181396	0.472656	-0.121054	-0.698211	0.065081	-0.702576
07927		9.767888	0.725798	0.150577	-0.031687	-0.003682	-0.010916	-0.803223	-0.181885	0.475098	-0.121379	-0.698202	0.065340	-0.702504
07928		9.773584	0.701308	0.158731	-0.025048	-0.002709	-0.014049	-0.810791	-0.180420	0.471191	-0.121671	-0.698211	0.065506	-0.702429
07929		9.772371	0.683445	0.146868	-0.013510	-0.004643	-0.012735	-0.810547	-0.184326	0.470215	-0.121845	-0.698234	0.065585	-0.702369
07930		9.797272	0.728175	0.151044	-0.007942	-0.000798	-0.013079	-0.805176	-0.184326	0.473145	-0.121997	-0.698229	0.065626	-0.702343
07931		9.779728	0.797193	0.163938	-0.006408	-0.001384	-0.009495	-0.807373	-0.187012	0.473633	-0.122098	-0.698243	0.065677	-0.702307
07932		9.791778	0.817416	0.136510	-0.019728	-0.001952	-0.003932	-0.802490	-0.187256	0.478760	-0.122278	-0.698235	0.065905	-0.702262
07933		9.754520	0.814432	0.163084	-0.040080	-0.002245	-0.000870	-0.811768	-0.187012	0.468750	-0.122599	-0.698214	0.066326	-0.702187
07934		9.776465	0.775995	0.181524	-0.043806	-0.005773	0.000964	-0.809814	-0.186035	0.468018	-0.122948	-0.698182	0.066821	-0.702112
07935		9.768825	0.781872	0.171219	-0.035824	-0.003311	-0.003473	-0.810547	-0.190430	0.470947	-0.123262	-0.698145	0.067197	-0.702057
07936		9.787405	0.814637	0.194508	-0.036904	-0.002494	-0.004935	-0.812012	-0.187988	0.472900	-0.123614	-0.698106	0.067581	-0.701998
07937		9.775103	0.793595	0.152593	-0.049025	-0.005809	-0.005688	-0.801758	-0.185303	0.472412	-0.124056	-0.698081	0.068051	-0.701899
07938		9.771880	0.714932	0.165735	-0.061584	-0.005862	-0.006427	-0.810059	-0.190430	0.472168	-0.124598	-0.698049	0.068610	-0.701780
07939		9.756053	0.690469	0.171747	-0.043740	-0.007740	-0.005456	-0.813965	-0.186035	0.465332	-0.124997	-0.698050	0.069044	-0.701666
07940		9.774362	0.703287	0.172929	-0.027945	-0.005837	-0.005926	-0.805908	-0.188232	0.472412	-0.125251	-0.698038	0.069327	-0.701605
07941		9.774266	0.704874	0.171837	-0.027800	-0.007120	-0.008052	-0.810791	-0.194092	0.467041	-0.125517	-0.698066	0.069583	-0.701504
07942		9.787262	0.689730	0.150201	-0.028218	-0.010173	-0.007437	-0.813232	-0.187744	0.474365	-0.125818	-0.698100	0.069890	-0.701386
07943		9.773812	0.688098	0.147077	-0.013835	-0.008387	-0.006575	-0.806152	-0.192139	0.471191	-0.125938	-0.698154	0.070031	-0.701296
07944		9.773712	0.689886	0.145364	-0.009443	-0.007276	-0.008407	-0.810303	-0.187500	0.471924	-0.126065	-0.698208	0.070139	-0.701209
07945		9.759547	0.687835	0.151759	-0.001893	-0.010741	-0.008038	-0.801025	-0.190430	0.483887	-0.126094	-0.698300	0.070169	-0.701109
07946		9.779076	0.686015	0.179699	0.006380	-0.010236	-0.010360	-0.808105	-0.187256	0.477539	-0.126062	-0.698442	0.070088	-0.700982
07947		9.781004	0.690904	0.147962	0.016470	-0.009446	-0.010468	-0.809814	-0.188232	0.472168	-0.125941	-0.698568	0.069920	-0.700895
07948		9.780518	0.729932	0.129095	0.016741	-0.005109	-0.008968	-0.805908	-0.192139	0.468018	-0.125826	-0.698639	0.069776	-0.700858
07949		9.766408	0.745046	0.087959	0.015445	-0.007985	-0.006993	-0.802734	-0.189453	0.474365	-0.125732	-0.698727	0.069690	-0.700796
07950		9.777642	0.747404	0.115910	0.013200	-0.009319	-0.003638	-0.809814	-0.195557	0.483398	-0.125600	-0.698839	0.069629	-0.700715
07951		9.768554	0.752700	0.122834	0.014887	-0.009757	-0.004255	-0.806641	-0.189941	0.468994	-0.125472	-0.698967	0.069556	-0.700617
07952		9.767791	0.753488	0.129981	0.010621	-0.009290	-0.008000	-0.809814	-0.179443	0.468018	-0.125418	-0.699059	0.069498	-0.700541
07953		9.783339	0.781145	0.120657	0.009005	-0.010216	-0.007408	-0.811035	-0.183350	0.477539	-0.125323	-0.699149	0.069422	-0.700475
07954		9.780916	0.760636	0.126309	0.005332	-0.007362	-0.008265	-0.813721	-0.198730	0.475830	-0.125270	-0.699229	0.069360	-0.700411
07955		9.764179	0.716059	0.119468	0.004366	-0.009299	-0.009058	-0.813965	-0.192383	0.466797	-0.125312	-0.699316	0.069373	-0.700316
07956		9.786439	0.717256	0.108915	0.011105	-0.007598	-0.008652	-0.797363	-0.197998	0.475342	-0.125281	-0.699377	0.069325	-0.700265
07957		9.789306	0.725431	0.136797	0.013876	-0.008853	-0.007820	-0.806152	-0.184326	0.470459	-0.125226	-0.699493	0.069257	-0.700166
07958		9.776502	0.724810	0.123330	0.015310	-0.010149	-0.007767	-0.809326	-0.183594	0.478027	-0.125101	-0.699600	0.069138	-0.700093
07959		9.768687	0.732432	0.110765	0.014153	-0.009411	-0.007118	-0.808594	-0.185303	0.473389	-0.124963	-0.699710	0.069015	-0.700019
07960		9.772894	0.742068	0.118651	0.017321	-0.011092	-0.009084	-0.805420	-0.190918	0.482422	-0.124832	-0.699831	0.068869	-0.699936
07961		9.784226	0.705760	0.094123	0.018334	-0.009102	-0.009699	-0.808594	-0.187500	0.481934	-0.124709	-0.699960	0.068706	-0.699845
07962		9.765985	0.717259	0.110825	0.024382	-0.007008	-0.013551	-0.805908	-0.195557	0.479492	-0.124554	-0.700078	0.068443	-0.699781
07963		9.777031	0.738659	0.090785	0.027227	-0.009624	-0.012747	-0.802979	-0.188965	0.475830	-0.124410	-0.700219	0.068206	-0.699688
07964		9.781837	0.749651	0.088601	0.031546	-0.011465	-0.008338	-0.806641	-0.186035	0.468750	-0.124166	-0.700373	0.067955	-0.699601
07965		9.781722	0.751515	0.085441	0.028378	-0.009782	-0.006379	-0.801025	-0.188477	0.473877	-0.123939	-0.700486	0.067758	-0.699548
07966		9.793691	0.755109	0.102880	0.026558	-0.011515	-0.006511	-0.803711	-0.187012	0.480713	-0.123728	-0.700628	0.067574	-0.699461
07967		9.774705	0.781590	0.080561	0.030064	-0.010218	-0.007014	-0.807617	-0.187988	0.470947	-0.123472	-0.700775	0.067331	-0.699382
