// Start Time: Unknown
// Update Rate: 40.0Hz
// Filter Profile: human (46.1)
// Firmware Version: 4.6.0
PacketCounter	SampleTimeFine	Acc_X	Acc_Y	Acc_Z	Gyr_X	Gyr_Y	Gyr_Z	Mag_X	Mag_Y	Mag_Z	Quat_q0	Quat_q1	Quat_q2	Quat_q3
07338		9.789374	0.280273	0.634431	-0.005801	-0.001964	-0.016002	-0.904785	-0.203369	0.468262	-0.135510	-0.675301	0.107862	-0.716918
07339		9.799710	0.307231	0.668251	-0.007553	-0.000434	-0.014777	-0.903564	-0.206299	0.474365	-0.135706	-0.675312	0.107806	-0.716879
07340		9.802446	0.308479	0.677785	-0.017246	0.003553	-0.015487	-0.904541	-0.205566	0.470947	-0.136003	-0.675276	0.107820	-0.716854
07341		9.788365	0.224268	0.660826	-0.009392	-0.001788	-0.011164	-0.902100	-0.208984	0.461426	-0.136184	-0.675290	0.107811	-0.716808
07342		9.791211	0.224533	0.669537	0.010701	-0.000993	-0.009325	-0.901611	-0.208496	0.470459	-0.136259	-0.675312	0.107619	-0.716803
07343		9.793555	0.272428	0.637209	0.000771	-0.004401	-0.011698	-0.902100	-0.201416	0.474121	-0.136382	-0.675356	0.107519	-0.716753
07344		9.780231	0.297575	0.667420	-0.002667	-0.000640	-0.012128	-0.899170	-0.203857	0.456543	-0.136435	-0.675378	0.107467	-0.716729
07345		9.792284	0.302718	0.695408	-0.010537	-0.002411	-0.011990	-0.901123	-0.199707	0.476807	-0.136652	-0.675380	0.107465	-0.716686
07346		9.797448	0.191543	0.664942	0.000339	-0.001638	-0.011805	-0.904053	-0.200684	0.482910	-0.136649	-0.675423	0.107392	-0.716658
07347		9.798020	0.209727	0.625625	0.006916	-0.004530	-0.012159	-0.904541	-0.196289	0.463623	-0.136565	-0.675500	0.107277	-0.716618
07348		9.793317	0.232634	0.652781	-0.003262	0.002998	-0.016589	-0.904785	-0.194336	0.477051	-0.136638	-0.675419	0.107228	-0.716688
07349		9.790294	0.235248	0.674821	0.007306	0.000838	-0.017815	-0.897461	-0.199951	0.466797	-0.136554	-0.675467	0.107072	-0.716682
07350		9.802828	0.257215	0.665113	0.016491	0.004079	-0.016958	-0.908936	-0.206055	0.470947	-0.136511	-0.675429	0.106833	-0.716761
07351		9.797906	0.339736	0.644278	0.007754	0.000256	-0.017224	-0.897217	-0.214111	0.468750	-0.136551	-0.675434	0.106677	-0.716772
07352		9.797394	0.281614	0.638698	-0.000096	-0.006909	-0.016787	-0.899658	-0.208740	0.470947	-0.136777	-0.675482	0.106573	-0.716700
07353		9.795714	0.251381	0.661450	0.011950	-0.000906	-0.012459	-0.903809	-0.200195	0.477295	-0.136788	-0.675503	0.106401	-0.716704
07354		9.809435	0.291108	0.664999	0.014300	-0.006531	-0.013904	-0.898926	-0.206787	0.464844	-0.136657	-0.675613	0.106215	-0.716652
07355		9.798414	0.310859	0.649863	0.010262	-0.006015	-0.011984	-0.905273	-0.195068	0.477539	-0.136677	-0.675624	0.106091	-0.716656
07356		9.792652	0.314409	0.660794	-0.001351	-0.006757	-0.011338	-0.898193	-0.206299	0.467773	-0.136594	-0.675704	0.106058	-0.716602
07357		9.780289	0.248267	0.656350	0.007499	-0.010347	-0.008210	-0.894043	-0.206055	0.473633	-0.136599	-0.675765	0.105984	-0.716554
07358		9.797575	0.295603	0.658998	0.014418	-0.013487	-0.006369	-0.901123	-0.205566	0.471191	-0.136502	-0.675911	0.105856	-0.716454
07359		9.797647	0.301154	0.625771	0.005244	-0.006993	-0.006530	-0.901611	-0.196045	0.468506	-0.136479	-0.675944	0.105816	-0.716433
07360		9.813514	0.263247	0.640650	0.000453	-0.008842	-0.006610	-0.902344	-0.200195	0.464844	-0.136389	-0.675974	0.105823	-0.716421
07361		9.797593	0.238221	0.647502	-0.004677	-0.010198	-0.006553	-0.895508	-0.202881	0.469971	-0.136412	-0.675976	0.105900	-0.716403
07362		9.795002	0.191756	0.623632	-0.006490	-0.008351	-0.013623	-0.896240	-0.192871	0.475586	-0.136544	-0.676026	0.105909	-0.716329
07363		9.805318	0.222474	0.624950	0.002611	-0.008439	-0.015058	-0.897461	-0.201416	0.474365	-0.136424	-0.676142	0.105799	-0.716259
07364		9.803594	0.243775	0.659353	-0.000516	-0.007596	-0.018455	-0.903564	-0.193359	0.480469	-0.136482	-0.676225	0.105716	-0.716182
07365		9.807759	0.218094	0.638478	0.006098	-0.004387	-0.022014	-0.900146	-0.206787	0.471191	-0.136329	-0.676322	0.105507	-0.716150
07366		9.805744	0.248458	0.612479	0.005129	-0.004164	-0.022661	-0.906738	-0.207275	0.472900	-0.136470	-0.676341	0.105375	-0.716125
07367		9.814446	0.247560	0.638502	0.015309	-0.004553	-0.022728	-0.906250	-0.200928	0.472900	-0.136478	-0.676369	0.105156	-0.716129
07368		9.805201	0.310832	0.623046	0.012537	-0.001556	-0.021089	-0.895996	-0.196777	0.472168	-0.136403	-0.676367	0.104960	-0.716174
07369		9.792508	0.299002	0.633067	0.009067	-0.000228	-0.024353	-0.905029	-0.200684	0.472900	-0.136384	-0.676396	0.104736	-0.716184
07370		9.794121	0.225218	0.591818	-0.001635	-0.002153	-0.022491	-0.895508	-0.197998	0.477051	-0.136438	-0.676382	0.104643	-0.716200
07371		9.814895	0.168654	0.611335	0.021676	-0.003108	-0.025942	-0.904297	-0.206787	0.472900	-0.136282	-0.676513	0.104257	-0.716162
07372		9.787655	0.289930	0.615450	0.023383	-0.001432	-0.027986	-0.899902	-0.205566	0.471191	-0.136270	-0.676539	0.103923	-0.716188
07373		9.807638	0.293369	0.586417	0.010862	-0.001297	-0.030861	-0.899414	-0.203613	0.468262	-0.136414	-0.676551	0.103680	-0.716185
07374		9.805572	0.318189	0.622749	0.011668	0.002003	-0.029418	-0.899170	-0.201904	0.477295	-0.136533	-0.676508	0.103456	-0.716235
07375		9.795537	0.290922	0.680670	0.010798	-0.002231	-0.030322	-0.895020	-0.197021	0.473389	-0.136519	-0.676607	0.103141	-0.716190
07376		9.784093	0.259610	0.600844	0.023883	-0.001065	-0.027985	-0.898926	-0.202881	0.470215	-0.136342	-0.676691	0.102748	-0.716200
07377		9.797841	0.311049	0.627036	0.025291	-0.004281	-0.029594	-0.896973	-0.204346	0.479248	-0.136294	-0.676741	0.102394	-0.716213
07378		9.801789	0.350046	0.610965	0.025805	-0.003688	-0.027219	-0.898926	-0.208008	0.469238	-0.136144	-0.676903	0.101954	-0.716151
07379		9.811569	0.384318	0.613441	0.016141	-0.000798	-0.026615	-0.901367	-0.208984	0.476318	-0.136273	-0.676878	0.101723	-0.716183
07380		9.793584	0.385044	0.627827	0.010854	-0.002791	-0.024380	-0.897217	-0.207275	0.475830	-0.136330	-0.676934	0.101478	-0.716154
07381		9.769108	0.293299	0.643317	0.014040	-0.004862	-0.022037	-0.891357	-0.204590	0.475586	-0.136329	-0.677032	0.101221	-0.716098
07382		9.804046	0.302154	0.589154	0.036282	-0.006427	-0.015680	-0.900146	-0.209961	0.473145	-0.136057	-0.677205	0.100817	-0.716043
07383		9.798820	0.403619	0.580042	0.016371	-0.006805	-0.019605	-0.900879	-0.206055	0.471924	-0.136093	-0.677253	0.100610	-0.716020
07384		9.798198	0.312405	0.598456	0.000795	-0.004253	-0.019371	-0.902100	-0.206299	0.475342	-0.136180	-0.677232	0.100541	-0.716033
07385		9.812702	0.310014	0.612650	0.026781	0.001437	-0.016271	-0.897461	-0.206299	0.476807	-0.135972	-0.677240	0.100222	-0.716110
07386		9.798588	0.344043	0.582152	0.029274	0.002051	-0.017864	-0.906494	-0.206055	0.478271	-0.135773	-0.677299	0.099850	-0.716143
07387		9.794868	0.413178	0.576837	0.011030	-0.003425	-0.017686	-0.904541	-0.199219	0.478027	-0.135641	-0.677334	0.099643	-0.716164
07388		9.781237	0.369745	0.580188	0.001367	-0.000553	-0.017061	-0.895508	-0.207275	0.480469	-0.135445	-0.677341	0.099514	-0.716213
07389		9.798709	0.364632	0.603565	-0.002547	-0.002325	-0.014861	-0.900146	-0.204346	0.475342	-0.135474	-0.677448	0.099413	-0.716120
07390		9.804877	0.375036	0.612914	0.002520	-0.003801	-0.012527	-0.902344	-0.204102	0.478027	-0.135411	-0.677466	0.099354	-0.716123
07391		9.804617	0.381605	0.581403	-0.000378	-0.002917	-0.012105	-0.895264	-0.202637	0.478271	-0.135311	-0.677493	0.099292	-0.716125
07392		9.797172	0.347218	0.564176	-0.007198	-0.001865	-0.011339	-0.896729	-0.200684	0.475830	-0.135271	-0.677553	0.099288	-0.716077
07393		9.815940	0.286320	0.606354	-0.012834	0.000505	-0.012667	-0.892822	-0.208252	0.482666	-0.135275	-0.677535	0.099355	-0.716083
07394		9.803827	0.283449	0.609278	0.001071	0.003056	-0.017008	-0.899414	-0.207520	0.478027	-0.135292	-0.677655	0.099166	-0.715993
07395		9.804492	0.321497	0.586779	-0.006167	0.009732	-0.018778	-0.902100	-0.199951	0.479736	-0.135405	-0.677582	0.099087	-0.716051
07396		9.808591	0.365352	0.595831	-0.017578	0.000994	-0.019857	-0.895508	-0.197754	0.484131	-0.135388	-0.677581	0.099110	-0.716053
07397		9.796614	0.264276	0.649038	-0.016679	-0.000636	-0.023364	-0.900879	-0.203369	0.478760	-0.135304	-0.677714	0.099039	-0.715952
07398		9.810605	0.255460	0.641532	0.007177	0.004457	-0.024077	-0.896729	-0.206299	0.476318	-0.135213	-0.677717	0.098815	-0.715998
07399		9.804589	0.373012	0.596686	0.015982	0.006108	-0.023631	-0.899658	-0.205566	0.481689	-0.135175	-0.677710	0.098539	-0.716050
07400		9.793347	0.402881	0.606459	-0.006803	0.000219	-0.026252	-0.905029	-0.208496	0.474609	-0.135214	-0.677783	0.098381	-0.715995
07401		9.783366	0.289206	0.593399	-0.002676	0.006209	-0.026001	-0.893799	-0.207764	0.470947	-0.135375	-0.677661	0.098277	-0.716095
07402		9.803382	0.365609	0.646072	0.018773	0.003383	-0.022946	-0.902344	-0.202881	0.474609	-0.135427	-0.677624	0.098055	-0.716150
07403		9.791275	0.379637	0.609767	0.008627	-0.002637	-0.021977	-0.892090	-0.204590	0.481934	-0.135317	-0.677617	0.097907	-0.716197
07404		9.777787	0.340810	0.582326	0.009645	-0.001918	-0.021901	-0.890625	-0.208252	0.475830	-0.135171	-0.677793	0.097631	-0.716096
07405		9.809983	0.330305	0.620084	0.023128	-0.002150	-0.018414	-0.904785	-0.213623	0.474609	-0.135080	-0.677900	0.097348	-0.716051
07406		9.795581	0.349632	0.627872	0.038847	0.002780	-0.017025	-0.906006	-0.214355	0.481689	-0.134904	-0.677864	0.096938	-0.716174
07407		9.790613	0.414303	0.569263	0.030863	-0.001889	-0.015148	-0.898926	-0.206055	0.475830	-0.134665	-0.677953	0.096526	-0.716190
07408		9.792755	0.382729	0.602398	0.019581	0.003053	-0.015459	-0.904053	-0.198242	0.472900	-0.134502	-0.677936	0.096308	-0.716266
07409		9.806380	0.349212	0.611676	0.042532	0.008153	-0.008488	-0.906006	-0.205811	0.481934	-0.133943	-0.677823	0.095997	-0.716520
07410		9.793024	0.422666	0.580432	0.045321	0.005171	-0.010160	-0.905273	-0.201904	0.480957	-0.133390	-0.677870	0.095504	-0.716644
07411		9.795881	0.423668	0.589334	0.012080	-0.004134	-0.011097	-0.895508	-0.207031	0.475342	-0.133076	-0.677934	0.095343	-0.716663
07412		9.801580	0.311030	0.582145	0.013019	-0.000219	-0.011843	-0.885742	-0.201660	0.481689	-0.133031	-0.677949	0.095215	-0.716674
07413		9.797573	0.386623	0.599609	0.016739	0.002903	-0.013759	-0.898438	-0.203125	0.475342	-0.132816	-0.678104	0.094967	-0.716600
07414		9.792671	0.446865	0.572137	-0.004673	0.001550	-0.015400	-0.897705	-0.200928	0.478760	-0.132867	-0.678051	0.094984	-0.716639
07415		9.788508	0.396489	0.603712	-0.012038	-0.000905	-0.014582	-0.897705	-0.201416	0.484619	-0.132868	-0.678065	0.095037	-0.716619
07416		9.795901	0.344639	0.610282	-0.013365	0.001976	-0.014609	-0.899902	-0.202393	0.474609	-0.132797	-0.678136	0.095017	-0.716567
07417		9.807087	0.335234	0.593799	0.000965	0.001653	-0.011232	-0.889893	-0.209961	0.477539	-0.132751	-0.678066	0.095035	-0.716640
07418		9.802342	0.391503	0.597232	0.004518	0.003929	-0.013320	-0.902100	-0.204834	0.477295	-0.132851	-0.678099	0.094926	-0.716604
07419		9.805148	0.392672	0.607075	-0.007226	0.002182	-0.012760	-0.899414	-0.200195	0.478027	-0.132874	-0.678039	0.094954	-0.716652
07420		9.788573	0.330907	0.588332	-0.014055	0.002945	-0.014347	-0.904541	-0.201904	0.478760	-0.132879	-0.677994	0.095034	-0.716684
07421		9.789184	0.364266	0.595211	-0.004881	0.000025	-0.012664	-0.900635	-0.217529	0.472656	-0.132780	-0.677966	0.095036	-0.716728
07422		9.791808	0.369030	0.574154	-0.011061	0.003933	-0.015912	-0.897217	-0.214111	0.477051	-0.133187	-0.677843	0.095076	-0.716764
07423		9.806506	0.362490	0.620802	-0.010499	0.005473	-0.014082	-0.898682	-0.211182	0.478760	-0.133443	-0.677792	0.095082	-0.716764
07424		9.788616	0.359865	0.637312	-0.007268	0.006305	-0.014160	-0.898193	-0.208984	0.481689	-0.133573	-0.677755	0.095049	-0.716779
07425		9.798034	0.401647	0.633644	-0.002074	0.004791	-0.011071	-0.896973	-0.194336	0.473389	-0.133544	-0.677780	0.094975	-0.716770
07426		9.796960	0.377478	0.597869	-0.009867	0.006003	-0.010947	-0.894775	-0.201416	0.476562	-0.133428	-0.677671	0.095115	-0.716877
07427		9.795928	0.338622	0.600884	-0.005995	0.004933	-0.010728	-0.900391	-0.209229	0.476807	-0.133376	-0.677641	0.095158	-0.716909
07428		9.793501	0.358826	0.637827	-0.006305	0.001048	-0.011568	-0.901367	-0.204834	0.476807	-0.133443	-0.677618	0.095170	-0.716917
07429		9.789066	0.303361	0.616136	-0.007393	0.001331	-0.012958	-0.897461	-0.204834	0.472656	-0.133442	-0.677586	0.095194	-0.716944
07430		9.798021	0.326463	0.596730	0.004204	0.000064	-0.014170	-0.890137	-0.205078	0.474609	-0.133430	-0.677555	0.095154	-0.716980
07431		9.804946	0.389702	0.597494	-0.001559	0.002718	-0.013889	-0.900879	-0.205322	0.471680	-0.133481	-0.677563	0.095145	-0.716965
07432		9.806487	0.331027	0.594093	-0.001385	0.001132	-0.016566	-0.901123	-0.206055	0.476074	-0.133537	-0.677485	0.095136	-0.717029
07433		9.794906	0.347277	0.611714	0.004274	0.004109	-0.014821	-0.899414	-0.205811	0.480225	-0.133482	-0.677447	0.095036	-0.717089
07434		9.786862	0.406067	0.606254	-0.004908	0.001958	-0.014565	-0.894775	-0.202148	0.475830	-0.133450	-0.677478	0.094983	-0.717072
07435		9.788483	0.332642	0.642081	-0.009039	0.005367	-0.015789	-0.902100	-0.205566	0.482178	-0.133482	-0.677443	0.095009	-0.717096
07436		9.800247	0.368584	0.594211	0.003979	0.005778	-0.012893	-0.894287	-0.194824	0.476562	-0.133317	-0.677462	0.094863	-0.717129
07437		9.794960	0.413962	0.606439	-0.009085	0.004435	-0.015227	-0.901855	-0.208984	0.479492	-0.133207	-0.677446	0.094913	-0.717158
07438		9.787580	0.335534	0.623020	-0.022821	0.001877	-0.017783	-0.899658	-0.208008	0.474365	-0.133408	-0.677430	0.094986	-0.717126
07439		9.795587	0.307164	0.614071	-0.011618	0.005240	-0.020246	-0.899170	-0.200439	0.473389	-0.133597	-0.677353	0.094994	-0.717161
07440		9.769967	0.368730	0.647115	-0.000843	0.007483	-0.019069	-0.894287	-0.206787	0.478271	-0.133563	-0.677265	0.094947	-0.717257
07441		9.790288	0.391993	0.603929	-0.004322	0.003932	-0.018045	-0.895264	-0.202393	0.476318	-0.133609	-0.677295	0.094872	-0.717230
07442		9.807529	0.380100	0.605283	-0.015442	-0.003131	-0.019508	-0.898682	-0.206299	0.479492	-0.133697	-0.677340	0.094930	-0.717164
07443		9.786328	0.335814	0.642837	-0.015518	-0.002123	-0.020825	-0.900879	-0.205811	0.473389	-0.133804	-0.677397	0.094930	-0.717090
07444		9.803699	0.335644	0.636033	0.001250	0.002386	-0.020387	-0.896729	-0.212402	0.475586	-0.133831	-0.677351	0.094846	-0.717139
07445		9.803953	0.396806	0.596428	-0.002791	0.002592	-0.020794	-0.901611	-0.206787	0.469482	-0.133991	-0.677350	0.094751	-0.717123
07446		9.800399	0.358887	0.619799	0.004070	-0.000325	-0.019682	-0.902588	-0.206787	0.475342	-0.134038	-0.677284	0.094689	-0.717185
07447		9.788894	0.398372	0.620541	0.001465	-0.000889	-0.018832	-0.909424	-0.198730	0.467285	-0.134014	-0.677285	0.094593	-0.717201
07448		9.814655	0.365194	0.603335	0.009543	-0.001295	-0.018028	-0.896484	-0.212646	0.475098	-0.133854	-0.677168	0.094534	-0.717349
07449		9.800312	0.403043	0.625696	0.010251	0.000848	-0.018382	-0.893799	-0.201416	0.472412	-0.133884	-0.677202	0.094349	-0.717336
07450		9.808646	0.397630	0.599617	-0.002813	-0.000535	-0.020735	-0.905029	-0.208252	0.473145	-0.133900	-0.677209	0.094316	-0.717331
07451		9.811028	0.358998	0.609975	0.001927	-0.001458	-0.018237	-0.898926	-0.207031	0.469238	-0.133905	-0.677180	0.094235	-0.717368
07452		9.781499	0.373380	0.611385	0.006171	0.002989	-0.020678	-0.899170	-0.207031	0.466797	-0.133956	-0.677108	0.094134	-0.717439
07453		9.816165	0.360680	0.575726	0.009515	0.003761	-0.020007	-0.902832	-0.210693	0.470703	-0.133997	-0.677008	0.094027	-0.717540
07454		9.798843	0.397402	0.620898	0.014883	0.005994	-0.019174	-0.903076	-0.206543	0.481201	-0.133981	-0.676926	0.093826	-0.717647
07455		9.795224	0.362934	0.614676	0.015735	0.005873	-0.019276	-0.896729	-0.209961	0.478271	-0.133761	-0.676965	0.093518	-0.717691
07456		9.789272	0.401904	0.604320	0.018689	0.006204	-0.017902	-0.891846	-0.206543	0.480957	-0.133627	-0.677004	0.093225	-0.717718
07457		9.795353	0.454999	0.613729	0.010797	0.002392	-0.016570	-0.891113	-0.207031	0.475586	-0.133479	-0.677116	0.093003	-0.717669
07458		9.786389	0.461190	0.617148	0.006447	-0.001730	-0.012499	-0.897949	-0.198730	0.472656	-0.133405	-0.677193	0.092915	-0.717620
07459		9.797783	0.429843	0.615998	0.006874	-0.000358	-0.013776	-0.897705	-0.205322	0.473145	-0.133214	-0.677192	0.092847	-0.717666
07460		9.797057	0.350197	0.620059	0.000452	0.007525	-0.011507	-0.898193	-0.214111	0.477539	-0.133173	-0.677113	0.092827	-0.717750
07461		9.791469	0.414245	0.647611	0.022043	0.010606	-0.012583	-0.898193	-0.217773	0.479248	-0.133049	-0.677092	0.092542	-0.717830
07462		9.790892	0.401475	0.603699	0.012095	0.001535	-0.008375	-0.902100	-0.206787	0.481445	-0.133000	-0.677150	0.092375	-0.717806
07463		9.790786	0.404023	0.603712	0.005017	-0.000721	-0.011392	-0.900635	-0.201416	0.481934	-0.132827	-0.677222	0.092249	-0.717786
07464		9.793633	0.393527	0.621164	-0.000836	0.003152	-0.010058	-0.899902	-0.209229	0.477539	-0.132620	-0.677257	0.092190	-0.717799
07465		9.787508	0.411211	0.595799	-0.003129	0.004030	-0.011225	-0.893311	-0.210938	0.475098	-0.132617	-0.677240	0.092163	-0.717819
07466		9.796090	0.388918	0.610011	-0.004209	0.007671	-0.010332	-0.894775	-0.205566	0.473389	-0.132697	-0.677194	0.092170	-0.717847
07467		9.807681	0.375758	0.625218	0.001533	0.004131	-0.010038	-0.898682	-0.209473	0.480957	-0.132656	-0.677165	0.092162	-0.717883
07468		9.810527	0.398683	0.619032	0.005920	0.003458	-0.009772	-0.898193	-0.207031	0.475830	-0.132531	-0.677210	0.092037	-0.717880
07469		9.795614	0.396164	0.612999	-0.002116	0.001898	-0.008690	-0.890137	-0.207520	0.481934	-0.132490	-0.677202	0.092049	-0.717893
07470		9.807423	0.401636	0.642080	0.007322	0.004887	-0.008025	-0.895996	-0.212158	0.475830	-0.132339	-0.677282	0.091927	-0.717861
07471		9.789376	0.381961	0.612448	0.002502	0.000819	-0.009306	-0.896240	-0.212158	0.480713	-0.132347	-0.677303	0.091883	-0.717846
07472		9.795086	0.350096	0.624623	0.001106	0.002758	-0.008765	-0.889893	-0.199463	0.475586	-0.132311	-0.677350	0.091812	-0.717817
07473		9.803739	0.372184	0.606138	0.007515	0.006667	-0.008425	-0.893311	-0.209473	0.473877	-0.132133	-0.677345	0.091766	-0.717860
07474		9.780338	0.451454	0.632392	0.005496	0.011431	-0.008758	-0.893799	-0.198975	0.476562	-0.132122	-0.677265	0.091711	-0.717945
07475		9.809590	0.432518	0.640686	-0.004785	-0.000282	-0.004315	-0.901123	-0.206787	0.472656	-0.131974	-0.677293	0.091808	-0.717933
07476		9.779905	0.348947	0.653245	0.000494	-0.000140	-0.004714	-0.895996	-0.202881	0.479980	-0.131906	-0.677258	0.091859	-0.717972
07477		9.782800	0.381730	0.638473	0.011444	0.003954	-0.003930	-0.898193	-0.199463	0.476318	-0.131639	-0.677298	0.091765	-0.717995
07478		9.788635	0.412556	0.633355	0.001659	0.004557	-0.004548	-0.898438	-0.200928	0.466064	-0.131452	-0.677270	0.091791	-0.718053
07479		9.803028	0.402716	0.596159	-0.010918	0.005922	-0.003996	-0.899170	-0.207275	0.470947	-0.131496	-0.677110	0.092012	-0.718168
07480		9.797194	0.400587	0.640934	-0.016198	0.005780	-0.003600	-0.899414	-0.203613	0.475342	-0.131608	-0.676991	0.092222	-0.718232
07481		9.788239	0.425712	0.630010	-0.016737	0.007852	-0.000780	-0.899170	-0.210205	0.474609	-0.131606	-0.676893	0.092426	-0.718299
07482		9.793977	0.413910	0.627255	-0.035300	0.003559	-0.001781	-0.895020	-0.199707	0.465332	-0.131860	-0.676802	0.092786	-0.718292
07483		9.779103	0.311183	0.663374	-0.026209	0.001062	0.001569	-0.894775	-0.207520	0.472900	-0.131963	-0.676676	0.093190	-0.718339
07484		9.796685	0.328112	0.641261	-0.013436	0.004594	0.000548	-0.899414	-0.204102	0.478271	-0.132003	-0.676617	0.093391	-0.718362
07485		9.799640	0.390074	0.634316	-0.026690	0.007352	-0.003976	-0.893066	-0.206055	0.470215	-0.132086	-0.676547	0.093630	-0.718381
07486		9.802207	0.362207	0.608953	-0.030271	0.012951	-0.006328	-0.893799	-0.199951	0.470459	-0.132349	-0.676378	0.093932	-0.718452
07487		9.787364	0.396325	0.635052	-0.042628	0.013902	-0.006699	-0.892822	-0.209961	0.479492	-0.132625	-0.676185	0.094342	-0.718529
07488		9.816685	0.369585	0.706797	-0.050596	0.011071	-0.006723	-0.900635	-0.204834	0.470947	-0.133014	-0.676096	0.094748	-0.718488
07489		9.786652	0.228939	0.677738	-0.037042	0.009517	-0.006601	-0.895752	-0.215576	0.470947	-0.133257	-0.675935	0.095096	-0.718548
07490		9.798197	0.228988	0.654896	-0.009413	0.007028	-0.003894	-0.900391	-0.207520	0.474854	-0.133391	-0.675864	0.095211	-0.718574
07491		9.804014	0.301898	0.649525	-0.008024	0.007474	-0.011651	-0.903320	-0.214600	0.470459	-0.133425	-0.675818	0.095230	-0.718609
07492		9.783215	0.334076	0.632735	-0.008644	0.004072	-0.012367	-0.898438	-0.211914	0.473633	-0.133583	-0.675754	0.095270	-0.718635
07493		9.792005	0.368934	0.690523	-0.011058	0.005029	-0.014294	-0.894287	-0.212646	0.464111	-0.133732	-0.675728	0.095302	-0.718627
07494		9.779999	0.304832	0.680288	-0.012216	0.000574	-0.012104	-0.900635	-0.206543	0.475342	-0.133963	-0.675672	0.095431	-0.718620
07495		9.788769	0.308508	0.645018	0.001832	-0.010630	-0.008727	-0.894287	-0.213379	0.468506	-0.133839	-0.675809	0.095418	-0.718516
07496		9.791729	0.403266	0.641904	-0.003977	-0.002293	-0.013387	-0.902832	-0.205811	0.469238	-0.133981	-0.675829	0.095443	-0.718467
07497		9.794667	0.362912	0.651029	-0.016869	-0.008883	-0.013094	-0.897217	-0.203369	0.473389	-0.134085	-0.675859	0.095593	-0.718399
07498		9.815207	0.362639	0.621010	-0.030751	-0.005936	-0.013690	-0.905518	-0.205566	0.476318	-0.134273	-0.675896	0.095844	-0.718296
07499		9.785864	0.315036	0.692948	-0.025534	0.005504	-0.016182	-0.889893	-0.223389	0.470703	-0.134427	-0.675834	0.095982	-0.718307
07500		9.812061	0.363749	0.674742	-0.009162	0.003708	-0.012424	-0.895996	-0.208008	0.474365	-0.134719	-0.675826	0.096031	-0.718253
07501		9.785372	0.396438	0.669264	-0.009770	-0.002808	-0.013073	-0.902832	-0.212402	0.476562	-0.134771	-0.675883	0.096087	-0.718183
07502		9.800561	0.118688	0.652961	-0.008256	-0.005302	-0.017637	-0.899170	-0.213379	0.468994	-0.134862	-0.675961	0.096071	-0.718094
07503		9.814973	0.225744	0.617215	0.035786	-0.005959	-0.016531	-0.892090	-0.211182	0.469238	-0.134645	-0.676068	0.095715	-0.718082
07504		9.805746	0.354501	0.646939	0.025438	0.002625	-0.027004	-0.900391	-0.216797	0.467773	-0.134620	-0.676118	0.095360	-0.718086
07505		9.808671	0.288604	0.651048	0.024101	0.002816	-0.032306	-0.897949	-0.206543	0.472412	-0.134701	-0.676128	0.094964	-0.718115
07506		9.811416	0.238571	0.618041	0.045149	0.014996	-0.033565	-0.900879	-0.208252	0.466797	-0.134482	-0.676110	0.094342	-0.718255
07507		9.801242	0.412023	0.650958	0.046506	0.022406	-0.034375	-0.898438	-0.214355	0.472656	-0.134313	-0.675974	0.093710	-0.718497
07508		9.785669	0.439114	0.632658	0.020560	0.017152	-0.038972	-0.895264	-0.207031	0.470459	-0.134445	-0.675905	0.093251	-0.718597
07509		9.794429	0.371049	0.658420	0.018126	0.014545	-0.035495	-0.892090	-0.218506	0.470947	-0.134492	-0.675848	0.092865	-0.718692
07510		9.790484	0.434213	0.643005	0.017555	0.012563	-0.032020	-0.898682	-0.208008	0.471436	-0.134654	-0.675820	0.092510	-0.718734
07511		9.789789	0.468878	0.682051	0.008286	0.003206	-0.031825	-0.897217	-0.204834	0.465820	-0.134722	-0.675841	0.092253	-0.718734
07512		9.793105	0.402308	0.686111	0.010308	-0.001730	-0.023757	-0.896973	-0.209961	0.473633	-0.134690	-0.675863	0.092080	-0.718741
07513		9.795521	0.431734	0.649061	0.012931	0.007695	-0.018767	-0.895264	-0.210938	0.471924	-0.134619	-0.675859	0.091875	-0.718785
07514		9.800337	0.507330	0.643463	0.012697	0.008348	-0.015496	-0.894531	-0.211182	0.466553	-0.134550	-0.675838	0.091707	-0.718839
07515		9.791521	0.479641	0.673061	-0.005563	0.008998	-0.013903	-0.895508	-0.207031	0.479248	-0.134657	-0.675741	0.091738	-0.718906
07516		9.788751	0.443098	0.667316	-0.005923	0.005686	-0.010720	-0.903809	-0.205566	0.462646	-0.134608	-0.675764	0.091751	-0.718892
07517		9.785641	0.443866	0.689954	-0.005663	0.002417	-0.009132	-0.899658	-0.211182	0.464844	-0.134589	-0.675661	0.091843	-0.718980
07518		9.798567	0.336204	0.715359	0.000592	0.002659	-0.006462	-0.896240	-0.209473	0.467285	-0.134561	-0.675597	0.091891	-0.719040
07519		9.792466	0.345455	0.667575	0.010658	0.006696	-0.007924	-0.903320	-0.211182	0.467529	-0.134444	-0.675546	0.091823	-0.719119
07520		9.794189	0.432021	0.645016	0.004762	0.010263	-0.009003	-0.903809	-0.204834	0.470459	-0.134388	-0.675433	0.091785	-0.719240
07521		9.802934	0.417320	0.682847	-0.002968	0.010087	-0.009987	-0.896484	-0.205811	0.461914	-0.134313	-0.675332	0.091795	-0.719347
07522		9.794063	0.402974	0.673953	-0.000315	0.008747	-0.008939	-0.902100	-0.208496	0.460693	-0.134290	-0.675211	0.091834	-0.719460
07523		9.785475	0.365990	0.681151	0.003168	0.010409	-0.008070	-0.899414	-0.214111	0.474365	-0.134252	-0.675055	0.091847	-0.719612
07524		9.784453	0.431937	0.665572	-0.005186	0.005895	-0.009188	-0.899658	-0.204102	0.471191	-0.134291	-0.675037	0.091877	-0.719617
07525		9.801860	0.436893	0.683094	-0.016337	0.006410	-0.007417	-0.894043	-0.209961	0.472168	-0.134303	-0.674972	0.092031	-0.719656
07526		9.781814	0.380920	0.699875	-0.013065	0.005363	-0.005573	-0.896729	-0.211182	0.469727	-0.134351	-0.674947	0.092174	-0.719653
07527		9.795618	0.443184	0.668175	-0.009081	0.007397	-0.004659	-0.903809	-0.211426	0.480225	-0.134380	-0.674882	0.092295	-0.719693
07528		9.792822	0.423449	0.676309	-0.024989	0.000686	-0.004123	-0.897461	-0.216064	0.466064	-0.134454	-0.674904	0.092523	-0.719630
07529		9.794022	0.329855	0.687830	-0.024075	0.002681	-0.002979	-0.902588	-0.211914	0.469482	-0.134661	-0.674827	0.092815	-0.719625
07530		9.814629	0.323948	0.691180	-0.009055	0.004285	-0.004576	-0.898193	-0.212891	0.464111	-0.134673	-0.674772	0.092937	-0.719659
07531		9.782220	0.313645	0.700742	-0.005482	0.008490	-0.007816	-0.902100	-0.215820	0.468018	-0.134742	-0.674667	0.093019	-0.719734
07532		9.799637	0.322387	0.687796	0.000095	0.006092	-0.009563	-0.901611	-0.206543	0.473633	-0.134777	-0.674611	0.093022	-0.719779
07533		9.784358	0.350174	0.689081	-0.003091	0.005884	-0.012480	-0.901367	-0.208496	0.467285	-0.134733	-0.674598	0.093008	-0.719802
07534		9.793462	0.321035	0.680807	0.001277	0.008121	-0.014662	-0.905273	-0.210693	0.464600	-0.134730	-0.674531	0.092958	-0.719871
07535		9.792384	0.373917	0.704093	0.007798	0.008651	-0.015833	-0.905518	-0.210938	0.465332	-0.134709	-0.674443	0.092846	-0.719973
07536		9.788962	0.387649	0.719368	-0.001732	0.005647	-0.017322	-0.897217	-0.212402	0.464355	-0.134775	-0.674373	0.092809	-0.720030
07537		9.797928	0.370503	0.702857	0.000862	0.006494	-0.015779	-0.896240	-0.207031	0.469971	-0.134851	-0.674319	0.092770	-0.720072
07538		9.782524	0.399649	0.704236	0.006026	0.006766	-0.016902	-0.895020	-0.214355	0.461914	-0.134807	-0.674314	0.092653	-0.720099
07539		9.790798	0.420163	0.716617	0.000126	0.002481	-0.014278	-0.898682	-0.214111	0.472656	-0.134909	-0.674285	0.092652	-0.720107
07540		9.797095	0.393278	0.698002	-0.012795	0.000836	-0.015983	-0.897217	-0.213867	0.468262	-0.135066	-0.674312	0.092713	-0.720045
07541		9.789290	0.327922	0.696648	-0.006601	0.002784	-0.017595	-0.901611	-0.210449	0.463623	-0.135207	-0.674308	0.092718	-0.720022
07542		9.799624	0.399468	0.708296	-0.002204	0.002161	-0.017297	-0.892334	-0.204834	0.467773	-0.135275	-0.674273	0.092700	-0.720044
07543		9.791284	0.364332	0.713646	-0.000968	0.002749	-0.015704	-0.899170	-0.209961	0.468262	-0.135263	-0.674290	0.092674	-0.720033
07544		9.779391	0.361371	0.717051	0.003686	0.006699	-0.017532	-0.897461	-0.214111	0.470215	-0.135268	-0.674263	0.092578	-0.720070
07545		9.790164	0.403181	0.722768	0.008914	0.004794	-0.019144	-0.898193	-0.207275	0.471436	-0.135281	-0.674282	0.092421	-0.720070
07546		9.789728	0.418800	0.715655	-0.004156	0.002775	-0.016240	-0.907959	-0.212402	0.464111	-0.135294	-0.674300	0.092404	-0.720054
07547		9.805362	0.367627	0.710085	-0.001917	0.003860	-0.016956	-0.901611	-0.197754	0.466553	-0.135355	-0.674235	0.092379	-0.720106
07548		9.796492	0.366357	0.691846	-0.004104	0.004633	-0.017399	-0.895508	-0.209961	0.466553	-0.135291	-0.674197	0.092362	-0.720156
07549		9.799215	0.368669	0.701815	-0.004538	0.002077	-0.017936	-0.900391	-0.218750	0.467041	-0.135377	-0.674200	0.092354	-0.720138
07550		9.784115	0.375630	0.718703	-0.000984	0.006542	-0.018787	-0.898438	-0.215088	0.468262	-0.135520	-0.674158	0.092296	-0.720158
07551		9.792722	0.378321	0.716770	-0.000770	0.004963	-0.021502	-0.901367	-0.206787	0.467041	-0.135643	-0.674148	0.092212	-0.720155
07552		9.795967	0.366296	0.681457	-0.001086	0.002328	-0.021285	-0.896973	-0.208984	0.470947	-0.135673	-0.674145	0.092140	-0.720161
07553		9.780824	0.374055	0.698412	0.005295	0.007251	-0.021474	-0.902832	-0.209229	0.469238	-0.135670	-0.674147	0.091988	-0.720179
07554		9.803975	0.382707	0.703379	-0.000890	0.004790	-0.024673	-0.891113	-0.206543	0.462402	-0.135741	-0.674136	0.091873	-0.720191
07555		9.792689	0.347966	0.731245	0.003489	0.008224	-0.025040	-0.897217	-0.207764	0.469238	-0.135814	-0.674094	0.091743	-0.720233
07556		9.786132	0.365977	0.737317	0.010791	0.005642	-0.026969	-0.895752	-0.211914	0.462891	-0.135802	-0.674115	0.091504	-0.720246
07557		9.787740	0.416024	0.715685	0.011908	0.006063	-0.028536	-0.895264	-0.213867	0.466309	-0.135870	-0.674100	0.091269	-0.720277
07558		9.784917	0.402369	0.723744	0.008907	0.004069	-0.026404	-0.899170	-0.209717	0.460938	-0.135943	-0.674119	0.091067	-0.720271
07559		9.781305	0.418754	0.737904	0.015115	0.002001	-0.027354	-0.904785	-0.212891	0.478271	-0.135942	-0.674123	0.090827	-0.720297
07560		9.792644	0.436267	0.705638	0.021552	0.005002	-0.025639	-0.900146	-0.218994	0.469727	-0.135809	-0.674200	0.090463	-0.720297
07561		9.795176	0.441405	0.716088	0.014630	0.007522	-0.029249	-0.901611	-0.215332	0.469238	-0.135882	-0.674205	0.090165	-0.720315
07562		9.778970	0.377376	0.749397	0.025779	0.002873	-0.022546	-0.899170	-0.213135	0.467773	-0.135755	-0.674256	0.089834	-0.720332
07563		9.802452	0.482276	0.720996	0.028032	0.004895	-0.023857	-0.898926	-0.212891	0.461182	-0.135617	-0.674292	0.089476	-0.720370
07564		9.778214	0.511017	0.670775	0.035860	-0.000835	-0.020266	-0.894287	-0.211914	0.465820	-0.135404	-0.674349	0.089116	-0.720401
07565		9.789901	0.405496	0.717019	0.032947	0.001135	-0.018051	-0.907227	-0.213135	0.462891	-0.135181	-0.674420	0.088780	-0.720418
07566		9.782745	0.440822	0.735878	0.034534	0.001255	-0.016598	-0.899170	-0.209717	0.467529	-0.134930	-0.674437	0.088452	-0.720490
07567		9.773793	0.454183	0.677811	0.025091	0.001466	-0.015021	-0.895996	-0.211182	0.476318	-0.134712	-0.674483	0.088204	-0.720518
07568		9.772582	0.488394	0.684533	0.012369	0.002687	-0.015303	-0.898682	-0.212158	0.463867	-0.134590	-0.674557	0.088031	-0.720492
07569		9.777518	0.507603	0.718099	0.001499	0.004553	-0.015590	-0.892334	-0.210693	0.464355	-0.134627	-0.674514	0.088003	-0.720529
07570		9.791211	0.446933	0.711665	0.003864	0.000608	-0.014291	-0.903809	-0.218018	0.462646	-0.134625	-0.674530	0.087970	-0.720518
07571		9.786769	0.398130	0.733464	0.012481	-0.003278	-0.012700	-0.900635	-0.209717	0.474121	-0.134583	-0.674552	0.087886	-0.720516
07572		9.789711	0.403208	0.711169	0.016443	-0.001461	-0.014198	-0.902344	-0.207275	0.465820	-0.134401	-0.674641	0.087703	-0.720489
07573		9.780309	0.420681	0.706017	0.012923	-0.000307	-0.017586	-0.902100	-0.208984	0.465576	-0.134293	-0.674664	0.087557	-0.720505
07574		9.778722	0.466673	0.704103	0.007410	-0.000398	-0.018730	-0.910645	-0.208740	0.466797	-0.134262	-0.674678	0.087453	-0.720510
07575		9.778082	0.478870	0.726909	0.002925	0.002631	-0.016141	-0.904053	-0.215332	0.469482	-0.134221	-0.674639	0.087400	-0.720561
07576		9.781235	0.472853	0.713965	-0.001637	0.001693	-0.013621	-0.905273	-0.207520	0.468994	-0.134260	-0.674630	0.087402	-0.720562
07577		9.795621	0.484687	0.690674	-0.006158	0.002608	-0.012270	-0.892334	-0.210938	0.470215	-0.134252	-0.674599	0.087454	-0.720586
07578		9.790583	0.457777	0.697038	-0.012105	-0.000975	-0.013351	-0.894775	-0.213623	0.469971	-0.134354	-0.674633	0.087551	-0.720524
07579		9.791053	0.435006	0.744070	-0.015752	0.000763	-0.012679	-0.907227	-0.211670	0.455811	-0.134502	-0.674636	0.087687	-0.720477
07580		9.786004	0.407718	0.751183	0.002866	0.007451	-0.009602	-0.897217	-0.217529	0.467529	-0.134491	-0.674494	0.087733	-0.720606
07581		9.783670	0.477009	0.704286	0.006647	0.006824	-0.007692	-0.899658	-0.211182	0.465332	-0.134452	-0.674456	0.087712	-0.720652
07582		9.795467	0.478579	0.680468	-0.013049	0.001565	-0.010375	-0.898438	-0.215088	0.464355	-0.134544	-0.674417	0.087861	-0.720653
07583		9.783366	0.396978	0.730388	-0.008706	-0.001797	-0.008321	-0.898193	-0.210938	0.469482	-0.134619	-0.674412	0.087999	-0.720626
07584		9.782988	0.410105	0.721487	0.000180	-0.005142	-0.008202	-0.892334	-0.216064	0.463623	-0.134554	-0.674481	0.088041	-0.720569
07585		9.786290	0.399120	0.737738	0.004514	-0.002609	-0.008004	-0.898193	-0.216553	0.462158	-0.134541	-0.674516	0.088071	-0.720535
07586		9.784718	0.442460	0.735420	0.011876	-0.001857	-0.006870	-0.896729	-0.217041	0.465576	-0.134456	-0.674531	0.088050	-0.720540
07587		9.789881	0.466753	0.706630	0.002874	0.001300	-0.010162	-0.903076	-0.209473	0.470215	-0.134475	-0.674528	0.088065	-0.720537
07588		9.786085	0.405523	0.736967	0.002578	-0.001077	-0.007514	-0.900391	-0.213379	0.464355	-0.134367	-0.674553	0.088083	-0.720531
07589		9.778644	0.368351	0.741693	0.008591	-0.000856	-0.008744	-0.902344	-0.212891	0.462891	-0.134287	-0.674561	0.088064	-0.720541
07590		9.801105	0.480562	0.704137	0.016741	0.002910	-0.007809	-0.904297	-0.206055	0.465576	-0.134133	-0.674536	0.087979	-0.720604
07591		9.783128	0.486798	0.710629	-0.001258	-0.003238	-0.007671	-0.900879	-0.206055	0.463867	-0.134047	-0.674546	0.088049	-0.720602
07592		9.793031	0.383321	0.716870	-0.006925	-0.005123	-0.008403	-0.899170	-0.204834	0.474365	-0.134029	-0.674563	0.088175	-0.720573
07593		9.783320	0.409833	0.702890	0.001551	-0.003943	-0.008843	-0.897705	-0.208984	0.470215	-0.133897	-0.674645	0.088176	-0.720521
07594		9.787272	0.464128	0.679960	-0.008707	-0.001811	-0.008323	-0.900391	-0.215820	0.466064	-0.133909	-0.674669	0.088294	-0.720482
07595		9.781229	0.466186	0.692037	-0.015335	-0.002339	-0.007896	-0.897705	-0.213623	0.471680	-0.134048	-0.674657	0.088501	-0.720442
07596		9.792083	0.409729	0.728820	-0.006141	-0.001853	-0.006188	-0.902100	-0.207275	0.463867	-0.134056	-0.674690	0.088614	-0.720396
07597		9.786508	0.403673	0.718412	-0.004771	-0.000649	-0.006825	-0.902344	-0.211426	0.470215	-0.134024	-0.674664	0.088731	-0.720412
07598		9.786569	0.411988	0.656857	0.000126	-0.000846	-0.006484	-0.897705	-0.202881	0.465576	-0.133961	-0.674680	0.088788	-0.720402
07599		9.782656	0.431069	0.692570	-0.005044	-0.002358	-0.007176	-0.896484	-0.206299	0.473877	-0.133898	-0.674689	0.088897	-0.720391
07600		9.789382	0.409970	0.696118	-0.003164	0.000408	-0.005942	-0.894775	-0.206299	0.466064	-0.133812	-0.674721	0.088965	-0.720369
07601		9.780827	0.405620	0.676938	-0.004517	0.000131	-0.005892	-0.900146	-0.211182	0.470947	-0.133775	-0.674716	0.089079	-0.720366
07602		9.784149	0.393910	0.694028	-0.000132	-0.001369	-0.005006	-0.900635	-0.210449	0.470947	-0.133705	-0.674743	0.089150	-0.720345
07603		9.777278	0.417954	0.690623	-0.002858	0.003970	-0.006763	-0.909180	-0.210938	0.463623	-0.133675	-0.674717	0.089222	-0.720366
07604		9.794157	0.434471	0.699578	-0.008733	0.004338	-0.007775	-0.908691	-0.212158	0.466553	-0.133722	-0.674622	0.089370	-0.720428
07605		9.776127	0.440171	0.707145	-0.006438	0.002588	-0.005987	-0.904541	-0.210693	0.463867	-0.133731	-0.674562	0.089504	-0.720466
07606		9.787070	0.386879	0.714147	-0.003388	0.001739	-0.005636	-0.898438	-0.206299	0.469971	-0.133716	-0.674511	0.089623	-0.720502
07607		9.802332	0.374782	0.706806	-0.004996	0.000680	-0.006523	-0.897705	-0.209229	0.462158	-0.133671	-0.674515	0.089720	-0.720494
07608		9.783066	0.340933	0.706654	-0.007262	0.004541	-0.007068	-0.902588	-0.214111	0.471436	-0.133714	-0.674443	0.089864	-0.720536
07609		9.780745	0.465082	0.712023	0.002673	0.004754	-0.008620	-0.898193	-0.204834	0.466064	-0.133685	-0.674422	0.089873	-0.720559
07610		9.793413	0.444046	0.703960	-0.021677	-0.000255	-0.007730	-0.898926	-0.209961	0.468506	-0.133795	-0.674390	0.090126	-0.720537
07611		9.785644	0.341110	0.748253	-0.011758	-0.000967	-0.008698	-0.902588	-0.203125	0.472412	-0.133863	-0.674392	0.090280	-0.720503
07612		9.782244	0.359577	0.700530	-0.002154	0.001837	-0.008867	-0.906494	-0.205811	0.462158	-0.133773	-0.674397	0.090315	-0.720511
07613		9.802975	0.428997	0.686402	-0.001343	-0.001301	-0.009621	-0.898193	-0.206299	0.467285	-0.133737	-0.674372	0.090389	-0.720532
07614		9.791031	0.362379	0.697002	-0.011635	-0.001555	-0.012777	-0.905518	-0.213623	0.458740	-0.133816	-0.674381	0.090509	-0.720494
07615		9.777634	0.399277	0.698114	-0.006767	0.004407	-0.011868	-0.909912	-0.211426	0.466309	-0.133936	-0.674282	0.090632	-0.720549
07616		9.792313	0.396539	0.714166	-0.012898	0.003986	-0.013827	-0.906006	-0.211182	0.465088	-0.134066	-0.674209	0.090756	-0.720578
07617		9.803245	0.421521	0.674003	-0.008887	0.002041	-0.012220	-0.898926	-0.211670	0.464111	-0.134153	-0.674162	0.090865	-0.720592
07618		9.784640	0.432585	0.734158	-0.021692	-0.001710	-0.012009	-0.905273	-0.209473	0.464844	-0.134361	-0.674139	0.091103	-0.720544
07619		9.791644	0.342753	0.723667	-0.024131	-0.000563	-0.011566	-0.902832	-0.208740	0.465576	-0.134551	-0.674091	0.091355	-0.720522
07620		9.788572	0.347173	0.714769	-0.006695	0.001299	-0.011781	-0.900879	-0.205566	0.465088	-0.134591	-0.674066	0.091441	-0.720527
07621		9.812270	0.342512	0.726874	0.001543	0.002655	-0.013725	-0.900879	-0.208496	0.461914	-0.134558	-0.674047	0.091430	-0.720552
07622		9.779357	0.359225	0.688574	0.005962	0.003021	-0.014003	-0.897705	-0.207764	0.462158	-0.134529	-0.674017	0.091396	-0.720590
07623		9.774315	0.406095	0.678851	0.000594	0.004682	-0.015571	-0.901367	-0.210449	0.469238	-0.134560	-0.673974	0.091392	-0.720625
07624		9.797442	0.410086	0.713621	-0.003396	-0.000456	-0.017170	-0.906250	-0.213623	0.465088	-0.134622	-0.673998	0.091395	-0.720590
07625		9.777764	0.386247	0.735418	0.009254	0.001781	-0.014550	-0.901367	-0.214600	0.468506	-0.134590	-0.673989	0.091326	-0.720614
07626		9.787089	0.380051	0.709793	0.014889	0.001832	-0.012633	-0.896484	-0.214355	0.466064	-0.134499	-0.674014	0.091211	-0.720622
07627		9.799963	0.422745	0.692624	0.000524	-0.000217	-0.015075	-0.896484	-0.216309	0.459473	-0.134565	-0.674034	0.091220	-0.720589
07628		9.777846	0.389078	0.713173	-0.000094	-0.000268	-0.013461	-0.903809	-0.209961	0.469727	-0.134662	-0.674021	0.091279	-0.720576
07629		9.774775	0.393936	0.703806	0.010428	-0.001320	-0.010605	-0.900635	-0.211914	0.465088	-0.134538	-0.674065	0.091213	-0.720567
07630		9.794061	0.421159	0.712752	0.011082	0.001769	-0.011559	-0.895996	-0.207031	0.464844	-0.134461	-0.674067	0.091152	-0.720587
07631		9.785511	0.418451	0.693371	-0.004164	-0.002049	-0.012735	-0.896729	-0.217529	0.465820	-0.134487	-0.674089	0.091216	-0.720553
07632		9.787891	0.369118	0.702589	0.001485	-0.001319	-0.013826	-0.902100	-0.209229	0.460449	-0.134562	-0.674116	0.091240	-0.720511
07633		9.778803	0.374460	0.705837	0.006783	0.001070	-0.012946	-0.901855	-0.203125	0.463135	-0.134522	-0.674095	0.091217	-0.720541
07634		9.792561	0.394670	0.705066	0.006807	0.002926	-0.014122	-0.906250	-0.214844	0.470947	-0.134434	-0.674072	0.091156	-0.720587
07635		9.788924	0.411006	0.688351	0.001145	0.001265	-0.012446	-0.898193	-0.214111	0.461670	-0.134446	-0.674077	0.091166	-0.720578
07636		9.775880	0.374997	0.705704	-0.001086	-0.001035	-0.013560	-0.897949	-0.211426	0.465332	-0.134523	-0.674075	0.091223	-0.720558
07637		9.775161	0.386142	0.728739	0.007069	0.004636	-0.013774	-0.899170	-0.208008	0.466553	-0.134504	-0.674054	0.091176	-0.720587
07638		9.788923	0.409884	0.697559	0.019296	0.002227	-0.012940	-0.913818	-0.203125	0.471924	-0.134337	-0.674078	0.091016	-0.720616
07639		9.790137	0.441761	0.713443	0.014263	0.001542	-0.013471	-0.903564	-0.209473	0.469971	-0.134133	-0.674094	0.090865	-0.720659
07640		9.790183	0.386352	0.691909	-0.001902	0.003275	-0.010973	-0.902344	-0.217285	0.470215	-0.134126	-0.674076	0.090903	-0.720672
07641		9.782970	0.411841	0.689088	-0.001769	0.003873	-0.013224	-0.904541	-0.206787	0.469238	-0.134207	-0.674058	0.090940	-0.720669
07642		9.784682	0.431770	0.713393	0.002118	0.001348	-0.009359	-0.893311	-0.208496	0.465576	-0.134127	-0.674058	0.090955	-0.720683
07643		9.800064	0.420559	0.706029	-0.003894	0.001084	-0.008133	-0.899658	-0.212158	0.471680	-0.134134	-0.674055	0.091055	-0.720671
07644		9.778724	0.377470	0.704644	0.004465	0.003578	-0.007485	-0.905029	-0.216309	0.467041	-0.134068	-0.674057	0.091067	-0.720680
07645		9.796829	0.426169	0.698273	-0.002281	0.003078	-0.007830	-0.895020	-0.208252	0.462891	-0.134101	-0.674020	0.091164	-0.720697
07646		9.786906	0.390349	0.695022	-0.006436	0.004405	-0.007198	-0.902832	-0.205078	0.465332	-0.134129	-0.673967	0.091298	-0.720724
07647		9.781292	0.380993	0.716479	0.003234	0.003221	-0.006673	-0.897949	-0.210938	0.468994	-0.134023	-0.673936	0.091333	-0.720768
07648		9.780632	0.393685	0.709406	0.006438	0.005357	-0.004889	-0.901123	-0.211426	0.466064	-0.133924	-0.673915	0.091355	-0.720803
07649		9.778367	0.436223	0.708226	-0.004542	-0.001752	-0.004752	-0.902100	-0.211670	0.467041	-0.133917	-0.673920	0.091500	-0.720781
07650		9.788669	0.351103	0.729251	-0.011901	-0.002562	-0.005906	-0.897705	-0.207031	0.461914	-0.133979	-0.673924	0.091700	-0.720741
07651		9.791667	0.354035	0.707596	0.002355	0.001462	-0.005407	-0.901611	-0.209961	0.465088	-0.133907	-0.673902	0.091775	-0.720765
07652		9.795356	0.396909	0.694321	-0.001284	0.004766	-0.008337	-0.903809	-0.207520	0.467285	-0.133904	-0.673853	0.091850	-0.720802
07653		9.782486	0.363303	0.682045	-0.009258	0.003646	-0.010300	-0.908203	-0.205566	0.473633	-0.133956	-0.673809	0.091969	-0.720818
07654		9.800997	0.397463	0.714373	-0.013455	0.001259	-0.007318	-0.899902	-0.200439	0.462891	-0.133973	-0.673795	0.092128	-0.720808
07655		9.778106	0.384233	0.718896	-0.017163	-0.002186	-0.008564	-0.899658	-0.218262	0.463867	-0.134031	-0.673779	0.092339	-0.720785
07656		9.793445	0.325593	0.681055	-0.004379	0.001631	-0.008774	-0.898682	-0.209229	0.470947	-0.134128	-0.673753	0.092469	-0.720774
07657		9.803817	0.404571	0.692790	-0.002340	-0.002742	-0.006738	-0.900879	-0.212646	0.458008	-0.134093	-0.673801	0.092561	-0.720725
07658		9.782608	0.357690	0.721027	-0.008453	-0.001087	-0.007457	-0.896973	-0.204102	0.462402	-0.134180	-0.673764	0.092747	-0.720719
07659		9.792151	0.349804	0.694942	-0.001827	-0.000505	-0.007872	-0.906494	-0.207520	0.469238	-0.134139	-0.673762	0.092834	-0.720718
07660		9.777088	0.353971	0.710624	-0.000717	-0.000071	-0.009451	-0.902344	-0.205078	0.470215	-0.134098	-0.673768	0.092883	-0.720713
07661		9.809963	0.350336	0.688255	-0.000717	-0.000071	-0.009452	-0.893066	-0.205566	0.466064	-0.134043	-0.673787	0.092925	-0.720700
07662		9.779387	0.371574	0.681138	-0.007939	0.000892	-0.011024	-0.898926	-0.209961	0.462158	-0.134095	-0.673788	0.093033	-0.720675
07663		9.787768	0.434315	0.670005	-0.010485	0.003955	-0.012518	-0.904297	-0.214111	0.464111	-0.134222	-0.673730	0.093170	-0.720688
07664		9.777335	0.406577	0.689296	-0.026201	0.002313	-0.007643	-0.898682	-0.202881	0.467773	-0.134453	-0.673653	0.093494	-0.720675
07665		9.772952	0.425209	0.726666	-0.026300	0.005424	-0.007748	-0.906250	-0.214355	0.470459	-0.134596	-0.673576	0.093772	-0.720684
07666		9.784825	0.425989	0.703346	-0.035635	0.004510	-0.004828	-0.908936	-0.202881	0.462402	-0.134860	-0.673484	0.094180	-0.720668
07667		9.793632	0.373673	0.701619	-0.039581	0.002640	-0.003353	-0.906006	-0.208008	0.464111	-0.135067	-0.673365	0.094630	-0.720681
07668		9.799918	0.257646	0.729376	-0.037252	0.002510	-0.005168	-0.897949	-0.210693	0.462646	-0.135308	-0.673266	0.095052	-0.720673
07669		9.794462	0.254884	0.690275	-0.009340	0.010985	-0.007903	-0.909668	-0.209717	0.463867	-0.135385	-0.673152	0.095198	-0.720746
07670		9.782335	0.358541	0.716480	-0.005718	0.003215	-0.009920	-0.910400	-0.205322	0.469727	-0.135410	-0.673100	0.095298	-0.720776
07671		9.769109	0.386916	0.695399	-0.011862	0.002075	-0.008893	-0.894287	-0.214111	0.461670	-0.135425	-0.673071	0.095435	-0.720783
07672		9.799414	0.315780	0.733626	-0.008331	-0.001404	-0.009157	-0.895020	-0.208496	0.467285	-0.135524	-0.673076	0.095594	-0.720738
07673		9.782012	0.314360	0.717624	0.007273	0.001766	-0.010488	-0.902100	-0.207275	0.470215	-0.135447	-0.673103	0.095564	-0.720732
07674		9.790903	0.365531	0.714453	0.018549	0.001926	-0.006599	-0.900146	-0.205811	0.465820	-0.135213	-0.673141	0.095453	-0.720755
07675		9.790872	0.421867	0.684056	0.000283	0.002820	-0.008114	-0.903564	-0.215332	0.468994	-0.135154	-0.673127	0.095503	-0.720772
07676		9.785904	0.401107	0.712925	-0.015684	0.000119	-0.006648	-0.902344	-0.211182	0.465820	-0.135273	-0.673114	0.095727	-0.720732
07677		9.775646	0.321628	0.731509	-0.008815	0.000566	-0.005513	-0.898438	-0.200684	0.471924	-0.135302	-0.673098	0.095898	-0.720719
07678		9.785265	0.313420	0.705539	-0.000607	-0.000804	-0.005680	-0.906250	-0.214111	0.466553	-0.135173	-0.673141	0.095952	-0.720696
07679		9.803121	0.358025	0.728898	-0.004797	-0.003459	-0.005144	-0.906494	-0.202393	0.467529	-0.135177	-0.673163	0.096101	-0.720655
07680		9.782828	0.357414	0.703141	-0.012510	-0.001957	-0.007368	-0.910400	-0.214600	0.459961	-0.135179	-0.673164	0.096270	-0.720631
07681		9.797795	0.357063	0.687268	-0.016301	-0.000191	-0.007468	-0.901611	-0.211914	0.462402	-0.135321	-0.673105	0.096520	-0.720626
07682		9.797136	0.315561	0.710007	-0.012138	-0.001501	-0.008094	-0.899170	-0.212158	0.466797	-0.135417	-0.673092	0.096715	-0.720593
07683		9.791012	0.367795	0.722028	-0.007237	-0.001401	-0.005290	-0.906006	-0.216064	0.469238	-0.135439	-0.673106	0.096878	-0.720555
07684		9.795273	0.297765	0.716711	0.000028	0.002295	-0.006628	-0.896729	-0.209961	0.462891	-0.135429	-0.673096	0.096959	-0.720555
07685		9.791657	0.312416	0.699592	-0.000863	-0.002510	-0.006044	-0.897705	-0.211426	0.468262	-0.135402	-0.673120	0.097067	-0.720523
07686		9.786214	0.303105	0.719450	0.003931	-0.001898	-0.009462	-0.898682	-0.205566	0.470215	-0.135363	-0.673170	0.097092	-0.720481
07687		9.788592	0.318680	0.689774	0.003214	0.000906	-0.010367	-0.897949	-0.209229	0.468506	-0.135294	-0.673200	0.097092	-0.720466
07688		9.800484	0.317681	0.695410	0.000008	-0.002166	-0.011592	-0.895508	-0.202393	0.458008	-0.135292	-0.673247	0.097130	-0.720417
07689		9.790223	0.344607	0.682250	0.006261	-0.001772	-0.008830	-0.899170	-0.211182	0.471680	-0.135194	-0.673263	0.097149	-0.720418
07690		9.787715	0.334017	0.711621	-0.004516	0.000541	-0.011423	-0.904297	-0.212402	0.469238	-0.135237	-0.673287	0.097220	-0.720378
07691		9.791275	0.327478	0.698052	0.002716	-0.000653	-0.012268	-0.897949	-0.209717	0.464355	-0.135233	-0.673316	0.097231	-0.720350
07692		9.782644	0.371484	0.708963	0.007246	-0.001005	-0.008741	-0.907471	-0.208984	0.462402	-0.135161	-0.673345	0.097239	-0.720335
07693		9.788564	0.373787	0.696696	-0.000461	0.002593	-0.009704	-0.901367	-0.208984	0.468750	-0.135155	-0.673304	0.097306	-0.720366
07694		9.787339	0.344100	0.711985	-0.005378	0.000875	-0.008901	-0.902832	-0.213867	0.465088	-0.135174	-0.673305	0.097410	-0.720347
07695		9.792871	0.306744	0.691747	-0.004774	-0.000924	-0.009353	-0.902832	-0.208496	0.472412	-0.135230	-0.673307	0.097528	-0.720319
07696		9.795130	0.318441	0.693150	0.000030	0.002976	-0.009660	-0.904053	-0.211670	0.471436	-0.135200	-0.673310	0.097564	-0.720317
07697		9.788959	0.320861	0.706570	0.000655	0.005143	-0.010022	-0.900391	-0.215088	0.464111	-0.135193	-0.673289	0.097597	-0.720333
07698		9.782213	0.338228	0.681457	-0.003032	0.003791	-0.010030	-0.903076	-0.206055	0.464844	-0.135260	-0.673253	0.097691	-0.720341
07699		9.790357	0.346530	0.701724	-0.005118	0.003264	-0.011571	-0.899658	-0.205811	0.471924	-0.135291	-0.673219	0.097770	-0.720356
07700		9.779512	0.330112	0.712645	-0.008316	0.002541	-0.009096	-0.898193	-0.208984	0.466309	-0.135313	-0.673216	0.097884	-0.720339
07701		9.779055	0.292872	0.705240	-0.006972	0.000728	-0.010404	-0.893066	-0.203857	0.468506	-0.135369	-0.673215	0.097998	-0.720315
07702		9.795005	0.321748	0.705113	-0.004780	-0.003033	-0.010627	-0.903076	-0.204590	0.468750	-0.135372	-0.673269	0.098081	-0.720252
07703		9.789569	0.313116	0.725106	0.000261	-0.000454	-0.011248	-0.901611	-0.205566	0.462158	-0.135332	-0.673292	0.098110	-0.720234
07704		9.809918	0.325351	0.688484	-0.009076	-0.003767	-0.012041	-0.902832	-0.207031	0.466309	-0.135398	-0.673308	0.098240	-0.720190
07705		9.784192	0.314878	0.683541	-0.001815	0.002055	-0.012113	-0.904297	-0.208496	0.467285	-0.135408	-0.673296	0.098286	-0.720192
07706		9.788023	0.344320	0.708490	-0.006984	-0.002557	-0.013531	-0.900146	-0.214600	0.470947	-0.135475	-0.673320	0.098375	-0.720145
07707		9.798284	0.323018	0.720555	0.000867	-0.002250	-0.011705	-0.894775	-0.206299	0.468018	-0.135495	-0.673373	0.098411	-0.720087
07708		9.788621	0.342504	0.684701	-0.003798	-0.002268	-0.010543	-0.900391	-0.212891	0.473145	-0.135504	-0.673414	0.098491	-0.720035
07709		9.785505	0.343079	0.706123	-0.002438	0.001063	-0.009906	-0.897705	-0.204834	0.467773	-0.135524	-0.673436	0.098559	-0.720002
07710		9.788177	0.308000	0.677099	-0.003415	0.002156	-0.011175	-0.894775	-0.212158	0.468262	-0.135529	-0.673432	0.098621	-0.719996
07711		9.810401	0.282815	0.695979	-0.003662	0.001376	-0.012127	-0.906494	-0.204590	0.460205	-0.135592	-0.673444	0.098691	-0.719964
07712		9.795972	0.280239	0.689557	0.003706	0.002918	-0.013962	-0.907715	-0.213867	0.462402	-0.135568	-0.673406	0.098681	-0.720005
07713		9.796704	0.312262	0.706069	0.004566	0.002584	-0.016495	-0.898682	-0.205322	0.457031	-0.135610	-0.673383	0.098654	-0.720023
07714		9.783090	0.339040	0.715743	0.002608	0.003838	-0.018448	-0.908936	-0.208008	0.466553	-0.135657	-0.673343	0.098623	-0.720055
07715		9.807606	0.328484	0.705661	-0.003161	0.004298	-0.016295	-0.895996	-0.214600	0.462158	-0.135716	-0.673305	0.098644	-0.720077
07716		9.777215	0.300248	0.699708	0.003465	0.004928	-0.016687	-0.905518	-0.203369	0.467041	-0.135790	-0.673278	0.098624	-0.720091
07717		9.785493	0.353220	0.697043	0.007259	0.001321	-0.015413	-0.901367	-0.211914	0.470703	-0.135722	-0.673291	0.098553	-0.720101
07718		9.783178	0.387193	0.703934	-0.009918	-0.000230	-0.016776	-0.897461	-0.213623	0.470215	-0.135861	-0.673311	0.098637	-0.720045
07719		9.786618	0.338347	0.713061	-0.011517	-0.001063	-0.015246	-0.908447	-0.212646	0.474609	-0.136014	-0.673337	0.098753	-0.719976
07720		9.800800	0.347392	0.719804	-0.007105	-0.001322	-0.012474	-0.902832	-0.205811	0.468018	-0.136074	-0.673367	0.098841	-0.719925
07721		9.797606	0.308851	0.733030	-0.003058	-0.002287	-0.011423	-0.907959	-0.210693	0.468018	-0.136067	-0.673397	0.098905	-0.719889
07722		9.780333	0.307799	0.715834	0.000619	-0.006993	-0.012775	-0.896484	-0.210938	0.467285	-0.136060	-0.673468	0.098941	-0.719819
07723		9.808726	0.208348	0.674194	0.000503	-0.002268	-0.016489	-0.906494	-0.208740	0.470215	-0.136109	-0.673517	0.098942	-0.719763
07724		9.795917	0.263258	0.698700	0.018294	0.000294	-0.017347	-0.897705	-0.211182	0.462646	-0.135989	-0.673567	0.098761	-0.719764
07725		9.788368	0.330247	0.702263	0.008846	-0.006262	-0.022048	-0.903320	-0.211426	0.464844	-0.136023	-0.673654	0.098660	-0.719690
07726		9.791998	0.283226	0.710311	0.013752	-0.002412	-0.021588	-0.904053	-0.210449	0.464600	-0.136007	-0.673711	0.098506	-0.719661
07727		9.787336	0.352668	0.692909	0.026140	0.001998	-0.021612	-0.906738	-0.211670	0.471924	-0.135886	-0.673747	0.098233	-0.719687
07728		9.799158	0.397463	0.675823	0.012275	-0.001217	-0.018022	-0.903809	-0.212891	0.470703	-0.135835	-0.673804	0.098108	-0.719660
07729		9.783917	0.403789	0.691683	-0.002080	0.002614	-0.019189	-0.903076	-0.213867	0.468262	-0.135934	-0.673804	0.098100	-0.719643
07730		9.795765	0.361437	0.720875	0.001844	0.001981	-0.016463	-0.892578	-0.213867	0.464355	-0.135985	-0.673806	0.098087	-0.719633
07731		9.789719	0.329324	0.694815	0.001847	-0.001736	-0.014105	-0.902100	-0.211914	0.474854	-0.136029	-0.673842	0.098109	-0.719588
07732		9.793449	0.327182	0.650130	0.000375	-0.001964	-0.014836	-0.904053	-0.208496	0.471191	-0.136049	-0.673899	0.098114	-0.719531
07733		9.785065	0.318049	0.691785	-0.001836	-0.000573	-0.018338	-0.896729	-0.209961	0.468994	-0.136106	-0.673927	0.098108	-0.719495
07734		9.797829	0.268447	0.698167	0.010913	0.004316	-0.019089	-0.903809	-0.210205	0.465820	-0.136087	-0.673938	0.097981	-0.719505
07735		9.786082	0.344572	0.716696	0.017416	0.002257	-0.018492	-0.904053	-0.209717	0.462158	-0.136006	-0.673956	0.097809	-0.719527
07736		9.785297	0.325029	0.670451	0.001229	0.000233	-0.021612	-0.895996	-0.214844	0.472168	-0.136091	-0.673955	0.097766	-0.719518
07737		9.794141	0.325036	0.697588	0.001355	-0.001949	-0.022115	-0.908203	-0.213867	0.464844	-0.136195	-0.674021	0.097713	-0.719443
07738		9.787153	0.341854	0.701615	0.003805	-0.001196	-0.023752	-0.906738	-0.222656	0.462646	-0.136287	-0.674042	0.097633	-0.719417
07739		9.784774	0.338086	0.700262	0.015820	0.000003	-0.021286	-0.894531	-0.210693	0.472412	-0.136312	-0.674065	0.097483	-0.719412
07740		9.788978	0.366233	0.671712	0.012506	0.000009	-0.022616	-0.904297	-0.207031	0.474609	-0.136305	-0.674135	0.097316	-0.719370
07741		9.794550	0.411374	0.666354	0.005532	-0.005084	-0.021581	-0.896973	-0.206299	0.470459	-0.136305	-0.674228	0.097217	-0.719296
07742		9.789796	0.319190	0.731863	0.006494	-0.000344	-0.021408	-0.903076	-0.204590	0.464844	-0.136311	-0.674278	0.097109	-0.719262
07743		9.789611	0.328027	0.701388	0.030271	0.003155	-0.018619	-0.901611	-0.205566	0.461914	-0.136090	-0.674304	0.096811	-0.719320
07744		9.786534	0.406252	0.685587	0.029409	0.003236	-0.018541	-0.904785	-0.206787	0.473389	-0.135889	-0.674321	0.096529	-0.719380
07745		9.784968	0.390771	0.692915	0.014329	0.001872	-0.020787	-0.905029	-0.205078	0.465576	-0.135818	-0.674359	0.096346	-0.719382
07746		9.801513	0.371745	0.693393	0.010167	0.000352	-0.018380	-0.899658	-0.206299	0.465332	-0.135763	-0.674375	0.096236	-0.719393
07747		9.789287	0.380212	0.687377	0.000977	-0.001517	-0.022025	-0.900146	-0.208496	0.463623	-0.135830	-0.674404	0.096183	-0.719360
07748		9.793872	0.361328	0.711798	0.009820	-0.004327	-0.020200	-0.901855	-0.207520	0.467285	-0.135816	-0.674464	0.096079	-0.719320
07749		9.784697	0.371666	0.683577	0.014095	-0.001693	-0.019983	-0.902100	-0.211182	0.464355	-0.135753	-0.674516	0.095924	-0.719304
07750		9.802971	0.405535	0.661864	0.015052	0.001865	-0.021683	-0.904053	-0.212891	0.469727	-0.135728	-0.674529	0.095754	-0.719318
07751		9.796722	0.410846	0.674347	0.001213	-0.000743	-0.021089	-0.895996	-0.211670	0.463623	-0.135809	-0.674556	0.095710	-0.719284
07752		9.800082	0.374220	0.675402	0.000002	-0.002721	-0.016623	-0.896729	-0.212158	0.475342	-0.135868	-0.674586	0.095728	-0.719242
07753		9.782242	0.413429	0.666332	0.009441	-0.002419	-0.015762	-0.901611	-0.204102	0.460938	-0.135820	-0.674665	0.095644	-0.719189
07754		9.783946	0.391407	0.712278	0.010429	-0.003497	-0.014487	-0.901367	-0.208740	0.473389	-0.135728	-0.674699	0.095577	-0.719183
07755		9.785966	0.411409	0.650713	0.006403	-0.006278	-0.013158	-0.896729	-0.210938	0.476562	-0.135658	-0.674789	0.095545	-0.719116
07756		9.811467	0.360836	0.630938	0.003558	-0.002860	-0.013762	-0.898682	-0.216553	0.468994	-0.135633	-0.674861	0.095526	-0.719056
07757		9.796034	0.330894	0.691945	0.006845	-0.000326	-0.016692	-0.894287	-0.207520	0.472900	-0.135655	-0.674891	0.095478	-0.719029
07758		9.781172	0.365294	0.722936	0.007593	-0.002448	-0.018833	-0.900635	-0.214355	0.469238	-0.135632	-0.674964	0.095382	-0.718979
07759		9.797890	0.349713	0.692042	0.015551	-0.001447	-0.019303	-0.889404	-0.201660	0.463867	-0.135587	-0.675019	0.095231	-0.718955
07760		9.766897	0.404450	0.669376	0.013700	-0.000293	-0.020498	-0.899414	-0.215820	0.475098	-0.135521	-0.675062	0.095069	-0.718949
07761		9.794836	0.390195	0.697491	0.009197	-0.004653	-0.021077	-0.898193	-0.204346	0.462402	-0.135540	-0.675156	0.094957	-0.718871
07762		9.793283	0.346791	0.687598	0.019489	-0.004671	-0.022786	-0.894287	-0.209961	0.473145	-0.135449	-0.675231	0.094741	-0.718847
07763		9.776650	0.436578	0.686670	0.027190	-0.002078	-0.020489	-0.904297	-0.207764	0.468994	-0.135290	-0.675333	0.094459	-0.718818
07764		9.789694	0.459090	0.684543	0.008699	-0.003865	-0.019270	-0.903564	-0.214355	0.467773	-0.135263	-0.675388	0.094362	-0.718785
07765		9.781086	0.393879	0.694272	0.015331	-0.004756	-0.016042	-0.903564	-0.210449	0.466309	-0.135189	-0.675455	0.094253	-0.718750
07766		9.776069	0.421993	0.667326	0.024544	-0.007068	-0.014963	-0.902832	-0.213379	0.469727	-0.135006	-0.675552	0.094068	-0.718717
07767		9.768093	0.448091	0.661626	0.012782	-0.007304	-0.013980	-0.898926	-0.211182	0.483398	-0.134926	-0.675640	0.093999	-0.718658
07768		9.789041	0.414780	0.677969	0.005143	-0.002707	-0.012293	-0.894043	-0.209717	0.474121	-0.134866	-0.675721	0.093968	-0.718598
07769		9.791840	0.387867	0.670315	0.007756	-0.006906	-0.012649	-0.902588	-0.208496	0.475586	-0.134797	-0.675822	0.093935	-0.718520
07770		9.763925	0.435371	0.685661	0.009494	-0.008913	-0.011642	-0.897461	-0.212402	0.468506	-0.134685	-0.675933	0.093894	-0.718442
07771		9.807114	0.420804	0.665870	0.002015	-0.008617	-0.011714	-0.904297	-0.205811	0.475586	-0.134679	-0.676013	0.093945	-0.718360
07772		9.800865	0.398550	0.629732	0.008159	-0.010152	-0.010999	-0.894043	-0.207764	0.474121	-0.134558	-0.676128	0.093917	-0.718279
07773		9.787940	0.412288	0.643967	0.006567	-0.010065	-0.010036	-0.892090	-0.209229	0.479248	-0.134464	-0.676248	0.093921	-0.718183
07774		9.798592	0.302937	0.639083	0.008460	-0.005066	-0.014732	-0.897461	-0.207275	0.478271	-0.134403	-0.676350	0.093851	-0.718108
07775		9.781475	0.330798	0.637749	0.029853	-0.000908	-0.015756	-0.896240	-0.204834	0.473145	-0.134163	-0.676439	0.093573	-0.718105
07776		9.794686	0.412883	0.635880	0.023509	-0.004136	-0.017507	-0.888672	-0.198486	0.480469	-0.133989	-0.676533	0.093351	-0.718077
07777		9.800572	0.385867	0.637070	0.015575	-0.007279	-0.018287	-0.902344	-0.206543	0.471680	-0.133843	-0.676677	0.093164	-0.717993
07778		9.787342	0.373514	0.636979	0.023599	-0.002619	-0.020417	-0.904541	-0.206299	0.476807	-0.133707	-0.676746	0.092924	-0.717985
07779		9.801275	0.416802	0.628191	0.029550	0.002004	-0.019157	-0.897461	-0.208984	0.475098	-0.133502	-0.676793	0.092621	-0.718018
07780		9.788025	0.464472	0.629566	0.022111	-0.000486	-0.017419	-0.903076	-0.207031	0.470947	-0.133365	-0.676853	0.092415	-0.718014
07781		9.794870	0.457967	0.624647	0.017480	-0.002681	-0.017479	-0.889404	-0.211670	0.477051	-0.133262	-0.676903	0.092260	-0.718006
07782		9.804796	0.449495	0.629039	0.014266	0.000533	-0.014877	-0.903320	-0.203125	0.472900	-0.133188	-0.676955	0.092146	-0.717985
07783		9.799702	0.441654	0.649802	0.010347	0.001910	-0.010195	-0.901123	-0.197510	0.473633	-0.133061	-0.676948	0.092094	-0.718021
07784		9.791387	0.438079	0.631190	0.013131	0.004323	-0.010735	-0.902588	-0.207275	0.471680	-0.132889	-0.676931	0.091992	-0.718083
07785		9.782080	0.473908	0.619883	0.001283	0.002274	-0.009277	-0.897461	-0.214600	0.469971	-0.132859	-0.676902	0.092044	-0.718108
07786		9.797180	0.411148	0.635340	-0.010220	0.001604	-0.009159	-0.897217	-0.207520	0.476807	-0.132971	-0.676864	0.092225	-0.718101
07787		9.790169	0.332745	0.655607	-0.000700	0.003481	-0.011245	-0.897705	-0.209717	0.470215	-0.132970	-0.676847	0.092262	-0.718112
07788		9.798841	0.397668	0.622222	-0.000073	0.001417	-0.014169	-0.896973	-0.206055	0.469482	-0.133014	-0.676834	0.092296	-0.718112
07789		9.801874	0.368111	0.646867	-0.004593	-0.000196	-0.016517	-0.894043	-0.213379	0.472412	-0.133097	-0.676829	0.092344	-0.718095
07790		9.804651	0.402305	0.640552	0.005455	-0.000695	-0.016758	-0.899170	-0.208740	0.477295	-0.133131	-0.676859	0.092314	-0.718064
07791		9.798194	0.469981	0.621983	-0.000170	-0.001833	-0.018095	-0.899170	-0.208496	0.475342	-0.133184	-0.676898	0.092299	-0.718020
07792		9.782204	0.451785	0.675558	-0.010116	0.000715	-0.015812	-0.899170	-0.213867	0.473877	-0.133306	-0.676888	0.092393	-0.717994
07793		9.777254	0.330181	0.634677	-0.000658	-0.000758	-0.013795	-0.902100	-0.212158	0.474121	-0.133358	-0.676901	0.092440	-0.717966
07794		9.802033	0.408423	0.639297	0.009828	0.001916	-0.015803	-0.899414	-0.208496	0.476562	-0.133331	-0.676906	0.092367	-0.717976
07795		9.775348	0.469366	0.627107	-0.001317	0.001684	-0.016428	-0.893799	-0.209229	0.463623	-0.133381	-0.676907	0.092371	-0.717966
07796		9.810701	0.414717	0.636916	-0.004997	0.002381	-0.015129	-0.907715	-0.204834	0.473145	-0.133486	-0.676863	0.092451	-0.717977
07797		9.794437	0.402635	0.629620	0.004441	0.001569	-0.016190	-0.902100	-0.211670	0.470947	-0.133464	-0.676852	0.092401	-0.717997
07798		9.793052	0.446011	0.637397	0.009441	0.003582	-0.013803	-0.896729	-0.212646	0.477783	-0.133428	-0.676830	0.092350	-0.718031
07799		9.793702	0.469785	0.631181	0.002940	0.004900	-0.011299	-0.899658	-0.208740	0.483398	-0.133420	-0.676811	0.092364	-0.718049
07800		9.781490	0.447144	0.610857	-0.008407	0.002016	-0.011674	-0.898926	-0.211670	0.468750	-0.133474	-0.676812	0.092454	-0.718027
07801		9.799601	0.443467	0.635625	-0.016614	0.002282	-0.010852	-0.895020	-0.202393	0.472900	-0.133635	-0.676753	0.092669	-0.718024
07802		9.784498	0.418824	0.636998	-0.013712	0.004639	-0.010612	-0.897705	-0.200439	0.479248	-0.133716	-0.676697	0.092814	-0.718044
07803		9.798516	0.399186	0.629909	-0.013620	0.006422	-0.011042	-0.896240	-0.205566	0.471680	-0.133776	-0.676641	0.092928	-0.718071
07804		9.785338	0.384209	0.632949	-0.010562	0.006596	-0.011291	-0.896729	-0.212402	0.475342	-0.133856	-0.676568	0.093048	-0.718108
07805		9.797248	0.384115	0.640380	-0.011663	0.005605	-0.014636	-0.897461	-0.204834	0.474365	-0.134002	-0.676518	0.093164	-0.718114
07806		9.778075	0.369788	0.655520	-0.003076	0.005149	-0.013114	-0.895508	-0.206787	0.465332	-0.134021	-0.676480	0.093193	-0.718142
07807		9.797761	0.408028	0.666577	0.006600	0.005147	-0.013206	-0.897705	-0.203857	0.471436	-0.133990	-0.676436	0.093163	-0.718193
07808		9.795584	0.401866	0.667037	0.010360	0.007434	-0.013058	-0.904297	-0.204590	0.467041	-0.133898	-0.676392	0.093071	-0.718263
07809		9.791979	0.438631	0.643638	0.002979	0.001598	-0.014457	-0.894531	-0.209961	0.479004	-0.133885	-0.676369	0.093058	-0.718290
07810		9.776132	0.394419	0.651646	-0.001204	0.002816	-0.013805	-0.898926	-0.205322	0.476807	-0.133910	-0.676375	0.093073	-0.718277
07811		9.772201	0.375556	0.681284	0.009172	0.004932	-0.013502	-0.898193	-0.214355	0.474121	-0.133825	-0.676367	0.092983	-0.718313
07812		9.784451	0.431544	0.634762	0.014231	0.002718	-0.013650	-0.899414	-0.199951	0.477295	-0.133752	-0.676380	0.092889	-0.718326
07813		9.796297	0.457134	0.686884	0.014285	-0.000053	-0.011840	-0.899902	-0.216309	0.467285	-0.133574	-0.676424	0.092756	-0.718335
07814		9.786215	0.444352	0.666234	0.011869	-0.002023	-0.012047	-0.901855	-0.209473	0.473145	-0.133527	-0.676451	0.092732	-0.718321
07815		9.798768	0.387130	0.641063	0.015254	0.001006	-0.009284	-0.901611	-0.216553	0.470459	-0.133380	-0.676467	0.092656	-0.718343
07816		9.781625	0.465952	0.618019	0.007037	0.000708	-0.013429	-0.900635	-0.212646	0.472412	-0.133385	-0.676470	0.092653	-0.718340
07817		9.786863	0.445253	0.643414	-0.000147	-0.001027	-0.010711	-0.894043	-0.209229	0.476074	-0.133399	-0.676480	0.092721	-0.718319
07818		9.786135	0.424096	0.681090	0.005236	-0.000659	-0.010329	-0.902588	-0.211914	0.469971	-0.133343	-0.676515	0.092722	-0.718296
07819		9.783589	0.451819	0.633935	0.000696	0.000097	-0.008932	-0.909424	-0.209229	0.469238	-0.133337	-0.676504	0.092800	-0.718297
07820		9.789922	0.422396	0.636858	-0.010929	-0.000572	-0.009604	-0.901123	-0.207520	0.478271	-0.133417	-0.676470	0.092968	-0.718294
07821		9.794059	0.412058	0.654133	-0.010198	-0.000579	-0.010484	-0.896240	-0.206543	0.469727	-0.133476	-0.676475	0.093095	-0.718262
07822		9.784038	0.398382	0.633806	-0.001128	-0.000619	-0.008920	-0.891357	-0.209961	0.475342	-0.133459	-0.676476	0.093170	-0.718254
07823		9.791999	0.407170	0.652686	0.001105	-0.002485	-0.010345	-0.889404	-0.211182	0.474609	-0.133444	-0.676522	0.093216	-0.718207
07824		9.807435	0.376701	0.652248	-0.000331	0.002081	-0.010835	-0.892090	-0.208252	0.472168	-0.133460	-0.676525	0.093270	-0.718194
07825		9.787252	0.373029	0.658279	0.003224	0.001463	-0.012922	-0.899658	-0.212891	0.468506	-0.133452	-0.676532	0.093270	-0.718189
07826		9.793806	0.397316	0.638947	0.007133	0.001304	-0.015752	-0.903564	-0.207031	0.471924	-0.133464	-0.676529	0.093238	-0.718194
07827		9.785959	0.443577	0.628119	0.008123	0.001442	-0.012583	-0.899414	-0.210449	0.468506	-0.133399	-0.676527	0.093192	-0.718213
07828		9.784621	0.457654	0.620149	0.001653	0.000613	-0.011347	-0.904053	-0.210205	0.474609	-0.133404	-0.676517	0.093239	-0.718216
07829		9.789947	0.436487	0.645778	0.002517	0.000817	-0.008958	-0.899658	-0.203613	0.482178	-0.133365	-0.676514	0.093281	-0.718221
07830		9.795852	0.438732	0.633448	0.003020	0.000289	-0.008312	-0.903809	-0.204346	0.471924	-0.133268	-0.676543	0.093284	-0.718212
07831		9.786674	0.442189	0.636877	0.000069	0.000962	-0.007888	-0.897705	-0.214111	0.474609	-0.133216	-0.676526	0.093341	-0.718230
07832		9.794979	0.422090	0.640985	-0.004456	0.000513	-0.008369	-0.901367	-0.207764	0.473877	-0.133257	-0.676522	0.093469	-0.718209
07833		9.778965	0.407801	0.633887	-0.007842	0.004694	-0.007142	-0.900146	-0.202881	0.470947	-0.133285	-0.676466	0.093607	-0.718238
07834		9.792162	0.395675	0.649051	-0.008330	0.004025	-0.009671	-0.894531	-0.208984	0.473389	-0.133321	-0.676413	0.093716	-0.718268
07835		9.785200	0.380238	0.639102	-0.004055	0.004875	-0.008271	-0.901123	-0.214355	0.477539	-0.133339	-0.676372	0.093816	-0.718290
07836		9.793484	0.360263	0.643897	0.003586	0.002470	-0.008704	-0.895020	-0.207764	0.473389	-0.133310	-0.676369	0.093859	-0.718293
07837		9.803737	0.402348	0.627060	0.001826	0.004455	-0.009728	-0.897217	-0.199463	0.476074	-0.133284	-0.676343	0.093890	-0.718318
07838		9.795140	0.426853	0.624127	-0.007705	0.003157	-0.010734	-0.902100	-0.206299	0.480469	-0.133298	-0.676319	0.093962	-0.718328
07839		9.794459	0.405180	0.662957	-0.000851	0.004075	-0.007131	-0.900146	-0.199219	0.475830	-0.133246	-0.676299	0.094018	-0.718349
07840		9.788954	0.427223	0.669186	0.009687	0.004319	-0.004831	-0.901855	-0.216064	0.471191	-0.133059	-0.676282	0.093981	-0.718404
07841		9.780425	0.450292	0.665900	-0.000403	0.001114	-0.002959	-0.903564	-0.211426	0.471924	-0.133034	-0.676260	0.094133	-0.718410
07842		9.785448	0.384452	0.622273	-0.009009	0.002724	-0.002611	-0.891357	-0.209717	0.471436	-0.133054	-0.676209	0.094343	-0.718427
07843		9.785668	0.430510	0.662158	0.005531	0.005146	0.001408	-0.904541	-0.211914	0.473633	-0.132918	-0.676171	0.094447	-0.718475
07844		9.784747	0.360935	0.662547	-0.018142	0.005784	-0.003521	-0.892578	-0.200684	0.477783	-0.133028	-0.676082	0.094725	-0.718501
07845		9.790367	0.316005	0.612704	-0.002103	0.005805	-0.005021	-0.899170	-0.209473	0.470703	-0.132956	-0.676049	0.094795	-0.718536
07846		9.789890	0.395305	0.637975	-0.004854	0.007648	-0.009223	-0.893311	-0.207764	0.478516	-0.133003	-0.675973	0.094900	-0.718586
07847		9.785960	0.378542	0.638182	-0.010659	0.009573	-0.010695	-0.897949	-0.208252	0.471191	-0.133094	-0.675900	0.095018	-0.718621
07848		9.775544	0.390117	0.665694	-0.006968	0.003423	-0.009138	-0.899658	-0.204102	0.463379	-0.133146	-0.675862	0.095143	-0.718631
07849		9.802723	0.384829	0.687836	-0.005442	0.006393	-0.009446	-0.903809	-0.208740	0.470947	-0.133184	-0.675778	0.095247	-0.718689
07850		9.797028	0.410796	0.664053	-0.008145	0.006661	-0.009949	-0.890381	-0.207764	0.469971	-0.133257	-0.675702	0.095371	-0.718731
07851		9.790733	0.415676	0.647367	-0.010192	0.005685	-0.005921	-0.893799	-0.208008	0.470703	-0.133312	-0.675643	0.095549	-0.718752
07852		9.798153	0.500759	0.691008	-0.021662	-0.001761	-0.004859	-0.901855	-0.213867	0.468262	-0.133444	-0.675628	0.095849	-0.718702
07853		9.786958	0.345808	0.668164	-0.024341	-0.002147	-0.002269	-0.899170	-0.204590	0.471680	-0.133603	-0.675592	0.096222	-0.718656
07854		9.786430	0.374270	0.683574	-0.007856	0.000673	0.000062	-0.902100	-0.210938	0.477783	-0.133554	-0.675568	0.096418	-0.718662
07855		9.790543	0.368094	0.639670	-0.014226	0.000416	-0.001029	-0.897217	-0.201172	0.460938	-0.133588	-0.675549	0.096675	-0.718638
07856		9.806817	0.356112	0.633061	-0.014613	0.006359	-0.003750	-0.894287	-0.202637	0.465576	-0.133641	-0.675443	0.096899	-0.718699
07857		9.797586	0.306027	0.660220	-0.015453	0.005234	-0.005544	-0.892334	-0.207275	0.476807	-0.133717	-0.675363	0.097114	-0.718730
07858		9.797418	0.307607	0.661985	-0.001571	0.008646	-0.008505	-0.897705	-0.201172	0.475098	-0.133709	-0.675313	0.097169	-0.718772
07859		9.789326	0.352161	0.653328	0.006369	0.010027	-0.006501	-0.904541	-0.207520	0.467529	-0.133587	-0.675250	0.097147	-0.718857
07860		9.805578	0.387310	0.687006	-0.002281	0.007723	-0.007024	-0.898682	-0.205811	0.469482	-0.133585	-0.675165	0.097242	-0.718924
07861		9.786555	0.374438	0.671552	-0.000266	0.005342	-0.006918	-0.894775	-0.202881	0.475342	-0.133552	-0.675118	0.097313	-0.718964
07862		9.801554	0.374726	0.657187	-0.004916	0.005216	-0.005710	-0.899902	-0.202393	0.466309	-0.133524	-0.675084	0.097413	-0.718988
07863		9.790488	0.367899	0.660845	-0.014241	0.005620	-0.006394	-0.895020	-0.206787	0.470215	-0.133594	-0.675002	0.097608	-0.719025
07864		9.799415	0.368123	0.659227	-0.008274	0.007000	-0.008261	-0.896729	-0.202637	0.474609	-0.133648	-0.674937	0.097739	-0.719059
07865		9.779234	0.362955	0.666259	-0.010301	0.004823	-0.006121	-0.905518	-0.203369	0.474854	-0.133667	-0.674895	0.097885	-0.719075
07866		9.783973	0.319829	0.700349	-0.006453	0.007993	-0.005779	-0.900879	-0.210693	0.475342	-0.133654	-0.674820	0.097994	-0.719133
07867		9.792280	0.351710	0.683419	-0.001710	0.004156	-0.007050	-0.899658	-0.209229	0.467285	-0.133645	-0.674797	0.098084	-0.719144
07868		9.786062	0.356400	0.666301	-0.008103	0.005085	-0.006268	-0.900391	-0.203125	0.468506	-0.133693	-0.674734	0.098248	-0.719171
07869		9.781057	0.346653	0.688460	-0.011232	0.007662	-0.007857	-0.903076	-0.209961	0.469971	-0.133753	-0.674648	0.098397	-0.719220
07870		9.793624	0.317054	0.680902	-0.008071	0.008718	-0.007914	-0.907471	-0.204102	0.464844	-0.133816	-0.674559	0.098537	-0.719273
07871		9.781897	0.342349	0.669558	-0.004769	0.003960	-0.006820	-0.899170	-0.207520	0.468506	-0.133815	-0.674499	0.098652	-0.719314
07872		9.799384	0.320857	0.671256	-0.013134	0.004884	-0.009924	-0.904541	-0.203125	0.469971	-0.133927	-0.674440	0.098820	-0.719325
07873		9.791252	0.365602	0.661922	-0.002516	0.006933	-0.007997	-0.899658	-0.204834	0.470459	-0.133907	-0.674376	0.098885	-0.719380
07874		9.795891	0.372189	0.704508	-0.014271	0.006270	-0.009524	-0.900635	-0.204834	0.467041	-0.134009	-0.674308	0.099050	-0.719402
07875		9.781202	0.350301	0.675564	-0.014146	0.006204	-0.008741	-0.898193	-0.201660	0.466797	-0.134108	-0.674230	0.099227	-0.719432
07876		9.798057	0.353704	0.722923	-0.021894	-0.002853	-0.008413	-0.903809	-0.204590	0.466309	-0.134243	-0.674224	0.099479	-0.719378
07877		9.773852	0.312076	0.702599	-0.022244	0.001508	-0.007430	-0.904053	-0.205322	0.468994	-0.134390	-0.674168	0.099746	-0.719366
07878		9.806496	0.338074	0.696221	-0.005511	-0.000861	-0.006197	-0.903564	-0.205566	0.473877	-0.134379	-0.674167	0.099873	-0.719352
07879		9.786297	0.385216	0.679522	-0.015826	-0.000340	-0.007602	-0.902832	-0.206299	0.469971	-0.134461	-0.674159	0.100071	-0.719317
07880		9.796165	0.304313	0.683350	-0.019490	0.004215	-0.005464	-0.911621	-0.200928	0.467529	-0.134571	-0.674091	0.100323	-0.719324
07881		9.794784	0.313464	0.707112	-0.010792	0.004159	-0.008690	-0.898438	-0.203613	0.466309	-0.134612	-0.674026	0.100454	-0.719359
07882		9.779281	0.368829	0.702029	-0.016709	0.005474	-0.007879	-0.900635	-0.204834	0.472412	-0.134717	-0.673953	0.100655	-0.719380
07883		9.798108	0.339065	0.680869	-0.021872	0.001301	-0.005096	-0.896240	-0.203369	0.463867	-0.134827	-0.673918	0.100924	-0.719354
07884		9.800499	0.314102	0.728477	-0.014462	0.004150	-0.004312	-0.897217	-0.200195	0.476074	-0.134882	-0.673853	0.101140	-0.719375
07885		9.789846	0.383506	0.672499	-0.017471	0.006658	-0.005122	-0.901855	-0.208984	0.463379	-0.134933	-0.673791	0.101334	-0.719395
07886		9.782534	0.346341	0.670295	-0.032874	0.009346	-0.006435	-0.896973	-0.209717	0.464600	-0.135194	-0.673644	0.101709	-0.719432
07887		9.789099	0.315753	0.675824	-0.030752	0.012651	-0.005901	-0.901855	-0.208008	0.460938	-0.135437	-0.673479	0.102062	-0.719490
07888		9.781842	0.222726	0.727512	-0.023468	0.015311	-0.008394	-0.908203	-0.202393	0.470459	-0.135641	-0.673292	0.102325	-0.719589
07889		9.785173	0.246920	0.702255	-0.000147	0.010126	-0.005874	-0.902100	-0.206055	0.463867	-0.135570	-0.673206	0.102365	-0.719678
07890		9.779733	0.338948	0.710939	-0.009704	-0.000186	-0.010592	-0.903564	-0.207031	0.462891	-0.135641	-0.673194	0.102497	-0.719657
07891		9.789002	0.287333	0.729223	-0.014663	-0.002907	-0.009957	-0.902100	-0.201904	0.467773	-0.135751	-0.673193	0.102689	-0.719610
07892		9.795577	0.310433	0.709607	0.003548	-0.000167	-0.007666	-0.903320	-0.202881	0.463867	-0.135656	-0.673209	0.102702	-0.719611
07893		9.788657	0.343880	0.707346	0.010098	0.002752	-0.006770	-0.898682	-0.203369	0.460693	-0.135515	-0.673197	0.102672	-0.719652
07894		9.778690	0.375107	0.726216	-0.003965	-0.003625	-0.006159	-0.905273	-0.212646	0.462646	-0.135491	-0.673216	0.102794	-0.719622
07895		9.787261	0.287907	0.695140	-0.003203	-0.013679	-0.001950	-0.910889	-0.209717	0.463623	-0.135446	-0.673318	0.102990	-0.719507
07896		9.775663	0.238684	0.706899	0.014508	-0.020049	-0.000835	-0.908447	-0.208496	0.464600	-0.135219	-0.673500	0.103036	-0.719373
07897		9.797421	0.308497	0.676694	0.024975	-0.012421	-0.002498	-0.898438	-0.208496	0.478271	-0.134924	-0.673637	0.102957	-0.719311
07898		9.784114	0.320020	0.691223	0.007845	-0.004796	-0.003379	-0.901855	-0.204590	0.469238	-0.134769	-0.673723	0.102984	-0.719255
07899		9.798364	0.279286	0.688114	-0.003436	-0.005601	-0.009896	-0.900146	-0.202637	0.464111	-0.134767	-0.673779	0.103067	-0.719192
07900		9.805359	0.323477	0.661600	-0.001950	0.003126	-0.010529	-0.901367	-0.206787	0.464355	-0.134773	-0.673748	0.103120	-0.719212
07901		9.806574	0.381132	0.703868	-0.016729	0.009765	-0.012646	-0.901367	-0.208008	0.472900	-0.134948	-0.673635	0.103291	-0.719260
07902		9.791469	0.342956	0.651869	-0.023712	0.009412	-0.012122	-0.900879	-0.204346	0.461914	-0.135164	-0.673535	0.103515	-0.719282
07903		9.774698	0.283829	0.689521	-0.027372	-0.000258	-0.008265	-0.905273	-0.212646	0.465332	-0.135367	-0.673484	0.103828	-0.719246
07904		9.789774	0.211270	0.701984	-0.010188	-0.005159	-0.008412	-0.892822	-0.204834	0.472412	-0.135449	-0.673510	0.104015	-0.719179
07905		9.801153	0.242135	0.691632	0.004437	-0.005973	-0.007420	-0.895020	-0.203857	0.477051	-0.135350	-0.673599	0.104038	-0.719111
07906		9.808041	0.217120	0.662984	0.006397	0.002386	-0.015502	-0.903809	-0.210205	0.466064	-0.135306	-0.673635	0.103949	-0.719098
07907		9.794520	0.301079	0.681992	0.006350	-0.000327	-0.014477	-0.903809	-0.205078	0.469727	-0.135298	-0.673656	0.103920	-0.719084
07908		9.796510	0.196447	0.672773	-0.002895	0.004948	-0.022276	-0.901855	-0.202881	0.466309	-0.135415	-0.673633	0.103874	-0.719091
07909		9.797606	0.263942	0.653210	0.018963	0.004369	-0.020242	-0.895752	-0.211426	0.469482	-0.135325	-0.673644	0.103648	-0.719130
07910		9.779477	0.358736	0.686570	0.008131	0.005385	-0.022337	-0.904053	-0.204590	0.461426	-0.135379	-0.673645	0.103523	-0.719137
07911		9.809263	0.268784	0.692356	-0.006396	0.006781	-0.025654	-0.897949	-0.205322	0.465820	-0.135571	-0.673583	0.103491	-0.719163
07912		9.801018	0.334510	0.707320	0.017633	0.007680	-0.021854	-0.902100	-0.207764	0.463379	-0.135522	-0.673568	0.103265	-0.719219
07913		9.795965	0.332427	0.698559	0.008733	0.005458	-0.024024	-0.898438	-0.207275	0.466797	-0.135578	-0.673550	0.103118	-0.719247
07914		9.790531	0.313415	0.666561	0.008304	0.011667	-0.024246	-0.906006	-0.203125	0.472412	-0.135639	-0.673488	0.102953	-0.719317
07915		9.794875	0.323602	0.709918	0.006189	0.008610	-0.022299	-0.904541	-0.205078	0.468506	-0.135664	-0.673453	0.102802	-0.719367
07916		9.789858	0.324768	0.670987	-0.001398	0.007904	-0.022612	-0.894775	-0.211426	0.482178	-0.135770	-0.673404	0.102732	-0.719403
07917		9.786426	0.324734	0.725200	-0.005828	0.008273	-0.022965	-0.898926	-0.202148	0.465332	-0.135918	-0.673390	0.102688	-0.719394
07918		9.790513	0.320792	0.713858	0.001754	0.009240	-0.020154	-0.897705	-0.205322	0.463379	-0.135970	-0.673331	0.102602	-0.719452
07919		9.789815	0.399391	0.686947	-0.006121	0.005692	-0.023524	-0.902100	-0.204590	0.466797	-0.136130	-0.673292	0.102578	-0.719461
07920		9.760969	0.332551	0.664188	-0.028372	0.003281	-0.021304	-0.904541	-0.209717	0.466797	-0.136442	-0.673237	0.102765	-0.719427
07921		9.789973	0.353305	0.741380	-0.026688	0.000191	-0.022969	-0.900635	-0.202637	0.467041	-0.136770	-0.673213	0.102944	-0.719362
07922		9.783427	0.339953	0.730599	-0.010823	0.003590	-0.013792	-0.903320	-0.208008	0.458984	-0.136854	-0.673178	0.103025	-0.719366
07923		9.789411	0.346920	0.688505	-0.003336	0.003707	-0.011149	-0.898438	-0.215088	0.469971	-0.136890	-0.673130	0.103095	-0.719395
07924		9.789263	0.349392	0.689357	-0.009808	0.002792	-0.009975	-0.899414	-0.201660	0.469727	-0.136975	-0.673110	0.103232	-0.719377
07925		9.782158	0.289110	0.723566	-0.012262	0.006540	-0.010565	-0.900146	-0.216553	0.463867	-0.137034	-0.673051	0.103338	-0.719406
07926		9.791675	0.331612	0.707911	-0.007865	0.003466	-0.009180	-0.904297	-0.206787	0.468750	-0.137115	-0.673011	0.103479	-0.719408
07927		9.782393	0.334935	0.712126	-0.016344	0.003727	-0.010026	-0.896240	-0.207031	0.468750	-0.137222	-0.672963	0.103649	-0.719408
07928		9.775862	0.315917	0.732475	-0.010480	0.004569	-0.009530	-0.903076	-0.205811	0.463379	-0.137277	-0.672926	0.103767	-0.719415
07929		9.803444	0.339076	0.686384	-0.014751	0.003677	-0.011000	-0.904297	-0.210205	0.464355	-0.137386	-0.672870	0.103922	-0.719424
07930		9.793682	0.301201	0.703759	-0.022209	-0.001013	-0.011412	-0.897461	-0.209473	0.467285	-0.137571	-0.672847	0.104159	-0.719377
07931		9.777660	0.246009	0.709347	-0.008056	0.001496	-0.012071	-0.901123	-0.208496	0.469238	-0.137635	-0.672841	0.104248	-0.719357
07932		9.797649	0.273104	0.728281	0.009733	0.001854	-0.011065	-0.896240	-0.209229	0.471680	-0.137533	-0.672861	0.104178	-0.719368
07933		9.780178	0.361555	0.707958	0.009446	0.002917	-0.013261	-0.905029	-0.213135	0.461914	-0.137452	-0.672886	0.104087	-0.719373
07934		9.787002	0.444318	0.699330	-0.013411	0.000118	-0.011922	-0.903076	-0.206299	0.461670	-0.137586	-0.672861	0.104252	-0.719347
07935		9.779883	0.363215	0.739066	-0.027728	-0.001152	-0.010162	-0.901855	-0.212158	0.467041	-0.137794	-0.672822	0.104543	-0.719301
07936		9.786989	0.316327	0.717328	-0.019313	-0.002937	-0.006376	-0.903809	-0.208008	0.465088	-0.137906	-0.672823	0.104796	-0.719242
07937		9.793044	0.314288	0.735077	-0.017975	-0.002593	-0.006418	-0.895264	-0.208496	0.467773	-0.137995	-0.672817	0.105028	-0.719197
07938		9.799168	0.315700	0.722166	-0.008635	-0.002648	-0.003135	-0.902344	-0.213867	0.466309	-0.137971	-0.672839	0.105197	-0.719156
07939		9.782807	0.352732	0.691529	-0.015551	-0.005159	-0.003930	-0.909180	-0.206055	0.460449	-0.138034	-0.672861	0.105447	-0.719087
07940		9.786933	0.302813	0.690517	-0.021230	-0.004291	-0.004073	-0.896973	-0.208496	0.462158	-0.138130	-0.672843	0.105738	-0.719042
07941		9.800716	0.306384	0.727463	-0.021137	-0.003432	-0.003893	-0.906982	-0.211182	0.459717	-0.138230	-0.672836	0.106028	-0.718987
07942		9.777250	0.243047	0.712578	-0.010231	-0.002854	-0.004693	-0.906494	-0.205078	0.465576	-0.138262	-0.672826	0.106228	-0.718961
07943		9.777695	0.285689	0.698003	-0.008023	-0.006459	-0.005697	-0.901611	-0.209473	0.462891	-0.138243	-0.672868	0.106375	-0.718903
07944		9.777727	0.283251	0.727173	-0.010863	-0.006151	-0.007027	-0.906006	-0.204590	0.463623	-0.138284	-0.672903	0.106554	-0.718836
07945		9.777604	0.264283	0.732346	-0.002855	-0.007047	-0.008733	-0.895264	-0.207031	0.476074	-0.138251	-0.672958	0.106634	-0.718779
07946		9.797562	0.273489	0.725438	0.005468	-0.006046	-0.006755	-0.898438	-0.207520	0.467773	-0.138113	-0.673058	0.106629	-0.718713
07947		9.784037	0.293272	0.679239	0.002824	-0.007913	-0.008595	-0.903076	-0.205322	0.465820	-0.138034	-0.673149	0.106658	-0.718639
07948		9.788429	0.262118	0.700805	0.006209	-0.010175	-0.011039	-0.898438	-0.209473	0.460205	-0.137942	-0.673258	0.106642	-0.718557
07949		9.794586	0.265488	0.686441	0.009611	-0.005578	-0.011111	-0.895264	-0.206055	0.468506	-0.137859	-0.673323	0.106612	-0.718516
07950		9.790085	0.281457	0.668260	0.015280	-0.002798	-0.012612	-0.903809	-0.214355	0.476562	-0.137714	-0.673397	0.106483	-0.718493
07951		9.785862	0.335387	0.667338	0.008458	-0.004457	-0.013224	-0.897461	-0.208252	0.460449	-0.137644	-0.673485	0.106419	-0.718434
07952		9.808817	0.340211	0.700068	-0.000203	-0.009330	-0.010301	-0.904053	-0.199219	0.462158	-0.137629	-0.673565	0.106489	-0.718351
07953		9.788619	0.276831	0.692448	0.001972	-0.011755	-0.009399	-0.906250	-0.202393	0.472168	-0.137546	-0.673666	0.106524	-0.718267
07954		9.778145	0.287622	0.716145	0.011365	-0.006366	-0.008174	-0.906738	-0.214844	0.469971	-0.137370	-0.673753	0.106462	-0.718228
07955		9.787285	0.292801	0.680672	0.007406	-0.005869	-0.011002	-0.907715	-0.209961	0.459473	-0.137309	-0.673826	0.106451	-0.718173
07956		9.800957	0.285457	0.661933	0.002250	-0.009431	-0.011363	-0.890137	-0.211914	0.466309	-0.137297	-0.673897	0.106505	-0.718101
07957		9.791547	0.227343	0.683465	0.012349	-0.006992	-0.012515	-0.901855	-0.203613	0.462646	-0.137204	-0.674001	0.106435	-0.718032
07958		9.788920	0.315115	0.645655	0.018052	-0.004882	-0.010899	-0.902588	-0.204834	0.468750	-0.137029	-0.674070	0.106316	-0.718018
07959		9.776883	0.338104	0.661938	0.007599	-0.008300	-0.014043	-0.903564	-0.201904	0.463135	-0.136959	-0.674169	0.106260	-0.717947
07960		9.806960	0.232849	0.693102	0.006389	-0.008716	-0.013213	-0.899414	-0.208008	0.472900	-0.136893	-0.674253	0.106230	-0.717884
07961		9.794972	0.280564	0.671507	0.025389	-0.007884	-0.013066	-0.900391	-0.206055	0.476074	-0.136668	-0.674390	0.106021	-0.717830
07962		9.798076	0.306990	0.640961	0.015602	-0.008933	-0.013264	-0.898682	-0.213135	0.474121	-0.136512	-0.674524	0.105888	-0.717753
07963		9.793415	0.281884	0.635089	0.003359	-0.010142	-0.014916	-0.896973	-0.206543	0.467529	-0.136506	-0.674647	0.105878	-0.717640
07964		9.808734	0.236348	0.692258	0.016604	-0.006594	-0.016122	-0.899902	-0.206055	0.460449	-0.136395	-0.674748	0.105731	-0.717588
07965		9.799573	0.266413	0.655830	0.031949	-0.010221	-0.017506	-0.895264	-0.206543	0.462158	-0.136179	-0.674890	0.105461	-0.717536
07966		9.796634	0.334987	0.623287	0.017638	-0.011799	-0.018228	-0.894775	-0.205566	0.472412	-0.136087	-0.675030	0.105312	-0.717443
07967		9.790561	0.297911	0.646669	0.012266	-0.009556	-0.019709	-0.900391	-0.207031	0.465088	-0.136029	-0.675166	0.105167	-0.717347
