// Start Time: Unknown
// Update Rate: 40.0Hz
// Filter Profile: human (46.1)
// Firmware Version: 4.6.0
PacketCounter	SampleTimeFine	Acc_X	Acc_Y	Acc_Z	Gyr_X	Gyr_Y	Gyr_Z	Mag_X	Mag_Y	Mag_Z	Quat_q0	Quat_q1	Quat_q2	Quat_q3
07338		9.648576	-0.298967	-1.677180	-0.009188	0.000510	0.002514	-0.763672	0.509277	0.263184	0.396772	-0.616918	-0.452772	-0.506933
07339		9.644729	-0.276426	-1.683940	-0.000865	0.002658	-0.001067	-0.759521	0.502441	0.265381	0.396774	-0.616900	-0.452761	-0.506964
07340		9.623025	-0.282683	-1.665184	0.004766	-0.001240	-0.000702	-0.764160	0.504883	0.261719	0.396743	-0.616919	-0.452812	-0.506920
07341		9.624930	-0.308800	-1.707918	0.003621	-0.000620	0.001809	-0.757080	0.504395	0.254639	0.396783	-0.616911	-0.452824	-0.506887
07342		9.639323	-0.295866	-1.686555	-0.001403	-0.001228	0.003012	-0.758301	0.498779	0.260254	0.396844	-0.616899	-0.452791	-0.506884
07343		9.627927	-0.267809	-1.644098	-0.002601	-0.000945	0.001179	-0.760010	0.511963	0.259766	0.396816	-0.616932	-0.452773	-0.506882
07344		9.635005	-0.276274	-1.674930	-0.010127	-0.001780	0.001755	-0.755615	0.508789	0.249268	0.396769	-0.616977	-0.452702	-0.506926
07345		9.637596	-0.338713	-1.672902	-0.007798	0.001624	0.001348	-0.757568	0.510742	0.266846	0.396835	-0.616924	-0.452626	-0.507007
07346		9.639881	-0.332109	-1.652875	0.002250	-0.006004	0.002088	-0.760742	0.507324	0.271973	0.396793	-0.616994	-0.452658	-0.506927
07347		9.660056	-0.295688	-1.668659	0.003973	-0.002515	0.001688	-0.761475	0.515381	0.254395	0.396738	-0.617060	-0.452689	-0.506861
07348		9.646891	-0.269760	-1.685235	0.010808	0.002222	-0.000494	-0.762695	0.517578	0.266846	0.396930	-0.616929	-0.452731	-0.506834
07349		9.646989	-0.270106	-1.684619	0.004052	0.002472	0.000767	-0.753418	0.508057	0.258301	0.396985	-0.616923	-0.452725	-0.506803
07350		9.639388	-0.295620	-1.706804	-0.000691	0.003903	-0.001606	-0.766846	0.506836	0.262451	0.396982	-0.616849	-0.452737	-0.506884
07351		9.633835	-0.317718	-1.678894	0.004568	0.006168	-0.000236	-0.755127	0.497559	0.258789	0.397021	-0.616759	-0.452763	-0.506940
07352		9.631729	-0.324928	-1.697810	0.004728	0.007298	0.001070	-0.755371	0.505371	0.261475	0.397047	-0.616657	-0.452792	-0.507018
07353		9.630477	-0.295723	-1.682803	0.008127	0.005134	-0.001540	-0.764160	0.513916	0.267822	0.397106	-0.616587	-0.452838	-0.507016
07354		9.640321	-0.297123	-1.690947	0.015394	0.008542	-0.003187	-0.756348	0.507568	0.254883	0.397230	-0.616495	-0.452905	-0.506972
07355		9.617728	-0.271922	-1.676070	0.018573	0.009175	-0.000680	-0.758057	0.518799	0.265137	0.397456	-0.616305	-0.452998	-0.506942
07356		9.618168	-0.271621	-1.683958	0.011812	0.004967	0.002769	-0.755371	0.507568	0.260742	0.397605	-0.616296	-0.453000	-0.506833
07357		9.636891	-0.279006	-1.673961	0.002493	0.000153	0.001860	-0.750977	0.507324	0.265625	0.397606	-0.616301	-0.453023	-0.506807
07358		9.634256	-0.289010	-1.674812	-0.002719	0.002610	0.003869	-0.762939	0.508057	0.262207	0.397554	-0.616373	-0.452973	-0.506804
07359		9.647132	-0.318326	-1.638373	-0.002353	0.000829	0.001906	-0.760742	0.511963	0.256104	0.397511	-0.616390	-0.452970	-0.506820
07360		9.623339	-0.329991	-1.659441	0.008877	0.001646	0.003184	-0.760742	0.511475	0.253418	0.397650	-0.616318	-0.453009	-0.506764
07361		9.627980	-0.318443	-1.608029	0.017619	0.002348	0.001987	-0.751953	0.510986	0.256348	0.397874	-0.616170	-0.453113	-0.506675
07362		9.648433	-0.282988	-1.622274	0.011365	0.001763	0.005660	-0.754639	0.519531	0.262207	0.398049	-0.616125	-0.453126	-0.506580
07363		9.662181	-0.235480	-1.635199	0.006539	0.002588	0.003243	-0.756348	0.513428	0.262695	0.398179	-0.616147	-0.453087	-0.506487
07364		9.639329	-0.281390	-1.630624	0.002746	0.001963	0.001972	-0.761475	0.516846	0.263916	0.398209	-0.616160	-0.453068	-0.506465
07365		9.640793	-0.312552	-1.633600	0.003005	0.003810	0.001468	-0.757568	0.506348	0.256348	0.398257	-0.616157	-0.453038	-0.506456
07366		9.646286	-0.364910	-1.639143	0.008211	0.001313	0.000078	-0.762207	0.507568	0.260254	0.398318	-0.616050	-0.453110	-0.506475
07367		9.630254	-0.351082	-1.637030	0.013370	0.002864	0.003258	-0.762207	0.510254	0.260498	0.398420	-0.615954	-0.453172	-0.506455
07368		9.629374	-0.318245	-1.662154	0.013383	-0.001444	0.002995	-0.754395	0.518066	0.258301	0.398514	-0.615899	-0.453242	-0.506386
07369		9.643706	-0.305771	-1.640966	0.011401	-0.002359	0.002322	-0.761963	0.513184	0.255859	0.398676	-0.615893	-0.453263	-0.506246
07370		9.640706	-0.317154	-1.633228	0.013495	-0.005038	0.000924	-0.752441	0.519287	0.261230	0.398806	-0.615810	-0.453370	-0.506149
07371		9.652551	-0.311485	-1.633376	0.008546	-0.005110	0.003391	-0.762695	0.508057	0.256104	0.398914	-0.615887	-0.453363	-0.505977
07372		9.651308	-0.350112	-1.658652	0.003100	-0.004311	0.002825	-0.757812	0.512207	0.255371	0.398926	-0.615840	-0.453409	-0.505983
07373		9.632677	-0.342727	-1.678570	0.006337	-0.003236	-0.002051	-0.756348	0.511475	0.254883	0.398993	-0.615775	-0.453477	-0.505949
07374		9.615234	-0.367178	-1.692418	0.022756	-0.005029	-0.000315	-0.756592	0.513916	0.264404	0.399188	-0.615652	-0.453645	-0.505795
07375		9.612309	-0.377716	-1.694682	0.031829	-0.006373	0.000836	-0.751465	0.518311	0.256592	0.399351	-0.615622	-0.453835	-0.505531
07376		9.616323	-0.327708	-1.709607	0.025509	-0.007408	0.002014	-0.755371	0.511963	0.254883	0.399617	-0.615594	-0.453964	-0.505239
07377		9.649082	-0.321817	-1.680358	0.016262	-0.007308	0.001409	-0.756104	0.515869	0.260498	0.399751	-0.615545	-0.454089	-0.505081
07378		9.633131	-0.304535	-1.709522	0.015755	-0.006512	-0.000396	-0.757324	0.508057	0.254395	0.399836	-0.615562	-0.454195	-0.504898
07379		9.639124	-0.320472	-1.683194	0.018181	-0.006815	-0.001032	-0.758301	0.509277	0.260986	0.399925	-0.615451	-0.454383	-0.504794
07380		9.628011	-0.359510	-1.679217	0.015399	-0.004653	0.000333	-0.754395	0.510986	0.259033	0.399926	-0.615435	-0.454514	-0.504694
07381		9.625235	-0.368803	-1.691148	0.018928	-0.005906	0.002726	-0.751221	0.513184	0.261475	0.400017	-0.615432	-0.454635	-0.504518
07382		9.650854	-0.313405	-1.715167	0.014444	-0.007052	0.001429	-0.758789	0.509277	0.258789	0.400048	-0.615519	-0.454709	-0.504319
07383		9.643556	-0.305493	-1.685635	0.009768	-0.000788	0.000563	-0.760742	0.512695	0.256104	0.400055	-0.615471	-0.454800	-0.504290
07384		9.631597	-0.312250	-1.685896	0.008221	0.005796	-0.002757	-0.762207	0.510254	0.255615	0.400143	-0.615332	-0.454872	-0.504324
07385		9.633429	-0.340492	-1.707610	0.000513	0.003656	-0.000406	-0.756592	0.513428	0.256592	0.400147	-0.615233	-0.454912	-0.504406
07386		9.620373	-0.385850	-1.721637	0.006400	0.006015	-0.002125	-0.763184	0.512695	0.260498	0.400230	-0.615156	-0.454939	-0.504410
07387		9.613618	-0.374864	-1.710165	0.016280	-0.002752	-0.002639	-0.762451	0.518311	0.260742	0.400244	-0.615093	-0.455099	-0.504332
07388		9.616964	-0.330126	-1.666269	0.014370	-0.003171	-0.001427	-0.754150	0.510498	0.265625	0.400314	-0.615088	-0.455197	-0.504194
07389		9.627155	-0.296486	-1.633370	0.008908	-0.002512	0.000467	-0.760742	0.517334	0.254639	0.400191	-0.615223	-0.455234	-0.504093
07390		9.643334	-0.310463	-1.644765	-0.007368	0.000275	0.002490	-0.760742	0.510254	0.261475	0.400234	-0.615236	-0.455165	-0.504105
07391		9.651481	-0.351842	-1.659470	-0.012008	-0.001976	-0.000722	-0.752686	0.515137	0.261475	0.400003	-0.615336	-0.455132	-0.504196
07392		9.645600	-0.372980	-1.633297	-0.004204	-0.003541	-0.003288	-0.758789	0.519043	0.256592	0.399890	-0.615484	-0.455090	-0.504143
07393		9.641159	-0.353297	-1.612461	-0.002410	-0.003970	-0.000227	-0.752686	0.509033	0.262939	0.399935	-0.615531	-0.455057	-0.504081
07394		9.652385	-0.311149	-1.647293	-0.010369	0.000906	-0.001174	-0.756836	0.509277	0.260498	0.399720	-0.615674	-0.454980	-0.504144
07395		9.657608	-0.293845	-1.625038	-0.008551	0.005066	-0.002786	-0.760498	0.517822	0.263916	0.399579	-0.615694	-0.454938	-0.504271
07396		9.634046	-0.302809	-1.655247	-0.006553	0.001710	-0.002982	-0.757324	0.520264	0.266357	0.399466	-0.615800	-0.454859	-0.504303
07397		9.632884	-0.340944	-1.669515	-0.011237	-0.000890	-0.000042	-0.757812	0.513916	0.258545	0.399315	-0.616042	-0.454692	-0.504278
07398		9.612999	-0.372840	-1.693597	-0.008290	-0.001881	-0.000720	-0.755615	0.511963	0.259033	0.399250	-0.616091	-0.454642	-0.504314
07399		9.617117	-0.391795	-1.716488	0.000876	-0.006962	0.000828	-0.759521	0.511230	0.265869	0.399214	-0.616147	-0.454667	-0.504250
07400		9.620904	-0.341808	-1.722412	0.017753	-0.009865	-0.000591	-0.765869	0.514648	0.257568	0.399146	-0.616199	-0.454837	-0.504087
07401		9.623113	-0.334402	-1.713328	0.018337	-0.005712	0.000885	-0.753174	0.510986	0.251221	0.399293	-0.616061	-0.455011	-0.503983
07402		9.618218	-0.318176	-1.673905	0.008497	-0.009838	0.000040	-0.763428	0.518799	0.256836	0.399433	-0.615980	-0.455127	-0.503867
07403		9.648959	-0.314101	-1.705214	0.003043	-0.013524	0.002304	-0.751709	0.517822	0.263184	0.399486	-0.616014	-0.455184	-0.503732
07404		9.652019	-0.340430	-1.671234	0.007015	-0.007205	0.000810	-0.749023	0.514648	0.259766	0.399497	-0.616176	-0.455171	-0.503536
07405		9.632877	-0.336630	-1.662443	0.004412	-0.003764	0.001012	-0.762939	0.504639	0.257812	0.399538	-0.616273	-0.455147	-0.503406
07406		9.618306	-0.349542	-1.694616	0.002954	-0.005336	-0.000311	-0.763428	0.507324	0.265381	0.399436	-0.616155	-0.455312	-0.503482
07407		9.623801	-0.327576	-1.722920	0.007115	-0.006463	-0.001616	-0.757568	0.515137	0.258545	0.399248	-0.616156	-0.455472	-0.503486
07408		9.635801	-0.319587	-1.732850	0.002009	-0.003252	-0.002041	-0.760254	0.521484	0.256592	0.399273	-0.616150	-0.455502	-0.503447
07409		9.655288	-0.360530	-1.688393	-0.017642	0.001852	0.000135	-0.762939	0.511963	0.262207	0.399295	-0.616205	-0.455333	-0.503514
07410		9.628724	-0.381328	-1.700372	-0.015399	0.004650	-0.000325	-0.762451	0.516846	0.265137	0.399127	-0.616235	-0.455251	-0.503685
07411		9.612942	-0.363282	-1.718170	-0.004712	-0.002714	-0.005705	-0.754395	0.510254	0.256592	0.398980	-0.616307	-0.455261	-0.503704
07412		9.622040	-0.367102	-1.699444	0.001057	-0.001236	-0.002542	-0.746094	0.514648	0.263916	0.399002	-0.616254	-0.455304	-0.503713
07413		9.622454	-0.362673	-1.738672	0.003367	-0.002423	0.001707	-0.755127	0.515137	0.263428	0.399002	-0.616440	-0.455227	-0.503555
07414		9.627497	-0.346515	-1.717432	0.000521	-0.000688	-0.000041	-0.756104	0.516357	0.260010	0.398975	-0.616527	-0.455192	-0.503501
07415		9.630277	-0.335548	-1.726270	0.002889	-0.001351	-0.005021	-0.756348	0.515625	0.267822	0.399003	-0.616522	-0.455219	-0.503461
07416		9.621941	-0.364795	-1.710644	-0.000404	-0.002843	-0.003250	-0.758057	0.517822	0.258301	0.398866	-0.616665	-0.455211	-0.503402
07417		9.621589	-0.366447	-1.691988	-0.002926	-0.003248	-0.000799	-0.753662	0.508301	0.261475	0.398909	-0.616688	-0.455179	-0.503368
07418		9.629603	-0.336877	-1.699309	0.000028	-0.004169	-0.002710	-0.762695	0.512451	0.260498	0.398807	-0.616714	-0.455240	-0.503362
07419		9.641534	-0.329595	-1.699312	0.004439	-0.003519	-0.003298	-0.756836	0.518066	0.263184	0.398787	-0.616643	-0.455346	-0.503369
07420		9.641249	-0.331256	-1.680295	0.006158	-0.000067	-0.003102	-0.764404	0.515381	0.261963	0.398833	-0.616670	-0.455355	-0.503291
07421		9.626497	-0.346685	-1.682443	0.003482	-0.001540	-0.003182	-0.759277	0.503174	0.255615	0.398822	-0.616619	-0.455424	-0.503301
07422		9.620126	-0.330695	-1.710450	-0.003703	0.000043	-0.002460	-0.757812	0.507568	0.262207	0.398749	-0.616475	-0.455518	-0.503449
07423		9.624190	-0.351211	-1.712849	-0.003093	-0.000007	-0.003081	-0.757568	0.509521	0.262451	0.398621	-0.616467	-0.455557	-0.503524
07424		9.617349	-0.339632	-1.702044	0.002873	-0.001490	-0.002560	-0.758545	0.509521	0.267822	0.398557	-0.616460	-0.455618	-0.503529
07425		9.631896	-0.324052	-1.690923	0.011804	-0.003788	-0.005796	-0.754883	0.523438	0.258545	0.398439	-0.616477	-0.455760	-0.503473
07426		9.631878	-0.322460	-1.701476	0.006245	-0.003876	-0.001469	-0.750977	0.519775	0.262207	0.398626	-0.616518	-0.455725	-0.503306
07427		9.629086	-0.331570	-1.703278	-0.007688	-0.002005	-0.000099	-0.755859	0.508545	0.262451	0.398627	-0.616688	-0.455586	-0.503224
07428		9.631875	-0.319343	-1.722357	-0.012859	-0.003640	-0.002034	-0.762207	0.514893	0.260986	0.398430	-0.616774	-0.455558	-0.503299
07429		9.628829	-0.329688	-1.705100	-0.005579	-0.004513	-0.004569	-0.754395	0.514404	0.258301	0.398355	-0.616775	-0.455584	-0.503333
07430		9.625655	-0.342362	-1.667906	-0.001799	0.000427	-0.003058	-0.750244	0.517090	0.259277	0.398404	-0.616758	-0.455565	-0.503333
07431		9.627131	-0.371338	-1.681291	0.003390	-0.002211	-0.001987	-0.759766	0.514404	0.257812	0.398506	-0.616799	-0.455540	-0.503225
07432		9.632919	-0.346861	-1.728296	0.005643	-0.003755	-0.002080	-0.761719	0.516357	0.261230	0.398587	-0.616726	-0.455609	-0.503188
07433		9.619271	-0.323678	-1.716587	0.006590	-0.001391	-0.002564	-0.756836	0.515381	0.264404	0.398648	-0.616675	-0.455667	-0.503150
07434		9.626982	-0.297194	-1.694478	0.000729	-0.003546	-0.004526	-0.753662	0.515625	0.260986	0.398590	-0.616731	-0.455695	-0.503102
07435		9.630801	-0.318667	-1.688057	-0.001179	-0.003966	-0.003311	-0.759277	0.515137	0.267334	0.398585	-0.616784	-0.455690	-0.503046
07436		9.634740	-0.339099	-1.691285	-0.010874	-0.002690	-0.001980	-0.753662	0.522461	0.264160	0.398411	-0.616919	-0.455633	-0.503068
07437		9.641427	-0.349005	-1.703305	-0.005065	-0.005272	-0.003377	-0.758545	0.512695	0.263916	0.398400	-0.617069	-0.455559	-0.502960
07438		9.627625	-0.325383	-1.692544	0.005747	-0.007424	-0.002910	-0.758057	0.511719	0.256104	0.398355	-0.617086	-0.455655	-0.502888
07439		9.646393	-0.327916	-1.713753	0.002454	-0.004471	-0.003349	-0.758789	0.521240	0.261230	0.398399	-0.617000	-0.455725	-0.502896
07440		9.637067	-0.323456	-1.723580	-0.002846	0.001767	-0.002360	-0.753662	0.513184	0.264404	0.398471	-0.617013	-0.455660	-0.502882
07441		9.642382	-0.305052	-1.711358	-0.002924	0.001233	-0.003625	-0.753174	0.516602	0.265381	0.398413	-0.617058	-0.455639	-0.502891
07442		9.618226	-0.318321	-1.703280	-0.004297	0.000264	-0.004912	-0.755859	0.517822	0.264648	0.398357	-0.617138	-0.455600	-0.502872
07443		9.643837	-0.333579	-1.714941	-0.000932	-0.002225	-0.001977	-0.758545	0.518311	0.263916	0.398349	-0.617210	-0.455575	-0.502813
07444		9.624935	-0.328989	-1.704957	0.000780	0.001193	-0.001168	-0.755127	0.505859	0.260254	0.398387	-0.617229	-0.455547	-0.502786
07445		9.629197	-0.347796	-1.726886	0.006421	-0.002594	-0.002635	-0.758301	0.515381	0.257080	0.398365	-0.617157	-0.455651	-0.502796
07446		9.615571	-0.324521	-1.714993	0.010919	-0.001301	-0.003807	-0.760254	0.515381	0.260986	0.398509	-0.617037	-0.455736	-0.502753
07447		9.639701	-0.310719	-1.713212	0.003209	0.000927	-0.002424	-0.765381	0.520996	0.254883	0.398556	-0.616982	-0.455760	-0.502760
07448		9.622097	-0.338031	-1.697039	0.000269	-0.002498	-0.000144	-0.752686	0.510254	0.262207	0.398694	-0.616903	-0.455747	-0.502761
07449		9.622033	-0.336853	-1.707690	-0.001362	-0.005348	-0.000303	-0.748779	0.520264	0.260986	0.398629	-0.616968	-0.455760	-0.502721
07450		9.621811	-0.336739	-1.708964	0.002964	-0.005297	-0.000929	-0.762939	0.511963	0.259766	0.398724	-0.617058	-0.455735	-0.502557
07451		9.637789	-0.350270	-1.721579	0.004004	-0.006707	-0.000395	-0.757812	0.512695	0.257324	0.398715	-0.617014	-0.455816	-0.502545
07452		9.640383	-0.338673	-1.741360	0.000457	-0.005565	-0.000937	-0.759766	0.516357	0.255371	0.398731	-0.616988	-0.455850	-0.502534
07453		9.633234	-0.329752	-1.711707	0.001133	-0.000702	-0.001278	-0.761719	0.510742	0.257324	0.398835	-0.616907	-0.455854	-0.502547
07454		9.629175	-0.307808	-1.709356	-0.002404	0.000544	-0.003665	-0.762695	0.515137	0.267334	0.398813	-0.616813	-0.455883	-0.502654
07455		9.626738	-0.313958	-1.729845	-0.005603	-0.000279	-0.003085	-0.755127	0.510254	0.263916	0.398693	-0.616859	-0.455878	-0.502696
07456		9.628371	-0.341662	-1.752735	-0.008559	0.000605	-0.000557	-0.753906	0.515137	0.268066	0.398583	-0.616923	-0.455826	-0.502754
07457		9.616290	-0.348761	-1.743663	-0.003450	0.001884	-0.002968	-0.754639	0.514160	0.265137	0.398511	-0.617005	-0.455792	-0.502740
07458		9.616380	-0.347879	-1.743346	-0.000503	0.000897	-0.003650	-0.757324	0.522461	0.260254	0.398477	-0.617034	-0.455793	-0.502730
07459		9.621801	-0.327429	-1.750938	-0.003274	-0.001322	-0.001301	-0.755371	0.514893	0.260742	0.398556	-0.617068	-0.455737	-0.502677
07460		9.624338	-0.318583	-1.740391	-0.011146	-0.000233	-0.001215	-0.754639	0.509033	0.266602	0.398503	-0.617123	-0.455657	-0.502723
07461		9.613765	-0.355018	-1.744648	-0.007168	0.001783	-0.002962	-0.757080	0.504150	0.264648	0.398361	-0.617177	-0.455633	-0.502791
07462		9.613964	-0.352054	-1.764156	0.000279	-0.002393	-0.001990	-0.759766	0.513916	0.268555	0.398231	-0.617175	-0.455696	-0.502841
07463		9.635292	-0.348380	-1.754079	-0.003094	0.000025	-0.003692	-0.758301	0.517822	0.270996	0.398127	-0.617221	-0.455702	-0.502861
07464		9.637634	-0.342605	-1.713972	-0.004059	0.001933	-0.002345	-0.755615	0.510254	0.270020	0.398051	-0.617313	-0.455659	-0.502846
07465		9.636361	-0.310303	-1.719897	-0.004842	0.000704	-0.000562	-0.751465	0.510498	0.263184	0.397921	-0.617404	-0.455631	-0.502863
07466		9.640812	-0.327455	-1.751154	0.000195	0.001523	-0.005467	-0.750244	0.514648	0.262207	0.397893	-0.617393	-0.455651	-0.502881
07467		9.623583	-0.351763	-1.753746	0.001565	0.002458	-0.003566	-0.757080	0.511230	0.269531	0.397945	-0.617394	-0.455634	-0.502854
07468		9.631562	-0.324198	-1.740217	0.000264	0.001951	-0.002357	-0.757568	0.513672	0.261963	0.397865	-0.617429	-0.455644	-0.502865
07469		9.627498	-0.303348	-1.727507	-0.004498	0.003223	-0.002269	-0.749268	0.516113	0.271484	0.397862	-0.617413	-0.455606	-0.502922
07470		9.619546	-0.332568	-1.710501	-0.003712	0.004488	-0.004667	-0.752930	0.505615	0.265869	0.397791	-0.617522	-0.455543	-0.502901
07471		9.635920	-0.345905	-1.711008	-0.000075	0.004022	-0.005322	-0.754150	0.509521	0.271973	0.397705	-0.617495	-0.455576	-0.502973
07472		9.636378	-0.342539	-1.729184	0.002679	0.006067	-0.004594	-0.746826	0.517822	0.263672	0.397623	-0.617513	-0.455592	-0.503001
07473		9.625275	-0.341733	-1.786592	0.002923	0.007808	-0.003259	-0.751465	0.512451	0.262939	0.397735	-0.617524	-0.455519	-0.502965
07474		9.606515	-0.340046	-1.745093	0.002745	0.011014	-0.004924	-0.751709	0.518311	0.267090	0.397807	-0.617449	-0.455490	-0.503026
07475		9.620226	-0.291140	-1.747369	0.002515	0.004895	-0.005278	-0.759033	0.511963	0.262695	0.397840	-0.617476	-0.455461	-0.502993
07476		9.628448	-0.335744	-1.721594	-0.000256	0.007193	-0.006372	-0.754395	0.514893	0.268555	0.397839	-0.617386	-0.455474	-0.503092
07477		9.630585	-0.362819	-1.742301	-0.002794	0.011126	-0.004287	-0.758301	0.519287	0.262451	0.397824	-0.617392	-0.455401	-0.503163
07478		9.629734	-0.329951	-1.745842	0.002744	0.011015	-0.004923	-0.755127	0.517822	0.253662	0.397938	-0.617307	-0.455357	-0.503217
07479		9.620724	-0.327573	-1.733321	0.005765	0.010529	-0.003722	-0.756104	0.511475	0.260498	0.398160	-0.617153	-0.455322	-0.503263
07480		9.626613	-0.306992	-1.738194	0.002134	0.011063	-0.004301	-0.759277	0.511230	0.263428	0.398227	-0.617044	-0.455305	-0.503358
07481		9.612140	-0.324175	-1.718576	-0.003294	0.007503	-0.004497	-0.757080	0.508301	0.261719	0.398192	-0.616994	-0.455286	-0.503464
07482		9.625794	-0.349236	-1.699963	-0.004513	0.007599	-0.003255	-0.753418	0.513428	0.255127	0.398155	-0.616945	-0.455255	-0.503582
07483		9.638424	-0.339284	-1.716667	-0.010051	0.007708	-0.002622	-0.755127	0.508301	0.258057	0.398194	-0.616907	-0.455147	-0.503695
07484		9.641134	-0.331013	-1.694561	-0.007181	0.006155	-0.003951	-0.754395	0.512695	0.266846	0.398163	-0.616857	-0.455104	-0.503819
07485		9.653237	-0.324447	-1.683030	0.004513	0.001441	-0.003626	-0.752930	0.510986	0.257812	0.398147	-0.616881	-0.455130	-0.503780
07486		9.648762	-0.306659	-1.641041	0.009271	0.004658	-0.006531	-0.752441	0.515381	0.259033	0.398248	-0.616764	-0.455198	-0.503782
07487		9.654176	-0.289001	-1.617231	0.006111	0.013086	-0.006037	-0.749756	0.509521	0.267090	0.398396	-0.616643	-0.455179	-0.503829
07488		9.661733	-0.298241	-1.624624	0.007156	0.016233	-0.009558	-0.757080	0.513672	0.263916	0.398422	-0.616547	-0.455191	-0.503915
07489		9.631844	-0.295538	-1.640913	0.010541	0.013924	-0.009695	-0.753174	0.503906	0.263428	0.398511	-0.616398	-0.455241	-0.503983
07490		9.626099	-0.278614	-1.665344	0.004985	0.013891	-0.006606	-0.758789	0.511230	0.265869	0.398508	-0.616282	-0.455261	-0.504108
07491		9.658228	-0.270385	-1.710026	-0.000733	0.012684	-0.004203	-0.760254	0.502197	0.255615	0.398492	-0.616236	-0.455215	-0.504219
07492		9.655978	-0.280363	-1.688280	-0.005827	0.016053	-0.007708	-0.757324	0.507568	0.261719	0.398465	-0.616045	-0.455200	-0.504486
07493		9.622731	-0.293436	-1.647026	-0.004193	0.018976	-0.008773	-0.755127	0.503418	0.251709	0.398444	-0.615916	-0.455147	-0.504709
07494		9.623075	-0.327145	-1.686175	-0.000224	0.016412	-0.005836	-0.757080	0.512939	0.262451	0.398532	-0.615710	-0.455131	-0.504905
07495		9.618000	-0.348139	-1.655991	0.002726	0.010912	-0.003069	-0.754395	0.507568	0.257568	0.398586	-0.615665	-0.455087	-0.504957
07496		9.650532	-0.304905	-1.657639	0.002285	0.012202	-0.002994	-0.760742	0.512207	0.256348	0.398655	-0.615568	-0.455054	-0.505050
07497		9.637109	-0.282452	-1.632975	0.007587	0.010357	-0.004950	-0.754883	0.515137	0.261475	0.398778	-0.615419	-0.455082	-0.505110
07498		9.645154	-0.254790	-1.617814	-0.002102	0.007193	-0.002053	-0.763916	0.518066	0.263916	0.398803	-0.615444	-0.455002	-0.505132
07499		9.635472	-0.287796	-1.649994	-0.013567	0.004555	-0.004063	-0.751953	0.498047	0.254395	0.398694	-0.615516	-0.454892	-0.505228
07500		9.626032	-0.360084	-1.608386	-0.004927	0.004574	-0.003439	-0.755615	0.512451	0.260498	0.398622	-0.615461	-0.454888	-0.505356
07501		9.628244	-0.386616	-1.640404	0.012317	-0.000194	-0.004322	-0.762451	0.506348	0.265137	0.398692	-0.615428	-0.454966	-0.505272
07502		9.647700	-0.353689	-1.617045	0.022286	-0.004009	-0.004536	-0.758545	0.505127	0.256592	0.398713	-0.615356	-0.455166	-0.505162
07503		9.643076	-0.259457	-1.627015	0.020293	-0.005039	-0.003362	-0.752197	0.509277	0.255859	0.398802	-0.615248	-0.455356	-0.505052
07504		9.649878	-0.270274	-1.638953	0.013624	-0.004169	-0.002698	-0.760986	0.505615	0.254883	0.398894	-0.615211	-0.455457	-0.504933
07505		9.625698	-0.283291	-1.641853	0.002484	-0.004431	-0.003954	-0.758301	0.510498	0.259033	0.398860	-0.615160	-0.455545	-0.504943
07506		9.645751	-0.319081	-1.637339	0.003222	-0.008080	-0.006630	-0.758301	0.509033	0.254883	0.398792	-0.615180	-0.455639	-0.504888
07507		9.640119	-0.337772	-1.631654	0.006396	-0.007421	-0.004123	-0.758545	0.503906	0.258301	0.398801	-0.615151	-0.455745	-0.504821
07508		9.628183	-0.341690	-1.653529	0.013393	-0.005875	-0.004649	-0.753174	0.513428	0.257080	0.398798	-0.615090	-0.455902	-0.504756
07509		9.609590	-0.332909	-1.683756	0.014507	-0.006746	-0.002847	-0.754150	0.503662	0.259033	0.398899	-0.615082	-0.456008	-0.504590
07510		9.646142	-0.273520	-1.668548	0.008645	-0.009026	-0.002977	-0.755371	0.512695	0.257080	0.398847	-0.615102	-0.456122	-0.504502
07511		9.627468	-0.264287	-1.699219	-0.005802	-0.006385	-0.004064	-0.754395	0.516113	0.252441	0.398778	-0.615172	-0.456118	-0.504476
07512		9.611932	-0.316711	-1.726803	-0.015737	-0.006849	-0.004708	-0.755615	0.510010	0.262207	0.398701	-0.615259	-0.456056	-0.504486
07513		9.613072	-0.346973	-1.722669	-0.009415	-0.010270	-0.003051	-0.752197	0.506836	0.258057	0.398522	-0.615410	-0.456041	-0.504458
07514		9.619376	-0.359130	-1.716448	0.001981	-0.008122	-0.002931	-0.753418	0.510742	0.253906	0.398471	-0.615459	-0.456096	-0.504389
07515		9.629392	-0.321363	-1.714223	0.004227	-0.009761	-0.001174	-0.754883	0.514404	0.266846	0.398509	-0.615481	-0.456163	-0.504270
07516		9.648294	-0.290566	-1.673169	-0.000888	-0.006539	-0.002222	-0.761963	0.515625	0.253174	0.398415	-0.615620	-0.456151	-0.504186
07517		9.629463	-0.282692	-1.693953	-0.004696	-0.007324	-0.001031	-0.758545	0.508301	0.253906	0.398431	-0.615635	-0.456161	-0.504147
07518		9.648010	-0.287153	-1.695987	-0.003991	-0.006665	-0.003461	-0.754150	0.512695	0.258301	0.398385	-0.615632	-0.456203	-0.504149
07519		9.623491	-0.301733	-1.679960	-0.006328	-0.005699	-0.004022	-0.761475	0.507812	0.256104	0.398321	-0.615699	-0.456194	-0.504125
07520		9.620845	-0.308833	-1.692021	-0.006774	-0.004444	-0.003333	-0.762207	0.511963	0.260010	0.398242	-0.615700	-0.456211	-0.504172
07521		9.618225	-0.316167	-1.703887	0.008019	-0.004527	-0.004583	-0.755371	0.513916	0.250488	0.398262	-0.615659	-0.456313	-0.504114
07522		9.647173	-0.284320	-1.690955	0.006443	-0.002505	-0.003850	-0.760010	0.509766	0.253662	0.398401	-0.615571	-0.456387	-0.504044
07523		9.623788	-0.259089	-1.669391	0.003426	-0.001992	-0.005669	-0.760254	0.506104	0.261963	0.398437	-0.615484	-0.456469	-0.504047
07524		9.612001	-0.262268	-1.690173	-0.002104	-0.001826	-0.006271	-0.758057	0.516357	0.263672	0.398322	-0.615485	-0.456509	-0.504101
07525		9.628310	-0.274225	-1.701881	-0.010241	-0.002714	-0.003846	-0.753418	0.506592	0.264648	0.398222	-0.615587	-0.456451	-0.504108
07526		9.613365	-0.291213	-1.685258	-0.018899	-0.002882	-0.001996	-0.759033	0.504883	0.261719	0.397992	-0.615752	-0.456333	-0.504194
07527		9.619811	-0.303094	-1.678481	-0.017988	-0.009839	-0.001160	-0.762695	0.505615	0.273193	0.397747	-0.615906	-0.456275	-0.504252
07528		9.647453	-0.310994	-1.672236	-0.012945	-0.013593	-0.001381	-0.755615	0.501953	0.261475	0.397419	-0.616134	-0.456250	-0.504254
07529		9.609563	-0.296780	-1.704113	-0.011830	-0.014499	0.001033	-0.758057	0.505615	0.263428	0.397208	-0.616297	-0.456238	-0.504232
07530		9.625352	-0.308569	-1.728936	-0.015949	-0.017563	-0.000370	-0.753174	0.507568	0.255615	0.396949	-0.616500	-0.456220	-0.504204
07531		9.634724	-0.273792	-1.699132	-0.007248	-0.012515	-0.001327	-0.757080	0.502197	0.263916	0.396879	-0.616577	-0.456244	-0.504143
07532		9.639096	-0.257687	-1.670637	-0.002669	-0.010565	-0.003074	-0.759033	0.512451	0.269043	0.396727	-0.616650	-0.456301	-0.504124
07533		9.649856	-0.289046	-1.686541	-0.001379	-0.010160	-0.002436	-0.760742	0.510010	0.265137	0.396615	-0.616770	-0.456325	-0.504043
07534		9.653896	-0.308442	-1.700525	-0.005651	-0.005245	-0.002759	-0.761719	0.507812	0.260498	0.396516	-0.616830	-0.456323	-0.504048
07535		9.630545	-0.282071	-1.689194	0.001878	-0.004271	-0.005188	-0.761963	0.508545	0.259766	0.396496	-0.616784	-0.456406	-0.504046
07536		9.623730	-0.267920	-1.698270	0.004104	-0.001497	-0.005032	-0.755127	0.505615	0.260254	0.396522	-0.616704	-0.456487	-0.504049
07537		9.630603	-0.277900	-1.709752	0.003325	-0.002728	-0.003251	-0.752197	0.511963	0.265381	0.396528	-0.616676	-0.456542	-0.504029
07538		9.623499	-0.266100	-1.699869	-0.004592	-0.006512	-0.004684	-0.751465	0.505615	0.257812	0.396443	-0.616770	-0.456539	-0.503983
07539		9.632653	-0.267596	-1.701725	-0.007110	-0.006931	-0.002234	-0.757568	0.503906	0.272461	0.396380	-0.616820	-0.456539	-0.503972
07540		9.620615	-0.271045	-1.723524	-0.005641	-0.005141	-0.004601	-0.754150	0.504639	0.267578	0.396172	-0.616929	-0.456532	-0.504008
07541		9.639047	-0.277236	-1.705893	-0.005123	-0.005897	-0.003413	-0.758545	0.505127	0.260498	0.396030	-0.617020	-0.456527	-0.504013
07542		9.642912	-0.298905	-1.700394	-0.003644	-0.008698	-0.001112	-0.750488	0.510742	0.266113	0.395965	-0.617055	-0.456564	-0.503989
07543		9.610325	-0.265797	-1.728590	-0.001205	-0.008846	-0.004212	-0.756104	0.506592	0.269531	0.395894	-0.617151	-0.456588	-0.503905
07544		9.612620	-0.254414	-1.739410	-0.000687	-0.009602	-0.003024	-0.754395	0.507324	0.265137	0.395767	-0.617251	-0.456623	-0.503850
07545		9.628338	-0.269314	-1.733837	-0.001621	-0.011972	-0.002541	-0.755615	0.509277	0.269287	0.395672	-0.617343	-0.456670	-0.503770
07546		9.608030	-0.303630	-1.741280	-0.003855	-0.014853	-0.000850	-0.763916	0.506104	0.264893	0.395531	-0.617504	-0.456690	-0.503665
07547		9.638022	-0.305003	-1.715111	-0.003611	-0.013042	-0.000746	-0.756592	0.516357	0.266113	0.395417	-0.617571	-0.456748	-0.503619
07548		9.621344	-0.287988	-1.736243	-0.007414	-0.013833	0.000457	-0.752930	0.509033	0.266357	0.395342	-0.617727	-0.456732	-0.503501
07549		9.618963	-0.258269	-1.726538	-0.006972	-0.015122	0.000380	-0.754883	0.503174	0.268066	0.395220	-0.617888	-0.456732	-0.503399
07550		9.630202	-0.252564	-1.719815	-0.005928	-0.016563	0.001526	-0.751465	0.503906	0.269531	0.395052	-0.618052	-0.456750	-0.503315
07551		9.643226	-0.276212	-1.726148	-0.004297	-0.013529	-0.001388	-0.755615	0.511719	0.267822	0.394895	-0.618194	-0.456770	-0.503244
07552		9.637372	-0.296642	-1.712192	-0.015898	-0.012696	0.000564	-0.752197	0.509766	0.272217	0.394730	-0.618380	-0.456702	-0.503207
07553		9.636911	-0.295898	-1.714910	-0.016009	-0.008884	-0.001062	-0.758057	0.506348	0.270752	0.394532	-0.618574	-0.456608	-0.503209
07554		9.627333	-0.288730	-1.745848	-0.010301	-0.007624	-0.004100	-0.749512	0.513184	0.266846	0.394356	-0.618669	-0.456596	-0.503242
07555		9.624537	-0.295573	-1.758381	-0.007633	-0.006137	-0.004025	-0.754150	0.512695	0.273438	0.394298	-0.618756	-0.456570	-0.503203
07556		9.626982	-0.283825	-1.768221	-0.006095	-0.003884	-0.003900	-0.752441	0.510986	0.267578	0.394203	-0.618852	-0.456535	-0.503192
07557		9.620027	-0.269476	-1.777684	0.001100	-0.005354	-0.005874	-0.751221	0.507324	0.270996	0.394186	-0.618866	-0.456586	-0.503142
07558		9.631885	-0.262363	-1.767813	0.008505	-0.000667	-0.008103	-0.758057	0.508057	0.264160	0.394189	-0.618826	-0.456671	-0.503111
07559		9.624173	-0.289863	-1.761326	0.002002	0.001432	-0.007946	-0.757812	0.508057	0.279785	0.394210	-0.618729	-0.456739	-0.503152
07560		9.605708	-0.278416	-1.799024	-0.006324	0.003666	-0.005921	-0.757812	0.500488	0.273438	0.394062	-0.618790	-0.456680	-0.503246
07561		9.613332	-0.252307	-1.766467	0.003326	-0.002577	-0.005721	-0.758057	0.506592	0.271973	0.393965	-0.618782	-0.456743	-0.503275
07562		9.606422	-0.237332	-1.785519	0.011478	-0.006269	-0.003513	-0.755615	0.508789	0.270020	0.393973	-0.618769	-0.456852	-0.503186
07563		9.622487	-0.250270	-1.798257	0.004729	-0.006019	-0.002846	-0.755127	0.507568	0.265869	0.393966	-0.618790	-0.456909	-0.503114
07564		9.620378	-0.223840	-1.757025	-0.000486	-0.003588	-0.000825	-0.752686	0.508301	0.269043	0.393973	-0.618801	-0.456921	-0.503085
07565		9.620206	-0.224744	-1.748030	-0.001535	-0.002218	-0.000739	-0.762695	0.504883	0.262695	0.393961	-0.618843	-0.456901	-0.503060
07566		9.602885	-0.248841	-1.762125	-0.004248	-0.008655	-0.000485	-0.755615	0.510742	0.270996	0.393916	-0.618847	-0.456944	-0.503052
07567		9.609542	-0.253410	-1.824266	-0.019526	-0.012222	0.000623	-0.756836	0.508057	0.277588	0.393714	-0.619053	-0.456849	-0.503043
07568		9.619992	-0.288566	-1.811887	-0.026971	-0.012749	0.005570	-0.754150	0.505371	0.270020	0.393416	-0.619362	-0.456659	-0.503068
07569		9.621143	-0.322684	-1.788687	-0.022800	-0.004590	0.004180	-0.749268	0.509277	0.269043	0.393242	-0.619537	-0.456489	-0.503143
07570		9.611605	-0.312519	-1.848580	-0.010104	-0.010763	-0.003665	-0.763184	0.500732	0.267578	0.393120	-0.619657	-0.456480	-0.503099
07571		9.620378	-0.321198	-1.793064	0.003106	-0.008947	-0.001787	-0.759033	0.508789	0.279297	0.393074	-0.619633	-0.456576	-0.503076
07572		9.610685	-0.318547	-1.794270	0.010585	-0.003798	-0.001526	-0.758301	0.510986	0.273438	0.393076	-0.619654	-0.456636	-0.502994
07573		9.620963	-0.274196	-1.849110	0.012080	-0.006383	-0.002922	-0.756104	0.511719	0.272217	0.393126	-0.619639	-0.456744	-0.502876
07574		9.621589	-0.235198	-1.835809	0.016730	-0.003857	-0.004035	-0.766113	0.506592	0.271484	0.393235	-0.619579	-0.456876	-0.502744
07575		9.609421	-0.245039	-1.808043	0.014027	-0.000965	-0.005081	-0.759277	0.505859	0.275635	0.393298	-0.619461	-0.457013	-0.502717
07576		9.606669	-0.257452	-1.780591	0.008081	-0.004042	-0.002140	-0.761719	0.510254	0.276123	0.393284	-0.619462	-0.457078	-0.502667
07577		9.639026	-0.286234	-1.784926	0.004887	-0.004882	-0.001552	-0.750244	0.509521	0.278320	0.393265	-0.619488	-0.457122	-0.502611
07578		9.615745	-0.258719	-1.792597	0.005048	-0.003746	-0.000252	-0.749756	0.503418	0.274170	0.393251	-0.619568	-0.457122	-0.502522
07579		9.616476	-0.219074	-1.788556	-0.001459	-0.001794	0.002372	-0.761719	0.507080	0.260498	0.393212	-0.619645	-0.457071	-0.502504
07580		9.631049	-0.204166	-1.776705	-0.004441	0.003702	-0.000371	-0.752197	0.504639	0.275146	0.393280	-0.619553	-0.457059	-0.502575
07581		9.611543	-0.237255	-1.789716	-0.006943	0.003565	-0.002830	-0.752686	0.510742	0.270020	0.393193	-0.619594	-0.456987	-0.502658
07582		9.589416	-0.280737	-1.794314	-0.015676	0.002667	0.000874	-0.753662	0.501465	0.269043	0.393131	-0.619676	-0.456849	-0.502732
07583		9.608368	-0.283462	-1.813998	-0.013500	0.000351	0.003808	-0.751709	0.508057	0.273682	0.393047	-0.619754	-0.456725	-0.502814
07584		9.620280	-0.279498	-1.793794	-0.006148	-0.000050	0.004355	-0.751709	0.503418	0.268799	0.393026	-0.619847	-0.456623	-0.502807
07585		9.611789	-0.235285	-1.808067	0.000160	0.001099	0.001915	-0.755615	0.502930	0.267334	0.393056	-0.619848	-0.456594	-0.502809
07586		9.616906	-0.218387	-1.796042	-0.011079	-0.000080	0.005618	-0.751221	0.502441	0.268799	0.393020	-0.619908	-0.456484	-0.502863
07587		9.633254	-0.233278	-1.797227	-0.019072	0.004820	0.003494	-0.754883	0.508789	0.278809	0.392928	-0.619988	-0.456304	-0.503001
07588		9.630039	-0.282416	-1.801880	-0.010258	0.006287	0.000441	-0.755127	0.501953	0.269531	0.392850	-0.620062	-0.456164	-0.503097
07589		9.613099	-0.313509	-1.754545	-0.004759	0.010471	0.000657	-0.756592	0.504150	0.266113	0.392873	-0.620010	-0.456073	-0.503225
07590		9.601701	-0.312204	-1.821381	0.000732	0.005435	0.000321	-0.758789	0.508545	0.270752	0.392945	-0.619935	-0.456058	-0.503275
07591		9.604674	-0.299597	-1.847792	0.012049	0.007072	-0.000884	-0.758789	0.511719	0.269531	0.393093	-0.619819	-0.456100	-0.503265
07592		9.574896	-0.263077	-1.832404	0.019437	0.002324	0.000022	-0.756104	0.512695	0.278564	0.393301	-0.619698	-0.456209	-0.503152
07593		9.608260	-0.254184	-1.821158	0.011428	-0.002286	0.002264	-0.754639	0.508545	0.275391	0.393371	-0.619732	-0.456236	-0.503030
07594		9.626864	-0.265848	-1.773324	0.001371	0.000937	0.001898	-0.754639	0.502441	0.269287	0.393380	-0.619773	-0.456194	-0.503012
07595		9.607475	-0.296287	-1.815367	0.004616	0.006870	-0.001470	-0.753662	0.506104	0.272461	0.393436	-0.619693	-0.456192	-0.503068
07596		9.621344	-0.323327	-1.787493	0.011204	0.005485	-0.003442	-0.759033	0.512207	0.266602	0.393520	-0.619608	-0.456239	-0.503064
07597		9.614692	-0.311432	-1.785059	0.014509	0.002440	-0.001173	-0.759033	0.504639	0.274414	0.393699	-0.619488	-0.456335	-0.502985
07598		9.608034	-0.298787	-1.792523	0.019602	0.003641	-0.001748	-0.751953	0.512695	0.269775	0.393816	-0.619382	-0.456429	-0.502940
07599		9.634868	-0.274033	-1.808023	0.019683	0.004245	-0.001712	-0.753418	0.512207	0.273682	0.394022	-0.619271	-0.456529	-0.502824
07600		9.618679	-0.264261	-1.766198	0.011970	0.006575	-0.002766	-0.751465	0.509521	0.273193	0.394139	-0.619200	-0.456564	-0.502788
07601		9.625840	-0.276971	-1.755958	0.005468	0.008707	-0.003223	-0.756104	0.504883	0.274170	0.394202	-0.619147	-0.456548	-0.502817
07602		9.611681	-0.291581	-1.765737	0.008253	0.006456	-0.002752	-0.757080	0.510498	0.272217	0.394239	-0.619087	-0.456557	-0.502854
07603		9.606896	-0.308885	-1.776032	0.008859	0.006375	-0.002759	-0.763916	0.503174	0.265869	0.394323	-0.619015	-0.456580	-0.502857
07604		9.633569	-0.289310	-1.742622	0.015521	0.005416	-0.001616	-0.765137	0.504883	0.272217	0.394457	-0.618854	-0.456670	-0.502868
07605		9.629530	-0.268121	-1.738808	0.013020	0.005206	-0.002848	-0.760498	0.508057	0.266602	0.394523	-0.618742	-0.456731	-0.502898
07606		9.622928	-0.256086	-1.736092	0.009382	0.005655	-0.002187	-0.757812	0.512207	0.271729	0.394629	-0.618631	-0.456777	-0.502910
07607		9.639574	-0.269027	-1.745689	0.001670	0.007982	-0.003249	-0.756592	0.508789	0.263916	0.394668	-0.618584	-0.456749	-0.502962
07608		9.623740	-0.252548	-1.751814	-0.003782	0.008744	-0.003795	-0.756836	0.503418	0.272217	0.394704	-0.618507	-0.456714	-0.503061
07609		9.623249	-0.291838	-1.754638	0.000815	0.006146	-0.001499	-0.755859	0.511475	0.269287	0.394684	-0.618488	-0.456667	-0.503142
07610		9.616666	-0.279624	-1.751841	0.002027	0.005984	-0.001514	-0.757812	0.507568	0.268311	0.394739	-0.618455	-0.456642	-0.503163
07611		9.611673	-0.300311	-1.733257	0.009909	0.005006	-0.002840	-0.757812	0.513428	0.272217	0.394824	-0.618367	-0.456686	-0.503165
07612		9.607709	-0.276512	-1.749138	0.011567	0.003592	-0.003545	-0.760010	0.512207	0.262451	0.394912	-0.618307	-0.456739	-0.503121
07613		9.624309	-0.288522	-1.769092	0.006107	0.004212	-0.001635	-0.755127	0.511963	0.267578	0.395030	-0.618211	-0.456779	-0.503109
07614		9.638736	-0.277843	-1.717542	0.002467	0.004625	-0.000362	-0.762207	0.503418	0.260010	0.395098	-0.618187	-0.456758	-0.503105
07615		9.632044	-0.266744	-1.705247	-0.002294	0.005979	-0.002114	-0.766357	0.505127	0.264648	0.395122	-0.618094	-0.456744	-0.503213
07616		9.617919	-0.278939	-1.735164	0.003528	0.003431	-0.003519	-0.762451	0.503906	0.265869	0.395140	-0.618001	-0.456777	-0.503283
07617		9.615698	-0.284410	-1.764696	0.006394	0.001786	-0.003008	-0.756836	0.506348	0.265381	0.395163	-0.617926	-0.456822	-0.503316
07618		9.622539	-0.296134	-1.766171	0.002626	-0.003423	-0.000207	-0.759277	0.509766	0.267090	0.395167	-0.617934	-0.456845	-0.503283
07619		9.636722	-0.283416	-1.735971	0.006262	-0.003906	-0.000250	-0.757812	0.511475	0.270264	0.395200	-0.617932	-0.456893	-0.503215
07620		9.622885	-0.259705	-1.733923	0.004163	-0.001133	-0.000699	-0.761719	0.512695	0.264893	0.395220	-0.617946	-0.456905	-0.503172
07621		9.630094	-0.266693	-1.773672	-0.008069	0.004321	-0.002803	-0.753906	0.512939	0.260742	0.395201	-0.617929	-0.456856	-0.503252
07622		9.606209	-0.281488	-1.754991	-0.008676	0.004402	-0.002796	-0.754639	0.508301	0.262939	0.395217	-0.617911	-0.456811	-0.503302
07623		9.608901	-0.271220	-1.753308	0.006236	0.000648	-0.004306	-0.759766	0.506592	0.268555	0.395274	-0.617844	-0.456878	-0.503279
07624		9.613202	-0.293426	-1.745721	0.009413	0.001210	0.000031	-0.763672	0.507080	0.268799	0.395334	-0.617804	-0.456908	-0.503254
07625		9.613451	-0.290481	-1.774513	0.006908	0.000927	0.000025	-0.758301	0.505127	0.270752	0.395368	-0.617770	-0.456927	-0.503251
07626		9.625503	-0.282532	-1.783346	0.005382	-0.001189	-0.002557	-0.751465	0.504150	0.267334	0.395344	-0.617769	-0.456951	-0.503251
07627		9.614193	-0.251264	-1.760247	0.001984	0.001036	-0.001183	-0.753418	0.502686	0.263672	0.395339	-0.617775	-0.456938	-0.503259
07628		9.614020	-0.255343	-1.720942	-0.004521	0.003129	-0.001037	-0.757324	0.509033	0.269043	0.395312	-0.617772	-0.456888	-0.503329
07629		9.622932	-0.294326	-1.754435	-0.001818	0.000241	0.000021	-0.758545	0.504150	0.263916	0.395291	-0.617805	-0.456850	-0.503339
07630		9.627271	-0.314469	-1.766773	0.004608	-0.002420	-0.000773	-0.750732	0.507568	0.264648	0.395306	-0.617782	-0.456889	-0.503320
07631		9.634658	-0.289959	-1.734781	0.006056	-0.000873	0.001159	-0.752686	0.500977	0.265869	0.395375	-0.617779	-0.456908	-0.503252
07632		9.632987	-0.258413	-1.740871	-0.000968	0.002008	-0.000499	-0.757568	0.506348	0.260254	0.395348	-0.617784	-0.456869	-0.503302
07633		9.638192	-0.239395	-1.738231	-0.007108	0.002208	-0.000462	-0.756836	0.515625	0.262451	0.395338	-0.617771	-0.456828	-0.503363
07634		9.635038	-0.287203	-1.752937	-0.012484	0.003500	0.000250	-0.762207	0.503174	0.268311	0.395336	-0.617800	-0.456743	-0.503407
07635		9.642007	-0.300550	-1.733655	-0.009565	0.006977	-0.002646	-0.756104	0.505127	0.262451	0.395244	-0.617795	-0.456643	-0.503577
07636		9.609046	-0.308536	-1.753172	-0.004881	0.005091	-0.002156	-0.755859	0.505615	0.263184	0.395238	-0.617761	-0.456601	-0.503660
07637		9.621415	-0.298932	-1.770465	0.002553	0.005335	-0.002171	-0.755859	0.507812	0.264893	0.395289	-0.617695	-0.456603	-0.503700
07638		9.607061	-0.314801	-1.771517	0.004571	0.001959	-0.001755	-0.767334	0.515869	0.271240	0.395339	-0.617655	-0.456625	-0.503690
07639		9.620240	-0.263224	-1.804283	0.002230	0.002919	-0.002308	-0.759277	0.507568	0.266846	0.395362	-0.617628	-0.456628	-0.503701
07640		9.601350	-0.259728	-1.783937	0.001993	0.001177	-0.003640	-0.757324	0.501709	0.272949	0.395357	-0.617599	-0.456646	-0.503724
07641		9.621957	-0.296857	-1.767869	0.004136	0.003387	-0.004139	-0.761475	0.507324	0.270020	0.395307	-0.617585	-0.456632	-0.503793
07642		9.614594	-0.322123	-1.789908	0.003281	0.001550	-0.002390	-0.751221	0.507812	0.267334	0.395297	-0.617569	-0.456635	-0.503818
07643		9.600669	-0.301299	-1.757941	0.008655	0.000224	-0.002486	-0.756592	0.507812	0.268555	0.395351	-0.617545	-0.456681	-0.503764
07644		9.627286	-0.278170	-1.754492	0.008610	0.004498	-0.001625	-0.762451	0.503662	0.268799	0.395420	-0.617493	-0.456699	-0.503757
07645		9.635103	-0.250005	-1.750306	0.006550	0.002926	-0.001707	-0.750977	0.507324	0.262695	0.395435	-0.617447	-0.456711	-0.503792
07646		9.632736	-0.259097	-1.750435	0.002471	0.004731	-0.002206	-0.758545	0.511963	0.266602	0.395494	-0.617400	-0.456712	-0.503801
07647		9.609132	-0.270959	-1.760525	-0.000391	0.006443	-0.003949	-0.756348	0.506104	0.269287	0.395521	-0.617354	-0.456697	-0.503851
07648		9.606575	-0.282885	-1.731356	0.008376	0.002790	-0.003570	-0.756592	0.503662	0.263916	0.395550	-0.617310	-0.456728	-0.503853
07649		9.618921	-0.271532	-1.769039	0.008487	-0.001087	-0.000707	-0.759033	0.505859	0.266846	0.395597	-0.617274	-0.456779	-0.503815
07650		9.646740	-0.285972	-1.711297	0.003955	0.001901	0.000711	-0.755127	0.510986	0.259277	0.395626	-0.617261	-0.456767	-0.503819
07651		9.650065	-0.237505	-1.695404	-0.003911	0.003115	-0.002277	-0.756348	0.504639	0.264893	0.395660	-0.617229	-0.456760	-0.503838
07652		9.640963	-0.232182	-1.713764	0.004817	0.003840	-0.002881	-0.760986	0.504883	0.268555	0.395691	-0.617175	-0.456775	-0.503865
07653		9.636137	-0.250513	-1.714510	0.004084	0.007591	-0.002050	-0.764160	0.512451	0.268066	0.395715	-0.617117	-0.456748	-0.503941
07654		9.640875	-0.271248	-1.714727	0.000088	0.010032	-0.003133	-0.755371	0.516846	0.258789	0.395755	-0.617050	-0.456707	-0.504030
07655		9.612459	-0.300872	-1.735708	0.000608	0.009279	-0.001943	-0.756592	0.499756	0.263672	0.395891	-0.616960	-0.456703	-0.504037
07656		9.612946	-0.298291	-1.753476	0.000570	0.004332	-0.001606	-0.757568	0.509277	0.269287	0.395878	-0.616928	-0.456674	-0.504113
07657		9.625212	-0.290016	-1.761223	-0.002463	0.004698	-0.000960	-0.753906	0.505371	0.258789	0.395860	-0.616946	-0.456607	-0.504166
07658		9.632197	-0.302560	-1.751847	-0.000194	0.003238	-0.002283	-0.755371	0.510498	0.260498	0.395894	-0.616899	-0.456612	-0.504192
07659		9.609116	-0.276652	-1.738300	0.004458	0.005802	-0.004000	-0.762695	0.506592	0.268555	0.395981	-0.616811	-0.456648	-0.504198
07660		9.644437	-0.297459	-1.719070	0.009636	0.007682	-0.005757	-0.760010	0.507324	0.269531	0.396028	-0.616707	-0.456683	-0.504256
07661		9.642560	-0.302848	-1.747288	0.010919	0.008024	-0.003891	-0.749268	0.505615	0.268799	0.396098	-0.616619	-0.456703	-0.504291
07662		9.628968	-0.280650	-1.723283	0.012823	0.008457	-0.005104	-0.755371	0.506592	0.260254	0.396181	-0.616536	-0.456730	-0.504303
07663		9.632007	-0.269424	-1.729775	0.011614	0.008650	-0.005707	-0.761230	0.504395	0.260986	0.396304	-0.616390	-0.456801	-0.504321
07664		9.620882	-0.238678	-1.694733	0.006919	0.010429	-0.004363	-0.754883	0.513184	0.262695	0.396388	-0.616255	-0.456821	-0.504402
07665		9.599420	-0.280096	-1.717044	0.000452	0.008138	-0.003245	-0.761230	0.500732	0.271729	0.396453	-0.616202	-0.456798	-0.504436
07666		9.599495	-0.314292	-1.768746	0.000323	0.002451	-0.000480	-0.764404	0.514160	0.260742	0.396375	-0.616238	-0.456729	-0.504515
07667		9.632509	-0.306453	-1.738162	0.004446	-0.003693	0.000401	-0.765381	0.505859	0.263916	0.396434	-0.616228	-0.456782	-0.504433
07668		9.654232	-0.264529	-1.714403	0.006347	-0.003294	-0.000197	-0.757324	0.505371	0.257080	0.396444	-0.616216	-0.456826	-0.504400
07669		9.654378	-0.229857	-1.661579	-0.000360	0.001960	-0.001123	-0.765137	0.508301	0.262207	0.396474	-0.616179	-0.456832	-0.504417
07670		9.655087	-0.223818	-1.709116	0.001431	0.006233	-0.004587	-0.767822	0.512207	0.266602	0.396495	-0.616098	-0.456842	-0.504490
07671		9.623586	-0.267734	-1.683299	0.000988	0.007555	-0.005129	-0.750244	0.503662	0.261475	0.396507	-0.616029	-0.456834	-0.504573
07672		9.635110	-0.301169	-1.675274	0.009016	0.007626	-0.003289	-0.750977	0.506104	0.267090	0.396596	-0.615943	-0.456853	-0.504591
07673		9.623901	-0.303563	-1.713224	0.013778	0.006317	-0.002137	-0.759277	0.509766	0.266602	0.396696	-0.615881	-0.456875	-0.504567
07674		9.627373	-0.254420	-1.706158	0.014983	0.006091	-0.000918	-0.758545	0.512451	0.261719	0.396825	-0.615800	-0.456912	-0.504531
07675		9.637786	-0.216003	-1.710484	0.006549	0.002930	-0.001697	-0.759033	0.499756	0.265869	0.396906	-0.615753	-0.456941	-0.504498
07676		9.608843	-0.250121	-1.693634	-0.003874	0.008055	-0.002631	-0.758545	0.504395	0.263184	0.396844	-0.615739	-0.456854	-0.504643
07677		9.608593	-0.288539	-1.706127	-0.004814	0.005584	-0.000301	-0.750732	0.511719	0.272461	0.396815	-0.615746	-0.456771	-0.504732
07678		9.617915	-0.293204	-1.686200	0.003712	0.000093	0.000617	-0.762695	0.500000	0.263428	0.396808	-0.615828	-0.456713	-0.504691
07679		9.648511	-0.293992	-1.666114	0.004391	0.000550	0.001875	-0.763428	0.513184	0.263428	0.396810	-0.615821	-0.456700	-0.504708
07680		9.656423	-0.264094	-1.681681	0.000031	0.004913	0.000272	-0.765381	0.502930	0.258545	0.396853	-0.615805	-0.456659	-0.504732
07681		9.635237	-0.268289	-1.681263	-0.002465	0.004695	-0.000970	-0.756104	0.505127	0.260254	0.396849	-0.615758	-0.456633	-0.504816
07682		9.626247	-0.263179	-1.699408	-0.001246	0.004603	-0.002210	-0.756104	0.503418	0.265137	0.396852	-0.615733	-0.456604	-0.504872
07683		9.616310	-0.300456	-1.702791	-0.000897	0.002542	0.000759	-0.762451	0.498535	0.263184	0.396826	-0.615764	-0.456538	-0.504913
07684		9.613914	-0.309888	-1.703120	0.001694	0.003500	-0.000424	-0.753174	0.508545	0.260254	0.396805	-0.615739	-0.456510	-0.504985
07685		9.640170	-0.289029	-1.680488	0.005455	-0.000716	-0.000045	-0.755615	0.505127	0.266602	0.396860	-0.615736	-0.456529	-0.504928
07686		9.647973	-0.258882	-1.696756	0.003114	0.000240	-0.000606	-0.757080	0.510986	0.265137	0.396842	-0.615765	-0.456503	-0.504931
07687		9.645275	-0.270224	-1.678045	-0.000886	0.002643	-0.001086	-0.753662	0.504395	0.263916	0.396837	-0.615787	-0.456455	-0.504951
07688		9.609675	-0.289607	-1.689623	0.007311	0.004025	-0.001017	-0.752441	0.511475	0.254395	0.396885	-0.615758	-0.456449	-0.504955
07689		9.636093	-0.266468	-1.686874	0.015299	-0.005527	-0.003402	-0.756348	0.501953	0.269531	0.397014	-0.615688	-0.456608	-0.504795
07690		9.657037	-0.265239	-1.657500	0.008125	0.000845	-0.001194	-0.762451	0.502686	0.264648	0.397000	-0.615699	-0.456598	-0.504801
07691		9.628626	-0.294632	-1.689465	-0.002685	0.007695	0.001042	-0.755127	0.506348	0.261963	0.396986	-0.615689	-0.456505	-0.504907
07692		9.621920	-0.282547	-1.687115	-0.005894	0.002070	-0.001114	-0.765869	0.507080	0.258057	0.396938	-0.615725	-0.456437	-0.504963
07693		9.622616	-0.276701	-1.735287	-0.004151	0.001261	-0.001777	-0.756348	0.507080	0.263672	0.396916	-0.615703	-0.456430	-0.505013
07694		9.636406	-0.301002	-1.727605	-0.001568	0.002151	-0.001730	-0.760254	0.502686	0.259521	0.396890	-0.615721	-0.456388	-0.505051
07695		9.623913	-0.312998	-1.679539	0.003875	0.001336	0.000071	-0.761230	0.506104	0.269287	0.396919	-0.615689	-0.456399	-0.505057
07696		9.643337	-0.279468	-1.665515	0.011144	0.000348	0.000627	-0.760986	0.507812	0.263428	0.396954	-0.615688	-0.456406	-0.505024
07697		9.651015	-0.250739	-1.672040	0.003632	-0.000510	0.000586	-0.757324	0.501953	0.259521	0.396968	-0.615698	-0.456401	-0.505005
07698		9.629677	-0.254837	-1.672531	-0.005200	0.002661	-0.002316	-0.760010	0.510986	0.261475	0.396917	-0.615696	-0.456361	-0.505084
07699		9.624809	-0.272712	-1.673783	-0.000022	0.004542	-0.004066	-0.757812	0.508301	0.266357	0.396929	-0.615659	-0.456352	-0.505128
07700		9.629698	-0.290222	-1.704596	0.005546	-0.000011	-0.001854	-0.754150	0.505615	0.264160	0.396931	-0.615668	-0.456352	-0.505115
07701		9.638804	-0.295829	-1.675359	0.004564	0.001894	-0.000515	-0.748535	0.510742	0.265869	0.396950	-0.615673	-0.456332	-0.505114
07702		9.632152	-0.282887	-1.683075	0.004280	0.004424	-0.000993	-0.757568	0.510986	0.267578	0.396989	-0.615689	-0.456278	-0.505111
07703		9.621281	-0.246527	-1.708395	0.003481	-0.001652	-0.000709	-0.758545	0.508545	0.256592	0.396975	-0.615736	-0.456256	-0.505085
07704		9.649617	-0.252913	-1.719100	-0.000393	-0.002988	-0.000780	-0.755859	0.510986	0.261719	0.396980	-0.615741	-0.456278	-0.505054
07705		9.646622	-0.266013	-1.681227	-0.005041	0.003869	-0.002251	-0.758301	0.508057	0.258301	0.396959	-0.615757	-0.456216	-0.505109
07706		9.632037	-0.283911	-1.663040	-0.004004	0.002369	0.000132	-0.758057	0.504395	0.267334	0.396961	-0.615761	-0.456172	-0.505141
07707		9.624536	-0.311863	-1.665932	0.001826	-0.000172	-0.001243	-0.753174	0.508301	0.263428	0.396917	-0.615794	-0.456143	-0.505162
07708		9.620706	-0.286325	-1.702179	0.001609	0.002862	0.000156	-0.754883	0.500732	0.269531	0.396937	-0.615810	-0.456094	-0.505170
07709		9.613863	-0.274687	-1.700515	-0.004785	0.001107	0.002529	-0.757080	0.511719	0.265137	0.396849	-0.615905	-0.455972	-0.505234
07710		9.632599	-0.279817	-1.701549	-0.002772	-0.007013	-0.000384	-0.751221	0.506348	0.260986	0.396776	-0.616005	-0.455946	-0.505192
07711		9.641522	-0.284210	-1.683792	-0.000711	-0.005405	-0.000913	-0.762939	0.513916	0.257568	0.396735	-0.616066	-0.455944	-0.505153
07712		9.638623	-0.295423	-1.666226	0.000455	-0.001221	-0.001300	-0.763672	0.500732	0.258301	0.396767	-0.616051	-0.455969	-0.505123
07713		9.629329	-0.291373	-1.675776	0.001391	0.001216	-0.003017	-0.754639	0.514648	0.252441	0.396758	-0.615993	-0.456009	-0.505165
07714		9.629101	-0.293092	-1.656300	0.008497	-0.001012	-0.001911	-0.762451	0.509521	0.264893	0.396886	-0.615926	-0.456098	-0.505065
07715		9.622611	-0.276848	-1.694360	0.010687	-0.003109	-0.002644	-0.751953	0.502930	0.259521	0.396918	-0.615902	-0.456171	-0.505003
07716		9.636855	-0.261562	-1.683286	0.007728	-0.002174	-0.001357	-0.763184	0.511230	0.260986	0.396952	-0.615886	-0.456220	-0.504953
07717		9.625160	-0.265176	-1.713974	-0.000472	-0.003593	-0.000812	-0.756836	0.504639	0.269043	0.396935	-0.615909	-0.456231	-0.504927
07718		9.634421	-0.267198	-1.715179	-0.002517	-0.005068	-0.002741	-0.755371	0.503906	0.264160	0.396814	-0.615996	-0.456200	-0.504945
07719		9.623891	-0.306288	-1.701315	-0.004510	-0.006171	-0.000333	-0.764160	0.505859	0.272461	0.396714	-0.616087	-0.456168	-0.504942
07720		9.616421	-0.296514	-1.682459	-0.004157	-0.008196	0.002022	-0.759277	0.509766	0.263428	0.396577	-0.616227	-0.456105	-0.504935
07721		9.632410	-0.310442	-1.696177	-0.000561	-0.013685	0.003567	-0.766357	0.506836	0.262939	0.396516	-0.616357	-0.456116	-0.504814
07722		9.651393	-0.275261	-1.705309	0.004818	-0.014970	0.002875	-0.753418	0.506104	0.268555	0.396477	-0.616439	-0.456194	-0.504674
07723		9.644086	-0.262936	-1.716539	0.003282	-0.007873	0.000799	-0.763428	0.509766	0.265137	0.396423	-0.616533	-0.456188	-0.504607
07724		9.631730	-0.270963	-1.709342	0.002925	-0.005882	-0.000942	-0.753662	0.510498	0.261963	0.396397	-0.616565	-0.456221	-0.504558
07725		9.633487	-0.300721	-1.723613	0.004285	-0.004931	0.000958	-0.757324	0.507568	0.264160	0.396423	-0.616602	-0.456239	-0.504476
07726		9.616878	-0.286552	-1.723638	0.007087	-0.007042	-0.001011	-0.762451	0.506592	0.261475	0.396423	-0.616627	-0.456300	-0.504391
07727		9.637012	-0.326348	-1.689531	0.007044	-0.002666	-0.002006	-0.762207	0.506348	0.268311	0.396451	-0.616589	-0.456373	-0.504349
07728		9.608935	-0.315604	-1.718648	0.012051	-0.002093	-0.001983	-0.760742	0.501709	0.266113	0.396482	-0.616561	-0.456438	-0.504301
07729		9.611482	-0.304489	-1.737959	0.017019	-0.006531	-0.000382	-0.759033	0.504639	0.264648	0.396533	-0.616532	-0.456556	-0.504189
07730		9.630374	-0.272101	-1.716788	0.010687	-0.012497	-0.000075	-0.749756	0.504639	0.260742	0.396521	-0.616574	-0.456662	-0.504051
07731		9.622743	-0.262647	-1.699019	-0.003341	-0.011374	0.001861	-0.758057	0.506348	0.271240	0.396446	-0.616690	-0.456660	-0.503970
07732		9.629312	-0.273608	-1.712415	-0.006732	-0.009020	0.000762	-0.759521	0.512451	0.265625	0.396295	-0.616839	-0.456596	-0.503965
07733		9.640603	-0.269526	-1.684643	-0.006723	-0.008922	-0.001082	-0.754395	0.507568	0.262939	0.396186	-0.616947	-0.456577	-0.503936
07734		9.637762	-0.278510	-1.687574	-0.000266	-0.006694	-0.000977	-0.761719	0.511230	0.262207	0.396144	-0.617000	-0.456594	-0.503888
07735		9.632453	-0.297249	-1.691178	-0.000195	-0.006188	0.000900	-0.758789	0.506836	0.261475	0.396131	-0.617041	-0.456614	-0.503830
07736		9.644276	-0.288298	-1.711503	-0.002931	-0.008222	-0.000436	-0.750000	0.505615	0.271484	0.396068	-0.617099	-0.456638	-0.503786
07737		9.630197	-0.264025	-1.710558	-0.002364	-0.003861	-0.002668	-0.763672	0.502686	0.262207	0.395964	-0.617188	-0.456589	-0.503804
07738		9.625205	-0.280263	-1.732804	0.000897	-0.002543	-0.000756	-0.760742	0.497070	0.263428	0.395945	-0.617174	-0.456624	-0.503803
07739		9.605635	-0.312998	-1.757438	0.003820	-0.008425	-0.001697	-0.749023	0.509277	0.271484	0.395886	-0.617185	-0.456706	-0.503763
07740		9.626351	-0.311826	-1.729985	0.005310	-0.011211	0.000615	-0.762207	0.511719	0.270996	0.395833	-0.617306	-0.456711	-0.503651
07741		9.612215	-0.286505	-1.749459	0.001825	-0.009625	0.002560	-0.752930	0.510742	0.266846	0.395783	-0.617410	-0.456705	-0.503568
07742		9.625691	-0.309726	-1.763883	0.008583	-0.009729	-0.000548	-0.758301	0.512939	0.263184	0.395788	-0.617463	-0.456769	-0.503442
07743		9.630010	-0.295221	-1.725289	0.009800	-0.009823	-0.001790	-0.755371	0.510010	0.260742	0.395822	-0.617470	-0.456883	-0.503303
07744		9.629766	-0.292547	-1.756916	0.005909	-0.011388	0.002455	-0.759766	0.513672	0.271240	0.395848	-0.617522	-0.456957	-0.503152
07745		9.629309	-0.293044	-1.759336	0.002520	-0.008969	0.000130	-0.761475	0.512939	0.264893	0.395799	-0.617610	-0.456967	-0.503074
07746		9.624336	-0.274918	-1.730035	0.001996	-0.008253	-0.000447	-0.755127	0.514160	0.265137	0.395780	-0.617652	-0.457014	-0.502993
07747		9.635272	-0.308287	-1.735495	0.005628	-0.008794	0.000745	-0.756592	0.512451	0.267822	0.395798	-0.617704	-0.457062	-0.502871
07748		9.625682	-0.303063	-1.766278	-0.000881	-0.006745	0.001494	-0.756836	0.512451	0.264648	0.395762	-0.617788	-0.457044	-0.502813
07749		9.615890	-0.302731	-1.747903	-0.000478	-0.003626	-0.000191	-0.756592	0.508789	0.264160	0.395755	-0.617821	-0.457045	-0.502777
07750		9.606349	-0.298056	-1.768390	0.002156	-0.007012	-0.000998	-0.759521	0.507568	0.269531	0.395735	-0.617852	-0.457091	-0.502713
07751		9.632538	-0.273988	-1.777136	0.005262	-0.006869	0.000231	-0.750000	0.508789	0.261963	0.395714	-0.617893	-0.457126	-0.502648
07752		9.626967	-0.297226	-1.741850	-0.001409	-0.006093	0.002148	-0.751221	0.506836	0.271240	0.395706	-0.617957	-0.457119	-0.502581
07753		9.619717	-0.286568	-1.732445	-0.009445	-0.006238	0.001556	-0.758545	0.513916	0.259766	0.395575	-0.618101	-0.457023	-0.502595
07754		9.626507	-0.297276	-1.744380	-0.013128	-0.001420	0.001211	-0.757568	0.512207	0.274170	0.395525	-0.618159	-0.456956	-0.502624
07755		9.614038	-0.340908	-1.778698	-0.008488	0.001046	0.001324	-0.752686	0.511963	0.273438	0.395444	-0.618252	-0.456830	-0.502687
07756		9.607062	-0.327980	-1.787832	-0.000192	-0.006155	0.000288	-0.754150	0.505859	0.267334	0.395385	-0.618351	-0.456793	-0.502645
07757		9.619204	-0.283451	-1.765306	0.001749	-0.010196	0.001914	-0.750732	0.513916	0.273193	0.395342	-0.618433	-0.456817	-0.502557
07758		9.621455	-0.273426	-1.775710	-0.003593	-0.003931	0.001655	-0.758301	0.505615	0.269043	0.395287	-0.618546	-0.456736	-0.502535
07759		9.620567	-0.314562	-1.771181	0.005665	-0.003750	-0.001458	-0.742676	0.519775	0.263672	0.395281	-0.618545	-0.456781	-0.502501
07760		9.629792	-0.317217	-1.772509	0.013988	-0.006103	-0.001004	-0.753662	0.503662	0.274414	0.395404	-0.618545	-0.456870	-0.502323
07761		9.625186	-0.295598	-1.781331	0.010950	-0.005869	0.002105	-0.754150	0.515625	0.263184	0.395415	-0.618586	-0.456896	-0.502239
07762		9.611166	-0.272741	-1.779839	0.010744	-0.002735	0.001656	-0.751465	0.513916	0.271484	0.395534	-0.618562	-0.456958	-0.502119
07763		9.615446	-0.293020	-1.802356	0.015957	-0.005296	0.002113	-0.760742	0.510742	0.268799	0.395633	-0.618576	-0.457015	-0.501971
07764		9.622050	-0.308245	-1.785072	0.021731	-0.003561	0.001562	-0.760498	0.507568	0.266602	0.395785	-0.618509	-0.457140	-0.501821
07765		9.605620	-0.294003	-1.793877	0.007185	-0.001718	0.002959	-0.761475	0.509521	0.264160	0.395843	-0.618497	-0.457166	-0.501765
07766		9.607997	-0.284569	-1.803487	0.001697	-0.005949	0.003380	-0.758301	0.507080	0.266113	0.395855	-0.618530	-0.457188	-0.501696
07767		9.619480	-0.282791	-1.765367	0.001615	-0.006617	0.004578	-0.754883	0.509521	0.277832	0.395853	-0.618587	-0.457189	-0.501625
07768		9.635473	-0.298552	-1.768438	-0.000893	-0.006999	0.006420	-0.750488	0.508545	0.269287	0.395791	-0.618738	-0.457095	-0.501575
07769		9.637005	-0.331605	-1.763116	-0.004654	-0.002784	0.006042	-0.758057	0.509033	0.272949	0.395763	-0.618843	-0.456995	-0.501557
07770		9.632526	-0.310070	-1.771321	-0.010181	-0.002511	0.003001	-0.752930	0.506104	0.265381	0.395657	-0.618957	-0.456881	-0.501605
07771		9.609171	-0.285175	-1.759366	-0.007438	-0.000445	0.003712	-0.762695	0.510498	0.273438	0.395621	-0.619019	-0.456800	-0.501631
07772		9.613523	-0.305063	-1.781364	-0.010105	-0.002003	0.004877	-0.748779	0.512939	0.268066	0.395532	-0.619131	-0.456677	-0.501675
07773		9.595721	-0.368390	-1.818207	-0.015195	-0.003243	0.006070	-0.748047	0.510498	0.276123	0.395443	-0.619290	-0.456518	-0.501694
07774		9.599808	-0.391188	-1.811845	0.006630	-0.005791	-0.000339	-0.751465	0.514648	0.271729	0.395422	-0.619357	-0.456517	-0.501628
07775		9.627892	-0.397295	-1.833306	0.029292	-0.006866	-0.001744	-0.748779	0.516602	0.270508	0.395595	-0.619286	-0.456702	-0.501411
07776		9.597491	-0.362337	-1.810908	0.026737	-0.003002	0.001555	-0.747070	0.524414	0.275879	0.395801	-0.619224	-0.456826	-0.501211
07777		9.631443	-0.313409	-1.796042	0.022659	-0.001139	-0.000175	-0.755859	0.514404	0.263672	0.395969	-0.619201	-0.456890	-0.501050
07778		9.615113	-0.298316	-1.804482	0.024405	-0.001698	-0.005760	-0.758545	0.514893	0.269775	0.396141	-0.619051	-0.457098	-0.500909
07779		9.619355	-0.324376	-1.757851	0.023672	0.002056	-0.004946	-0.752441	0.510986	0.269043	0.396302	-0.618910	-0.457250	-0.500816
07780		9.621413	-0.350813	-1.799341	0.014869	0.000724	-0.004353	-0.759277	0.512939	0.262207	0.396385	-0.618832	-0.457342	-0.500764
07781		9.602483	-0.349525	-1.759720	0.020400	0.000580	-0.003771	-0.745605	0.511475	0.272949	0.396548	-0.618687	-0.457510	-0.500661
07782		9.612865	-0.309142	-1.784212	0.020353	0.004859	-0.002936	-0.758057	0.515625	0.266357	0.396687	-0.618600	-0.457567	-0.500604
07783		9.599321	-0.284123	-1.790429	0.004201	0.003938	-0.003520	-0.755127	0.521240	0.265625	0.396731	-0.618544	-0.457587	-0.500622
07784		9.608930	-0.283338	-1.819474	-0.005088	-0.001207	0.000580	-0.756592	0.513672	0.268555	0.396717	-0.618598	-0.457536	-0.500612
07785		9.610722	-0.316400	-1.793175	-0.006945	0.003527	-0.002870	-0.753906	0.508545	0.262939	0.396660	-0.618614	-0.457470	-0.500697
07786		9.614442	-0.379049	-1.779436	-0.000524	0.000746	-0.001193	-0.753662	0.510742	0.267334	0.396662	-0.618600	-0.457472	-0.500712
07787		9.622017	-0.352372	-1.756934	0.005014	0.000758	-0.003684	-0.752930	0.510742	0.263184	0.396676	-0.618567	-0.457504	-0.500713
07788		9.634794	-0.304869	-1.751565	0.011553	0.003619	-0.004187	-0.754395	0.512207	0.264893	0.396773	-0.618464	-0.457585	-0.500689
07789		9.641981	-0.316357	-1.751250	0.010898	0.007978	-0.003348	-0.751465	0.505615	0.267334	0.396890	-0.618349	-0.457626	-0.500701
07790		9.609759	-0.283829	-1.775921	0.005051	0.005795	-0.005896	-0.757568	0.510010	0.269775	0.396903	-0.618274	-0.457644	-0.500766
07791		9.628953	-0.288750	-1.764807	0.009165	0.008944	-0.005756	-0.755371	0.511230	0.263916	0.396965	-0.618164	-0.457668	-0.500831
07792		9.611743	-0.353171	-1.769163	0.012280	0.009305	-0.008833	-0.754883	0.508057	0.266357	0.397064	-0.617999	-0.457757	-0.500875
07793		9.592555	-0.387786	-1.761247	0.001861	0.004951	-0.005308	-0.757568	0.509277	0.270264	0.397059	-0.617944	-0.457761	-0.500944
07794		9.567214	-0.363166	-1.827213	0.005382	-0.001135	-0.003777	-0.757324	0.512939	0.270020	0.397039	-0.617933	-0.457789	-0.500948
07795		9.584201	-0.333512	-1.864445	0.026637	-0.008250	-0.003605	-0.751709	0.510498	0.258545	0.397155	-0.617864	-0.457983	-0.500762
07796		9.631366	-0.314241	-1.785318	0.025659	-0.006369	-0.001657	-0.762207	0.514648	0.266602	0.397336	-0.617757	-0.458196	-0.500557
07797		9.626619	-0.297307	-1.745287	0.001577	-0.002111	0.001122	-0.760742	0.511230	0.260498	0.397340	-0.617778	-0.458192	-0.500531
07798		9.647878	-0.296511	-1.705755	-0.006342	0.003410	-0.002270	-0.753174	0.509277	0.270020	0.397314	-0.617756	-0.458166	-0.500602
07799		9.616669	-0.337180	-1.708798	-0.003432	0.006930	-0.006423	-0.754639	0.511719	0.275391	0.397256	-0.617732	-0.458111	-0.500728
07800		9.583823	-0.343135	-1.747414	-0.013979	0.006282	-0.002712	-0.756348	0.508789	0.261719	0.397118	-0.617811	-0.457937	-0.500900
07801		9.600557	-0.351201	-1.806556	-0.004482	-0.001320	0.001186	-0.753906	0.516602	0.264404	0.397091	-0.617842	-0.457906	-0.500911
07802		9.619716	-0.320294	-1.764991	-0.000114	-0.005640	0.002186	-0.754150	0.517578	0.271729	0.397089	-0.617909	-0.457895	-0.500840
07803		9.639041	-0.283169	-1.782343	-0.021109	-0.005879	0.000416	-0.753174	0.514648	0.264648	0.396881	-0.618105	-0.457730	-0.500914
07804		9.635709	-0.333208	-1.768593	-0.025760	0.001060	-0.002915	-0.750732	0.507568	0.270264	0.396683	-0.618225	-0.457566	-0.501072
07805		9.597388	-0.363635	-1.751881	-0.009369	0.003868	-0.003463	-0.754883	0.515625	0.268311	0.396582	-0.618267	-0.457465	-0.501192
07806		9.602553	-0.342007	-1.769323	-0.002211	-0.002693	-0.001975	-0.749268	0.513672	0.261230	0.396539	-0.618313	-0.457445	-0.501189
07807		9.631514	-0.306092	-1.795707	-0.000315	-0.002356	-0.001350	-0.756592	0.519775	0.266357	0.396546	-0.618328	-0.457458	-0.501153
07808		9.617564	-0.284793	-1.764216	0.000929	0.002462	-0.002346	-0.759766	0.516846	0.260498	0.396574	-0.618314	-0.457447	-0.501158
07809		9.636719	-0.285043	-1.803015	-0.007790	0.001817	-0.003572	-0.755371	0.511963	0.273926	0.396541	-0.618305	-0.457431	-0.501210
07810		9.627399	-0.279907	-1.812383	-0.003777	-0.000334	-0.008013	-0.758545	0.511719	0.269287	0.396426	-0.618329	-0.457412	-0.501288
07811		9.596076	-0.321019	-1.806496	-0.008603	0.005058	-0.004638	-0.756348	0.508545	0.268555	0.396347	-0.618334	-0.457340	-0.501410
07812		9.598063	-0.353630	-1.779490	0.001613	0.002988	-0.002321	-0.757324	0.520508	0.269287	0.396345	-0.618314	-0.457325	-0.501451
07813		9.588727	-0.349950	-1.788720	0.015840	-0.001325	-0.002601	-0.756104	0.505371	0.261230	0.396455	-0.618260	-0.457416	-0.501346
07814		9.610673	-0.303866	-1.804218	0.020289	-0.005040	-0.001574	-0.758789	0.511230	0.265137	0.396580	-0.618168	-0.457588	-0.501204
07815		9.648720	-0.279035	-1.752910	0.005006	0.000578	0.000007	-0.760986	0.504395	0.264893	0.396625	-0.618143	-0.457606	-0.501182
07816		9.618484	-0.242505	-1.729446	-0.002180	0.002282	-0.002958	-0.757324	0.506348	0.270264	0.396587	-0.618115	-0.457601	-0.501252
07817		9.608695	-0.277216	-1.751924	-0.000728	0.003999	-0.004111	-0.751709	0.510010	0.267578	0.396545	-0.618096	-0.457571	-0.501336
07818		9.622067	-0.341593	-1.747775	-0.004007	0.002304	0.001365	-0.760010	0.507080	0.265381	0.396527	-0.618137	-0.457489	-0.501374
07819		9.612762	-0.337173	-1.766750	-0.006140	0.000154	0.000650	-0.765869	0.509766	0.264160	0.396475	-0.618170	-0.457436	-0.501424
07820		9.629606	-0.313408	-1.744843	-0.005694	-0.001165	0.001199	-0.758789	0.513184	0.270264	0.396433	-0.618196	-0.457405	-0.501452
07821		9.622721	-0.299432	-1.763379	-0.003793	-0.000705	-0.000635	-0.753662	0.513428	0.263672	0.396382	-0.618243	-0.457354	-0.501482
07822		9.617790	-0.316015	-1.784767	-0.004242	0.000552	0.000046	-0.749268	0.508789	0.268799	0.396372	-0.618270	-0.457313	-0.501495
07823		9.610260	-0.344021	-1.787688	-0.003188	-0.000815	-0.000027	-0.747559	0.509521	0.267090	0.396327	-0.618326	-0.457253	-0.501515
07824		9.631626	-0.340572	-1.777304	-0.002188	0.002098	0.000731	-0.749023	0.513672	0.265625	0.396323	-0.618360	-0.457186	-0.501539
07825		9.612861	-0.336239	-1.766386	0.006703	0.004262	-0.004128	-0.754639	0.506104	0.265869	0.396386	-0.618301	-0.457210	-0.501538
07826		9.613163	-0.331867	-1.804674	0.011073	-0.000057	-0.003131	-0.760986	0.515137	0.266113	0.396440	-0.618239	-0.457285	-0.501504
07827		9.606324	-0.321743	-1.783138	0.012628	0.007118	-0.002778	-0.756348	0.509521	0.261475	0.396570	-0.618123	-0.457339	-0.501495
07828		9.616132	-0.323033	-1.791362	0.010047	0.006255	-0.003426	-0.760010	0.510498	0.264160	0.396677	-0.618007	-0.457401	-0.501498
07829		9.604551	-0.325810	-1.830104	0.006828	0.000434	-0.001855	-0.755615	0.515137	0.273682	0.396723	-0.617958	-0.457451	-0.501475
07830		9.616348	-0.323535	-1.780310	0.006540	0.002961	-0.002344	-0.763184	0.513184	0.265381	0.396751	-0.617947	-0.457433	-0.501483
07831		9.616514	-0.323303	-1.779455	0.004799	0.003771	-0.001680	-0.750732	0.506592	0.267822	0.396802	-0.617891	-0.457451	-0.501496
07832		9.616576	-0.324121	-1.769160	0.004403	0.000718	-0.001214	-0.757812	0.507080	0.262939	0.396811	-0.617888	-0.457443	-0.501499
07833		9.628501	-0.318798	-1.748594	0.002748	0.002255	-0.002980	-0.758301	0.513428	0.262939	0.396824	-0.617841	-0.457468	-0.501524
07834		9.643140	-0.301825	-1.745955	0.001326	0.005544	-0.003428	-0.749512	0.512695	0.265869	0.396860	-0.617781	-0.457472	-0.501566
07835		9.629031	-0.315939	-1.756025	-0.002381	0.005563	-0.006494	-0.756592	0.506836	0.268799	0.396836	-0.617751	-0.457445	-0.501646
07836		9.635906	-0.363660	-1.788718	0.001566	0.007418	-0.004568	-0.753418	0.512451	0.263916	0.396834	-0.617697	-0.457415	-0.501742
07837		9.591076	-0.381945	-1.778644	0.006517	0.012308	-0.004343	-0.752197	0.520020	0.268555	0.396937	-0.617579	-0.457409	-0.501812
07838		9.609120	-0.312476	-1.799251	0.015194	0.003283	-0.006669	-0.758789	0.512207	0.275879	0.397040	-0.617489	-0.457492	-0.501764
07839		9.621263	-0.305642	-1.787517	0.022942	0.006028	-0.007791	-0.754639	0.517090	0.265625	0.397155	-0.617352	-0.457593	-0.501750
07840		9.602525	-0.303910	-1.746285	0.008619	0.009485	-0.002644	-0.759766	0.502441	0.264648	0.397269	-0.617263	-0.457589	-0.501772
07841		9.612341	-0.306505	-1.734494	-0.008052	0.009275	-0.004449	-0.761475	0.507080	0.266357	0.397205	-0.617224	-0.457510	-0.501943
07842		9.631615	-0.309115	-1.743019	-0.006257	0.004125	-0.004708	-0.751221	0.509766	0.260498	0.397128	-0.617216	-0.457463	-0.502058
07843		9.626864	-0.326519	-1.743881	-0.005573	0.004651	-0.004684	-0.763428	0.505127	0.267578	0.397095	-0.617197	-0.457429	-0.502138
07844		9.640807	-0.352141	-1.715867	-0.001866	0.004665	-0.002229	-0.750977	0.514893	0.268311	0.397060	-0.617178	-0.457384	-0.502229
07845		9.637227	-0.288124	-1.728090	0.001327	0.005573	-0.004042	-0.755615	0.509033	0.262207	0.397071	-0.617161	-0.457342	-0.502281
07846		9.642554	-0.267970	-1.724460	0.000520	0.008933	-0.007571	-0.748779	0.511719	0.271484	0.397081	-0.617068	-0.457345	-0.502384
07847		9.628857	-0.279695	-1.752779	-0.007657	0.012356	-0.005531	-0.751953	0.507812	0.264160	0.397030	-0.617061	-0.457203	-0.502562
07848		9.612554	-0.304582	-1.742349	-0.007183	0.016044	-0.006582	-0.760986	0.512939	0.254883	0.397017	-0.616983	-0.457097	-0.502764
07849		9.612987	-0.340054	-1.772007	-0.002044	0.012892	-0.006134	-0.760254	0.510742	0.262939	0.397077	-0.616851	-0.457095	-0.502880
07850		9.611248	-0.346093	-1.789521	0.003860	0.010902	-0.006246	-0.747803	0.508057	0.260742	0.397131	-0.616737	-0.457099	-0.502975
07851		9.600242	-0.312615	-1.774013	0.005678	0.010668	-0.006261	-0.749756	0.508545	0.261719	0.397204	-0.616628	-0.457104	-0.503046
07852		9.612457	-0.305833	-1.761609	0.014133	0.004541	-0.004116	-0.760254	0.504395	0.258789	0.397315	-0.616530	-0.457173	-0.503015
07853		9.621988	-0.309597	-1.741035	0.006257	0.005584	-0.004666	-0.758057	0.514893	0.264160	0.397365	-0.616428	-0.457224	-0.503055
07854		9.627000	-0.291735	-1.718569	0.001702	0.003711	-0.004749	-0.757568	0.507568	0.270752	0.397374	-0.616395	-0.457223	-0.503090
07855		9.641313	-0.277156	-1.686842	-0.006338	0.003455	-0.003515	-0.752930	0.511719	0.254883	0.397280	-0.616434	-0.457130	-0.503201
07856		9.646173	-0.295544	-1.707455	-0.000122	0.003885	-0.003505	-0.750732	0.513916	0.253906	0.397316	-0.616384	-0.457144	-0.503219
07857		9.650968	-0.316875	-1.697788	-0.000846	0.012614	-0.003689	-0.749268	0.509521	0.266846	0.397406	-0.616285	-0.457112	-0.503299
07858		9.648935	-0.326959	-1.675978	-0.004846	0.015062	-0.005410	-0.754639	0.518066	0.266113	0.397402	-0.616234	-0.456989	-0.503476
07859		9.619308	-0.286438	-1.678723	0.006150	0.014357	-0.007308	-0.763428	0.506592	0.259521	0.397490	-0.616116	-0.456964	-0.503574
07860		9.615287	-0.300978	-1.706507	0.007126	0.012358	-0.006791	-0.754150	0.510498	0.259521	0.397570	-0.615960	-0.456996	-0.503672
07861		9.604235	-0.303790	-1.733580	-0.000996	0.011464	-0.004978	-0.753174	0.513184	0.265381	0.397606	-0.615881	-0.456951	-0.503781
07862		9.613869	-0.306888	-1.712320	-0.003673	0.005015	-0.004678	-0.755371	0.514893	0.258301	0.397569	-0.615887	-0.456887	-0.503862
07863		9.640202	-0.284332	-1.689056	-0.005420	0.005793	-0.003406	-0.755127	0.506836	0.259766	0.397565	-0.615872	-0.456835	-0.503931
07864		9.635782	-0.262961	-1.676248	-0.005125	0.003297	-0.003529	-0.756104	0.513184	0.263184	0.397520	-0.615871	-0.456792	-0.504005
07865		9.640649	-0.281264	-1.697192	-0.004145	0.001328	-0.003628	-0.763428	0.509766	0.265381	0.397474	-0.615894	-0.456750	-0.504052
07866		9.654802	-0.303934	-1.698578	-0.001780	0.005358	-0.004045	-0.760254	0.506348	0.267822	0.397446	-0.615871	-0.456709	-0.504139
07867		9.628963	-0.288760	-1.666099	-0.002891	0.011122	-0.005607	-0.757080	0.504883	0.258301	0.397416	-0.615821	-0.456627	-0.504298
07868		9.620263	-0.282150	-1.692946	-0.000332	0.007047	-0.004578	-0.757812	0.511230	0.255615	0.397424	-0.615758	-0.456614	-0.504381
07869		9.623179	-0.270048	-1.710227	0.002220	0.002912	-0.002321	-0.760986	0.504395	0.260498	0.397469	-0.615714	-0.456631	-0.504384
07870		9.642591	-0.271050	-1.738865	-0.000786	0.003509	-0.006602	-0.764648	0.508545	0.257812	0.397428	-0.615666	-0.456642	-0.504464
07871		9.625857	-0.297426	-1.720665	-0.000710	0.008908	-0.003869	-0.756592	0.507080	0.260986	0.397457	-0.615586	-0.456623	-0.504557
07872		9.625907	-0.299351	-1.689424	0.004143	0.008320	-0.004516	-0.762451	0.510986	0.260010	0.397501	-0.615508	-0.456615	-0.504624
07873		9.621667	-0.277062	-1.685790	0.003077	0.004799	-0.005307	-0.756592	0.509033	0.262939	0.397523	-0.615443	-0.456635	-0.504668
07874		9.629135	-0.286087	-1.705176	0.006706	0.004275	-0.004101	-0.760010	0.509766	0.258301	0.397563	-0.615390	-0.456648	-0.504688
07875		9.626654	-0.296716	-1.685626	0.007919	0.004121	-0.004108	-0.757324	0.511963	0.261719	0.397630	-0.615310	-0.456697	-0.504690
07876		9.645693	-0.263833	-1.651959	0.006467	0.002401	-0.002961	-0.762207	0.510498	0.257324	0.397676	-0.615275	-0.456714	-0.504682
07877		9.651084	-0.241511	-1.678549	0.002837	0.002924	-0.004168	-0.760498	0.509277	0.262451	0.397700	-0.615221	-0.456742	-0.504702
07878		9.646655	-0.257597	-1.698766	0.000794	0.006226	-0.003389	-0.760986	0.508057	0.266846	0.397709	-0.615184	-0.456709	-0.504771
07879		9.624993	-0.304208	-1.672169	-0.002303	0.010922	-0.003157	-0.760254	0.510742	0.261963	0.397702	-0.615149	-0.456611	-0.504906
07880		9.637507	-0.294428	-1.688848	0.006791	0.004941	-0.005298	-0.769531	0.512695	0.257568	0.397743	-0.615080	-0.456637	-0.504935
07881		9.626122	-0.298712	-1.707799	0.012397	0.005427	-0.004656	-0.755615	0.511475	0.258545	0.397852	-0.614953	-0.456724	-0.504925
07882		9.632965	-0.275865	-1.645018	0.009577	0.007478	-0.001476	-0.759033	0.510254	0.265625	0.397969	-0.614873	-0.456732	-0.504924
07883		9.629171	-0.250532	-1.680438	0.000559	0.004381	-0.002865	-0.755127	0.509766	0.258057	0.397957	-0.614870	-0.456681	-0.504983
07884		9.634219	-0.268991	-1.700820	-0.004359	0.004452	-0.004096	-0.755127	0.511963	0.267822	0.397930	-0.614862	-0.456635	-0.505055
07885		9.652834	-0.314905	-1.684122	-0.000346	0.006955	-0.002738	-0.758301	0.506592	0.254395	0.397924	-0.614866	-0.456548	-0.505135
07886		9.655117	-0.307629	-1.652717	-0.000124	0.003854	-0.002891	-0.752441	0.508301	0.256592	0.397938	-0.614826	-0.456545	-0.505174
07887		9.657531	-0.299479	-1.630996	0.010122	0.006916	-0.003964	-0.759277	0.508545	0.254883	0.398039	-0.614730	-0.456579	-0.505180
07888		9.649167	-0.253495	-1.653959	0.014310	0.010777	-0.005618	-0.763672	0.510010	0.258545	0.398188	-0.614563	-0.456651	-0.505202
07889		9.666661	-0.186694	-1.644822	0.006805	0.009885	-0.005669	-0.760254	0.506104	0.257080	0.398260	-0.614448	-0.456668	-0.505270
07890		9.650331	-0.212013	-1.634672	-0.003485	0.016164	-0.006606	-0.761475	0.509521	0.254395	0.398279	-0.614337	-0.456597	-0.505453
07891		9.611147	-0.284393	-1.697302	-0.012583	0.017286	-0.005947	-0.760498	0.512207	0.257812	0.398257	-0.614260	-0.456469	-0.505680
07892		9.588023	-0.334899	-1.719198	-0.009884	0.009450	-0.003863	-0.761719	0.511230	0.254395	0.398217	-0.614248	-0.456363	-0.505821
07893		9.623737	-0.353045	-1.718963	0.001696	0.003624	-0.002899	-0.758057	0.511963	0.250732	0.398250	-0.614206	-0.456369	-0.505842
07894		9.621206	-0.325936	-1.675748	0.006533	0.007807	-0.000221	-0.762939	0.498535	0.255615	0.398377	-0.614121	-0.456374	-0.505840
07895		9.631412	-0.287331	-1.679692	0.009053	0.008224	-0.002659	-0.764404	0.505127	0.254150	0.398456	-0.614010	-0.456399	-0.505889
07896		9.634141	-0.239306	-1.653366	0.012782	0.008457	-0.004488	-0.769775	0.505615	0.255127	0.398573	-0.613866	-0.456468	-0.505910
07897		9.651045	-0.253061	-1.652145	0.014224	0.010119	-0.004404	-0.759766	0.506104	0.268311	0.398706	-0.613702	-0.456539	-0.505941
07898		9.653498	-0.284370	-1.642888	0.009201	0.009404	-0.001985	-0.762207	0.509033	0.258301	0.398766	-0.613648	-0.456488	-0.506005
07899		9.651031	-0.296404	-1.612068	0.005792	0.011678	-0.001882	-0.759277	0.509766	0.251709	0.398856	-0.613558	-0.456449	-0.506077
07900		9.625325	-0.319232	-1.611994	0.011203	0.010560	-0.005618	-0.762207	0.503174	0.251221	0.398985	-0.613410	-0.456501	-0.506109
07901		9.635458	-0.280529	-1.605738	0.015386	0.009507	-0.007506	-0.758789	0.505859	0.258545	0.399111	-0.613227	-0.456606	-0.506137
07902		9.619444	-0.264424	-1.612650	0.019004	0.004046	-0.005911	-0.758789	0.510742	0.248047	0.399223	-0.613105	-0.456709	-0.506103
07903		9.601244	-0.255560	-1.651232	0.020493	-0.003633	-0.003811	-0.765137	0.504883	0.253906	0.399365	-0.613002	-0.456887	-0.505955
07904		9.655009	-0.281482	-1.634480	0.011817	-0.008862	-0.000390	-0.752686	0.507812	0.258057	0.399394	-0.613004	-0.456994	-0.505833
07905		9.689299	-0.267087	-1.564804	0.006220	0.000475	-0.000576	-0.753418	0.509277	0.266602	0.399428	-0.613010	-0.456983	-0.505809
07906		9.663376	-0.210825	-1.550245	-0.003763	-0.000609	-0.003119	-0.761963	0.502441	0.257080	0.399334	-0.613090	-0.456897	-0.505863
07907		9.661830	-0.214426	-1.599752	-0.012159	0.001150	-0.004905	-0.762207	0.509033	0.256836	0.399192	-0.613136	-0.456821	-0.505989
07908		9.647593	-0.268616	-1.614734	0.000801	0.001363	-0.004860	-0.759766	0.509766	0.252441	0.399167	-0.613119	-0.456825	-0.506025
07909		9.651618	-0.331866	-1.590883	0.013073	0.001019	-0.004227	-0.755127	0.502441	0.260010	0.399258	-0.613036	-0.456917	-0.505971
07910		9.645255	-0.316178	-1.628739	0.012141	-0.001438	-0.001882	-0.762451	0.510498	0.248291	0.399298	-0.613017	-0.456959	-0.505924
07911		9.628981	-0.260591	-1.634417	0.001843	-0.005002	-0.003311	-0.757812	0.508301	0.251953	0.399289	-0.613015	-0.457024	-0.505876
07912		9.624083	-0.238443	-1.634178	-0.009077	-0.008575	-0.002894	-0.760498	0.504883	0.249268	0.399162	-0.613111	-0.457012	-0.505870
07913		9.637466	-0.263053	-1.619156	-0.013115	-0.011256	-0.000568	-0.756836	0.504395	0.254883	0.399006	-0.613240	-0.456988	-0.505858
07914		9.643724	-0.315279	-1.616974	-0.006365	-0.011460	-0.001177	-0.766113	0.510010	0.260010	0.398877	-0.613358	-0.456985	-0.505820
07915		9.662231	-0.319482	-1.619734	-0.003702	-0.009893	-0.002328	-0.761963	0.510010	0.258057	0.398762	-0.613453	-0.456992	-0.505789
07916		9.635605	-0.265036	-1.587907	0.006297	-0.008720	-0.001634	-0.755615	0.502197	0.269775	0.398745	-0.613493	-0.457054	-0.505699
07917		9.629398	-0.245805	-1.666983	0.007282	-0.010687	-0.001726	-0.756836	0.512939	0.254395	0.398664	-0.613587	-0.457076	-0.505628
07918		9.634311	-0.262500	-1.720269	0.001507	-0.012507	0.000024	-0.753174	0.510254	0.253418	0.398622	-0.613680	-0.457119	-0.505509
07919		9.606790	-0.330740	-1.680480	-0.004720	-0.008127	0.002069	-0.760986	0.510742	0.255127	0.398569	-0.613787	-0.457087	-0.505450
07920		9.621068	-0.232440	-1.694405	0.018654	-0.023116	-0.003531	-0.760986	0.507324	0.256836	0.398568	-0.613834	-0.457327	-0.505178
07921		9.662190	-0.187805	-1.646499	0.004070	-0.026405	0.000606	-0.758545	0.515869	0.258545	0.398448	-0.614000	-0.457455	-0.504954
07922		9.675057	-0.255755	-1.616276	-0.016336	0.002375	0.006253	-0.761719	0.508545	0.250000	0.398387	-0.614132	-0.457254	-0.505023
07923		9.649361	-0.236929	-1.644905	-0.020576	-0.006866	0.004580	-0.757812	0.501465	0.260498	0.398244	-0.614292	-0.457131	-0.505052
07924		9.649981	-0.230175	-1.714807	-0.024943	-0.007342	0.000243	-0.757812	0.515381	0.262207	0.397986	-0.614490	-0.456972	-0.505159
07925		9.628172	-0.274752	-1.710567	-0.030703	0.000726	0.001242	-0.759521	0.502441	0.258789	0.397764	-0.614685	-0.456716	-0.505328
07926		9.603670	-0.292808	-1.664240	-0.033767	-0.004013	0.005323	-0.758789	0.508301	0.263672	0.397501	-0.614923	-0.456460	-0.505478
07927		9.615506	-0.323293	-1.697708	-0.006849	-0.005463	0.003425	-0.752686	0.511475	0.263672	0.397423	-0.615046	-0.456372	-0.505469
07928		9.638848	-0.349142	-1.711385	0.001940	-0.009026	0.003256	-0.762451	0.512695	0.259277	0.397401	-0.615157	-0.456348	-0.505372
07929		9.636402	-0.278917	-1.707031	-0.006921	-0.010924	0.001928	-0.761230	0.509277	0.258301	0.397307	-0.615286	-0.456322	-0.505312
07930		9.640512	-0.263241	-1.677937	-0.007379	-0.004782	0.003459	-0.753418	0.511963	0.260742	0.397251	-0.615382	-0.456257	-0.505298
07931		9.613831	-0.289029	-1.662475	0.010223	-0.006847	0.000284	-0.754639	0.510986	0.265625	0.397300	-0.615408	-0.456314	-0.505177
07932		9.642444	-0.253758	-1.690077	0.018421	-0.010216	-0.002342	-0.752686	0.509277	0.264893	0.397356	-0.615413	-0.456443	-0.505010
07933		9.658377	-0.232338	-1.650183	0.014837	-0.004444	0.002250	-0.761475	0.504883	0.256836	0.397445	-0.615425	-0.456486	-0.504886
07934		9.639636	-0.187885	-1.656589	-0.013776	-0.001784	0.009151	-0.760498	0.508789	0.252197	0.397388	-0.615556	-0.456333	-0.504910
07935		9.637207	-0.235956	-1.691125	-0.036601	-0.002070	0.010985	-0.760254	0.507324	0.260498	0.397191	-0.615800	-0.456037	-0.505035
07936		9.632317	-0.254378	-1.703552	-0.031188	-0.003097	0.005394	-0.759277	0.508057	0.262451	0.396963	-0.616018	-0.455794	-0.505167
07937		9.636681	-0.236355	-1.694066	-0.030591	-0.012973	0.004292	-0.751465	0.512451	0.265137	0.396674	-0.616296	-0.455604	-0.505227
07938		9.626563	-0.274313	-1.700148	-0.047905	-0.003781	0.012149	-0.757812	0.506104	0.261230	0.396359	-0.616668	-0.455175	-0.505406
07939		9.620979	-0.337440	-1.677334	-0.046398	0.003247	0.015586	-0.764404	0.509521	0.258301	0.396117	-0.616977	-0.454728	-0.505621
07940		9.633728	-0.284823	-1.741473	-0.028869	-0.009073	0.008177	-0.755371	0.510254	0.261475	0.395910	-0.617215	-0.454531	-0.505669
07941		9.642744	-0.287765	-1.743961	-0.017782	-0.009060	0.004475	-0.761475	0.504883	0.259033	0.395761	-0.617400	-0.454409	-0.505670
07942		9.629860	-0.340551	-1.700939	-0.019066	0.005045	0.008899	-0.758545	0.513916	0.262939	0.395706	-0.617505	-0.454198	-0.505775
07943		9.627777	-0.349655	-1.720274	-0.009219	0.004962	0.010121	-0.755371	0.506836	0.262695	0.395743	-0.617591	-0.454017	-0.505804
07944		9.623738	-0.287238	-1.743490	0.007076	-0.007361	0.005775	-0.759521	0.511475	0.262451	0.395793	-0.617649	-0.454033	-0.505679
07945		9.623734	-0.286509	-1.763972	0.002253	-0.001674	0.002992	-0.750732	0.511475	0.275391	0.395831	-0.617674	-0.454018	-0.505632
07946		9.606384	-0.318449	-1.718040	-0.005113	0.003341	0.007570	-0.752441	0.511963	0.267578	0.395828	-0.617787	-0.453833	-0.505663
07947		9.622635	-0.335370	-1.709839	0.006093	-0.005394	0.005878	-0.759521	0.514648	0.264160	0.395878	-0.617860	-0.453808	-0.505556
07948		9.653403	-0.333017	-1.729842	0.017248	-0.004875	0.004048	-0.753418	0.511475	0.259033	0.396021	-0.617844	-0.453889	-0.505392
07949		9.648222	-0.318189	-1.679262	0.014547	0.002938	0.002604	-0.751221	0.512451	0.265381	0.396189	-0.617774	-0.453937	-0.505303
07950		9.634416	-0.294887	-1.685958	0.010822	0.002703	0.004443	-0.757324	0.506592	0.272949	0.396319	-0.617759	-0.453919	-0.505234
07951		9.615773	-0.289680	-1.704607	0.017336	0.000644	0.004334	-0.756104	0.510254	0.261230	0.396446	-0.617738	-0.453936	-0.505146
07952		9.622896	-0.302140	-1.715116	0.014918	0.001015	0.003123	-0.758057	0.520752	0.259521	0.396594	-0.617685	-0.453987	-0.505049
07953		9.615510	-0.331711	-1.717959	0.007250	-0.001143	0.004250	-0.760742	0.514160	0.269043	0.396706	-0.617688	-0.453995	-0.504951
07954		9.634334	-0.300880	-1.685369	0.007775	-0.001855	0.004830	-0.762207	0.504150	0.265869	0.396774	-0.617719	-0.453976	-0.504876
07955		9.634336	-0.301518	-1.695425	0.009667	-0.001513	0.005463	-0.764160	0.508057	0.258301	0.396849	-0.617724	-0.453981	-0.504806
07956		9.624864	-0.300655	-1.695124	0.002174	0.002516	0.005671	-0.745361	0.510010	0.264648	0.396923	-0.617716	-0.453948	-0.504788
07957		9.631752	-0.314866	-1.686225	0.006721	-0.000461	0.004286	-0.755859	0.516357	0.258057	0.396996	-0.617747	-0.453914	-0.504722
07958		9.629268	-0.325434	-1.687123	0.009917	0.000453	0.002482	-0.759521	0.515137	0.266113	0.397119	-0.617713	-0.453949	-0.504636
07959		9.619604	-0.326162	-1.667237	0.010668	0.001493	0.004382	-0.757568	0.518555	0.262451	0.397234	-0.617699	-0.453944	-0.504567
07960		9.610733	-0.320208	-1.715364	0.008701	0.000577	0.003105	-0.753418	0.510010	0.266602	0.397340	-0.617687	-0.453950	-0.504493
07961		9.636696	-0.337254	-1.726438	0.007249	-0.001142	0.004252	-0.754639	0.512695	0.270020	0.397401	-0.617713	-0.453928	-0.504432
07962		9.612475	-0.355258	-1.699015	0.009836	-0.000183	0.003067	-0.754395	0.508789	0.267578	0.397474	-0.617725	-0.453915	-0.504372
07963		9.619595	-0.366670	-1.719765	0.021193	-0.002897	0.003543	-0.751465	0.513916	0.261963	0.397621	-0.617691	-0.453993	-0.504228
07964		9.643208	-0.355568	-1.708573	0.030758	-0.000373	0.002432	-0.756104	0.517334	0.252441	0.397879	-0.617576	-0.454142	-0.504031
07965		9.612749	-0.319497	-1.705116	0.035000	-0.000917	0.002406	-0.749268	0.515137	0.255127	0.398200	-0.617410	-0.454359	-0.503785
07966		9.645827	-0.311072	-1.694007	0.028092	-0.001936	0.003592	-0.751709	0.512451	0.266357	0.398457	-0.617309	-0.454509	-0.503571
07967		9.638957	-0.299886	-1.702370	0.019481	0.002975	0.001369	-0.753418	0.513184	0.255127	0.398617	-0.617238	-0.454560	-0.503485
