// Start Time: Unknown
// Update Rate: 40.0Hz
// Filter Profile: human (46.1)
// Firmware Version: 4.6.0
PacketCounter	SampleTimeFine	Acc_X	Acc_Y	Acc_Z	Gyr_X	Gyr_Y	Gyr_Z	Mag_X	Mag_Y	Mag_Z	Quat_q0	Quat_q1	Quat_q2	Quat_q3
62344		5.042660	-1.165247	8.274332	0.001103	-0.004536	0.001494	-0.105469	-0.598145	-0.741455	0.803012	0.095802	-0.258144	0.528541
62345		5.032357	-1.157173	8.273578	-0.000403	-0.003678	0.001755	-0.100098	-0.603760	-0.742920	0.802943	0.095885	-0.258213	0.528597
62346		5.031651	-1.159390	8.286481	-0.000102	-0.006720	0.001935	-0.104004	-0.603271	-0.743896	0.802886	0.095956	-0.258296	0.528630
62347		5.027986	-1.154604	8.278915	-0.000403	-0.003679	0.001755	-0.096191	-0.594971	-0.749023	0.802827	0.096024	-0.258358	0.528677
62348		5.024902	-1.160788	8.262945	-0.000488	-0.005361	0.002868	-0.098389	-0.599121	-0.752197	0.802831	0.095986	-0.258394	0.528660
62349		5.032885	-1.162358	8.298106	-0.000483	-0.005514	0.001374	-0.099365	-0.600830	-0.748047	0.802831	0.095975	-0.258437	0.528641
62350		5.014916	-1.166113	8.266403	-0.000909	-0.005072	0.002116	-0.105713	-0.601807	-0.740723	0.802809	0.095982	-0.258489	0.528648
62351		5.027440	-1.151258	8.269253	-0.001883	-0.006942	0.003029	-0.100586	-0.604492	-0.740723	0.802725	0.096059	-0.258595	0.528710
62352		5.026727	-1.153561	8.282157	0.000723	-0.003331	0.000932	-0.095703	-0.607422	-0.740967	0.802687	0.096121	-0.258621	0.528743
62353		5.022196	-1.161146	8.279660	0.001833	-0.008023	0.000931	-0.092773	-0.597900	-0.748535	0.802653	0.096207	-0.258664	0.528758
62354		5.029171	-1.153581	8.280670	-0.002641	-0.004682	0.000412	-0.102539	-0.603027	-0.748047	0.802685	0.096128	-0.258701	0.528706
62355		5.030652	-1.164826	8.271674	0.000297	-0.002890	0.001674	-0.097412	-0.602051	-0.741699	0.802657	0.096150	-0.258719	0.528736
62356		5.024102	-1.174706	8.282879	-0.000059	-0.005805	0.002125	-0.099121	-0.594727	-0.752441	0.802625	0.096173	-0.258767	0.528757
62357		5.039202	-1.144703	8.267207	0.000217	-0.004726	0.001293	-0.103516	-0.600586	-0.737305	0.802630	0.096120	-0.258806	0.528739
62358		5.031841	-1.167203	8.283416	0.001066	-0.005457	0.001302	-0.097412	-0.604492	-0.735107	0.802560	0.096196	-0.258871	0.528800
62359		5.017665	-1.164912	8.267241	-0.000400	-0.003680	0.001755	-0.092773	-0.600586	-0.744873	0.802524	0.096245	-0.258881	0.528841
62360		5.012193	-1.162315	8.273271	-0.001840	-0.006026	0.003220	-0.092529	-0.606201	-0.746582	0.802530	0.096208	-0.258902	0.528828
62361		5.034085	-1.157529	8.289935	-0.000480	-0.005517	0.001374	-0.099121	-0.597656	-0.748779	0.802552	0.096218	-0.258877	0.528805
62362		5.019038	-1.168022	8.278777	0.000453	-0.004565	0.000270	-0.096924	-0.605469	-0.742920	0.802555	0.096191	-0.258901	0.528794
62363		5.019418	-1.157170	8.286598	0.000369	-0.006249	0.001383	-0.096191	-0.606445	-0.752197	0.802538	0.096241	-0.258907	0.528808
62364		5.027782	-1.171190	8.270675	0.000605	-0.006087	0.000359	-0.096436	-0.596924	-0.738037	0.802564	0.096258	-0.258881	0.528778
62365		5.013752	-1.155977	8.305370	-0.000244	-0.005356	0.000351	-0.107178	-0.595459	-0.743164	0.802541	0.096253	-0.258931	0.528789
62366		5.040523	-1.145141	8.281481	-0.001710	-0.003579	0.000804	-0.099365	-0.601074	-0.741699	0.802474	0.096227	-0.259019	0.528853
62367		5.029880	-1.160806	8.277387	0.000494	-0.003648	0.000460	-0.097900	-0.602783	-0.745117	0.802456	0.096251	-0.259018	0.528876
62368		5.009255	-1.155450	8.267918	-0.000904	-0.005076	0.002116	-0.096680	-0.597412	-0.744629	0.802446	0.096255	-0.259022	0.528888
62369		5.033398	-1.159274	8.262649	0.000454	-0.004566	0.000269	-0.091797	-0.604004	-0.745605	0.802460	0.096229	-0.259029	0.528868
62370		5.044652	-1.156748	8.270806	0.000448	-0.004260	0.003257	-0.100830	-0.598389	-0.747314	0.802494	0.096224	-0.258972	0.528846
62371		5.022336	-1.153336	8.274912	0.000220	-0.004728	0.001292	-0.097656	-0.604004	-0.747070	0.802476	0.096203	-0.259012	0.528857
62372		5.032108	-1.152892	8.296495	-0.000943	-0.005995	0.001926	-0.097656	-0.607422	-0.748779	0.802476	0.096215	-0.259021	0.528851
62373		5.017980	-1.151008	8.280246	-0.001521	-0.004030	0.002579	-0.098877	-0.601562	-0.746826	0.802486	0.096225	-0.258994	0.528846
62374		5.033274	-1.155835	8.252738	0.000641	-0.004865	0.003537	-0.102783	-0.594727	-0.742188	0.802467	0.096224	-0.259005	0.528871
62375		5.015628	-1.157499	8.263767	0.000260	-0.003810	0.001483	-0.099854	-0.600098	-0.744385	0.802411	0.096207	-0.259078	0.528923
62376		5.012277	-1.150631	8.298951	0.000492	-0.003496	0.001954	-0.097900	-0.601807	-0.750244	0.802391	0.096211	-0.259089	0.528948
62377		5.021153	-1.152149	8.278163	-0.000248	-0.005052	0.003338	-0.090088	-0.596924	-0.744873	0.802401	0.096174	-0.259097	0.528934
62378		5.032305	-1.149808	8.286355	0.000301	-0.002892	0.001673	-0.099365	-0.607666	-0.740479	0.802488	0.096093	-0.259037	0.528847
62379		5.012212	-1.155409	8.268502	-0.001094	-0.004473	0.001836	-0.105957	-0.602539	-0.749512	0.802456	0.096202	-0.259005	0.528891
62380		5.034518	-1.161277	8.276857	0.000261	-0.003811	0.001483	-0.096436	-0.601562	-0.747070	0.802397	0.096217	-0.259065	0.528949
62381		5.024311	-1.153350	8.276079	-0.000478	-0.005368	0.002867	-0.095947	-0.602539	-0.748535	0.802415	0.096195	-0.259063	0.528927
62382		5.014954	-1.156536	8.266681	-0.001367	-0.005554	0.002669	-0.104004	-0.594238	-0.739990	0.802448	0.096161	-0.259058	0.528885
62383		5.019890	-1.151207	8.281438	0.000028	-0.003973	0.002506	-0.099609	-0.607910	-0.748291	0.802355	0.096160	-0.259152	0.528979
62384		5.020875	-1.151494	8.280801	-0.000284	-0.006125	0.001653	-0.102783	-0.597412	-0.742188	0.802352	0.096227	-0.259136	0.528980
62385		5.020213	-1.153718	8.293724	0.000452	-0.004263	0.003256	-0.097656	-0.601074	-0.747070	0.802282	0.096237	-0.259198	0.529054
62386		5.018793	-1.157869	8.264165	-0.000475	-0.005521	0.001373	-0.098389	-0.597168	-0.750488	0.802306	0.096218	-0.259201	0.529019
62387		5.025578	-1.150589	8.265241	-0.001366	-0.005555	0.002669	-0.089355	-0.601562	-0.743896	0.802332	0.096105	-0.259262	0.528972
62388		5.018542	-1.149666	8.284858	0.001535	-0.004835	0.002241	-0.100830	-0.599609	-0.748779	0.802444	0.096096	-0.259137	0.528864
62389		5.020123	-1.160746	8.275789	-0.001092	-0.004475	0.001837	-0.103027	-0.601074	-0.745850	0.802437	0.096045	-0.259189	0.528859
62390		5.037190	-1.150839	8.285620	-0.000476	-0.005370	0.002867	-0.103027	-0.601318	-0.748047	0.802377	0.096068	-0.259250	0.528915
62391		5.016713	-1.145710	8.276074	-0.000475	-0.005370	0.002867	-0.104492	-0.602539	-0.740723	0.802331	0.096070	-0.259315	0.528953
62392		5.024173	-1.149302	8.268656	-0.001363	-0.005709	0.001175	-0.103760	-0.600098	-0.747803	0.802242	0.096181	-0.259366	0.529043
62393		5.013695	-1.165023	8.264465	-0.000161	-0.003523	0.000731	-0.102295	-0.603271	-0.747559	0.802208	0.096170	-0.259424	0.529068
62394		5.020531	-1.157313	8.265570	0.000760	-0.007617	0.000446	-0.099854	-0.608154	-0.744873	0.802181	0.096232	-0.259468	0.529077
62395		5.020415	-1.158801	8.278275	0.002347	-0.006946	-0.002426	-0.100098	-0.605469	-0.744141	0.802192	0.096398	-0.259404	0.529060
62396		5.026061	-1.152386	8.292765	0.001418	-0.007899	-0.001320	-0.102783	-0.600342	-0.740967	0.802190	0.096526	-0.259383	0.529051
62397		5.021784	-1.159831	8.290149	-0.000240	-0.005514	-0.001144	-0.095947	-0.596191	-0.754639	0.802149	0.096602	-0.259419	0.529082
62398		5.030408	-1.150251	8.277577	-0.000744	-0.006757	0.000712	-0.095947	-0.608154	-0.739990	0.802250	0.096407	-0.259475	0.528936
62399		5.025875	-1.158471	8.275008	-0.003949	-0.004584	-0.000529	-0.101562	-0.612793	-0.754150	0.802300	0.096522	-0.259356	0.528897
62400		5.025644	-1.137150	8.291274	-0.000047	-0.005967	0.000630	-0.099854	-0.597656	-0.748779	0.802319	0.096604	-0.259322	0.528871
62401		5.017116	-1.150917	8.273333	-0.001168	-0.006316	0.001456	-0.096924	-0.605713	-0.751221	0.802331	0.096516	-0.259394	0.528834
62402		5.018964	-1.162374	8.264034	-0.003331	-0.005479	0.000501	-0.103516	-0.604248	-0.741943	0.802405	0.096472	-0.259364	0.528743
62403		5.024400	-1.157080	8.278500	-0.000357	-0.007968	0.001271	-0.093994	-0.598389	-0.745361	0.802336	0.096606	-0.259407	0.528802
62404		5.032811	-1.171343	8.262413	-0.000702	-0.005840	0.000902	-0.096436	-0.601807	-0.749512	0.802418	0.096538	-0.259365	0.528712
62405		5.021928	-1.176264	8.266569	-0.000934	-0.006002	0.001926	-0.103271	-0.611816	-0.743164	0.802477	0.096478	-0.259349	0.528641
62406		5.039582	-1.142667	8.279637	-0.000933	-0.006003	0.001926	-0.100586	-0.604736	-0.745850	0.802427	0.096680	-0.259311	0.528699
62407		5.027693	-1.160562	8.288875	-0.002015	-0.005584	0.001449	-0.098389	-0.603271	-0.747314	0.802424	0.096716	-0.259314	0.528695
62408		5.028666	-1.161010	8.288222	-0.000197	-0.004293	0.002034	-0.102783	-0.598145	-0.750000	0.802452	0.096707	-0.259281	0.528670
62409		5.040274	-1.158730	8.296111	-0.000779	-0.007528	0.002014	-0.097900	-0.605469	-0.738525	0.802421	0.096635	-0.259405	0.528670
62410		5.018875	-1.166206	8.291689	-0.000158	-0.003526	0.000731	-0.095459	-0.597168	-0.740234	0.802436	0.096766	-0.259293	0.528678
62411		5.016080	-1.148422	8.279147	-0.000044	-0.005970	0.000628	-0.089844	-0.595947	-0.749268	0.802477	0.096756	-0.259256	0.528636
62412		5.023587	-1.151585	8.271728	0.001078	-0.005469	0.001296	-0.100586	-0.597168	-0.739258	0.802622	0.096586	-0.259181	0.528482
62413		5.035709	-1.159761	8.271251	0.000885	-0.004864	0.001016	-0.100830	-0.601807	-0.741699	0.802587	0.096629	-0.259198	0.528521
62414		5.026554	-1.138664	8.265452	0.000460	-0.004574	0.000266	-0.096680	-0.601562	-0.748779	0.802569	0.096702	-0.259186	0.528540
62415		5.021528	-1.146428	8.263250	0.000116	-0.002292	0.001392	-0.093018	-0.602051	-0.744141	0.802637	0.096631	-0.259131	0.528476
62416		5.031035	-1.145871	8.285042	0.000888	-0.004713	0.002510	-0.092529	-0.607910	-0.756104	0.802719	0.096626	-0.259020	0.528407
62417		5.036697	-1.151080	8.291323	0.000229	-0.004737	0.001290	-0.100830	-0.603027	-0.740967	0.802863	0.096546	-0.258912	0.528257
62418		5.022532	-1.148819	8.275179	-0.000467	-0.005528	0.001373	-0.097412	-0.608643	-0.743652	0.802830	0.096640	-0.258912	0.528289
62419		5.030394	-1.162956	8.259408	0.000733	-0.003341	0.000927	-0.092529	-0.595947	-0.744141	0.802869	0.096753	-0.258796	0.528266
62420		5.028285	-1.143032	8.289536	0.002009	-0.004365	0.001682	-0.103271	-0.609863	-0.750732	0.802945	0.096670	-0.258733	0.528197
62421		5.025643	-1.159567	8.265194	0.001352	-0.004237	0.001956	-0.094971	-0.601562	-0.747070	0.802924	0.096751	-0.258732	0.528214
62422		5.036309	-1.146022	8.281816	0.000694	-0.004261	0.000736	-0.095215	-0.594727	-0.749268	0.802991	0.096713	-0.258676	0.528147
62423		5.026777	-1.148766	8.272609	-0.000659	-0.004924	0.001094	-0.108398	-0.603516	-0.742920	0.803048	0.096550	-0.258710	0.528074
62424		5.022862	-1.143887	8.265221	0.000503	-0.003503	0.001951	-0.100098	-0.598389	-0.741455	0.802925	0.096664	-0.258798	0.528195
62425		5.033814	-1.164976	8.269919	0.001314	-0.005157	0.001765	-0.100830	-0.605713	-0.737793	0.802895	0.096695	-0.258818	0.528227
62426		5.023744	-1.156598	8.269192	0.001544	-0.004995	0.000742	-0.093750	-0.600586	-0.748779	0.802858	0.096875	-0.258763	0.528277
62427		5.023947	-1.145847	8.277169	-0.001468	-0.003270	0.001279	-0.093750	-0.596680	-0.751465	0.802950	0.096764	-0.258713	0.528181
62428		5.023165	-1.148072	8.290218	0.000658	-0.005029	0.002039	-0.093506	-0.601562	-0.751953	0.803032	0.096603	-0.258714	0.528086
62429		5.025225	-1.135545	8.284435	-0.000928	-0.006007	0.001927	-0.103760	-0.593506	-0.742676	0.803121	0.096496	-0.258693	0.527981
62430		5.022912	-1.152296	8.259849	0.001505	-0.005916	0.000550	-0.100586	-0.601074	-0.746582	0.803041	0.096488	-0.258815	0.528043
62431		5.024087	-1.152400	8.259120	-0.000267	-0.005984	0.003147	-0.094238	-0.603027	-0.746582	0.803015	0.096486	-0.258862	0.528061
62432		5.020930	-1.169440	8.290720	-0.000191	-0.004296	0.002034	-0.099121	-0.604004	-0.745850	0.803085	0.096466	-0.258790	0.527993
62433		5.018236	-1.151650	8.278112	0.000383	-0.006417	-0.000116	-0.095703	-0.601562	-0.739502	0.803097	0.096522	-0.258787	0.527966
62434		5.003146	-1.162087	8.267053	-0.000851	-0.004320	0.000815	-0.098389	-0.600830	-0.745361	0.803129	0.096572	-0.258720	0.527941
62435		5.037043	-1.152378	8.278748	0.000462	-0.004577	0.000266	-0.100830	-0.596680	-0.742432	0.803146	0.096574	-0.258715	0.527917
62436		5.043706	-1.144689	8.279934	0.000233	-0.004740	0.001289	-0.101074	-0.606689	-0.750000	0.803111	0.096568	-0.258767	0.527946
62437		5.028380	-1.155233	8.269004	-0.000617	-0.004006	0.001285	-0.099854	-0.605713	-0.739746	0.803115	0.096588	-0.258771	0.527935
62438		5.034910	-1.147722	8.270245	0.000040	-0.004134	0.001010	-0.098389	-0.603760	-0.753174	0.803098	0.096713	-0.258719	0.527962
62439		5.013477	-1.131273	8.269573	0.000308	-0.003052	0.000177	-0.096191	-0.591797	-0.747070	0.803150	0.096650	-0.258712	0.527899
62440		5.029178	-1.157265	8.281131	0.000886	-0.005021	-0.000479	-0.092285	-0.597412	-0.746338	0.803192	0.096521	-0.258761	0.527834
62441		5.024703	-1.141246	8.282253	-0.000154	-0.003529	0.000731	-0.099609	-0.604736	-0.749512	0.803283	0.096427	-0.258707	0.527739
62442		5.030319	-1.146282	8.288584	0.001547	-0.004998	0.000740	-0.100830	-0.602051	-0.742432	0.803295	0.096455	-0.258705	0.527717
62443		5.026368	-1.141145	8.281257	-0.000347	-0.002924	0.000452	-0.087158	-0.595947	-0.737061	0.803277	0.096503	-0.258698	0.527739
62444		5.026897	-1.141111	8.280940	0.001005	-0.002261	0.000093	-0.094482	-0.599854	-0.748535	0.803403	0.096474	-0.258535	0.527633
62445		5.025992	-1.142918	8.294139	0.000697	-0.004264	0.000735	-0.091553	-0.602051	-0.742432	0.803467	0.096414	-0.258507	0.527560
62446		5.034923	-1.144162	8.273181	-0.000038	-0.005976	0.000629	-0.091309	-0.605713	-0.743652	0.803543	0.096437	-0.258425	0.527479
62447		5.023258	-1.137791	8.286074	0.001820	-0.003764	0.001400	-0.097656	-0.593018	-0.753418	0.803629	0.096488	-0.258288	0.527407
62448		5.035121	-1.145994	8.285708	0.000041	-0.004136	0.001010	-0.094238	-0.598145	-0.748047	0.803652	0.096309	-0.258380	0.527359
62449		5.019761	-1.156534	8.274812	-0.000848	-0.004322	0.000815	-0.099854	-0.602783	-0.744141	0.803709	0.096225	-0.258377	0.527289
62450		5.032681	-1.152431	8.269229	-0.001305	-0.004647	0.002863	-0.093506	-0.603027	-0.739258	0.803679	0.096259	-0.258397	0.527319
62451		5.037661	-1.147028	8.284021	0.000275	-0.003821	0.001480	-0.086914	-0.604004	-0.739258	0.803719	0.096327	-0.258302	0.527293
62452		5.023222	-1.144691	8.268075	0.000469	-0.004427	0.001759	-0.085693	-0.593262	-0.744629	0.803831	0.096374	-0.258132	0.527195
62453		5.022432	-1.146753	8.281177	0.000509	-0.003507	0.001950	-0.095215	-0.605469	-0.743408	0.803958	0.096234	-0.258045	0.527070
62454		5.019351	-1.129084	8.268783	0.000047	-0.003984	0.002504	-0.096436	-0.598389	-0.748047	0.803980	0.096289	-0.257985	0.527056
62455		5.019195	-1.142187	8.273339	0.000242	-0.004590	0.002783	-0.098389	-0.603027	-0.741455	0.803986	0.096231	-0.258013	0.527044
62456		5.036852	-1.143109	8.274613	-0.000414	-0.004462	0.003058	-0.085938	-0.602295	-0.748291	0.803956	0.096293	-0.258006	0.527081
62457		5.017685	-1.146985	8.299417	-0.001692	-0.003435	0.002306	-0.100830	-0.593750	-0.750732	0.804097	0.096196	-0.257894	0.526939
62458		5.021461	-1.143441	8.271791	0.002256	-0.003905	0.003642	-0.094238	-0.601074	-0.741455	0.804044	0.096101	-0.257995	0.526988
62459		5.022155	-1.143759	8.271326	-0.001264	-0.003727	0.003055	-0.093018	-0.596680	-0.743896	0.804060	0.096110	-0.257955	0.526981
62460		5.022833	-1.144239	8.270847	0.000282	-0.003671	0.002974	-0.090576	-0.603027	-0.744873	0.804090	0.096059	-0.257932	0.526956
62461		5.016308	-1.154270	8.282175	-0.000413	-0.004462	0.003058	-0.094482	-0.599609	-0.745361	0.804156	0.096050	-0.257859	0.526893
62462		5.029088	-1.150200	8.276658	-0.000373	-0.003542	0.003249	-0.097656	-0.604492	-0.745850	0.804174	0.096015	-0.257843	0.526880
62463		5.024967	-1.145671	8.269353	-0.001691	-0.003436	0.002306	-0.095459	-0.606201	-0.749512	0.804173	0.096031	-0.257838	0.526881
62464		5.024082	-1.148077	8.282474	0.000283	-0.003671	0.002973	-0.092773	-0.601807	-0.736816	0.804201	0.096036	-0.257803	0.526854
62465		5.015858	-1.149075	8.259816	0.000478	-0.004278	0.003252	-0.094971	-0.597412	-0.739014	0.804211	0.096111	-0.257726	0.526863
62466		5.021854	-1.130722	8.269525	0.001562	-0.004699	0.003725	-0.088379	-0.600830	-0.752686	0.804191	0.096142	-0.257708	0.526897
62467		5.013770	-1.142599	8.294469	-0.000801	-0.003251	0.002500	-0.099365	-0.600342	-0.749023	0.804300	0.096016	-0.257654	0.526780
62468		5.016655	-1.152091	8.271835	-0.001536	-0.004964	0.002394	-0.098877	-0.603027	-0.743652	0.804274	0.095979	-0.257723	0.526792
62469		5.022747	-1.134058	8.281444	0.000017	-0.004756	0.003807	-0.099854	-0.600586	-0.740479	0.804233	0.096027	-0.257737	0.526839
62470		5.027777	-1.129012	8.296175	-0.001949	-0.004369	0.004634	-0.096924	-0.602051	-0.736084	0.804169	0.096059	-0.257774	0.526913
62471		5.005746	-1.160886	8.288496	-0.003113	-0.005790	0.003779	-0.092041	-0.606445	-0.747314	0.804129	0.096131	-0.257774	0.526961
62472		5.015238	-1.139391	8.270677	-0.001412	-0.007262	0.003785	-0.098389	-0.603760	-0.746826	0.804168	0.096145	-0.257745	0.526913
62473		5.014697	-1.142371	8.283522	-0.003454	-0.003505	0.004906	-0.093506	-0.598877	-0.746582	0.804145	0.096117	-0.257772	0.526940
62474		5.010908	-1.138570	8.275921	-0.003613	-0.007189	0.004143	-0.094238	-0.598877	-0.746582	0.804160	0.096050	-0.257816	0.526908
62475		5.011229	-1.152224	8.280105	-0.000489	-0.006308	0.002675	-0.099365	-0.596680	-0.749512	0.804176	0.096018	-0.257836	0.526880
62476		5.012441	-1.152746	8.279299	-0.001144	-0.006179	0.002951	-0.098145	-0.600830	-0.738525	0.804145	0.095955	-0.257932	0.526891
62477		5.032728	-1.139208	8.261745	-0.000401	-0.004315	0.004551	-0.090820	-0.602295	-0.745850	0.804097	0.096014	-0.257925	0.526957
62478		5.024737	-1.151425	8.286608	-0.000635	-0.004630	0.004081	-0.104004	-0.608643	-0.749023	0.804146	0.095990	-0.257872	0.526913
62479		5.022428	-1.145015	8.265536	-0.001768	-0.005280	0.001924	-0.104492	-0.602051	-0.740967	0.804092	0.096052	-0.257928	0.526956
62480		4.987399	-1.158969	8.279908	0.001292	-0.005940	0.003062	-0.106689	-0.599365	-0.745117	0.803995	0.096156	-0.257986	0.527057
62481		5.027170	-1.142171	8.293086	-0.003693	-0.003971	0.002944	-0.104248	-0.597168	-0.742188	0.803902	0.096143	-0.258106	0.527142
62482		5.010961	-1.166051	8.287134	-0.000293	-0.006917	0.002953	-0.094971	-0.599854	-0.750732	0.803813	0.096180	-0.258211	0.527220
62483		5.023476	-1.151026	8.289943	0.000288	-0.003676	0.002972	-0.099365	-0.596924	-0.739258	0.803846	0.096114	-0.258207	0.527183
62484		5.020724	-1.168199	8.265456	-0.002032	-0.006366	0.002758	-0.093994	-0.603027	-0.741699	0.803803	0.096132	-0.258259	0.527221
62485		5.004069	-1.146570	8.279847	-0.001142	-0.006182	0.002951	-0.096924	-0.601074	-0.753662	0.803817	0.096169	-0.258226	0.527209
62486		5.034093	-1.143315	8.275785	-0.001797	-0.006053	0.003227	-0.096191	-0.601807	-0.754395	0.803832	0.096094	-0.258281	0.527173
62487		5.015850	-1.158005	8.291966	0.000014	-0.004913	0.002311	-0.095703	-0.597900	-0.747314	0.803863	0.096032	-0.258301	0.527127
62488		5.012086	-1.153182	8.284497	0.000209	-0.005520	0.002589	-0.102295	-0.606689	-0.746094	0.803876	0.095999	-0.258319	0.527104
62489		5.013582	-1.164504	8.275337	-0.001295	-0.004654	0.002864	-0.102783	-0.593506	-0.746338	0.803831	0.096054	-0.258339	0.527153
62490		5.019619	-1.146491	8.285014	-0.000600	-0.003862	0.002778	-0.098145	-0.601318	-0.744629	0.803783	0.095998	-0.258429	0.527193
62491		5.019116	-1.148961	8.297928	-0.001375	-0.006497	0.002481	-0.099365	-0.602783	-0.741455	0.803769	0.096016	-0.258455	0.527198
62492		5.027989	-1.150812	8.276809	-0.000864	-0.004948	0.003611	-0.096680	-0.602539	-0.748535	0.803733	0.096066	-0.258453	0.527244
62493		5.028966	-1.151345	8.276141	-0.001540	-0.005120	0.000900	-0.099609	-0.594971	-0.745850	0.803757	0.096052	-0.258458	0.527208
62494		5.016394	-1.158332	8.294127	-0.001294	-0.004655	0.002864	-0.094238	-0.598877	-0.737793	0.803737	0.095999	-0.258519	0.527218
62495		5.031039	-1.152481	8.274723	-0.001609	-0.006813	0.002012	-0.098633	-0.591797	-0.750732	0.803745	0.096035	-0.258503	0.527208
62496		5.020412	-1.157419	8.278862	0.000131	-0.007366	0.002206	-0.097900	-0.595947	-0.743896	0.803741	0.095950	-0.258608	0.527178
62497		5.021152	-1.146894	8.286567	-0.001539	-0.005120	0.000900	-0.096924	-0.601807	-0.743896	0.803744	0.095924	-0.258642	0.527161
62498		5.022767	-1.158026	8.277349	0.000632	-0.005967	0.001842	-0.096924	-0.609131	-0.750977	0.803743	0.095967	-0.258629	0.527160
62499		5.012587	-1.149950	8.276765	0.000098	-0.003072	0.002692	-0.105713	-0.603516	-0.745850	0.803763	0.095990	-0.258575	0.527153
62500		5.013304	-1.150334	8.276277	-0.001068	-0.004493	0.001839	-0.093262	-0.608398	-0.748535	0.803698	0.096035	-0.258628	0.527217
62501		5.024709	-1.148214	8.284228	-0.000402	-0.004472	0.003056	-0.100830	-0.599121	-0.750732	0.803736	0.096058	-0.258557	0.527189
62502		5.027452	-1.157697	8.261585	-0.001251	-0.003735	0.003055	-0.091309	-0.604004	-0.749268	0.803721	0.096004	-0.258608	0.527198
62503		5.020087	-1.146133	8.289866	-0.001108	-0.005415	0.001648	-0.102783	-0.599854	-0.745850	0.803783	0.095984	-0.258563	0.527129
62504		5.027687	-1.160718	8.273984	-0.001015	-0.003421	0.003524	-0.093018	-0.603516	-0.744629	0.803738	0.095977	-0.258603	0.527180
62505		5.023154	-1.145467	8.275134	-0.001515	-0.004821	0.003888	-0.094727	-0.604980	-0.740479	0.803763	0.095978	-0.258558	0.527163
62506		5.012535	-1.161389	8.271055	0.000019	-0.004917	0.002309	-0.096436	-0.606445	-0.751709	0.803773	0.096045	-0.258493	0.527168
62507		5.029322	-1.140712	8.289175	-0.001526	-0.004972	0.002394	-0.095459	-0.604248	-0.750000	0.803794	0.096035	-0.258485	0.527142
62508		5.023604	-1.161646	8.291846	-0.000452	-0.005546	0.001370	-0.104004	-0.600586	-0.751465	0.803822	0.096034	-0.258473	0.527105
62509		5.027619	-1.158126	8.263957	-0.000440	-0.005396	0.002864	-0.098389	-0.591553	-0.740234	0.803778	0.096017	-0.258552	0.527136
62510		5.016153	-1.152051	8.276864	0.000438	-0.005362	0.001562	-0.096436	-0.600342	-0.743652	0.803762	0.096004	-0.258591	0.527143
62511		5.032508	-1.154791	8.291550	0.000020	-0.004918	0.002309	-0.095947	-0.601807	-0.744629	0.803766	0.096019	-0.258576	0.527142
62512		5.012800	-1.171003	8.265403	0.000910	-0.004734	0.002501	-0.097168	-0.596680	-0.739502	0.803773	0.096043	-0.258546	0.527142
62513		5.019059	-1.152642	8.275021	-0.001314	-0.004959	-0.000124	-0.098633	-0.605225	-0.743652	0.803780	0.096054	-0.258550	0.527127
62514		5.006045	-1.148667	8.301565	-0.001288	-0.004659	0.002864	-0.098877	-0.597656	-0.744141	0.803764	0.096094	-0.258534	0.527152
62515		5.021584	-1.164386	8.265142	-0.000491	-0.006469	0.001179	-0.097412	-0.603516	-0.749756	0.803754	0.096100	-0.258572	0.527149
62516		5.009814	-1.147510	8.286468	-0.000673	-0.005712	0.002395	-0.097656	-0.603760	-0.742920	0.803759	0.096097	-0.258581	0.527136
62517		5.016113	-1.163854	8.284077	0.000022	-0.004919	0.002309	-0.102783	-0.595459	-0.743408	0.803751	0.096143	-0.258556	0.527153
62518		5.007635	-1.153805	8.269786	0.000400	-0.006286	0.001370	-0.101074	-0.597168	-0.746582	0.803709	0.096156	-0.258623	0.527181
62519		5.023794	-1.145833	8.292792	-0.001367	-0.006505	0.002481	-0.093750	-0.601562	-0.742920	0.803682	0.096135	-0.258694	0.527192
62520		5.001788	-1.142484	8.297183	-0.000173	-0.004312	0.002031	-0.099854	-0.607178	-0.745605	0.803708	0.096148	-0.258644	0.527174
62521		5.016705	-1.147267	8.269345	-0.000672	-0.005713	0.002395	-0.096436	-0.599609	-0.741699	0.803686	0.096204	-0.258637	0.527201
62522		5.010546	-1.157170	8.280542	0.001109	-0.005345	0.002777	-0.095947	-0.604248	-0.750000	0.803681	0.096234	-0.258617	0.527213
62523		5.022752	-1.165741	8.279788	-0.000711	-0.006636	0.002204	-0.096680	-0.605469	-0.747070	0.803696	0.096235	-0.258620	0.527189
62524		5.012423	-1.146926	8.287555	-0.000213	-0.005235	0.001839	-0.092529	-0.600830	-0.742920	0.803705	0.096261	-0.258596	0.527181
62525		5.013760	-1.158162	8.278458	-0.000590	-0.003869	0.002778	-0.102295	-0.604004	-0.746094	0.803736	0.096253	-0.258543	0.527162
62526		5.016253	-1.156587	8.264173	0.000376	-0.007061	0.002672	-0.104248	-0.600586	-0.742920	0.803692	0.096306	-0.258579	0.527201
62527		5.020420	-1.153046	8.292272	-0.000016	-0.005844	0.002117	-0.097168	-0.598633	-0.744141	0.803639	0.096348	-0.258624	0.527252
62528		5.021832	-1.164360	8.283114	-0.001480	-0.004053	0.002587	-0.094971	-0.605469	-0.751709	0.803643	0.096321	-0.258626	0.527250
62529		5.006075	-1.164441	8.280684	-0.000720	-0.007261	0.005000	-0.101807	-0.603516	-0.737305	0.803646	0.096311	-0.258632	0.527244
62530		5.015668	-1.142516	8.262798	-0.001393	-0.006807	-0.000506	-0.093994	-0.604248	-0.743164	0.803615	0.096400	-0.258641	0.527271
62531		5.014459	-1.157595	8.280700	-0.000865	-0.005107	0.002117	-0.097900	-0.599365	-0.743164	0.803635	0.096423	-0.258595	0.527259
62532		5.004502	-1.149811	8.280000	-0.001559	-0.005900	0.002204	-0.094971	-0.604492	-0.746338	0.803629	0.096421	-0.258614	0.527260
62533		5.028804	-1.154045	8.274048	-0.000054	-0.006769	0.001925	-0.092773	-0.598145	-0.744873	0.803643	0.096448	-0.258595	0.527243
62534		5.017554	-1.148023	8.286893	-0.001101	-0.005421	0.001648	-0.101318	-0.601318	-0.740967	0.803679	0.096417	-0.258582	0.527200
62535		5.018897	-1.159417	8.277756	-0.001910	-0.003760	0.001841	-0.094727	-0.595947	-0.734375	0.803654	0.096433	-0.258587	0.527232
62536		5.013450	-1.156779	8.284021	-0.000390	-0.004480	0.003055	-0.104980	-0.606934	-0.749512	0.803652	0.096450	-0.258553	0.527249
62537		5.026881	-1.163597	8.269734	-0.000667	-0.005717	0.002394	-0.089111	-0.603027	-0.750000	0.803605	0.096485	-0.258593	0.527294
62538		5.010699	-1.152625	8.275859	-0.001754	-0.005292	0.001927	-0.102051	-0.602539	-0.744629	0.803670	0.096440	-0.258551	0.527224
62539		5.010735	-1.166041	8.280237	-0.001083	-0.005273	0.003142	-0.101074	-0.601318	-0.750488	0.803633	0.096457	-0.258577	0.527264
62540		5.023608	-1.162004	8.274535	-0.000365	-0.003707	0.001752	-0.097656	-0.595947	-0.746338	0.803627	0.096431	-0.258598	0.527268
62541		5.026893	-1.147729	8.311441	-0.000822	-0.004186	0.002308	-0.097412	-0.601074	-0.750977	0.803634	0.096384	-0.258618	0.527256
62542		5.013820	-1.143575	8.281975	-0.000208	-0.005239	0.001838	-0.095947	-0.597900	-0.748779	0.803647	0.096358	-0.258631	0.527235
62543		5.015204	-1.154798	8.272827	-0.001059	-0.004500	0.001840	-0.093262	-0.604004	-0.737305	0.803670	0.096308	-0.258642	0.527204
62544		5.004248	-1.159817	8.277237	-0.000689	-0.006493	0.003696	-0.110352	-0.597900	-0.742432	0.803667	0.096366	-0.258591	0.527223
62545		5.023077	-1.148348	8.273093	-0.002366	-0.004240	0.002398	-0.096436	-0.599365	-0.750244	0.803586	0.096367	-0.258679	0.527303
62546		5.006040	-1.150081	8.284260	0.000562	-0.007826	0.001452	-0.095703	-0.597168	-0.749023	0.803598	0.096359	-0.258711	0.527270
62547		5.011172	-1.168184	8.295304	-0.000207	-0.005241	0.001838	-0.101562	-0.596191	-0.744873	0.803621	0.096317	-0.258725	0.527236
62548		5.016386	-1.128117	8.265904	0.000307	-0.003690	0.002967	-0.092773	-0.596436	-0.747314	0.803596	0.096296	-0.258748	0.527266
62549		5.015275	-1.154183	8.275480	-0.001751	-0.005294	0.001927	-0.102783	-0.603027	-0.738037	0.803636	0.096238	-0.258753	0.527213
62550		5.025955	-1.164884	8.288327	0.000227	-0.005537	0.002583	-0.096191	-0.589600	-0.745117	0.803584	0.096312	-0.258748	0.527282
62551		5.017029	-1.144122	8.282576	-0.000229	-0.006016	0.003140	-0.100098	-0.597412	-0.743896	0.803591	0.096248	-0.258798	0.527259
62552		5.018513	-1.155251	8.273368	-0.000421	-0.004781	0.000067	-0.097656	-0.592285	-0.740234	0.803590	0.096247	-0.258814	0.527252
62553		5.018015	-1.157638	8.286364	-0.002363	-0.004241	0.002399	-0.106201	-0.604004	-0.741943	0.803590	0.096198	-0.258838	0.527248
62554		5.024694	-1.150414	8.287460	0.000251	-0.004763	0.001281	-0.095947	-0.590820	-0.746826	0.803533	0.096264	-0.258849	0.527320
62555		5.014930	-1.153072	8.278466	0.000291	-0.003840	0.001473	-0.095215	-0.603760	-0.745361	0.803563	0.096195	-0.258867	0.527276
62556		5.021198	-1.134823	8.288109	-0.000859	-0.005112	0.002117	-0.098633	-0.594727	-0.751465	0.803578	0.096206	-0.258837	0.527267
62557		5.015835	-1.166518	8.282311	-0.000205	-0.005243	0.001837	-0.103516	-0.604004	-0.747559	0.803589	0.096147	-0.258883	0.527237
62558		5.018794	-1.141100	8.271525	0.000251	-0.004764	0.001281	-0.101074	-0.603760	-0.740723	0.803560	0.096177	-0.258893	0.527272
62559		5.030708	-1.149620	8.270890	-0.000164	-0.004320	0.002029	-0.094727	-0.610840	-0.747559	0.803530	0.096226	-0.258869	0.527320
62560		5.024392	-1.159442	8.282246	0.000924	-0.004746	0.002495	-0.093994	-0.598389	-0.746094	0.803542	0.096280	-0.258795	0.527329
62561		5.030149	-1.165022	8.288381	-0.002836	-0.004870	0.001462	-0.107178	-0.612305	-0.750977	0.803576	0.096232	-0.258795	0.527285
62562		5.019891	-1.146438	8.296188	-0.000266	-0.006942	0.002947	-0.097656	-0.601318	-0.746582	0.803509	0.096302	-0.258826	0.527360
62563		5.019283	-1.148634	8.253002	0.000074	-0.004007	0.002497	-0.096680	-0.603760	-0.745361	0.803512	0.096296	-0.258808	0.527366
62564		5.034147	-1.153559	8.281283	-0.000382	-0.004486	0.003054	-0.096924	-0.593750	-0.746582	0.803512	0.096305	-0.258778	0.527379
62565		5.017788	-1.142422	8.287623	0.000272	-0.004617	0.002774	-0.092529	-0.598633	-0.741699	0.803521	0.096260	-0.258796	0.527364
62566		5.029646	-1.151123	8.286987	-0.000816	-0.004190	0.002309	-0.090820	-0.594238	-0.743164	0.803549	0.096246	-0.258756	0.527343
62567		5.018425	-1.156067	8.291604	-0.000143	-0.004173	0.003522	-0.096436	-0.596436	-0.736084	0.803585	0.096200	-0.258728	0.527311
62568		5.013338	-1.164124	8.289430	0.000313	-0.003694	0.002966	-0.102295	-0.603516	-0.753662	0.803577	0.096216	-0.258691	0.527338
62569		5.016479	-1.149839	8.270208	-0.001272	-0.004670	0.002865	-0.104248	-0.605957	-0.752441	0.803559	0.096187	-0.258726	0.527354
62570		5.045019	-1.148666	8.279499	-0.001570	-0.006683	0.003507	-0.101318	-0.604980	-0.748291	0.803515	0.096190	-0.258778	0.527394
62571		5.006743	-1.155866	8.273780	-0.001747	-0.005925	0.004724	-0.093506	-0.599854	-0.746338	0.803478	0.096190	-0.258801	0.527439
62572		5.006622	-1.157912	8.286617	0.004349	-0.006936	0.001178	-0.101562	-0.597168	-0.748047	0.803500	0.096238	-0.258766	0.527415
62573		5.005133	-1.172315	8.248500	0.000907	-0.005525	0.003795	-0.104248	-0.597168	-0.744873	0.803471	0.096224	-0.258802	0.527443
62574		5.013761	-1.163180	8.291958	-0.000222	-0.006022	0.003139	-0.096436	-0.607910	-0.747803	0.803426	0.096223	-0.258853	0.527487
62575		5.011409	-1.156368	8.270884	0.000451	-0.005377	0.001557	-0.104736	-0.602051	-0.741699	0.803435	0.096261	-0.258812	0.527487
62576		5.027424	-1.148574	8.293980	-0.001684	-0.004227	0.003614	-0.101318	-0.594238	-0.747559	0.803384	0.096273	-0.258827	0.527555
62577		5.024316	-1.165603	8.269517	0.000649	-0.005988	0.001833	-0.101562	-0.604248	-0.742920	0.803372	0.096251	-0.258875	0.527554
62578		5.019868	-1.139180	8.279072	-0.001962	-0.005465	0.002954	-0.102295	-0.602295	-0.750488	0.803340	0.096271	-0.258880	0.527597
62579		5.018896	-1.165491	8.288527	-0.000397	-0.005265	0.004355	-0.097900	-0.595947	-0.748779	0.803308	0.096257	-0.258907	0.527634
62580		5.027166	-1.156413	8.275854	-0.000458	-0.006337	0.002670	-0.102539	-0.609131	-0.750244	0.803312	0.096222	-0.258944	0.527617
62581		5.016303	-1.161316	8.280283	-0.000417	-0.005414	0.002862	-0.090820	-0.603271	-0.739746	0.803283	0.096251	-0.258940	0.527657
62582		5.010939	-1.147606	8.294902	-0.000479	-0.006486	0.001176	-0.097168	-0.602051	-0.739258	0.803314	0.096289	-0.258884	0.527631
62583		5.030548	-1.157552	8.273639	-0.000376	-0.004490	0.003054	-0.101807	-0.600830	-0.744385	0.803304	0.096315	-0.258845	0.527661
62584		5.014720	-1.157402	8.271391	-0.001546	-0.005911	0.002206	-0.096436	-0.603516	-0.738770	0.803280	0.096318	-0.258870	0.527683
62585		5.032569	-1.158691	8.272251	-0.001267	-0.004673	0.002866	-0.100342	-0.598145	-0.744873	0.803274	0.096344	-0.258828	0.527709
62586		5.010916	-1.166113	8.268350	-0.000438	-0.005563	0.001368	-0.101318	-0.604248	-0.739746	0.803267	0.096340	-0.258847	0.527711
62587		5.010610	-1.168488	8.281269	-0.002615	-0.004708	0.000440	-0.104980	-0.598145	-0.739258	0.803253	0.096367	-0.258834	0.527733
62588		5.023391	-1.153589	8.283860	-0.000478	-0.006488	0.001176	-0.095703	-0.606445	-0.747803	0.803211	0.096401	-0.258869	0.527774
62589		5.013969	-1.156526	8.274637	-0.001544	-0.005912	0.002206	-0.095703	-0.602783	-0.740967	0.803221	0.096407	-0.258849	0.527768
62590		5.031301	-1.135920	8.292463	-0.000239	-0.006175	0.001644	-0.101807	-0.602539	-0.742920	0.803224	0.096441	-0.258819	0.527771
62591		5.021133	-1.162447	8.279863	-0.000414	-0.005417	0.002861	-0.100830	-0.596680	-0.739258	0.803194	0.096463	-0.258821	0.527812
62592		5.023253	-1.149906	8.274060	-0.000022	-0.006009	0.000618	-0.093506	-0.604492	-0.745605	0.803182	0.096485	-0.258833	0.527821
62593		5.018283	-1.157845	8.271837	-0.000967	-0.002661	0.002224	-0.101074	-0.594238	-0.748779	0.803211	0.096471	-0.258769	0.527811
62594		5.022138	-1.154632	8.300225	-0.001264	-0.004675	0.002866	-0.096436	-0.591553	-0.754639	0.803206	0.096411	-0.258816	0.527806
62595		5.018779	-1.160859	8.284190	-0.000930	-0.006969	0.001733	-0.103516	-0.604248	-0.744629	0.803236	0.096330	-0.258887	0.527740
62596		5.014818	-1.145195	8.285194	-0.000197	-0.005252	0.001835	-0.092773	-0.604736	-0.743896	0.803205	0.096361	-0.258888	0.527781
62597		5.008997	-1.165933	8.287969	0.000042	-0.004938	0.002303	-0.098389	-0.591553	-0.739502	0.803226	0.096380	-0.258831	0.527774
62598		5.015867	-1.158799	8.288929	-0.002194	-0.005783	0.002487	-0.096191	-0.599365	-0.749268	0.803222	0.096343	-0.258868	0.527769
62599		5.027907	-1.167583	8.288110	0.000258	-0.004772	0.001278	-0.097168	-0.604736	-0.748535	0.803246	0.096323	-0.258859	0.527740
62600		5.029871	-1.155053	8.282401	-0.000848	-0.005121	0.002117	-0.102051	-0.600586	-0.747070	0.803253	0.096323	-0.258843	0.527738
62601		5.019022	-1.160025	8.286847	-0.001342	-0.006526	0.002482	-0.098145	-0.599365	-0.746338	0.803229	0.096318	-0.258880	0.527756
62602		5.026093	-1.152956	8.287674	-0.002216	-0.005932	0.000994	-0.102295	-0.597412	-0.746338	0.803239	0.096297	-0.258899	0.527735
62603		5.024016	-1.156881	8.258087	0.000887	-0.005052	-0.000498	-0.097168	-0.602539	-0.743896	0.803238	0.096303	-0.258914	0.527728
62604		5.024956	-1.156649	8.257547	0.001604	-0.004111	0.000906	-0.094727	-0.607666	-0.747803	0.803248	0.096333	-0.258867	0.527731
62605		5.024484	-1.147583	8.279005	0.001029	-0.007365	0.000888	-0.102295	-0.604492	-0.744385	0.803262	0.096383	-0.258835	0.527716
62606		5.019977	-1.155319	8.276533	0.000005	-0.005865	0.002111	-0.098877	-0.599365	-0.746338	0.803234	0.096418	-0.258834	0.527754
62607		5.032034	-1.164108	8.275689	-0.001498	-0.004992	0.002398	-0.101807	-0.602051	-0.747314	0.803233	0.096393	-0.258845	0.527754
62608		5.028245	-1.159475	8.268238	-0.001324	-0.005750	0.001181	-0.093750	-0.597168	-0.739014	0.803221	0.096392	-0.258866	0.527761
62609		5.016801	-1.153352	8.281434	0.000341	-0.002925	0.001661	-0.095947	-0.604004	-0.738281	0.803246	0.096388	-0.258811	0.527751
62610		5.029507	-1.149278	8.275719	-0.001258	-0.004679	0.002866	-0.095947	-0.602295	-0.739502	0.803241	0.096412	-0.258766	0.527777
62611		5.024785	-1.157201	8.273352	0.001509	-0.006740	0.001823	-0.098145	-0.600586	-0.753174	0.803236	0.096469	-0.258733	0.527791
62612		5.020016	-1.164875	8.271049	0.000739	-0.004148	0.002213	-0.100830	-0.600342	-0.740967	0.803249	0.096439	-0.258731	0.527778
62613		5.025744	-1.170395	8.277195	-0.001496	-0.004993	0.002399	-0.108154	-0.602539	-0.746826	0.803229	0.096442	-0.258734	0.527806
62614		5.033570	-1.150465	8.273084	-0.000406	-0.005422	0.002860	-0.092773	-0.601562	-0.742676	0.803175	0.096454	-0.258771	0.527868
62615		5.016611	-1.163019	8.276079	-0.001002	-0.003588	0.002033	-0.099121	-0.598389	-0.750488	0.803203	0.096443	-0.258721	0.527852
62616		5.026773	-1.162930	8.297541	-0.000365	-0.004497	0.003052	-0.090088	-0.601562	-0.745117	0.803203	0.096404	-0.258737	0.527850
62617		5.024572	-1.167120	8.267965	-0.001123	-0.006364	0.001457	-0.093262	-0.605469	-0.752686	0.803242	0.096400	-0.258710	0.527805
62618		5.013214	-1.161320	8.281088	-0.002744	-0.003028	0.001854	-0.087402	-0.593018	-0.746582	0.803283	0.096349	-0.258679	0.527767
62619		5.025979	-1.157414	8.275300	0.000487	-0.005241	0.003046	-0.092285	-0.603027	-0.739502	0.803334	0.096303	-0.258659	0.527708
62620		5.024665	-1.172536	8.293357	-0.000603	-0.004812	0.002584	-0.099609	-0.600342	-0.740479	0.803350	0.096322	-0.258606	0.527707
62621		5.003583	-1.156265	8.293070	-0.001042	-0.004514	0.001841	-0.100342	-0.602539	-0.746094	0.803339	0.096329	-0.258595	0.527727
62622		5.019070	-1.148447	8.259961	-0.001056	-0.005293	0.003142	-0.100342	-0.602051	-0.738770	0.803320	0.096326	-0.258602	0.527753
62623		5.023997	-1.166931	8.271046	-0.000643	-0.005738	0.002392	-0.104492	-0.596191	-0.749268	0.803294	0.096358	-0.258593	0.527791
62624		5.024651	-1.156693	8.278921	-0.001666	-0.004237	0.003617	-0.107910	-0.597168	-0.754150	0.803266	0.096304	-0.258642	0.527819
62625		5.020662	-1.152234	8.271575	-0.002611	-0.004712	0.000444	-0.095947	-0.601074	-0.745605	0.803249	0.096245	-0.258719	0.527819
62626		5.014699	-1.162342	8.282769	-0.000244	-0.006962	0.002943	-0.098389	-0.604004	-0.747559	0.803247	0.096254	-0.258722	0.527819
62627		5.027798	-1.158419	8.276768	-0.001253	-0.004682	0.002866	-0.099121	-0.602539	-0.751221	0.803243	0.096245	-0.258712	0.527831
62628		5.028835	-1.158775	8.276088	0.000661	-0.006002	0.001826	-0.099609	-0.594482	-0.745117	0.803242	0.096249	-0.258718	0.527829
62629		5.014224	-1.156297	8.260401	-0.000348	-0.003722	0.001750	-0.088135	-0.597900	-0.750488	0.803245	0.096216	-0.258726	0.527826
62630		5.018627	-1.163526	8.280223	0.001155	-0.004597	0.001460	-0.099365	-0.594971	-0.748291	0.803305	0.096189	-0.258688	0.527759
62631		5.014421	-1.147625	8.281460	0.000051	-0.004946	0.002301	-0.097656	-0.601562	-0.743164	0.803305	0.096157	-0.258710	0.527754
62632		5.015287	-1.148163	8.280861	-0.001664	-0.004238	0.003617	-0.095215	-0.602295	-0.745361	0.803297	0.096144	-0.258696	0.527776
62633		5.021014	-1.153861	8.286979	0.000051	-0.004946	0.002301	-0.094238	-0.604492	-0.751221	0.803307	0.096151	-0.258668	0.527773
62634		5.024341	-1.150325	8.259215	-0.001438	-0.003292	0.001290	-0.099854	-0.598877	-0.748047	0.803342	0.096122	-0.258636	0.527741
62635		5.009466	-1.161233	8.304692	-0.002183	-0.005791	0.002490	-0.104004	-0.601318	-0.739502	0.803334	0.096092	-0.258669	0.527742
62636		5.039235	-1.148264	8.308459	-0.009258	-0.006955	0.003998	-0.102783	-0.595459	-0.742188	0.803289	0.096037	-0.258747	0.527782
62637		5.035436	-1.181363	8.288289	-0.019202	-0.009466	0.008774	-0.103516	-0.602783	-0.744629	0.803229	0.095850	-0.258944	0.527810
62638		5.015257	-1.180467	8.278496	-0.019584	-0.007466	0.006922	-0.100098	-0.601074	-0.742920	0.803184	0.095676	-0.259100	0.527833
62639		5.011517	-1.168621	8.278911	-0.013001	-0.007710	0.005777	-0.098145	-0.601562	-0.745117	0.803153	0.095572	-0.259201	0.527850
62640		5.018943	-1.174574	8.270818	-0.007909	-0.006298	0.003623	-0.092529	-0.602051	-0.748291	0.803146	0.095510	-0.259246	0.527850
62641		5.009484	-1.179538	8.261347	-0.011004	-0.007181	0.005120	-0.095459	-0.595459	-0.743652	0.803160	0.095406	-0.259307	0.527818
62642		5.018464	-1.182641	8.239570	-0.003673	-0.009382	0.000785	-0.093750	-0.600342	-0.748291	0.803171	0.095395	-0.259359	0.527777
62643		5.026727	-1.176016	8.296282	-0.001968	-0.005629	0.001459	-0.102051	-0.604004	-0.742676	0.803199	0.095379	-0.259349	0.527743
62644		5.018565	-1.177238	8.273419	-0.002471	-0.007818	0.003124	-0.090332	-0.599609	-0.746826	0.803161	0.095408	-0.259371	0.527784
62645		5.013910	-1.185712	8.270922	-0.002577	-0.004572	0.001935	-0.101318	-0.600830	-0.741699	0.803203	0.095375	-0.259342	0.527740
62646		5.014765	-1.176222	8.278626	-0.007494	-0.006745	0.002872	-0.103760	-0.598877	-0.746826	0.803181	0.095337	-0.259392	0.527756
62647		5.038925	-1.171573	8.280489	-0.009737	-0.008373	0.004362	-0.099854	-0.594971	-0.750488	0.803144	0.095260	-0.259502	0.527773
62648		5.025428	-1.181791	8.255455	-0.005884	-0.010868	0.003766	-0.095947	-0.598145	-0.746094	0.803122	0.095209	-0.259617	0.527758
62649		5.012835	-1.191670	8.286631	-0.004009	-0.007872	0.003221	-0.102539	-0.601318	-0.735352	0.803122	0.095184	-0.259653	0.527745
62650		5.032440	-1.191909	8.273282	-0.006881	-0.007805	0.002395	-0.096191	-0.600098	-0.746338	0.803086	0.095187	-0.259693	0.527780
62651		5.016903	-1.181563	8.279341	-0.001135	-0.007941	0.004047	-0.101807	-0.597900	-0.750244	0.803075	0.095196	-0.259705	0.527789
62652		5.030533	-1.178018	8.272921	-0.004078	-0.008943	0.001534	-0.101318	-0.601807	-0.742676	0.803062	0.095174	-0.259780	0.527775
62653		5.044469	-1.175025	8.266230	-0.007210	-0.010755	0.002840	-0.094238	-0.598633	-0.745361	0.803029	0.095168	-0.259862	0.527786
62654		5.022032	-1.209467	8.271612	-0.007018	-0.012152	0.004414	-0.108643	-0.590820	-0.749512	0.803018	0.095142	-0.259950	0.527765
62655		5.037067	-1.194153	8.259740	-0.006685	-0.009205	0.003970	-0.104248	-0.599121	-0.742676	0.802967	0.095069	-0.260092	0.527785
62656		5.044057	-1.190710	8.273262	-0.007964	-0.014829	0.006635	-0.101074	-0.598389	-0.749023	0.802887	0.095064	-0.260240	0.527835
62657		5.035993	-1.206048	8.254548	-0.005191	-0.010867	0.004974	-0.102783	-0.602051	-0.749756	0.802851	0.095040	-0.260333	0.527848
62658		5.024923	-1.224429	8.263563	-0.001401	-0.008403	0.002082	-0.104492	-0.599121	-0.742676	0.802829	0.095062	-0.260366	0.527862
62659		5.017728	-1.202088	8.244106	-0.005565	-0.007290	0.000529	-0.100830	-0.597900	-0.748779	0.802812	0.095052	-0.260414	0.527866
62660		5.040864	-1.208447	8.251223	0.001938	-0.006422	-0.000253	-0.102539	-0.598145	-0.741211	0.802819	0.095086	-0.260407	0.527853
62661		5.017991	-1.205477	8.269809	0.005003	-0.004895	-0.004549	-0.108887	-0.604004	-0.742188	0.802838	0.095182	-0.260347	0.527836
62662		5.020217	-1.190623	8.264323	0.008253	-0.005551	-0.005973	-0.104248	-0.600342	-0.739990	0.802831	0.095343	-0.260276	0.527853
62663		5.033636	-1.183047	8.258574	0.012329	-0.006311	-0.010202	-0.103271	-0.591797	-0.748535	0.802863	0.095551	-0.260174	0.527816
62664		5.022243	-1.186480	8.276869	0.006152	-0.008083	-0.007194	-0.105225	-0.605225	-0.748779	0.802900	0.095636	-0.260181	0.527741
62665		5.013471	-1.218747	8.242388	0.008728	-0.002722	-0.010431	-0.107666	-0.596924	-0.744873	0.802953	0.095774	-0.260075	0.527688
62666		5.012780	-1.248848	8.231017	0.016962	0.008103	-0.017112	-0.101562	-0.595459	-0.741211	0.803068	0.095926	-0.259828	0.527608
62667		5.017353	-1.211661	8.238298	0.018844	0.017127	-0.018265	-0.088135	-0.600098	-0.746338	0.803237	0.096040	-0.259455	0.527513
62668		5.035218	-1.221318	8.241322	0.026975	0.028204	-0.019443	-0.100342	-0.604736	-0.751221	0.803495	0.096155	-0.258870	0.527386
62669		5.054349	-1.100837	8.271837	0.027367	0.038090	-0.020307	-0.099365	-0.599609	-0.744385	0.803738	0.096222	-0.258225	0.527319
62670		5.040172	-0.987605	8.277855	0.033407	0.036207	-0.011304	-0.102783	-0.602539	-0.748779	0.803906	0.096332	-0.257576	0.527362
62671		5.000142	-0.971151	8.300877	0.021682	0.011642	0.004451	-0.095947	-0.598389	-0.750977	0.803890	0.096432	-0.257287	0.527508
62672		5.001632	-1.159717	8.309767	0.007990	-0.002887	0.010954	-0.096436	-0.600586	-0.743896	0.803835	0.096441	-0.257242	0.527612
62673		5.022868	-1.203042	8.318659	-0.001347	-0.012479	0.015883	-0.096436	-0.600098	-0.748291	0.803716	0.096433	-0.257338	0.527748
62674		5.008717	-1.194673	8.323553	-0.010920	-0.020195	0.014948	-0.088379	-0.604492	-0.750488	0.803598	0.096367	-0.257584	0.527821
62675		4.985012	-1.168690	8.336003	-0.018295	-0.027996	0.013630	-0.100830	-0.604980	-0.741211	0.803504	0.096287	-0.257917	0.527815
62676		4.977332	-1.139102	8.327507	-0.039099	-0.047049	0.012588	-0.090332	-0.600098	-0.750488	0.803320	0.096167	-0.258592	0.527787
62677		4.992696	-1.109094	8.290534	-0.043674	-0.065176	0.016215	-0.102051	-0.604980	-0.744629	0.803119	0.096060	-0.259479	0.527677
62678		5.029244	-1.165955	8.241574	-0.029475	-0.063521	0.015941	-0.098389	-0.597900	-0.747803	0.802853	0.096132	-0.260256	0.527686
62679		5.053655	-1.169371	8.227476	-0.025152	-0.062673	0.019363	-0.102051	-0.596680	-0.749756	0.802590	0.096195	-0.261012	0.527701
62680		5.079655	-1.212919	8.222620	-0.013850	-0.048861	0.017051	-0.098145	-0.595215	-0.756348	0.802367	0.096282	-0.261566	0.527751
62681		5.064343	-1.215872	8.235875	-0.011044	-0.041080	0.020171	-0.097900	-0.600586	-0.748535	0.802173	0.096309	-0.262029	0.527811
62682		5.043239	-1.256804	8.209062	-0.014427	-0.034965	0.015030	-0.093994	-0.599121	-0.740967	0.802028	0.096321	-0.262407	0.527841
62683		5.051005	-1.183642	8.250283	-0.012987	-0.042184	0.012338	-0.101807	-0.604980	-0.746826	0.801885	0.096420	-0.262819	0.527835
62684		5.082863	-1.213791	8.221246	-0.014870	-0.046923	0.013990	-0.098145	-0.595947	-0.750977	0.801693	0.096535	-0.263307	0.527862
62685		5.091184	-1.231013	8.219870	-0.014325	-0.046709	0.007921	-0.103516	-0.593018	-0.752197	0.801569	0.096627	-0.263804	0.527786
62686		5.070385	-1.252870	8.236108	-0.011751	-0.051868	0.003268	-0.105225	-0.599121	-0.750000	0.801439	0.096785	-0.264355	0.527678
62687		5.064271	-1.227929	8.279414	-0.028293	-0.074233	-0.002074	-0.111816	-0.590576	-0.753174	0.801281	0.096973	-0.265211	0.527454
62688		5.086192	-1.222776	8.317767	-0.047433	-0.107729	-0.009362	-0.112305	-0.594482	-0.743408	0.801068	0.097179	-0.266566	0.527056
62689		5.094863	-1.269703	8.299618	-0.075110	-0.152211	-0.013671	-0.110352	-0.589844	-0.749268	0.800758	0.097461	-0.268504	0.526491
62690		5.063015	-1.230069	8.401949	-0.099437	-0.234973	-0.026442	-0.116211	-0.590088	-0.744873	0.800303	0.098057	-0.271418	0.525578
62691		4.841791	-0.993705	8.729350	-0.224169	-0.448536	-0.034920	-0.118652	-0.581299	-0.742676	0.799298	0.098858	-0.277261	0.523905
62692		4.682507	-1.188964	8.828641	-0.297175	-0.788745	-0.048153	-0.131348	-0.578125	-0.733643	0.797249	0.101186	-0.286933	0.521369
62693		4.717217	-1.391067	8.906344	-0.252623	-1.281879	-0.076247	-0.147461	-0.581299	-0.716797	0.793400	0.107292	-0.301107	0.518016
62694		4.712905	-1.589889	8.982535	-0.267909	-1.850005	-0.125264	-0.184570	-0.588135	-0.696533	0.787433	0.117135	-0.320759	0.513169
62695		4.804283	-1.885195	8.980239	-0.220879	-2.559231	-0.251637	-0.212158	-0.597412	-0.670410	0.778705	0.132360	-0.346709	0.505858
62696		4.853773	-2.240560	9.113834	-0.104963	-3.519795	-0.500160	-0.261475	-0.614014	-0.620117	0.766048	0.155591	-0.380369	0.494248
62697		5.856414	-2.263605	9.341978	0.107307	-4.837826	-0.871552	-0.309082	-0.634277	-0.539795	0.746815	0.190300	-0.423498	0.476133
62698		7.118271	-4.366127	8.813421	0.348607	-6.267659	-1.330339	-0.337158	-0.685791	-0.431152	0.718384	0.237204	-0.475245	0.449221
62699		13.474052	-3.488220	9.110389	0.023472	-6.887601	-2.045399	-0.346191	-0.741455	-0.310059	0.686069	0.287186	-0.528790	0.408920
62700		16.055391	-3.417704	10.210468	-0.436110	-5.910342	-2.421664	-0.317627	-0.795410	-0.148438	0.658827	0.328674	-0.571144	0.362926
62701		9.905846	-4.412510	10.361307	-1.017585	-5.070994	-2.655034	-0.270752	-0.855225	0.009766	0.637191	0.361336	-0.604928	0.312227
62702		7.258277	-3.927655	9.902891	-1.139839	-4.337875	-3.144205	-0.180176	-0.922607	0.143799	0.620413	0.392074	-0.628118	0.258521
62703		18.083547	-5.849732	17.234252	-1.594796	0.803246	-1.669575	-0.159424	-0.973389	0.263672	0.639735	0.390009	-0.618370	0.237170
62704		3.314526	-7.939487	7.922655	-0.731665	3.873551	-0.147415	-0.229004	-1.009766	0.351807	0.672994	0.373287	-0.587852	0.249332
62705		1.260726	-5.275948	5.308257	0.604084	3.979697	0.913622	-0.355957	-1.013428	0.395996	0.695761	0.358670	-0.555695	0.280136
62706		3.286440	-1.751332	7.003183	0.835942	4.287609	2.110874	-0.494629	-0.974365	0.390381	0.713185	0.335496	-0.523622	0.323464
62707		3.158451	0.771895	7.599152	0.232330	4.903952	3.032128	-0.626465	-0.879883	0.339600	0.730216	0.296900	-0.490005	0.372197
62708		3.062809	3.293202	8.160563	-0.554354	5.023638	3.204497	-0.720703	-0.783936	0.236084	0.746073	0.247872	-0.456923	0.416120
62709		5.960930	2.882303	9.074018	-1.040887	5.195686	2.734651	-0.777100	-0.692627	0.116455	0.762618	0.194668	-0.420754	0.451092
62710		8.471090	2.073178	9.702959	-0.784977	5.477568	1.696530	-0.779541	-0.638428	-0.015625	0.781681	0.146666	-0.375663	0.475753
62711		10.369376	0.302438	9.588597	-0.607442	5.451620	0.705372	-0.758301	-0.608887	-0.147949	0.802210	0.104410	-0.326085	0.489107
62712		10.558197	-2.074275	8.149641	-0.175315	4.632205	0.242186	-0.702881	-0.604248	-0.252197	0.818360	0.072898	-0.280157	0.496472
62713		14.376373	-3.011330	8.039564	0.341091	3.107514	0.174201	-0.666504	-0.598877	-0.316162	0.827096	0.056148	-0.245878	0.502299
62714		22.305458	-1.348046	9.952348	0.503907	2.702498	0.807859	-0.635254	-0.593506	-0.364502	0.829320	0.041591	-0.214886	0.514124
62715		20.877458	0.074745	5.374341	-0.095387	3.323565	1.972376	-0.603271	-0.559326	-0.409424	0.824538	0.013663	-0.181574	0.535706
62716		15.106920	1.743133	-0.627919	-0.091884	2.600295	2.413454	-0.583496	-0.514648	-0.459229	0.813392	-0.010375	-0.155422	0.560473
62717		13.849635	3.967123	-1.516953	-0.124111	1.327473	1.811499	-0.567627	-0.487305	-0.477051	0.802877	-0.024599	-0.142333	0.578382
62718		14.287343	2.849137	-1.198606	-0.101275	0.653305	0.658771	-0.561768	-0.468750	-0.497314	0.799156	-0.031612	-0.136170	0.584643
62719		11.486343	0.705907	-0.967474	0.271214	-0.040052	-0.108685	-0.561035	-0.469971	-0.491455	0.799986	-0.028480	-0.134545	0.584046
62720		10.467296	-1.597354	1.483377	0.744005	-0.983209	-0.308339	-0.574707	-0.492188	-0.492188	0.800775	-0.013361	-0.138985	0.582464
62721		3.456377	-1.819952	8.459083	0.558912	-1.452799	0.042462	-0.601318	-0.498535	-0.482178	0.797932	0.002746	-0.149400	0.583932
62722		-13.619520	-4.288640	14.235766	-0.473132	-1.831474	0.794413	-0.645508	-0.479004	-0.456299	0.788519	0.009918	-0.171078	0.590653
62723		4.789850	1.251604	9.235728	0.920610	-5.173674	-0.907047	-0.726562	-0.515625	-0.379639	0.782309	0.059028	-0.214682	0.581739
62724		20.992393	-0.379809	16.045476	0.599700	-3.531867	-0.956870	-0.764648	-0.538818	-0.329346	0.778532	0.093033	-0.243848	0.570764
62725		12.262898	0.395181	11.926096	0.349117	-0.816756	-0.187481	-0.778809	-0.551514	-0.305176	0.776968	0.102821	-0.249045	0.568969
62726		6.122338	-2.774750	8.064405	0.135034	-0.345822	-0.012103	-0.777344	-0.553223	-0.309570	0.775848	0.106641	-0.251414	0.568752
62727		5.473800	-1.444300	8.117215	0.023660	-0.123248	-0.020934	-0.782227	-0.548340	-0.305908	0.775629	0.107825	-0.252405	0.568388
62728		5.170571	-0.829693	8.403642	-0.025584	-0.037438	-0.028794	-0.785645	-0.551758	-0.296631	0.775802	0.107947	-0.252903	0.567907
62729		5.278669	-0.515811	8.493180	-0.050835	-0.087198	0.033684	-0.792725	-0.558350	-0.309326	0.775408	0.107979	-0.254147	0.567884
62730		5.218272	-1.399789	8.171137	-0.020372	-0.117275	0.044059	-0.790283	-0.552979	-0.298584	0.774803	0.108487	-0.255479	0.568016
62731		5.210101	-1.285958	8.154755	0.024233	-0.061480	0.000018	-0.788330	-0.558105	-0.299316	0.774626	0.109172	-0.255894	0.567939
62732		5.188254	-1.269810	8.265568	0.010047	-0.045420	-0.004806	-0.787354	-0.550781	-0.291260	0.774553	0.109620	-0.256248	0.567792
62733		5.230451	-1.120490	8.225323	-0.009336	-0.064427	-0.000135	-0.784912	-0.558105	-0.284912	0.774413	0.109999	-0.256929	0.567603
62734		5.231566	-1.198922	8.180407	-0.017734	-0.073507	0.000303	-0.789551	-0.554932	-0.287842	0.774251	0.110360	-0.257758	0.567378
62735		5.209664	-1.224489	8.179895	-0.034503	-0.073126	-0.010808	-0.801025	-0.553223	-0.294434	0.774191	0.110591	-0.258686	0.566992
62736		5.192207	-1.126340	8.203771	-0.046593	-0.090479	-0.007632	-0.798828	-0.553711	-0.287598	0.774068	0.110818	-0.259871	0.566573
62737		5.242582	-1.183989	8.158424	-0.050242	-0.110844	-0.006985	-0.794922	-0.552002	-0.290039	0.773878	0.111151	-0.261279	0.566120
62738		5.252291	-1.128764	8.146486	-0.059474	-0.131342	-0.003571	-0.799072	-0.552246	-0.283203	0.773607	0.111527	-0.262955	0.565640
62739		5.248363	-1.128159	8.146447	-0.069925	-0.155859	0.004024	-0.803223	-0.557129	-0.284424	0.773214	0.111950	-0.264951	0.565163
62740		5.299126	-1.201257	8.137165	-0.090514	-0.191751	0.008907	-0.793945	-0.552246	-0.281982	0.772691	0.112410	-0.267444	0.564612
62741		5.339443	-1.232046	8.085335	-0.108262	-0.213786	0.004705	-0.800049	-0.543457	-0.281250	0.772143	0.112867	-0.270266	0.563926
62742		5.370656	-1.279156	8.041757	-0.108694	-0.236131	-0.008724	-0.800781	-0.551758	-0.276855	0.771607	0.113520	-0.273285	0.563073
62743		5.440891	-1.362283	7.950783	-0.095102	-0.246579	-0.026485	-0.813965	-0.547607	-0.269287	0.771133	0.114437	-0.276281	0.562074
62744		5.400639	-1.470548	7.977906	-0.075128	-0.252440	-0.062136	-0.802979	-0.546631	-0.265137	0.770851	0.115709	-0.279138	0.560787
62745		5.407508	-1.299537	8.080398	-0.072411	-0.321902	-0.085581	-0.810791	-0.546875	-0.252441	0.770476	0.117573	-0.282607	0.559175
62746		5.374893	-1.309400	8.171078	-0.073322	-0.442257	-0.096468	-0.827393	-0.543701	-0.256836	0.769733	0.120303	-0.287218	0.557265
62747		5.438420	-1.263203	8.178268	-0.085899	-0.633187	-0.105956	-0.815430	-0.547119	-0.244141	0.768351	0.124269	-0.293723	0.554906
62748		5.474269	-1.279605	8.227976	-0.104383	-0.858170	-0.115751	-0.828857	-0.542969	-0.218506	0.766168	0.129640	-0.302474	0.551987
62749		5.376852	-1.225084	8.537459	-0.144620	-1.217885	-0.115587	-0.836914	-0.551270	-0.197021	0.762552	0.137082	-0.314892	0.548239
62750		5.243788	-1.355819	8.911172	-0.202931	-1.837824	-0.141853	-0.852783	-0.541260	-0.159424	0.756480	0.148261	-0.333448	0.542743
62751		5.245523	-1.282810	9.398291	-0.288125	-2.802988	-0.180953	-0.864258	-0.544678	-0.100830	0.746134	0.165205	-0.361330	0.534258
62752		5.713778	-2.046277	9.550309	-0.380273	-4.102666	-0.225173	-0.885986	-0.539795	-0.006592	0.728951	0.189831	-0.401133	0.521235
62753		7.680371	-1.822008	9.531389	-0.521296	-5.272244	-0.453669	-0.905273	-0.542480	0.109131	0.705158	0.221246	-0.450524	0.500830
62754		12.048668	-2.617511	10.153013	-1.169236	-5.470650	-0.645859	-0.887451	-0.546875	0.225098	0.679943	0.248233	-0.503062	0.472214
62755		15.434355	-2.728859	10.375889	-3.082468	-4.035423	-0.826249	-0.865479	-0.559082	0.296631	0.667657	0.250512	-0.551850	0.432366
62756		7.213935	-4.200688	7.044757	-3.976739	-2.707473	-1.270341	-0.833008	-0.590576	0.324951	0.667055	0.240218	-0.590788	0.385100
62757		8.933760	-9.380459	14.397227	-1.429306	1.001182	-2.062711	-0.805664	-0.617920	0.302002	0.688333	0.238548	-0.582697	0.360218
62758		-2.501941	-3.983848	6.543533	0.710761	3.403591	-2.412491	-0.769531	-0.666260	0.242920	0.720932	0.246521	-0.542086	0.354439
62759		-2.301533	-1.821730	4.226077	0.504668	3.371003	-1.983585	-0.754395	-0.702881	0.192139	0.750161	0.249201	-0.502559	0.350131
62760		-0.364622	-4.003253	4.013934	0.149670	3.176741	-0.723749	-0.736816	-0.705078	0.138916	0.772225	0.240954	-0.469282	0.354097
62761		2.770269	-3.313990	5.411552	0.112068	3.233232	1.082865	-0.749023	-0.686279	0.069092	0.785379	0.221053	-0.440234	0.374846
62762		5.428285	-1.076150	6.319062	-0.221712	3.483470	3.088919	-0.771729	-0.611572	-0.019775	0.789358	0.185078	-0.414678	0.413161
62763		7.677295	1.074683	6.176258	-0.211147	3.531574	4.332480	-0.773682	-0.514404	-0.105713	0.783837	0.141748	-0.389743	0.462177
62764		9.720447	1.212774	6.642376	0.235588	3.173901	4.318924	-0.729736	-0.419922	-0.173096	0.772146	0.104254	-0.363870	0.510412
62765		12.695087	-1.444045	4.923102	1.022578	2.717035	3.025216	-0.689209	-0.365967	-0.191406	0.762778	0.082765	-0.334375	0.547279
62766		16.234883	-5.384284	3.168241	1.714069	1.788728	0.994224	-0.653564	-0.348389	-0.188721	0.761225	0.082548	-0.306257	0.565623
62767		23.086623	2.231186	2.304415	3.120487	1.312324	-1.434716	-0.622314	-0.377930	-0.165527	0.772351	0.108251	-0.269763	0.564787
62768		31.829216	4.635049	-5.939599	-0.067820	0.263314	-0.974957	-0.618896	-0.389648	-0.166992	0.780163	0.108959	-0.266263	0.555498
62769		9.005569	-1.698204	6.070182	0.048213	0.202568	0.018583	-0.607910	-0.402344	-0.160156	0.780695	0.107984	-0.263974	0.556033
62770		3.120169	-2.461900	9.446647	0.077955	0.004381	-0.058750	-0.611816	-0.395264	-0.158691	0.781072	0.108942	-0.263320	0.555627
62771		6.342291	-1.238234	7.659863	0.081778	0.071282	-0.123099	-0.606201	-0.401123	-0.162354	0.782103	0.109675	-0.261889	0.554707
62772		5.151742	-0.670417	8.452343	0.033620	0.086190	-0.039668	-0.599854	-0.400391	-0.164551	0.782670	0.109563	-0.260762	0.554461
62773		5.529279	-0.950774	8.069027	0.034947	0.092948	-0.031746	-0.602051	-0.397461	-0.161621	0.783200	0.109391	-0.259570	0.554306
62774		5.120937	-1.097017	8.164114	0.037295	0.080400	-0.011965	-0.604492	-0.395264	-0.166504	0.783548	0.109266	-0.258511	0.554333
62775		5.069682	-1.148177	8.181849	0.042256	0.092925	-0.032158	-0.599609	-0.398438	-0.168213	0.784068	0.109167	-0.257266	0.554197
62776		4.861075	-0.946387	8.368694	0.030176	0.052413	-0.032877	-0.604004	-0.394043	-0.163574	0.784478	0.109232	-0.256499	0.553959
62777		5.222895	-0.959504	8.169284	0.029710	0.031198	-0.051592	-0.584229	-0.405273	-0.165039	0.784948	0.109498	-0.255917	0.553509
62778		5.292086	-1.311597	7.876192	0.088134	0.128191	-0.073448	-0.596680	-0.392334	-0.162842	0.785798	0.109737	-0.253947	0.553164
62779		5.137053	-1.090267	8.393772	0.105736	0.118744	-0.092811	-0.600586	-0.404053	-0.168457	0.786723	0.110274	-0.251921	0.552668
62780		5.179483	-0.987064	8.204986	0.104811	0.089969	-0.101311	-0.597656	-0.405762	-0.164551	0.787613	0.111027	-0.250170	0.552045
62781		5.173258	-0.874026	8.157624	0.108363	0.088014	-0.105482	-0.591064	-0.406738	-0.171875	0.788516	0.111842	-0.248407	0.551387
62782		5.160267	-0.904586	8.148010	0.108547	0.137877	-0.104019	-0.585693	-0.411133	-0.172119	0.789559	0.112309	-0.246152	0.550811
62783		4.936874	-0.435958	8.988963	0.001303	-0.035608	-0.040363	-0.592773	-0.416504	-0.170654	0.789777	0.112717	-0.246435	0.550288
62784		4.812277	-0.889908	9.230472	-0.201757	-0.379208	0.026327	-0.603760	-0.418945	-0.165283	0.788752	0.113275	-0.251596	0.549307
62785		3.149980	-0.578037	11.836077	-0.494508	-1.167774	0.022407	-0.609619	-0.393555	-0.149414	0.785578	0.116354	-0.266497	0.546176
62786		0.059293	-2.030509	15.471102	-0.496582	-4.068357	-0.124786	-0.645508	-0.402100	-0.076904	0.772621	0.139516	-0.309271	0.536605
62787		2.775004	-2.190086	14.902291	-0.191423	-7.399090	-0.912618	-0.691162	-0.417480	0.058350	0.747190	0.190133	-0.378933	0.511826
62788		14.854619	1.065443	15.231175	-1.143996	-8.481771	-0.254053	-0.718262	-0.421875	0.209961	0.707193	0.233719	-0.462468	0.481016
62789		24.351402	2.019568	9.872125	-2.615434	-4.932898	0.331635	-0.728027	-0.418457	0.295410	0.682661	0.237744	-0.521514	0.453293
62790		24.623576	-1.369637	-7.264408	-1.962003	0.187709	-2.475530	-0.727783	-0.471436	0.283691	0.703253	0.235876	-0.523193	0.419602
62791		8.204645	-0.661525	-7.840463	-1.223343	4.513269	-1.879395	-0.730469	-0.498779	0.193848	0.744860	0.213296	-0.483348	0.407508
62792		1.638935	-1.378078	-7.173454	-1.142078	3.463114	-0.751362	-0.720947	-0.510742	0.106689	0.771889	0.189366	-0.454394	0.402311
62793		-2.003752	-2.691505	-5.575896	-0.531494	1.860087	-0.087398	-0.705811	-0.511719	0.080811	0.783973	0.175364	-0.438784	0.402619
62794		-5.587682	-3.557394	-4.281464	0.546579	-0.414468	0.167392	-0.712646	-0.514404	0.085938	0.779677	0.181917	-0.440454	0.406215
62795		-0.605718	-2.046745	-0.133168	1.413622	-1.931964	0.415307	-0.720459	-0.510010	0.136963	0.763403	0.203157	-0.452855	0.413359
62796		3.184275	-0.582506	2.533317	1.633241	-1.458324	1.072245	-0.730225	-0.492432	0.166260	0.745149	0.220130	-0.460855	0.428845
62797		1.489635	0.683894	1.841267	1.800361	-0.481164	1.322593	-0.734131	-0.473633	0.186035	0.730073	0.231782	-0.459149	0.449947
62798		-2.097274	2.622822	-1.251118	2.231180	-0.448505	0.481678	-0.731934	-0.461670	0.208252	0.718059	0.251813	-0.451908	0.465575
62799		-0.224754	5.122660	-1.627157	2.123203	-1.274733	-0.922870	-0.717285	-0.488037	0.252686	0.709195	0.283372	-0.447859	0.464936
62800		25.832642	2.902870	0.428844	1.211365	-1.248148	-1.347737	-0.688965	-0.490967	0.275391	0.705519	0.308820	-0.446963	0.455079
62801		35.819393	5.133212	5.419998	-1.635103	7.154016	1.428051	-0.684570	-0.476318	0.114502	0.740591	0.244520	-0.396856	0.483984
62802		3.329002	-2.042311	16.523139	-1.100517	7.863932	1.889273	-0.656982	-0.440674	-0.025146	0.767701	0.176321	-0.334614	0.517280
62803		0.363314	-7.120707	14.919839	-0.378959	5.440477	0.832104	-0.623779	-0.418945	-0.128906	0.784143	0.133715	-0.285981	0.534280
62804		0.361661	-2.439567	15.806791	0.321834	2.414345	-0.107518	-0.592285	-0.428467	-0.175537	0.792645	0.121112	-0.259876	0.538061
62805		3.263568	0.244096	12.647101	-0.057169	-0.436461	-0.063702	-0.596436	-0.429688	-0.164307	0.791777	0.123706	-0.264475	0.536506
62806		3.261835	-1.583491	12.189448	-0.310356	-2.170823	-0.085505	-0.614502	-0.424072	-0.129395	0.785400	0.135437	-0.287785	0.531020
62807		2.235527	-2.699631	13.583546	-0.131525	-4.279761	-0.535239	-0.656494	-0.437256	-0.046631	0.772684	0.164267	-0.329296	0.517243
62808		4.634000	-1.351689	13.194173	0.422436	-6.853665	-1.307275	-0.684326	-0.449463	0.089355	0.749174	0.217328	-0.388690	0.490334
62809		15.212002	1.412463	12.788729	-0.735998	-7.147917	-0.386183	-0.703857	-0.464355	0.215820	0.715862	0.255166	-0.457352	0.461801
62810		19.824612	0.072030	10.187034	-1.987134	-4.593261	0.139648	-0.709473	-0.459961	0.291504	0.693792	0.262574	-0.509363	0.436185
62811		20.601221	1.059619	-1.236059	-2.206548	-0.905219	-0.688669	-0.722900	-0.479736	0.294678	0.698738	0.252614	-0.526656	0.413020
62812		10.108947	-2.900602	-1.793757	-1.106007	3.609077	0.046378	-0.730225	-0.478271	0.223633	0.725008	0.223738	-0.500354	0.417073
62813		1.640066	3.020791	-4.297687	-0.280892	3.996358	0.030598	-0.727051	-0.467285	0.140137	0.749752	0.199893	-0.465026	0.426222
62814		-1.709395	1.648822	-6.169480	-0.875567	2.595922	0.341026	-0.732910	-0.469727	0.087891	0.764809	0.175769	-0.445906	0.430513
62815		-3.544333	-2.705396	-6.704029	-0.369230	0.372302	0.297826	-0.734375	-0.463623	0.092773	0.766119	0.168587	-0.444951	0.432041
62816		0.924573	-2.786691	-3.039405	0.725635	-1.311267	0.189921	-0.737549	-0.449219	0.119385	0.756180	0.181545	-0.453894	0.434986
62817		5.161211	-1.585762	0.816463	1.163874	-0.968033	0.714940	-0.737305	-0.440918	0.140137	0.744039	0.193725	-0.458231	0.445984
62818		0.901175	0.922610	-0.709367	0.939178	-0.359845	1.140679	-0.740967	-0.427246	0.148682	0.733254	0.197907	-0.459019	0.460948
62819		-1.227738	1.480744	-3.969697	1.081515	-1.237249	0.626546	-0.746094	-0.419189	0.180908	0.719738	0.211316	-0.465569	0.469648
62820		3.245237	4.091539	-0.594349	2.336929	-1.839974	-1.036522	-0.726807	-0.437012	0.237793	0.708429	0.249015	-0.465319	0.468613
62821		33.927524	-1.845180	4.433568	1.509268	0.639388	-0.619722	-0.714844	-0.454102	0.229980	0.710953	0.262203	-0.448798	0.473683
62822		23.741456	1.351293	8.480836	0.300140	8.028742	1.026506	-0.695557	-0.427246	0.082520	0.745278	0.210368	-0.376908	0.508180
62823		1.080706	-5.823068	16.612581	-0.285825	7.417574	0.812140	-0.650146	-0.416260	-0.059570	0.772594	0.155999	-0.310277	0.531499
62824		0.431065	-0.131369	16.468993	0.201502	4.407410	0.114810	-0.615234	-0.412598	-0.121582	0.787404	0.128042	-0.266177	0.541063
62825		2.016081	-0.017690	14.248474	0.248720	1.151462	-0.033035	-0.602783	-0.419434	-0.138428	0.791023	0.122824	-0.253081	0.543274
62826		4.095417	-0.545451	10.829376	-0.114336	-0.549553	-0.028959	-0.606689	-0.415039	-0.135498	0.789680	0.125526	-0.259223	0.541713
62827		2.628302	-0.445917	13.268694	-0.365867	-2.157117	0.017143	-0.626953	-0.412354	-0.099609	0.782895	0.136424	-0.282895	0.537061
62828		0.930960	-3.238087	14.748281	-0.271820	-4.832218	-0.492952	-0.671387	-0.419922	-0.020508	0.768180	0.167669	-0.330575	0.522022
62829		4.118726	-2.753725	12.773297	0.286061	-7.768154	-1.421184	-0.698730	-0.441406	0.122803	0.741085	0.226040	-0.398532	0.490786
62830		19.707812	1.240773	13.348094	-0.838489	-7.909512	-0.499185	-0.711670	-0.457275	0.266602	0.703536	0.268059	-0.473349	0.457299
62831		23.023576	1.178601	4.702313	-2.647126	-3.475177	0.242341	-0.718018	-0.455811	0.313232	0.689458	0.262786	-0.519037	0.431499
62832		22.409146	-3.428389	-3.995899	-2.061008	1.302279	0.014915	-0.732422	-0.457764	0.268066	0.704320	0.237768	-0.518664	0.422359
62833		5.472891	0.186881	-3.891000	-0.479621	4.214718	0.890033	-0.738037	-0.447754	0.190430	0.727368	0.205185	-0.485944	0.438967
62834		-1.312476	1.982610	-5.067153	-0.303683	3.548067	0.986563	-0.737061	-0.423828	0.120117	0.743547	0.176757	-0.457343	0.454679
62835		-6.275011	0.573947	-6.208165	-0.090200	1.378344	0.444075	-0.742188	-0.406982	0.087891	0.749025	0.165527	-0.445930	0.461203
62836		-3.532276	-0.611814	-3.038579	0.126760	-1.036301	-0.432810	-0.743896	-0.417236	0.111816	0.745452	0.175094	-0.453946	0.455605
62837		2.716315	-1.071765	1.000840	0.112335	-1.359029	0.005439	-0.748779	-0.419434	0.145020	0.737399	0.183832	-0.465901	0.453194
62838		1.748499	0.626262	0.430714	-0.093999	-0.583721	0.607297	-0.751709	-0.413574	0.148926	0.730777	0.182732	-0.473170	0.456819
62839		-1.873609	1.015541	-3.333063	-0.270488	-0.955487	0.484560	-0.738037	-0.397461	0.169434	0.722952	0.182841	-0.484493	0.457358
62840		0.091054	-0.004786	-4.175229	1.076961	-2.042897	-0.517677	-0.741699	-0.420166	0.216553	0.710808	0.207313	-0.495395	0.454265
62841		5.772956	0.793994	-1.854231	1.683036	-2.336330	-0.916806	-0.715332	-0.437012	0.275879	0.696722	0.241067	-0.503872	0.450086
62842		69.948976	3.961630	0.601042	1.628090	5.076426	0.406229	-0.712646	-0.430420	0.176025	0.719973	0.223624	-0.450657	0.478058
62843		-10.440044	-8.213136	16.270401	0.097240	10.984214	1.802199	-0.677734	-0.395264	-0.018066	0.763760	0.146895	-0.352309	0.520548
62844		-1.192710	-6.716855	13.088574	1.154490	7.400421	-0.009229	-0.602783	-0.395508	-0.127930	0.790962	0.109276	-0.272743	0.536702
62845		-4.192439	2.490686	22.539059	0.892065	1.818028	-0.401895	-0.583496	-0.419434	-0.148926	0.798421	0.107262	-0.248163	0.537991
62846		6.578573	-0.334050	7.268227	-0.180786	0.093686	-0.277252	-0.584717	-0.421875	-0.153320	0.800848	0.105687	-0.248040	0.534742
62847		5.450426	0.303085	8.254245	0.065174	0.210687	-0.073567	-0.581787	-0.420654	-0.150146	0.801942	0.105165	-0.245372	0.534436
62848		4.634561	0.454432	9.891037	-0.357119	-0.324913	0.070338	-0.582275	-0.419434	-0.150879	0.800970	0.103548	-0.251079	0.533557
62849		5.462728	-1.015428	8.291187	-0.493401	-0.591438	0.274664	-0.590088	-0.408691	-0.156250	0.797920	0.101694	-0.260606	0.533916
62850		5.844811	-0.631769	8.044333	-0.251299	-0.517366	0.341532	-0.603516	-0.401367	-0.136963	0.794289	0.101534	-0.267842	0.535776
62851		5.897542	-0.619376	7.525644	-0.453218	0.196994	0.343981	-0.599854	-0.389160	-0.157959	0.793241	0.094571	-0.269326	0.537856
62852		3.758811	-4.199455	6.482340	-0.248374	0.400209	0.127618	-0.603027	-0.395752	-0.153076	0.794054	0.089001	-0.267150	0.538691
62853		4.242276	-2.751622	7.667352	0.269680	0.190032	-0.193278	-0.593994	-0.389893	-0.151855	0.795722	0.091050	-0.263207	0.537828
62854		5.507437	-0.536755	9.274614	0.198395	0.166078	-0.146866	-0.593506	-0.395752	-0.166260	0.797064	0.092392	-0.260027	0.537158
62855		4.948005	-1.212308	8.448768	0.023499	0.153229	-0.027906	-0.593994	-0.401611	-0.170654	0.797760	0.091692	-0.258284	0.537085
62856		4.916777	-0.803970	8.508979	-0.014915	0.073510	-0.001628	-0.593506	-0.404053	-0.161865	0.798065	0.091059	-0.257623	0.537058
62857		4.836845	-0.829922	8.423026	-0.078142	0.025595	0.037007	-0.587158	-0.395020	-0.165039	0.798027	0.089993	-0.257907	0.537158
62858		5.068568	-1.219981	8.313642	-0.127758	-0.006198	0.070436	-0.591797	-0.391357	-0.172119	0.797716	0.088537	-0.258877	0.537395
62859		4.572284	-2.005105	7.774438	-0.076801	-0.054361	0.058360	-0.587891	-0.393066	-0.166016	0.797272	0.087951	-0.259971	0.537621
62860		5.169197	-1.304944	8.301579	-0.006050	-0.099897	0.006508	-0.591309	-0.395020	-0.166748	0.796949	0.088543	-0.260986	0.537512
62861		4.628675	-1.786839	7.923744	0.037367	-0.085575	-0.024586	-0.593750	-0.390137	-0.167725	0.796832	0.089573	-0.261531	0.537249
62862		4.680886	-1.523973	7.986717	0.169625	-0.158234	-0.125844	-0.591064	-0.394287	-0.158447	0.797004	0.092737	-0.261797	0.536327
62863		5.066353	-1.121456	8.298974	0.264119	-0.166963	-0.179561	-0.601562	-0.401123	-0.155273	0.797385	0.097073	-0.261449	0.535163
62864		5.601068	-0.857979	8.667641	0.135039	-0.085197	-0.089711	-0.599854	-0.406250	-0.150879	0.797578	0.099282	-0.261255	0.534564
62865		5.337968	-1.100253	8.364851	0.029158	-0.015954	-0.021046	-0.581787	-0.399658	-0.151123	0.797668	0.099748	-0.261163	0.534388
62866		5.138667	-1.157473	8.218885	0.020340	0.002390	-0.006339	-0.597656	-0.406738	-0.145508	0.797730	0.099957	-0.260965	0.534353
62867		5.080694	-1.186072	8.177563	0.031570	0.010935	-0.009527	-0.593018	-0.404541	-0.155029	0.797827	0.100230	-0.260603	0.534333
62868		5.064563	-1.226326	8.165716	0.042225	0.015934	-0.018231	-0.591797	-0.405762	-0.155518	0.797985	0.100604	-0.260109	0.534268
62869		5.155850	-1.145693	8.268957	0.044436	0.035018	-0.020309	-0.591797	-0.405762	-0.152588	0.798216	0.100879	-0.259406	0.534213
62870		5.141665	-1.057394	8.298714	0.038101	0.033214	-0.012156	-0.591309	-0.416748	-0.156250	0.798393	0.101076	-0.258774	0.534217
62871		5.141853	-1.068120	8.300285	0.006670	0.012143	0.000472	-0.587891	-0.404541	-0.150879	0.798458	0.101059	-0.258577	0.534219
62872		5.088650	-1.119525	8.256181	-0.004475	-0.000608	0.004667	-0.588379	-0.412598	-0.155029	0.798467	0.101003	-0.258587	0.534211
62873		5.081473	-1.151711	8.251234	0.000525	-0.002686	0.004637	-0.588379	-0.407715	-0.147705	0.798463	0.101010	-0.258585	0.534216
62874		5.073026	-1.137198	8.210843	0.007241	0.001526	0.002829	-0.589111	-0.412598	-0.151855	0.798477	0.101061	-0.258493	0.534231
62875		5.086647	-1.152543	8.244859	0.016311	0.004074	0.000680	-0.585938	-0.409668	-0.147949	0.798501	0.101193	-0.258311	0.534258
62876		5.069814	-1.116255	8.270307	0.010164	0.003148	0.002492	-0.590820	-0.411865	-0.152344	0.798518	0.101263	-0.258183	0.534281
62877		5.075331	-1.118478	8.263524	0.004737	-0.001342	0.003711	-0.590820	-0.406982	-0.151855	0.798519	0.101305	-0.258136	0.534294
62878		5.069568	-1.137043	8.253310	-0.001609	-0.005212	0.003462	-0.592041	-0.409180	-0.154053	0.798517	0.101309	-0.258170	0.534280
62879		5.076770	-1.130271	8.253875	-0.001445	-0.006769	0.003544	-0.595459	-0.409180	-0.153809	0.798509	0.101326	-0.258218	0.534265
62880		5.072232	-1.147113	8.229701	0.001893	-0.003873	0.001338	-0.594971	-0.404541	-0.150635	0.798521	0.101362	-0.258212	0.534244
62881		5.091089	-1.124144	8.233446	0.003480	-0.002906	0.001400	-0.586914	-0.409424	-0.153076	0.798534	0.101408	-0.258186	0.534229
62882		5.078773	-1.140012	8.244157	0.007857	-0.003121	0.000554	-0.585938	-0.411133	-0.148926	0.798545	0.101502	-0.258131	0.534220
62883		5.074719	-1.122918	8.245789	0.002791	-0.003701	0.001505	-0.586914	-0.407471	-0.153564	0.798555	0.101545	-0.258116	0.534204
62884		5.064342	-1.124759	8.237503	0.003688	-0.003529	0.001672	-0.593262	-0.412842	-0.156982	0.798563	0.101595	-0.258094	0.534194
62885		5.081860	-1.124864	8.238040	0.007672	-0.003292	0.001582	-0.599121	-0.408936	-0.149414	0.798567	0.101683	-0.258043	0.534195
62886		5.084037	-1.100145	8.240937	0.004499	-0.005226	0.001459	-0.588867	-0.404297	-0.150146	0.798570	0.101753	-0.258032	0.534183
62887		5.069972	-1.141728	8.261810	0.005189	-0.004432	0.001354	-0.585693	-0.406006	-0.155518	0.798575	0.101824	-0.258008	0.534174
62888		5.083776	-1.124011	8.250417	0.004291	-0.004605	0.001187	-0.590820	-0.410645	-0.152832	0.798581	0.101888	-0.257991	0.534160
62889		5.073679	-1.114525	8.250660	0.005462	-0.002394	0.000703	-0.587158	-0.403809	-0.145996	0.798597	0.101950	-0.257943	0.534149
62890		5.069672	-1.106618	8.230404	0.004259	-0.000243	0.001673	-0.596680	-0.405762	-0.148926	0.798614	0.101982	-0.257883	0.534146
62891		5.060878	-1.130080	8.261739	0.003012	0.000973	0.002452	-0.592773	-0.402344	-0.151367	0.798631	0.101991	-0.257820	0.534149
62892		5.072793	-1.125596	8.255988	0.002628	-0.002145	0.001423	-0.590332	-0.408936	-0.144531	0.798646	0.102020	-0.257789	0.534136
62893		5.066199	-1.134860	8.268168	-0.000437	-0.000482	0.000568	-0.581299	-0.411621	-0.151123	0.798675	0.102010	-0.257761	0.534108
62894		5.056677	-1.124555	8.254725	-0.000153	-0.004532	0.000545	-0.595459	-0.407715	-0.153076	0.798691	0.102029	-0.257770	0.534076
62895		5.078707	-1.132781	8.275172	-0.000153	-0.004532	0.000545	-0.589355	-0.410645	-0.150879	0.798707	0.102048	-0.257780	0.534044
62896		5.075262	-1.126089	8.254403	-0.002298	-0.003488	0.001158	-0.590576	-0.410156	-0.157227	0.798725	0.102036	-0.257794	0.534013
62897		5.058892	-1.136458	8.244592	-0.000983	-0.004561	0.001869	-0.598389	-0.405762	-0.144531	0.798733	0.102042	-0.257810	0.533992
62898		5.066102	-1.118625	8.253801	-0.004620	-0.003666	-0.001400	-0.593018	-0.407959	-0.153809	0.798770	0.102016	-0.257838	0.533928
62899		5.051253	-1.096712	8.268931	-0.006151	-0.009789	-0.000644	-0.581787	-0.416748	-0.151611	0.798784	0.102013	-0.257938	0.533859
62900		5.075857	-1.102782	8.261184	-0.008916	-0.009397	0.001568	-0.592529	-0.407227	-0.156738	0.798788	0.101972	-0.258054	0.533805
62901		5.061215	-1.123705	8.228259	-0.009463	-0.010959	0.000455	-0.584961	-0.406494	-0.148438	0.798795	0.101939	-0.258188	0.533736
62902		5.079253	-1.119647	8.263097	-0.009229	-0.012376	0.002028	-0.595459	-0.407959	-0.157471	0.798787	0.101913	-0.258337	0.533681
62903		5.071350	-1.133312	8.231056	-0.010648	-0.014904	0.002050	-0.581055	-0.404297	-0.156982	0.798772	0.101889	-0.258520	0.533620
62904		5.052709	-1.118896	8.230032	-0.013225	-0.014346	0.003233	-0.587891	-0.403564	-0.149414	0.798754	0.101832	-0.258716	0.533562
62905		5.093685	-1.131014	8.249544	-0.011540	-0.015081	0.001883	-0.593750	-0.413086	-0.150391	0.798740	0.101800	-0.258906	0.533497
62906		5.068611	-1.134689	8.238783	-0.010160	-0.013493	0.001670	-0.594238	-0.408447	-0.153076	0.798731	0.101773	-0.259071	0.533435
62907		5.092653	-1.153888	8.235783	-0.007196	-0.010935	0.001518	-0.592041	-0.414062	-0.146729	0.798728	0.101758	-0.259190	0.533386
62908		5.100660	-1.147977	8.235712	-0.006420	-0.008269	0.001793	-0.587158	-0.406494	-0.156250	0.798730	0.101731	-0.259277	0.533345
62909		5.092232	-1.127687	8.230180	-0.001411	-0.005051	0.002432	-0.595215	-0.405762	-0.152100	0.798732	0.101731	-0.259300	0.533331
62910		5.085725	-1.139460	8.255469	-0.001480	-0.005193	0.000941	-0.588379	-0.416016	-0.149658	0.798743	0.101736	-0.259322	0.533302
62911		5.081964	-1.123679	8.256801	-0.001254	-0.004087	0.000102	-0.586914	-0.406982	-0.153564	0.798763	0.101738	-0.259330	0.533267
62912		5.092767	-1.154100	8.238791	0.001481	-0.002633	0.000788	-0.594971	-0.404297	-0.153564	0.798780	0.101756	-0.259306	0.533251
62913		5.093930	-1.132031	8.255493	0.002379	-0.002461	0.000953	-0.586670	-0.409668	-0.147217	0.798795	0.101780	-0.259275	0.533239
62914		5.088427	-1.128478	8.262507	0.001176	-0.000309	0.001927	-0.601807	-0.407715	-0.152100	0.798812	0.101775	-0.259231	0.533235
62915		5.082093	-1.135687	8.261360	0.004138	0.002251	0.001774	-0.583008	-0.410889	-0.153564	0.798835	0.101783	-0.259142	0.533244
62916		5.082574	-1.142227	8.226010	0.004182	0.003187	0.001964	-0.588623	-0.406006	-0.155518	0.798859	0.101783	-0.259043	0.533256
62917		5.075321	-1.140115	8.247384	0.004687	0.003811	0.002888	-0.591309	-0.408691	-0.156250	0.798878	0.101782	-0.258935	0.533280
62918		5.080592	-1.123180	8.271191	0.002536	-0.000448	0.002825	-0.592041	-0.409180	-0.154541	0.798886	0.101787	-0.258884	0.533291
62919		5.075186	-1.139715	8.247522	0.001577	-0.003286	0.003580	-0.591309	-0.408203	-0.147217	0.798882	0.101800	-0.258868	0.533303
62920		5.058934	-1.128047	8.255055	-0.001010	-0.000201	0.002355	-0.591309	-0.402100	-0.156250	0.798899	0.101769	-0.258837	0.533298
62921		5.070442	-1.126072	8.262644	0.000819	-0.004224	0.002195	-0.595215	-0.411621	-0.148193	0.798901	0.101784	-0.258834	0.533294
62922		5.070877	-1.137497	8.253616	-0.003371	-0.003837	0.002023	-0.597900	-0.403320	-0.148193	0.798911	0.101755	-0.258854	0.533274
62923		5.060347	-1.131851	8.267153	-0.003361	-0.006361	0.004433	-0.593994	-0.404297	-0.158203	0.798897	0.101734	-0.258902	0.533276
62924		5.068026	-1.125978	8.267294	-0.006802	-0.010341	0.004965	-0.591553	-0.406494	-0.159912	0.798870	0.101704	-0.259013	0.533268
62925		5.069501	-1.130034	8.279324	-0.007714	-0.012245	0.005910	-0.585938	-0.410889	-0.147949	0.798833	0.101674	-0.259151	0.533263
62926		5.073664	-1.129198	8.249905	-0.010800	-0.016568	0.009694	-0.589600	-0.406738	-0.151367	0.798760	0.101630	-0.259357	0.533280
62927		5.083310	-1.116660	8.270462	-0.014983	-0.024017	0.011251	-0.586182	-0.391357	-0.151367	0.798657	0.101589	-0.259667	0.533291
62928		5.076447	-1.125724	8.272560	-0.017191	-0.027380	0.013898	-0.589600	-0.403320	-0.149902	0.798529	0.101539	-0.260028	0.533317
62929		5.076801	-1.136962	8.253244	-0.019301	-0.032449	0.015134	-0.592285	-0.402832	-0.155273	0.798378	0.101497	-0.260455	0.533342
62930		5.101344	-1.131112	8.243871	-0.017849	-0.036037	0.015724	-0.583984	-0.411865	-0.155273	0.798210	0.101492	-0.260908	0.533373
62931		5.098899	-1.191439	8.230993	-0.017301	-0.031957	0.014429	-0.597900	-0.404053	-0.144531	0.798063	0.101469	-0.261316	0.533398
62932		5.115258	-1.196282	8.248104	-0.016621	-0.028637	0.011915	-0.590820	-0.403809	-0.149658	0.797942	0.101439	-0.261682	0.533405
62933		5.106432	-1.239326	8.238401	-0.014127	-0.021498	0.007513	-0.597412	-0.403564	-0.143555	0.797871	0.101400	-0.261955	0.533386
62934		5.094516	-1.217799	8.238518	-0.010488	-0.013870	0.003736	-0.590576	-0.403809	-0.166748	0.797845	0.101359	-0.262123	0.533350
62935		5.111477	-1.179651	8.228927	-0.009189	-0.012415	0.002032	-0.598633	-0.402832	-0.156982	0.797832	0.101325	-0.262264	0.533305
62936		5.100101	-1.209110	8.229971	-0.005026	-0.006694	0.001584	-0.592285	-0.406494	-0.147949	0.797837	0.101297	-0.262321	0.533276
62937		5.116031	-1.169783	8.221197	-0.004902	-0.009195	0.001468	-0.587402	-0.400635	-0.148193	0.797836	0.101289	-0.262402	0.533239
62938		5.123483	-1.174346	8.212729	-0.004393	-0.008572	0.002391	-0.591553	-0.399902	-0.148193	0.797828	0.101276	-0.262474	0.533217
62939		5.115519	-1.153880	8.207111	-0.001746	-0.008995	0.002684	-0.604736	-0.402832	-0.150146	0.797813	0.101292	-0.262532	0.533208
62940		5.121455	-1.181577	8.195328	-0.001025	-0.008998	0.003876	-0.597168	-0.403076	-0.149902	0.797789	0.101310	-0.262587	0.533213
62941		5.110920	-1.177423	8.222404	-0.000716	-0.006012	0.003424	-0.589355	-0.417969	-0.143066	0.797779	0.101314	-0.262610	0.533217
62942		5.112765	-1.176161	8.207878	-0.000936	-0.007124	0.004261	-0.586670	-0.408691	-0.150879	0.797761	0.101322	-0.262648	0.533223
62943		5.106606	-1.188332	8.233025	-0.002465	-0.005418	0.003293	-0.590820	-0.409180	-0.148438	0.797755	0.101304	-0.262675	0.533223
62944		5.107975	-1.198006	8.209972	-0.001013	-0.007262	0.002770	-0.587646	-0.400635	-0.149414	0.797744	0.101314	-0.262711	0.533219
62945		5.110103	-1.176791	8.226197	-0.001469	-0.005209	0.000934	-0.587891	-0.403320	-0.150146	0.797752	0.101312	-0.262726	0.533200
62946		5.110780	-1.188310	8.216870	-0.002508	-0.006357	0.003100	-0.590576	-0.408447	-0.143311	0.797744	0.101300	-0.262762	0.533196
62947		5.124129	-1.185484	8.209832	-0.006147	-0.009721	0.003367	-0.595215	-0.401367	-0.147217	0.797729	0.101274	-0.262858	0.533177
62948		5.125429	-1.189106	8.222066	-0.006146	-0.009722	0.003367	-0.594238	-0.394287	-0.146973	0.797711	0.101246	-0.262951	0.533162
62949		5.117260	-1.180128	8.207697	-0.005292	-0.010489	0.003335	-0.597168	-0.396973	-0.151611	0.797690	0.101232	-0.263046	0.533150
62950		5.099714	-1.208055	8.229566	-0.006399	-0.010036	0.002905	-0.590332	-0.406494	-0.144287	0.797675	0.101205	-0.263144	0.533130
62951		5.119523	-1.206804	8.201486	-0.004596	-0.007954	0.002123	-0.596191	-0.405029	-0.148193	0.797674	0.101188	-0.263211	0.533102
62952		5.105911	-1.183461	8.203053	-0.006142	-0.009726	0.003366	-0.596436	-0.396240	-0.148926	0.797657	0.101160	-0.263305	0.533085
62953		5.129389	-1.193620	8.222138	-0.007124	-0.011775	0.002819	-0.587402	-0.407715	-0.153564	0.797636	0.101137	-0.263423	0.533063
62954		5.121445	-1.184609	8.207642	-0.004645	-0.010635	0.003033	-0.590576	-0.402832	-0.148926	0.797620	0.101132	-0.263517	0.533042
62955		5.128543	-1.191590	8.212580	-0.007209	-0.010077	0.004235	-0.589600	-0.398193	-0.147949	0.797598	0.101094	-0.263622	0.533030
62956		5.112669	-1.213784	8.193489	-0.004854	-0.010010	0.002765	-0.593018	-0.403809	-0.148438	0.797582	0.101082	-0.263708	0.533014
62957		5.116296	-1.182850	8.217538	-0.006653	-0.012096	0.003547	-0.590820	-0.406494	-0.148682	0.797557	0.101065	-0.263830	0.532993
62958		5.134104	-1.209712	8.212784	-0.008407	-0.013244	0.004523	-0.603516	-0.402100	-0.153809	0.797527	0.101035	-0.263976	0.532972
62959		5.136504	-1.211865	8.210966	-0.007502	-0.011333	0.003580	-0.594238	-0.399414	-0.135986	0.797500	0.101000	-0.264090	0.532963
62960		5.144514	-1.214878	8.188699	-0.004077	-0.007339	0.003044	-0.599365	-0.405518	-0.146729	0.797492	0.100980	-0.264148	0.532950
62961		5.135633	-1.196282	8.197076	-0.001213	-0.006648	0.002495	-0.598389	-0.409424	-0.140137	0.797485	0.100983	-0.264176	0.532946
62962		5.131125	-1.193677	8.203494	-0.002918	-0.005115	0.002562	-0.598389	-0.401367	-0.150635	0.797488	0.100962	-0.264204	0.532931
62963		5.124727	-1.214635	8.206689	-0.000652	-0.003345	0.002508	-0.592041	-0.399414	-0.155273	0.797487	0.100945	-0.264192	0.532942
62964		5.115302	-1.204628	8.193279	-0.001299	-0.004948	0.003912	-0.598145	-0.404541	-0.158203	0.797472	0.100927	-0.264201	0.532963
62965		5.126918	-1.204929	8.214023	0.000157	-0.005051	0.002280	-0.595947	-0.408203	-0.153809	0.797467	0.100930	-0.264199	0.532971
62966		5.132834	-1.210509	8.219891	-0.000734	-0.003480	0.001017	-0.593262	-0.404053	-0.144043	0.797481	0.100921	-0.264191	0.532955
62967		5.134689	-1.207122	8.192011	-0.001765	-0.004633	0.003183	-0.592773	-0.401855	-0.149658	0.797480	0.100906	-0.264207	0.532952
62968		5.136633	-1.194851	8.186268	0.000881	-0.005057	0.003469	-0.591309	-0.404541	-0.150146	0.797468	0.100915	-0.264205	0.532969
62969		5.119202	-1.208663	8.203860	-0.000353	-0.005674	0.001357	-0.594238	-0.394043	-0.144531	0.797473	0.100924	-0.264217	0.532955
62970		5.125498	-1.214048	8.209519	0.001864	-0.006587	0.002211	-0.599854	-0.408691	-0.149658	0.797457	0.100954	-0.264219	0.532972
62971		5.121215	-1.210838	8.215899	-0.000825	-0.007102	0.001732	-0.584961	-0.406006	-0.146973	0.797455	0.100967	-0.264249	0.532957
62972		5.141586	-1.186762	8.205248	-0.000652	-0.006925	0.000702	-0.602783	-0.406982	-0.148438	0.797468	0.100988	-0.264280	0.532919
62973		5.134620	-1.219964	8.213332	0.000289	-0.005815	0.001056	-0.598633	-0.406738	-0.147949	0.797469	0.101004	-0.264286	0.532911
62974		5.126598	-1.196630	8.194677	-0.000647	-0.005183	-0.000401	-0.591797	-0.399902	-0.148682	0.797486	0.101012	-0.264292	0.532882
62975		5.137869	-1.207337	8.206824	0.000545	-0.005505	0.001517	-0.599365	-0.405029	-0.141357	0.797483	0.101025	-0.264291	0.532883
62976		5.132645	-1.214741	8.204949	0.001914	-0.003906	0.001301	-0.589600	-0.409424	-0.148682	0.797491	0.101047	-0.264272	0.532877
62977		5.134398	-1.202066	8.199383	-0.001373	-0.003342	0.001319	-0.599854	-0.412354	-0.150635	0.797512	0.101034	-0.264272	0.532848
62978		5.134717	-1.204123	8.212503	0.001615	-0.005157	0.000646	-0.597900	-0.404297	-0.155762	0.797523	0.101062	-0.264265	0.532830
62979		5.124391	-1.205963	8.204255	0.002555	-0.004047	0.000999	-0.591309	-0.405518	-0.151855	0.797521	0.101081	-0.264230	0.532847
62980		5.130750	-1.208930	8.196604	0.002343	-0.003419	0.000732	-0.592773	-0.401855	-0.146973	0.797532	0.101101	-0.264198	0.532842
62981		5.130929	-1.210579	8.209874	0.001446	-0.003590	0.000573	-0.596191	-0.408691	-0.149170	0.797542	0.101114	-0.264173	0.532837
62982		5.120993	-1.201848	8.210228	0.000122	-0.004250	0.000983	-0.600830	-0.402588	-0.140137	0.797555	0.101120	-0.264167	0.532820
62983		5.139216	-1.201024	8.196517	0.001659	-0.004219	0.000840	-0.590820	-0.399658	-0.145996	0.797559	0.101141	-0.264148	0.532818
62984		5.138371	-1.215373	8.214900	0.002772	-0.002931	0.000163	-0.595703	-0.407227	-0.151123	0.797571	0.101163	-0.264106	0.532817
62985		5.123706	-1.190174	8.217539	0.001703	-0.003280	0.001034	-0.592041	-0.400391	-0.146484	0.797581	0.101175	-0.264076	0.532815
62986		5.129819	-1.201877	8.187834	0.004353	-0.001961	0.000213	-0.591797	-0.406494	-0.149902	0.797593	0.101205	-0.264013	0.532822
62987		5.129011	-1.205009	8.215137	0.003543	-0.000254	0.000442	-0.593018	-0.406738	-0.148438	0.797619	0.101219	-0.263943	0.532816
62988		5.124377	-1.196919	8.195209	0.004400	0.000722	-0.000696	-0.598633	-0.404785	-0.147705	0.797654	0.101239	-0.263857	0.532803
62989		5.134556	-1.197732	8.230409	0.003716	-0.000078	-0.000588	-0.597900	-0.404053	-0.147949	0.797677	0.101254	-0.263777	0.532804
62990		5.118358	-1.193909	8.216285	0.002603	-0.001365	0.000089	-0.591797	-0.400635	-0.136230	0.797693	0.101262	-0.263718	0.532809
62991		5.129707	-1.200042	8.201801	0.003800	0.000057	0.000902	-0.588379	-0.407471	-0.152100	0.797717	0.101282	-0.263650	0.532803
62992		5.114109	-1.176484	8.218397	0.003457	-0.002133	0.000055	-0.600830	-0.399658	-0.152344	0.797742	0.101308	-0.263599	0.532785
62993		5.135922	-1.192962	8.216623	0.005976	-0.001796	0.001561	-0.589844	-0.403320	-0.146729	0.797724	0.101337	-0.263508	0.532852
62994		5.129588	-1.208100	8.193410	0.007179	0.003113	0.000166	-0.592041	-0.401611	-0.152588	0.797757	0.101365	-0.263380	0.532861
62995		5.123371	-1.194124	8.223498	0.009358	0.003003	-0.000279	-0.599854	-0.408936	-0.151367	0.797777	0.101409	-0.263226	0.532898
62996		5.111783	-1.183428	8.225157	0.009406	0.005685	-0.001191	-0.598389	-0.408203	-0.155273	0.797819	0.101443	-0.263051	0.532915
62997		5.099420	-1.183599	8.218427	0.008509	0.005513	-0.001350	-0.589355	-0.401855	-0.146484	0.797859	0.101466	-0.262879	0.532935
62998		5.102520	-1.199995	8.230820	0.006500	0.004055	-0.000830	-0.601318	-0.412842	-0.149658	0.797900	0.101484	-0.262743	0.532937
62999		5.110253	-1.165582	8.222349	0.005003	0.001382	-0.002296	-0.597412	-0.398438	-0.146729	0.797950	0.101513	-0.262646	0.532906
63000		5.120269	-1.183948	8.213280	0.004402	0.000719	-0.000696	-0.599365	-0.405762	-0.149658	0.797961	0.101522	-0.262544	0.532937
63001		5.120772	-1.172011	8.221977	0.005725	-0.000366	-0.000002	-0.585205	-0.411133	-0.148682	0.797975	0.101555	-0.262452	0.532956
63002		5.121096	-1.160169	8.230769	0.003593	0.002426	-0.000470	-0.595947	-0.409424	-0.144775	0.798038	0.101565	-0.262368	0.532901
63003		5.102978	-1.170928	8.235682	0.004187	-0.000396	0.000141	-0.582275	-0.405518	-0.152100	0.798070	0.101593	-0.262302	0.532879
63004		5.103537	-1.168337	8.222087	0.002905	-0.000115	0.000744	-0.594971	-0.411133	-0.153809	0.798102	0.101598	-0.262237	0.532863
63005		5.108738	-1.173121	8.228525	0.002861	-0.001054	0.000552	-0.594238	-0.405762	-0.152588	0.798125	0.101607	-0.262177	0.532856
63006		5.102094	-1.182012	8.240967	0.003417	0.000508	0.001665	-0.588623	-0.406738	-0.151611	0.798134	0.101603	-0.262092	0.532886
63007		5.108560	-1.181239	8.206560	0.002135	0.000790	0.002269	-0.598145	-0.406006	-0.146484	0.798153	0.101588	-0.262021	0.532894
63008		5.091809	-1.170675	8.228269	0.003459	-0.002135	0.000058	-0.597900	-0.411377	-0.152344	0.798166	0.101613	-0.261965	0.532898
63009		5.091635	-1.172226	8.241775	0.001619	-0.001576	0.002453	-0.589844	-0.401855	-0.157471	0.798174	0.101607	-0.261921	0.532909
63010		5.104248	-1.165855	8.221997	0.004184	-0.002139	0.001247	-0.590576	-0.412842	-0.147949	0.798165	0.101620	-0.261846	0.532956
63011		5.104496	-1.165417	8.221906	0.002304	-0.000777	0.002344	-0.593262	-0.399658	-0.155029	0.798197	0.101629	-0.261805	0.532926
63012		5.098395	-1.172472	8.220658	0.004272	-0.000261	0.001631	-0.589355	-0.407227	-0.145508	0.798183	0.101627	-0.261707	0.532997
63013		5.109552	-1.169541	8.228529	0.005682	0.000533	0.002710	-0.594238	-0.409668	-0.152344	0.798203	0.101657	-0.261625	0.533001
63014		5.098025	-1.161788	8.243324	0.006071	0.001822	0.000842	-0.597412	-0.395264	-0.157959	0.798228	0.101678	-0.261516	0.533013
63015		5.098308	-1.158979	8.229928	0.004529	0.000050	0.002092	-0.592529	-0.399902	-0.149170	0.798187	0.101662	-0.261394	0.533138
63016		5.087129	-1.160405	8.222284	0.005595	-0.001347	0.002326	-0.589844	-0.412354	-0.158936	0.798173	0.101688	-0.261310	0.533194
63017		5.087121	-1.161931	8.235691	0.000847	-0.004253	0.002179	-0.592041	-0.408691	-0.147217	0.798186	0.101692	-0.261299	0.533180
63018		5.082579	-1.167754	8.220038	-0.000099	-0.007105	0.002935	-0.592285	-0.401855	-0.146729	0.798185	0.101713	-0.261332	0.533161
63019		5.096167	-1.144577	8.243878	-0.003601	-0.005908	0.002685	-0.581787	-0.413330	-0.147217	0.798175	0.101683	-0.261361	0.533168
63020		5.090098	-1.165568	8.246959	-0.000523	-0.005850	0.002399	-0.589600	-0.413330	-0.156738	0.798215	0.101705	-0.261404	0.533083
63021		5.097215	-1.167311	8.225399	0.001317	-0.004570	0.002907	-0.595703	-0.408936	-0.154297	0.798224	0.101716	-0.261397	0.533070
63022		5.086934	-1.169668	8.217072	0.000375	-0.005680	0.002557	-0.585449	-0.407471	-0.150391	0.798212	0.101720	-0.261395	0.533089
63023		5.109288	-1.169374	8.259239	0.000720	-0.003490	0.003401	-0.595703	-0.406738	-0.148438	0.798220	0.101720	-0.261384	0.533083
63024		5.105780	-1.151608	8.247274	0.000038	-0.002545	0.002405	-0.601562	-0.410645	-0.150879	0.798220	0.101704	-0.261357	0.533098
63025		5.099788	-1.170225	8.237017	0.000163	-0.005053	0.002289	-0.584229	-0.405273	-0.155029	0.798212	0.101706	-0.261352	0.533113
63026		5.084328	-1.158416	8.244507	-0.000262	-0.003797	0.001753	-0.590576	-0.407471	-0.151855	0.798219	0.101694	-0.261338	0.533110
63027		5.102548	-1.157827	8.230748	0.001702	-0.005025	0.002145	-0.596680	-0.404053	-0.150146	0.798218	0.101713	-0.261325	0.533115
63028		5.098360	-1.152712	8.223728	-0.000220	-0.004600	0.003051	-0.594727	-0.412842	-0.156982	0.798195	0.101700	-0.261312	0.533158
63029		5.085878	-1.171894	8.247961	-0.000690	-0.004284	0.002323	-0.592041	-0.400635	-0.140381	0.798201	0.101687	-0.261308	0.533154
63030		5.099592	-1.155565	8.236192	-0.001375	-0.005083	0.002433	-0.587158	-0.413086	-0.153564	0.798194	0.101680	-0.261320	0.533161
63031		5.099614	-1.178208	8.218338	-0.003087	-0.007030	0.004714	-0.593750	-0.406982	-0.157227	0.798197	0.101663	-0.261376	0.533131
63032		5.095102	-1.176402	8.224683	-0.006545	-0.004891	0.004659	-0.586670	-0.403564	-0.141357	0.798174	0.101579	-0.261407	0.533166
63033		5.097165	-1.156949	8.240805	-0.009409	-0.005577	0.005215	-0.592773	-0.412109	-0.152832	0.798175	0.101492	-0.261491	0.533140
63034		5.096821	-1.174465	8.258484	-0.010008	-0.007985	0.007921	-0.591797	-0.399170	-0.155273	0.798151	0.101398	-0.261600	0.533141
63035		5.094989	-1.155990	8.218328	-0.013722	-0.006159	0.007408	-0.592285	-0.398438	-0.145996	0.798096	0.101236	-0.261684	0.533213
63036		5.100241	-1.177651	8.228635	-0.012013	-0.007700	0.007338	-0.588623	-0.406738	-0.155762	0.798046	0.101114	-0.261786	0.533260
63037		5.094816	-1.199208	8.217557	-0.011413	-0.007039	0.005737	-0.591797	-0.401367	-0.149902	0.798031	0.100999	-0.261882	0.533258
63038		5.091543	-1.185790	8.218498	-0.008806	-0.006665	0.004719	-0.593750	-0.404785	-0.157959	0.798005	0.100910	-0.261951	0.533280
63039		5.087023	-1.184744	8.224758	-0.008804	-0.004921	0.003615	-0.591553	-0.409668	-0.145508	0.797988	0.100806	-0.261993	0.533303
63040		5.065151	-1.193047	8.222053	-0.007141	-0.007402	0.003350	-0.591797	-0.403809	-0.152344	0.798003	0.100763	-0.262084	0.533245
63041		5.105228	-1.202836	8.228227	-0.007949	-0.005693	0.003579	-0.596436	-0.404785	-0.153564	0.797992	0.100680	-0.262138	0.533250
63042		5.084793	-1.196096	8.206833	-0.004873	-0.005636	0.003288	-0.584961	-0.394287	-0.152344	0.797972	0.100626	-0.262165	0.533277
63043		5.085391	-1.199033	8.219690	-0.002356	-0.005394	0.000779	-0.600830	-0.409912	-0.154541	0.797956	0.100597	-0.262162	0.533308
63044		5.085796	-1.210381	8.210461	-0.002870	-0.004270	-0.001245	-0.597656	-0.402832	-0.148926	0.797976	0.100573	-0.262162	0.533283
63045		5.105414	-1.177628	8.222432	-0.001964	-0.000517	0.000716	-0.590576	-0.409180	-0.152588	0.797984	0.100526	-0.262119	0.533301
63046		5.085906	-1.212859	8.223688	0.001280	-0.000282	-0.000606	-0.590332	-0.403076	-0.149658	0.798031	0.100523	-0.262067	0.533257
63047		5.098073	-1.188730	8.248666	0.000730	0.003485	-0.001020	-0.590088	-0.395996	-0.147217	0.798076	0.100486	-0.261972	0.533243
63048		5.080684	-1.196170	8.226339	0.001155	0.000481	0.000617	-0.588379	-0.403076	-0.159668	0.798078	0.100460	-0.261893	0.533283
63049		5.085657	-1.202731	8.246300	0.004604	-0.003497	-0.002241	-0.593262	-0.402832	-0.153320	0.798093	0.100498	-0.261825	0.533287
63050		5.088223	-1.178120	8.249287	0.002125	-0.004636	-0.002445	-0.592285	-0.410645	-0.152588	0.798106	0.100526	-0.261789	0.533280
63051		5.088008	-1.190078	8.254013	0.002854	-0.002897	-0.002362	-0.590820	-0.404297	-0.153564	0.798156	0.100563	-0.261752	0.533217
63052		5.089419	-1.186478	8.240005	0.009769	-0.005432	-0.003368	-0.590088	-0.407227	-0.153320	0.798173	0.100678	-0.261677	0.533207
63053		5.092251	-1.160503	8.243007	0.008659	-0.004974	-0.003792	-0.584717	-0.405762	-0.161133	0.798208	0.100785	-0.261613	0.533166
63054		5.081126	-1.173488	8.240004	0.006269	-0.005979	-0.002506	-0.586182	-0.400146	-0.149658	0.798227	0.100859	-0.261564	0.533146
63055		5.093002	-1.180418	8.238661	0.007380	-0.004693	-0.003187	-0.597900	-0.407959	-0.147217	0.798247	0.100947	-0.261499	0.533132
63056		5.100741	-1.169520	8.225781	0.005078	-0.005563	-0.000409	-0.593750	-0.404541	-0.159180	0.798254	0.101018	-0.261470	0.533122
63057		5.091060	-1.159571	8.226196	0.005718	-0.003959	-0.001817	-0.590820	-0.405762	-0.157715	0.798250	0.101065	-0.261392	0.533157
63058		5.091769	-1.158092	8.225966	0.006918	-0.002537	-0.001008	-0.590820	-0.408691	-0.154053	0.798260	0.101119	-0.261304	0.533176
63059		5.092661	-1.147588	8.247910	0.006831	-0.004419	-0.001393	-0.598145	-0.404297	-0.149658	0.798283	0.101196	-0.261249	0.533153
63060		5.086268	-1.175343	8.229222	0.005764	-0.004765	-0.000520	-0.593262	-0.398193	-0.155762	0.798271	0.101258	-0.261191	0.533188
63061		5.104181	-1.166638	8.251378	0.004101	-0.004029	0.000850	-0.590088	-0.410156	-0.150146	0.798230	0.101276	-0.261117	0.533282
63062		5.088749	-1.162743	8.236822	0.003543	-0.005594	-0.000262	-0.589600	-0.396729	-0.153320	0.798262	0.101335	-0.261111	0.533226
63063		5.105893	-1.174009	8.228263	0.004315	-0.002913	0.000012	-0.591064	-0.411377	-0.149902	0.798238	0.101354	-0.261029	0.533299
63064		5.091111	-1.150402	8.244456	0.002005	-0.005622	-0.000115	-0.591064	-0.409912	-0.156982	0.798274	0.101399	-0.261035	0.533234
63065		5.096734	-1.157455	8.263968	-0.000086	-0.003627	0.000721	-0.586426	-0.403564	-0.147461	0.798293	0.101391	-0.261017	0.533215
63066		5.085927	-1.168347	8.233772	0.003506	-0.002948	0.001345	-0.588867	-0.400146	-0.156250	0.798309	0.101422	-0.260978	0.533204
63067		5.075783	-1.159183	8.234366	0.002866	-0.002806	0.001649	-0.591553	-0.403076	-0.146240	0.798285	0.101421	-0.260909	0.533275
63068		5.081015	-1.166094	8.254142	0.001968	-0.002976	0.001493	-0.594238	-0.404053	-0.150391	0.798286	0.101435	-0.260874	0.533286
63069		5.093731	-1.159822	8.234155	0.003596	-0.002812	0.002835	-0.596436	-0.405762	-0.151855	0.798266	0.101452	-0.260818	0.533341
63070		5.082585	-1.163586	8.239861	0.002182	-0.003606	0.001760	-0.589355	-0.407959	-0.153320	0.798251	0.101462	-0.260776	0.533382
63071		5.095788	-1.148755	8.241796	-0.000724	-0.005232	0.002131	-0.586670	-0.402832	-0.148682	0.798261	0.101458	-0.260785	0.533363
63072		5.085283	-1.159964	8.211366	0.001409	-0.004541	0.000381	-0.592773	-0.398193	-0.150635	0.798275	0.101478	-0.260770	0.533346
63073		5.079634	-1.160225	8.245514	0.001543	-0.003464	0.002064	-0.593750	-0.406006	-0.149414	0.798236	0.101471	-0.260717	0.533432
63074		5.086697	-1.152690	8.246213	-0.000005	-0.005335	-0.000693	-0.595947	-0.405029	-0.157959	0.798248	0.101486	-0.260714	0.533412
63075		5.087166	-1.163551	8.237038	0.000085	-0.005199	0.000797	-0.588379	-0.406982	-0.151611	0.798222	0.101476	-0.260685	0.533468
63076		5.083188	-1.158575	8.229882	-0.001665	-0.006344	0.001783	-0.590576	-0.401367	-0.153076	0.798235	0.101474	-0.260714	0.533435
63077		5.101593	-1.151334	8.251516	-0.001540	-0.007110	0.000560	-0.591797	-0.404297	-0.150635	0.798215	0.101467	-0.260723	0.533462
63078		5.085481	-1.161351	8.241751	-0.001024	-0.006487	0.001479	-0.588867	-0.406738	-0.148438	0.798206	0.101468	-0.260736	0.533468
63079		5.069706	-1.169302	8.218393	-0.000688	-0.006135	-0.000582	-0.592041	-0.403564	-0.151855	0.798238	0.101488	-0.260760	0.533405
63080		5.083223	-1.147718	8.255797	-0.002605	-0.007456	0.001435	-0.588379	-0.408447	-0.147461	0.798220	0.101476	-0.260787	0.533421
63081		5.102143	-1.147426	8.241410	0.000171	-0.008655	0.000486	-0.590576	-0.413574	-0.157227	0.798248	0.101523	-0.260840	0.533344
63082		5.097872	-1.153283	8.225545	-0.002134	-0.006028	0.001057	-0.594238	-0.399658	-0.148193	0.798282	0.101515	-0.260872	0.533279
63083		5.098060	-1.166453	8.229889	-0.000123	-0.006319	0.001634	-0.587891	-0.409912	-0.154785	0.798241	0.101518	-0.260862	0.533345
63084		5.088546	-1.158074	8.230008	-0.000977	-0.005547	0.001671	-0.595703	-0.402100	-0.143066	0.798267	0.101516	-0.260881	0.533298
63085		5.094673	-1.163717	8.235738	-0.000767	-0.004430	0.000833	-0.592041	-0.408936	-0.151855	0.798256	0.101517	-0.260874	0.533316
63086		5.105676	-1.174605	8.248028	-0.000938	-0.002859	0.000758	-0.590332	-0.411621	-0.153564	0.798283	0.101502	-0.260861	0.533285
63087		5.091933	-1.146374	8.223244	-0.002261	-0.003516	0.001174	-0.596436	-0.407715	-0.150146	0.798324	0.101480	-0.260871	0.533223
63088		5.096045	-1.175755	8.225820	-0.000464	-0.003177	0.001484	-0.592285	-0.409424	-0.157471	0.798325	0.101468	-0.260851	0.533233
63089		5.098524	-1.161499	8.206287	-0.001703	-0.007290	0.001591	-0.586426	-0.406250	-0.155273	0.798322	0.101460	-0.260874	0.533228
63090		5.087877	-1.158752	8.247394	0.001460	-0.005351	0.001676	-0.589844	-0.413330	-0.151611	0.798329	0.101473	-0.260863	0.533221
63091		5.100880	-1.152961	8.227093	-0.000889	-0.003665	0.002056	-0.591797	-0.406982	-0.150635	0.798378	0.101471	-0.260879	0.533139
63092		5.094751	-1.171556	8.216892	0.000649	-0.003638	0.001906	-0.590088	-0.400879	-0.152832	0.798385	0.101472	-0.260861	0.533139
63093		5.085704	-1.143144	8.248004	0.000864	-0.004268	0.002173	-0.590576	-0.411621	-0.153564	0.798351	0.101463	-0.260822	0.533210
63094		5.085357	-1.156019	8.252723	0.000435	-0.003008	0.001639	-0.595703	-0.402832	-0.146484	0.798387	0.101462	-0.260810	0.533161
63095		5.086263	-1.163251	8.216378	-0.000292	-0.004750	0.001559	-0.595947	-0.408203	-0.155029	0.798363	0.101462	-0.260797	0.533204
63096		5.082418	-1.148990	8.231527	0.001842	-0.005806	0.000912	-0.584473	-0.406250	-0.153320	0.798349	0.101482	-0.260775	0.533233
63097		5.082250	-1.161766	8.236151	0.000269	-0.003185	0.002670	-0.594727	-0.404541	-0.157471	0.798370	0.101471	-0.260760	0.533211
63098		5.095167	-1.149181	8.251620	-0.001184	-0.006668	0.002510	-0.590820	-0.411133	-0.150635	0.798321	0.101449	-0.260750	0.533293
63099		5.078522	-1.161515	8.255582	-0.003835	-0.006235	0.002239	-0.597900	-0.398926	-0.153564	0.798353	0.101432	-0.260806	0.533221
63100		5.091936	-1.156449	8.234905	-0.001608	-0.007157	0.003081	-0.588135	-0.405762	-0.154297	0.798260	0.101403	-0.260788	0.533374
63101		5.092441	-1.167966	8.225586	-0.001829	-0.004779	0.001709	-0.587158	-0.399658	-0.145996	0.798267	0.101380	-0.260790	0.533367
63102		5.075720	-1.171124	8.251979	-0.001096	-0.004786	0.002894	-0.589844	-0.411133	-0.148193	0.798251	0.101369	-0.260791	0.533393
63103		5.094534	-1.160289	8.246462	-0.001261	-0.004962	0.003925	-0.593506	-0.404541	-0.143555	0.798284	0.101370	-0.260830	0.533324
63104		5.090914	-1.151678	8.212196	-0.000462	-0.003179	0.001484	-0.586914	-0.412842	-0.148438	0.798293	0.101371	-0.260822	0.533314
63105		5.078448	-1.170853	8.236630	-0.000577	-0.004163	0.003812	-0.592773	-0.406006	-0.153809	0.798352	0.101379	-0.260860	0.533205
63106		5.090611	-1.169056	8.243662	0.001815	-0.004909	0.003623	-0.587646	-0.413086	-0.154785	0.798323	0.101384	-0.260834	0.533260
63107		5.104059	-1.154476	8.245384	-0.000923	-0.006359	0.002968	-0.597412	-0.406006	-0.151611	0.798365	0.101390	-0.260876	0.533177
63108		5.070448	-1.165122	8.249193	0.000400	-0.005702	0.002550	-0.597656	-0.409912	-0.149902	0.798328	0.101392	-0.260862	0.533238
63109		5.084472	-1.148870	8.237086	-0.002504	-0.007329	0.002927	-0.591064	-0.411865	-0.149658	0.798318	0.101387	-0.260905	0.533233
63110		5.096307	-1.158328	8.235336	-0.001094	-0.004788	0.002894	-0.591553	-0.398682	-0.153809	0.798357	0.101388	-0.260936	0.533160
63111		5.085920	-1.160889	8.227103	-0.000548	-0.005065	0.001099	-0.594238	-0.400635	-0.147461	0.798301	0.101365	-0.260895	0.533268
63112		5.092086	-1.166622	8.232787	-0.000878	-0.005419	0.003161	-0.593018	-0.413818	-0.151123	0.798250	0.101353	-0.260884	0.533351
63113		5.087214	-1.174801	8.230657	-0.002546	-0.008273	0.002735	-0.590332	-0.395996	-0.154785	0.798283	0.101363	-0.260960	0.533263
63114		5.073412	-1.150636	8.232804	-0.001610	-0.005412	0.001976	-0.588379	-0.407227	-0.150635	0.798205	0.101321	-0.260919	0.533408
63115		5.101642	-1.163374	8.245039	-0.003312	-0.005616	0.003159	-0.585693	-0.402832	-0.147217	0.798222	0.101295	-0.260957	0.533369
63116		5.074589	-1.165061	8.236362	-0.001654	-0.006355	0.001783	-0.590088	-0.409180	-0.150146	0.798233	0.101297	-0.260989	0.533337
63117		5.080980	-1.171031	8.241873	-0.002292	-0.006213	0.002089	-0.588379	-0.406494	-0.147461	0.798261	0.101294	-0.261032	0.533275
63118		5.093820	-1.169952	8.248377	-0.004029	-0.009111	0.004184	-0.587891	-0.404785	-0.152344	0.798263	0.101287	-0.261118	0.533231
63119		5.083296	-1.186118	8.244628	-0.003433	-0.010197	0.003685	-0.585449	-0.405273	-0.154785	0.798240	0.101280	-0.261189	0.533231
63120		5.098570	-1.159560	8.240593	-0.003440	-0.008447	0.002581	-0.591553	-0.396973	-0.150146	0.798239	0.101260	-0.261241	0.533212
63121		5.081904	-1.171955	8.244602	-0.002203	-0.004330	0.002474	-0.595459	-0.399658	-0.144775	0.798174	0.101217	-0.261208	0.533333
63122		5.099552	-1.173920	8.244270	-0.000570	-0.004169	0.003811	-0.589600	-0.408447	-0.154053	0.798116	0.101202	-0.261186	0.533433
63123		5.096096	-1.158164	8.245749	-0.000114	-0.006331	0.001629	-0.596191	-0.401123	-0.156250	0.798133	0.101211	-0.261201	0.533399
63124		5.090271	-1.176703	8.235329	0.000449	-0.004766	0.002740	-0.593750	-0.402344	-0.147461	0.798055	0.101185	-0.261144	0.533549
63125		5.090950	-1.176978	8.234870	0.000061	-0.002560	0.002401	-0.587891	-0.402588	-0.150391	0.798032	0.101170	-0.261107	0.533603
63126		5.081030	-1.168686	8.235310	-0.000872	-0.005424	0.003159	-0.594727	-0.398193	-0.151367	0.798019	0.101159	-0.261112	0.533623
63127		5.092799	-1.171069	8.269448	-0.002029	-0.005905	0.002548	-0.588867	-0.401855	-0.160889	0.797941	0.101126	-0.261089	0.533757
63128		5.088437	-1.175412	8.240079	-0.001553	-0.006225	0.003272	-0.591553	-0.408203	-0.149902	0.797889	0.101081	-0.261067	0.533854
63129		5.101091	-1.174191	8.246709	-0.003134	-0.007195	0.003233	-0.600342	-0.400146	-0.154053	0.797900	0.101071	-0.261123	0.533812
63130		5.096861	-1.178851	8.217204	-0.002614	-0.006573	0.004150	-0.593018	-0.407715	-0.151367	0.797790	0.101024	-0.261101	0.533996
63131		5.087519	-1.163850	8.253151	-0.001011	-0.006503	0.001476	-0.592529	-0.407959	-0.152100	0.797798	0.101032	-0.261124	0.533971
63132		5.087363	-1.185856	8.235280	-0.000112	-0.006334	0.001628	-0.584717	-0.401611	-0.149414	0.797807	0.101045	-0.261140	0.533947
63133		5.089915	-1.171565	8.215669	-0.001129	-0.005738	0.002700	-0.592529	-0.403564	-0.153809	0.797812	0.101038	-0.261157	0.533932
63134		5.100731	-1.186645	8.254922	-0.001388	-0.006050	0.002241	-0.593750	-0.414062	-0.147217	0.797782	0.101019	-0.261154	0.533983
63135		5.091164	-1.185229	8.219272	0.001047	-0.005855	0.002239	-0.597168	-0.396729	-0.151611	0.797840	0.101066	-0.261199	0.533865
63136		5.087562	-1.171379	8.234340	-0.001550	-0.006228	0.003272	-0.597168	-0.404541	-0.145752	0.797731	0.101032	-0.261165	0.534052
63137		5.095260	-1.162667	8.221047	-0.000651	-0.006060	0.003424	-0.586182	-0.406982	-0.153564	0.797696	0.101041	-0.261178	0.534095
63138		5.101486	-1.168662	8.226641	-0.002718	-0.004956	0.001558	-0.588867	-0.405273	-0.151855	0.797738	0.101015	-0.261204	0.534025
63139		5.095888	-1.178537	8.238471	-0.000759	-0.004441	0.000831	-0.589111	-0.413330	-0.154297	0.797760	0.101008	-0.261202	0.533994
63140		5.104160	-1.158578	8.233848	-0.000326	-0.005705	0.001362	-0.592041	-0.403320	-0.152100	0.797828	0.101022	-0.261239	0.533872
63141		5.081828	-1.166890	8.245437	0.000194	-0.005082	0.002279	-0.593994	-0.400146	-0.158691	0.797803	0.101017	-0.261220	0.533919
63142		5.094061	-1.172279	8.216439	-0.001980	-0.004966	0.002741	-0.586914	-0.401123	-0.152588	0.797725	0.100960	-0.261174	0.534069
63143		5.099647	-1.181963	8.249411	-0.000326	-0.005706	0.001362	-0.600342	-0.405029	-0.151367	0.797716	0.100954	-0.261166	0.534088
63144		5.096524	-1.164192	8.237252	-0.000183	-0.004629	0.003044	-0.591553	-0.403076	-0.153076	0.797659	0.100942	-0.261137	0.534190
63145		5.102656	-1.170030	8.242925	-0.001602	-0.005421	0.001976	-0.594971	-0.405518	-0.147705	0.797637	0.100920	-0.261132	0.534228
63146		5.092330	-1.172461	8.234696	0.001310	-0.005547	0.002695	-0.593262	-0.409180	-0.146240	0.797621	0.100946	-0.261131	0.534248
63147		5.098706	-1.176123	8.226768	-0.000399	-0.003998	0.002779	-0.595459	-0.405029	-0.151611	0.797654	0.100958	-0.261152	0.534186
63148		5.094270	-1.173214	8.233389	-0.001905	-0.006677	0.001324	-0.586426	-0.406250	-0.150146	0.797631	0.100950	-0.261165	0.534216
63149		5.101644	-1.166269	8.233789	-0.001179	-0.004932	0.001403	-0.592773	-0.413086	-0.154053	0.797676	0.100949	-0.261189	0.534137
63150		5.095058	-1.188739	8.250775	0.000197	-0.005085	0.002278	-0.591797	-0.400635	-0.152588	0.797722	0.100960	-0.261208	0.534058
63151		5.092246	-1.168952	8.224951	-0.000064	-0.005396	0.001820	-0.587158	-0.401611	-0.144287	0.797678	0.100949	-0.261181	0.534138
63152		5.098203	-1.176712	8.244220	-0.002498	-0.005591	0.001825	-0.590332	-0.407959	-0.149902	0.797693	0.100946	-0.261217	0.534098
63153		5.093178	-1.184636	8.242229	-0.000845	-0.006331	0.000444	-0.594971	-0.405518	-0.144043	0.797732	0.100963	-0.261251	0.534021
63154		5.088719	-1.181314	8.248935	0.000085	-0.003464	-0.000315	-0.584473	-0.396484	-0.150146	0.797753	0.100984	-0.261245	0.533988
63155		5.090986	-1.166787	8.229510	-0.000484	-0.005887	0.002392	-0.588379	-0.400879	-0.153564	0.797717	0.100972	-0.261232	0.534051
63156		5.102626	-1.175864	8.227834	-0.000019	-0.004454	0.002013	-0.587646	-0.401611	-0.148438	0.797693	0.100953	-0.261201	0.534106
63157		5.098225	-1.170878	8.220972	-0.000873	-0.003679	0.002055	-0.589844	-0.405273	-0.143799	0.797696	0.100939	-0.261191	0.534108
63158		5.076372	-1.168354	8.241314	0.000880	-0.004285	0.002163	-0.591553	-0.402588	-0.153809	0.797725	0.100968	-0.261205	0.534053
63159		5.094272	-1.169914	8.240804	-0.001481	-0.006190	0.000752	-0.591064	-0.406982	-0.152100	0.797700	0.100951	-0.261198	0.534096
63160		5.095127	-1.170260	8.240226	0.000070	-0.002566	0.002399	-0.592529	-0.405273	-0.152588	0.797719	0.100936	-0.261175	0.534082
63161		5.090019	-1.175859	8.224846	0.000954	-0.005996	0.000746	-0.595947	-0.408447	-0.148926	0.797712	0.100953	-0.261165	0.534094
63162		5.097178	-1.168681	8.225407	-0.001510	-0.003536	0.002363	-0.586914	-0.402588	-0.153320	0.797722	0.100940	-0.261169	0.534080
63163		5.102313	-1.187123	8.236219	0.001011	-0.006808	0.002041	-0.593506	-0.411377	-0.150391	0.797712	0.100952	-0.261166	0.534095
63164		5.093665	-1.167764	8.244972	-0.000959	-0.005568	0.001669	-0.595215	-0.403809	-0.148193	0.797754	0.100963	-0.261200	0.534013
63165		5.089543	-1.162669	8.237958	0.000838	-0.005231	0.001969	-0.597168	-0.396973	-0.152344	0.797725	0.100979	-0.261186	0.534060
63166		5.107024	-1.173138	8.215187	-0.000741	-0.006201	0.001934	-0.593506	-0.406982	-0.150391	0.797614	0.100956	-0.261139	0.534252
63167		5.102396	-1.171731	8.235518	0.001897	-0.004885	0.001089	-0.591797	-0.402832	-0.149170	0.797622	0.100984	-0.261126	0.534241
63168		5.086447	-1.170333	8.234819	0.000144	-0.004277	0.000981	-0.596191	-0.409668	-0.152832	0.797614	0.100986	-0.261107	0.534264
63169		5.104296	-1.171656	8.234351	-0.000001	-0.005355	-0.000701	-0.592285	-0.401611	-0.152344	0.797635	0.101000	-0.261105	0.534230
63170		5.094791	-1.162980	8.234669	-0.000320	-0.005712	0.001361	-0.591553	-0.403076	-0.144775	0.797597	0.100992	-0.261085	0.534298
63171		5.111189	-1.186143	8.217068	0.000101	-0.005222	0.000788	-0.594238	-0.411865	-0.149658	0.797601	0.101016	-0.261093	0.534284
63172		5.101990	-1.170728	8.253188	-0.001160	-0.006693	0.002507	-0.590332	-0.409180	-0.156982	0.797635	0.101033	-0.261143	0.534205
63173		5.081461	-1.162701	8.232203	-0.002116	-0.006050	0.001061	-0.595703	-0.404297	-0.149414	0.797664	0.101011	-0.261162	0.534156
63174		5.098635	-1.177186	8.236594	-0.000884	-0.007281	0.000251	-0.589111	-0.407715	-0.155518	0.797639	0.101026	-0.261174	0.534186
63175		5.095800	-1.159300	8.224279	-0.000318	-0.005714	0.001360	-0.584229	-0.399414	-0.142822	0.797663	0.101021	-0.261179	0.534148
63176		5.113522	-1.162627	8.237376	0.000739	-0.005367	0.000479	-0.588867	-0.405762	-0.154297	0.797683	0.101055	-0.261191	0.534106
63177		5.091425	-1.168901	8.235449	-0.000912	-0.004627	0.001862	-0.593994	-0.413574	-0.155029	0.797696	0.101035	-0.261184	0.534094
63178		5.088052	-1.150969	8.223474	0.001567	-0.003488	0.002046	-0.584961	-0.406982	-0.151367	0.797742	0.101043	-0.261172	0.534028
63179		5.092978	-1.169181	8.234449	-0.000753	-0.004448	0.000831	-0.588867	-0.398193	-0.160400	0.797803	0.101041	-0.261188	0.533931
63180		5.092852	-1.182042	8.239025	0.001262	-0.004745	0.001395	-0.597412	-0.403076	-0.148682	0.797730	0.101009	-0.261107	0.534085
63181		5.099940	-1.174790	8.239631	-0.001128	-0.003994	0.001598	-0.593750	-0.408447	-0.156738	0.797686	0.100994	-0.261081	0.534167
63182		5.090368	-1.164370	8.226462	0.000146	-0.004280	0.000981	-0.582764	-0.407715	-0.151855	0.797692	0.100981	-0.261055	0.534173
63183		5.113094	-1.173059	8.245982	0.000364	-0.004914	0.001245	-0.592773	-0.398682	-0.145020	0.797766	0.100992	-0.261077	0.534049
63184		5.097513	-1.168136	8.217993	-0.000605	-0.003371	0.002514	-0.601318	-0.407227	-0.150635	0.797715	0.100982	-0.261046	0.534143
63185		5.090994	-1.190431	8.235023	0.000436	-0.006625	-0.000173	-0.598145	-0.409180	-0.145752	0.797679	0.101008	-0.261037	0.534196
63186		5.093891	-1.168725	8.251264	0.000801	-0.006181	0.001774	-0.590820	-0.406982	-0.157471	0.797679	0.101050	-0.261059	0.534177
63187		5.100477	-1.170379	8.229636	-0.000446	-0.003193	0.001482	-0.588135	-0.414062	-0.153076	0.797689	0.101016	-0.261024	0.534187
63188		5.084332	-1.169236	8.229064	0.000888	-0.004292	0.002161	-0.597656	-0.406006	-0.154785	0.797777	0.101032	-0.261049	0.534038
63189		5.096706	-1.167233	8.235933	0.001324	-0.005559	0.002690	-0.587891	-0.405273	-0.159668	0.797725	0.101034	-0.261014	0.534133
63190		5.097689	-1.167312	8.235314	0.000627	-0.004604	0.001703	-0.594727	-0.413818	-0.153564	0.797724	0.101010	-0.260977	0.534158
63191		5.103901	-1.172569	8.241007	0.001379	-0.005513	0.000169	-0.590576	-0.405029	-0.145752	0.797778	0.101041	-0.260988	0.534065
63192		5.094151	-1.163901	8.241510	-0.000603	-0.003372	0.002514	-0.590820	-0.405029	-0.152100	0.797793	0.101041	-0.260991	0.534043
63193		5.095416	-1.162050	8.227184	0.001553	-0.007093	0.000240	-0.591309	-0.405762	-0.148193	0.797790	0.101073	-0.260989	0.534042
63194		5.078162	-1.177333	8.258923	-0.000227	-0.003827	0.001747	-0.586670	-0.406006	-0.143555	0.797803	0.101075	-0.260985	0.534024
63195		5.091092	-1.169559	8.224837	0.002007	-0.004759	0.002574	-0.593994	-0.409180	-0.151367	0.797845	0.101120	-0.261007	0.533941
63196		5.091611	-1.173578	8.251566	-0.000689	-0.005263	0.002128	-0.588867	-0.400635	-0.155762	0.797857	0.101120	-0.261018	0.533918
63197		5.082428	-1.161209	8.224630	0.000367	-0.004917	0.001245	-0.592529	-0.407227	-0.153809	0.797818	0.101101	-0.260972	0.534003
63198		5.094825	-1.159128	8.231490	0.001266	-0.004749	0.001393	-0.595947	-0.399170	-0.152832	0.797820	0.101107	-0.260950	0.534010
63199		5.089403	-1.166563	8.229838	0.000672	-0.003660	0.001896	-0.586914	-0.404053	-0.158447	0.797732	0.101087	-0.260877	0.534180
63200		5.102562	-1.153984	8.245199	-0.002329	-0.005421	0.000799	-0.596680	-0.404785	-0.158691	0.797736	0.101043	-0.260866	0.534187
63201		5.091454	-1.167225	8.228475	0.000804	-0.006185	0.001774	-0.588623	-0.408936	-0.145996	0.797674	0.101031	-0.260822	0.534304
63202		5.092594	-1.167545	8.227724	-0.001587	-0.005433	0.001979	-0.595947	-0.406006	-0.148193	0.797731	0.101044	-0.260874	0.534190
63203		5.088116	-1.164548	8.234457	-0.000487	-0.004140	0.001290	-0.589111	-0.403809	-0.154053	0.797720	0.101047	-0.260864	0.534211
63204		5.095376	-1.157287	8.234947	0.000805	-0.006186	0.001773	-0.588867	-0.407959	-0.147461	0.797707	0.101052	-0.260851	0.534237
63205		5.095252	-1.172139	8.253065	-0.000530	-0.005086	0.001096	-0.589111	-0.406006	-0.150635	0.797756	0.101069	-0.260881	0.534146
63206		5.090189	-1.179797	8.251163	-0.000355	-0.006666	0.001167	-0.588867	-0.406738	-0.152344	0.797772	0.101082	-0.260902	0.534108
63207		5.097936	-1.170670	8.237793	-0.000093	-0.006355	0.001625	-0.594971	-0.408936	-0.147705	0.797790	0.101090	-0.260917	0.534072
63208		5.099275	-1.168980	8.223381	-0.000530	-0.005087	0.001096	-0.589600	-0.405029	-0.149414	0.797810	0.101106	-0.260934	0.534032
63209		5.098960	-1.185759	8.255173	0.000807	-0.006188	0.001773	-0.588379	-0.405762	-0.152588	0.797812	0.101129	-0.260942	0.534021
63210		5.091907	-1.147670	8.217899	0.000370	-0.004920	0.001244	-0.592773	-0.408936	-0.155029	0.797829	0.101130	-0.260934	0.533998
63211		5.090911	-1.173369	8.227531	-0.001053	-0.005711	0.000181	-0.589844	-0.405518	-0.149414	0.797849	0.101122	-0.260937	0.533969
63212		5.092982	-1.162762	8.235251	-0.000834	-0.006345	0.000445	-0.586914	-0.402344	-0.145996	0.797864	0.101134	-0.260957	0.533935
63213		5.104969	-1.169917	8.219714	-0.000203	-0.005590	0.002849	-0.586182	-0.405029	-0.149414	0.797861	0.101146	-0.260972	0.533929
63214		5.101501	-1.154066	8.221329	-0.000223	-0.003831	0.001747	-0.592529	-0.409912	-0.152588	0.797892	0.101142	-0.260971	0.533885
63215		5.089638	-1.171013	8.232206	0.000633	-0.004609	0.001701	-0.592529	-0.406250	-0.149902	0.797918	0.101149	-0.260967	0.533846
63216		5.096683	-1.163687	8.232830	0.000677	-0.003663	0.001895	-0.594727	-0.405762	-0.153564	0.797919	0.101152	-0.260947	0.533855
63217		5.085863	-1.165948	8.224985	0.000302	-0.003208	0.002662	-0.588135	-0.402344	-0.151367	0.797890	0.101131	-0.260904	0.533922
63218		5.097984	-1.164149	8.231960	-0.000222	-0.003832	0.001747	-0.591797	-0.411133	-0.157715	0.797880	0.101116	-0.260877	0.533953
63219		5.093266	-1.160916	8.238896	0.000939	-0.003352	0.002352	-0.591064	-0.397461	-0.150391	0.797910	0.101099	-0.260849	0.533926
63220		5.081410	-1.175943	8.236214	0.000040	-0.003520	0.002204	-0.597656	-0.402588	-0.148926	0.797838	0.101078	-0.260792	0.534065
63221		5.093958	-1.170284	8.215800	0.000260	-0.004155	0.002469	-0.593018	-0.400146	-0.149170	0.797772	0.101076	-0.260754	0.534182
63222		5.095353	-1.161638	8.237504	0.000041	-0.003521	0.002204	-0.591309	-0.405029	-0.152832	0.797717	0.101064	-0.260711	0.534287
63223		5.090856	-1.156641	8.230721	-0.001121	-0.004000	0.001600	-0.588623	-0.406250	-0.143799	0.797714	0.101041	-0.260693	0.534306
63224		5.090343	-1.171776	8.249062	-0.000596	-0.003377	0.002515	-0.599609	-0.409180	-0.151123	0.797751	0.101052	-0.260713	0.534239
63225		5.081014	-1.159478	8.222194	0.000655	-0.006372	0.002803	-0.593262	-0.403809	-0.147461	0.797718	0.101071	-0.260714	0.534284
63226		5.081864	-1.161562	8.235213	0.000897	-0.004300	0.002158	-0.593262	-0.408936	-0.144531	0.797695	0.101086	-0.260696	0.534324
63227		5.099636	-1.161260	8.221067	-0.001339	-0.003366	0.001336	-0.584473	-0.408447	-0.153076	0.797734	0.101094	-0.260717	0.534253
63228		5.082348	-1.174945	8.239350	0.000480	-0.004791	0.002732	-0.592529	-0.404053	-0.158447	0.797790	0.101093	-0.260729	0.534165
63229		5.089714	-1.165765	8.226194	0.000372	-0.004923	0.001243	-0.589844	-0.401367	-0.148926	0.797755	0.101070	-0.260681	0.534244
63230		5.102224	-1.163777	8.232948	0.000592	-0.005558	0.001507	-0.582520	-0.412842	-0.151611	0.797729	0.101083	-0.260668	0.534288
63231		5.091339	-1.170116	8.252260	-0.001910	-0.004037	0.002942	-0.601074	-0.407715	-0.142822	0.797843	0.101064	-0.260719	0.534096
63232		5.092517	-1.166683	8.224329	0.001117	-0.004936	0.002421	-0.588623	-0.405273	-0.148682	0.797811	0.101108	-0.260723	0.534133
63233		5.098782	-1.172275	8.229930	-0.000461	-0.005906	0.002392	-0.594482	-0.412842	-0.155029	0.797821	0.101117	-0.260742	0.534107
63234		5.090113	-1.151151	8.225263	-0.001338	-0.003367	0.001336	-0.589844	-0.406982	-0.159180	0.797866	0.101092	-0.260739	0.534046
63235		5.089836	-1.166184	8.243483	0.000176	-0.006051	0.002081	-0.597656	-0.397705	-0.151367	0.797863	0.101073	-0.260722	0.534063
63236		5.102757	-1.160502	8.222804	-0.000043	-0.005416	0.001817	-0.593018	-0.406494	-0.150146	0.797750	0.101063	-0.260667	0.534261
63237		5.079565	-1.179565	8.226216	0.000000	-0.004470	0.002011	-0.593262	-0.402100	-0.153076	0.797747	0.101065	-0.260660	0.534267
63238		5.104405	-1.164685	8.248891	0.001229	-0.005704	0.001196	-0.590576	-0.407227	-0.149170	0.797700	0.101072	-0.260624	0.534355
63239		5.083757	-1.156261	8.228117	-0.002147	-0.007010	0.000874	-0.588623	-0.406982	-0.147461	0.797723	0.101078	-0.260667	0.534297
63240		5.090159	-1.162187	8.233586	-0.001797	-0.004805	0.001718	-0.594238	-0.413574	-0.154785	0.797760	0.101076	-0.260697	0.534228
63241		5.085986	-1.159327	8.240162	-0.001664	-0.007335	0.001594	-0.594482	-0.401855	-0.154785	0.797799	0.101075	-0.260740	0.534148
63242		5.092356	-1.165001	8.245686	0.000901	-0.004303	0.002156	-0.596436	-0.406250	-0.155029	0.797737	0.101060	-0.260683	0.534272
63243		5.076617	-1.160109	8.217791	-0.000788	-0.004507	0.003353	-0.594971	-0.413330	-0.152100	0.797695	0.101032	-0.260656	0.534354
63244		5.099502	-1.169350	8.237058	-0.001577	-0.005442	0.001981	-0.593506	-0.403564	-0.152100	0.797736	0.101028	-0.260688	0.534277
63245		5.089987	-1.161057	8.237447	-0.000940	-0.005586	0.001670	-0.592041	-0.406494	-0.154053	0.797702	0.101018	-0.260676	0.534336
63246		5.084647	-1.170807	8.249296	-0.000677	-0.005275	0.002127	-0.590576	-0.406006	-0.154053	0.797697	0.101004	-0.260670	0.534349
63247		5.097461	-1.167307	8.242204	-0.001882	-0.006701	0.001331	-0.584473	-0.402100	-0.147461	0.797699	0.100989	-0.260686	0.534341
63248		5.092720	-1.173254	8.226498	-0.000763	-0.007169	0.001740	-0.597412	-0.403320	-0.147949	0.797710	0.101005	-0.260720	0.534306
63249		5.088717	-1.170211	8.233005	-0.000982	-0.006534	0.001477	-0.596436	-0.406738	-0.152344	0.797655	0.101017	-0.260722	0.534383
63250		5.080376	-1.148969	8.228185	-0.000303	-0.005732	0.001359	-0.593018	-0.404541	-0.154297	0.797632	0.101019	-0.260714	0.534422
63251		5.092071	-1.158161	8.226308	-0.001574	-0.005444	0.001982	-0.588135	-0.399170	-0.152588	0.797606	0.100993	-0.260704	0.534470
63252		5.098281	-1.163938	8.231910	-0.000742	-0.004461	0.000832	-0.589844	-0.407227	-0.152344	0.797577	0.100971	-0.260670	0.534534
