// Start Time: Unknown
// Update Rate: 40.0Hz
// Filter Profile: human (46.1)
// Firmware Version: 4.3.4
PacketCounter	SampleTimeFine	Acc_X	Acc_Y	Acc_Z	Gyr_X	Gyr_Y	Gyr_Z	Mag_X	Mag_Y	Mag_Z	Quat_q0	Quat_q1	Quat_q2	Quat_q3
62344		9.787056	-0.589256	3.849778	0.000292	0.000732	-0.000519	-0.916504	-0.122070	-0.180908	-0.318257	-0.506198	0.248489	-0.762056
62345		9.801235	-0.583250	3.816858	-0.002952	0.000575	0.001519	-0.912354	-0.119873	-0.181152	-0.318262	-0.506180	0.248525	-0.762054
62346		9.799978	-0.597004	3.834223	0.000727	0.001348	-0.000097	-0.918457	-0.124268	-0.178711	-0.318258	-0.506174	0.248517	-0.762062
62347		9.789131	-0.604265	3.816867	0.000772	0.000186	0.000698	-0.916748	-0.117920	-0.178955	-0.318241	-0.506177	0.248518	-0.762067
62348		9.783403	-0.597441	3.839381	-0.004255	0.003533	0.002176	-0.914307	-0.122070	-0.180908	-0.318218	-0.506141	0.248595	-0.762075
62349		9.788665	-0.591844	3.817559	-0.003483	0.001317	0.001910	-0.912109	-0.122070	-0.178711	-0.318230	-0.506108	0.248632	-0.762081
62350		9.787360	-0.605854	3.834993	0.003718	0.001045	0.002547	-0.916504	-0.122070	-0.191895	-0.318180	-0.506110	0.248613	-0.762106
62351		9.800012	-0.591446	3.881146	0.004490	0.001231	0.003245	-0.916748	-0.115723	-0.183350	-0.318182	-0.506064	0.248538	-0.762160
62352		9.782727	-0.599792	3.840738	0.005787	-0.000292	0.005954	-0.912354	-0.117676	-0.185547	-0.318064	-0.506080	0.248541	-0.762198
62353		9.793595	-0.607305	3.858166	0.003897	-0.003603	0.005724	-0.910156	-0.119873	-0.185303	-0.317981	-0.506098	0.248548	-0.762219
62354		9.798222	-0.601281	3.851892	0.006318	-0.003437	0.004597	-0.909912	-0.124023	-0.180908	-0.317912	-0.506126	0.248507	-0.762242
62355		9.783395	-0.602248	3.838650	0.006507	-0.004716	0.006333	-0.916748	-0.113525	-0.187988	-0.317832	-0.506198	0.248469	-0.762240
62356		9.792533	-0.617214	3.827017	0.008486	-0.006132	0.007187	-0.914551	-0.113525	-0.183594	-0.317672	-0.506224	0.248474	-0.762287
62357		9.788652	-0.583257	3.830371	0.010571	-0.005537	0.005784	-0.914551	-0.117676	-0.178955	-0.317500	-0.506290	0.248460	-0.762320
62358		9.793407	-0.605395	3.824201	-0.002634	-0.005152	0.008042	-0.912354	-0.117676	-0.181152	-0.317407	-0.506341	0.248563	-0.762292
62359		9.798191	-0.614501	3.817558	0.001909	-0.006521	0.008710	-0.912354	-0.115479	-0.183350	-0.317288	-0.506395	0.248625	-0.762285
62360		9.795561	-0.609265	3.804188	0.010034	-0.008165	0.007612	-0.914551	-0.115723	-0.178955	-0.317116	-0.506477	0.248619	-0.762304
62361		9.787400	-0.610185	3.813278	0.003994	-0.005926	0.007306	-0.918701	-0.119873	-0.178955	-0.316975	-0.506559	0.248670	-0.762292
62362		9.786762	-0.612523	3.828428	-0.010910	-0.007721	0.012040	-0.916504	-0.119873	-0.181152	-0.316902	-0.506605	0.248874	-0.762224
62363		9.787437	-0.629262	3.826454	0.006741	-0.010528	0.010291	-0.918701	-0.119873	-0.178955	-0.316741	-0.506725	0.248901	-0.762203
62364		9.804627	-0.617472	3.819064	0.005340	-0.011015	0.009838	-0.914307	-0.124268	-0.178711	-0.316580	-0.506864	0.248947	-0.762162
62365		9.794836	-0.640347	3.798803	0.004272	-0.014335	0.008696	-0.914551	-0.115723	-0.183350	-0.316466	-0.507033	0.248973	-0.762089
62366		9.788363	-0.641782	3.789565	0.013905	-0.012051	0.009150	-0.912354	-0.117676	-0.176758	-0.316250	-0.507144	0.248956	-0.762110
62367		9.785058	-0.607968	3.791584	0.007332	-0.010502	0.005879	-0.912354	-0.119873	-0.174561	-0.316103	-0.507282	0.248977	-0.762072
62368		9.791318	-0.643812	3.767644	0.003657	-0.010303	0.005097	-0.912109	-0.122070	-0.174316	-0.315998	-0.507433	0.249011	-0.762004
62369		9.796411	-0.623836	3.759948	0.008070	-0.005789	0.004339	-0.912598	-0.111328	-0.177002	-0.315903	-0.507569	0.248966	-0.761968
62370		9.797851	-0.624413	3.742169	0.002657	-0.002278	0.001397	-0.914551	-0.115723	-0.178955	-0.315809	-0.507595	0.249024	-0.761971
62371		9.802367	-0.618103	3.736192	-0.001260	-0.001568	0.002892	-0.916748	-0.115723	-0.178955	-0.315769	-0.507603	0.249086	-0.761962
62372		9.803274	-0.638148	3.782001	0.001795	0.002263	0.000077	-0.907959	-0.119873	-0.181152	-0.315744	-0.507607	0.249089	-0.761968
62373		9.795507	-0.638259	3.776320	-0.003916	0.001675	-0.000905	-0.912354	-0.115723	-0.176758	-0.315831	-0.507564	0.249089	-0.761961
62374		9.795367	-0.624896	3.776419	-0.010687	0.002574	-0.001102	-0.914551	-0.117676	-0.183350	-0.315894	-0.507531	0.249205	-0.761919
62375		9.814589	-0.632576	3.784076	-0.016973	0.003890	-0.002488	-0.912354	-0.119873	-0.181152	-0.316064	-0.507407	0.249335	-0.761888
62376		9.771970	-0.613159	3.759156	-0.009083	0.005149	-0.000360	-0.914307	-0.122070	-0.174561	-0.316182	-0.507326	0.249382	-0.761878
62377		9.802975	-0.600105	3.767734	-0.014836	0.005723	-0.002140	-0.912354	-0.115723	-0.181152	-0.316337	-0.507318	0.249467	-0.761791
62378		9.786062	-0.615004	3.773919	-0.015605	0.006975	0.000525	-0.912354	-0.119873	-0.176758	-0.316451	-0.507175	0.249612	-0.761791
62379		9.791816	-0.615869	3.798573	-0.005592	0.007664	0.002050	-0.910156	-0.119873	-0.183105	-0.316510	-0.507139	0.249637	-0.761783
62380		9.787936	-0.623935	3.788666	-0.003518	0.004887	0.002085	-0.907959	-0.119873	-0.178955	-0.316589	-0.507050	0.249630	-0.761812
62381		9.795126	-0.610989	3.795510	-0.001394	0.003351	0.003876	-0.912354	-0.117676	-0.178955	-0.316616	-0.507027	0.249629	-0.761815
62382		9.785072	-0.633194	3.762025	-0.000479	0.001983	0.002149	-0.910156	-0.119873	-0.176758	-0.316613	-0.507031	0.249643	-0.761810
62383		9.796849	-0.599646	3.762677	-0.009179	0.003138	0.001886	-0.910156	-0.119873	-0.176758	-0.316692	-0.507025	0.249715	-0.761757
62384		9.790864	-0.635519	3.786310	-0.009466	0.003841	0.005767	-0.920898	-0.117920	-0.178955	-0.316739	-0.507003	0.249809	-0.761722
62385		9.790524	-0.622907	3.786841	0.008564	0.002797	0.003651	-0.914307	-0.122070	-0.183105	-0.316647	-0.507062	0.249757	-0.761738
62386		9.797807	-0.623013	3.793733	0.007306	0.002194	0.004139	-0.914795	-0.113525	-0.177002	-0.316650	-0.507061	0.249641	-0.761775
62387		9.797586	-0.623609	3.794204	0.002082	0.001060	0.004362	-0.912598	-0.113525	-0.181396	-0.316539	-0.507091	0.249713	-0.761778
62388		9.795251	-0.610052	3.827852	0.000049	0.000273	0.004155	-0.914551	-0.119873	-0.178955	-0.316474	-0.507048	0.249779	-0.761811
62389		9.796350	-0.638851	3.811198	0.009177	-0.003640	0.006278	-0.916748	-0.117676	-0.183350	-0.316381	-0.507153	0.249718	-0.761801
62390		9.783872	-0.612474	3.763709	0.017250	-0.005101	0.006783	-0.916504	-0.122070	-0.178711	-0.316221	-0.507224	0.249601	-0.761858
62391		9.774273	-0.626675	3.790661	0.005262	-0.003895	0.010165	-0.916748	-0.115723	-0.178955	-0.316141	-0.507322	0.249578	-0.761833
62392		9.806002	-0.628394	3.797397	0.007919	-0.005209	0.009163	-0.914551	-0.113525	-0.179199	-0.315969	-0.507401	0.249607	-0.761842
62393		9.799950	-0.595631	3.834383	0.003518	-0.006847	0.016636	-0.912354	-0.117676	-0.178955	-0.315730	-0.507429	0.249751	-0.761876
62394		9.789398	-0.668453	3.877643	-0.011494	-0.014465	0.019298	-0.912354	-0.119873	-0.178955	-0.315608	-0.507482	0.250017	-0.761804
62395		9.770677	-0.605207	3.819575	0.022445	-0.022290	0.024271	-0.912354	-0.115723	-0.176758	-0.315237	-0.507734	0.249984	-0.761800
62396		9.795598	-0.602608	3.769940	0.034970	-0.028589	0.024299	-0.908203	-0.117676	-0.172363	-0.314704	-0.508097	0.249913	-0.761802
62397		9.782589	-0.633490	3.751613	0.037562	-0.030480	0.028876	-0.910400	-0.115723	-0.174805	-0.314131	-0.508535	0.249829	-0.761774
62398		9.792200	-0.658772	3.689771	0.044283	-0.026670	0.028410	-0.908203	-0.115479	-0.172607	-0.313523	-0.508905	0.249673	-0.761828
62399		9.787696	-0.640612	3.723030	0.034261	-0.022331	0.030412	-0.910400	-0.111328	-0.168213	-0.312973	-0.509208	0.249609	-0.761873
62400		9.781214	-0.700338	3.713249	0.028898	-0.023335	0.029696	-0.908447	-0.111328	-0.174805	-0.312375	-0.509549	0.249670	-0.761871
62401		9.791543	-0.691060	3.697285	0.028186	-0.020355	0.025945	-0.908447	-0.109131	-0.172852	-0.311890	-0.509739	0.249655	-0.761947
62402		9.789642	-0.688762	3.681303	0.011241	-0.017566	0.024304	-0.910400	-0.113525	-0.172607	-0.311500	-0.509855	0.249812	-0.761977
62403		9.781638	-0.734764	3.689323	0.002182	-0.014986	0.021412	-0.912598	-0.113525	-0.168213	-0.311277	-0.509957	0.249963	-0.761951
62404		9.787000	-0.733020	3.680209	-0.004077	-0.013846	0.018450	-0.910400	-0.111328	-0.172607	-0.311093	-0.510114	0.250170	-0.761853
62405		9.779259	-0.737489	3.687629	-0.009556	-0.012521	0.016180	-0.908447	-0.109131	-0.170654	-0.310985	-0.510136	0.250410	-0.761803
62406		9.780247	-0.728068	3.684217	-0.007334	-0.011098	0.013312	-0.906250	-0.111328	-0.168213	-0.310859	-0.510175	0.250637	-0.761754
62407		9.788573	-0.744615	3.687799	0.005475	-0.012385	0.008956	-0.915039	-0.104980	-0.168701	-0.310721	-0.510339	0.250689	-0.761684
62408		9.765807	-0.731596	3.683315	0.012980	-0.011015	0.006624	-0.908447	-0.106934	-0.170654	-0.310431	-0.510497	0.250752	-0.761675
62409		9.790807	-0.705026	3.681808	0.008495	-0.008374	0.007735	-0.910400	-0.111328	-0.166260	-0.310251	-0.510557	0.250802	-0.761691
62410		9.779350	-0.726450	3.679496	0.004487	-0.010331	0.004145	-0.914795	-0.111328	-0.164062	-0.310154	-0.510748	0.250829	-0.761594
62411		9.776818	-0.733867	3.665807	0.006753	-0.010070	0.002069	-0.908447	-0.111328	-0.168213	-0.310028	-0.510999	0.250835	-0.761475
62412		9.775780	-0.732469	3.697182	0.009697	-0.010672	0.000533	-0.910400	-0.111328	-0.168213	-0.309966	-0.511164	0.250779	-0.761408
62413		9.778009	-0.718972	3.677128	-0.001749	-0.012751	0.001030	-0.910400	-0.113525	-0.172607	-0.309958	-0.511300	0.250848	-0.761297
62414		9.763937	-0.719440	3.661697	-0.002971	-0.013547	-0.000076	-0.908447	-0.111328	-0.168213	-0.310046	-0.511368	0.250879	-0.761205
62415		9.784872	-0.712412	3.664939	0.006043	-0.014020	-0.000398	-0.904053	-0.111328	-0.168213	-0.310010	-0.511534	0.250868	-0.761113
62416		9.780782	-0.685115	3.621093	0.006334	-0.013292	-0.000919	-0.906250	-0.109131	-0.161865	-0.310000	-0.511673	0.250841	-0.761032
62417		9.792446	-0.705256	3.636696	-0.001042	-0.007842	0.001094	-0.912842	-0.104980	-0.166504	-0.309930	-0.511833	0.250931	-0.760923
62418		9.779183	-0.711326	3.668105	-0.002504	-0.007163	-0.000134	-0.908447	-0.109131	-0.168457	-0.309828	-0.511886	0.251074	-0.760881
62419		9.772123	-0.725570	3.660292	-0.005905	-0.009581	0.000026	-0.906250	-0.111328	-0.168213	-0.309857	-0.511920	0.251189	-0.760809
62420		9.777666	-0.706160	3.651503	-0.016378	-0.011793	0.000553	-0.906250	-0.113525	-0.163818	-0.309991	-0.511940	0.251385	-0.760677
62421		9.778548	-0.721101	3.648807	-0.009796	-0.011453	-0.001025	-0.910645	-0.109131	-0.166260	-0.310096	-0.512079	0.251490	-0.760505
62422		9.772188	-0.707777	3.639312	-0.001889	-0.012637	0.000080	-0.908447	-0.111328	-0.174805	-0.310061	-0.512193	0.251588	-0.760411
62423		9.780806	-0.721283	3.642714	0.005813	-0.012545	-0.000541	-0.910400	-0.113525	-0.170410	-0.310123	-0.512175	0.251555	-0.760408
62424		9.783568	-0.726824	3.684587	0.003454	-0.017217	0.002816	-0.908203	-0.113525	-0.159424	-0.310142	-0.512283	0.251576	-0.760321
62425		9.788085	-0.712750	3.629675	0.038178	-0.017586	-0.001203	-0.906494	-0.106934	-0.164062	-0.309881	-0.512731	0.251270	-0.760226
62426		9.763470	-0.703442	3.595961	0.026185	-0.018717	0.001304	-0.906250	-0.113525	-0.161621	-0.309593	-0.512996	0.251155	-0.760203
62427		9.801623	-0.709730	3.577380	0.009499	-0.015171	-0.000762	-0.908447	-0.109131	-0.164062	-0.309554	-0.513237	0.251106	-0.760072
62428		9.779143	-0.694726	3.572532	0.006113	-0.011818	-0.001067	-0.908447	-0.111328	-0.166260	-0.309480	-0.513364	0.251119	-0.760012
62429		9.783618	-0.687257	3.581122	0.000077	-0.010498	0.001085	-0.904053	-0.113525	-0.161621	-0.309497	-0.513414	0.251171	-0.759955
62430		9.779038	-0.707350	3.601671	0.002407	-0.008991	0.000750	-0.910645	-0.111328	-0.161865	-0.309526	-0.513539	0.251175	-0.759857
62431		9.786524	-0.720305	3.622665	0.005403	-0.010754	-0.000008	-0.906250	-0.106934	-0.170654	-0.309466	-0.513695	0.251184	-0.759773
62432		9.791067	-0.712923	3.631108	0.000848	-0.012722	0.000806	-0.897705	-0.111328	-0.166016	-0.309443	-0.513649	0.251265	-0.759787
62433		9.771819	-0.719216	3.637956	0.002043	-0.016740	-0.000017	-0.906250	-0.109131	-0.159668	-0.309497	-0.513725	0.251305	-0.759700
62434		9.781478	-0.704825	3.638840	0.007361	-0.022768	-0.000648	-0.904053	-0.113525	-0.159424	-0.309348	-0.514010	0.251353	-0.759552
62435		9.768030	-0.731643	3.621669	0.005836	-0.026702	-0.002199	-0.902100	-0.106934	-0.161865	-0.309321	-0.514333	0.251382	-0.759334
62436		9.776554	-0.724828	3.575773	0.009096	-0.027535	-0.001885	-0.904053	-0.113525	-0.159424	-0.309164	-0.514586	0.251433	-0.759210
62437		9.776726	-0.703529	3.540242	0.009917	-0.027555	-0.002811	-0.904297	-0.106934	-0.161865	-0.309125	-0.514909	0.251423	-0.759010
62438		9.783879	-0.723073	3.512447	0.015207	-0.024246	-0.003746	-0.895752	-0.106934	-0.159668	-0.308955	-0.515143	0.251393	-0.758931
62439		9.774420	-0.686958	3.505405	0.001695	-0.021127	-0.002229	-0.904053	-0.111328	-0.157471	-0.308893	-0.515296	0.251485	-0.758822
62440		9.788694	-0.693733	3.484952	-0.000743	-0.014544	-0.003929	-0.901855	-0.113525	-0.153076	-0.308919	-0.515455	0.251540	-0.758685
62441		9.775649	-0.684062	3.531666	0.003098	-0.011510	-0.003691	-0.899902	-0.109131	-0.157471	-0.308938	-0.515674	0.251536	-0.758530
62442		9.789028	-0.704232	3.513725	0.005439	-0.007595	-0.003067	-0.899658	-0.115723	-0.148438	-0.308913	-0.515754	0.251526	-0.758489
62443		9.785443	-0.709691	3.517548	0.004027	-0.008076	-0.003499	-0.899902	-0.109131	-0.159668	-0.308941	-0.516016	0.251488	-0.758312
62444		9.785548	-0.694020	3.532268	0.001870	-0.006537	-0.005253	-0.895508	-0.109131	-0.157471	-0.308990	-0.516027	0.251497	-0.758282
62445		9.783310	-0.700336	3.502986	0.004896	-0.003483	-0.004094	-0.901855	-0.111328	-0.157471	-0.309013	-0.516043	0.251471	-0.758270
62446		9.799203	-0.685007	3.513931	0.003054	-0.002171	-0.003977	-0.901855	-0.113525	-0.157227	-0.309066	-0.516064	0.251449	-0.758241
62447		9.787375	-0.690181	3.513342	0.005064	-0.000437	-0.006189	-0.897705	-0.111328	-0.155273	-0.309177	-0.516094	0.251376	-0.758200
62448		9.776092	-0.709644	3.496525	0.003438	-0.000397	-0.004349	-0.904053	-0.113525	-0.153076	-0.309223	-0.516127	0.251341	-0.758170
62449		9.773850	-0.674308	3.467347	0.004134	0.001901	-0.006843	-0.901855	-0.117676	-0.155029	-0.309282	-0.516212	0.251265	-0.758113
62450		9.784726	-0.679295	3.485887	-0.010048	0.005670	-0.007442	-0.899902	-0.111328	-0.155273	-0.309578	-0.516176	0.251286	-0.758010
62451		9.772870	-0.685726	3.470566	-0.009894	0.011329	-0.006970	-0.904053	-0.115479	-0.161621	-0.309744	-0.516061	0.251321	-0.758009
62452		9.778865	-0.683947	3.496251	-0.001927	0.012358	-0.006552	-0.897461	-0.115479	-0.152832	-0.310002	-0.515882	0.251262	-0.758045
62453		9.794121	-0.669272	3.494233	-0.006581	0.015113	-0.006336	-0.893066	-0.117676	-0.159180	-0.310216	-0.515798	0.251237	-0.758023
62454		9.788548	-0.661297	3.503537	-0.011635	0.019456	-0.007178	-0.899414	-0.119873	-0.159180	-0.310627	-0.515542	0.251229	-0.758031
62455		9.786758	-0.674385	3.508679	-0.009776	0.020553	-0.006335	-0.901855	-0.115479	-0.161621	-0.311024	-0.515314	0.251199	-0.758033
62456		9.795176	-0.693214	3.548485	-0.003948	0.019758	-0.006240	-0.901855	-0.111328	-0.157471	-0.311274	-0.515082	0.251136	-0.758109
62457		9.766296	-0.684838	3.540451	-0.000716	0.019886	-0.008318	-0.899658	-0.115479	-0.157227	-0.311365	-0.514938	0.251044	-0.758200
62458		9.789488	-0.670172	3.529276	-0.007693	0.021128	-0.007775	-0.897461	-0.115479	-0.157227	-0.311601	-0.514765	0.251004	-0.758234
62459		9.783438	-0.675693	3.539890	-0.010070	0.020777	-0.008232	-0.902100	-0.111328	-0.155273	-0.311857	-0.514588	0.250986	-0.758255
62460		9.786138	-0.667597	3.539042	-0.004684	0.019369	-0.008546	-0.895508	-0.113281	-0.157227	-0.311922	-0.514491	0.250935	-0.758311
62461		9.766730	-0.650675	3.581951	-0.003423	0.019965	-0.009053	-0.902100	-0.109131	-0.159668	-0.312083	-0.514352	0.250860	-0.758364
62462		9.802496	-0.670898	3.555398	-0.004676	0.019368	-0.008556	-0.904053	-0.111328	-0.155273	-0.312134	-0.514189	0.250819	-0.758467
62463		9.772718	-0.675637	3.564376	-0.006237	0.018998	-0.009933	-0.901855	-0.113525	-0.161621	-0.312188	-0.514117	0.250773	-0.758509
62464		9.788574	-0.646751	3.546408	-0.006199	0.018795	-0.011542	-0.906250	-0.111328	-0.155273	-0.312393	-0.513948	0.250718	-0.758557
62465		9.797965	-0.650971	3.568938	-0.006337	0.021316	-0.011522	-0.901855	-0.115479	-0.159424	-0.312442	-0.513875	0.250654	-0.758608
62466		9.774078	-0.662746	3.539476	0.003161	0.021275	-0.013059	-0.899658	-0.115479	-0.157227	-0.312606	-0.513776	0.250480	-0.758664
62467		9.785519	-0.611960	3.527403	-0.008087	0.024623	-0.013678	-0.908203	-0.113525	-0.163818	-0.312831	-0.513638	0.250393	-0.758694
62468		9.797401	-0.664056	3.564143	-0.014140	0.026884	-0.013932	-0.901855	-0.111328	-0.161865	-0.313090	-0.513375	0.250374	-0.758771
62469		9.778224	-0.633026	3.591523	-0.001666	0.027703	-0.013648	-0.908203	-0.115723	-0.161621	-0.313225	-0.513170	0.250243	-0.758897
62470		9.800878	-0.616836	3.582328	-0.005196	0.027795	-0.013471	-0.901855	-0.115479	-0.163818	-0.313415	-0.512993	0.250122	-0.758979
62471		9.793147	-0.620756	3.611803	-0.013225	0.030515	-0.012173	-0.905762	-0.122070	-0.163574	-0.313704	-0.512706	0.250085	-0.759065
62472		9.801046	-0.634452	3.574872	-0.020290	0.030696	-0.011819	-0.899414	-0.122070	-0.161377	-0.314120	-0.512433	0.250079	-0.759079
62473		9.785602	-0.597658	3.597876	-0.012286	0.034908	-0.014402	-0.907959	-0.122070	-0.165771	-0.314515	-0.512185	0.249963	-0.759121
62474		9.801041	-0.602993	3.630279	-0.032216	0.037493	-0.010485	-0.906006	-0.119873	-0.163574	-0.314998	-0.511789	0.250058	-0.759157
62475		9.782566	-0.630708	3.627117	-0.016934	0.033524	-0.008809	-0.906006	-0.119873	-0.170166	-0.315283	-0.511520	0.250040	-0.759226
62476		9.795989	-0.615482	3.630247	-0.001039	0.034183	-0.011202	-0.901611	-0.122070	-0.165771	-0.315561	-0.511223	0.249868	-0.759367
62477		9.786571	-0.586318	3.614997	-0.007074	0.035474	-0.009092	-0.903809	-0.119873	-0.165771	-0.315855	-0.510955	0.249742	-0.759466
62478		9.788981	-0.597766	3.663531	-0.014480	0.033674	-0.009995	-0.907959	-0.119873	-0.165771	-0.316135	-0.510688	0.249699	-0.759544
62479		9.798028	-0.603185	3.672340	-0.006190	0.031893	-0.010192	-0.903809	-0.119873	-0.167969	-0.316324	-0.510493	0.249582	-0.759635
62480		9.778944	-0.601555	3.684644	-0.009615	0.032064	-0.007489	-0.899170	-0.126221	-0.165527	-0.316548	-0.510237	0.249519	-0.759734
62481		9.791361	-0.600425	3.704393	-0.005202	0.029841	-0.005383	-0.907959	-0.124268	-0.169922	-0.316802	-0.510064	0.249394	-0.759785
62482		9.791128	-0.600123	3.677360	0.006415	0.024926	-0.003617	-0.912109	-0.124268	-0.167725	-0.316912	-0.509940	0.249208	-0.759883
62483		9.784604	-0.591551	3.688642	0.004239	0.024254	-0.004765	-0.903564	-0.124023	-0.176514	-0.316991	-0.509865	0.249036	-0.759957
62484		9.779270	-0.597804	3.682978	-0.006418	0.022307	-0.003633	-0.905762	-0.124023	-0.169922	-0.317249	-0.509619	0.248994	-0.760029
62485		9.806736	-0.577002	3.667273	-0.000455	0.022379	-0.004929	-0.905762	-0.119873	-0.172363	-0.317392	-0.509504	0.248881	-0.760083
62486		9.792757	-0.583314	3.672108	-0.008538	0.022877	-0.003036	-0.905762	-0.124023	-0.169922	-0.317531	-0.509304	0.248886	-0.760157
62487		9.789400	-0.596458	3.695041	-0.001893	0.024495	-0.002824	-0.907959	-0.122070	-0.174316	-0.317657	-0.509168	0.248791	-0.760227
62488		9.799219	-0.575444	3.701224	-0.002038	0.023649	-0.001367	-0.903564	-0.122070	-0.167969	-0.317769	-0.508980	0.248730	-0.760326
62489		9.798248	-0.575884	3.690066	-0.009052	0.023620	-0.002666	-0.910156	-0.119873	-0.176758	-0.317890	-0.508847	0.248720	-0.760368
62490		9.779651	-0.603654	3.700971	-0.006725	0.024176	-0.000586	-0.909912	-0.124268	-0.167725	-0.318003	-0.508609	0.248726	-0.760478
62491		9.793890	-0.576461	3.701526	-0.007105	0.023362	-0.002618	-0.907959	-0.124268	-0.174316	-0.318095	-0.508525	0.248682	-0.760510
62492		9.792557	-0.582669	3.752273	-0.010553	0.021125	-0.000877	-0.907959	-0.122070	-0.170166	-0.318256	-0.508354	0.248697	-0.760552
62493		9.795099	-0.590377	3.751739	-0.007176	0.017790	-0.000523	-0.903809	-0.119873	-0.172363	-0.318312	-0.508278	0.248710	-0.760575
62494		9.799158	-0.584386	3.733467	-0.003405	0.016231	-0.000545	-0.910156	-0.119873	-0.172363	-0.318355	-0.508186	0.248713	-0.760617
62495		9.810839	-0.578133	3.721253	-0.010894	0.016748	-0.003073	-0.912109	-0.122070	-0.176514	-0.318441	-0.508086	0.248770	-0.760630
62496		9.797374	-0.585307	3.724470	-0.007075	0.016431	-0.001342	-0.907959	-0.124268	-0.172119	-0.318537	-0.507962	0.248787	-0.760667
62497		9.796093	-0.571477	3.727655	-0.002683	0.012770	-0.002556	-0.914307	-0.122070	-0.176514	-0.318598	-0.507953	0.248744	-0.760661
62498		9.787256	-0.584767	3.725153	0.002655	0.014948	-0.002629	-0.909912	-0.126221	-0.176514	-0.318626	-0.507896	0.248669	-0.760712
62499		9.800966	-0.583993	3.741215	-0.001368	0.014615	-0.001299	-0.907715	-0.126221	-0.174316	-0.318717	-0.507832	0.248602	-0.760739
62500		9.805863	-0.583659	3.767827	-0.008433	0.014783	-0.001010	-0.907959	-0.122070	-0.176514	-0.318837	-0.507760	0.248603	-0.760736
62501		9.797122	-0.583948	3.764738	0.002144	0.011164	0.000007	-0.908203	-0.117676	-0.176758	-0.318853	-0.507719	0.248567	-0.760769
62502		9.801864	-0.590625	3.745223	0.012876	0.008393	-0.000437	-0.907715	-0.126221	-0.174316	-0.318766	-0.507726	0.248481	-0.760828
62503		9.793658	-0.576078	3.740728	0.004108	0.007344	-0.000083	-0.912109	-0.124268	-0.176514	-0.318767	-0.507776	0.248397	-0.760822
62504		9.785305	-0.589408	3.736964	0.004034	0.009665	-0.001681	-0.907959	-0.119873	-0.176758	-0.318780	-0.507782	0.248319	-0.760838
62505		9.802140	-0.575480	3.717679	0.005812	0.008561	-0.000152	-0.907959	-0.122070	-0.172363	-0.318753	-0.507768	0.248284	-0.760870
62506		9.795596	-0.567913	3.741988	-0.003088	0.010031	0.000210	-0.907715	-0.126221	-0.176514	-0.318759	-0.507766	0.248303	-0.760862
62507		9.806478	-0.575431	3.745645	-0.004007	0.011401	0.001924	-0.909912	-0.126221	-0.176514	-0.318820	-0.507713	0.248296	-0.760875
62508		9.792264	-0.582771	3.764122	-0.003542	0.008453	0.002193	-0.907959	-0.122070	-0.178711	-0.318856	-0.507696	0.248299	-0.760870
62509		9.788403	-0.576632	3.754371	0.000383	0.007741	0.000722	-0.914307	-0.124268	-0.178711	-0.318884	-0.507656	0.248305	-0.760883
62510		9.788984	-0.591208	3.739550	-0.003885	0.006480	0.000963	-0.912109	-0.124268	-0.178711	-0.318919	-0.507635	0.248336	-0.760872
62511		9.795877	-0.591581	3.747331	-0.004024	0.006596	0.000021	-0.907959	-0.122070	-0.176514	-0.318972	-0.507612	0.248362	-0.760857
62512		9.798511	-0.571029	3.759747	-0.001719	0.004749	0.001166	-0.912109	-0.122070	-0.176514	-0.318982	-0.507617	0.248402	-0.760837
62513		9.793641	-0.564666	3.766047	-0.004480	0.005018	0.002005	-0.909912	-0.124268	-0.178711	-0.318987	-0.507614	0.248474	-0.760813
62514		9.788694	-0.586355	3.772842	-0.004305	0.003741	0.003746	-0.909912	-0.124023	-0.180908	-0.319006	-0.507600	0.248536	-0.760793
62515		9.787874	-0.580949	3.728374	0.014134	0.003504	0.003745	-0.907959	-0.122070	-0.176514	-0.318925	-0.507637	0.248427	-0.760838
62516		9.805572	-0.573564	3.753401	0.004466	0.004790	0.003398	-0.907715	-0.126221	-0.172119	-0.318877	-0.507658	0.248422	-0.760846
62517		9.788718	-0.588110	3.759147	-0.005271	0.003871	0.003710	-0.907715	-0.124023	-0.180908	-0.318868	-0.507716	0.248464	-0.760798
62518		9.783885	-0.596244	3.765405	-0.005708	0.003256	0.003289	-0.910156	-0.122070	-0.174316	-0.318925	-0.507672	0.248542	-0.760778
62519		9.795039	-0.584609	3.721617	0.001601	0.004014	0.004094	-0.907959	-0.122070	-0.178711	-0.318866	-0.507713	0.248570	-0.760766
62520		9.795862	-0.572564	3.705720	-0.012937	0.007106	0.002772	-0.910156	-0.122070	-0.183105	-0.318963	-0.507619	0.248718	-0.760740
62521		9.802512	-0.587985	3.714110	-0.009196	0.009110	0.002917	-0.909912	-0.124268	-0.178711	-0.319067	-0.507480	0.248825	-0.760754
62522		9.797248	-0.554972	3.721019	-0.008216	0.011383	0.003899	-0.907715	-0.126221	-0.174316	-0.319136	-0.507380	0.248892	-0.760770
62523		9.773947	-0.562978	3.750465	-0.013519	0.012574	0.002500	-0.909912	-0.126221	-0.174316	-0.319235	-0.507306	0.248969	-0.760753
62524		9.790656	-0.598633	3.778179	-0.005347	0.012157	0.003203	-0.912109	-0.122070	-0.178711	-0.319267	-0.507271	0.248975	-0.760760
62525		9.801636	-0.565749	3.781001	-0.009913	0.010166	0.003957	-0.912109	-0.124268	-0.180908	-0.319328	-0.507173	0.249090	-0.760762
62526		9.778157	-0.581990	3.764597	-0.010809	0.007972	0.005518	-0.912109	-0.126221	-0.178711	-0.319393	-0.507079	0.249204	-0.760760
62527		9.790551	-0.591083	3.750789	-0.000881	0.008574	0.004559	-0.912109	-0.122070	-0.180908	-0.319394	-0.507056	0.249191	-0.760779
62528		9.797351	-0.564718	3.758433	-0.000075	0.007597	0.006057	-0.907959	-0.122070	-0.176514	-0.319380	-0.506998	0.249234	-0.760810
62529		9.795104	-0.593177	3.777608	0.005285	0.006208	0.005853	-0.912109	-0.122070	-0.178711	-0.319311	-0.507013	0.249224	-0.760832
62530		9.793120	-0.607776	3.795975	0.006019	0.003025	0.008008	-0.907959	-0.124023	-0.176514	-0.319211	-0.507039	0.249237	-0.760852
62531		9.780611	-0.582358	3.750031	0.005549	0.003572	0.006787	-0.905762	-0.124023	-0.180908	-0.319129	-0.507087	0.249215	-0.760862
62532		9.790250	-0.597931	3.724053	0.003251	0.005422	0.005635	-0.914307	-0.124268	-0.180908	-0.319113	-0.507064	0.249200	-0.760889
62533		9.804656	-0.585151	3.737814	0.000457	0.006855	0.005667	-0.907959	-0.122070	-0.178711	-0.319096	-0.507033	0.249209	-0.760914
62534		9.797950	-0.606125	3.762309	0.009089	0.008011	0.004396	-0.912109	-0.124268	-0.176514	-0.319041	-0.507029	0.249144	-0.760961
62535		9.807771	-0.599485	3.781876	0.002254	0.006713	0.004796	-0.912109	-0.124268	-0.180908	-0.319000	-0.507048	0.249128	-0.760971
62536		9.796459	-0.621425	3.766026	0.001378	0.005485	0.003954	-0.907959	-0.119873	-0.178955	-0.318995	-0.507037	0.249120	-0.760983
62537		9.788480	-0.594583	3.760777	0.005121	0.007484	0.004105	-0.910156	-0.122070	-0.178711	-0.318966	-0.507010	0.249120	-0.761013
62538		9.787792	-0.595245	3.762462	0.001046	0.005915	0.003674	-0.907959	-0.122070	-0.176514	-0.318957	-0.507000	0.249136	-0.761018
62539		9.783944	-0.602652	3.752979	0.009891	0.009157	0.002688	-0.909912	-0.124268	-0.178711	-0.318904	-0.507016	0.249046	-0.761060
62540		9.802611	-0.595579	3.762144	0.007447	0.006597	0.002851	-0.909912	-0.124268	-0.174316	-0.318866	-0.507039	0.248966	-0.761085
62541		9.794448	-0.595509	3.757668	0.009682	0.007068	0.002403	-0.914307	-0.122070	-0.176514	-0.318796	-0.507109	0.248862	-0.761103
62542		9.786219	-0.595294	3.753393	0.009789	0.008112	0.002542	-0.912354	-0.122070	-0.170166	-0.318728	-0.507142	0.248784	-0.761135
62543		9.804809	-0.588503	3.762713	0.003933	0.009089	0.003923	-0.914551	-0.119873	-0.178955	-0.318657	-0.507193	0.248765	-0.761137
62544		9.782966	-0.595877	3.774893	-0.003497	0.010859	0.003103	-0.912109	-0.124268	-0.178711	-0.318691	-0.507112	0.248833	-0.761154
62545		9.801177	-0.597612	3.739326	0.000322	0.009097	0.001507	-0.907959	-0.119873	-0.183105	-0.318712	-0.507091	0.248804	-0.761169
62546		9.790080	-0.583698	3.768655	0.001368	0.009049	0.004089	-0.916504	-0.119873	-0.176758	-0.318738	-0.506999	0.248833	-0.761210
62547		9.809592	-0.632766	3.762628	0.009373	0.009898	0.003065	-0.907959	-0.122070	-0.180908	-0.318670	-0.507004	0.248782	-0.761251
62548		9.794087	-0.564161	3.751183	-0.000956	0.012060	0.002128	-0.914307	-0.124268	-0.176514	-0.318724	-0.506914	0.248780	-0.761290
62549		9.801607	-0.640243	3.790082	-0.005745	0.007988	0.002599	-0.905518	-0.128418	-0.180664	-0.318750	-0.506903	0.248821	-0.761273
62550		9.810119	-0.585911	3.780209	0.007229	0.008069	0.002709	-0.910156	-0.122070	-0.174316	-0.318732	-0.506916	0.248679	-0.761318
62551		9.783965	-0.599777	3.797277	0.001099	0.007158	0.005407	-0.912354	-0.119873	-0.183350	-0.318687	-0.506931	0.248702	-0.761319
62552		9.793366	-0.642404	3.772379	0.008843	0.004676	0.002364	-0.910156	-0.122070	-0.180908	-0.318658	-0.506925	0.248670	-0.761345
62553		9.784405	-0.586752	3.782892	0.008013	0.004690	0.003267	-0.909912	-0.126221	-0.178711	-0.318616	-0.506942	0.248622	-0.761367
62554		9.788187	-0.621311	3.779500	0.005594	0.003095	0.001028	-0.912109	-0.122070	-0.180908	-0.318591	-0.507013	0.248537	-0.761359
62555		9.801363	-0.600744	3.764128	0.007635	0.003878	0.001243	-0.916504	-0.124268	-0.176514	-0.318565	-0.507044	0.248487	-0.761365
62556		9.787746	-0.593007	3.780648	0.002451	0.002557	-0.000168	-0.916504	-0.119873	-0.178955	-0.318550	-0.507125	0.248460	-0.761327
62557		9.787373	-0.606955	3.781645	-0.003848	0.002924	0.000788	-0.905762	-0.122070	-0.183105	-0.318585	-0.507129	0.248554	-0.761279
62558		9.790098	-0.594042	3.748326	0.005790	0.002780	0.000366	-0.909912	-0.124268	-0.178711	-0.318600	-0.507137	0.248514	-0.761280
62559		9.788217	-0.607132	3.766402	0.005068	0.003839	0.001408	-0.912109	-0.124268	-0.176514	-0.318581	-0.507181	0.248462	-0.761275
62560		9.811306	-0.629008	3.724942	0.000840	0.005950	0.000173	-0.909912	-0.126221	-0.180908	-0.318593	-0.507213	0.248437	-0.761257
62561		9.793074	-0.600660	3.747014	0.003321	0.007348	0.000807	-0.914551	-0.115723	-0.178955	-0.318611	-0.507210	0.248361	-0.761276
62562		9.796619	-0.607265	3.744229	0.003871	0.011127	-0.001844	-0.914307	-0.124268	-0.178711	-0.318661	-0.507148	0.248386	-0.761289
62563		9.783783	-0.586268	3.745557	-0.007593	0.012576	-0.001365	-0.912109	-0.124268	-0.180908	-0.318768	-0.507073	0.248410	-0.761286
62564		9.794248	-0.593736	3.750331	-0.007687	0.017497	-0.000432	-0.910156	-0.122070	-0.178711	-0.318896	-0.506928	0.248419	-0.761326
62565		9.789735	-0.592942	3.788088	0.001076	0.016125	-0.001688	-0.914307	-0.119873	-0.181152	-0.318972	-0.506841	0.248369	-0.761369
62566		9.798251	-0.634729	3.765841	-0.001714	0.017560	-0.001669	-0.905762	-0.122070	-0.176514	-0.319076	-0.506705	0.248373	-0.761414
62567		9.791056	-0.585207	3.791076	-0.001149	0.017776	-0.004458	-0.914307	-0.122070	-0.183105	-0.319192	-0.506617	0.248316	-0.761443
62568		9.801292	-0.585216	3.751437	-0.000868	0.019666	-0.005788	-0.916748	-0.117676	-0.181152	-0.319339	-0.506477	0.248252	-0.761495
62569		9.795054	-0.577506	3.761374	-0.009160	0.020490	-0.003325	-0.914307	-0.122070	-0.185303	-0.319512	-0.506286	0.248338	-0.761521
62570		9.809506	-0.549524	3.762194	-0.000541	0.026360	-0.005248	-0.909912	-0.128418	-0.178467	-0.319681	-0.506070	0.248248	-0.761623
62571		9.791402	-0.609985	3.803362	-0.008027	0.031891	-0.004368	-0.909912	-0.122070	-0.185303	-0.319865	-0.505854	0.248131	-0.761728
62572		9.785609	-0.594831	3.844025	0.001693	0.028270	-0.002357	-0.914307	-0.124268	-0.178711	-0.320000	-0.505621	0.248031	-0.761858
62573		9.797888	-0.594001	3.863337	-0.004556	0.026033	-0.003968	-0.916260	-0.126465	-0.180908	-0.320138	-0.505462	0.247967	-0.761927
62574		9.783622	-0.600209	3.868337	0.000525	0.022749	-0.002815	-0.912354	-0.119873	-0.178955	-0.320224	-0.505351	0.247850	-0.762003
62575		9.801207	-0.586612	3.835545	0.005713	0.020509	-0.001521	-0.916504	-0.119873	-0.185547	-0.320268	-0.505254	0.247782	-0.762070
62576		9.790379	-0.571989	3.850708	0.002775	0.019937	0.000757	-0.912109	-0.122070	-0.180908	-0.320330	-0.505101	0.247764	-0.762151
62577		9.797453	-0.586074	3.845207	0.003658	0.017603	0.001465	-0.912354	-0.117676	-0.185547	-0.320350	-0.505016	0.247717	-0.762214
62578		9.794180	-0.585448	3.866342	0.006757	0.016899	0.000931	-0.907959	-0.122070	-0.183105	-0.320385	-0.504895	0.247697	-0.762286
62579		9.789450	-0.606451	3.859487	0.005990	0.016996	0.004373	-0.916504	-0.119873	-0.187500	-0.320373	-0.504799	0.247643	-0.762373
62580		9.789694	-0.579701	3.845894	0.005334	0.014293	0.003679	-0.916260	-0.126465	-0.180908	-0.320377	-0.504695	0.247639	-0.762441
62581		9.795596	-0.593940	3.856069	0.006125	0.013318	0.005186	-0.914551	-0.117676	-0.185547	-0.320307	-0.504686	0.247552	-0.762505
62582		9.783872	-0.566408	3.885842	0.005511	0.011859	0.006232	-0.914307	-0.124268	-0.187500	-0.320277	-0.504602	0.247597	-0.762559
62583		9.793019	-0.608761	3.862523	0.018451	0.010697	0.004668	-0.910156	-0.119873	-0.187500	-0.320164	-0.504607	0.247426	-0.762658
62584		9.782114	-0.574373	3.845994	0.012036	0.006458	0.005330	-0.912109	-0.122070	-0.185303	-0.320092	-0.504598	0.247390	-0.762706
62585		9.800576	-0.581996	3.855573	0.002306	0.007960	0.006495	-0.918945	-0.113525	-0.183594	-0.320053	-0.504563	0.247419	-0.762736
62586		9.798039	-0.596262	3.874624	0.011203	0.006472	0.006227	-0.916748	-0.115723	-0.183350	-0.319965	-0.504554	0.247482	-0.762758
62587		9.804951	-0.582569	3.882117	0.017552	0.003785	0.006920	-0.918457	-0.124268	-0.183105	-0.319815	-0.504607	0.247464	-0.762792
62588		9.789643	-0.596812	3.870715	0.013268	0.002534	0.007133	-0.914551	-0.117676	-0.185547	-0.319653	-0.504703	0.247381	-0.762824
62589		9.792209	-0.603868	3.883067	0.013047	0.000446	0.006863	-0.918457	-0.126465	-0.180908	-0.319531	-0.504759	0.247391	-0.762834
62590		9.803052	-0.577583	3.855150	0.014365	-0.001273	0.007997	-0.918701	-0.119873	-0.185547	-0.319322	-0.504920	0.247285	-0.762850
62591		9.801612	-0.599617	3.827231	0.014038	-0.000843	0.007710	-0.918701	-0.119873	-0.183350	-0.319171	-0.505004	0.247269	-0.762862
62592		9.785118	-0.586247	3.831325	0.011473	0.002681	0.007979	-0.910156	-0.119873	-0.187500	-0.319032	-0.505059	0.247262	-0.762886
62593		9.789133	-0.607786	3.827357	0.011430	0.001436	0.006243	-0.907959	-0.119873	-0.181152	-0.318940	-0.505091	0.247243	-0.762910
62594		9.793280	-0.601838	3.822931	0.006733	0.005539	0.007084	-0.912354	-0.119873	-0.178955	-0.318851	-0.505106	0.247247	-0.762935
62595		9.797334	-0.596408	3.818668	0.005035	0.003169	0.007958	-0.916748	-0.117676	-0.185547	-0.318739	-0.505156	0.247282	-0.762938
62596		9.800972	-0.596810	3.859658	0.000707	0.004238	0.006559	-0.916504	-0.122070	-0.183105	-0.318710	-0.505127	0.247385	-0.762936
62597		9.804761	-0.619544	3.856050	-0.002702	0.004219	0.007612	-0.912354	-0.119873	-0.183350	-0.318660	-0.505124	0.247462	-0.762934
62598		9.783477	-0.614010	3.865897	-0.000484	0.002281	0.006249	-0.914307	-0.122070	-0.180908	-0.318619	-0.505134	0.247541	-0.762919
62599		9.796793	-0.609409	3.850549	-0.004793	0.002193	0.005659	-0.914307	-0.119873	-0.185303	-0.318584	-0.505162	0.247625	-0.762888
62600		9.802194	-0.611270	3.874230	-0.006401	0.002315	0.009997	-0.914551	-0.115723	-0.183350	-0.318553	-0.505125	0.247785	-0.762873
62601		9.785871	-0.621151	3.833546	0.008879	0.000235	0.007206	-0.916260	-0.124268	-0.187500	-0.318451	-0.505170	0.247839	-0.762868
62602		9.790068	-0.607440	3.873124	0.006983	-0.001818	0.008736	-0.912109	-0.122070	-0.180908	-0.318323	-0.505240	0.247820	-0.762881
62603		9.794770	-0.637986	3.823019	0.006542	-0.002432	0.008318	-0.918701	-0.122070	-0.187500	-0.318179	-0.505346	0.247820	-0.762871
62604		9.798046	-0.604708	3.833364	0.005163	-0.000510	0.008780	-0.914551	-0.117676	-0.181152	-0.318074	-0.505386	0.247844	-0.762881
62605		9.800798	-0.613171	3.844969	-0.001195	-0.001375	0.007972	-0.916748	-0.113525	-0.183594	-0.318005	-0.505427	0.247970	-0.762841
62606		9.781158	-0.649004	3.838035	0.016332	-0.002711	0.008878	-0.914551	-0.115723	-0.181152	-0.317842	-0.505511	0.247998	-0.762845
62607		9.796692	-0.629325	3.804730	0.024105	-0.001656	0.005999	-0.916504	-0.122070	-0.180908	-0.317639	-0.505651	0.247891	-0.762871
62608		9.774580	-0.629413	3.785475	0.008070	-0.001197	0.004764	-0.910156	-0.119873	-0.178955	-0.317519	-0.505763	0.247844	-0.762862
62609		9.813054	-0.616680	3.800713	-0.004581	0.005447	0.005110	-0.920898	-0.117920	-0.187744	-0.317504	-0.505754	0.247914	-0.762852
62610		9.790075	-0.631945	3.783444	0.003125	0.006702	0.003832	-0.912354	-0.119873	-0.183350	-0.317502	-0.505707	0.247946	-0.762873
62611		9.804359	-0.617883	3.797525	0.012850	0.006331	0.001851	-0.914307	-0.119873	-0.181152	-0.317431	-0.505741	0.247833	-0.762917
62612		9.788215	-0.623710	3.832385	-0.002470	0.010743	0.003026	-0.916748	-0.115723	-0.178955	-0.317446	-0.505686	0.247854	-0.762940
62613		9.801764	-0.638650	3.848017	-0.009667	0.009900	0.003118	-0.916504	-0.122070	-0.185303	-0.317507	-0.505607	0.248000	-0.762920
62614		9.783211	-0.633216	3.825855	0.002878	0.010490	0.002058	-0.914551	-0.117676	-0.178955	-0.317504	-0.505566	0.247942	-0.762967
62615		9.792333	-0.640281	3.846590	-0.002909	0.010129	0.002607	-0.912354	-0.119873	-0.181152	-0.317519	-0.505524	0.247990	-0.762974
62616		9.793090	-0.627921	3.831983	-0.001384	0.011654	0.003197	-0.912354	-0.115479	-0.185547	-0.317526	-0.505466	0.247992	-0.763008
62617		9.783083	-0.628179	3.844739	0.001702	0.007377	0.002560	-0.916504	-0.119873	-0.185547	-0.317551	-0.505410	0.248043	-0.763018
62618		9.788390	-0.636232	3.824895	0.007228	0.008258	0.004266	-0.918701	-0.119873	-0.181152	-0.317501	-0.505392	0.247992	-0.763068
62619		9.790454	-0.629241	3.838497	0.006770	0.008801	0.003039	-0.916504	-0.122070	-0.180908	-0.317440	-0.505403	0.247930	-0.763106
62620		9.785130	-0.622423	3.845710	-0.001215	0.008933	0.001615	-0.914307	-0.122070	-0.178711	-0.317433	-0.505396	0.247903	-0.763122
62621		9.802334	-0.623770	3.827127	0.009411	0.008922	0.005424	-0.916748	-0.117676	-0.185547	-0.317314	-0.505433	0.247793	-0.763183
62622		9.796813	-0.630306	3.834866	0.021338	0.008054	0.005422	-0.910156	-0.119873	-0.181152	-0.317173	-0.505458	0.247644	-0.763273
62623		9.782401	-0.622236	3.852677	0.015207	0.009281	0.004870	-0.914551	-0.115723	-0.185547	-0.317051	-0.505485	0.247503	-0.763352
62624		9.781230	-0.636737	3.855483	0.001622	0.009035	0.007473	-0.916748	-0.115723	-0.181152	-0.317030	-0.505404	0.247575	-0.763391
62625		9.789354	-0.637931	3.847349	0.015867	0.008420	0.005437	-0.912354	-0.119873	-0.178955	-0.316908	-0.505426	0.247492	-0.763454
62626		9.784242	-0.616634	3.854165	0.019743	0.007887	0.005609	-0.912354	-0.119873	-0.178955	-0.316729	-0.505500	0.247311	-0.763538
62627		9.792273	-0.630871	3.846353	0.013114	0.007551	0.007051	-0.918945	-0.113525	-0.183594	-0.316577	-0.505546	0.247203	-0.763605
62628		9.780680	-0.630505	3.875511	0.010225	0.006794	0.007729	-0.914307	-0.119873	-0.183350	-0.316487	-0.505528	0.247228	-0.763647
62629		9.781695	-0.632021	3.860308	0.012506	0.004941	0.008913	-0.916748	-0.113525	-0.187988	-0.316333	-0.505564	0.247155	-0.763710
62630		9.803706	-0.640675	3.835911	0.015350	0.004447	0.006505	-0.916748	-0.113525	-0.185791	-0.316239	-0.505562	0.247135	-0.763757
62631		9.794091	-0.640742	3.847592	0.009358	0.004411	0.007707	-0.916748	-0.117676	-0.183350	-0.316157	-0.505549	0.247173	-0.763787
62632		9.787459	-0.647565	3.870396	0.019168	-0.001756	0.009799	-0.916748	-0.115723	-0.183350	-0.315939	-0.505665	0.247093	-0.763826
62633		9.793602	-0.655564	3.848595	0.010967	-0.000445	0.004087	-0.916748	-0.115723	-0.181152	-0.315841	-0.505743	0.247074	-0.763821
62634		9.789131	-0.635838	3.853524	-0.007653	0.003874	0.007231	-0.916992	-0.111328	-0.177002	-0.315833	-0.505710	0.247231	-0.763796
62635		9.776840	-0.644055	3.853022	0.016450	-0.000520	0.008195	-0.921143	-0.113525	-0.183594	-0.315647	-0.505817	0.247226	-0.763803
62636		9.803404	-0.680099	3.911335	0.110721	-0.028207	0.012266	-0.916992	-0.109131	-0.177246	-0.314761	-0.506519	0.246443	-0.763957
62637		9.772155	-0.709819	3.974329	0.252096	-0.070438	0.008864	-0.914795	-0.109131	-0.179443	-0.312878	-0.508194	0.244496	-0.764243
62638		9.779041	-0.634149	3.885780	0.250755	-0.066146	-0.000830	-0.918945	-0.111328	-0.174805	-0.311138	-0.509811	0.242499	-0.764513
62639		9.800272	-0.597421	3.840741	0.123813	-0.051885	0.002400	-0.914795	-0.111328	-0.177002	-0.310191	-0.510810	0.241659	-0.764497
62640		9.791401	-0.690788	3.834692	0.100079	-0.047797	0.004315	-0.912842	-0.104980	-0.164307	-0.309418	-0.511639	0.241053	-0.764447
62641		9.778706	-0.661487	3.798970	0.120977	-0.051185	0.002645	-0.916992	-0.109375	-0.170654	-0.308476	-0.512628	0.240295	-0.764404
62642		9.780518	-0.647016	3.776497	0.073965	-0.047614	0.005690	-0.908447	-0.111328	-0.168213	-0.307841	-0.513360	0.239965	-0.764272
62643		9.792328	-0.638889	3.727245	0.040746	-0.041534	0.007878	-0.912842	-0.107178	-0.166260	-0.307409	-0.513908	0.239909	-0.764095
62644		9.790725	-0.671223	3.725834	0.038082	-0.035477	0.008050	-0.904053	-0.109131	-0.168457	-0.307015	-0.514378	0.239902	-0.763939
62645		9.804058	-0.662430	3.736013	0.024970	-0.028359	0.008191	-0.910645	-0.104980	-0.168701	-0.306747	-0.514710	0.239974	-0.763801
62646		9.785690	-0.688407	3.829909	0.047602	-0.042622	0.005465	-0.908691	-0.104980	-0.157715	-0.306328	-0.515254	0.239917	-0.763621
62647		9.765807	-0.701183	3.864147	0.071390	-0.048853	0.002955	-0.910889	-0.100586	-0.157959	-0.305685	-0.516023	0.239595	-0.763460
62648		9.743593	-0.661153	3.851976	0.045510	-0.066067	0.003146	-0.904297	-0.106934	-0.157471	-0.305177	-0.516828	0.239640	-0.763104
62649		9.774402	-0.642207	3.790577	0.011114	-0.076268	0.005963	-0.912842	-0.107178	-0.157715	-0.304824	-0.517605	0.239994	-0.762608
62650		9.780468	-0.624066	3.741705	0.011672	-0.081504	0.007888	-0.908691	-0.104980	-0.148926	-0.304432	-0.518422	0.240378	-0.762088
62651		9.753142	-0.659694	3.704186	0.033935	-0.086023	0.012907	-0.904297	-0.104980	-0.153320	-0.303787	-0.519389	0.240581	-0.761623
62652		9.766825	-0.654110	3.661020	0.045302	-0.088048	0.014283	-0.906738	-0.100586	-0.153564	-0.303105	-0.520364	0.240714	-0.761187
62653		9.790488	-0.656571	3.697224	0.051961	-0.097766	0.017148	-0.904297	-0.104980	-0.151123	-0.302343	-0.521418	0.240886	-0.760714
62654		9.751172	-0.657577	3.732031	0.063349	-0.106697	0.019902	-0.904541	-0.100586	-0.142578	-0.301439	-0.522609	0.240944	-0.760237
62655		9.749494	-0.707945	3.753159	0.065057	-0.125443	0.019039	-0.900391	-0.096436	-0.138428	-0.300423	-0.524016	0.241047	-0.759638
62656		9.736627	-0.661754	3.749712	0.085969	-0.150412	0.022710	-0.900146	-0.102783	-0.135986	-0.299151	-0.525719	0.241079	-0.758953
62657		9.708607	-0.687469	3.812288	0.054998	-0.177388	0.029639	-0.894043	-0.096436	-0.140625	-0.297929	-0.527556	0.241482	-0.758030
62658		9.713368	-0.696312	3.782629	0.027744	-0.209828	0.031345	-0.895996	-0.100586	-0.129395	-0.296842	-0.529523	0.242337	-0.756811
62659		9.685098	-0.672104	3.756554	-0.001223	-0.244282	0.034577	-0.889648	-0.100586	-0.131592	-0.295755	-0.531757	0.243528	-0.755286
62660		9.655105	-0.684660	3.745005	-0.039001	-0.295599	0.040875	-0.883301	-0.098389	-0.125244	-0.294746	-0.534286	0.245309	-0.753317
62661		9.667750	-0.641804	3.700960	-0.064660	-0.345871	0.048379	-0.878906	-0.100586	-0.114258	-0.293650	-0.537187	0.247531	-0.750951
62662		9.645238	-0.603568	3.647794	-0.120776	-0.403802	0.057834	-0.874512	-0.104736	-0.111816	-0.292640	-0.540398	0.250531	-0.748042
62663		9.637942	-0.675751	3.571616	-0.135157	-0.465446	0.069971	-0.874512	-0.106934	-0.107422	-0.291408	-0.544077	0.253963	-0.744691
62664		9.615913	-0.727206	3.489925	-0.112565	-0.532162	0.072567	-0.868164	-0.102539	-0.090088	-0.289772	-0.548428	0.257431	-0.740937
62665		9.532763	-0.872377	3.406347	-0.097166	-0.596909	0.079602	-0.848877	-0.104492	-0.092041	-0.287740	-0.553383	0.261024	-0.736777
62666		9.502246	-0.937574	3.254173	-0.050773	-0.654638	0.082778	-0.842529	-0.104492	-0.079102	-0.285149	-0.558991	0.264400	-0.732333
62667		9.542770	-0.895953	2.766332	0.031201	-0.702999	0.078593	-0.835938	-0.108887	-0.063477	-0.281842	-0.565306	0.267146	-0.727755
62668		9.534520	-0.940311	2.040038	0.117789	-0.694563	0.079989	-0.827393	-0.108887	-0.059082	-0.277915	-0.571800	0.269063	-0.723473
62669		9.439988	-0.634743	1.515340	0.335700	-0.641370	0.091567	-0.810547	-0.100098	-0.039795	-0.272483	-0.578485	0.268885	-0.720284
62670		9.384499	0.189754	1.090040	0.440105	-0.560863	0.134340	-0.808838	-0.091553	-0.027100	-0.266160	-0.584607	0.267781	-0.718113
62671		9.590709	-0.085346	0.555148	0.270951	-0.460574	0.187330	-0.804688	-0.085205	-0.020752	-0.260916	-0.589052	0.268229	-0.716236
62672		9.760164	-1.033702	0.232495	0.152142	-0.327510	0.206261	-0.793945	-0.089355	-0.018555	-0.256814	-0.591832	0.269437	-0.714973
62673		9.945234	-1.506561	0.230032	0.092803	-0.154690	0.183947	-0.800537	-0.083008	-0.010010	-0.253932	-0.592939	0.270456	-0.714699
62674		9.804454	-1.649749	0.710920	0.034552	-0.026242	0.157357	-0.794189	-0.084961	-0.016357	-0.252157	-0.592799	0.271397	-0.715088
62675		9.760474	-1.630081	1.278487	-0.025512	0.048738	0.127050	-0.796631	-0.074463	-0.016846	-0.251357	-0.591897	0.272420	-0.715727
62676		9.650719	-1.379649	2.034745	0.006129	0.049549	0.098608	-0.800781	-0.078613	-0.014648	-0.250582	-0.591182	0.272950	-0.716387
62677		9.445311	-0.999085	2.591409	-0.235849	-0.016313	0.082110	-0.796387	-0.078613	-0.020996	-0.251516	-0.590352	0.275730	-0.715680
62678		9.283568	-1.085190	2.665029	-0.465504	-0.120222	0.080202	-0.793945	-0.089355	-0.018555	-0.253795	-0.589722	0.280866	-0.713393
62679		9.353612	-1.275964	2.369159	-0.498350	-0.223382	0.072588	-0.793945	-0.091553	-0.018311	-0.256008	-0.589910	0.286551	-0.710179
62680		9.259192	-1.300226	1.993678	-0.454498	-0.288297	0.066246	-0.787109	-0.095703	-0.020264	-0.257707	-0.590810	0.291991	-0.706591
62681		9.404101	-1.449972	1.924128	-0.321963	-0.336554	0.047531	-0.778564	-0.097656	-0.022461	-0.258406	-0.592608	0.296265	-0.703043
62682		9.435409	-1.355378	1.936251	-0.210227	-0.383063	0.025783	-0.778320	-0.104248	-0.017822	-0.258285	-0.595236	0.299535	-0.699472
62683		9.475834	-1.256446	1.576165	-0.083240	-0.423585	0.009023	-0.761230	-0.106201	-0.004639	-0.257206	-0.598674	0.301690	-0.696001
62684		9.425142	-1.199965	1.323400	0.014690	-0.424893	-0.003515	-0.763428	-0.101807	-0.002686	-0.255490	-0.602469	0.302894	-0.692829
62685		9.342577	-1.334703	1.186148	-0.090425	-0.441482	-0.006236	-0.750488	-0.104004	-0.002441	-0.254517	-0.606063	0.305029	-0.689105
62686		9.467042	-1.358517	1.281922	-0.100285	-0.450153	-0.018418	-0.743652	-0.112305	0.006592	-0.253682	-0.609727	0.307174	-0.685217
62687		9.584685	-1.328804	1.569567	-0.135262	-0.499824	-0.033491	-0.732910	-0.116699	0.015625	-0.253042	-0.613740	0.309649	-0.680743
62688		9.509609	-1.180258	1.728301	-0.131907	-0.597218	-0.055741	-0.719971	-0.116455	0.024414	-0.252174	-0.618648	0.312213	-0.675430
62689		9.431655	-1.128106	1.705110	-0.302536	-0.726267	-0.073458	-0.707031	-0.120605	0.024658	-0.252249	-0.624128	0.316459	-0.668348
62690		9.453244	-1.098100	1.626852	-0.414596	-0.862516	-0.089535	-0.687256	-0.133301	0.036133	-0.252759	-0.630383	0.321900	-0.659630
62691		9.838080	-0.684766	1.600190	-0.431962	-1.016457	-0.126046	-0.669678	-0.145996	0.045410	-0.253041	-0.637893	0.327622	-0.649405
62692		10.172619	-0.881698	1.508409	-0.389127	-1.174647	-0.158459	-0.639404	-0.152100	0.058838	-0.252538	-0.646819	0.333157	-0.637853
62693		10.652132	-0.928770	1.720528	-0.328883	-1.337411	-0.209803	-0.615479	-0.164795	0.068115	-0.251205	-0.657271	0.338209	-0.624904
62694		11.094521	-0.639480	2.345555	-0.473377	-1.576542	-0.268687	-0.570068	-0.172852	0.088135	-0.250412	-0.669147	0.344519	-0.608969
62695		11.770039	-0.170063	3.054688	-0.512188	-1.869953	-0.288077	-0.531006	-0.183350	0.104004	-0.248691	-0.682875	0.351683	-0.590045
62696		12.879858	0.562573	3.283930	-0.445266	-2.163722	-0.288785	-0.466309	-0.197754	0.128906	-0.244934	-0.698519	0.358991	-0.568511
62697		14.709728	0.881681	2.571054	-0.745686	-2.259669	-0.279519	-0.405518	-0.214111	0.134277	-0.243089	-0.713310	0.368471	-0.544358
62698		13.612460	0.242991	6.438098	-2.345452	-2.526651	-0.238062	-0.341797	-0.250000	0.131592	-0.253652	-0.723895	0.389465	-0.509857
62699		12.913481	-3.909127	0.486494	-1.377380	-2.701709	-0.117388	-0.270508	-0.266357	0.147705	-0.253411	-0.736906	0.405241	-0.478051
62700		12.065896	-1.632749	-3.291437	-0.472501	-2.706317	-0.143525	-0.203857	-0.267822	0.174316	-0.244648	-0.751986	0.414837	-0.450083
62701		10.782050	-0.111194	-2.674643	-0.510362	-2.223188	0.091147	-0.156982	-0.265381	0.191650	-0.237193	-0.762273	0.424951	-0.426726
62702		8.335400	-2.085696	-2.940449	0.103401	-1.283058	0.203784	-0.129639	-0.248047	0.215088	-0.228159	-0.768368	0.429831	-0.415692
62703		5.308750	-0.291052	-6.346154	0.059798	-0.547689	0.310468	-0.125977	-0.239502	0.240967	-0.222905	-0.769821	0.433792	-0.411720
62704		6.979701	0.397625	-1.370634	-0.877454	0.271984	0.411331	-0.134277	-0.246094	0.243408	-0.230574	-0.763810	0.441232	-0.410785
62705		5.195352	0.222785	-1.141247	0.005925	1.305289	0.397884	-0.167236	-0.229248	0.260010	-0.235516	-0.754949	0.440921	-0.424467
62706		4.421104	0.724143	-1.413476	1.316820	2.274997	0.199069	-0.219971	-0.197754	0.280273	-0.234306	-0.745379	0.428618	-0.453649
62707		5.189123	2.646642	-1.238442	1.399612	3.072790	0.037756	-0.281738	-0.155762	0.291260	-0.237153	-0.731318	0.411392	-0.489581
62708		5.902372	2.969747	-1.470583	0.741238	3.922708	-0.079120	-0.365967	-0.141602	0.285889	-0.250562	-0.709141	0.393724	-0.528507
62709		5.518623	2.838915	-1.942322	0.155625	4.596073	-0.059247	-0.460693	-0.131836	0.259033	-0.271576	-0.678526	0.376855	-0.569060
62710		6.418744	1.598955	-2.613557	-0.530336	5.166069	-0.018829	-0.554932	-0.134766	0.210938	-0.299740	-0.638787	0.361872	-0.609225
62711		7.830577	0.102498	-2.899658	-0.793054	5.449107	0.050283	-0.653320	-0.135498	0.136475	-0.329379	-0.592729	0.346795	-0.648008
62712		10.553990	-0.470856	-2.833054	-0.328901	5.673172	0.081197	-0.736572	-0.140381	0.055664	-0.354666	-0.543719	0.325617	-0.687427
62713		10.492582	-0.581424	-2.528033	0.688664	5.495538	0.108198	-0.807617	-0.125732	-0.027832	-0.370331	-0.497931	0.295118	-0.726516
62714		10.125664	0.023790	-1.927191	1.789944	4.796427	-0.039398	-0.855469	-0.102539	-0.085693	-0.376261	-0.461884	0.255668	-0.761397
62715		9.255988	1.628803	-0.352808	1.470341	3.706455	-0.075877	-0.885986	-0.083496	-0.143311	-0.379671	-0.433269	0.223356	-0.786282
62716		8.223923	-0.060762	1.170354	1.007291	2.526520	-0.008739	-0.914062	-0.072754	-0.182861	-0.380949	-0.413058	0.201165	-0.802368
62717		7.297369	-1.315903	1.543225	1.257430	1.365963	-0.049982	-0.918701	-0.062012	-0.198730	-0.378119	-0.405419	0.181622	-0.812204
62718		6.102183	-1.060807	1.778589	1.018178	0.136605	0.018475	-0.918945	-0.057861	-0.183594	-0.372897	-0.408826	0.170615	-0.815291
62719		6.612169	-1.414555	1.772511	0.619712	-0.949899	0.086480	-0.908691	-0.044922	-0.168945	-0.366648	-0.421225	0.169057	-0.812132
62720		7.247258	-2.012598	1.179663	0.779899	-1.757419	0.106393	-0.894287	-0.034424	-0.125732	-0.357522	-0.442347	0.169620	-0.804821
62721		7.827078	-1.463515	0.840924	1.196540	-2.197530	0.217450	-0.875732	-0.019287	-0.080566	-0.343786	-0.469172	0.168453	-0.795809
62722		17.479725	7.260990	12.832990	0.079527	-0.927066	0.352989	-0.873779	-0.015137	-0.067627	-0.337750	-0.478010	0.173649	-0.792009
62723		12.110022	-0.647127	8.887882	1.254657	-0.105047	0.398578	-0.875000	0.014893	-0.057861	-0.325924	-0.483473	0.163945	-0.795707
62724		14.806876	3.437782	2.043373	2.599304	-1.177102	0.510220	-0.859131	0.046875	-0.021973	-0.302409	-0.504457	0.145777	-0.795501
62725		11.569761	-1.217770	-0.912998	1.102002	-1.946144	0.802187	-0.841309	0.079102	0.018066	-0.283707	-0.526344	0.147082	-0.787934
62726		8.496503	-4.529607	0.559064	1.949193	-1.633182	0.761614	-0.819092	0.117676	0.047119	-0.260152	-0.547704	0.138543	-0.783037
62727		9.400495	2.846609	1.487863	0.064889	-1.302708	0.565169	-0.804443	0.126221	0.070801	-0.251833	-0.559653	0.145958	-0.775928
62728		9.561195	1.139333	0.878864	-3.288060	-1.216410	0.644601	-0.787842	0.083740	0.074707	-0.266059	-0.559427	0.185991	-0.762667
62729		11.906392	-7.323695	-0.888165	-0.324282	-0.942999	0.458704	-0.780273	0.103027	0.093506	-0.261688	-0.566277	0.195374	-0.756755
62730		10.031669	0.954702	2.241926	2.087499	-0.527230	0.273315	-0.774658	0.126465	0.107910	-0.242933	-0.577266	0.179230	-0.758699
62731		8.101811	1.658781	3.034630	-1.432152	-0.648815	0.453047	-0.763184	0.107422	0.110840	-0.247454	-0.577986	0.198023	-0.751988
62732		10.737570	-4.454691	2.098675	-1.058710	-0.581830	0.350155	-0.756836	0.105225	0.119629	-0.250320	-0.579294	0.212280	-0.746120
62733		9.868624	-0.984207	1.446904	0.318490	-0.332185	0.180298	-0.752930	0.113770	0.128174	-0.245439	-0.582947	0.211672	-0.745069
62734		9.401927	0.020226	1.268780	-0.473408	-0.280441	0.228446	-0.748291	0.107422	0.126221	-0.246011	-0.583532	0.218628	-0.742409
62735		9.769537	-1.449888	1.780016	-0.768921	-0.237943	0.239120	-0.739502	0.101074	0.124268	-0.248736	-0.582736	0.228256	-0.739222
62736		9.811701	-1.025302	2.282614	-0.564310	-0.218754	0.203361	-0.741455	0.096924	0.126709	-0.250338	-0.582448	0.235660	-0.736579
62737		9.633958	-1.023105	2.262317	-0.602838	-0.243460	0.185340	-0.739258	0.092529	0.128906	-0.252298	-0.582280	0.243350	-0.733537
62738		9.613680	-0.963775	2.431903	-0.631132	-0.268196	0.165710	-0.736572	0.079834	0.131836	-0.254550	-0.582264	0.251218	-0.730111
62739		9.584684	-1.354301	2.661054	-0.555396	-0.327689	0.136823	-0.729980	0.077637	0.136230	-0.256309	-0.583079	0.258354	-0.726345
62740		9.502301	-1.108678	2.741448	-0.442706	-0.402597	0.098569	-0.727539	0.066895	0.132324	-0.257333	-0.585022	0.264411	-0.722230
62741		9.472815	-1.223980	2.604014	-0.514553	-0.488950	0.082705	-0.720947	0.064941	0.141113	-0.258721	-0.587524	0.271258	-0.717146
62742		9.487861	-1.488202	2.594188	-0.405934	-0.574357	0.057238	-0.714355	0.058594	0.147949	-0.259226	-0.591182	0.277198	-0.711665
62743		9.229301	-1.513543	2.761317	-0.256220	-0.677479	0.031438	-0.692627	0.054443	0.156982	-0.258474	-0.596284	0.281924	-0.705801
62744		9.360795	-1.590850	2.698060	-0.152648	-0.810104	0.012642	-0.690674	0.056641	0.167725	-0.256620	-0.602900	0.285996	-0.699188
62745		9.433748	-1.159669	2.619544	-0.209334	-0.947446	-0.009575	-0.666748	0.048096	0.176758	-0.254860	-0.610536	0.290796	-0.691180
62746		9.614681	-1.228664	2.563423	-0.188006	-1.108652	-0.045841	-0.647461	0.048340	0.185547	-0.252615	-0.619658	0.295593	-0.681787
62747		9.453429	-0.829168	2.594770	-0.234710	-1.284224	-0.074640	-0.626221	0.048584	0.205322	-0.250264	-0.630092	0.301043	-0.670616
62748		9.442773	-0.762946	2.659984	-0.302192	-1.514657	-0.097093	-0.600098	0.040283	0.218750	-0.247677	-0.642129	0.307496	-0.657094
62749		10.243547	-0.448596	2.658023	-0.421408	-1.777314	-0.147856	-0.567871	0.036133	0.232178	-0.245335	-0.655861	0.315184	-0.640560
62750		11.256028	0.365763	2.774871	-0.633315	-2.051728	-0.170238	-0.532715	0.015137	0.252930	-0.243665	-0.670821	0.325012	-0.620479
62751		12.829137	1.426409	2.550987	-0.927803	-2.316074	-0.186627	-0.482910	0.002686	0.270996	-0.243298	-0.686434	0.337490	-0.596418
62752		14.117909	4.265461	0.730091	-1.716504	-2.425520	-0.109467	-0.436768	-0.031006	0.270264	-0.248362	-0.699338	0.356411	-0.567639
62753		12.788218	2.386203	2.879408	-3.693380	-2.423719	0.032416	-0.393311	-0.096924	0.258057	-0.269137	-0.703930	0.389754	-0.529283
62754		11.469143	-5.025892	-1.438161	-1.576393	-2.666802	-0.075387	-0.336914	-0.113525	0.263184	-0.270204	-0.716195	0.408045	-0.497548
62755		10.359144	-3.867758	-4.408561	1.049709	-2.254359	-0.183728	-0.299316	-0.085205	0.286133	-0.250214	-0.734432	0.407139	-0.481913
62756		7.838650	-2.198309	-5.592297	1.353803	-1.845568	0.070940	-0.260010	-0.048584	0.295654	-0.227764	-0.749198	0.405103	-0.471930
62757		5.618635	1.048329	-4.343260	0.317077	-1.197817	0.396497	-0.251465	-0.044189	0.297852	-0.216264	-0.755131	0.410179	-0.463422
62758		4.361789	1.846560	0.679570	-2.139588	-0.141846	0.708202	-0.258789	-0.076172	0.277344	-0.231447	-0.746313	0.429357	-0.452882
62759		3.596853	-0.263869	-0.372177	-1.671375	0.906750	0.573284	-0.283691	-0.097900	0.264893	-0.248484	-0.733124	0.441275	-0.453940
62760		3.612887	0.063592	-1.075170	0.052645	1.904545	0.312120	-0.329590	-0.079102	0.253174	-0.256552	-0.720632	0.437655	-0.472577
62761		3.972517	1.803015	-2.049515	0.843259	2.655196	0.183349	-0.381836	-0.060303	0.247803	-0.262124	-0.706298	0.425407	-0.501462
62762		4.303657	1.833375	-3.671164	1.038179	3.281654	-0.084125	-0.442627	-0.037354	0.233643	-0.270567	-0.689012	0.406874	-0.535266
62763		4.897473	1.825453	-4.110785	1.101690	3.760803	-0.468120	-0.508057	-0.012207	0.210449	-0.282879	-0.669205	0.382133	-0.571068
62764		6.931478	-0.023222	-4.282519	0.970622	4.076386	-0.813533	-0.572510	-0.002197	0.170654	-0.299506	-0.646557	0.353331	-0.606150
62765		8.644481	-1.555306	-4.159028	0.656190	4.042304	-0.964625	-0.632812	0.008057	0.130615	-0.318827	-0.621832	0.324849	-0.637297
62766		9.872385	-1.340308	-4.204618	1.591393	3.693298	-0.747200	-0.680664	0.024902	0.086182	-0.326886	-0.601042	0.291155	-0.668672
62767		9.329409	-0.375511	-4.311864	1.779989	2.829620	-0.275397	-0.715820	0.050293	0.061035	-0.325746	-0.585197	0.262345	-0.694700
62768		6.928298	2.355287	-6.122886	1.058675	0.972681	-0.033532	-0.731201	0.060791	0.056396	-0.321373	-0.581129	0.248876	-0.705031
62769		8.211988	1.795816	-2.308811	-1.126745	-0.919201	0.122871	-0.713379	0.043945	0.061523	-0.325526	-0.584277	0.263342	-0.695201
62770		9.686463	-0.308162	5.504420	-1.926358	-0.662193	0.077009	-0.708252	0.022461	0.062256	-0.336613	-0.581802	0.283256	-0.684079
62771		9.834770	-5.693626	2.897586	1.541356	-0.848710	-0.047263	-0.690186	0.052490	0.083008	-0.322682	-0.595623	0.273225	-0.682977
62772		8.865646	2.709695	3.528197	1.979107	-1.071855	-0.183746	-0.678223	0.076172	0.105957	-0.305695	-0.613190	0.259181	-0.680715
62773		7.923139	1.626423	2.706558	0.835190	-1.424275	0.023889	-0.653076	0.091309	0.129395	-0.294365	-0.628341	0.257627	-0.672432
62774		8.335728	1.104850	2.888345	-0.083438	-1.705169	0.137413	-0.625244	0.085205	0.151611	-0.288251	-0.641830	0.265589	-0.659111
62775		9.017946	-0.544303	2.147105	0.009208	-1.958164	0.171603	-0.595703	0.098145	0.164307	-0.280111	-0.657285	0.273817	-0.643847
62776		8.836062	-0.185983	1.146849	0.777210	-2.078145	0.105215	-0.564209	0.115479	0.189697	-0.265589	-0.676167	0.275541	-0.629553
62777		8.171061	-1.420233	-1.039717	1.296598	-2.058723	0.025059	-0.517822	0.137451	0.217529	-0.247149	-0.696322	0.272195	-0.616411
62778		7.387257	-0.960274	-2.909381	1.386207	-1.882067	0.041773	-0.489014	0.165527	0.231689	-0.228187	-0.714712	0.267521	-0.604607
62779		8.414132	0.414428	-3.081293	0.501147	-1.680522	0.068967	-0.458984	0.167725	0.242676	-0.217454	-0.728484	0.269034	-0.591309
62780		7.710742	-0.976924	-4.168170	0.360913	-1.485952	0.058552	-0.433838	0.183105	0.252930	-0.208640	-0.740161	0.270850	-0.579026
62781		7.503469	0.665121	-5.581730	0.707848	-1.092938	0.119475	-0.412842	0.193848	0.259277	-0.197448	-0.749455	0.269622	-0.571521
62782		7.788441	0.926574	-8.201308	0.482724	-0.554167	0.302132	-0.408936	0.204590	0.260986	-0.188847	-0.753589	0.270345	-0.568642
62783		10.237008	0.695642	-11.894433	0.370404	0.233532	0.416809	-0.413818	0.217529	0.264648	-0.183146	-0.751412	0.271087	-0.573018
62784		11.574920	-0.542873	-15.026782	-0.000813	1.325306	0.435752	-0.433105	0.221680	0.253662	-0.184483	-0.740364	0.272150	-0.586312
62785		15.857692	-1.433729	-15.668104	-0.798495	2.593530	0.289453	-0.494873	0.208252	0.236572	-0.198483	-0.718137	0.274628	-0.607835
62786		24.270670	1.642083	-8.739559	-2.172162	3.537164	0.001006	-0.557373	0.162598	0.196533	-0.229893	-0.684948	0.282128	-0.631189
62787		22.506085	1.276123	1.928782	-3.431990	4.291030	0.000337	-0.630127	0.106445	0.148438	-0.273906	-0.639684	0.296338	-0.654189
62788		10.496451	-4.198930	4.286892	-3.821292	4.719190	0.051951	-0.696289	0.048340	0.070068	-0.320751	-0.586069	0.311082	-0.675921
62789		3.095059	-10.206008	5.137351	-1.722575	4.126146	-0.445402	-0.750977	0.022217	0.007568	-0.352722	-0.545176	0.305439	-0.696475
62790		-0.596581	-3.869676	4.038660	0.587179	2.195735	-0.325202	-0.770752	0.034912	-0.016846	-0.359859	-0.529709	0.288412	-0.711848
62791		-2.116586	3.568284	5.115265	-1.485807	-0.049589	0.357300	-0.776367	0.017822	-0.018311	-0.366333	-0.522120	0.304265	-0.707541
62792		-0.109701	0.216352	4.085027	-3.469359	-0.861004	0.323442	-0.764404	-0.016113	-0.027832	-0.382495	-0.512137	0.340746	-0.689424
62793		0.757758	-3.568664	4.863154	-1.774657	-1.066370	0.104707	-0.750977	-0.031006	-0.018555	-0.388292	-0.512267	0.361736	-0.675247
62794		1.097831	-2.972467	5.613819	0.748319	-0.986755	-0.152593	-0.738281	-0.026855	0.000977	-0.380270	-0.524899	0.359221	-0.671443
62795		0.582527	-1.065442	4.889835	1.858165	-0.871480	-0.247386	-0.724365	-0.000977	0.026123	-0.366087	-0.542026	0.346040	-0.672640
62796		-0.062373	0.061307	3.783441	2.269043	-0.931181	-0.235996	-0.712402	0.022461	0.049316	-0.348452	-0.561049	0.329456	-0.674733
62797		0.166797	0.099119	3.710772	1.951888	-0.960551	-0.244909	-0.696533	0.050537	0.072021	-0.332684	-0.578501	0.315311	-0.674713
62798		0.919507	-0.740545	4.274999	1.721022	-0.913031	-0.266521	-0.682129	0.065430	0.091064	-0.318714	-0.594287	0.302526	-0.673589
62799		0.485423	-0.516295	4.416281	1.553270	-0.935891	-0.369197	-0.659180	0.082764	0.116699	-0.306573	-0.609646	0.290289	-0.670878
62800		-0.464910	0.933651	1.383941	1.822949	-1.397314	-0.305468	-0.634766	0.114990	0.135010	-0.289945	-0.629255	0.277822	-0.665421
62801		6.228793	-2.358730	-9.820967	2.883726	-4.284464	0.104910	-0.565674	0.156250	0.196777	-0.250830	-0.673691	0.269513	-0.640771
62802		13.813380	6.496770	2.908433	-0.878236	-3.566879	0.564628	-0.513672	0.137451	0.232666	-0.241354	-0.696918	0.292137	-0.608859
62803		30.118971	-9.509646	-6.154173	3.649990	-2.561050	0.210806	-0.465088	0.214844	0.249268	-0.198158	-0.725608	0.273375	-0.599577
62804		25.970116	5.480988	-13.093760	1.193183	-1.520914	0.338673	-0.435547	0.229980	0.259766	-0.179472	-0.738629	0.271129	-0.590513
62805		20.574320	-4.077042	-20.227532	0.107085	-0.329419	0.083931	-0.438232	0.240723	0.259277	-0.176681	-0.741059	0.271790	-0.588002
62806		18.265210	-0.267850	-19.570577	-0.022580	1.374729	-0.175479	-0.465576	0.225586	0.251221	-0.182803	-0.731431	0.267273	-0.600131
62807		22.133602	1.124612	-10.935104	-1.537274	2.769493	-0.223325	-0.517822	0.195068	0.221680	-0.207656	-0.707357	0.270303	-0.619242
62808		18.363451	3.969306	-0.732612	-2.783857	3.717090	-0.174590	-0.580078	0.138916	0.182373	-0.245850	-0.670819	0.280292	-0.641090
62809		9.947603	0.255783	3.428628	-3.325231	3.871717	-0.003306	-0.648926	0.089111	0.131836	-0.286829	-0.628301	0.294499	-0.660483
62810		3.657933	-4.819683	5.450193	-1.954019	3.264387	0.035492	-0.693359	0.078369	0.077637	-0.313586	-0.593573	0.298917	-0.678221
62811		1.543112	-5.920411	2.016186	0.186424	2.217222	0.043870	-0.714600	0.080322	0.055664	-0.320005	-0.575171	0.288894	-0.695208
62812		0.585105	0.935691	4.293289	-1.649689	0.662585	0.239361	-0.730957	0.058838	0.045410	-0.332112	-0.561857	0.302273	-0.694730
62813		-0.513331	0.319949	4.119775	-3.170108	0.132015	0.299655	-0.729492	0.020264	0.029541	-0.352001	-0.546029	0.331136	-0.684322
62814		-0.921757	-1.646341	5.043280	-1.666444	-0.153073	-0.032006	-0.730957	0.000977	0.021729	-0.362915	-0.540075	0.345778	-0.676054
62815		1.081344	-1.826364	6.204013	-0.271161	-0.392734	-0.209093	-0.722168	-0.003174	0.026367	-0.364765	-0.543114	0.348420	-0.671250
62816		0.806615	-2.845898	4.902584	0.916810	-0.652828	-0.174637	-0.709961	0.013916	0.047363	-0.357061	-0.553539	0.342446	-0.669950
62817		-0.047785	-1.814168	3.440839	2.374357	-1.006152	-0.178919	-0.700439	0.043945	0.068115	-0.337558	-0.573097	0.325585	-0.672019
62818		1.208800	0.698462	3.431311	1.918486	-1.131778	-0.100316	-0.681885	0.061279	0.091309	-0.319830	-0.590943	0.313332	-0.671057
62819		0.016081	-0.564451	3.858288	1.277723	-1.203365	-0.093996	-0.661377	0.082764	0.110107	-0.306287	-0.606432	0.306567	-0.666667
62820		0.116857	-2.182187	3.885943	1.595314	-1.474743	-0.173758	-0.636475	0.104248	0.137695	-0.289762	-0.625331	0.297381	-0.660730
62821		-2.268424	-1.506757	-4.510228	2.974816	-1.965766	-0.402323	-0.599854	0.153809	0.166260	-0.262118	-0.653257	0.276369	-0.654346
62822		9.915885	-5.385519	-7.009002	3.437532	-3.744961	0.208374	-0.533447	0.207764	0.210205	-0.218804	-0.693136	0.261570	-0.635034
62823		20.879307	0.425991	4.612544	1.339354	-3.075722	0.392590	-0.478516	0.229736	0.231201	-0.193769	-0.719348	0.262462	-0.613274
62824		28.360408	-1.774342	-9.880485	2.284622	-2.034825	0.204397	-0.447998	0.274902	0.253662	-0.164755	-0.739322	0.251425	-0.602531
62825		22.981428	1.534387	-18.208710	0.940668	-1.121853	-0.137348	-0.435547	0.285645	0.255371	-0.153464	-0.750058	0.245259	-0.594735
62826		15.725544	1.307512	-22.369891	0.184327	0.482606	-0.055322	-0.448242	0.283447	0.248779	-0.153571	-0.747022	0.242400	-0.599680
62827		19.753462	-0.887682	-18.241867	-1.285731	2.133746	-0.185068	-0.483887	0.257568	0.234619	-0.173342	-0.728806	0.246121	-0.614995
62828		24.330839	-0.142341	-7.537297	-2.026329	3.340126	-0.339111	-0.551025	0.218262	0.207520	-0.204497	-0.698966	0.251155	-0.637611
62829		18.545061	1.004650	2.717377	-3.240814	4.161850	-0.267594	-0.614990	0.160156	0.161621	-0.247582	-0.656912	0.263540	-0.661602
62830		7.073442	-2.116482	4.642169	-2.873015	4.179774	-0.148573	-0.684326	0.121094	0.102051	-0.285685	-0.612710	0.272670	-0.684560
62831		2.469806	-6.404939	4.852751	-1.042245	3.243580	-0.225797	-0.726562	0.107910	0.056641	-0.306416	-0.581514	0.268077	-0.704333
62832		-0.312392	-3.313067	0.420062	-0.597478	1.372081	0.082296	-0.747559	0.097168	0.043945	-0.314600	-0.566824	0.268680	-0.712424
62833		0.391688	0.609034	4.024168	-2.595234	0.176250	0.356648	-0.746338	0.067139	0.025391	-0.330257	-0.553599	0.293529	-0.705903
62834		-1.144968	-1.164702	3.997998	-2.890107	-0.012025	0.154691	-0.745117	0.037354	0.011475	-0.348635	-0.540898	0.319988	-0.695335
62835		1.182198	-2.306474	5.485025	-0.538986	0.029777	-0.022099	-0.745117	0.035156	0.018066	-0.352572	-0.538419	0.324406	-0.693223
62836		0.923524	-1.073487	4.928311	0.772808	0.117143	-0.002832	-0.751953	0.047852	0.017578	-0.347823	-0.540848	0.317161	-0.697073
62837		-0.380161	0.168958	3.463536	1.154263	0.131250	-0.045904	-0.752441	0.060791	0.017090	-0.340854	-0.544902	0.306173	-0.702252
62838		0.354462	1.197399	3.592992	0.557321	0.007123	0.005733	-0.748291	0.060791	0.021484	-0.336963	-0.547236	0.301249	-0.704441
62839		-0.038407	-0.259741	4.105856	0.379685	-0.086449	0.001541	-0.748535	0.071533	0.023193	-0.333944	-0.549644	0.298225	-0.705291
62840		0.080805	-1.609399	4.128251	0.965639	-0.198142	-0.065783	-0.746582	0.077881	0.027344	-0.327030	-0.555685	0.289995	-0.707226
62841		-0.135465	-0.467621	3.459675	1.679493	-0.436320	-0.124083	-0.740967	0.097168	0.041748	-0.314694	-0.566783	0.275916	-0.709644
62842		-6.221941	-2.735144	-11.089342	2.619733	-2.357203	0.127372	-0.697510	0.131592	0.092773	-0.286458	-0.597055	0.262484	-0.701833
62843		26.932918	5.502162	4.506390	-0.660595	-3.656000	0.928609	-0.645508	0.114990	0.130615	-0.270849	-0.623075	0.287937	-0.674915
62844		19.277219	-19.590920	5.769935	0.301531	-2.511662	0.160085	-0.610107	0.138672	0.160400	-0.257887	-0.644453	0.294914	-0.656658
62845		51.773229	1.673613	8.363848	3.909710	-1.609160	-0.417168	-0.580322	0.203125	0.188477	-0.223452	-0.670918	0.264195	-0.655850
62846		6.380291	-3.756624	-22.747330	4.143815	-1.526668	-0.843899	-0.558838	0.260986	0.197021	-0.190122	-0.696760	0.226894	-0.653374
62847		-3.649723	15.923573	-20.011295	1.534988	0.656847	-0.251919	-0.573975	0.265381	0.185791	-0.180593	-0.695639	0.210550	-0.662678
62848		19.529652	5.550335	-8.304015	-5.435402	1.191561	0.321663	-0.594482	0.179443	0.171875	-0.227845	-0.671040	0.255146	-0.657794
62849		9.894348	-9.575045	-3.348224	-1.231636	2.211314	0.096841	-0.632568	0.170654	0.150391	-0.244323	-0.648773	0.259679	-0.672285
62850		5.890061	-0.258955	2.530798	1.532377	2.347165	0.025814	-0.669678	0.185303	0.121094	-0.239184	-0.633306	0.239755	-0.695868
62851		4.828576	-0.143439	5.774282	-1.266413	1.818684	0.016596	-0.694336	0.163818	0.102295	-0.254453	-0.613469	0.245427	-0.706170
62852		7.146822	-4.131550	7.780507	-1.926173	1.306433	0.151669	-0.712646	0.135742	0.079590	-0.271794	-0.595146	0.259362	-0.710395
62853		9.697998	-5.284857	7.417765	-0.393193	0.991650	0.057236	-0.719238	0.140137	0.068359	-0.277393	-0.584821	0.259902	-0.716581
62854		10.429745	-1.051400	5.621565	1.574064	0.648652	-0.051047	-0.736816	0.156982	0.058838	-0.268365	-0.584553	0.243128	-0.726063
62855		9.974917	0.956587	3.491451	1.660140	0.286812	-0.105518	-0.739990	0.180664	0.057861	-0.257969	-0.587759	0.226266	-0.732663
62856		9.759459	1.342064	2.334475	1.006637	0.155974	-0.030124	-0.746826	0.191162	0.055420	-0.251226	-0.589664	0.216285	-0.736480
62857		9.915167	1.470395	1.751389	-0.150404	0.116018	0.031540	-0.744385	0.182617	0.055664	-0.252311	-0.588090	0.217510	-0.737007
62858		9.812743	-0.547051	1.326755	-0.812158	0.148821	0.046917	-0.746094	0.171875	0.056152	-0.258192	-0.584053	0.224825	-0.735984
62859		9.630480	-2.043834	1.718603	-0.452618	0.226899	-0.003595	-0.754639	0.174072	0.047363	-0.262117	-0.580558	0.228200	-0.736323
62860		9.354428	-1.216471	2.739966	-0.045355	0.269829	-0.054294	-0.750000	0.163330	0.047607	-0.263675	-0.578130	0.227320	-0.737948
62861		9.369314	-0.473361	3.447423	-0.281780	0.213420	-0.037205	-0.754395	0.163330	0.043457	-0.266618	-0.575385	0.228928	-0.738539
62862		9.636448	-0.874249	3.304884	-0.307457	0.144221	-0.035643	-0.756104	0.156982	0.045654	-0.269524	-0.573177	0.231006	-0.738553
62863		9.818348	-0.735098	2.856194	-0.109920	0.053080	-0.033625	-0.758545	0.161133	0.045654	-0.270728	-0.572464	0.231578	-0.738487
62864		9.678410	-0.872517	2.608871	-0.126330	-0.018487	-0.043622	-0.756104	0.156982	0.034912	-0.271932	-0.572384	0.232471	-0.737826
62865		9.736567	-0.498200	2.361681	-0.084657	0.017040	-0.052695	-0.758301	0.154785	0.039307	-0.273024	-0.572141	0.232794	-0.737509
62866		9.623178	-0.260580	2.351884	-0.218912	0.059083	-0.049518	-0.760010	0.141846	0.041992	-0.275169	-0.571041	0.234234	-0.737108
62867		9.588090	-0.697757	2.662072	-0.192759	0.051230	-0.037997	-0.758057	0.152588	0.030762	-0.276996	-0.570066	0.235541	-0.736763
62868		9.773563	-1.100465	2.699386	0.014060	0.056796	-0.041509	-0.766357	0.144043	0.035400	-0.277396	-0.569763	0.234898	-0.737051
62869		9.745477	-0.504372	2.506869	0.087207	0.118444	-0.041445	-0.762207	0.144043	0.035400	-0.277456	-0.569143	0.233368	-0.737993
62870		9.769292	0.230619	2.230316	-0.113139	0.147024	-0.036363	-0.761963	0.139893	0.033447	-0.278976	-0.567548	0.233624	-0.738568
62871		9.759617	-0.100193	2.229885	-0.187549	0.100674	-0.017464	-0.768311	0.139648	0.031250	-0.280713	-0.566062	0.234860	-0.738657
62872		9.835771	-0.682111	2.450325	-0.148524	0.125364	-0.032250	-0.768311	0.139648	0.026855	-0.282381	-0.564526	0.235543	-0.738979
62873		9.722668	-0.598445	2.773956	-0.050483	0.142239	-0.045532	-0.768311	0.139648	0.024658	-0.283530	-0.563216	0.235168	-0.739658
62874		9.663787	-0.358754	2.804286	-0.136444	0.146046	-0.046637	-0.768066	0.133301	0.020508	-0.285303	-0.561567	0.235566	-0.740103
62875		9.677630	-0.333410	2.851856	-0.261489	0.138860	-0.038807	-0.767822	0.126953	0.020752	-0.287857	-0.559509	0.237199	-0.740152
62876		9.737612	-0.445070	2.877901	-0.231074	0.115633	-0.039731	-0.770020	0.124756	0.020996	-0.290134	-0.557772	0.238623	-0.740116
62877		9.756819	-0.366105	2.973685	-0.120072	0.079494	-0.043893	-0.776123	0.120361	0.012207	-0.291565	-0.556780	0.239121	-0.740140
62878		9.752594	-0.310900	2.935192	-0.069399	0.057161	-0.042285	-0.773682	0.111816	0.014893	-0.292559	-0.556173	0.239241	-0.740165
62879		9.707664	-0.303237	3.019476	-0.107012	0.046697	-0.039304	-0.780273	0.114014	0.014648	-0.293755	-0.555515	0.239767	-0.740015
62880		9.717505	-0.338685	3.014256	-0.119622	0.036851	-0.030418	-0.771729	0.118408	0.012451	-0.294925	-0.554875	0.240505	-0.739791
62881		9.744996	-0.310776	2.929373	-0.104310	0.024852	-0.025359	-0.775879	0.114014	0.014648	-0.295904	-0.554385	0.241180	-0.739547
62882		9.753263	-0.316966	2.855869	-0.100081	0.023552	-0.020522	-0.775879	0.116211	0.014648	-0.296804	-0.553907	0.241853	-0.739325
62883		9.755865	-0.309611	2.870291	-0.032511	0.009044	-0.016639	-0.775635	0.109863	0.010498	-0.297155	-0.553802	0.241982	-0.739220
62884		9.775453	-0.248763	2.824585	-0.054701	0.011429	-0.016306	-0.773682	0.111816	0.010498	-0.297664	-0.553592	0.242308	-0.739066
62885		9.742387	-0.145295	2.765261	-0.120331	0.020828	-0.005513	-0.782227	0.107422	0.014893	-0.298555	-0.553017	0.243280	-0.738818
62886		9.729520	-0.270851	2.809661	-0.179881	0.027741	0.000036	-0.779785	0.105469	0.008545	-0.299826	-0.552137	0.244814	-0.738455
62887		9.776233	-0.469042	2.893074	-0.104283	0.030698	-0.010542	-0.779785	0.105469	0.012939	-0.300681	-0.551544	0.245564	-0.738301
62888		9.720575	-0.261444	3.006548	-0.059958	0.019349	-0.009187	-0.777588	0.103271	0.010742	-0.301183	-0.551217	0.245957	-0.738210
62889		9.735191	-0.210594	3.000974	-0.103749	0.000136	-0.005544	-0.775391	0.099121	0.010986	-0.301892	-0.550891	0.246851	-0.737865
62890		9.753691	-0.221056	2.925751	-0.122020	-0.015105	0.001935	-0.775391	0.103271	0.008545	-0.302609	-0.550613	0.248020	-0.737387
62891		9.734368	-0.301672	2.853186	-0.098374	-0.034820	0.005479	-0.773193	0.099121	0.004395	-0.303068	-0.550594	0.249069	-0.736859
62892		9.750222	-0.355026	2.828182	-0.013496	-0.043759	0.000232	-0.775391	0.101318	0.010986	-0.302963	-0.550995	0.249333	-0.736513
62893		9.744043	-0.245757	2.807476	0.000841	-0.048305	0.003027	-0.775391	0.099121	0.010986	-0.302719	-0.551483	0.249501	-0.736191
62894		9.738549	-0.259049	2.856693	-0.015086	-0.058231	0.004051	-0.769043	0.101318	0.010986	-0.302545	-0.551999	0.249860	-0.735754
62895		9.763121	-0.241686	2.813222	-0.011209	-0.064720	0.010757	-0.766602	0.094971	0.015625	-0.302260	-0.552568	0.250252	-0.735310
62896		9.720194	-0.285859	2.814078	0.011431	-0.070033	0.010675	-0.773193	0.101318	0.017578	-0.301803	-0.553271	0.250456	-0.734900
62897		9.742420	-0.314206	2.742087	0.074446	-0.071083	0.006848	-0.766846	0.099121	0.017578	-0.300941	-0.554233	0.250057	-0.734665
62898		9.759530	-0.276351	2.673809	0.112820	-0.070690	0.004882	-0.773193	0.099121	0.015381	-0.299831	-0.555340	0.249289	-0.734543
62899		9.805756	-0.154000	2.677203	0.079552	-0.060271	0.018200	-0.767090	0.105469	0.019531	-0.298862	-0.556185	0.248880	-0.734438
62900		9.744996	-0.316782	2.578757	0.082726	-0.054662	0.022793	-0.767090	0.105469	0.017334	-0.297846	-0.556975	0.248451	-0.734397
62901		9.755659	-0.289201	2.539441	0.105184	-0.034181	0.018058	-0.762939	0.107666	0.025879	-0.296779	-0.557674	0.247706	-0.734550
62902		9.731526	-0.164865	2.561040	0.050336	-0.023395	0.030729	-0.771240	0.105469	0.023926	-0.296013	-0.558030	0.247514	-0.734654
62903		9.759402	-0.378115	2.531613	0.029009	-0.020795	0.031819	-0.771484	0.107666	0.021484	-0.295392	-0.558280	0.247514	-0.734713
62904		9.774576	-0.309835	2.587676	0.082159	-0.006802	0.027671	-0.764893	0.105469	0.019531	-0.294483	-0.558611	0.246946	-0.735018
62905		9.734288	-0.323912	2.643897	0.069490	-0.001072	0.033723	-0.769287	0.109863	0.021484	-0.293624	-0.558822	0.246516	-0.735345
62906		9.715534	-0.473069	2.629326	0.068818	0.003737	0.028653	-0.769775	0.118408	0.025391	-0.292830	-0.559002	0.246038	-0.735685
62907		9.690621	-0.419621	2.627943	0.075677	0.003344	0.022886	-0.760986	0.114258	0.023438	-0.292040	-0.559228	0.245457	-0.736021
62908		9.677855	-0.413211	2.662385	0.020953	0.001935	0.021324	-0.767578	0.120605	0.023193	-0.291642	-0.559272	0.245375	-0.736173
62909		9.697182	-0.381298	2.683104	0.008021	-0.004430	0.019056	-0.767578	0.118408	0.027588	-0.291336	-0.559334	0.245418	-0.736233
62910		9.733831	-0.420364	2.650390	0.024995	-0.006291	0.015097	-0.765381	0.118408	0.023438	-0.290942	-0.559486	0.245285	-0.736317
62911		9.750961	-0.451916	2.561749	0.088028	-0.000659	0.008340	-0.767578	0.120361	0.027588	-0.290185	-0.559837	0.244503	-0.736610
62912		9.754567	-0.390367	2.504564	0.058788	0.015298	0.008161	-0.765381	0.118408	0.027588	-0.289684	-0.559934	0.243931	-0.736922
62913		9.716525	-0.353781	2.558276	0.007205	0.026553	0.013567	-0.767578	0.120605	0.023193	-0.289529	-0.559724	0.243832	-0.737176
62914		9.718522	-0.404107	2.596097	-0.012009	0.029936	0.015824	-0.765381	0.120605	0.020996	-0.289497	-0.559407	0.243913	-0.737402
62915		9.727981	-0.440249	2.639907	0.005560	0.035399	0.012882	-0.771729	0.118408	0.021240	-0.289386	-0.559111	0.243793	-0.737709
62916		9.713232	-0.395068	2.645869	-0.004342	0.037816	0.012192	-0.769775	0.118408	0.019043	-0.289359	-0.558760	0.243750	-0.738001
62917		9.754481	-0.392591	2.644211	-0.021395	0.040627	0.013712	-0.769775	0.122559	0.016602	-0.289445	-0.558316	0.243865	-0.738265
62918		9.755928	-0.364082	2.613361	-0.019919	0.046816	0.005703	-0.767334	0.116211	0.016846	-0.289612	-0.557844	0.243888	-0.738548
62919		9.769447	-0.450249	2.591401	0.008900	0.055891	0.001799	-0.769775	0.120605	0.014404	-0.289645	-0.557405	0.243585	-0.738967
62920		9.774699	-0.399785	2.508724	0.019400	0.074005	-0.000394	-0.771729	0.118408	0.021240	-0.289677	-0.556843	0.243104	-0.739536
62921		9.815374	-0.357648	2.399301	0.012842	0.104174	-0.000516	-0.771973	0.120605	0.012451	-0.289851	-0.555977	0.242576	-0.740292
62922		9.808707	-0.292513	2.375484	-0.014183	0.147056	0.007387	-0.776123	0.118408	0.012451	-0.290267	-0.554592	0.242196	-0.741292
62923		9.838523	-0.283345	2.411160	-0.041315	0.189191	0.015584	-0.780273	0.118164	0.016846	-0.290925	-0.552691	0.241973	-0.742526
62924		9.864103	-0.328720	2.382117	-0.025082	0.237827	0.019335	-0.775879	0.116211	0.005859	-0.291582	-0.550382	0.241448	-0.744152
62925		9.834124	-0.161767	2.374969	-0.055314	0.294513	0.032764	-0.789062	0.122559	0.001221	-0.292491	-0.547390	0.241089	-0.746116
62926		9.872228	-0.138881	2.409908	-0.129296	0.355815	0.053947	-0.788818	0.115967	-0.000732	-0.293891	-0.543481	0.241338	-0.748340
62927		9.854797	-0.258344	2.532000	-0.162361	0.414471	0.068260	-0.795166	0.118164	-0.009521	-0.295552	-0.538845	0.241774	-0.750893
62928		9.812436	-0.250121	2.839478	-0.158420	0.459566	0.079810	-0.797119	0.114014	-0.018066	-0.297207	-0.533748	0.242077	-0.753777
62929		9.776224	-0.192394	3.333097	-0.194514	0.469802	0.091908	-0.805908	0.118164	-0.022461	-0.299009	-0.528363	0.242755	-0.756635
62930		9.598571	-0.433061	3.850769	-0.234057	0.437805	0.105620	-0.809814	0.109619	-0.035400	-0.300834	-0.523070	0.244007	-0.759182
62931		9.621549	-0.726765	4.322597	-0.121818	0.368464	0.099438	-0.816406	0.113770	-0.033203	-0.301759	-0.518859	0.244404	-0.761573
62932		9.493322	-0.958401	4.666336	0.027993	0.263874	0.081251	-0.816406	0.115967	-0.041992	-0.301558	-0.516255	0.243645	-0.763662
62933		9.551987	-1.090618	4.844192	0.179854	0.140096	0.051589	-0.820801	0.113770	-0.039795	-0.300276	-0.515490	0.241705	-0.765300
62934		9.637806	-0.915409	4.569318	0.222867	0.038373	0.024813	-0.818848	0.120117	-0.044434	-0.298657	-0.515935	0.239557	-0.766308
62935		9.753426	-0.775880	4.105995	0.118891	-0.023320	0.005634	-0.816650	0.122314	-0.042480	-0.297704	-0.516637	0.238508	-0.766533
62936		9.773616	-0.665976	3.726865	0.060779	-0.049371	-0.002570	-0.818848	0.118164	-0.040039	-0.297124	-0.517395	0.238058	-0.766386
62937		9.811632	-0.537446	3.368221	0.047938	-0.041646	-0.009234	-0.823242	0.124512	-0.040283	-0.296715	-0.518051	0.237659	-0.766226
62938		9.827638	-0.414604	3.255836	-0.008971	-0.009684	-0.005678	-0.818848	0.120117	-0.040039	-0.296736	-0.518179	0.237710	-0.766115
62939		9.758641	-0.438312	3.363295	-0.049957	0.017491	0.003111	-0.816650	0.120361	-0.044434	-0.297021	-0.517870	0.238112	-0.766089
62940		9.785966	-0.479079	3.527125	-0.049660	0.031946	0.008412	-0.818848	0.120117	-0.042236	-0.297297	-0.517407	0.238492	-0.766176
62941		9.791906	-0.504073	3.627455	-0.061716	0.035996	0.016528	-0.823242	0.120117	-0.037842	-0.297587	-0.516836	0.239026	-0.766283
62942		9.784034	-0.619059	3.730007	-0.036634	0.031327	0.015111	-0.821045	0.120117	-0.042236	-0.297714	-0.516407	0.239327	-0.766428
62943		9.770739	-0.663083	3.821580	-0.022662	0.021456	0.012757	-0.821045	0.120117	-0.040039	-0.297744	-0.516132	0.239517	-0.766543
62944		9.793540	-0.703502	3.783802	-0.000279	0.007021	0.008919	-0.816895	0.126709	-0.042480	-0.297622	-0.516090	0.239520	-0.766617
62945		9.784098	-0.589235	3.705416	0.019883	0.002611	0.000658	-0.825195	0.120117	-0.040039	-0.297437	-0.516190	0.239293	-0.766693
62946		9.784682	-0.479329	3.645132	0.027369	0.003209	0.002474	-0.819092	0.124512	-0.042480	-0.297188	-0.516306	0.239004	-0.766801
62947		9.807092	-0.466469	3.591440	0.031181	0.001724	0.005079	-0.816650	0.120117	-0.040039	-0.296884	-0.516444	0.238701	-0.766921
62948		9.781143	-0.548039	3.593565	0.037456	0.006867	0.013265	-0.820801	0.118164	-0.042236	-0.296478	-0.516530	0.238372	-0.767122
62949		9.815030	-0.581176	3.602344	0.081180	0.011531	0.014701	-0.816650	0.122314	-0.044434	-0.295790	-0.516730	0.237615	-0.767488
62950		9.795899	-0.569556	3.655290	0.046519	0.016218	0.014774	-0.823242	0.120117	-0.040039	-0.295340	-0.516756	0.237174	-0.767780
62951		9.821567	-0.666551	3.617891	0.074011	0.022537	0.010562	-0.819092	0.124512	-0.044678	-0.294771	-0.516835	0.236419	-0.768178
62952		9.792721	-0.541627	3.695035	0.058631	0.024613	0.010678	-0.823486	0.128662	-0.042725	-0.294307	-0.516836	0.235806	-0.768544
62953		9.796704	-0.675763	3.698203	0.089630	0.020227	0.008705	-0.819092	0.124512	-0.042480	-0.293649	-0.516999	0.234897	-0.768964
62954		9.752673	-0.570433	3.733687	0.079342	0.018666	0.005936	-0.816895	0.124512	-0.040283	-0.293079	-0.517147	0.234076	-0.769333
62955		9.780260	-0.566461	3.763971	0.021815	0.008951	0.006344	-0.823242	0.126709	-0.044678	-0.292849	-0.517176	0.233845	-0.769471
62956		9.752230	-0.615699	3.753400	-0.010618	0.001744	0.004532	-0.818848	0.122314	-0.042480	-0.292824	-0.517160	0.233942	-0.769461
62957		9.816087	-0.579030	3.696120	0.022069	-0.005017	0.002469	-0.825439	0.124512	-0.040283	-0.292589	-0.517336	0.233735	-0.769496
62958		9.810504	-0.586615	3.644036	0.030848	-0.003957	0.001232	-0.823242	0.122314	-0.042480	-0.292311	-0.517537	0.233432	-0.769558
62959		9.746589	-0.616283	3.671839	0.023109	-0.002741	0.003374	-0.816895	0.128906	-0.044922	-0.292068	-0.517691	0.233214	-0.769612
62960		9.777177	-0.643989	3.682173	0.001337	-0.003883	0.005362	-0.821289	0.128662	-0.047119	-0.291943	-0.517772	0.233222	-0.769603
62961		9.790791	-0.615281	3.607506	-0.010026	-0.000373	0.003425	-0.819336	0.130859	-0.040527	-0.291921	-0.517783	0.233315	-0.769576
62962		9.789683	-0.542681	3.591941	-0.030429	0.004921	0.003295	-0.816895	0.126709	-0.044678	-0.292048	-0.517668	0.233584	-0.769523
62963		9.809626	-0.587313	3.615463	-0.033752	0.012060	0.004404	-0.823242	0.124512	-0.044678	-0.292208	-0.517470	0.233867	-0.769510
62964		9.782909	-0.627219	3.691030	-0.012112	0.012156	0.002314	-0.823486	0.128662	-0.040527	-0.292249	-0.517356	0.233929	-0.769552
62965		9.796457	-0.595201	3.676740	-0.005290	0.012342	0.001820	-0.819092	0.128662	-0.036133	-0.292251	-0.517267	0.233921	-0.769614
62966		9.788059	-0.596721	3.673063	-0.013080	0.012293	0.002260	-0.825439	0.124512	-0.042480	-0.292299	-0.517148	0.233991	-0.769654
62967		9.793490	-0.625705	3.683878	-0.004717	0.011706	0.003992	-0.825439	0.126465	-0.042480	-0.292275	-0.517061	0.233995	-0.769721
62968		9.793358	-0.585170	3.684523	0.000432	0.011621	0.001169	-0.821045	0.124512	-0.046875	-0.292246	-0.517001	0.233931	-0.769791
62969		9.805332	-0.621270	3.673942	0.001130	0.012029	0.003452	-0.823486	0.126465	-0.040283	-0.292191	-0.516934	0.233875	-0.769875
62970		9.809729	-0.606313	3.699502	0.013868	0.011169	0.001671	-0.823486	0.130859	-0.044922	-0.292069	-0.516926	0.233688	-0.769983
62971		9.761118	-0.623909	3.726364	0.002922	0.014035	-0.001584	-0.823242	0.122314	-0.033691	-0.292058	-0.516861	0.233574	-0.770065
62972		9.793073	-0.624235	3.722058	0.001515	0.009775	-0.003664	-0.821289	0.126709	-0.042480	-0.292064	-0.516837	0.233477	-0.770108
62973		9.800515	-0.582040	3.728558	-0.002067	0.007602	-0.001908	-0.823242	0.124512	-0.040283	-0.292069	-0.516816	0.233433	-0.770134
62974		9.770057	-0.624051	3.706020	-0.016122	0.006275	-0.005463	-0.825439	0.122314	-0.038086	-0.292196	-0.516767	0.233508	-0.770096
62975		9.784084	-0.604573	3.690700	-0.017471	0.004427	-0.006677	-0.825439	0.124512	-0.044678	-0.292339	-0.516734	0.233594	-0.770037
62976		9.800365	-0.604399	3.687827	-0.009850	0.003316	-0.009750	-0.819092	0.124512	-0.044678	-0.292458	-0.516749	0.233591	-0.769983
62977		9.791526	-0.575620	3.697151	-0.025504	0.003435	-0.007307	-0.814697	0.122314	-0.042480	-0.292655	-0.516699	0.233754	-0.769892
62978		9.794452	-0.574415	3.737488	-0.035078	0.002068	-0.009336	-0.823242	0.122314	-0.035889	-0.292932	-0.516632	0.234002	-0.769756
62979		9.769665	-0.630067	3.736621	-0.027234	-0.003841	-0.007210	-0.821045	0.124512	-0.042480	-0.293122	-0.516644	0.234212	-0.769612
62980		9.794976	-0.569444	3.706368	-0.006982	-0.007872	-0.008790	-0.823242	0.124512	-0.046875	-0.293179	-0.516775	0.234228	-0.769498
62981		9.823065	-0.578080	3.645700	-0.003536	-0.007886	-0.009823	-0.821045	0.124512	-0.044678	-0.293224	-0.516922	0.234203	-0.769389
62982		9.762872	-0.553682	3.652321	-0.016088	-0.005180	-0.012903	-0.816650	0.120117	-0.035645	-0.293391	-0.517005	0.234272	-0.769249
62983		9.787354	-0.572995	3.682925	-0.034972	-0.006537	-0.009263	-0.821045	0.124512	-0.044678	-0.293651	-0.517020	0.234558	-0.769053
62984		9.804404	-0.586886	3.677813	-0.009286	-0.008430	-0.010901	-0.822998	0.120117	-0.044434	-0.293738	-0.517155	0.234582	-0.768921
62985		9.777503	-0.563265	3.676561	-0.006215	-0.010423	-0.013102	-0.821289	0.124512	-0.035889	-0.293828	-0.517326	0.234574	-0.768774
62986		9.790594	-0.555035	3.675063	-0.023341	-0.009441	-0.010367	-0.818848	0.120117	-0.037842	-0.294012	-0.517415	0.234750	-0.768590
62987		9.772278	-0.575578	3.664807	-0.031734	-0.013574	-0.011352	-0.825195	0.120117	-0.035889	-0.294245	-0.517516	0.235014	-0.768352
62988		9.780911	-0.574395	3.667788	-0.012087	-0.013162	-0.013474	-0.818848	0.120117	-0.044434	-0.294374	-0.517691	0.235075	-0.768166
62989		9.796954	-0.538895	3.647346	-0.018482	-0.014008	-0.014306	-0.825439	0.122314	-0.042480	-0.294534	-0.517857	0.235182	-0.767960
62990		9.799148	-0.562068	3.701431	-0.023626	-0.016678	-0.016504	-0.816895	0.124512	-0.040283	-0.294746	-0.518035	0.235339	-0.767711
62991		9.760473	-0.553187	3.668486	-0.013879	-0.021807	-0.017652	-0.822998	0.117920	-0.042236	-0.294891	-0.518302	0.235415	-0.767452
62992		9.792837	-0.496042	3.686135	-0.045514	-0.024900	-0.015678	-0.822998	0.117920	-0.042236	-0.295220	-0.518474	0.235822	-0.767084
62993		9.770859	-0.552693	3.678021	-0.070241	-0.031463	-0.013319	-0.818848	0.120117	-0.042236	-0.295665	-0.518610	0.236504	-0.766610
62994		9.732471	-0.559400	3.715139	-0.072303	-0.036223	-0.020322	-0.818604	0.113770	-0.041992	-0.296168	-0.518807	0.237172	-0.766076
62995		9.745286	-0.526805	3.737024	-0.088271	-0.051035	-0.015170	-0.822754	0.109375	-0.039795	-0.296692	-0.519069	0.238089	-0.765412
62996		9.783141	-0.586580	3.715868	-0.076239	-0.068895	-0.017025	-0.816406	0.111572	-0.039795	-0.297117	-0.519547	0.238954	-0.764652
62997		9.783034	-0.539878	3.660243	-0.044099	-0.078858	-0.024573	-0.813965	0.107422	-0.037354	-0.297356	-0.520265	0.239486	-0.763904
62998		9.835569	-0.500055	3.530387	-0.035284	-0.080370	-0.028338	-0.814209	0.109619	-0.031006	-0.297580	-0.521039	0.239923	-0.763152
62999		9.803120	-0.408485	3.406875	-0.023061	-0.075697	-0.030555	-0.813965	0.107422	-0.041748	-0.297769	-0.521818	0.240219	-0.762453
63000		9.796446	-0.418808	3.359843	-0.038968	-0.066558	-0.025886	-0.807861	0.111816	-0.031006	-0.297991	-0.522448	0.240621	-0.761808
63001		9.796139	-0.428995	3.395524	-0.046103	-0.053812	-0.018946	-0.809814	0.107422	-0.030762	-0.298260	-0.522902	0.241113	-0.761235
63002		9.780212	-0.455046	3.421109	-0.049374	-0.046613	-0.015216	-0.809814	0.105225	-0.037354	-0.298550	-0.523262	0.241641	-0.760707
63003		9.791826	-0.414178	3.415472	-0.048935	-0.037520	-0.013852	-0.807861	0.109619	-0.031006	-0.298816	-0.523540	0.242111	-0.760261
63004		9.808422	-0.437157	3.391079	-0.056729	-0.034814	-0.009337	-0.805420	0.103271	-0.028564	-0.299109	-0.523747	0.242686	-0.759820
63005		9.780891	-0.472639	3.402794	-0.045663	-0.032181	-0.010878	-0.805420	0.105225	-0.032959	-0.299394	-0.523966	0.243165	-0.759403
63006		9.793493	-0.492758	3.413746	-0.022753	-0.026924	-0.014801	-0.809570	0.098877	-0.032715	-0.299532	-0.524244	0.243344	-0.759100
63007		9.790574	-0.464514	3.383001	-0.028476	-0.026050	-0.012550	-0.812012	0.105225	-0.028564	-0.299728	-0.524476	0.243615	-0.758775
63008		9.814015	-0.429781	3.366936	-0.034715	-0.019995	-0.014762	-0.805176	0.096680	-0.036865	-0.299991	-0.524637	0.243902	-0.758468
63009		9.779825	-0.436106	3.358928	-0.040764	-0.013973	-0.013488	-0.805176	0.101074	-0.028320	-0.300280	-0.524719	0.244212	-0.758197
63010		9.795539	-0.463326	3.368763	-0.031525	-0.012339	-0.013343	-0.807617	0.105225	-0.030762	-0.300546	-0.524812	0.244459	-0.757947
63011		9.800885	-0.421060	3.405176	-0.039050	-0.006606	-0.010925	-0.811768	0.103027	-0.028564	-0.300814	-0.524825	0.244740	-0.757741
63012		9.776230	-0.457073	3.373104	-0.054707	-0.005438	-0.012767	-0.807373	0.101074	-0.032715	-0.301238	-0.524766	0.245176	-0.757473
63013		9.775258	-0.430522	3.387880	-0.057494	-0.001681	-0.014412	-0.811768	0.103027	-0.030762	-0.301683	-0.524672	0.245595	-0.757225
63014		9.823771	-0.398076	3.346356	-0.050747	0.003287	-0.015593	-0.805176	0.096680	-0.028320	-0.302116	-0.524558	0.245929	-0.757023
63015		9.794107	-0.371502	3.321363	-0.056340	0.009908	-0.013896	-0.807373	0.096680	-0.032471	-0.302637	-0.524344	0.246336	-0.756831
63016		9.815238	-0.372812	3.343311	-0.048735	0.016369	-0.010070	-0.804932	0.094727	-0.032471	-0.303060	-0.524093	0.246646	-0.756734
63017		9.830537	-0.346727	3.342715	-0.032288	0.017786	-0.006583	-0.804932	0.094727	-0.034668	-0.303356	-0.523879	0.246825	-0.756706
63018		9.803098	-0.374676	3.362495	-0.011776	0.024329	-0.002466	-0.805176	0.096680	-0.030518	-0.303484	-0.523671	0.246801	-0.756806
63019		9.797269	-0.415879	3.402733	-0.001997	0.025304	-0.000095	-0.807129	0.092529	-0.034668	-0.303549	-0.523479	0.246713	-0.756941
63020		9.790679	-0.395951	3.413899	-0.017567	0.026532	0.000563	-0.809326	0.096680	-0.028320	-0.303711	-0.523215	0.246768	-0.757041
63021		9.782088	-0.405064	3.442172	-0.030738	0.025784	0.003342	-0.804932	0.092529	-0.034668	-0.303949	-0.522896	0.246986	-0.757095
63022		9.798074	-0.408812	3.427260	-0.019133	0.024289	0.006485	-0.809326	0.094482	-0.030273	-0.304054	-0.522630	0.247100	-0.757199
63023		9.788720	-0.397520	3.426420	-0.000436	0.023590	0.007074	-0.809082	0.090332	-0.036621	-0.304050	-0.522435	0.247061	-0.757348
63024		9.812166	-0.386260	3.418041	-0.005085	0.026515	0.008691	-0.809082	0.090332	-0.030273	-0.304051	-0.522195	0.247048	-0.757518
63025		9.785741	-0.416442	3.422423	-0.008486	0.027648	0.008901	-0.811523	0.096680	-0.036865	-0.304112	-0.521922	0.247094	-0.757666
63026		9.790322	-0.460275	3.435881	0.004978	0.025820	0.009626	-0.813721	0.094482	-0.034668	-0.304007	-0.521730	0.246974	-0.757879
63027		9.781073	-0.406353	3.435478	0.016285	0.028055	0.008495	-0.807129	0.094727	-0.036865	-0.303877	-0.521557	0.246754	-0.758122
63028		9.798642	-0.394161	3.405203	0.005824	0.031700	0.007237	-0.813477	0.092529	-0.032471	-0.303821	-0.521317	0.246598	-0.758360
63029		9.795818	-0.396222	3.413081	-0.003281	0.032522	0.010468	-0.811523	0.098877	-0.037109	-0.303844	-0.521015	0.246582	-0.758565
63030		9.798353	-0.412577	3.444238	0.008959	0.030154	0.014219	-0.811279	0.092529	-0.039062	-0.303684	-0.520783	0.246439	-0.758834
63031		9.795431	-0.453808	3.525227	0.057320	0.021933	0.015447	-0.809570	0.098877	-0.037109	-0.303199	-0.520803	0.245894	-0.759191
63032		9.780264	-0.469276	3.545010	0.137941	0.001435	0.015209	-0.809570	0.101074	-0.039307	-0.302110	-0.521327	0.244648	-0.759668
63033		9.785600	-0.410068	3.539711	0.182617	-0.009999	0.010757	-0.811768	0.101074	-0.037109	-0.300712	-0.522146	0.242973	-0.760198
63034		9.795816	-0.434937	3.601398	0.215411	-0.028500	0.009817	-0.812012	0.109619	-0.033203	-0.299072	-0.523257	0.241065	-0.760687
63035		9.769561	-0.417207	3.569493	0.228361	-0.040050	0.004746	-0.807617	0.107422	-0.030762	-0.297337	-0.524543	0.239028	-0.761125
63036		9.777428	-0.420443	3.557397	0.200549	-0.040565	0.006854	-0.807617	0.109619	-0.033203	-0.295786	-0.525715	0.237289	-0.761465
63037		9.783884	-0.449973	3.517795	0.148607	-0.036731	0.011637	-0.805420	0.107422	-0.030762	-0.294501	-0.526649	0.236030	-0.761708
63038		9.768922	-0.490278	3.487987	0.128602	-0.036282	0.015648	-0.805908	0.113770	-0.024658	-0.293342	-0.527485	0.235009	-0.761893
63039		9.811923	-0.472280	3.405405	0.144219	-0.033591	0.014454	-0.805664	0.111816	-0.026611	-0.292105	-0.528353	0.233832	-0.762129
63040		9.805043	-0.391702	3.377707	0.085266	-0.025294	0.020373	-0.805908	0.118164	-0.024658	-0.291219	-0.528909	0.233217	-0.762271
63041		9.808348	-0.493140	3.389420	0.075779	-0.023961	0.023384	-0.803711	0.115967	-0.024658	-0.290338	-0.529415	0.232686	-0.762418
63042		9.785359	-0.518803	3.385266	0.096584	-0.010538	0.022080	-0.803955	0.120361	-0.018311	-0.289385	-0.529869	0.231909	-0.762701
63043		9.786962	-0.485531	3.455313	0.078398	-0.015220	0.025576	-0.803955	0.124512	-0.024902	-0.288540	-0.530284	0.231377	-0.762895
63044		9.787942	-0.500453	3.452588	0.040340	-0.019433	0.025608	-0.808105	0.118164	-0.026855	-0.287822	-0.530625	0.231134	-0.763003
63045		9.775146	-0.537713	3.465771	0.015845	-0.019426	0.026204	-0.803955	0.120361	-0.022705	-0.287306	-0.530866	0.231159	-0.763022
63046		9.755689	-0.547873	3.470131	0.027247	-0.025670	0.022983	-0.801758	0.122559	-0.024902	-0.286749	-0.531212	0.231095	-0.763010
63047		9.780673	-0.510266	3.480014	0.008098	-0.032698	0.026610	-0.803955	0.124512	-0.020752	-0.286208	-0.531557	0.231220	-0.762935
63048		9.788174	-0.545191	3.422333	0.029757	-0.042325	0.021651	-0.810303	0.120117	-0.016113	-0.285573	-0.532080	0.231166	-0.762825
63049		9.780548	-0.499446	3.408005	0.024922	-0.044297	0.018975	-0.801758	0.122314	-0.018311	-0.285105	-0.532587	0.231235	-0.762625
63050		9.799144	-0.512141	3.365281	0.000608	-0.044578	0.018986	-0.806152	0.122314	-0.018311	-0.284723	-0.533025	0.231477	-0.762388
63051		9.800402	-0.577050	3.284902	-0.016056	-0.037339	0.019224	-0.806152	0.120361	-0.016113	-0.284469	-0.533334	0.231852	-0.762152
63052		9.796433	-0.502848	3.266573	-0.073828	-0.014751	0.018134	-0.801758	0.122559	-0.020508	-0.284725	-0.533215	0.232727	-0.761873
63053		9.800840	-0.537078	3.259563	-0.139070	0.001602	0.018444	-0.806152	0.124512	-0.018555	-0.285356	-0.532729	0.234085	-0.761562
63054		9.774362	-0.577961	3.274680	-0.118393	0.005511	0.015023	-0.801758	0.120361	-0.024902	-0.285904	-0.532286	0.235218	-0.761316
63055		9.803849	-0.562238	3.298511	-0.099990	0.005533	0.014597	-0.801758	0.118164	-0.020264	-0.286286	-0.531920	0.236129	-0.761147
63056		9.784513	-0.551610	3.289601	-0.077412	0.001619	0.008041	-0.801758	0.118164	-0.024658	-0.286675	-0.531666	0.236880	-0.760945
63057		9.765207	-0.540382	3.280794	-0.095702	0.005580	0.011522	-0.806152	0.122314	-0.013916	-0.287092	-0.531314	0.237755	-0.760760
63058		9.790298	-0.585538	3.297059	-0.112670	0.013037	0.006303	-0.801758	0.118164	-0.024658	-0.287815	-0.530819	0.238834	-0.760495
63059		9.804663	-0.553963	3.310162	-0.100528	0.016613	0.003812	-0.803711	0.118164	-0.020264	-0.288367	-0.530367	0.239660	-0.760341
63060		9.782782	-0.540911	3.321351	-0.085399	0.016113	0.002324	-0.797119	0.114014	-0.022461	-0.288915	-0.529959	0.240402	-0.760183
63061		9.777563	-0.587734	3.358588	-0.074833	0.009691	-0.001645	-0.801514	0.114014	-0.022461	-0.289428	-0.529658	0.241049	-0.759993
63062		9.767883	-0.605257	3.369823	-0.047299	0.000201	-0.005266	-0.803467	0.109619	-0.020020	-0.289772	-0.529555	0.241451	-0.759806
63063		9.760939	-0.545701	3.331465	-0.025551	-0.007211	-0.007383	-0.799561	0.120361	-0.024902	-0.290093	-0.529578	0.241752	-0.759572
63064		9.777430	-0.527058	3.295535	-0.032451	-0.012018	-0.007105	-0.801270	0.109619	-0.020020	-0.290128	-0.529696	0.241899	-0.759429
63065		9.783007	-0.521187	3.287214	-0.029198	-0.008141	-0.007410	-0.803711	0.113770	-0.022461	-0.290453	-0.529719	0.242224	-0.759185
63066		9.771363	-0.541555	3.284725	-0.016210	-0.005831	-0.008890	-0.805664	0.109619	-0.028809	-0.290576	-0.529804	0.242303	-0.759054
63067		9.779591	-0.526994	3.289126	-0.018664	-0.004810	-0.008604	-0.803467	0.109619	-0.026611	-0.290655	-0.529884	0.242347	-0.758954
63068		9.784884	-0.497801	3.326619	-0.020697	-0.006739	-0.008015	-0.801270	0.109619	-0.024414	-0.290773	-0.529964	0.242451	-0.758819
63069		9.775638	-0.552026	3.336344	-0.009163	-0.011729	-0.006037	-0.799072	0.107422	-0.020020	-0.290815	-0.530119	0.242506	-0.758677
63070		9.767273	-0.515627	3.313982	0.021599	-0.016056	-0.008189	-0.803467	0.111816	-0.024414	-0.290792	-0.530402	0.242375	-0.758530
63071		9.777072	-0.479692	3.270239	0.010873	-0.016468	-0.003841	-0.805664	0.107422	-0.022217	-0.290594	-0.530686	0.242218	-0.758457
63072		9.780747	-0.498608	3.279211	0.002630	-0.011071	-0.003685	-0.803467	0.105225	-0.017578	-0.290615	-0.530852	0.242233	-0.758328
63073		9.777967	-0.523886	3.311149	0.010434	-0.010909	-0.001636	-0.805664	0.111572	-0.017822	-0.290713	-0.531004	0.242305	-0.758162
63074		9.808190	-0.474300	3.303984	0.024498	-0.012402	-0.002256	-0.799316	0.114014	-0.018066	-0.290566	-0.531259	0.242132	-0.758094
63075		9.768628	-0.507438	3.258866	0.016270	-0.012881	-0.000593	-0.801514	0.111816	-0.020020	-0.290359	-0.531508	0.241977	-0.758049
63076		9.796179	-0.513026	3.270289	0.016312	-0.010476	0.000322	-0.803467	0.105225	-0.017578	-0.290148	-0.531732	0.241811	-0.758025
63077		9.787872	-0.511433	3.278895	0.011490	-0.006235	0.000232	-0.795166	0.114014	-0.022461	-0.290209	-0.531844	0.241847	-0.757912
63078		9.767677	-0.510959	3.241778	0.018565	-0.005304	-0.000829	-0.803467	0.107422	-0.017822	-0.289836	-0.532073	0.241498	-0.758006
63079		9.791907	-0.501421	3.287750	0.013626	-0.006825	-0.000349	-0.803711	0.111816	-0.017822	-0.289823	-0.532214	0.241465	-0.757921
63080		9.795020	-0.528538	3.253810	0.023728	-0.005257	-0.001168	-0.799316	0.109619	-0.020020	-0.289640	-0.532409	0.241239	-0.757927
63081		9.776492	-0.505857	3.244700	0.019797	-0.004508	0.000268	-0.799316	0.114014	-0.020264	-0.289433	-0.532587	0.241022	-0.757950
63082		9.785604	-0.511046	3.278437	0.000875	-0.007053	0.001419	-0.799316	0.109619	-0.015625	-0.289209	-0.532748	0.240909	-0.757959
63083		9.766493	-0.531204	3.269975	0.008088	-0.007693	-0.002029	-0.801514	0.111816	-0.015625	-0.289229	-0.532887	0.240911	-0.757852
63084		9.755968	-0.495606	3.265595	-0.003061	-0.009221	-0.003779	-0.797119	0.111816	-0.013672	-0.289277	-0.533020	0.240969	-0.757722
63085		9.779008	-0.503796	3.237433	-0.013453	-0.007952	-0.002323	-0.803467	0.107422	-0.017822	-0.289416	-0.533092	0.241159	-0.757558
63086		9.781250	-0.504849	3.218435	-0.003038	-0.008918	0.000347	-0.803711	0.111816	-0.013672	-0.289457	-0.533202	0.241259	-0.757433
63087		9.794098	-0.484486	3.217103	0.007373	-0.005166	0.002316	-0.801514	0.113770	-0.018066	-0.289435	-0.533304	0.241281	-0.757362
63088		9.788411	-0.476333	3.238344	0.005351	-0.000272	-0.000993	-0.803711	0.113770	-0.020264	-0.289243	-0.533420	0.241099	-0.757412
63089		9.760984	-0.511002	3.225825	-0.002693	0.000392	0.003359	-0.801270	0.109619	-0.017822	-0.288996	-0.533505	0.240962	-0.757490
63090		9.769717	-0.517614	3.260584	0.005609	-0.002599	0.004095	-0.803711	0.111816	-0.013672	-0.288880	-0.533595	0.240919	-0.757485
63091		9.782430	-0.491974	3.215003	0.005509	-0.001540	0.000753	-0.797119	0.109619	-0.013428	-0.288895	-0.533662	0.240934	-0.757427
63092		9.770413	-0.498982	3.214038	-0.005545	0.000592	0.001650	-0.797119	0.114014	-0.020264	-0.289019	-0.533657	0.241079	-0.757337
63093		9.783514	-0.507707	3.199060	-0.006360	0.004179	0.002659	-0.797119	0.111816	-0.017822	-0.288748	-0.533711	0.240907	-0.757457
63094		9.780392	-0.488088	3.188390	0.004535	0.009491	0.002636	-0.799316	0.113770	-0.013672	-0.288591	-0.533712	0.240747	-0.757567
63095		9.796453	-0.461670	3.185804	-0.000893	0.011127	0.004414	-0.797119	0.109619	-0.015625	-0.288576	-0.533644	0.240744	-0.757621
63096		9.778027	-0.504073	3.194974	-0.009696	0.018431	0.004153	-0.799072	0.105225	-0.015381	-0.288699	-0.533462	0.240832	-0.757675
63097		9.791275	-0.505925	3.212209	-0.012347	0.019771	0.005102	-0.797119	0.111816	-0.017822	-0.289015	-0.533210	0.241080	-0.757653
63098		9.777427	-0.506526	3.261195	-0.016102	0.021358	0.005071	-0.799072	0.107422	-0.020020	-0.289038	-0.533010	0.241113	-0.757774
63099		9.800641	-0.515021	3.297147	-0.002606	0.020816	0.006400	-0.801514	0.111816	-0.020020	-0.289045	-0.532837	0.241087	-0.757901
63100		9.767665	-0.529987	3.293173	0.003808	0.013168	0.006176	-0.803467	0.107422	-0.017822	-0.288871	-0.532790	0.240941	-0.758047
63101		9.766907	-0.525504	3.251041	0.005788	0.013845	0.003851	-0.803467	0.107422	-0.015625	-0.288982	-0.532683	0.240969	-0.758072
63102		9.775240	-0.499656	3.243114	-0.014348	0.015232	0.003165	-0.799316	0.114014	-0.015869	-0.289342	-0.532465	0.241264	-0.757993
63103		9.777759	-0.535995	3.242702	-0.002154	0.015253	0.004186	-0.801514	0.111816	-0.015625	-0.289347	-0.532355	0.241254	-0.758072
63104		9.781538	-0.502572	3.240465	0.006576	0.018743	0.003842	-0.797119	0.109619	-0.015625	-0.289425	-0.532215	0.241235	-0.758147
63105		9.790269	-0.496286	3.263151	-0.004988	0.021630	0.005074	-0.797119	0.109619	-0.015625	-0.289640	-0.531986	0.241370	-0.758182
63106		9.780368	-0.526275	3.263167	-0.021645	0.024268	0.005028	-0.799316	0.114014	-0.018066	-0.289992	-0.531667	0.241667	-0.758177
63107		9.791222	-0.541819	3.298795	-0.005694	0.022696	0.006094	-0.803711	0.113770	-0.020264	-0.289981	-0.531479	0.241640	-0.758321
63108		9.780935	-0.515152	3.313490	0.005040	0.019831	0.005764	-0.801514	0.111816	-0.022217	-0.289853	-0.531367	0.241483	-0.758498
63109		9.792971	-0.509893	3.302407	0.008471	0.018672	0.005514	-0.801270	0.109619	-0.017822	-0.289682	-0.531285	0.241275	-0.758688
63110		9.763800	-0.559512	3.294247	-0.000826	0.014984	0.008614	-0.803955	0.118164	-0.018311	-0.289851	-0.531114	0.241443	-0.758690
63111		9.792425	-0.532523	3.323115	0.018017	0.018570	0.004182	-0.801514	0.115967	-0.020264	-0.289638	-0.531069	0.241161	-0.758892
63112		9.779576	-0.511747	3.325302	0.012473	0.013294	0.007321	-0.805664	0.109619	-0.022217	-0.289401	-0.531048	0.240953	-0.759063
63113		9.786073	-0.520871	3.290261	0.011494	0.014586	0.006464	-0.803711	0.115967	-0.022461	-0.289381	-0.530963	0.240883	-0.759152
63114		9.779768	-0.541861	3.300024	0.013555	0.015355	0.006673	-0.805664	0.111816	-0.022217	-0.289087	-0.530944	0.240601	-0.759367
63115		9.773242	-0.515532	3.280081	0.014248	0.018055	0.007335	-0.808105	0.118164	-0.020508	-0.289004	-0.530846	0.240467	-0.759510
63116		9.783391	-0.523506	3.286152	0.008766	0.018447	0.007358	-0.799316	0.111816	-0.024414	-0.288838	-0.530754	0.240303	-0.759689
63117		9.787461	-0.523610	3.313945	0.018266	0.017393	0.008436	-0.803711	0.118164	-0.022461	-0.288592	-0.530705	0.240041	-0.759900
63118		9.803095	-0.496563	3.313181	0.022479	0.014952	0.005577	-0.801758	0.120361	-0.022705	-0.288245	-0.530725	0.239672	-0.760133
63119		9.769196	-0.552150	3.310600	-0.004584	0.018898	0.006894	-0.803711	0.113770	-0.020264	-0.287977	-0.530632	0.239481	-0.760360
63120		9.775851	-0.559538	3.350204	0.000196	0.018113	0.004578	-0.803467	0.111816	-0.022217	-0.288138	-0.530460	0.239567	-0.760392
63121		9.778407	-0.535365	3.319797	-0.014695	0.017352	0.007663	-0.805908	0.115967	-0.020264	-0.288361	-0.530233	0.239807	-0.760390
63122		9.779526	-0.544658	3.335693	-0.013790	0.017117	0.005173	-0.799316	0.111816	-0.020020	-0.288571	-0.530027	0.240010	-0.760390
63123		9.780363	-0.520134	3.322101	-0.007792	0.018585	0.007277	-0.805908	0.113770	-0.022461	-0.288870	-0.529786	0.240271	-0.760362
63124		9.785432	-0.550085	3.333891	-0.010948	0.018066	0.006074	-0.805664	0.111816	-0.022217	-0.289064	-0.529576	0.240448	-0.760379
63125		9.773601	-0.523706	3.364423	-0.013206	0.018773	0.005694	-0.805908	0.115967	-0.022461	-0.289391	-0.529323	0.240725	-0.760343
63126		9.794939	-0.521126	3.342512	-0.018351	0.017583	0.006802	-0.803711	0.113770	-0.013672	-0.289569	-0.529102	0.240940	-0.760361
63127		9.793050	-0.537475	3.347136	-0.007192	0.017624	0.005307	-0.803711	0.113770	-0.024658	-0.290289	-0.528774	0.241518	-0.760131
63128		9.777535	-0.511931	3.337448	0.004105	0.016699	0.009688	-0.805664	0.107422	-0.020020	-0.290255	-0.528643	0.241507	-0.760239
63129		9.795397	-0.508199	3.348958	-0.017623	0.016817	0.009883	-0.803467	0.111816	-0.024414	-0.290957	-0.528279	0.242159	-0.760016
63130		9.775103	-0.607670	3.359758	-0.009609	0.014029	0.008820	-0.803467	0.109619	-0.026611	-0.291140	-0.528093	0.242377	-0.760005
63131		9.782158	-0.568043	3.368302	0.008828	0.014659	0.005676	-0.805664	0.109619	-0.026611	-0.291200	-0.527987	0.242361	-0.760061
63132		9.773467	-0.536297	3.335751	-0.011670	0.014420	0.007780	-0.803711	0.115967	-0.029053	-0.291418	-0.527791	0.242589	-0.760041
63133		9.798092	-0.559770	3.354264	-0.005742	0.015787	0.007372	-0.805908	0.118164	-0.033447	-0.291170	-0.527717	0.242425	-0.760240
63134		9.792052	-0.568035	3.363150	0.001363	0.012929	0.004683	-0.810303	0.118164	-0.029053	-0.290563	-0.527788	0.241927	-0.760581
63135		9.773034	-0.554159	3.386307	0.000921	0.011161	0.005082	-0.805664	0.111816	-0.026611	-0.290319	-0.527778	0.241735	-0.760743
63136		9.775150	-0.547612	3.399909	0.008678	0.006284	0.003784	-0.803711	0.118164	-0.026855	-0.290418	-0.527744	0.241778	-0.760714
63137		9.788572	-0.577840	3.341611	0.014295	0.004614	0.005533	-0.805664	0.109619	-0.022217	-0.290144	-0.527823	0.241556	-0.760835
63138		9.781383	-0.550801	3.335873	0.004869	0.008089	0.005304	-0.805664	0.109619	-0.028809	-0.290658	-0.527651	0.241953	-0.760632
63139		9.777979	-0.578890	3.355858	-0.003519	0.010064	0.004347	-0.807861	0.113770	-0.018066	-0.290809	-0.527545	0.242066	-0.760612
63140		9.773436	-0.545206	3.362209	0.000223	0.009620	0.003600	-0.805908	0.115967	-0.024658	-0.291519	-0.527308	0.242618	-0.760328
63141		9.785044	-0.558991	3.394600	0.000488	0.007939	0.002173	-0.810059	0.113770	-0.022461	-0.291673	-0.527238	0.242721	-0.760285
63142		9.781490	-0.566393	3.385029	0.004749	0.006744	0.001063	-0.805908	0.115967	-0.024658	-0.292119	-0.527116	0.243019	-0.760103
63143		9.783555	-0.572714	3.398314	0.012174	0.003752	0.002787	-0.805664	0.109619	-0.022217	-0.292183	-0.527125	0.243035	-0.760067
63144		9.780092	-0.559945	3.358527	0.005863	0.001570	0.001187	-0.810059	0.113770	-0.026855	-0.292746	-0.527020	0.243446	-0.759792
63145		9.778423	-0.545841	3.375308	-0.004006	0.002126	0.002171	-0.799316	0.114014	-0.028809	-0.292904	-0.526990	0.243594	-0.759704
63146		9.783734	-0.582026	3.355025	0.006055	0.001552	0.004652	-0.810059	0.113770	-0.024658	-0.292646	-0.527082	0.243416	-0.759797
63147		9.778452	-0.568735	3.331918	0.016439	0.002555	0.001676	-0.812256	0.113770	-0.026855	-0.292840	-0.527082	0.243497	-0.759697
63148		9.779098	-0.560681	3.361298	0.000045	0.006173	0.002570	-0.807861	0.111816	-0.031006	-0.293011	-0.527019	0.243617	-0.759636
63149		9.766395	-0.567894	3.361951	-0.000476	0.008079	0.002118	-0.808105	0.115967	-0.022461	-0.292895	-0.527018	0.243489	-0.759722
63150		9.795654	-0.576631	3.345108	0.003520	0.009720	0.001619	-0.801514	0.115967	-0.020264	-0.293253	-0.526887	0.243721	-0.759601
63151		9.780037	-0.540827	3.378797	-0.001516	0.011891	0.001212	-0.803467	0.111816	-0.026611	-0.293731	-0.526697	0.244058	-0.759440
63152		9.776552	-0.569119	3.398811	-0.014535	0.007316	0.004242	-0.799316	0.114014	-0.031006	-0.293971	-0.526569	0.244313	-0.759353
63153		9.784333	-0.598501	3.391117	0.004884	0.006631	0.001997	-0.808105	0.115967	-0.029053	-0.293594	-0.526663	0.243977	-0.759542
63154		9.776661	-0.565413	3.356370	-0.005172	0.004896	0.001139	-0.805908	0.118164	-0.024658	-0.293515	-0.526675	0.243917	-0.759583
63155		9.782522	-0.573555	3.335858	-0.003944	0.005386	-0.001866	-0.807861	0.111816	-0.024414	-0.293673	-0.526639	0.244008	-0.759518
63156		9.788833	-0.551099	3.388259	-0.003817	0.006428	-0.001743	-0.810059	0.111572	-0.024414	-0.294158	-0.526507	0.244330	-0.759318
63157		9.780302	-0.578735	3.384121	-0.002075	0.005314	-0.000181	-0.805908	0.115967	-0.022461	-0.294657	-0.526375	0.244682	-0.759103
63158		9.775977	-0.557622	3.389437	0.004768	0.001820	0.000204	-0.805664	0.111816	-0.031006	-0.294992	-0.526327	0.244921	-0.758929
63159		9.772997	-0.564152	3.378416	0.009997	0.000485	-0.000851	-0.807861	0.113770	-0.026855	-0.294766	-0.526460	0.244667	-0.759007
63160		9.791757	-0.550635	3.357453	0.009999	-0.000670	-0.000037	-0.805664	0.109619	-0.026611	-0.294821	-0.526521	0.244662	-0.758945
63161		9.789878	-0.549472	3.374289	0.006061	0.000095	0.001355	-0.810059	0.115967	-0.029053	-0.295046	-0.526515	0.244811	-0.758813
63162		9.775954	-0.555380	3.389871	0.001937	-0.001434	0.000913	-0.805664	0.113770	-0.026855	-0.294886	-0.526620	0.244691	-0.758842
63163		9.774745	-0.577177	3.361676	0.001166	-0.002769	0.001029	-0.807861	0.113770	-0.022461	-0.294921	-0.526681	0.244738	-0.758770
63164		9.787162	-0.570155	3.361840	0.006336	-0.005356	-0.001738	-0.807861	0.113770	-0.026855	-0.295329	-0.526690	0.245037	-0.758509
63165		9.786174	-0.554934	3.376747	0.004726	-0.006663	-0.000733	-0.801758	0.120361	-0.027100	-0.295345	-0.526806	0.245050	-0.758417
63166		9.785039	-0.589590	3.347874	0.005312	-0.007622	-0.002684	-0.808105	0.115967	-0.022461	-0.294940	-0.527057	0.244734	-0.758503
63167		9.777566	-0.547284	3.355063	-0.006438	-0.005534	-0.000090	-0.807861	0.111572	-0.020020	-0.295262	-0.527055	0.245052	-0.758276
63168		9.787884	-0.554506	3.371858	-0.015530	-0.006253	-0.001712	-0.805664	0.109619	-0.022217	-0.296027	-0.526932	0.245728	-0.757845
63169		9.789020	-0.540486	3.369196	0.009578	-0.011128	-0.002165	-0.803467	0.111816	-0.026611	-0.296450	-0.526995	0.246042	-0.757534
63170		9.770217	-0.559962	3.359538	0.005965	-0.010794	-0.000484	-0.807861	0.111572	-0.022217	-0.296334	-0.527185	0.245973	-0.757469
63171		9.793093	-0.559338	3.376239	0.004551	-0.012421	-0.000129	-0.807861	0.111816	-0.028809	-0.296663	-0.527262	0.246276	-0.757188
63172		9.784659	-0.572269	3.383886	0.001202	-0.013770	0.000129	-0.803467	0.109619	-0.024414	-0.296390	-0.527509	0.246122	-0.757173
63173		9.775378	-0.559127	3.333362	0.013533	-0.015358	-0.001129	-0.805908	0.113770	-0.024658	-0.296414	-0.527719	0.246145	-0.757010
63174		9.781414	-0.551511	3.324393	0.007211	-0.014926	-0.000239	-0.805664	0.111572	-0.015869	-0.296279	-0.527950	0.246090	-0.756919
63175		9.782616	-0.551020	3.320938	-0.000664	-0.013700	-0.001556	-0.803711	0.113770	-0.026611	-0.297031	-0.527919	0.246748	-0.756432
63176		9.760581	-0.558745	3.270496	0.005261	-0.009724	0.000519	-0.803467	0.109619	-0.020020	-0.296622	-0.528174	0.246462	-0.756508
63177		9.777127	-0.549881	3.309285	0.008942	-0.010267	-0.002759	-0.803711	0.113770	-0.020264	-0.296957	-0.528254	0.246701	-0.756243
63178		9.782311	-0.555950	3.302208	0.004031	-0.008207	-0.002219	-0.799316	0.111816	-0.017822	-0.297094	-0.528357	0.246814	-0.756080
63179		9.778405	-0.561558	3.305274	0.005594	-0.011615	-0.002498	-0.803711	0.113770	-0.020264	-0.297405	-0.528446	0.247075	-0.755810
63180		9.786937	-0.546467	3.308936	0.004417	-0.007693	-0.004338	-0.803711	0.113770	-0.020264	-0.297499	-0.528569	0.247118	-0.755673
63181		9.769660	-0.566492	3.283379	0.001447	-0.007067	-0.002888	-0.801270	0.109619	-0.017822	-0.297572	-0.528679	0.247175	-0.755549
63182		9.780893	-0.544272	3.299067	0.004543	-0.006650	-0.004216	-0.807861	0.113770	-0.015869	-0.297965	-0.528710	0.247442	-0.755284
63183		9.768611	-0.543731	3.267944	0.007186	-0.005384	-0.002653	-0.801270	0.109619	-0.022217	-0.298420	-0.528707	0.247772	-0.754999
63184		9.769034	-0.542588	3.266869	0.002661	-0.003965	-0.003411	-0.801270	0.109619	-0.026611	-0.298369	-0.528832	0.247684	-0.754960
63185		9.782269	-0.540263	3.295645	0.004403	-0.004231	-0.006785	-0.805664	0.109619	-0.013428	-0.297924	-0.529094	0.247223	-0.755104
63186		9.775635	-0.525124	3.287918	-0.004127	-0.001839	-0.004546	-0.801514	0.114014	-0.022461	-0.298776	-0.528939	0.247860	-0.754666
63187		9.773767	-0.537086	3.304535	0.000659	-0.003786	-0.006031	-0.799316	0.109619	-0.020020	-0.298497	-0.529136	0.247577	-0.754732
63188		9.786551	-0.515313	3.304193	-0.002443	-0.003049	-0.005517	-0.796875	0.103271	-0.017578	-0.298592	-0.529215	0.247596	-0.754633
63189		9.777036	-0.541581	3.314723	-0.009089	-0.003343	-0.004084	-0.805908	0.115967	-0.020264	-0.299146	-0.529149	0.248015	-0.754322
63190		9.773114	-0.533720	3.318368	-0.001715	-0.006428	-0.004905	-0.801270	0.107422	-0.026367	-0.298996	-0.529320	0.247882	-0.754305
63191		9.772444	-0.554104	3.288515	0.002829	-0.011615	-0.005825	-0.797363	0.118164	-0.020264	-0.298523	-0.529645	0.247458	-0.754404
63192		9.783610	-0.511582	3.273946	0.002824	-0.010461	-0.006641	-0.803467	0.109619	-0.017822	-0.298043	-0.529961	0.247062	-0.754501
63193		9.771067	-0.538720	3.242424	-0.005875	-0.012677	-0.004607	-0.801270	0.107422	-0.020020	-0.298275	-0.530071	0.247277	-0.754262
63194		9.784429	-0.517013	3.240251	0.002625	-0.008986	-0.006807	-0.799316	0.111816	-0.020020	-0.298312	-0.530234	0.247238	-0.754145
63195		9.789898	-0.508744	3.232846	-0.000353	-0.007208	-0.006167	-0.801514	0.111816	-0.017822	-0.298107	-0.530439	0.247034	-0.754149
63196		9.779310	-0.520067	3.258753	-0.004741	-0.007058	-0.005168	-0.803711	0.113770	-0.018066	-0.298129	-0.530564	0.247045	-0.754049
63197		9.774854	-0.539521	3.263030	-0.002679	-0.006291	-0.004955	-0.801270	0.109619	-0.015625	-0.298040	-0.530716	0.246961	-0.754004
63198		9.771461	-0.517065	3.265706	0.008176	-0.008131	-0.005116	-0.801270	0.107422	-0.022217	-0.298207	-0.530834	0.247037	-0.753830
63199		9.783023	-0.516607	3.236775	0.004749	-0.006966	-0.004884	-0.796875	0.107422	-0.020020	-0.297910	-0.531066	0.246733	-0.753884
63200		9.783633	-0.514712	3.235232	0.003062	-0.006065	-0.008031	-0.797119	0.114014	-0.018066	-0.297755	-0.531266	0.246507	-0.753878
63201		9.795912	-0.519954	3.235383	0.001835	-0.005398	-0.005833	-0.803711	0.111816	-0.015869	-0.297432	-0.531490	0.246208	-0.753946
63202		9.766444	-0.510278	3.253389	-0.003206	-0.004388	-0.005403	-0.799316	0.111816	-0.013672	-0.297519	-0.531577	0.246247	-0.753837
63203		9.775973	-0.509705	3.241928	-0.000624	-0.004371	-0.005557	-0.799316	0.111816	-0.020020	-0.297676	-0.531652	0.246337	-0.753693
63204		9.785877	-0.495226	3.229802	0.004037	-0.005894	-0.003870	-0.803223	0.105225	-0.021973	-0.297240	-0.531904	0.245955	-0.753812
63205		9.772224	-0.513945	3.244840	0.002678	-0.005117	-0.002609	-0.794922	0.109619	-0.020020	-0.297013	-0.532083	0.245724	-0.753850
63206		9.798953	-0.497845	3.302137	-0.008929	-0.007235	-0.004817	-0.803467	0.105225	-0.017578	-0.296684	-0.532300	0.245470	-0.753910
63207		9.764748	-0.545320	3.281023	-0.002314	-0.011649	-0.005537	-0.801270	0.107422	-0.017822	-0.296830	-0.532437	0.245565	-0.753724
63208		9.781434	-0.515283	3.289183	0.026928	-0.019657	-0.004969	-0.797119	0.109619	-0.020020	-0.296558	-0.532811	0.245273	-0.753663
63209		9.762832	-0.512538	3.248569	0.026227	-0.020050	-0.007267	-0.797363	0.114014	-0.013672	-0.295930	-0.533298	0.244676	-0.753759
63210		9.789148	-0.503749	3.200994	0.028689	-0.019922	-0.008374	-0.797119	0.107422	-0.013428	-0.295551	-0.533724	0.244283	-0.753733
63211		9.773578	-0.457397	3.215634	0.015901	-0.018971	-0.007467	-0.801514	0.111816	-0.017822	-0.295554	-0.534009	0.244229	-0.753548
63212		9.769670	-0.524852	3.174068	0.015057	-0.017791	-0.007391	-0.803711	0.111816	-0.013672	-0.295034	-0.534424	0.243756	-0.753610
63213		9.781013	-0.481242	3.158265	0.014258	-0.014202	-0.006412	-0.797119	0.111816	-0.007080	-0.294838	-0.534712	0.243545	-0.753551
63214		9.757633	-0.459017	3.123530	0.001763	-0.011376	-0.006830	-0.799316	0.111816	-0.013672	-0.295104	-0.534829	0.243755	-0.753296
63215		9.781659	-0.472563	3.124954	-0.012469	-0.000949	-0.002093	-0.797119	0.111816	-0.009277	-0.294958	-0.534916	0.243676	-0.753317
63216		9.779595	-0.485196	3.142595	0.003252	0.003560	-0.004441	-0.797119	0.111816	-0.013672	-0.295028	-0.534948	0.243659	-0.753273
63217		9.789911	-0.463118	3.160928	-0.004455	0.005911	-0.003057	-0.799316	0.114014	-0.015869	-0.294813	-0.535016	0.243438	-0.753380
63218		9.785036	-0.503245	3.197972	-0.013654	0.009149	-0.001348	-0.799316	0.109619	-0.015625	-0.294420	-0.535078	0.243118	-0.753593
63219		9.764958	-0.510296	3.192628	-0.003437	0.008183	-0.002114	-0.797119	0.109619	-0.017822	-0.294214	-0.535120	0.242884	-0.753719
63220		9.777458	-0.448578	3.193570	-0.012245	0.010778	-0.001715	-0.797119	0.111816	-0.015625	-0.293897	-0.535151	0.242583	-0.753917
63221		9.766631	-0.490052	3.208151	-0.016123	0.011325	-0.001887	-0.799316	0.109619	-0.013428	-0.293668	-0.535148	0.242377	-0.754075
63222		9.783724	-0.505313	3.190212	-0.005506	0.008566	-0.003140	-0.799316	0.109619	-0.015625	-0.293673	-0.535130	0.242311	-0.754106
63223		9.771647	-0.483654	3.190199	-0.002990	0.008486	-0.005830	-0.794922	0.109619	-0.013428	-0.293542	-0.535171	0.242082	-0.754203
63224		9.796339	-0.462235	3.222191	-0.022745	0.008398	-0.002936	-0.801270	0.105225	-0.015381	-0.293610	-0.535105	0.242145	-0.754202
63225		9.769522	-0.525455	3.195562	-0.008859	0.008363	-0.003681	-0.799316	0.111816	-0.013672	-0.293770	-0.535043	0.242187	-0.754171
63226		9.779162	-0.470098	3.185037	0.006125	0.008082	-0.003440	-0.799072	0.107422	-0.011230	-0.293571	-0.535109	0.241920	-0.754287
63227		9.783222	-0.463065	3.181577	-0.014218	0.008641	-0.002719	-0.799072	0.107422	-0.015625	-0.293895	-0.534986	0.242150	-0.754174
63228		9.768408	-0.483439	3.200136	-0.023082	0.011133	-0.004868	-0.797119	0.107422	-0.015625	-0.294013	-0.534893	0.242194	-0.754181
63229		9.774407	-0.511004	3.209960	-0.009963	0.009764	-0.005485	-0.796875	0.105469	-0.013184	-0.294023	-0.534868	0.242099	-0.754224
63230		9.788375	-0.462569	3.194803	-0.000725	0.008941	-0.006273	-0.796875	0.107422	-0.017822	-0.294237	-0.534817	0.242125	-0.754169
63231		9.788010	-0.447681	3.196430	-0.006726	0.008924	-0.005071	-0.799072	0.107422	-0.020020	-0.294070	-0.534852	0.241881	-0.754288
63232		9.765904	-0.467339	3.208462	-0.014991	0.009608	-0.004245	-0.796875	0.103271	-0.015381	-0.293845	-0.534876	0.241624	-0.754441
63233		9.777228	-0.461030	3.211563	-0.011690	0.008867	-0.001295	-0.799072	0.105469	-0.019775	-0.294070	-0.534773	0.241760	-0.754382
63234		9.799749	-0.453000	3.261038	-0.006907	0.008089	-0.003606	-0.799072	0.105225	-0.015381	-0.293910	-0.534803	0.241534	-0.754496
63235		9.790869	-0.460487	3.227652	0.003530	0.002195	-0.001736	-0.799072	0.107422	-0.020020	-0.293944	-0.534841	0.241497	-0.754468
63236		9.768446	-0.473915	3.209314	0.003214	0.001471	-0.001208	-0.796875	0.105225	-0.011230	-0.293555	-0.534996	0.241129	-0.754627
63237		9.795584	-0.439495	3.222577	-0.008274	0.001838	0.000008	-0.796875	0.103271	-0.017578	-0.293882	-0.534926	0.241417	-0.754457
63238		9.786168	-0.454224	3.233320	-0.019535	-0.001579	0.003011	-0.796875	0.101074	-0.015381	-0.293942	-0.534920	0.241572	-0.754389
63239		9.780864	-0.502834	3.239471	0.021008	-0.004874	0.002330	-0.794922	0.107422	-0.020020	-0.293980	-0.535026	0.241550	-0.754305
63240		9.767028	-0.426976	3.194600	0.019064	-0.003447	0.001422	-0.796875	0.101074	-0.015381	-0.293369	-0.535299	0.241009	-0.754523
63241		9.781621	-0.476160	3.163654	0.006718	-0.000744	0.001905	-0.799072	0.103271	-0.013184	-0.293513	-0.535317	0.241100	-0.754425
63242		9.789486	-0.448847	3.169133	-0.001428	0.000984	0.002855	-0.798828	0.101074	-0.013184	-0.293743	-0.535276	0.241310	-0.754297
63243		9.771417	-0.434848	3.189648	0.001861	0.001397	0.004993	-0.797119	0.111816	-0.013672	-0.294043	-0.535207	0.241580	-0.754143
63244		9.794638	-0.450401	3.193345	0.000098	0.003966	0.006746	-0.801270	0.109619	-0.020020	-0.293704	-0.535279	0.241402	-0.754281
63245		9.783429	-0.451019	3.221271	-0.001178	0.002223	0.008044	-0.796875	0.101074	-0.015381	-0.293134	-0.535417	0.241039	-0.754520
63246		9.780929	-0.479883	3.239283	0.002784	-0.000840	0.008258	-0.796875	0.105469	-0.017578	-0.293253	-0.535400	0.241213	-0.754431
