// Start Time: Unknown
// Update Rate: 40.0Hz
// Filter Profile: human (46.1)
// Firmware Version: 4.6.0
PacketCounter	SampleTimeFine	Acc_X	Acc_Y	Acc_Z	Gyr_X	Gyr_Y	Gyr_Z	Mag_X	Mag_Y	Mag_Z	Quat_q0	Quat_q1	Quat_q2	Quat_q3
51973		9.684608	0.211033	-1.565991	0.016272	0.003620	-0.011038	-0.831543	0.124268	-0.280762	0.636807	-0.125989	-0.750960	-0.121087
51974		9.679225	0.214779	-1.537854	0.022396	0.006548	-0.011932	-0.832764	0.125244	-0.282715	0.636886	-0.125689	-0.750961	-0.120982
51975		9.670690	0.282636	-1.571010	0.016230	0.003515	-0.008241	-0.828125	0.128906	-0.278564	0.636933	-0.125478	-0.750969	-0.120901
51976		9.685982	0.268279	-1.573198	-0.004521	0.003226	-0.002279	-0.828613	0.127930	-0.268066	0.636952	-0.125485	-0.750940	-0.120969
51977		9.680454	0.250545	-1.537822	-0.012089	-0.003602	-0.000876	-0.830322	0.130615	-0.268311	0.636897	-0.125574	-0.750954	-0.121089
51978		9.682107	0.218004	-1.550032	-0.009704	-0.001608	-0.000956	-0.838379	0.124512	-0.270020	0.636865	-0.125638	-0.750953	-0.121194
51979		9.681099	0.186023	-1.548158	-0.011765	0.001335	0.001591	-0.829590	0.129395	-0.276611	0.636862	-0.125737	-0.750921	-0.121302
51980		9.683169	0.169582	-1.518582	-0.004308	-0.002599	0.003985	-0.836182	0.115234	-0.272217	0.636841	-0.125808	-0.750926	-0.121312
51981		9.668617	0.158696	-1.542678	-0.002217	-0.002184	0.006520	-0.835693	0.126709	-0.277588	0.636838	-0.125890	-0.750920	-0.121277
51982		9.662616	0.161863	-1.566350	-0.006482	-0.006107	0.008359	-0.829590	0.122070	-0.275879	0.636799	-0.126038	-0.750932	-0.121253
51983		9.666247	0.151395	-1.566209	-0.003800	-0.003972	0.006323	-0.832031	0.120117	-0.276611	0.636780	-0.126147	-0.750936	-0.121216
51984		9.672681	0.120330	-1.570944	0.006516	-0.003466	0.002617	-0.836670	0.121338	-0.279785	0.636777	-0.126146	-0.750957	-0.121103
51985		9.689760	0.148343	-1.570388	0.012525	-0.005557	0.002896	-0.829590	0.119385	-0.271973	0.636768	-0.126118	-0.751000	-0.120913
51986		9.682061	0.185518	-1.582083	0.010528	0.000426	-0.000066	-0.827637	0.126953	-0.272461	0.636801	-0.126070	-0.751004	-0.120767
51987		9.684755	0.184640	-1.595957	0.007128	-0.003126	-0.002699	-0.828125	0.122314	-0.277100	0.636791	-0.126037	-0.751034	-0.120663
51988		9.666669	0.181294	-1.572017	0.009028	-0.004013	-0.004551	-0.839111	0.124756	-0.279297	0.636771	-0.125968	-0.751079	-0.120562
51989		9.669182	0.161152	-1.578611	0.005333	-0.007708	-0.005224	-0.841797	0.129883	-0.280518	0.636712	-0.125948	-0.751145	-0.120486
51990		9.685175	0.118318	-1.559916	0.011689	-0.004804	-0.003879	-0.834473	0.126709	-0.268799	0.636695	-0.125908	-0.751190	-0.120336
51991		9.681152	0.147444	-1.570880	0.013644	-0.005148	-0.000740	-0.832275	0.125244	-0.278320	0.636664	-0.125863	-0.751257	-0.120127
51992		9.688184	0.131948	-1.618987	0.014659	-0.003584	0.001970	-0.832275	0.127930	-0.275146	0.636676	-0.125831	-0.751287	-0.119906
51993		9.677697	0.129509	-1.600842	0.016284	-0.004556	0.000675	-0.831543	0.125244	-0.275635	0.636667	-0.125791	-0.751341	-0.119662
51994		9.676541	0.136867	-1.616347	0.022153	-0.000223	-0.001725	-0.831543	0.125244	-0.277100	0.636701	-0.125666	-0.751376	-0.119391
51995		9.662050	0.146924	-1.647970	0.023755	0.003059	-0.003591	-0.827148	0.124268	-0.281494	0.636765	-0.125510	-0.751390	-0.119125
51996		9.671145	0.158725	-1.597055	0.015519	0.001094	-0.004479	-0.828369	0.125977	-0.272217	0.636806	-0.125399	-0.751400	-0.118957
51997		9.674891	0.150655	-1.595953	0.001297	-0.003043	-0.005069	-0.824951	0.125244	-0.273193	0.636750	-0.125408	-0.751457	-0.118892
51998		9.676517	0.098656	-1.599835	0.003059	-0.003256	-0.006971	-0.830322	0.128906	-0.273438	0.636702	-0.125368	-0.751513	-0.118834
51999		9.672667	0.109384	-1.601344	0.013740	0.002304	-0.011029	-0.833984	0.124023	-0.269775	0.636713	-0.125257	-0.751543	-0.118701
52000		9.671108	0.124494	-1.580280	0.019702	0.007295	-0.011243	-0.833496	0.121826	-0.280029	0.636748	-0.125065	-0.751575	-0.118512
52001		9.689111	0.149934	-1.612630	0.012213	0.001066	-0.006229	-0.831055	0.125244	-0.280762	0.636775	-0.124979	-0.751587	-0.118385
52002		9.672968	0.133437	-1.607429	0.003050	0.001441	0.000247	-0.828613	0.126221	-0.273193	0.636814	-0.125050	-0.751557	-0.118294
52003		9.676857	0.124230	-1.605611	0.000622	0.002209	0.001816	-0.836426	0.129150	-0.278320	0.636820	-0.125140	-0.751553	-0.118185
52004		9.682175	0.124494	-1.547567	-0.003486	0.001965	0.000344	-0.824951	0.128418	-0.270996	0.636826	-0.125329	-0.751523	-0.118142
52005		9.679083	0.128169	-1.583446	0.003188	0.000767	0.000297	-0.830322	0.123535	-0.280029	0.636824	-0.125384	-0.751537	-0.118007
52006		9.686761	0.110771	-1.580325	0.011663	0.002330	-0.005770	-0.833740	0.127686	-0.269043	0.636882	-0.125298	-0.751519	-0.117897
52007		9.669527	0.123067	-1.598323	0.010491	0.001385	-0.007128	-0.826660	0.124023	-0.272949	0.636840	-0.125262	-0.751585	-0.117746
52008		9.682029	0.110070	-1.587362	0.003427	0.001788	-0.007314	-0.828613	0.127197	-0.276855	0.636841	-0.125201	-0.751603	-0.117689
52009		9.680381	0.104338	-1.558639	0.003524	0.001010	-0.004463	-0.834473	0.133301	-0.281250	0.636868	-0.125240	-0.751584	-0.117623
52010		9.661368	0.109521	-1.548803	-0.000580	-0.002106	-0.004616	-0.829834	0.128418	-0.284424	0.636882	-0.125453	-0.751539	-0.117611
52011		9.680162	0.126996	-1.567930	0.004552	-0.003554	-0.008312	-0.832275	0.124512	-0.274658	0.636930	-0.125504	-0.751490	-0.117607
52012		9.686665	0.099174	-1.572217	0.009247	-0.001595	-0.011419	-0.834717	0.121826	-0.280273	0.636899	-0.125396	-0.751546	-0.117533
52013		9.688310	0.108526	-1.600666	0.012821	0.001404	-0.011551	-0.833252	0.126709	-0.282471	0.636943	-0.125248	-0.751541	-0.117480
52014		9.680890	0.166224	-1.570616	0.004842	-0.000546	-0.011592	-0.836914	0.124512	-0.272949	0.636988	-0.125255	-0.751499	-0.117499
52015		9.678807	0.144778	-1.583703	-0.001925	-0.001446	-0.013076	-0.839600	0.119873	-0.278809	0.636899	-0.125240	-0.751571	-0.117539
52016		9.668036	0.129037	-1.606252	-0.007011	-0.002766	-0.010861	-0.831055	0.125488	-0.281006	0.636836	-0.125249	-0.751601	-0.117674
52017		9.683227	0.096266	-1.601348	-0.004761	-0.002960	-0.009680	-0.839111	0.127197	-0.280273	0.636845	-0.125318	-0.751569	-0.117763
52018		9.676520	0.108413	-1.589823	0.002554	-0.001884	-0.009314	-0.832031	0.122070	-0.276123	0.636831	-0.125405	-0.751562	-0.117786
52019		9.681277	0.113744	-1.582278	0.012274	-0.000188	-0.009777	-0.837158	0.133057	-0.279297	0.636834	-0.125250	-0.751600	-0.117693
52020		9.682115	0.148061	-1.584403	0.012822	-0.000013	-0.010896	-0.845947	0.127686	-0.270996	0.636857	-0.125341	-0.751580	-0.117602
52021		9.684021	0.174584	-1.571689	0.007619	-0.000611	-0.010131	-0.835449	0.121826	-0.276367	0.636726	-0.125373	-0.751698	-0.117523
52022		9.675217	0.182529	-1.581472	-0.003406	-0.004019	-0.010414	-0.826660	0.135742	-0.272461	0.636656	-0.125357	-0.751749	-0.117596
52023		9.681729	0.155181	-1.586080	-0.007554	-0.004378	-0.009083	-0.835205	0.119141	-0.271729	0.636592	-0.125595	-0.751764	-0.117593
52024		9.682642	0.149543	-1.572120	-0.004113	-0.003568	-0.007946	-0.834717	0.128906	-0.273193	0.636476	-0.125508	-0.751871	-0.117624
52025		9.692620	0.173299	-1.600808	-0.004089	-0.004950	-0.008687	-0.826172	0.120361	-0.280273	0.636377	-0.125641	-0.751930	-0.117648
52026		9.672423	0.167665	-1.598430	-0.004597	-0.005016	-0.010371	-0.834717	0.123291	-0.278320	0.636403	-0.125572	-0.751901	-0.117759
52027		9.672352	0.150358	-1.590990	-0.008202	-0.003768	-0.010818	-0.829590	0.126953	-0.274170	0.636365	-0.125627	-0.751901	-0.117909
52028		9.662617	0.126362	-1.599369	-0.005119	-0.006569	-0.009996	-0.829102	0.126465	-0.273193	0.636287	-0.125701	-0.751948	-0.117952
52029		9.691005	0.131830	-1.594988	-0.006186	-0.003939	-0.011881	-0.834717	0.132324	-0.274902	0.636220	-0.125747	-0.751986	-0.118016
52030		9.692124	0.106868	-1.572436	0.001147	-0.002798	-0.012919	-0.842773	0.124512	-0.272949	0.636172	-0.125902	-0.751998	-0.118038
52031		9.686970	0.126508	-1.589485	0.010209	-0.003404	-0.012400	-0.836182	0.125244	-0.272949	0.636056	-0.125830	-0.752114	-0.118002
52032		9.655988	0.179484	-1.593168	0.010451	-0.004858	-0.009498	-0.843994	0.122070	-0.274170	0.635974	-0.125778	-0.752205	-0.117916
52033		9.664613	0.155970	-1.576815	0.000339	-0.005929	-0.009922	-0.836182	0.120605	-0.279541	0.635835	-0.125776	-0.752313	-0.117980
52034		9.693794	0.135241	-1.599125	0.001637	-0.007142	-0.006454	-0.828369	0.123291	-0.282471	0.635813	-0.125769	-0.752324	-0.118037
52035		9.682388	0.122515	-1.587292	0.002703	-0.000670	-0.002132	-0.829834	0.129883	-0.280518	0.635950	-0.125833	-0.752196	-0.118049
52036		9.675820	0.132491	-1.574915	0.006110	0.002958	-0.000915	-0.837646	0.130127	-0.277100	0.636096	-0.126021	-0.752052	-0.117979
52037		9.673808	0.128067	-1.595766	0.012928	0.001114	-0.000919	-0.835693	0.127686	-0.279053	0.636139	-0.126165	-0.752014	-0.117832
52038		9.672714	0.135729	-1.610396	0.011459	0.001460	-0.000975	-0.838135	0.122559	-0.274902	0.636218	-0.126269	-0.751946	-0.117727
52039		9.664796	0.115843	-1.646298	0.013815	-0.004254	-0.002758	-0.837646	0.130859	-0.280273	0.636166	-0.126198	-0.752023	-0.117591
52040		9.662672	0.149845	-1.635624	0.013056	-0.001432	-0.008008	-0.824951	0.122314	-0.278320	0.636215	-0.126316	-0.751972	-0.117526
52041		9.659824	0.153277	-1.622573	0.024539	-0.001737	-0.018928	-0.833496	0.124756	-0.270508	0.636304	-0.125966	-0.751974	-0.117409
52042		9.691559	0.156421	-1.581174	0.024182	-0.000986	-0.022628	-0.835205	0.126953	-0.272949	0.636237	-0.125611	-0.752115	-0.117248
52043		9.673119	0.159866	-1.606096	0.016834	0.000734	-0.022910	-0.832764	0.120850	-0.276367	0.636200	-0.125406	-0.752190	-0.117188
52044		9.646158	0.148879	-1.631966	0.011282	-0.003488	-0.022447	-0.835938	0.125977	-0.281494	0.636173	-0.125144	-0.752250	-0.117231
52045		9.673919	0.124376	-1.624941	0.009944	-0.002382	-0.023116	-0.828125	0.118164	-0.280762	0.636208	-0.125073	-0.752216	-0.117336
52046		9.672877	0.154258	-1.599093	0.009173	-0.000656	-0.017103	-0.840820	0.115967	-0.268311	0.636295	-0.124848	-0.752169	-0.117401
52047		9.668896	0.166027	-1.600669	0.002796	-0.000402	-0.009144	-0.834961	0.121826	-0.277588	0.636135	-0.124655	-0.752339	-0.117382
52048		9.685046	0.164839	-1.597673	0.000942	-0.003777	-0.006702	-0.832520	0.118164	-0.279297	0.636117	-0.124696	-0.752344	-0.117404
52049		9.671337	0.168328	-1.615581	0.004795	-0.003539	-0.006078	-0.835938	0.130615	-0.275391	0.636144	-0.124631	-0.752331	-0.117411
52050		9.670279	0.157373	-1.622765	0.003853	-0.003075	-0.005852	-0.832520	0.125000	-0.273193	0.636112	-0.124837	-0.752338	-0.117328
52051		9.667163	0.179936	-1.618263	0.005848	-0.000372	-0.008244	-0.837158	0.122559	-0.277344	0.636090	-0.124839	-0.752368	-0.117246
52052		9.660476	0.192530	-1.606108	-0.000468	0.001128	-0.015760	-0.831787	0.120117	-0.272461	0.636087	-0.124820	-0.752355	-0.117367
52053		9.673002	0.182930	-1.595665	-0.006195	-0.002931	-0.021744	-0.833984	0.125732	-0.270508	0.635993	-0.124679	-0.752435	-0.117519
52054		9.679547	0.141281	-1.640881	-0.004445	-0.001692	-0.024316	-0.832520	0.120850	-0.267334	0.635877	-0.124630	-0.752522	-0.117639
52055		9.676472	0.096035	-1.616839	0.004228	-0.000126	-0.026767	-0.833252	0.117188	-0.269775	0.635749	-0.124356	-0.752668	-0.117688
52056		9.666646	0.132930	-1.599950	0.010221	-0.000766	-0.025757	-0.824951	0.124512	-0.270752	0.635655	-0.123996	-0.752802	-0.117718
52057		9.678534	0.164218	-1.606558	0.008553	0.000088	-0.021658	-0.836914	0.124268	-0.266602	0.635644	-0.123859	-0.752839	-0.117683
52058		9.664337	0.176151	-1.588193	0.005774	0.004943	-0.018710	-0.831299	0.123535	-0.269043	0.635549	-0.123790	-0.752932	-0.117675
52059		9.667572	0.211277	-1.603332	0.000852	-0.000013	-0.013697	-0.833984	0.118896	-0.276367	0.635477	-0.123797	-0.752992	-0.117671
52060		9.667842	0.194485	-1.594974	-0.009402	-0.001958	-0.012093	-0.828369	0.120117	-0.273193	0.635457	-0.123835	-0.752977	-0.117834
52061		9.679609	0.171336	-1.590920	-0.011432	-0.000363	-0.011693	-0.839600	0.121338	-0.276855	0.635442	-0.123887	-0.752961	-0.117963
52062		9.679499	0.174494	-1.591245	-0.000592	-0.002538	-0.012426	-0.834961	0.120605	-0.276123	0.635407	-0.123938	-0.752966	-0.118066
52063		9.667526	0.204269	-1.595662	0.000581	0.001396	-0.015206	-0.827881	0.123047	-0.272705	0.635424	-0.123911	-0.752940	-0.118163
52064		9.672291	0.211867	-1.587499	-0.004706	0.001595	-0.018692	-0.835938	0.120361	-0.276611	0.635426	-0.123915	-0.752921	-0.118275
52065		9.676660	0.187603	-1.576991	-0.003796	0.002517	-0.018181	-0.835205	0.118896	-0.281006	0.635443	-0.123898	-0.752882	-0.118448
52066		9.660696	0.174869	-1.572001	0.001897	-0.003106	-0.018215	-0.835938	0.117920	-0.274414	0.635478	-0.123835	-0.752840	-0.118597
52067		9.675148	0.204318	-1.592492	0.001737	-0.000996	-0.018931	-0.836914	0.128662	-0.276367	0.635437	-0.123709	-0.752878	-0.118701
52068		9.670179	0.205231	-1.600825	-0.002246	-0.003498	-0.016876	-0.844971	0.130127	-0.279785	0.635399	-0.123912	-0.752860	-0.118811
52069		9.678705	0.203754	-1.592594	-0.007062	-0.004836	-0.013802	-0.832031	0.122559	-0.280029	0.635346	-0.124262	-0.752817	-0.119000
52070		9.669807	0.160267	-1.592093	-0.009222	-0.004008	-0.012788	-0.840820	0.117432	-0.270020	0.635368	-0.124428	-0.752741	-0.119188
52071		9.675962	0.191260	-1.572574	-0.002972	-0.004602	-0.010934	-0.841309	0.116699	-0.272217	0.635221	-0.124384	-0.752865	-0.119237
52072		9.678815	0.225345	-1.589137	0.004733	-0.002603	-0.011755	-0.828857	0.120361	-0.267578	0.635131	-0.124281	-0.752954	-0.119258
52073		9.682608	0.219089	-1.588598	0.000081	-0.004562	-0.010032	-0.830322	0.123047	-0.274658	0.635036	-0.124235	-0.753053	-0.119192
52074		9.680340	0.216912	-1.610875	-0.001298	-0.003578	-0.007892	-0.830566	0.125488	-0.267578	0.635034	-0.124349	-0.753033	-0.119205
52075		9.667050	0.200794	-1.620282	0.000863	-0.004402	-0.008908	-0.837891	0.119141	-0.269043	0.634941	-0.124434	-0.753111	-0.119125
52076		9.681137	0.195891	-1.638733	0.006296	-0.000789	-0.011574	-0.837158	0.124268	-0.276367	0.634863	-0.124337	-0.753199	-0.119085
52077		9.663977	0.189085	-1.648750	0.017105	-0.000065	-0.013641	-0.840332	0.125977	-0.268555	0.634902	-0.124311	-0.753179	-0.119025
52078		9.661532	0.242602	-1.596478	0.016995	-0.000768	-0.014435	-0.837402	0.120361	-0.268311	0.634824	-0.124261	-0.753275	-0.118891
52079		9.663310	0.231902	-1.617042	0.014890	-0.004247	-0.011427	-0.838379	0.118896	-0.273193	0.634726	-0.124126	-0.753402	-0.118750
52080		9.671264	0.233761	-1.573803	0.009460	-0.001528	-0.007816	-0.835938	0.125244	-0.271240	0.634705	-0.124084	-0.753434	-0.118700
52081		9.677338	0.245035	-1.595204	0.005177	-0.004243	-0.002385	-0.831787	0.116455	-0.267822	0.634654	-0.124249	-0.753466	-0.118600
52082		9.667666	0.238176	-1.611401	-0.003469	-0.000953	0.001678	-0.828125	0.113037	-0.277344	0.634607	-0.124270	-0.753515	-0.118519
52083		9.681363	0.250449	-1.638028	-0.010170	-0.001390	0.005213	-0.838379	0.113525	-0.270508	0.634679	-0.124368	-0.753430	-0.118571
52084		9.678376	0.218652	-1.622460	-0.006939	-0.000415	0.001287	-0.833984	0.122559	-0.273682	0.634626	-0.124388	-0.753468	-0.118591
52085		9.664072	0.226151	-1.604972	-0.004198	-0.002435	-0.001591	-0.835205	0.126953	-0.276123	0.634618	-0.124572	-0.753441	-0.118608
52086		9.655896	0.226923	-1.649097	0.002030	0.001397	-0.004541	-0.827881	0.116699	-0.272705	0.634676	-0.124784	-0.753356	-0.118616
52087		9.674234	0.229997	-1.624287	-0.005748	-0.001206	-0.007315	-0.839600	0.124268	-0.273926	0.634684	-0.124760	-0.753344	-0.118674
52088		9.673218	0.202449	-1.672367	-0.010745	-0.003856	-0.008628	-0.829834	0.125244	-0.273438	0.634617	-0.124973	-0.753342	-0.118826
52089		9.664603	0.175446	-1.630639	-0.006058	-0.004758	-0.009027	-0.831787	0.123291	-0.270996	0.634591	-0.125136	-0.753325	-0.118897
52090		9.684828	0.166406	-1.626098	0.002113	0.001684	-0.011564	-0.834717	0.122070	-0.281982	0.634598	-0.125142	-0.753316	-0.118909
52091		9.669974	0.196139	-1.616941	0.003498	-0.002279	-0.009568	-0.832520	0.119873	-0.269043	0.634679	-0.125232	-0.753217	-0.119009
52092		9.656859	0.179950	-1.625576	0.001154	0.000592	-0.007863	-0.838867	0.123291	-0.270508	0.634652	-0.125191	-0.753251	-0.118982
52093		9.675711	0.145042	-1.633168	-0.000802	0.001276	-0.001790	-0.834717	0.123779	-0.272705	0.634626	-0.125324	-0.753255	-0.118957
52094		9.679903	0.153956	-1.590124	0.010353	0.002698	-0.000821	-0.837891	0.126953	-0.274902	0.634675	-0.125390	-0.753222	-0.118832
52095		9.676640	0.175243	-1.585078	0.016093	-0.001300	-0.005737	-0.835693	0.117432	-0.273193	0.634698	-0.125457	-0.753211	-0.118712
52096		9.669986	0.200619	-1.616318	0.013635	0.002358	-0.006894	-0.834961	0.125000	-0.277344	0.634738	-0.125311	-0.753216	-0.118623
52097		9.682250	0.208344	-1.614143	0.014432	-0.000774	-0.012254	-0.832275	0.124023	-0.273682	0.634790	-0.125302	-0.753178	-0.118590
52098		9.678189	0.219191	-1.615463	0.019009	0.002467	-0.010436	-0.829590	0.116943	-0.276611	0.634855	-0.125210	-0.753159	-0.118457
52099		9.662580	0.236158	-1.612556	0.006950	-0.001379	-0.009844	-0.837402	0.128906	-0.266602	0.634904	-0.125107	-0.753134	-0.118464
52100		9.671822	0.212704	-1.595366	-0.001837	-0.003765	-0.006768	-0.841797	0.125732	-0.278320	0.634789	-0.125266	-0.753213	-0.118412
52101		9.677094	0.212499	-1.623195	-0.001983	-0.003092	-0.006820	-0.838135	0.121338	-0.277344	0.634778	-0.125482	-0.753169	-0.118520
52102		9.670791	0.203956	-1.603038	0.005461	-0.001103	-0.008495	-0.834473	0.113281	-0.276855	0.634799	-0.125520	-0.753138	-0.118566
52103		9.668712	0.200939	-1.624297	0.005097	0.001507	-0.005050	-0.834473	0.121094	-0.272217	0.634856	-0.125426	-0.753101	-0.118594
52104		9.667401	0.210010	-1.639013	0.001136	0.000534	-0.006461	-0.835693	0.112549	-0.281006	0.634854	-0.125447	-0.753100	-0.118589
52105		9.672688	0.194404	-1.622991	-0.000304	-0.003555	-0.001707	-0.833984	0.117920	-0.274414	0.634892	-0.125468	-0.753049	-0.118685
52106		9.662888	0.155698	-1.636923	0.006085	-0.001816	-0.003946	-0.823242	0.120117	-0.272949	0.634900	-0.125440	-0.753054	-0.118642
52107		9.684212	0.221462	-1.630324	0.016272	0.001515	-0.003422	-0.828125	0.122559	-0.265381	0.634992	-0.125324	-0.753028	-0.118441
52108		9.678971	0.256223	-1.605058	0.004911	0.003559	-0.004366	-0.833008	0.116943	-0.264648	0.634988	-0.125279	-0.753063	-0.118291
52109		9.665270	0.208928	-1.660338	-0.005710	0.000751	-0.002975	-0.832764	0.127441	-0.274658	0.634911	-0.125248	-0.753138	-0.118255
52110		9.661735	0.198919	-1.653526	-0.008246	-0.004072	-0.005195	-0.834229	0.125000	-0.274902	0.634885	-0.125490	-0.753107	-0.118330
52111		9.663531	0.172550	-1.630609	-0.004036	-0.001570	-0.005012	-0.829102	0.126709	-0.280518	0.634886	-0.125654	-0.753072	-0.118381
52112		9.685323	0.186994	-1.612973	0.000842	0.001878	-0.006567	-0.833740	0.125244	-0.272461	0.635000	-0.125817	-0.752939	-0.118438
52113		9.677190	0.173934	-1.612900	0.008029	0.003839	-0.009086	-0.834473	0.118652	-0.274414	0.635041	-0.125813	-0.752913	-0.118389
52114		9.676572	0.162856	-1.618524	0.008257	0.002271	-0.003361	-0.839355	0.121826	-0.278320	0.635086	-0.125766	-0.752893	-0.118326
52115		9.681412	0.166773	-1.610289	0.015070	0.001944	-0.004038	-0.838379	0.122070	-0.273193	0.635155	-0.125757	-0.752848	-0.118250
52116		9.667986	0.200997	-1.629133	0.014635	0.002470	-0.002125	-0.834961	0.125000	-0.277588	0.635186	-0.125727	-0.752849	-0.118107
52117		9.679621	0.194697	-1.632923	0.013310	0.002127	-0.002127	-0.841309	0.128174	-0.273926	0.635267	-0.125784	-0.752788	-0.118001
52118		9.662021	0.173021	-1.648213	0.011520	0.005232	-0.002955	-0.833496	0.124756	-0.279541	0.635314	-0.125874	-0.752750	-0.117896
52119		9.673752	0.184734	-1.610418	0.018101	0.003439	-0.003809	-0.835205	0.121582	-0.279541	0.635432	-0.125882	-0.752668	-0.117779
52120		9.673801	0.185219	-1.610065	0.018870	0.000193	-0.006355	-0.839111	0.128662	-0.267334	0.635504	-0.125818	-0.752632	-0.117684
52121		9.689485	0.171441	-1.612319	0.020415	0.004991	-0.010328	-0.834473	0.122559	-0.274414	0.635501	-0.125691	-0.752690	-0.117461
52122		9.669927	0.196485	-1.610119	0.019079	0.003105	-0.006851	-0.836426	0.122314	-0.275879	0.635559	-0.125580	-0.752684	-0.117307
52123		9.666594	0.203812	-1.561100	0.008234	0.003712	-0.004036	-0.833496	0.119141	-0.274658	0.635612	-0.125596	-0.752644	-0.117256
52124		9.669304	0.170390	-1.571955	0.005330	-0.001536	0.002749	-0.836426	0.119873	-0.270752	0.635621	-0.125637	-0.752646	-0.117156
52125		9.686285	0.160688	-1.603646	0.012891	-0.001798	0.006007	-0.835938	0.119141	-0.272461	0.635599	-0.125628	-0.752702	-0.116923
52126		9.680270	0.195532	-1.628972	0.018202	0.001132	0.002529	-0.831299	0.127686	-0.261475	0.635625	-0.125543	-0.752730	-0.116694
52127		9.672160	0.211769	-1.632022	0.015320	-0.001031	0.002353	-0.831299	0.117188	-0.278809	0.635556	-0.125508	-0.752848	-0.116344
52128		9.685047	0.197265	-1.621339	0.006263	0.000987	-0.001630	-0.834717	0.119873	-0.276123	0.635628	-0.125484	-0.752796	-0.116312
52129		9.671401	0.184805	-1.594723	0.006954	0.000498	-0.002700	-0.837158	0.122803	-0.272705	0.635658	-0.125474	-0.752780	-0.116260
52130		9.665967	0.169257	-1.608556	0.013201	0.001433	-0.002925	-0.840088	0.123291	-0.273926	0.635670	-0.125435	-0.752798	-0.116123
52131		9.668065	0.156232	-1.627917	0.013597	0.002287	-0.004105	-0.828857	0.129395	-0.272949	0.635687	-0.125404	-0.752806	-0.116012
52132		9.683102	0.129344	-1.636227	0.013829	0.003760	-0.003933	-0.836426	0.115234	-0.274170	0.635757	-0.125430	-0.752769	-0.115844
52133		9.679202	0.137870	-1.636776	0.023093	0.004657	-0.000450	-0.836426	0.121826	-0.287354	0.635828	-0.125222	-0.752777	-0.115624
52134		9.690311	0.168596	-1.607646	0.020658	0.005384	0.001126	-0.832764	0.121582	-0.277344	0.636015	-0.125238	-0.752634	-0.115510
52135		9.660485	0.157462	-1.583799	0.012565	0.002486	0.003147	-0.836670	0.122559	-0.277588	0.636092	-0.125259	-0.752589	-0.115356
52136		9.666131	0.153306	-1.610003	0.015379	0.004449	0.008940	-0.829834	0.125244	-0.267822	0.636187	-0.125332	-0.752529	-0.115145
52137		9.679202	0.136200	-1.598330	0.013894	0.003240	0.012368	-0.833252	0.127930	-0.273926	0.636219	-0.125396	-0.752543	-0.114804
52138		9.667830	0.138580	-1.593317	0.019052	0.003823	0.014389	-0.834717	0.127686	-0.280762	0.636305	-0.125524	-0.752501	-0.114460
52139		9.678276	0.135115	-1.611761	0.020200	0.003263	0.019220	-0.828125	0.126465	-0.273926	0.636443	-0.125730	-0.752401	-0.114128
52140		9.667680	0.148107	-1.600327	0.018796	0.005686	0.020682	-0.829590	0.125977	-0.268066	0.636570	-0.125868	-0.752332	-0.113726
52141		9.689029	0.143541	-1.587845	0.014583	0.004657	0.018433	-0.832031	0.128174	-0.268555	0.636622	-0.125967	-0.752329	-0.113338
52142		9.687962	0.146542	-1.601918	0.015982	0.003722	0.014889	-0.838867	0.127686	-0.278076	0.636657	-0.126063	-0.752337	-0.112978
52143		9.675208	0.124563	-1.608991	0.018938	0.006085	0.009433	-0.841797	0.125732	-0.279297	0.636762	-0.126142	-0.752272	-0.112735
52144		9.669403	0.125967	-1.630529	0.010330	0.004594	0.007694	-0.831787	0.124512	-0.281250	0.636833	-0.126258	-0.752211	-0.112605
52145		9.678832	0.099520	-1.612019	0.008158	-0.001403	-0.000003	-0.825928	0.129883	-0.275146	0.636883	-0.126298	-0.752173	-0.112535
52146		9.665781	0.099677	-1.579508	0.012479	-0.000082	-0.006189	-0.836182	0.130127	-0.277344	0.636918	-0.126263	-0.752170	-0.112400
52147		9.680113	0.093715	-1.596887	0.014745	0.002771	-0.010577	-0.829102	0.132080	-0.281494	0.636957	-0.126204	-0.752157	-0.112331
52148		9.677291	0.064549	-1.580080	0.011675	0.002660	-0.010071	-0.830566	0.130615	-0.266846	0.637048	-0.126215	-0.752083	-0.112296
52149		9.677184	0.034041	-1.577068	0.015313	0.000043	-0.008947	-0.832520	0.130371	-0.277832	0.637003	-0.126088	-0.752172	-0.112096
52150		9.671806	0.051907	-1.593942	0.021092	-0.001959	-0.009512	-0.833008	0.120361	-0.264648	0.637025	-0.125996	-0.752192	-0.111945
52151		9.684005	0.077578	-1.551190	0.017544	0.001327	-0.008447	-0.823975	0.129639	-0.273193	0.636969	-0.125706	-0.752320	-0.111728
52152		9.685549	0.084646	-1.579203	0.009675	0.003291	-0.001193	-0.828369	0.117188	-0.280029	0.637027	-0.125730	-0.752290	-0.111572
52153		9.687454	0.057233	-1.555036	0.012736	-0.001506	-0.003268	-0.827148	0.124512	-0.273926	0.637076	-0.125575	-0.752291	-0.111460
52154		9.678035	0.082869	-1.573448	0.013532	0.000191	-0.005633	-0.827393	0.125977	-0.277588	0.637097	-0.125466	-0.752313	-0.111316
52155		9.681565	0.127115	-1.583808	0.007833	-0.002054	-0.004444	-0.832031	0.131348	-0.268066	0.637117	-0.125456	-0.752310	-0.111234
52156		9.682090	0.108138	-1.575209	-0.002596	-0.000562	-0.004213	-0.833740	0.124268	-0.273193	0.637047	-0.125576	-0.752352	-0.111210
52157		9.672907	0.068464	-1.538708	-0.006221	-0.004292	-0.006226	-0.832275	0.128418	-0.278320	0.636967	-0.125627	-0.752403	-0.111265
52158		9.688454	0.069520	-1.586170	-0.008541	-0.006240	-0.008919	-0.834717	0.133301	-0.271484	0.636908	-0.125756	-0.752414	-0.111386
52159		9.689355	0.032674	-1.570109	-0.009372	-0.008463	-0.012963	-0.838623	0.132812	-0.278564	0.636763	-0.125904	-0.752493	-0.111517
52160		9.682953	0.025916	-1.550507	-0.004740	-0.001609	-0.011744	-0.822754	0.120605	-0.274170	0.636735	-0.126045	-0.752473	-0.111654
52161		9.666608	0.045736	-1.598553	-0.001569	-0.005689	-0.013034	-0.837646	0.131104	-0.273438	0.636689	-0.125927	-0.752525	-0.111693
52162		9.671690	0.032507	-1.583636	0.001019	-0.008562	-0.012470	-0.831055	0.130127	-0.281982	0.636569	-0.125978	-0.752611	-0.111740
52163		9.690451	0.031760	-1.595350	0.004717	-0.006120	-0.013998	-0.836426	0.135010	-0.263428	0.636563	-0.125996	-0.752604	-0.111800
52164		9.670578	0.090822	-1.598267	0.011720	-0.003563	-0.013788	-0.830566	0.123535	-0.277100	0.636440	-0.125949	-0.752731	-0.111703
52165		9.672490	0.112618	-1.621565	0.008668	-0.003634	-0.014684	-0.827637	0.128174	-0.287842	0.636429	-0.125810	-0.752763	-0.111704
52166		9.678336	0.111735	-1.600012	-0.001964	-0.006537	-0.011852	-0.831055	0.125977	-0.275635	0.636465	-0.125904	-0.752697	-0.111838
52167		9.665778	0.108871	-1.603643	-0.005123	-0.007322	-0.013533	-0.833984	0.128662	-0.279297	0.636387	-0.125924	-0.752743	-0.111949
52168		9.664740	0.100451	-1.611732	-0.003304	-0.008839	-0.017584	-0.829834	0.125488	-0.273926	0.636310	-0.125956	-0.752779	-0.112104
52169		9.686253	0.053924	-1.590175	0.000990	-0.002639	-0.020810	-0.828857	0.125488	-0.280029	0.636270	-0.125838	-0.752818	-0.112211
52170		9.662324	0.058821	-1.588468	0.010286	-0.001601	-0.020154	-0.833252	0.127930	-0.273438	0.636301	-0.125686	-0.752809	-0.112262
52171		9.664179	0.068202	-1.568058	0.005705	-0.004930	-0.020535	-0.827881	0.125977	-0.278320	0.636233	-0.125580	-0.752875	-0.112324
52172		9.674108	0.073737	-1.588885	0.007995	-0.007981	-0.016597	-0.833008	0.126953	-0.275635	0.636197	-0.125492	-0.752917	-0.112345
52173		9.679779	0.119274	-1.614489	0.007420	-0.008254	-0.012658	-0.831787	0.126709	-0.273193	0.636130	-0.125456	-0.752981	-0.112337
52174		9.685416	0.164019	-1.640138	0.005117	-0.008253	-0.009616	-0.840820	0.124023	-0.269043	0.636051	-0.125451	-0.753052	-0.112309
52175		9.661945	0.164690	-1.589927	-0.004535	-0.006622	-0.008247	-0.832520	0.118164	-0.276367	0.635920	-0.125488	-0.753150	-0.112359
52176		9.668466	0.171339	-1.646783	-0.010290	-0.004547	-0.010489	-0.823486	0.128174	-0.279785	0.635872	-0.125494	-0.753167	-0.112507
52177		9.672335	0.133736	-1.644228	-0.018105	-0.010815	-0.012655	-0.829834	0.123535	-0.275635	0.635802	-0.125690	-0.753158	-0.112740
52178		9.658500	0.093346	-1.616984	-0.005315	-0.007160	-0.020010	-0.827637	0.122803	-0.277100	0.635730	-0.125637	-0.753203	-0.112907
52179		9.671565	0.143250	-1.647947	0.001469	-0.006007	-0.021381	-0.836182	0.123291	-0.271973	0.635695	-0.125512	-0.753236	-0.113026
52180		9.667159	0.157493	-1.650651	0.000374	-0.003357	-0.024704	-0.828125	0.124756	-0.275146	0.635618	-0.125361	-0.753303	-0.113179
52181		9.677125	0.164836	-1.670599	-0.009130	-0.002405	-0.023275	-0.841309	0.122559	-0.275391	0.635584	-0.125324	-0.753303	-0.113410
52182		9.640898	0.164784	-1.670845	-0.015792	-0.002796	-0.022528	-0.835449	0.127197	-0.276855	0.635500	-0.125342	-0.753323	-0.113730
52183		9.678956	0.149320	-1.647883	-0.022741	-0.003328	-0.019810	-0.831543	0.128174	-0.275146	0.635432	-0.125502	-0.753299	-0.114088
52184		9.658450	0.133371	-1.651184	-0.019011	-0.005312	-0.015091	-0.833740	0.128418	-0.278320	0.635359	-0.125680	-0.753291	-0.114353
52185		9.670445	0.143771	-1.650105	-0.007627	-0.002240	-0.015406	-0.832764	0.122070	-0.273926	0.635348	-0.125781	-0.753254	-0.114542
52186		9.686152	0.132911	-1.652776	-0.007479	0.002046	-0.015184	-0.830566	0.122314	-0.271240	0.635350	-0.125776	-0.753228	-0.114708
52187		9.677471	0.186585	-1.658758	0.002826	-0.003619	-0.017067	-0.826660	0.126953	-0.276855	0.635301	-0.125666	-0.753280	-0.114762
52188		9.661315	0.219736	-1.700324	-0.003748	-0.001825	-0.017615	-0.829346	0.123535	-0.267822	0.635307	-0.125683	-0.753250	-0.114908
52189		9.660115	0.186114	-1.669825	-0.020424	-0.004789	-0.020782	-0.830566	0.121338	-0.272949	0.635187	-0.125726	-0.753301	-0.115188
52190		9.674337	0.189198	-1.603501	-0.022402	0.000457	-0.023766	-0.836914	0.119141	-0.266602	0.635140	-0.125750	-0.753281	-0.115550
52191		9.672043	0.146547	-1.627807	-0.009639	0.002575	-0.026222	-0.843994	0.119629	-0.274414	0.635070	-0.125604	-0.753326	-0.115798
52192		9.682244	0.154572	-1.646257	-0.012498	0.003860	-0.024134	-0.829346	0.127930	-0.263672	0.635042	-0.125551	-0.753310	-0.116113
52193		9.677488	0.157801	-1.653480	-0.017409	-0.000175	-0.027563	-0.831787	0.116943	-0.267090	0.634937	-0.125561	-0.753350	-0.116420
52194		9.654534	0.144970	-1.642155	-0.008525	0.001535	-0.027811	-0.839600	0.122803	-0.276611	0.634876	-0.125372	-0.753395	-0.116659
52195		9.669884	0.124569	-1.650272	-0.006519	0.004826	-0.025224	-0.829346	0.124512	-0.276855	0.634895	-0.125310	-0.753349	-0.116926
52196		9.681442	0.142854	-1.612404	-0.001451	0.004794	-0.025406	-0.836182	0.125977	-0.264160	0.634950	-0.125219	-0.753286	-0.117127
52197		9.682545	0.173021	-1.598989	0.007999	0.003663	-0.021203	-0.836914	0.118408	-0.269287	0.634914	-0.125084	-0.753332	-0.117169
52198		9.670254	0.185266	-1.643347	0.015749	0.006382	-0.018458	-0.840576	0.121094	-0.270264	0.634950	-0.124834	-0.753348	-0.117135
52199		9.667738	0.190051	-1.628168	0.011681	0.008062	-0.016985	-0.834717	0.124268	-0.269531	0.634994	-0.124674	-0.753336	-0.117146
52200		9.678080	0.239850	-1.642331	0.006430	0.005189	-0.016300	-0.830566	0.121582	-0.277344	0.635014	-0.124602	-0.753325	-0.117186
52201		9.662797	0.225829	-1.635984	0.005400	0.003435	-0.014778	-0.827393	0.129395	-0.275879	0.635078	-0.124540	-0.753273	-0.117240
52202		9.666599	0.208261	-1.639840	0.010483	0.003465	-0.016367	-0.830322	0.116455	-0.264160	0.635146	-0.124521	-0.753216	-0.117261
52203		9.676467	0.276601	-1.613750	0.006357	0.004598	-0.019912	-0.838623	0.128174	-0.267822	0.635132	-0.124290	-0.753263	-0.117281
52204		9.677558	0.261444	-1.603710	-0.001392	0.005337	-0.020406	-0.833496	0.124756	-0.271973	0.635112	-0.124300	-0.753253	-0.117439
52205		9.674737	0.236803	-1.636207	-0.004963	0.003566	-0.018090	-0.835449	0.124268	-0.268799	0.635112	-0.124329	-0.753222	-0.117612
52206		9.671107	0.217827	-1.634311	-0.000521	0.002703	-0.019339	-0.833008	0.122559	-0.278809	0.635084	-0.124296	-0.753230	-0.117740
52207		9.675332	0.213784	-1.632272	0.002584	0.001423	-0.019176	-0.833740	0.117432	-0.273438	0.635117	-0.124258	-0.753188	-0.117875
52208		9.654283	0.216946	-1.642811	0.003813	0.004600	-0.019124	-0.835205	0.117432	-0.267822	0.635146	-0.124116	-0.753172	-0.117966
52209		9.694165	0.206962	-1.646407	0.005350	0.006440	-0.018959	-0.837646	0.115723	-0.270020	0.635159	-0.123943	-0.753182	-0.118019
52210		9.681681	0.196840	-1.568398	0.010124	0.007821	-0.020661	-0.833252	0.114014	-0.268799	0.635195	-0.123706	-0.753185	-0.118053
52211		9.671001	0.200977	-1.597226	0.022116	0.006744	-0.017241	-0.836914	0.120850	-0.281250	0.635248	-0.123382	-0.753212	-0.117930
52212		9.668007	0.192343	-1.588510	0.021683	0.005718	-0.011827	-0.828369	0.121338	-0.270264	0.635363	-0.123253	-0.753151	-0.117840
52213		9.695614	0.217663	-1.590421	0.025969	0.007453	-0.007382	-0.819092	0.111328	-0.260742	0.635461	-0.123099	-0.753127	-0.117625
52214		9.677679	0.272220	-1.604157	0.034097	0.006003	-0.003165	-0.836914	0.117676	-0.272217	0.635531	-0.122748	-0.753190	-0.117214
52215		9.671305	0.293547	-1.584709	0.028957	0.007344	-0.000850	-0.834229	0.119141	-0.276367	0.635630	-0.122598	-0.753175	-0.116929
52216		9.684579	0.292855	-1.615792	0.023446	0.007877	0.001242	-0.844238	0.125244	-0.271240	0.635759	-0.122541	-0.753111	-0.116695
52217		9.671300	0.292299	-1.631168	0.015943	0.007034	0.006500	-0.836182	0.117676	-0.274902	0.635818	-0.122670	-0.753070	-0.116506
52218		9.656246	0.343568	-1.658421	0.006757	0.006614	0.006627	-0.834229	0.117188	-0.274414	0.635901	-0.122768	-0.753003	-0.116376
52219		9.656542	0.342346	-1.656953	-0.019307	0.005104	0.005654	-0.836426	0.117432	-0.276123	0.635930	-0.123054	-0.752915	-0.116491
52220		9.675650	0.313319	-1.628300	-0.034164	0.001982	-0.002274	-0.831787	0.122070	-0.276367	0.635899	-0.123390	-0.752836	-0.116812
52221		9.691857	0.287725	-1.586504	-0.032048	0.002206	-0.011814	-0.829102	0.117432	-0.273682	0.635871	-0.123680	-0.752752	-0.117203
52222		9.689414	0.249205	-1.575296	-0.024181	0.005411	-0.020349	-0.836670	0.121826	-0.275635	0.635865	-0.123746	-0.752690	-0.117562
52223		9.672178	0.206849	-1.552081	-0.010426	0.007349	-0.027250	-0.834717	0.120361	-0.280762	0.635880	-0.123705	-0.752634	-0.117883
52224		9.663787	0.230980	-1.553262	-0.000600	0.008676	-0.027714	-0.834473	0.118408	-0.278564	0.635955	-0.123578	-0.752552	-0.118128
52225		9.678809	0.242365	-1.562956	-0.001250	0.006173	-0.022465	-0.827881	0.126709	-0.275635	0.636001	-0.123480	-0.752500	-0.118320
52226		9.660056	0.263196	-1.545757	-0.010387	0.002765	-0.018168	-0.831055	0.118652	-0.271973	0.636003	-0.123607	-0.752438	-0.118573
52227		9.678498	0.239849	-1.567279	-0.013200	0.002645	-0.016814	-0.835693	0.114746	-0.270020	0.635975	-0.123647	-0.752419	-0.118798
52228		9.673197	0.215752	-1.586384	-0.001958	0.005054	-0.016484	-0.832031	0.118408	-0.271240	0.635968	-0.123538	-0.752427	-0.118899
52229		9.694677	0.233300	-1.567731	0.007367	0.004759	-0.015134	-0.832275	0.113281	-0.280273	0.635988	-0.123427	-0.752425	-0.118921
52230		9.671950	0.272957	-1.546191	0.005530	0.002705	-0.011914	-0.827393	0.121338	-0.270508	0.636041	-0.123320	-0.752394	-0.118944
52231		9.671951	0.275853	-1.545669	-0.011634	0.001439	-0.011061	-0.835449	0.112549	-0.269287	0.636011	-0.123449	-0.752371	-0.119117
52232		9.678854	0.200469	-1.573004	-0.021581	0.000891	-0.013487	-0.832764	0.118652	-0.282227	0.635935	-0.123506	-0.752387	-0.119363
52233		9.679516	0.102509	-1.586010	-0.010369	-0.000332	-0.011175	-0.837402	0.115234	-0.275146	0.635945	-0.123615	-0.752330	-0.119553
52234		9.679571	0.105007	-1.585508	0.007026	0.004441	-0.008924	-0.833740	0.122803	-0.270264	0.635982	-0.123536	-0.752315	-0.119533
52235		9.695248	0.136391	-1.583574	0.020721	0.004627	-0.006669	-0.823730	0.122559	-0.269287	0.636022	-0.123466	-0.752316	-0.119384
52236		9.676195	0.223567	-1.599846	0.025721	0.009533	-0.005266	-0.828613	0.116699	-0.276123	0.636134	-0.123359	-0.752272	-0.119175
52237		9.667822	0.241291	-1.601394	0.018973	0.004836	-0.006163	-0.829102	0.114746	-0.281250	0.636219	-0.123234	-0.752245	-0.119023
52238		9.675703	0.257316	-1.600043	0.006624	0.003518	-0.006330	-0.834229	0.122070	-0.272705	0.636299	-0.123191	-0.752189	-0.118993
52239		9.684759	0.253972	-1.589804	0.001416	0.004242	-0.007630	-0.828125	0.120117	-0.276611	0.636313	-0.123263	-0.752159	-0.119037
52240		9.680270	0.252065	-1.596405	-0.000218	0.005212	-0.007745	-0.829834	0.115723	-0.276123	0.636369	-0.123326	-0.752091	-0.119098
52241		9.672862	0.251660	-1.590137	0.008862	-0.000601	-0.012420	-0.826904	0.127686	-0.270752	0.636372	-0.123214	-0.752110	-0.119076
52242		9.675627	0.253312	-1.603461	0.003688	0.002209	-0.012200	-0.836182	0.124512	-0.277100	0.636364	-0.123309	-0.752088	-0.119157
52243		9.671582	0.276941	-1.598582	0.000394	0.000506	-0.010447	-0.839111	0.117188	-0.277588	0.636355	-0.123416	-0.752063	-0.119259
52244		9.665385	0.257277	-1.583318	-0.003584	0.004471	-0.013110	-0.834961	0.114746	-0.276123	0.636372	-0.123414	-0.752028	-0.119387
52245		9.696331	0.224962	-1.559031	-0.000315	0.002536	-0.012880	-0.837158	0.118896	-0.273193	0.636379	-0.123352	-0.752021	-0.119457
52246		9.677513	0.270077	-1.579801	0.003548	0.002943	-0.013672	-0.829834	0.109131	-0.274414	0.636373	-0.123304	-0.752026	-0.119511
52247		9.665158	0.254624	-1.587534	0.000448	0.000687	-0.014685	-0.825195	0.114014	-0.271729	0.636366	-0.123137	-0.752054	-0.119542
52248		9.682994	0.248493	-1.568736	0.002196	0.000488	-0.015193	-0.828857	0.117920	-0.275391	0.636352	-0.123024	-0.752078	-0.119584
52249		9.694761	0.246229	-1.572344	0.007539	0.004183	-0.016501	-0.842529	0.119629	-0.278320	0.636387	-0.122921	-0.752057	-0.119631
52250		9.688707	0.227266	-1.556391	0.012498	0.007015	-0.016621	-0.828125	0.115479	-0.279297	0.636443	-0.122801	-0.752025	-0.119659
52251		9.684757	0.251614	-1.550472	0.015498	0.004988	-0.015826	-0.838379	0.126221	-0.273682	0.636521	-0.122617	-0.751995	-0.119626
52252		9.670520	0.300385	-1.563129	0.014956	0.004795	-0.014698	-0.837891	0.115234	-0.277832	0.636541	-0.122593	-0.751980	-0.119639
52253		9.669008	0.310988	-1.577509	0.006408	0.001650	-0.014353	-0.830322	0.113281	-0.267578	0.636547	-0.122495	-0.751985	-0.119672
52254		9.673012	0.267090	-1.544489	0.004789	-0.000908	-0.015307	-0.841553	0.111572	-0.284424	0.636489	-0.122351	-0.752058	-0.119672
52255		9.690649	0.274392	-1.569223	0.011916	0.003131	-0.012098	-0.833008	0.111328	-0.279297	0.636550	-0.122193	-0.752037	-0.119637
52256		9.682242	0.306093	-1.565409	0.011403	0.005023	-0.009450	-0.837646	0.119629	-0.278320	0.636621	-0.122052	-0.752010	-0.119571
52257		9.670529	0.313990	-1.560393	-0.001847	0.002654	-0.008711	-0.828857	0.105713	-0.276611	0.636632	-0.122145	-0.751970	-0.119670
52258		9.677343	0.282042	-1.583580	-0.012714	0.004577	-0.009399	-0.843750	0.105469	-0.274902	0.636659	-0.122113	-0.751934	-0.119786
52259		9.679829	0.232473	-1.570786	-0.001735	0.003425	-0.009335	-0.823486	0.113770	-0.280762	0.636654	-0.121987	-0.751958	-0.119795
52260		9.684692	0.250689	-1.556304	0.012994	0.001922	-0.009438	-0.838379	0.115723	-0.277344	0.636722	-0.121879	-0.751929	-0.119724
52261		9.674449	0.277253	-1.574076	0.012422	0.003223	-0.010404	-0.835938	0.112549	-0.286377	0.636752	-0.121785	-0.751927	-0.119676
52262		9.692696	0.308446	-1.585630	0.010147	0.006864	-0.010758	-0.838135	0.115967	-0.274658	0.636865	-0.121663	-0.751854	-0.119653
52263		9.680870	0.304349	-1.586013	0.005620	0.007036	-0.011722	-0.840088	0.114746	-0.273438	0.636902	-0.121610	-0.751826	-0.119684
52264		9.685466	0.298740	-1.582498	0.004383	0.008926	-0.014444	-0.831543	0.121582	-0.283203	0.636941	-0.121522	-0.751798	-0.119743
52265		9.682984	0.315494	-1.561268	0.000003	0.004784	-0.013357	-0.837891	0.114014	-0.281494	0.636999	-0.121589	-0.751715	-0.119884
52266		9.685017	0.336268	-1.532540	-0.006322	0.006585	-0.014500	-0.829590	0.113281	-0.282959	0.637044	-0.121588	-0.751651	-0.120051
52267		9.686491	0.320216	-1.521929	-0.012185	0.006319	-0.014052	-0.824463	0.112793	-0.275635	0.637101	-0.121635	-0.751560	-0.120268
52268		9.684469	0.294782	-1.554100	-0.015097	0.003441	-0.016420	-0.835693	0.115967	-0.277588	0.637095	-0.121679	-0.751519	-0.120512
52269		9.677089	0.296993	-1.547139	-0.006339	0.006127	-0.020945	-0.841797	0.106201	-0.280518	0.637108	-0.121645	-0.751478	-0.120734
52270		9.676566	0.291574	-1.601764	0.001773	0.004262	-0.023137	-0.831543	0.105957	-0.277588	0.637120	-0.121399	-0.751490	-0.120844
52271		9.678745	0.339106	-1.561188	0.014201	0.004344	-0.025104	-0.831299	0.108643	-0.273193	0.637152	-0.121043	-0.751520	-0.120850
52272		9.668454	0.381949	-1.572597	0.015355	0.003372	-0.028099	-0.831787	0.104492	-0.270996	0.637147	-0.120697	-0.751574	-0.120884
52273		9.686300	0.379193	-1.552832	0.003817	0.005860	-0.030558	-0.838379	0.111816	-0.273438	0.637133	-0.120370	-0.751615	-0.121028
52274		9.656319	0.362892	-1.535340	-0.006113	0.000030	-0.027495	-0.833252	0.114746	-0.278320	0.637051	-0.120262	-0.751661	-0.121284
52275		9.678305	0.339520	-1.521163	-0.015927	-0.001387	-0.027053	-0.837646	0.114258	-0.276611	0.636975	-0.120280	-0.751663	-0.121646
52276		9.683736	0.293103	-1.522710	-0.013294	0.001403	-0.024121	-0.841309	0.111572	-0.286377	0.636918	-0.120295	-0.751658	-0.121963
52277		9.687912	0.265966	-1.532445	-0.009218	0.005404	-0.023227	-0.830566	0.108643	-0.278320	0.636952	-0.120233	-0.751596	-0.122224
52278		9.682276	0.273758	-1.503815	-0.006838	0.008154	-0.021142	-0.829346	0.114014	-0.282959	0.636997	-0.120148	-0.751538	-0.122434
52279		9.697361	0.296922	-1.507112	-0.002041	0.008103	-0.020740	-0.835693	0.116943	-0.275146	0.637072	-0.120099	-0.751450	-0.122632
52280		9.684110	0.327675	-1.510290	0.001947	0.005727	-0.021576	-0.839355	0.111572	-0.282715	0.637074	-0.120058	-0.751425	-0.122811
52281		9.691676	0.348555	-1.508132	-0.000920	0.008643	-0.025838	-0.831543	0.108643	-0.276611	0.637128	-0.119920	-0.751366	-0.123027
52282		9.671097	0.339789	-1.473704	-0.001257	0.009534	-0.032410	-0.836670	0.102295	-0.282715	0.637163	-0.119696	-0.751331	-0.123280
52283		9.685987	0.353940	-1.482701	0.009336	0.010780	-0.039587	-0.837158	0.104980	-0.281494	0.637238	-0.119234	-0.751312	-0.123458
52284		9.672237	0.366250	-1.546767	0.026529	0.014024	-0.048177	-0.840332	0.107666	-0.276855	0.637346	-0.118596	-0.751303	-0.123568
52285		9.676605	0.444674	-1.555185	0.029458	0.012964	-0.053105	-0.832520	0.100830	-0.279297	0.637407	-0.117941	-0.751331	-0.123710
52286		9.671901	0.502591	-1.536248	0.027350	0.008256	-0.057294	-0.828857	0.108643	-0.271973	0.637442	-0.117201	-0.751392	-0.123865
52287		9.659511	0.496457	-1.543302	0.025727	0.003561	-0.058367	-0.832031	0.103027	-0.281982	0.637390	-0.116606	-0.751489	-0.124102
52288		9.690670	0.498069	-1.457362	0.029432	0.001061	-0.057228	-0.835449	0.110840	-0.275879	0.637371	-0.115918	-0.751586	-0.124258
52289		9.678344	0.454163	-1.483812	0.033771	0.001563	-0.054913	-0.832520	0.095947	-0.285400	0.637323	-0.115343	-0.751689	-0.124416
52290		9.694411	0.425357	-1.498801	0.038239	-0.001998	-0.039820	-0.828125	0.103271	-0.279297	0.637333	-0.114688	-0.751797	-0.124316
52291		9.674801	0.397266	-1.508701	0.027821	-0.007223	-0.022694	-0.838623	0.094727	-0.278809	0.637276	-0.114407	-0.751903	-0.124229
52292		9.677409	0.422542	-1.462334	0.003999	-0.008601	-0.005378	-0.834717	0.095215	-0.275146	0.637185	-0.114361	-0.751998	-0.124159
52293		9.696656	0.381891	-1.492537	-0.022469	-0.010832	0.013360	-0.838135	0.108643	-0.279785	0.637053	-0.114722	-0.752050	-0.124192
52294		9.692398	0.299485	-1.538953	-0.026750	-0.009824	0.027573	-0.834473	0.106689	-0.279053	0.636958	-0.115411	-0.752016	-0.124246
52295		9.689204	0.318995	-1.515684	-0.009688	-0.010593	0.030884	-0.830566	0.109131	-0.285645	0.636891	-0.115962	-0.752013	-0.124092
52296		9.674963	0.400722	-1.541811	0.007894	-0.003795	0.027634	-0.839844	0.102539	-0.278809	0.636947	-0.116352	-0.751949	-0.123830
52297		9.671570	0.459017	-1.549061	0.002794	-0.006473	0.021237	-0.839844	0.099121	-0.276123	0.636917	-0.116619	-0.751972	-0.123591
52298		9.677740	0.438851	-1.533526	-0.015104	-0.004421	0.016102	-0.835938	0.106934	-0.275635	0.636862	-0.116924	-0.751981	-0.123531
52299		9.685562	0.399396	-1.508817	-0.018147	-0.006198	0.020129	-0.836426	0.108154	-0.280518	0.636793	-0.117397	-0.751967	-0.123524
52300		9.674974	0.381872	-1.546522	-0.013798	-0.003634	0.023970	-0.836670	0.104736	-0.283936	0.636783	-0.117871	-0.751912	-0.123459
52301		9.663207	0.356539	-1.555382	-0.007510	-0.003483	0.030885	-0.838623	0.117188	-0.271729	0.636813	-0.118302	-0.751853	-0.123252
52302		9.705244	0.365020	-1.527183	-0.003660	-0.002628	0.037962	-0.834229	0.108154	-0.288574	0.636800	-0.118921	-0.751804	-0.123021
52303		9.693375	0.423048	-1.542984	0.003143	-0.001939	0.053024	-0.834961	0.112061	-0.282715	0.636919	-0.119500	-0.751685	-0.122567
52304		9.640344	0.472163	-1.531692	-0.001216	-0.001593	0.066426	-0.830566	0.115723	-0.274170	0.637024	-0.120271	-0.751557	-0.122055
52305		9.627401	0.444733	-1.555656	-0.014123	-0.005376	0.067265	-0.834717	0.103516	-0.277588	0.637042	-0.121187	-0.751460	-0.121655
52306		9.694469	0.442940	-1.614476	0.002206	-0.005049	0.053795	-0.833008	0.115967	-0.283447	0.637084	-0.121658	-0.751436	-0.121107
52307		9.633539	0.456967	-1.665509	0.036840	0.003033	0.032499	-0.835449	0.114258	-0.284180	0.637245	-0.121794	-0.751373	-0.120516
52308		9.631560	0.526452	-1.615313	0.031141	0.002412	0.005897	-0.831787	0.117676	-0.276123	0.637351	-0.121694	-0.751354	-0.120171
52309		9.627141	0.535225	-1.616725	0.027082	0.002850	-0.017652	-0.835205	0.115967	-0.280518	0.637385	-0.121450	-0.751381	-0.120067
52310		9.600016	0.529509	-1.607217	0.039476	0.001161	-0.046840	-0.833740	0.114502	-0.277100	0.637393	-0.120816	-0.751476	-0.120072
52311		9.586210	0.593939	-1.550552	0.052691	0.002629	-0.095488	-0.833496	0.116699	-0.277832	0.637348	-0.119612	-0.751665	-0.120336
52312		9.553933	0.716176	-1.579317	0.041896	0.000102	-0.184223	-0.836182	0.103516	-0.278320	0.637127	-0.117723	-0.751973	-0.121441
52313		9.391284	0.871071	-1.685952	0.053904	0.001529	-0.320974	-0.840332	0.103027	-0.283203	0.636727	-0.114327	-0.752507	-0.123453
52314		9.183960	0.985431	-1.781833	0.095306	-0.004061	-0.517440	-0.840576	0.084961	-0.281982	0.636023	-0.108843	-0.753378	-0.126687
52315		8.817072	1.246687	-1.786449	0.165322	0.002489	-0.768443	-0.831543	0.072266	-0.279785	0.635034	-0.100336	-0.754618	-0.131208
52316		8.290589	1.772036	-1.624074	0.199444	-0.005370	-1.090108	-0.847900	0.042725	-0.279297	0.633396	-0.088592	-0.756256	-0.137976
52317		7.572926	2.655905	-1.391944	0.118379	-0.038834	-1.485906	-0.850830	0.010498	-0.282959	0.630479	-0.073697	-0.758293	-0.148514
52318		7.115497	3.526748	-1.083540	-0.275467	-0.155493	-1.968889	-0.842773	-0.038086	-0.281494	0.624909	-0.057521	-0.760578	-0.166437
52319		7.635732	3.773149	-1.400969	-0.913913	-0.279708	-2.473594	-0.848633	-0.077393	-0.276367	0.616141	-0.041640	-0.762205	-0.194114
52320		8.050302	2.460868	-1.211668	-1.407861	-0.266761	-2.668123	-0.842529	-0.127930	-0.270752	0.605970	-0.027718	-0.761666	-0.227809
52321		6.510804	1.416947	0.163658	-1.194635	0.138157	-2.677303	-0.841064	-0.182861	-0.279785	0.598850	-0.010842	-0.757632	-0.259335
52322		4.570384	2.318473	-0.731852	-0.827638	0.135250	-2.567547	-0.830811	-0.232666	-0.285645	0.591364	0.007826	-0.753865	-0.286206
52323		4.838901	5.643405	-1.784298	-0.612221	0.207665	-2.603314	-0.815674	-0.269531	-0.291748	0.583734	0.028693	-0.749487	-0.310968
52324		7.422474	6.327183	-1.542958	-0.327045	0.095745	-2.822394	-0.794434	-0.339111	-0.303955	0.573391	0.053059	-0.746058	-0.334373
52325		6.394091	0.529936	-1.166736	1.019949	0.281543	-2.429018	-0.775635	-0.391113	-0.297363	0.564870	0.084266	-0.746269	-0.341912
52326		5.713586	2.474213	-3.416933	1.970788	0.152307	-1.800869	-0.759277	-0.450684	-0.289307	0.556198	0.115592	-0.751313	-0.335874
52327		10.329378	10.907998	-1.642690	1.571783	0.071296	-1.026666	-0.741699	-0.469971	-0.276123	0.550141	0.136365	-0.755713	-0.328096
52328		18.391858	17.135145	-1.991704	0.311675	-0.155824	-0.211606	-0.738281	-0.487793	-0.281006	0.547269	0.139725	-0.757687	-0.326932
52329		21.767212	12.249695	-2.860153	-0.724444	-0.126399	0.537706	-0.757568	-0.470215	-0.279785	0.549498	0.129011	-0.756476	-0.330381
52330		22.464889	5.852123	-3.232707	0.131815	0.199104	1.464394	-0.774658	-0.445801	-0.278564	0.557183	0.116852	-0.757865	-0.318643
52331		23.509538	6.421482	-3.540217	1.685691	0.605036	2.519672	-0.777588	-0.398926	-0.270752	0.570159	0.107082	-0.763456	-0.283879
52332		25.128186	10.510946	-3.895704	1.698717	0.845456	3.483497	-0.811768	-0.340820	-0.272217	0.587660	0.088751	-0.767176	-0.241287
52333		19.983399	12.610429	-3.235804	0.472028	0.801248	3.773081	-0.825928	-0.263672	-0.282471	0.605551	0.058299	-0.765992	-0.207763
52334		11.620310	9.321094	-1.080153	-0.336424	0.542162	3.494423	-0.834717	-0.187256	-0.285889	0.619500	0.023585	-0.762802	-0.183838
52335		4.923129	3.317260	-0.016888	-1.371672	0.398376	3.200765	-0.842041	-0.102783	-0.299072	0.630485	-0.016732	-0.756774	-0.171761
52336		-2.144457	-0.993290	-4.918027	-1.404322	-0.366643	3.148114	-0.837158	-0.016113	-0.275146	0.632910	-0.058434	-0.755269	-0.159936
52337		-1.085927	-0.310473	-3.523365	1.321257	-0.760896	2.637139	-0.836182	0.027832	-0.265869	0.631511	-0.074446	-0.761458	-0.125832
52338		3.377855	6.065656	0.710177	1.547032	0.227937	1.166756	-0.837646	0.044922	-0.267334	0.636776	-0.073050	-0.760775	-0.101989
52339		0.816730	6.748092	-1.479108	0.443138	0.185629	0.373286	-0.825928	0.049072	-0.273682	0.639404	-0.072942	-0.759495	-0.094919
52340		-1.265970	3.586033	-0.816220	-1.408416	-0.087982	0.256239	-0.829102	0.062500	-0.266113	0.637487	-0.086848	-0.758155	-0.106152
52341		-2.381177	0.829332	1.782928	-1.325303	-0.074384	-0.129783	-0.832764	0.064209	-0.252930	0.635079	-0.096392	-0.757008	-0.119674
52342		-1.293910	-0.755023	1.816078	-0.410585	-0.013126	-0.555047	-0.832764	0.052002	-0.256104	0.633602	-0.094539	-0.757122	-0.127972
52343		0.336042	0.120796	-1.271859	-0.145340	0.026822	-0.962916	-0.829346	0.038330	-0.265381	0.632098	-0.086655	-0.757737	-0.137033
52344		0.155194	0.570355	-1.833698	-0.332194	0.134732	-1.145939	-0.848389	0.015869	-0.266602	0.630983	-0.078320	-0.757234	-0.149406
52345		-0.316217	0.828517	-0.063542	-0.791331	0.164153	-1.107973	-0.848389	-0.005127	-0.268555	0.629601	-0.073884	-0.755415	-0.165807
52346		-0.051937	0.387251	0.479368	-0.959084	0.009125	-1.127778	-0.843262	-0.020020	-0.258301	0.626357	-0.070880	-0.754246	-0.183755
52347		0.921010	-1.004752	-0.467428	-0.890650	0.032144	-1.144330	-0.837402	-0.030762	-0.270752	0.623141	-0.067102	-0.752819	-0.201137
52348		1.223380	-1.360652	-1.374954	-0.743258	0.166767	-1.091204	-0.848877	-0.056152	-0.291748	0.621261	-0.062332	-0.750436	-0.216785
52349		2.223545	3.722209	-0.791073	0.274690	-0.012262	-1.489126	-0.840576	-0.085205	-0.291504	0.617218	-0.046394	-0.752272	-0.225780
52350		21.676317	3.965612	-4.595947	-1.282138	-0.273477	-1.554637	-0.846680	-0.101807	-0.302734	0.609315	-0.042581	-0.751388	-0.249677
52351		25.041357	6.374050	-7.739819	-0.283056	-0.435696	-1.391433	-0.847168	-0.141113	-0.284912	0.600625	-0.033203	-0.754390	-0.262760
52352		33.172355	23.679146	-4.216095	-0.149878	-0.732353	-2.471331	-0.844727	-0.196289	-0.278076	0.585238	-0.013547	-0.760007	-0.282316
52353		36.141289	-6.047662	1.601720	-1.129861	0.030145	-1.495003	-0.839844	-0.210693	-0.281982	0.579883	-0.007677	-0.755800	-0.304045
52354		33.465510	-4.890650	-4.417364	2.004464	0.596754	1.273381	-0.853271	-0.204346	-0.283203	0.590313	-0.003038	-0.758588	-0.275798
52355		30.807635	11.034203	-2.786495	2.135438	0.782564	2.580876	-0.837891	-0.161377	-0.289062	0.606226	-0.009103	-0.759373	-0.236135
52356		17.535554	9.528311	-2.576439	0.366707	0.917913	2.762510	-0.838867	-0.112061	-0.305664	0.622783	-0.029886	-0.752663	-0.211533
52357		9.232679	6.002397	-2.209745	1.345641	0.660665	2.507381	-0.837891	-0.053711	-0.308838	0.635759	-0.041281	-0.749630	-0.179338
52358		3.083780	2.531306	-1.675749	0.561758	0.380223	2.264701	-0.833496	-0.015381	-0.310791	0.644444	-0.057232	-0.746374	-0.156021
52359		-3.910696	0.279109	-4.893334	1.252308	-0.368400	1.971652	-0.837402	0.010742	-0.299561	0.645485	-0.066283	-0.750056	-0.127952
52360		-2.210996	5.795938	0.101724	2.260478	0.081239	0.885331	-0.823730	0.015869	-0.307129	0.649240	-0.056225	-0.751955	-0.099445
52361		-1.113283	9.561065	-1.028156	0.706498	-0.046602	-0.544286	-0.828613	-0.001709	-0.303223	0.648598	-0.045510	-0.753541	-0.097086
52362		0.516813	5.667004	-1.792416	-1.764089	-0.294702	-0.751689	-0.835938	-0.004395	-0.295410	0.643718	-0.053173	-0.753994	-0.119551
52363		0.626237	0.909089	2.143680	-1.968426	-0.077629	-0.503688	-0.827393	0.005127	-0.295654	0.640712	-0.064467	-0.751770	-0.142039
52364		-0.234772	-3.954207	0.914564	-0.907803	-0.173385	-0.543787	-0.836670	-0.002930	-0.277100	0.637333	-0.067061	-0.751899	-0.154780
52365		0.227535	-4.749539	-2.350782	-0.304830	-0.205337	-0.760198	-0.843506	-0.014404	-0.285156	0.633629	-0.062818	-0.753566	-0.163421
52366		0.696215	-0.953534	-2.090007	0.507886	0.016024	-0.915209	-0.844727	-0.043457	-0.281006	0.632263	-0.050228	-0.755135	-0.165805
52367		0.212388	2.802880	0.953065	0.821433	0.245159	-1.080243	-0.835205	-0.070312	-0.281494	0.632766	-0.033084	-0.755485	-0.166601
52368		-0.198871	2.845824	1.025574	0.430278	0.042993	-1.326125	-0.834229	-0.095947	-0.296631	0.630497	-0.017133	-0.756492	-0.172917
52369		0.588088	-1.172621	-0.353500	-0.186866	-0.521448	-1.553572	-0.837402	-0.139893	-0.282715	0.622052	-0.005166	-0.760352	-0.186787
52370		2.416372	-2.960834	-3.078508	0.111836	0.044673	-1.263370	-0.840820	-0.157715	-0.287842	0.619470	0.007745	-0.760251	-0.195486
52371		16.304294	4.596593	-1.613816	1.816619	0.228510	-0.603938	-0.839111	-0.183594	-0.297363	0.619833	0.028007	-0.762638	-0.182772
52372		31.405533	17.685017	-4.535693	0.072402	-0.080162	-0.546188	-0.833740	-0.199463	-0.308105	0.617809	0.033448	-0.763187	-0.186384
52373		31.784897	13.398090	-4.989804	-0.632257	-0.217040	-0.867122	-0.833740	-0.218506	-0.300293	0.613940	0.036117	-0.762897	-0.199402
52374		36.058050	8.956069	-4.048990	-0.361053	-0.119600	0.090904	-0.830811	-0.206787	-0.298584	0.613191	0.032014	-0.762910	-0.202336
52375		34.204651	5.946356	-3.775233	-0.169395	0.067853	1.696168	-0.838135	-0.175049	-0.293945	0.618073	0.014544	-0.762435	-0.190963
52376		25.465914	5.374362	-3.589137	-0.146535	0.026707	2.437656	-0.846924	-0.121826	-0.293213	0.623907	-0.009854	-0.761954	-0.173402
52377		12.453115	4.444375	-2.867766	0.354307	-0.173267	2.338048	-0.851074	-0.060791	-0.285889	0.627117	-0.029810	-0.763442	-0.151632
52378		5.431411	6.802366	-1.541260	0.398110	-0.295859	2.039204	-0.838135	-0.022949	-0.259766	0.628110	-0.046800	-0.765485	-0.131609
52379		-3.493989	9.537883	-0.048114	-0.936701	-0.087359	1.071069	-0.844238	0.009766	-0.260498	0.628388	-0.064600	-0.763900	-0.131959
52380		-6.444767	8.020779	0.416109	-2.238335	-0.175311	-0.702596	-0.848877	0.006104	-0.249756	0.623472	-0.075842	-0.761823	-0.158609
52381		0.487527	-5.046813	-1.498447	-2.191521	-0.356707	-1.239469	-0.843750	-0.001221	-0.239746	0.615210	-0.081895	-0.761053	-0.188701
52382		3.270148	-10.216542	0.253659	-0.155806	-0.036942	-0.440515	-0.845459	-0.012695	-0.239014	0.613640	-0.079103	-0.761412	-0.193498
52383		4.277233	-4.056771	0.030990	1.167250	0.127200	0.093802	-0.846436	-0.016113	-0.239990	0.616169	-0.070810	-0.763093	-0.181690
52384		1.472977	0.591986	0.505537	0.931286	0.135182	0.201528	-0.847168	-0.020996	-0.246582	0.618705	-0.065326	-0.763942	-0.171258
52385		-1.530475	1.444967	0.898777	0.139366	0.106349	0.264821	-0.849365	-0.019043	-0.249268	0.620408	-0.066635	-0.763193	-0.167898
52386		-1.489146	0.127123	-0.211013	-0.058984	0.067661	0.276696	-0.848633	-0.007080	-0.242676	0.621593	-0.069681	-0.762302	-0.166323
52387		-0.389003	0.852771	-1.087755	0.175140	-0.014951	0.294202	-0.838379	-0.003174	-0.250000	0.622217	-0.071243	-0.762518	-0.162283
52388		0.075032	2.274892	-0.634160	0.134561	-0.056512	0.220958	-0.838623	0.010010	-0.255615	0.622256	-0.072525	-0.763013	-0.159213
52389		-0.112222	1.803422	-0.406663	-0.404476	-0.083076	0.005875	-0.844482	0.011230	-0.251221	0.621114	-0.076023	-0.762811	-0.162964
52390		-0.795573	2.233679	-0.307025	-0.188349	0.105903	-0.140327	-0.847900	0.001465	-0.261963	0.621666	-0.076055	-0.761712	-0.165960
52391		11.343817	11.351642	-1.343738	0.070264	0.383246	-0.933868	-0.848877	-0.026855	-0.276611	0.623403	-0.065951	-0.759676	-0.172949
52392		26.855832	-4.475782	-5.793588	-1.621643	-0.046829	-0.871760	-0.850586	-0.021484	-0.274902	0.619570	-0.070555	-0.757006	-0.195185
52393		28.856844	13.550762	-10.222507	0.485569	-0.289850	-1.290724	-0.849121	-0.051270	-0.267090	0.614021	-0.055420	-0.761424	-0.200350
52394		28.840713	9.577654	-1.066098	-1.637370	-0.414281	-2.133862	-0.850586	-0.093018	-0.260986	0.603246	-0.048838	-0.761509	-0.231979
52395		23.244980	-14.743019	-2.999080	-0.357469	-0.111646	0.099653	-0.858643	-0.083496	-0.268799	0.602247	-0.052955	-0.761205	-0.234652
52396		18.217411	-2.734455	-1.436999	0.849804	-0.027323	2.145529	-0.853271	-0.039551	-0.262451	0.608619	-0.067157	-0.762132	-0.210303
52397		10.343402	0.458035	-1.823226	0.772497	0.037251	2.578296	-0.852783	0.017578	-0.265137	0.616088	-0.085812	-0.761259	-0.183188
52398		7.786485	2.884814	-1.895957	1.384497	0.152817	2.221471	-0.849854	0.046143	-0.262451	0.623819	-0.096011	-0.760428	-0.152910
52399		3.269248	5.075291	-2.411019	1.286878	0.005329	1.736034	-0.838379	0.075439	-0.265869	0.628526	-0.102516	-0.760471	-0.127005
52400		1.491459	2.654645	-1.528321	0.707639	-0.107410	1.213518	-0.833984	0.103027	-0.261475	0.630264	-0.108750	-0.760738	-0.110540
52401		3.168641	2.284131	-1.240763	0.547289	-0.117808	0.657574	-0.842041	0.104004	-0.260986	0.630776	-0.110958	-0.761463	-0.099921
52402		3.139611	1.954268	-1.404339	0.552114	-0.021935	0.272324	-0.834229	0.106934	-0.265869	0.631662	-0.109315	-0.761911	-0.092443
52403		5.671693	1.989900	-1.157463	-0.326392	0.027633	-0.010242	-0.837646	0.115479	-0.263672	0.631479	-0.111873	-0.761294	-0.095661
52404		9.923212	1.511100	-0.951786	-1.133092	0.006891	-0.125247	-0.836182	0.125732	-0.262695	0.629757	-0.119723	-0.759958	-0.107407
52405		17.626495	1.315628	-3.361130	-1.138192	-0.104232	-0.305624	-0.841064	0.120117	-0.252686	0.626602	-0.126042	-0.759590	-0.120442
52406		15.992058	-0.138361	-3.312634	-0.739083	0.001836	-0.339369	-0.839111	0.125732	-0.250732	0.624919	-0.128714	-0.758936	-0.130098
52407		10.230034	-3.186122	-1.800404	-0.551412	-0.089979	0.172045	-0.844971	0.126953	-0.250732	0.623453	-0.134924	-0.758418	-0.133804
52408		9.559025	-1.857256	-0.870682	0.299377	0.029633	0.394077	-0.838379	0.130859	-0.245850	0.624900	-0.136386	-0.757983	-0.127908
52409		8.670559	-0.097243	-1.233712	0.749816	0.115141	0.361102	-0.843018	0.140869	-0.255859	0.627818	-0.133852	-0.757614	-0.118110
52410		8.519747	1.246266	-1.709442	0.391520	0.073459	0.144534	-0.830078	0.135010	-0.255371	0.629385	-0.132147	-0.757343	-0.113328
52411		9.014444	1.813665	-2.533961	0.017158	0.133934	-0.108701	-0.835938	0.128174	-0.265381	0.630536	-0.130894	-0.756473	-0.114194
52412		9.562030	0.468518	-2.068060	-0.264061	0.048476	-0.091802	-0.838867	0.132324	-0.263428	0.630444	-0.132140	-0.755829	-0.117483
52413		10.186357	0.111282	-1.206600	-0.267192	-0.015770	0.024303	-0.839600	0.131836	-0.257080	0.629898	-0.134603	-0.755491	-0.119764
52414		10.484186	-0.095930	-0.970993	-0.171743	-0.030661	0.057973	-0.835449	0.140381	-0.261230	0.629407	-0.136645	-0.755362	-0.120845
52415		9.982729	0.048092	-1.696751	0.140171	0.044630	0.055531	-0.828125	0.142090	-0.260742	0.630167	-0.136110	-0.755097	-0.119131
52416		9.308373	0.476511	-1.715310	0.258332	0.053412	0.003423	-0.835205	0.143555	-0.258789	0.631129	-0.134141	-0.755023	-0.116719
52417		9.097233	0.776644	-1.947073	0.152762	-0.001480	-0.048756	-0.838135	0.137695	-0.270752	0.631305	-0.132591	-0.755320	-0.115610
52418		9.316807	0.636155	-2.071063	-0.064434	-0.017176	-0.071683	-0.837402	0.141357	-0.258789	0.630954	-0.132563	-0.755444	-0.116741
52419		9.665129	0.050570	-1.940642	-0.125406	0.001736	-0.078373	-0.837646	0.136475	-0.256836	0.630651	-0.132924	-0.755359	-0.118504
52420		9.940046	-0.509105	-1.693272	0.037573	0.055897	-0.102450	-0.836182	0.132324	-0.263184	0.631089	-0.131685	-0.755130	-0.119013
52421		9.953258	-0.182024	-1.501327	0.258374	0.072025	-0.111008	-0.830566	0.126221	-0.265625	0.632035	-0.128598	-0.755102	-0.117539
52422		9.748973	0.457539	-1.396126	0.302715	0.064044	-0.085091	-0.835693	0.121094	-0.271973	0.633009	-0.125410	-0.755148	-0.115430
52423		9.584804	0.632718	-1.514569	0.161734	0.023797	-0.046867	-0.838623	0.115967	-0.274658	0.633434	-0.123756	-0.755237	-0.114297
52424		9.514206	0.405858	-1.561415	0.000781	0.002177	0.005467	-0.838379	0.117676	-0.268066	0.633479	-0.123897	-0.755183	-0.114246
52425		9.534009	0.149502	-1.638623	-0.075922	0.001020	0.031811	-0.836670	0.123535	-0.269775	0.633421	-0.124897	-0.754999	-0.114698
52426		9.651982	-0.111682	-1.658916	-0.091065	0.020699	0.033169	-0.839844	0.128906	-0.272705	0.633531	-0.126008	-0.754629	-0.115306
52427		9.737503	-0.220257	-1.614238	-0.021546	0.013277	0.025596	-0.834229	0.128662	-0.264404	0.633673	-0.126514	-0.754425	-0.115302
52428		9.833573	-0.096806	-1.561359	0.080401	0.012230	0.009523	-0.843262	0.126465	-0.272217	0.633931	-0.126057	-0.754415	-0.114452
52429		9.740610	0.081827	-1.571852	0.154941	0.023895	-0.010439	-0.832520	0.127197	-0.274414	0.634393	-0.124803	-0.754441	-0.113087
52430		9.649627	0.222593	-1.661903	0.139223	0.033435	-0.006267	-0.839111	0.129395	-0.272949	0.634934	-0.123702	-0.754352	-0.111848
52431		9.549553	0.237223	-1.577743	0.034226	0.032227	0.004583	-0.831299	0.126709	-0.274902	0.635307	-0.123542	-0.754115	-0.111505
52432		9.534974	0.182651	-1.632165	-0.045186	0.025152	-0.008475	-0.832275	0.125977	-0.279785	0.635478	-0.123896	-0.753838	-0.112008
52433		9.650831	-0.049091	-1.660372	-0.092668	-0.008091	-0.015773	-0.838379	0.128662	-0.275635	0.635258	-0.124603	-0.753763	-0.112971
52434		9.736328	-0.302572	-1.723436	-0.057983	0.010175	-0.014924	-0.831787	0.123047	-0.268799	0.635255	-0.125020	-0.753599	-0.113623
52435		9.666726	-0.301119	-1.662603	0.055896	0.023394	-0.026353	-0.837158	0.129395	-0.271973	0.635527	-0.124394	-0.753519	-0.113312
52436		9.691604	-0.106859	-1.572184	0.180050	0.014197	-0.058186	-0.829346	0.125488	-0.267334	0.635863	-0.122506	-0.753733	-0.112061
52437		9.733200	0.150321	-1.564993	0.208912	0.012908	-0.070432	-0.828613	0.121826	-0.276855	0.636204	-0.120271	-0.754016	-0.110629
52438		9.628045	0.303423	-1.627981	0.160848	0.016331	-0.070558	-0.837402	0.130615	-0.280029	0.636518	-0.118410	-0.754188	-0.109661
52439		9.613277	0.150668	-1.653496	0.110692	0.007668	-0.051340	-0.837158	0.110840	-0.276855	0.636701	-0.117162	-0.754325	-0.108992
52440		9.672382	0.000209	-1.537489	0.086423	-0.000128	-0.037109	-0.836914	0.114502	-0.278564	0.636782	-0.116218	-0.754481	-0.108448
52441		9.706118	0.049313	-1.621044	0.130964	-0.000615	-0.033278	-0.833252	0.114990	-0.278076	0.636931	-0.114965	-0.754690	-0.107446
52442		9.748819	0.244384	-1.577039	0.148683	0.016392	-0.030871	-0.834229	0.111328	-0.283447	0.637269	-0.113573	-0.754781	-0.106277
52443		9.688650	0.227703	-1.464020	0.110648	0.010935	-0.025834	-0.830566	0.111084	-0.273438	0.637513	-0.112534	-0.754850	-0.105424
52444		9.606128	0.155403	-1.485628	0.078899	-0.002718	-0.016946	-0.829346	0.111816	-0.278320	0.637578	-0.111852	-0.754987	-0.104775
52445		9.637112	0.192417	-1.641644	0.100393	-0.005970	-0.013749	-0.833984	0.105469	-0.280518	0.637656	-0.111037	-0.755163	-0.103894
52446		9.691807	0.179302	-1.579882	0.130934	0.002941	-0.009224	-0.838379	0.106934	-0.281494	0.637864	-0.109997	-0.755302	-0.102708
52447		9.661617	0.280138	-1.506618	0.143095	0.011880	-0.007840	-0.836426	0.101074	-0.289551	0.638172	-0.108866	-0.755381	-0.101408
52448		9.674528	0.409806	-1.593228	0.111696	-0.000998	0.002773	-0.832520	0.101074	-0.283936	0.638342	-0.108092	-0.755496	-0.100309
52449		9.668263	0.496379	-1.529397	0.042730	0.006792	0.025040	-0.830566	0.102783	-0.282959	0.638511	-0.108070	-0.755438	-0.099691
52450		9.687037	0.480281	-1.509896	-0.012922	-0.002506	0.038976	-0.839844	0.108398	-0.277832	0.638532	-0.108639	-0.755367	-0.099476
52451		9.679388	0.479400	-1.547987	-0.057724	0.002437	0.049427	-0.833252	0.110352	-0.283447	0.638537	-0.109671	-0.755196	-0.099606
52452		9.708894	0.411987	-1.567713	-0.112967	0.004245	0.054397	-0.829590	0.111816	-0.285156	0.638504	-0.111188	-0.754921	-0.100223
52453		9.694134	0.343167	-1.546981	-0.127125	-0.002189	0.051187	-0.829102	0.123779	-0.282471	0.638391	-0.112795	-0.754675	-0.100992
52454		9.620264	0.485790	-1.702972	-0.111071	-0.005387	0.037265	-0.830322	0.114746	-0.281982	0.638249	-0.114169	-0.754492	-0.101711
52455		9.584105	0.607482	-1.727861	-0.109988	-0.018026	0.009729	-0.832275	0.117676	-0.276123	0.637949	-0.115267	-0.754455	-0.102631
52456		9.630397	0.649611	-1.640625	-0.137676	-0.024648	-0.014080	-0.836914	0.109619	-0.281494	0.637502	-0.116376	-0.754476	-0.103993
52457		9.678655	0.684685	-1.574595	-0.173366	-0.042750	-0.044478	-0.839600	0.123779	-0.273926	0.636797	-0.117484	-0.754632	-0.105917
52458		9.675005	0.430498	-1.644727	-0.189081	-0.068067	-0.073349	-0.840088	0.120361	-0.269043	0.635778	-0.118513	-0.755009	-0.108177
52459		9.706196	-0.005415	-1.632338	-0.113612	-0.044160	-0.112176	-0.826416	0.115234	-0.271973	0.635033	-0.118537	-0.755359	-0.110070
52460		9.661388	0.071979	-1.688788	-0.042463	-0.015638	-0.133049	-0.838135	0.117432	-0.270996	0.634650	-0.117749	-0.755595	-0.111499
52461		9.665892	0.271469	-1.623070	-0.074424	-0.004434	-0.120810	-0.830566	0.111816	-0.272217	0.634332	-0.117325	-0.755682	-0.113148
52462		9.668967	0.258205	-1.412077	-0.114467	0.000770	-0.090811	-0.831543	0.107422	-0.271729	0.634054	-0.117485	-0.755619	-0.114946
52463		9.683431	0.226868	-1.337864	-0.159779	0.006077	-0.071417	-0.842285	0.112061	-0.271484	0.633782	-0.118170	-0.755421	-0.117026
52464		9.684310	0.242551	-1.369193	-0.226088	0.010921	-0.060897	-0.840332	0.110107	-0.279297	0.633463	-0.119483	-0.755070	-0.119655
52465		9.772317	0.121006	-1.587839	-0.231060	0.018498	-0.065552	-0.839355	0.108887	-0.271973	0.633214	-0.120772	-0.754637	-0.122382
52466		9.601697	0.020399	-1.777153	-0.145732	0.015185	-0.077739	-0.827393	0.122559	-0.273193	0.633025	-0.121271	-0.754387	-0.124390
52467		9.585807	-0.040257	-1.757601	-0.105618	-0.001899	-0.084066	-0.837646	0.110352	-0.270996	0.632739	-0.121461	-0.754322	-0.126041
52468		9.644691	0.037674	-1.771470	-0.040219	-0.001223	-0.087727	-0.834961	0.116455	-0.272949	0.632537	-0.121063	-0.754378	-0.127103
52469		9.688870	0.173846	-1.721496	0.030428	0.005673	-0.081862	-0.843750	0.111572	-0.274658	0.632525	-0.120170	-0.754470	-0.127460
52470		9.656076	0.333697	-1.652653	0.051003	0.013774	-0.069985	-0.833740	0.105957	-0.260986	0.632634	-0.119204	-0.754519	-0.127541
52471		9.677735	0.428487	-1.647113	0.041000	-0.005557	-0.046105	-0.831543	0.097412	-0.269287	0.632559	-0.118561	-0.754691	-0.127490
52472		9.671677	0.407583	-1.605162	0.004833	-0.006466	-0.027156	-0.839844	0.112793	-0.269043	0.632470	-0.118363	-0.754773	-0.127633
52473		9.739355	0.420510	-1.601557	-0.002635	-0.016917	-0.022985	-0.835938	0.098633	-0.271973	0.632276	-0.118326	-0.754913	-0.127800
52474		9.676652	0.526530	-1.659947	0.002785	0.000115	-0.013582	-0.842041	0.104492	-0.267822	0.632271	-0.118267	-0.754915	-0.127867
52475		9.670713	0.477141	-1.679639	-0.030133	-0.014821	-0.010076	-0.834229	0.106689	-0.269287	0.632071	-0.118541	-0.754984	-0.128193
52476		9.641129	0.419294	-1.620174	-0.031868	-0.014532	-0.012410	-0.830078	0.101074	-0.260254	0.631878	-0.118816	-0.755041	-0.128556
52477		9.697490	0.491477	-1.679961	-0.008156	-0.007556	-0.015401	-0.834473	0.106934	-0.267822	0.631763	-0.118845	-0.755104	-0.128723
52478		9.673745	0.571625	-1.570181	-0.010940	0.010577	-0.008787	-0.842773	0.106689	-0.270264	0.631842	-0.118949	-0.754992	-0.128898
52479		9.637654	0.584474	-1.640614	-0.029385	-0.001224	-0.004721	-0.841797	0.105469	-0.267822	0.631787	-0.119253	-0.754938	-0.129198
52480		9.593218	0.582960	-1.764168	-0.059051	-0.018745	-0.000393	-0.838623	0.097656	-0.265137	0.631524	-0.119856	-0.754974	-0.129717
52481		9.600414	0.514239	-1.747206	-0.095879	-0.025693	0.005708	-0.840820	0.102051	-0.261963	0.631145	-0.120790	-0.755004	-0.130519
52482		9.588508	0.366597	-1.666076	-0.104861	-0.029263	0.007215	-0.830322	0.108398	-0.270752	0.630714	-0.121826	-0.755046	-0.131389
52483		9.677490	0.176722	-1.696948	-0.074101	-0.029145	0.000390	-0.840332	0.105713	-0.259766	0.630350	-0.122577	-0.755117	-0.132032
52484		9.656964	0.211401	-1.708716	-0.020934	-0.018309	0.004490	-0.841309	0.110596	-0.263916	0.630145	-0.122914	-0.755213	-0.132147
52485		9.711454	0.278418	-1.706656	0.016695	-0.017926	0.004889	-0.830566	0.110840	-0.269043	0.630013	-0.122973	-0.755355	-0.131908
52486		9.688065	0.267693	-1.742989	0.048181	-0.013814	0.006560	-0.832031	0.113281	-0.264404	0.629992	-0.122796	-0.755496	-0.131367
52487		9.644709	0.386845	-1.749716	0.074705	-0.011134	0.006247	-0.830078	0.104004	-0.263916	0.630025	-0.122412	-0.755667	-0.130582
52488		9.598687	0.543095	-1.675306	0.090012	-0.011526	-0.002266	-0.836914	0.106689	-0.264648	0.630061	-0.121792	-0.755887	-0.129710
52489		9.634144	0.573718	-1.731427	0.052468	-0.015951	0.006508	-0.839600	0.111816	-0.268555	0.630010	-0.121569	-0.756067	-0.129119
52490		9.646074	0.657399	-1.739584	-0.015043	-0.015481	0.013533	-0.841064	0.105225	-0.265381	0.629880	-0.121961	-0.756112	-0.129119
52491		9.653188	0.595340	-1.602876	-0.052913	-0.018071	0.012248	-0.841553	0.111084	-0.264160	0.629656	-0.122616	-0.756132	-0.129476
52492		9.712727	0.433242	-1.619801	-0.051228	-0.034461	0.007954	-0.840332	0.106201	-0.259521	0.629271	-0.123264	-0.756286	-0.129830
52493		9.657786	0.364569	-1.694691	-0.030931	-0.015487	0.013812	-0.845215	0.115723	-0.258301	0.629097	-0.123755	-0.756326	-0.129970
52494		9.654033	0.387958	-1.671444	-0.005927	-0.006104	0.012319	-0.840332	0.117432	-0.260742	0.629045	-0.124054	-0.756331	-0.129907
52495		9.671480	0.483149	-1.697258	0.016681	-0.002098	0.003568	-0.842529	0.113525	-0.265381	0.629062	-0.124093	-0.756345	-0.129708
52496		9.627768	0.506459	-1.673239	0.002627	-0.003834	0.006884	-0.839355	0.113770	-0.260742	0.629054	-0.124259	-0.756341	-0.129612
52497		9.630763	0.443407	-1.767995	-0.040322	-0.006851	0.011532	-0.847900	0.122070	-0.259521	0.628950	-0.124813	-0.756290	-0.129879
52498		9.659957	0.408986	-1.669714	-0.071052	-0.011266	0.021021	-0.836670	0.122314	-0.261475	0.628764	-0.125734	-0.756210	-0.130361
52499		9.682644	0.415248	-1.639204	-0.067219	-0.008328	0.016007	-0.834717	0.116943	-0.261719	0.628617	-0.126573	-0.756106	-0.130855
52500		9.697553	0.298021	-1.700350	-0.040835	-0.008924	0.008257	-0.831787	0.119141	-0.260254	0.628495	-0.127107	-0.756067	-0.131152
52501		9.626499	0.279501	-1.700507	-0.018840	-0.006191	0.005566	-0.837402	0.116211	-0.251465	0.628429	-0.127445	-0.756045	-0.131268
52502		9.655749	0.333855	-1.685790	0.000734	-0.006839	-0.001432	-0.828857	0.116699	-0.251465	0.628351	-0.127543	-0.756098	-0.131239
52503		9.689533	0.355566	-1.617186	0.012555	0.006558	-0.008819	-0.843506	0.124756	-0.258301	0.628413	-0.127462	-0.756070	-0.131180
52504		9.663167	0.377426	-1.735552	0.003756	0.002373	-0.008634	-0.847900	0.117676	-0.250488	0.628428	-0.127494	-0.756046	-0.131213
52505		9.601211	0.350560	-1.696577	0.001259	-0.004073	-0.009582	-0.835938	0.115967	-0.262451	0.628353	-0.127510	-0.756100	-0.131248
52506		9.668768	0.268943	-1.692543	-0.008856	-0.003754	-0.020553	-0.841309	0.112061	-0.264404	0.628286	-0.127501	-0.756118	-0.131475
52507		9.674606	0.314271	-1.680544	0.018202	-0.000846	-0.023458	-0.838867	0.115967	-0.260742	0.628284	-0.127229	-0.756166	-0.131469
52508		9.649554	0.353704	-1.660221	0.037943	-0.002612	-0.021862	-0.833496	0.116211	-0.250977	0.628294	-0.126840	-0.756259	-0.131264
52509		9.672093	0.347714	-1.718577	0.039191	0.006028	-0.015730	-0.841553	0.117432	-0.261719	0.628377	-0.126487	-0.756294	-0.131006
52510		9.641243	0.363951	-1.732296	0.030853	-0.000768	-0.017595	-0.839600	0.115234	-0.259766	0.628400	-0.126202	-0.756351	-0.130841
52511		9.647552	0.413682	-1.748421	0.041917	0.003621	-0.020897	-0.832275	0.121582	-0.255371	0.628472	-0.125783	-0.756402	-0.130600
52512		9.648931	0.397517	-1.675372	0.053603	0.007050	-0.028943	-0.837402	0.110107	-0.264648	0.628578	-0.125225	-0.756455	-0.130326
52513		9.658563	0.423919	-1.717051	0.063094	-0.000196	-0.037293	-0.841797	0.108643	-0.269287	0.628633	-0.124473	-0.756589	-0.130005
52514		9.628069	0.505119	-1.714048	0.051416	0.008330	-0.037917	-0.832031	0.108643	-0.260498	0.628756	-0.123792	-0.756631	-0.129815
52515		9.628350	0.573203	-1.696640	0.029024	0.001793	-0.034898	-0.842285	0.105957	-0.267334	0.628773	-0.123329	-0.756695	-0.129797
52516		9.647542	0.510493	-1.645664	0.010218	-0.004099	-0.036412	-0.839111	0.121338	-0.261963	0.628710	-0.122999	-0.756772	-0.129963
52517		9.643217	0.509156	-1.689168	0.000980	-0.005418	-0.039860	-0.840332	0.111572	-0.262451	0.628607	-0.122792	-0.756840	-0.130264
52518		9.630069	0.518216	-1.657091	-0.011533	-0.002097	-0.042615	-0.838623	0.113525	-0.262939	0.628510	-0.122606	-0.756876	-0.130697
52519		9.650187	0.471258	-1.662951	-0.018183	-0.000603	-0.043136	-0.849854	0.110352	-0.259521	0.628420	-0.122479	-0.756883	-0.131205
52520		9.643833	0.441018	-1.676251	-0.011290	-0.009528	-0.035752	-0.838135	0.110352	-0.260254	0.628249	-0.122364	-0.756981	-0.131568
52521		9.650057	0.471692	-1.706733	-0.014448	-0.008532	-0.033049	-0.839600	0.107910	-0.263428	0.628100	-0.122305	-0.757049	-0.131944
52522		9.630516	0.469275	-1.705042	-0.019986	-0.013469	-0.027616	-0.843262	0.100586	-0.260986	0.627912	-0.122340	-0.757133	-0.132322
52523		9.648729	0.449951	-1.666780	-0.023508	-0.010995	-0.027881	-0.836914	0.112061	-0.261230	0.627732	-0.122356	-0.757210	-0.132724
52524		9.622012	0.550160	-1.716193	-0.006289	-0.011775	-0.042614	-0.837402	0.107178	-0.255371	0.627555	-0.122163	-0.757322	-0.133099
52525		9.590636	0.629871	-1.751007	0.000361	-0.012657	-0.052110	-0.847168	0.112305	-0.259766	0.627348	-0.121802	-0.757485	-0.133470
52526		9.625812	0.652933	-1.705481	-0.019576	-0.016816	-0.066307	-0.835449	0.102051	-0.254883	0.627052	-0.121505	-0.757658	-0.134153
52527		9.613066	0.676231	-1.767126	-0.033219	-0.009297	-0.073697	-0.833008	0.103027	-0.257812	0.626792	-0.121180	-0.757773	-0.135011
52528		9.605904	0.649847	-1.751741	-0.041702	-0.002904	-0.082058	-0.836670	0.096436	-0.264648	0.626575	-0.120848	-0.757822	-0.136035
52529		9.627495	0.569737	-1.747680	-0.024328	-0.003007	-0.080949	-0.843018	0.104004	-0.255371	0.626400	-0.120366	-0.757891	-0.136883
52530		9.634836	0.640612	-1.693835	-0.009600	-0.006692	-0.082149	-0.850586	0.099121	-0.260742	0.626180	-0.119804	-0.758031	-0.137602
52531		9.625554	0.669268	-1.683158	-0.004390	-0.005206	-0.077939	-0.847656	0.096191	-0.261475	0.625996	-0.119223	-0.758158	-0.138241
52532		9.646224	0.642018	-1.747798	-0.020404	-0.007830	-0.062058	-0.844727	0.097168	-0.250977	0.625796	-0.118916	-0.758251	-0.138903
52533		9.651940	0.542672	-1.691156	-0.022094	-0.005859	-0.044884	-0.840088	0.090576	-0.265625	0.625617	-0.118783	-0.758321	-0.139439
52534		9.670773	0.531928	-1.681233	-0.014038	-0.015014	-0.028362	-0.842285	0.093750	-0.256348	0.625436	-0.118740	-0.758418	-0.139763
52535		9.664734	0.546401	-1.685981	0.011752	-0.011854	-0.023364	-0.839355	0.095947	-0.256836	0.625305	-0.118549	-0.758547	-0.139803
52536		9.657741	0.534832	-1.688724	0.041063	-0.005981	-0.019957	-0.840576	0.106445	-0.250977	0.625285	-0.118167	-0.758670	-0.139554
52537		9.640189	0.561816	-1.745444	0.045685	-0.008995	-0.004835	-0.843018	0.093994	-0.253418	0.625254	-0.117955	-0.758802	-0.139151
52538		9.611522	0.680088	-1.698504	0.033888	-0.012140	0.006060	-0.835938	0.096191	-0.252197	0.625198	-0.117874	-0.758935	-0.138748
52539		9.612271	0.700769	-1.703589	0.008651	-0.015886	0.012819	-0.841797	0.105713	-0.256348	0.625085	-0.118074	-0.759037	-0.138530
52540		9.637799	0.614564	-1.739161	-0.006457	-0.015859	0.012877	-0.847656	0.095459	-0.251953	0.624957	-0.118452	-0.759092	-0.138483
52541		9.625506	0.580743	-1.806590	0.001576	-0.015973	0.011292	-0.845459	0.094238	-0.255615	0.624821	-0.118679	-0.759195	-0.138339
52542		9.612595	0.618950	-1.737156	0.010134	-0.007892	0.007624	-0.841553	0.097168	-0.256836	0.624780	-0.118786	-0.759245	-0.138158
52543		9.610517	0.611371	-1.760536	0.020629	-0.008706	0.007269	-0.846680	0.100830	-0.258057	0.624754	-0.118830	-0.759308	-0.137888
52544		9.641402	0.602540	-1.778557	0.002909	-0.017487	0.008304	-0.846680	0.092773	-0.255127	0.624619	-0.119059	-0.759404	-0.137776
52545		9.647884	0.602735	-1.788485	-0.003130	-0.015747	0.017478	-0.847900	0.089355	-0.255371	0.624499	-0.119362	-0.759481	-0.137627
52546		9.608479	0.613962	-1.765230	0.005720	-0.012853	0.017930	-0.838135	0.106934	-0.252197	0.624422	-0.119571	-0.759556	-0.137386
52547		9.583202	0.577503	-1.735841	-0.002820	-0.014577	0.011973	-0.836670	0.096680	-0.250977	0.624307	-0.119900	-0.759613	-0.137307
52548		9.630614	0.568572	-1.750701	-0.003302	-0.013515	0.003904	-0.840820	0.100342	-0.253174	0.624187	-0.120084	-0.759690	-0.137268
52549		9.644938	0.568190	-1.799809	0.005836	-0.007599	0.003257	-0.846680	0.099609	-0.254883	0.624138	-0.120205	-0.759728	-0.137170
52550		9.640822	0.536854	-1.758445	0.018108	-0.008964	0.009508	-0.842529	0.101562	-0.254150	0.624105	-0.120287	-0.759790	-0.136905
52551		9.633607	0.584599	-1.772402	0.025566	-0.005413	0.015007	-0.842529	0.100098	-0.256592	0.624128	-0.120368	-0.759825	-0.136535
52552		9.615639	0.653208	-1.754803	0.031658	-0.008015	0.020134	-0.846191	0.096924	-0.251709	0.624152	-0.120447	-0.759877	-0.136063
52553		9.656564	0.587273	-1.773251	0.030670	-0.005748	0.024772	-0.842041	0.092773	-0.247559	0.624186	-0.120541	-0.759926	-0.135549
52554		9.644593	0.584529	-1.770519	0.023245	-0.004846	0.028873	-0.848389	0.104248	-0.250244	0.624217	-0.120696	-0.759964	-0.135056
52555		9.619905	0.611000	-1.814813	0.009801	-0.008837	0.033878	-0.838379	0.104736	-0.251221	0.624200	-0.121084	-0.759984	-0.134678
52556		9.627732	0.586342	-1.800194	0.008301	-0.006801	0.039665	-0.836914	0.102295	-0.255615	0.624222	-0.121538	-0.759964	-0.134276
52557		9.654013	0.480244	-1.838641	0.022142	0.000584	0.040061	-0.843262	0.108154	-0.252441	0.624350	-0.121859	-0.759900	-0.133750
52558		9.636800	0.452176	-1.867978	0.044581	0.010807	0.040028	-0.845703	0.112793	-0.256348	0.624594	-0.122014	-0.759801	-0.133032
52559		9.651368	0.458607	-1.871403	0.044198	0.013955	0.045722	-0.844727	0.095215	-0.255127	0.624883	-0.122252	-0.759654	-0.132295
52560		9.645491	0.435215	-1.833837	0.043338	0.014669	0.053889	-0.838623	0.110840	-0.253662	0.625187	-0.122444	-0.759519	-0.131450
52561		9.642538	0.415165	-1.836986	0.053388	0.026286	0.058970	-0.845459	0.101562	-0.256836	0.625625	-0.122685	-0.759279	-0.130524
52562		9.648467	0.422650	-1.845758	0.076999	0.032053	0.042786	-0.836670	0.109619	-0.249756	0.626126	-0.122509	-0.759073	-0.129484
52563		9.602154	0.430364	-1.820567	0.087061	0.040342	0.030485	-0.837891	0.105713	-0.264160	0.626686	-0.122166	-0.758839	-0.128464
52564		9.599047	0.365817	-1.830947	0.091066	0.028047	0.031865	-0.839111	0.103027	-0.261230	0.627175	-0.121814	-0.758673	-0.127388
52565		9.620964	0.430303	-1.793868	0.080061	0.016171	0.041299	-0.845703	0.110352	-0.260742	0.627535	-0.121630	-0.758586	-0.126309
52566		9.638115	0.507613	-1.788280	0.056285	0.019519	0.049229	-0.837158	0.106201	-0.254883	0.627893	-0.121743	-0.758420	-0.125413
52567		9.637548	0.439495	-1.703339	0.026145	0.008007	0.055317	-0.836426	0.119629	-0.258545	0.628094	-0.122131	-0.758306	-0.124715
52568		9.625944	0.387452	-1.735898	0.010783	0.008009	0.055980	-0.842773	0.109863	-0.261475	0.628283	-0.122735	-0.758137	-0.124197
52569		9.667184	0.302304	-1.754745	0.019215	0.009965	0.042524	-0.840820	0.111328	-0.261230	0.628483	-0.123065	-0.758002	-0.123681
52570		9.675850	0.239916	-1.688070	0.068097	0.024996	0.029751	-0.834473	0.115234	-0.257812	0.628882	-0.122871	-0.757842	-0.122825
52571		9.690662	0.266918	-1.711841	0.110167	0.023416	0.019834	-0.832520	0.117676	-0.259766	0.629307	-0.122277	-0.757774	-0.121651
52572		9.614703	0.338570	-1.757407	0.125275	0.030524	0.020706	-0.839844	0.111572	-0.263428	0.629829	-0.121582	-0.757661	-0.120347
52573		9.606364	0.307872	-1.709677	0.104852	0.020768	0.029037	-0.833008	0.116943	-0.261719	0.630238	-0.121098	-0.757589	-0.119140
52574		9.623403	0.290464	-1.674782	0.086113	0.008307	0.028867	-0.829346	0.118164	-0.255615	0.630500	-0.120816	-0.757578	-0.118107
52575		9.629967	0.344498	-1.715181	0.064626	0.000663	0.028223	-0.834961	0.125732	-0.269775	0.630638	-0.120710	-0.757610	-0.117265
52576		9.643886	0.330616	-1.669225	0.045561	0.005953	0.027193	-0.835449	0.113525	-0.261719	0.630833	-0.120805	-0.757526	-0.116664
52577		9.700918	0.265824	-1.707622	0.065452	0.006122	0.024532	-0.833496	0.124268	-0.269531	0.631030	-0.120612	-0.757519	-0.115841
52578		9.661602	0.224747	-1.689254	0.074927	0.009754	0.030217	-0.831299	0.112793	-0.272217	0.631307	-0.120484	-0.757446	-0.114939
52579		9.640765	0.204706	-1.669222	0.080320	0.010596	0.037271	-0.838623	0.117432	-0.265381	0.631619	-0.120298	-0.757372	-0.113899
52580		9.659547	0.244950	-1.683483	0.091459	0.013470	0.040185	-0.836182	0.110596	-0.266357	0.631948	-0.120060	-0.757311	-0.112731
52581		9.659360	0.322957	-1.734440	0.077080	0.011019	0.039129	-0.836670	0.119629	-0.264160	0.632233	-0.119878	-0.757257	-0.111682
52582		9.620303	0.297195	-1.738297	0.050372	0.013050	0.039772	-0.835205	0.117188	-0.267578	0.632489	-0.119967	-0.757143	-0.110906
52583		9.650496	0.206081	-1.706200	0.007205	0.009601	0.043971	-0.834717	0.114014	-0.266602	0.632664	-0.120426	-0.756984	-0.110496
52584		9.675430	0.123823	-1.677100	-0.005672	0.002562	0.044299	-0.837402	0.114014	-0.274170	0.632749	-0.120965	-0.756873	-0.110179
52585		9.670735	0.052356	-1.725821	-0.009545	0.010611	0.043971	-0.840088	0.117432	-0.266846	0.632924	-0.121523	-0.756674	-0.109923
52586		9.645439	0.098165	-1.664677	0.000666	0.007419	0.046959	-0.836670	0.116943	-0.261230	0.633062	-0.122036	-0.756533	-0.109534
52587		9.637895	0.140147	-1.664290	0.011245	0.003155	0.041541	-0.834229	0.114014	-0.276123	0.633153	-0.122401	-0.756465	-0.109067
52588		9.696922	0.041958	-1.697774	0.000188	0.003468	0.030883	-0.835693	0.131836	-0.272949	0.633266	-0.122742	-0.756355	-0.108796
52589		9.673224	0.014697	-1.670496	0.001392	0.007330	0.034459	-0.827393	0.120605	-0.267822	0.633410	-0.123222	-0.756193	-0.108541
52590		9.648190	0.081426	-1.633391	0.006208	0.005511	0.027595	-0.842773	0.126221	-0.274170	0.633526	-0.123512	-0.756090	-0.108248
52591		9.637256	0.043031	-1.644422	0.009804	0.006202	0.018751	-0.835205	0.131348	-0.269287	0.633645	-0.123721	-0.755990	-0.108012
52592		9.660836	0.018912	-1.735755	0.006681	0.001046	0.014154	-0.837891	0.133545	-0.265869	0.633697	-0.123952	-0.755933	-0.107845
52593		9.648507	0.034272	-1.726765	-0.007432	-0.005501	0.009598	-0.832764	0.127930	-0.271240	0.633644	-0.124269	-0.755926	-0.107838
52594		9.630264	0.049517	-1.662429	0.003487	-0.002495	0.001719	-0.835449	0.124023	-0.273926	0.633649	-0.124385	-0.755910	-0.107783
52595		9.668823	0.032157	-1.688323	0.003252	-0.000098	-0.010465	-0.831543	0.122803	-0.270752	0.633666	-0.124356	-0.755896	-0.107820
52596		9.665940	0.001802	-1.770714	-0.006260	-0.006120	-0.006227	-0.834717	0.126465	-0.263916	0.633611	-0.124440	-0.755917	-0.107895
52597		9.624240	-0.006758	-1.716046	-0.015326	-0.012621	-0.005343	-0.830322	0.133301	-0.267822	0.633455	-0.124630	-0.755995	-0.108043
52598		9.654952	-0.013057	-1.732721	-0.016377	-0.008664	-0.005773	-0.829590	0.138184	-0.271240	0.633355	-0.124875	-0.756011	-0.108236
52599		9.716036	-0.007625	-1.722475	0.006472	-0.002727	-0.006750	-0.833496	0.126953	-0.261719	0.633358	-0.124961	-0.755992	-0.108250
52600		9.673392	0.042983	-1.750927	0.008471	0.003649	-0.007689	-0.833984	0.130371	-0.268066	0.633387	-0.124915	-0.755981	-0.108213
52601		9.637592	0.030443	-1.719984	0.011782	0.003953	-0.005986	-0.825684	0.125732	-0.270020	0.633447	-0.124893	-0.755943	-0.108151
52602		9.653453	0.068552	-1.699487	0.012489	0.001399	-0.008549	-0.827148	0.130859	-0.276367	0.633495	-0.124816	-0.755925	-0.108084
52603		9.656560	0.073377	-1.742017	-0.003386	-0.003081	-0.005386	-0.830322	0.128906	-0.268799	0.633500	-0.124947	-0.755889	-0.108160
52604		9.627631	0.094627	-1.736566	-0.031824	-0.002984	-0.004249	-0.834961	0.124268	-0.264404	0.633434	-0.125287	-0.755842	-0.108480
52605		9.672797	0.046514	-1.722386	-0.029810	-0.005110	-0.006849	-0.829590	0.141357	-0.268311	0.633327	-0.125543	-0.755846	-0.108776
52606		9.660272	0.050095	-1.689582	-0.035321	0.003840	-0.007280	-0.834473	0.130615	-0.269531	0.633317	-0.125964	-0.755723	-0.109206
52607		9.646504	0.053394	-1.705669	-0.032255	0.002122	-0.012186	-0.836182	0.128906	-0.268799	0.633286	-0.126232	-0.755646	-0.109606
52608		9.672930	0.027155	-1.703816	-0.027366	-0.001324	-0.011213	-0.828857	0.130127	-0.272217	0.633227	-0.126459	-0.755609	-0.109940
52609		9.670450	0.020278	-1.696424	-0.026833	-0.003209	-0.013854	-0.832275	0.133545	-0.269287	0.633168	-0.126677	-0.755571	-0.110293
52610		9.608043	0.090029	-1.709999	-0.036506	-0.004038	-0.018131	-0.841553	0.131104	-0.258057	0.633066	-0.126951	-0.755539	-0.110779
52611		9.640867	0.063680	-1.687103	-0.048266	-0.009906	-0.019357	-0.830078	0.129150	-0.258057	0.632841	-0.127273	-0.755589	-0.111353
52612		9.687835	-0.038596	-1.731340	-0.033874	-0.009535	-0.019822	-0.830078	0.124023	-0.273438	0.632656	-0.127464	-0.755647	-0.111787
52613		9.665980	-0.041562	-1.715283	-0.020631	-0.006117	-0.015778	-0.829102	0.130371	-0.268799	0.632583	-0.127570	-0.755649	-0.112069
52614		9.680503	-0.062733	-1.709535	0.006800	0.006861	-0.011990	-0.836182	0.123291	-0.260986	0.632668	-0.127519	-0.755582	-0.112100
52615		9.681587	0.013956	-1.688069	0.020156	0.004770	-0.013059	-0.833496	0.125977	-0.263916	0.632717	-0.127286	-0.755598	-0.111976
52616		9.648366	0.180051	-1.698867	0.024739	-0.003393	-0.023827	-0.825439	0.130127	-0.268066	0.632694	-0.126955	-0.755685	-0.111894
52617		9.643547	0.181806	-1.707359	-0.008919	-0.004766	-0.029719	-0.830811	0.126221	-0.265381	0.632621	-0.126881	-0.755715	-0.112193
52618		9.672804	0.064035	-1.780520	-0.016670	-0.006390	-0.034467	-0.829590	0.131592	-0.261475	0.632498	-0.126792	-0.755774	-0.112587
52619		9.693221	0.071411	-1.741595	0.011748	0.000166	-0.041099	-0.834961	0.124756	-0.263184	0.632461	-0.126450	-0.755831	-0.112795
52620		9.665239	0.143977	-1.696383	0.041363	0.010731	-0.048420	-0.832275	0.127197	-0.269287	0.632560	-0.125741	-0.755870	-0.112776
52621		9.619481	0.168265	-1.662840	0.036760	0.005513	-0.043111	-0.836182	0.123047	-0.256104	0.632632	-0.125160	-0.755907	-0.112766
52622		9.650329	0.199501	-1.694213	0.003898	-0.000383	-0.036597	-0.836670	0.125488	-0.260986	0.632556	-0.124870	-0.755986	-0.112989
52623		9.678707	0.201988	-1.695085	-0.011539	-0.001164	-0.035261	-0.836182	0.127686	-0.270020	0.632466	-0.124746	-0.756026	-0.113362
52624		9.661888	0.194047	-1.675559	-0.010922	-0.002416	-0.034277	-0.833984	0.123535	-0.264160	0.632399	-0.124658	-0.756040	-0.113734
52625		9.664631	0.206925	-1.718686	-0.017004	-0.005001	-0.037492	-0.835938	0.120605	-0.268066	0.632276	-0.124557	-0.756095	-0.114166
52626		9.650758	0.186284	-1.718991	-0.021095	-0.005467	-0.041761	-0.835938	0.126709	-0.259766	0.632148	-0.124429	-0.756148	-0.114661
52627		9.631893	0.175139	-1.721751	-0.021053	-0.009523	-0.047611	-0.833496	0.115479	-0.265381	0.631944	-0.124303	-0.756253	-0.115224
52628		9.643663	0.128583	-1.657704	-0.000861	-0.004226	-0.049938	-0.838623	0.124268	-0.271973	0.631844	-0.123901	-0.756350	-0.115574
52629		9.679710	0.106868	-1.647454	0.027378	-0.001212	-0.053938	-0.837158	0.123779	-0.264404	0.631826	-0.123320	-0.756434	-0.115739
52630		9.679358	0.154028	-1.693873	0.033612	0.002946	-0.052034	-0.830566	0.116699	-0.268066	0.631835	-0.122703	-0.756512	-0.115839
52631		9.660124	0.166843	-1.682867	0.029386	0.005632	-0.045536	-0.829102	0.119385	-0.261963	0.631892	-0.122128	-0.756547	-0.115901
52632		9.669314	0.207679	-1.718777	0.029720	0.006265	-0.039628	-0.839600	0.117920	-0.269043	0.631945	-0.121633	-0.756579	-0.115929
52633		9.632957	0.231255	-1.705806	0.029429	0.001032	-0.035678	-0.830811	0.116943	-0.265869	0.631964	-0.121183	-0.756636	-0.115924
52634		9.645056	0.278127	-1.672120	0.003860	0.001919	-0.038044	-0.831787	0.123535	-0.267822	0.631948	-0.120908	-0.756654	-0.116175
52635		9.667525	0.252579	-1.677529	0.004040	0.001168	-0.035120	-0.837891	0.119385	-0.263428	0.631935	-0.120724	-0.756655	-0.116434
52636		9.654284	0.229151	-1.676194	0.021291	0.002582	-0.033377	-0.832764	0.114990	-0.267334	0.631941	-0.120383	-0.756693	-0.116504
52637		9.651634	0.260675	-1.714463	0.027052	0.002421	-0.034728	-0.836182	0.123535	-0.269043	0.631972	-0.119956	-0.756734	-0.116512
52638		9.661154	0.286748	-1.756402	0.021411	0.006165	-0.031769	-0.840088	0.111572	-0.266846	0.632035	-0.119678	-0.756712	-0.116602
52639		9.661883	0.307530	-1.700308	0.012144	0.001676	-0.033111	-0.845215	0.109131	-0.268799	0.632027	-0.119366	-0.756749	-0.116730
52640		9.618050	0.394508	-1.697199	-0.004001	-0.003804	-0.031571	-0.832520	0.113770	-0.268799	0.631945	-0.119190	-0.756805	-0.116986
52641		9.635835	0.364353	-1.711922	-0.026574	-0.010619	-0.033383	-0.833740	0.110352	-0.274414	0.631778	-0.119229	-0.756862	-0.117478
52642		9.663815	0.251403	-1.708434	-0.027763	-0.007588	-0.028874	-0.835449	0.114502	-0.267822	0.631664	-0.119296	-0.756874	-0.117940
52643		9.664774	0.282825	-1.712272	-0.016722	-0.005368	-0.026710	-0.836426	0.109863	-0.259033	0.631567	-0.119324	-0.756895	-0.118300
52644		9.646387	0.316006	-1.706410	-0.004161	-0.010325	-0.029765	-0.837646	0.108154	-0.264404	0.631405	-0.119180	-0.757016	-0.118531
52645		9.658193	0.323383	-1.741582	-0.002971	-0.008455	-0.030521	-0.844971	0.115479	-0.264648	0.631280	-0.119013	-0.757111	-0.118759
52646		9.643701	0.329747	-1.760391	-0.006466	-0.008292	-0.028013	-0.836182	0.112061	-0.256592	0.631147	-0.118968	-0.757185	-0.119042
52647		9.663621	0.330745	-1.693241	-0.009517	-0.003531	-0.029401	-0.839844	0.099854	-0.267334	0.631037	-0.118888	-0.757242	-0.119347
52648		9.676224	0.320208	-1.702790	-0.007293	0.003600	-0.027271	-0.835693	0.100586	-0.269531	0.631035	-0.118707	-0.757236	-0.119574
52649		9.633467	0.331553	-1.718395	-0.000338	0.000179	-0.025986	-0.835938	0.108154	-0.266113	0.631026	-0.118499	-0.757252	-0.119724
52650		9.646843	0.338940	-1.703201	-0.003737	-0.013848	-0.026847	-0.837402	0.110107	-0.268311	0.630864	-0.118400	-0.757370	-0.119930
52651		9.663163	0.300636	-1.739664	-0.005907	-0.005423	-0.022614	-0.833984	0.110596	-0.269287	0.630793	-0.118367	-0.757400	-0.120148
52652		9.642991	0.325799	-1.754519	-0.004710	-0.008703	-0.019979	-0.843994	0.108887	-0.260498	0.630704	-0.118361	-0.757446	-0.120330
52653		9.641211	0.387769	-1.714086	-0.016556	-0.014116	-0.021259	-0.829346	0.105469	-0.262695	0.630501	-0.118426	-0.757558	-0.120624
52654		9.638205	0.378145	-1.680485	-0.022324	-0.013688	-0.027077	-0.839111	0.109863	-0.261963	0.630313	-0.118452	-0.757651	-0.120995
52655		9.673366	0.308665	-1.759667	-0.014013	-0.010558	-0.034167	-0.840820	0.112793	-0.260010	0.630142	-0.118384	-0.757743	-0.121377
52656		9.651014	0.357083	-1.736377	-0.015133	-0.019647	-0.031535	-0.834717	0.110352	-0.254883	0.629879	-0.118392	-0.757900	-0.121753
52657		9.630777	0.452200	-1.718975	-0.028612	-0.021645	-0.024910	-0.841553	0.105713	-0.270996	0.629578	-0.118550	-0.758055	-0.122186
52658		9.622322	0.450834	-1.689310	-0.048515	-0.025100	-0.018775	-0.842529	0.104736	-0.264160	0.629276	-0.118899	-0.758162	-0.122739
52659		9.651234	0.431597	-1.736877	-0.064334	-0.035744	-0.013016	-0.839600	0.112305	-0.260498	0.628835	-0.119430	-0.758342	-0.123374
52660		9.645336	0.453969	-1.661665	-0.088710	-0.030416	-0.012394	-0.839600	0.110840	-0.261963	0.628401	-0.120213	-0.758430	-0.124279
52661		9.668595	0.402463	-1.685545	-0.093077	-0.030892	-0.017563	-0.843994	0.106201	-0.258789	0.627956	-0.120966	-0.758518	-0.125255
52662		9.644488	0.346478	-1.704886	-0.090343	-0.036337	-0.017893	-0.838135	0.118408	-0.251465	0.627449	-0.121655	-0.758675	-0.126175
52663		9.647697	0.305381	-1.684959	-0.079300	-0.027858	-0.025489	-0.841797	0.107178	-0.254639	0.627011	-0.122275	-0.758780	-0.127119
52664		9.637778	0.337746	-1.673622	-0.052212	-0.027311	-0.038145	-0.849365	0.116699	-0.257324	0.626610	-0.122459	-0.758959	-0.127848
52665		9.614447	0.364260	-1.713596	-0.034004	-0.027683	-0.049654	-0.841797	0.100342	-0.252197	0.626215	-0.122488	-0.759161	-0.128553
52666		9.645171	0.359596	-1.738723	-0.023803	-0.014318	-0.060259	-0.838379	0.104492	-0.256592	0.625943	-0.122160	-0.759333	-0.129172
52667		9.652344	0.390096	-1.757920	-0.027557	-0.032628	-0.063156	-0.844971	0.098633	-0.249023	0.625507	-0.121916	-0.759616	-0.129849
52668		9.634743	0.418970	-1.713738	-0.025940	-0.037280	-0.059012	-0.843750	0.110107	-0.246582	0.625004	-0.121657	-0.759969	-0.130447
52669		9.628788	0.386374	-1.767758	-0.020991	-0.032755	-0.057696	-0.843506	0.104980	-0.253418	0.624547	-0.121482	-0.760267	-0.131061
52670		9.595230	0.407265	-1.761809	-0.012727	-0.041416	-0.056837	-0.842041	0.110107	-0.256836	0.624051	-0.121227	-0.760630	-0.131554
52671		9.623274	0.536931	-1.769148	-0.009578	-0.042301	-0.059606	-0.846191	0.106689	-0.260498	0.623562	-0.120983	-0.760980	-0.132068
52672		9.587042	0.662644	-1.774134	-0.014983	-0.044989	-0.069712	-0.842773	0.102539	-0.243896	0.623035	-0.120672	-0.761351	-0.132701
52673		9.595606	0.750195	-1.781658	-0.037477	-0.049702	-0.084345	-0.840088	0.095459	-0.249023	0.622353	-0.120361	-0.761796	-0.133629
52674		9.593347	0.780636	-1.772565	-0.069672	-0.058230	-0.102720	-0.848389	0.093506	-0.244873	0.621538	-0.120090	-0.762269	-0.134965
52675		9.580892	0.721455	-1.842565	-0.087716	-0.058852	-0.110587	-0.835693	0.098877	-0.245850	0.620654	-0.119882	-0.762741	-0.136537
52676		9.557101	0.749161	-1.880258	-0.099520	-0.069497	-0.129561	-0.847900	0.087891	-0.239258	0.619641	-0.119667	-0.763266	-0.138381
52677		9.497906	0.831721	-1.850950	-0.083613	-0.062788	-0.155655	-0.852051	0.092529	-0.226562	0.618637	-0.118982	-0.763848	-0.140244
52678		9.519300	0.909377	-1.862094	-0.093527	-0.069720	-0.196520	-0.844971	0.089844	-0.233154	0.617428	-0.118064	-0.764541	-0.142551
52679		9.492203	1.014457	-1.869663	-0.127420	-0.077866	-0.234663	-0.847656	0.082520	-0.227783	0.616058	-0.117064	-0.765251	-0.145461
52680		9.481201	0.960411	-1.879303	-0.183600	-0.102185	-0.254521	-0.848633	0.077637	-0.234619	0.614315	-0.116317	-0.766084	-0.149009
52681		9.532499	0.799535	-1.811620	-0.200775	-0.104709	-0.254559	-0.852539	0.077393	-0.229492	0.612547	-0.115698	-0.766863	-0.152710
52682		9.583207	0.686597	-1.798374	-0.173360	-0.101269	-0.247375	-0.854004	0.081787	-0.230225	0.610841	-0.114971	-0.767646	-0.156121
52683		9.578366	0.673902	-1.861953	-0.148445	-0.080290	-0.237717	-0.852539	0.062012	-0.230713	0.609391	-0.114192	-0.768264	-0.159293
52684		9.657293	0.684432	-2.052936	-0.127685	-0.093765	-0.215098	-0.844482	0.062988	-0.217773	0.607897	-0.113331	-0.769012	-0.161979
52685		9.672272	0.517551	-2.092642	-0.102701	-0.064903	-0.175543	-0.853271	0.061279	-0.221924	0.606760	-0.112642	-0.769544	-0.164184
52686		9.689030	0.432392	-2.068923	-0.039850	-0.046273	-0.127773	-0.855957	0.060059	-0.215576	0.605997	-0.111916	-0.769978	-0.165457
52687		9.621815	0.715658	-2.027526	0.055044	-0.025806	-0.104737	-0.851562	0.048340	-0.219727	0.605586	-0.110663	-0.770435	-0.165677
52688		9.498602	1.155793	-1.997889	0.017090	-0.011699	-0.074139	-0.855225	0.057861	-0.217773	0.605351	-0.109857	-0.770668	-0.165989
52689		9.513946	1.422420	-2.065849	-0.139599	0.006303	-0.045850	-0.843506	0.054688	-0.225586	0.605114	-0.110595	-0.770381	-0.167689
52690		9.528131	1.396064	-2.101540	-0.220971	0.019191	-0.033005	-0.856445	0.053955	-0.222412	0.604960	-0.112000	-0.769778	-0.170063
52691		9.456740	1.370229	-2.448089	-0.198253	0.034297	-0.046201	-0.851074	0.058105	-0.218506	0.604922	-0.113067	-0.769145	-0.172341
52692		9.409290	1.302923	-2.582286	-0.172945	0.007801	-0.081197	-0.850830	0.050781	-0.216797	0.604572	-0.113704	-0.768812	-0.174623
52693		9.477460	1.254675	-2.571695	-0.141963	-0.012423	-0.107609	-0.856934	0.044922	-0.224365	0.604008	-0.113824	-0.768754	-0.176737
52694		9.564368	0.993889	-2.518692	-0.113714	-0.026780	-0.104370	-0.861084	0.053223	-0.219238	0.603379	-0.113740	-0.768851	-0.178508
52695		9.628538	0.865054	-2.397972	-0.023963	-0.019666	-0.070968	-0.849609	0.051758	-0.216553	0.602991	-0.113398	-0.769037	-0.179233
52696		9.692001	1.024436	-2.322614	0.092233	-0.002834	-0.036736	-0.848877	0.049805	-0.223145	0.603010	-0.112463	-0.769307	-0.178598
52697		9.560092	1.302349	-2.271074	0.217164	0.036586	-0.036271	-0.851074	0.052490	-0.223877	0.603613	-0.110483	-0.769537	-0.176799
52698		9.429160	1.513004	-2.229925	0.300931	0.070230	-0.059201	-0.852539	0.034424	-0.216309	0.604590	-0.107625	-0.769714	-0.174438
52699		9.419116	1.740079	-2.300557	0.379137	0.107803	-0.092966	-0.854980	0.037598	-0.220703	0.605914	-0.103612	-0.769873	-0.171549
52700		9.393361	1.618071	-2.449257	0.382514	0.138357	-0.120147	-0.855713	0.040527	-0.231934	0.607461	-0.099325	-0.769802	-0.168912
52701		9.394361	1.586626	-2.597038	0.375830	0.159405	-0.097648	-0.851807	0.036865	-0.231445	0.609261	-0.095329	-0.769469	-0.166226
52702		9.352679	1.986727	-2.627759	0.305545	0.139987	-0.040640	-0.852295	0.034912	-0.245605	0.610881	-0.092464	-0.769063	-0.163758
52703		9.369668	2.414038	-2.548865	0.152850	0.126552	-0.002036	-0.858398	0.027588	-0.246826	0.612311	-0.091156	-0.768360	-0.162446
52704		9.368817	2.257339	-2.444007	-0.138170	0.103261	0.012636	-0.851807	0.024658	-0.239014	0.613199	-0.092200	-0.767247	-0.163761
52705		9.425136	1.793089	-2.302911	-0.251436	0.099868	0.037111	-0.854248	0.031006	-0.239502	0.613936	-0.094314	-0.765930	-0.165949
52706		9.503091	1.740628	-2.303787	-0.188261	0.152208	0.051437	-0.846191	0.038818	-0.244141	0.615259	-0.096018	-0.764315	-0.167507
52707		9.388356	1.828878	-2.386178	-0.182217	0.155999	0.048053	-0.844482	0.040283	-0.246094	0.616626	-0.097687	-0.762658	-0.169063
52708		9.215802	1.958626	-2.509883	-0.252382	0.136838	0.020261	-0.844971	0.046387	-0.250488	0.617654	-0.099663	-0.761031	-0.171473
52709		9.191283	1.745088	-2.507177	-0.281236	0.059859	-0.028226	-0.852295	0.036377	-0.245605	0.617805	-0.101606	-0.759972	-0.174458
52710		9.452967	1.474222	-1.955506	-0.187067	0.072469	-0.093959	-0.845703	0.043213	-0.257324	0.618016	-0.102051	-0.759151	-0.177007
52711		9.658408	1.678515	-1.220986	-0.018992	0.186153	-0.178982	-0.851562	0.040771	-0.260010	0.619375	-0.100207	-0.757868	-0.178800
52712		9.402445	2.122192	-0.812344	0.123802	0.292117	-0.316602	-0.841553	0.038330	-0.264160	0.621581	-0.095732	-0.756248	-0.180446
52713		9.317675	2.398275	-0.560857	0.103900	0.320159	-0.562575	-0.844971	0.015137	-0.271240	0.623443	-0.089073	-0.754611	-0.184247
52714		9.298347	2.253673	-0.812289	0.124704	0.346770	-0.703770	-0.849609	0.002930	-0.281006	0.625203	-0.080733	-0.752939	-0.188907
52715		9.600644	1.973713	-0.947531	0.088043	0.381144	-0.791042	-0.843506	-0.013916	-0.288086	0.626973	-0.071813	-0.750909	-0.194636
52716		9.862047	1.481460	-0.803909	0.010191	0.346037	-0.811637	-0.845215	-0.035400	-0.291260	0.628220	-0.063387	-0.748892	-0.201202
52717		10.153952	1.679800	-0.812074	-0.131374	0.295301	-0.769864	-0.838623	-0.048828	-0.305176	0.628893	-0.056539	-0.746829	-0.208671
52718		9.844360	1.949707	-0.754092	-0.286380	0.229697	-0.688186	-0.833984	-0.064453	-0.309570	0.629030	-0.051846	-0.744709	-0.216889
52719		9.574141	0.958488	-0.202591	-0.296908	0.137654	-0.474676	-0.832275	-0.068359	-0.306152	0.628842	-0.049423	-0.743100	-0.223423
52720		9.746254	0.555746	-0.293852	-0.370086	0.124976	-0.108854	-0.836426	-0.073486	-0.313232	0.629459	-0.051050	-0.741149	-0.227756
52721		9.653281	0.687113	0.019077	-0.207303	0.126257	0.230906	-0.835449	-0.065674	-0.312744	0.631159	-0.054474	-0.739424	-0.227865
52722		9.769043	1.611922	-0.044229	-0.026867	0.062020	0.443886	-0.831787	-0.043457	-0.315674	0.632966	-0.058639	-0.738567	-0.224575
52723		9.614326	3.327289	-0.165910	0.076104	-0.024401	0.477242	-0.835938	-0.049561	-0.318604	0.634125	-0.062678	-0.738595	-0.220079
52724		9.659459	3.327534	-0.481123	-0.148217	-0.164834	0.284329	-0.834473	-0.038086	-0.318848	0.633286	-0.066916	-0.739272	-0.218971
52725		9.812372	1.495063	-0.402256	-0.091173	-0.102744	0.192532	-0.837402	-0.028076	-0.311035	0.632823	-0.069726	-0.739653	-0.218144
52726		9.409383	1.621706	0.154960	0.539524	0.056088	-0.003768	-0.837646	-0.038330	-0.313232	0.633794	-0.065367	-0.740661	-0.213200
52727		9.635733	1.223976	-0.276072	0.777345	0.048043	0.006404	-0.833008	-0.038818	-0.311768	0.634878	-0.059161	-0.742314	-0.205912
52728		9.543332	3.202715	-0.976129	0.763322	0.096459	0.105409	-0.837891	-0.040283	-0.312500	0.636592	-0.053914	-0.743394	-0.198014
52729		9.473733	3.788442	-0.784097	0.344074	0.044935	0.161818	-0.831787	-0.047119	-0.323242	0.637633	-0.052685	-0.743770	-0.193533
52730		9.291060	3.148128	-1.252441	0.021189	-0.024105	0.194368	-0.835449	-0.035889	-0.313232	0.637949	-0.054393	-0.743847	-0.191716
52731		9.099166	3.073949	-1.637082	-0.077395	-0.046424	0.189448	-0.834229	-0.029785	-0.310547	0.637920	-0.056993	-0.743893	-0.190875
52732		9.226859	2.803551	-1.411421	-0.186836	-0.062577	0.184115	-0.835693	-0.035645	-0.313721	0.637637	-0.060471	-0.743805	-0.191091
52733		8.995520	2.739395	-1.665526	-0.214766	-0.086562	0.151043	-0.826416	-0.026611	-0.312744	0.637048	-0.063786	-0.743865	-0.191744
52734		9.329551	2.472482	-1.541960	-0.265511	-0.140436	0.137425	-0.832520	-0.024414	-0.310059	0.635893	-0.067547	-0.744206	-0.192965
52735		9.354485	2.112800	-1.599778	-0.165460	-0.109237	0.121692	-0.827881	-0.017090	-0.299561	0.635059	-0.070261	-0.744558	-0.193384
52736		9.365918	1.849710	-1.664032	-0.038184	-0.073007	0.086092	-0.843018	-0.011230	-0.301514	0.634552	-0.071599	-0.744974	-0.192953
52737		9.247569	2.503755	-1.690755	0.034685	-0.039960	0.074335	-0.840576	-0.015869	-0.299805	0.634380	-0.072207	-0.745314	-0.191979
52738		8.838671	3.361622	-1.824216	-0.077696	-0.065417	0.007944	-0.833740	-0.010254	-0.295166	0.633712	-0.073081	-0.745657	-0.192518
52739		8.875329	3.173629	-2.167370	-0.305141	-0.099077	-0.085597	-0.834473	-0.006592	-0.299072	0.632284	-0.075027	-0.745789	-0.195926
52740		9.508797	3.120549	-1.745270	-0.499532	-0.079530	-0.133774	-0.836426	-0.004395	-0.298584	0.630743	-0.078030	-0.745283	-0.201563
52741		9.686953	2.425249	-1.671619	-0.648873	-0.059553	-0.092540	-0.843750	-0.007080	-0.288086	0.629314	-0.082552	-0.744155	-0.208284
52742		9.136592	1.579228	-2.353118	-0.687964	-0.143591	0.001788	-0.838135	0.007812	-0.296143	0.627210	-0.088429	-0.743496	-0.214480
52743		9.062755	1.363856	-2.882133	-0.910816	-0.372118	0.137069	-0.841797	0.004639	-0.275391	0.623082	-0.097993	-0.743717	-0.221476
52744		10.134353	0.676779	-1.589193	-1.078836	-0.367083	0.194304	-0.847656	0.026367	-0.283936	0.618785	-0.109248	-0.743315	-0.229461
52745		10.927520	-0.527936	-0.607392	-0.646555	-0.058447	0.113838	-0.841553	0.035889	-0.267090	0.617703	-0.115574	-0.741685	-0.234498
52746		10.160138	-0.981540	-0.875653	-0.006921	0.099174	0.015650	-0.840088	0.029297	-0.274902	0.618627	-0.115663	-0.740868	-0.234600
52747		9.794213	-0.781966	-1.125568	0.361204	0.129214	-0.094064	-0.841064	0.023926	-0.276367	0.620071	-0.111690	-0.741051	-0.232122
52748		10.126846	0.468800	-1.617188	0.688754	0.172542	-0.131857	-0.845459	0.019775	-0.277344	0.622226	-0.104686	-0.741874	-0.226934
52749		10.238835	0.896168	-1.748254	0.964554	0.214640	-0.100324	-0.836182	0.008057	-0.296875	0.625123	-0.095744	-0.743035	-0.218982
52750		10.058907	1.122385	-1.646097	1.058193	0.226069	-0.021854	-0.841553	-0.000732	-0.291748	0.628437	-0.086670	-0.744084	-0.209507
52751		9.860901	2.110869	-1.313305	0.906220	0.217124	0.036849	-0.841553	-0.005615	-0.297363	0.631496	-0.079365	-0.744677	-0.200923
52752		9.820989	2.556686	-0.766360	0.708739	0.201821	0.057346	-0.841064	-0.008301	-0.295654	0.634201	-0.073847	-0.744786	-0.193984
52753		9.811220	2.345786	-0.523226	0.466382	0.217881	0.089996	-0.830322	-0.008789	-0.312500	0.636837	-0.070546	-0.744124	-0.189053
52754		9.637509	1.801236	-0.992265	0.449699	0.207635	0.139843	-0.825439	-0.011719	-0.313477	0.639531	-0.067839	-0.743360	-0.183886
52755		9.286250	2.001329	-1.198757	0.427867	0.198288	0.191476	-0.832275	-0.015625	-0.324951	0.642202	-0.065783	-0.742560	-0.178477
52756		9.477113	2.169859	-1.231372	0.418798	0.204866	0.195229	-0.831543	-0.010498	-0.324463	0.644934	-0.063742	-0.741647	-0.173083
52757		9.285391	2.212337	-1.359106	0.529588	0.174225	0.209244	-0.829346	-0.000488	-0.328857	0.647441	-0.061066	-0.741185	-0.166543
52758		9.306905	2.044498	-0.920181	0.467966	0.140503	0.216148	-0.832764	-0.006836	-0.327393	0.649570	-0.059130	-0.740800	-0.160553
52759		9.659072	1.981508	-0.264369	0.497685	0.177553	0.204852	-0.837158	-0.018799	-0.328613	0.651985	-0.056702	-0.740187	-0.154346
52760		9.787581	1.315022	0.053036	0.739323	0.317869	0.090900	-0.822998	-0.016357	-0.342285	0.655582	-0.050844	-0.738963	-0.146833
52761		9.276745	0.557860	-0.704710	1.000835	0.343782	0.001101	-0.814697	-0.022217	-0.352051	0.659382	-0.042013	-0.737896	-0.137695
52762		8.764435	1.846799	-1.132251	1.049349	0.273124	-0.111704	-0.819580	-0.037598	-0.352783	0.662265	-0.031872	-0.737393	-0.128999
52763		8.528640	3.384154	-1.491335	0.780786	0.132125	-0.181998	-0.818359	-0.046875	-0.356445	0.663498	-0.023498	-0.737582	-0.123250
52764		8.804560	4.142445	-1.601057	0.329152	-0.094280	-0.133679	-0.818848	-0.046387	-0.348877	0.662551	-0.019671	-0.738883	-0.121205
52765		9.996427	3.580463	-0.285467	-0.521550	-0.218284	-0.091632	-0.818604	-0.048096	-0.352295	0.660260	-0.023554	-0.739901	-0.126683
52766		9.933973	1.820284	0.167914	-0.880262	-0.114659	-0.089156	-0.820312	-0.036865	-0.346191	0.658810	-0.030179	-0.739399	-0.135457
52767		9.596083	0.860185	-0.325726	-0.584256	-0.031502	-0.140456	-0.823975	-0.037842	-0.347412	0.658067	-0.033825	-0.738680	-0.141970
52768		9.317343	1.171205	-1.185641	-0.306089	-0.049625	-0.245064	-0.823730	-0.042236	-0.344971	0.657066	-0.034206	-0.738623	-0.146733
52769		9.387149	1.479440	-1.464718	-0.262499	-0.156407	-0.311919	-0.820801	-0.049316	-0.340332	0.654949	-0.033791	-0.739542	-0.151582
52770		9.341510	1.803740	-1.293981	-0.336797	-0.196279	-0.326024	-0.823242	-0.051025	-0.340332	0.652382	-0.033905	-0.740632	-0.157202
52771		9.146520	2.440893	-0.894776	-0.309896	-0.229310	-0.379245	-0.823486	-0.057373	-0.334717	0.649406	-0.033373	-0.742019	-0.162990
52772		8.725466	2.933176	-0.873326	-0.438305	-0.240536	-0.521735	-0.831543	-0.061768	-0.330566	0.645937	-0.032578	-0.743253	-0.171111
52773		8.874837	3.045538	-0.453287	-0.580767	-0.221696	-0.734285	-0.829102	-0.081787	-0.317871	0.642050	-0.030939	-0.744039	-0.182266
52774		9.198022	2.958369	-0.515811	-0.747137	-0.176828	-0.818114	-0.832764	-0.075684	-0.320312	0.638168	-0.029713	-0.744040	-0.195610
52775		9.302789	2.136287	-0.097569	-0.804244	-0.085605	-0.941748	-0.834961	-0.091064	-0.324463	0.634695	-0.027696	-0.743015	-0.210532
52776		9.375619	1.387899	0.073376	-0.468272	0.079602	-1.184432	-0.832031	-0.121826	-0.330566	0.632101	-0.020268	-0.741455	-0.224237
52777		9.024818	1.555932	-0.243467	0.154389	0.264210	-1.323633	-0.828125	-0.144287	-0.329834	0.630836	-0.005993	-0.740019	-0.233199
52778		8.755848	2.443538	-0.201667	0.308193	0.388588	-1.438995	-0.814697	-0.180176	-0.341797	0.630158	0.010836	-0.737839	-0.241612
52779		7.908998	3.544669	0.602043	0.407369	0.306593	-1.669531	-0.795898	-0.218750	-0.348633	0.627794	0.030392	-0.736236	-0.250814
52780		7.929154	3.732004	-1.122946	0.535149	0.303608	-1.762480	-0.790283	-0.265869	-0.348633	0.624774	0.051817	-0.734614	-0.259451
52781		7.924907	4.415925	-1.251290	0.605212	0.267297	-1.686302	-0.775146	-0.302246	-0.351562	0.621261	0.072986	-0.733197	-0.266703
52782		8.219809	5.324263	-0.288002	0.363272	0.053584	-1.624433	-0.766357	-0.337646	-0.348633	0.615940	0.090957	-0.732321	-0.275774
52783		7.678602	5.683457	-1.720887	0.013080	0.138664	-1.602989	-0.753662	-0.372314	-0.351562	0.611599	0.106278	-0.729312	-0.287674
52784		7.050455	5.561243	-1.175384	-0.148529	0.062025	-1.639721	-0.741699	-0.403320	-0.361328	0.606386	0.120394	-0.725958	-0.301307
52785		6.918382	4.878968	-0.789042	-0.172569	0.149476	-1.673870	-0.716064	-0.433350	-0.371338	0.601646	0.134901	-0.721452	-0.315168
52786		7.048755	4.703553	-1.722727	-0.119122	0.223456	-1.634084	-0.703369	-0.456299	-0.376709	0.597375	0.149604	-0.716345	-0.328043
52787		7.297333	5.393228	-1.450391	0.195386	0.180794	-1.595727	-0.677979	-0.491699	-0.378662	0.592014	0.165979	-0.712654	-0.337779
52788		7.271984	6.576206	-0.777931	0.311553	0.047439	-1.581137	-0.674805	-0.520508	-0.379395	0.585037	0.182444	-0.710190	-0.346521
52789		6.866014	7.471025	-0.903958	0.154057	0.027852	-1.534914	-0.648438	-0.549316	-0.373291	0.578237	0.197219	-0.707013	-0.356203
52790		6.081845	7.903255	-0.638603	-0.205441	0.054895	-1.504690	-0.626221	-0.570801	-0.372314	0.572491	0.209188	-0.701853	-0.368641
52791		5.400163	7.767440	-0.851895	-0.302580	0.027134	-1.494801	-0.601562	-0.599365	-0.382080	0.566572	0.220125	-0.696232	-0.381841
52792		5.599230	7.538052	-1.137527	-0.319950	0.016007	-1.412561	-0.586426	-0.608887	-0.392334	0.560839	0.230161	-0.690571	-0.394457
52793		6.069447	7.371864	-1.032308	-0.242470	0.022527	-1.372491	-0.559082	-0.624023	-0.392578	0.554950	0.240328	-0.685153	-0.406003
52794		5.784979	7.485633	-0.995295	0.004132	0.032072	-1.375205	-0.542969	-0.653076	-0.397949	0.548199	0.252167	-0.680724	-0.415337
52795		4.796338	8.548031	-0.713845	0.099209	0.048770	-1.321263	-0.518311	-0.673584	-0.394287	0.541453	0.264270	-0.676630	-0.423276
52796		4.535900	9.385425	-0.739693	-0.054865	0.052224	-1.252185	-0.504639	-0.694824	-0.402588	0.535475	0.274702	-0.671748	-0.431927
52797		4.937689	9.421437	-0.601580	-0.205400	0.023080	-1.194831	-0.479004	-0.702393	-0.407715	0.529949	0.283414	-0.666288	-0.441465
52798		5.295978	9.423163	-0.600207	-0.300506	0.016645	-1.156711	-0.457764	-0.711670	-0.415771	0.524802	0.291084	-0.660328	-0.451463
52799		4.894437	8.825242	-0.329549	-0.216278	0.018145	-1.092440	-0.445557	-0.717773	-0.420410	0.519620	0.298725	-0.654930	-0.460245
52800		4.565410	9.071207	-0.340187	-0.031803	0.042557	-1.017659	-0.428223	-0.736572	-0.424805	0.514273	0.307017	-0.650608	-0.466875
52801		4.454935	9.921661	-0.192449	-0.047598	0.092388	-0.952993	-0.410156	-0.745605	-0.427246	0.509700	0.314934	-0.646019	-0.472950
52802		4.246440	10.314851	-0.371719	-0.138256	0.075070	-0.871362	-0.393066	-0.752686	-0.432373	0.505760	0.321468	-0.641241	-0.479244
52803		3.940757	10.146742	-0.364631	-0.232444	0.021534	-0.783725	-0.382812	-0.757812	-0.435059	0.502240	0.326349	-0.636517	-0.485899
52804		3.416192	9.653156	-0.304101	-0.156931	0.010433	-0.711458	-0.366943	-0.760742	-0.442383	0.498707	0.331017	-0.632563	-0.491511
52805		3.060559	9.918943	-0.313008	-0.105508	0.002789	-0.638204	-0.355713	-0.771240	-0.441406	0.495322	0.335363	-0.629226	-0.496249
52806		2.895951	10.121504	-0.393380	-0.034962	-0.013511	-0.557840	-0.335693	-0.771484	-0.445068	0.491983	0.339394	-0.626728	-0.499976
52807		2.913753	10.525773	-0.313371	-0.052304	-0.048942	-0.452953	-0.345947	-0.771240	-0.448242	0.489095	0.342283	-0.624748	-0.503307
52808		2.746299	10.540451	-0.102847	-0.088623	-0.053180	-0.336004	-0.334961	-0.782471	-0.441162	0.487016	0.343956	-0.623075	-0.506248
52809		2.569173	10.506077	-0.143464	-0.074590	-0.058295	-0.217196	-0.331787	-0.778320	-0.451660	0.485592	0.344764	-0.622017	-0.508363
52810		2.493073	10.555269	-0.160437	-0.024367	-0.072628	-0.101179	-0.325195	-0.774658	-0.447266	0.484577	0.344885	-0.621860	-0.509440
52811		2.485818	10.692856	-0.123310	-0.014241	-0.087999	0.025303	-0.330811	-0.779297	-0.452148	0.484209	0.343992	-0.622401	-0.509733
52812		2.629985	10.483434	-0.070697	0.034656	-0.093089	0.149193	-0.330078	-0.775635	-0.449219	0.484376	0.342396	-0.623816	-0.508918
52813		2.882600	10.632819	0.045517	0.086167	-0.081693	0.279007	-0.336426	-0.777344	-0.450439	0.485240	0.340177	-0.626035	-0.506855
52814		3.019956	10.703300	0.063080	0.048270	-0.083484	0.408129	-0.347900	-0.776123	-0.441162	0.487061	0.336705	-0.628557	-0.504298
52815		2.953622	10.446716	-0.042527	0.046857	-0.091393	0.526061	-0.364746	-0.769043	-0.439453	0.489543	0.332224	-0.631598	-0.501058
52816		3.139172	10.222647	-0.005812	0.069476	-0.057894	0.635014	-0.372803	-0.767090	-0.439453	0.492837	0.327197	-0.635001	-0.496817
52817		3.251670	10.164737	-0.037004	0.133205	-0.035016	0.731780	-0.390625	-0.757568	-0.441895	0.496628	0.321928	-0.638998	-0.491329
52818		3.565848	10.071224	-0.068349	0.151019	-0.030421	0.817602	-0.402344	-0.753662	-0.437256	0.500855	0.316074	-0.643362	-0.485105
52819		3.603852	10.045822	-0.234692	0.191743	-0.026833	0.917335	-0.415283	-0.745605	-0.427002	0.505500	0.309667	-0.648259	-0.477845
52820		3.822598	9.858484	-0.333573	0.210879	-0.017229	1.012830	-0.430176	-0.728027	-0.418945	0.510645	0.302624	-0.653477	-0.469711
52821		4.210936	9.698778	-0.386286	0.208094	-0.010771	1.091633	-0.458008	-0.730957	-0.418213	0.516219	0.294899	-0.658819	-0.460988
52822		4.413232	9.321134	-0.596586	0.252117	-0.002501	1.175722	-0.468262	-0.702148	-0.408447	0.522072	0.286750	-0.664533	-0.451233
52823		4.605337	8.986306	-0.683823	0.283047	-0.002838	1.272230	-0.494873	-0.696289	-0.398438	0.528225	0.277931	-0.670605	-0.440478
52824		4.982429	9.282115	-0.713328	0.312962	-0.021631	1.385839	-0.524658	-0.676758	-0.392822	0.534582	0.268167	-0.677169	-0.428662
52825		5.615375	9.013249	-0.706881	0.261609	-0.038218	1.482193	-0.548096	-0.665283	-0.391602	0.541293	0.257043	-0.683671	-0.416563
52826		6.076620	8.586063	-0.769255	0.194441	-0.047900	1.606444	-0.564697	-0.640625	-0.385742	0.548584	0.244273	-0.690018	-0.404055
52827		6.340018	7.830192	-0.684437	0.181481	-0.044198	1.684196	-0.596436	-0.625977	-0.382568	0.556111	0.230675	-0.696209	-0.390925
52828		6.597938	7.757834	-0.694966	0.230356	-0.034336	1.731328	-0.620361	-0.587891	-0.371582	0.563554	0.216954	-0.702383	-0.376823
52829		7.020766	7.491177	-0.789472	0.199203	-0.041018	1.760018	-0.641113	-0.558350	-0.363525	0.570869	0.202596	-0.708204	-0.362644
52830		7.486174	6.556627	-0.961825	0.126191	-0.083389	1.829108	-0.657471	-0.536133	-0.366211	0.578012	0.186813	-0.713810	-0.348537
52831		7.585575	6.270843	-1.029734	0.150534	-0.101639	1.879791	-0.683350	-0.497803	-0.360352	0.584858	0.170615	-0.719371	-0.333671
52832		7.854843	5.610520	-0.925123	0.174750	-0.135800	1.902793	-0.704346	-0.477295	-0.353027	0.591098	0.154123	-0.724931	-0.318315
52833		7.879325	5.309303	-0.958151	0.232988	-0.142172	1.966517	-0.739014	-0.433838	-0.341064	0.597075	0.137408	-0.730457	-0.301749
52834		8.003848	5.376830	-0.916832	0.157472	-0.106618	1.999510	-0.741943	-0.385010	-0.343750	0.603215	0.119769	-0.735057	-0.285444
52835		7.929699	4.716327	-1.065753	0.043100	-0.117757	2.060179	-0.775635	-0.355469	-0.335205	0.609255	0.100603	-0.738933	-0.269564
52836		7.712685	4.174739	-1.083976	0.067367	-0.068841	2.054083	-0.788330	-0.304199	-0.328369	0.615288	0.081788	-0.742022	-0.253250
52837		7.355456	3.441788	-0.948620	0.130171	-0.059937	1.982264	-0.798584	-0.267578	-0.325195	0.620715	0.064093	-0.744689	-0.236736
52838		7.691246	2.997205	-1.310978	0.114605	-0.006702	1.926283	-0.813477	-0.238037	-0.331787	0.626110	0.046921	-0.746401	-0.220614
52839		7.868845	3.001076	-0.743174	0.259148	-0.127951	1.856268	-0.821777	-0.197754	-0.330078	0.629738	0.031175	-0.748993	-0.203636
52840		8.036386	3.570294	-1.024645	0.381891	0.051311	1.768084	-0.828369	-0.152832	-0.319824	0.634435	0.017658	-0.750051	-0.186024
52841		7.892597	3.090168	-0.356191	0.179360	-0.032300	1.631268	-0.828125	-0.122070	-0.323975	0.637773	0.003612	-0.750919	-0.171327
52842		8.084340	2.894410	-1.029218	0.093728	0.072214	1.499253	-0.828369	-0.094238	-0.321045	0.641564	-0.009654	-0.750471	-0.158419
52843		8.496594	2.643530	-0.787481	-0.090948	0.047262	1.336397	-0.830566	-0.064453	-0.318848	0.644569	-0.022922	-0.749636	-0.148497
52844		8.908930	1.726062	-1.112579	-0.022061	-0.005976	1.271883	-0.824463	-0.036377	-0.320312	0.646801	-0.035123	-0.749173	-0.138398
52845		8.819109	1.694006	-0.896634	0.166192	0.009320	1.246146	-0.837646	-0.007812	-0.319336	0.649051	-0.045527	-0.748734	-0.126716
52846		9.079240	1.991340	-1.232148	0.136278	-0.037175	1.055186	-0.827393	0.013672	-0.322510	0.650407	-0.054450	-0.748573	-0.116811
52847		8.866441	2.223384	-1.198786	0.040294	0.030944	0.840806	-0.819336	0.026367	-0.318359	0.651926	-0.062042	-0.747754	-0.109579
52848		8.911379	2.284844	-1.532104	-0.384282	-0.026295	0.629530	-0.830078	0.062256	-0.318848	0.652225	-0.071193	-0.746909	-0.107987
52849		9.302272	1.824833	-1.462278	-0.535143	-0.071334	0.449057	-0.827881	0.068848	-0.316162	0.651672	-0.079945	-0.746325	-0.109230
52850		9.481931	1.146479	-1.410694	-0.544601	-0.027025	0.335836	-0.822510	0.080811	-0.311523	0.651321	-0.087653	-0.745426	-0.111524
52851		9.757427	0.172507	-0.973243	-0.540886	-0.044206	0.181611	-0.826416	0.083252	-0.320557	0.650561	-0.093913	-0.744797	-0.115016
52852		9.817184	-0.274690	-1.157825	-0.202668	0.016449	-0.016551	-0.824951	0.090820	-0.312500	0.650458	-0.095488	-0.744372	-0.117037
52853		9.787249	-0.342308	-1.287891	0.120049	0.060953	-0.169576	-0.828125	0.086426	-0.314697	0.650926	-0.092948	-0.744234	-0.117350
52854		9.571668	-0.236722	-1.378326	0.283653	0.068692	-0.289083	-0.829590	0.076172	-0.312988	0.651471	-0.087952	-0.744402	-0.117117
52855		9.510511	0.202498	-1.474346	0.284972	0.085006	-0.313091	-0.830811	0.066895	-0.312500	0.652116	-0.082694	-0.744445	-0.117079
52856		9.566705	0.220931	-1.122549	0.171071	0.034640	-0.272144	-0.826416	0.055664	-0.316406	0.652221	-0.078817	-0.744674	-0.117711
52857		9.860784	0.337853	-0.916908	0.115592	0.028707	-0.207593	-0.824219	0.050537	-0.317383	0.652303	-0.076001	-0.744798	-0.118325
52858		9.978929	0.348582	-0.925967	-0.002398	0.072091	-0.151139	-0.826904	0.048340	-0.317627	0.652757	-0.074607	-0.744335	-0.119616
52859		9.743160	0.337134	-0.866509	-0.051948	0.043445	-0.145647	-0.824219	0.049561	-0.319580	0.652904	-0.073711	-0.744023	-0.121295
52860		9.550575	0.422808	-1.217159	0.018830	-0.005783	-0.186206	-0.831299	0.036377	-0.325928	0.652594	-0.071934	-0.744255	-0.122599
52861		9.409809	0.427934	-1.359050	0.035168	0.050478	-0.247208	-0.834473	0.047363	-0.325684	0.652725	-0.069369	-0.744103	-0.124298
52862		9.399795	0.516174	-1.284012	-0.025186	0.014176	-0.346316	-0.828125	0.026367	-0.324951	0.652302	-0.066430	-0.744228	-0.127332
52863		9.574257	0.727414	-1.279090	-0.195488	-0.033592	-0.495052	-0.827881	0.021973	-0.327393	0.651037	-0.063568	-0.744574	-0.133117
52864		9.505936	0.778316	-0.958936	-0.251327	-0.011652	-0.610457	-0.826660	0.011719	-0.325684	0.649704	-0.060047	-0.744698	-0.140371
52865		9.326033	1.062219	-1.333773	-0.140206	0.071064	-0.749492	-0.830078	0.003418	-0.324463	0.648929	-0.054180	-0.744392	-0.147769
52866		9.100623	1.606102	-0.696877	-0.074820	0.127542	-0.952857	-0.827393	-0.025879	-0.321533	0.648274	-0.045779	-0.743800	-0.156228
52867		8.668652	1.795071	-0.446628	-0.170459	0.105901	-1.214774	-0.829102	-0.036865	-0.330078	0.646729	-0.035751	-0.743206	-0.167657
52868		8.652238	2.653378	-0.510817	-0.075153	0.064987	-1.428344	-0.828369	-0.074463	-0.327393	0.644222	-0.023047	-0.743032	-0.179865
52869		8.566990	3.137583	-0.317681	-0.055076	0.074576	-1.540250	-0.819092	-0.108398	-0.337402	0.641337	-0.009112	-0.742603	-0.192731
52870		8.303848	4.008255	0.149588	-0.419035	0.173184	-1.713485	-0.817383	-0.138184	-0.339844	0.638635	0.003753	-0.740207	-0.210297
52871		8.506771	3.588051	-0.659303	-0.391714	0.282617	-1.923793	-0.808105	-0.182129	-0.349365	0.636041	0.019065	-0.736592	-0.229173
52872		8.297727	2.961336	-0.315277	0.109340	0.316168	-1.912005	-0.797607	-0.217041	-0.350586	0.633289	0.038338	-0.733709	-0.243200
52873		8.225774	3.609905	-1.134819	0.624949	0.488965	-1.941747	-0.783691	-0.270996	-0.363525	0.631383	0.062464	-0.730548	-0.252495
52874		7.913177	3.906977	-0.727443	0.832277	0.368025	-1.866189	-0.766357	-0.309570	-0.362061	0.628024	0.087117	-0.728559	-0.259225
52875		7.845400	4.958430	-0.676154	0.521030	0.173634	-1.714171	-0.750977	-0.357178	-0.365723	0.623359	0.107260	-0.726828	-0.267655
52876		7.434500	6.552640	-0.794379	0.470644	0.142517	-1.624862	-0.732422	-0.394287	-0.361328	0.618482	0.126051	-0.724944	-0.275766
52877		6.717959	7.363487	-0.485655	0.416870	0.158450	-1.655969	-0.721680	-0.429443	-0.366211	0.613445	0.144709	-0.722377	-0.284457
52878		6.332514	6.772156	-0.350117	-0.444629	0.101853	-1.672503	-0.706055	-0.454102	-0.375244	0.609113	0.156633	-0.716816	-0.301036
52879		5.905684	6.065950	-1.096585	-0.595550	0.094526	-1.567676	-0.678955	-0.467529	-0.373291	0.605127	0.166364	-0.710624	-0.318053
52880		6.025300	5.459051	-1.081347	-0.255686	0.133915	-1.544787	-0.670410	-0.496338	-0.381836	0.600625	0.178550	-0.705245	-0.331660
