// Start Time: Unknown
// Update Rate: 40.0Hz
// Filter Profile: human (46.1)
// Firmware Version: 4.6.0
PacketCounter	SampleTimeFine	Acc_X	Acc_Y	Acc_Z	Gyr_X	Gyr_Y	Gyr_Z	Mag_X	Mag_Y	Mag_Z	Quat_q0	Quat_q1	Quat_q2	Quat_q3
51973		9.529644	0.222850	-2.362580	0.005306	-0.006694	-0.004223	-0.801758	-0.096436	0.739746	-0.058471	-0.785534	0.056405	-0.613463
51974		9.519948	0.248871	-2.359108	0.012490	-0.009029	-0.004752	-0.804443	-0.096924	0.738281	-0.058378	-0.785615	0.056269	-0.613379
51975		9.530778	0.263272	-2.408799	0.014059	-0.009709	-0.004003	-0.798828	-0.091064	0.740479	-0.058265	-0.785700	0.056129	-0.613294
51976		9.526491	0.264633	-2.387423	0.003298	-0.008497	-0.002116	-0.799561	-0.093262	0.750000	-0.058244	-0.785771	0.056088	-0.613210
51977		9.526851	0.241274	-2.383585	-0.001534	-0.003698	0.002031	-0.801025	-0.089111	0.748779	-0.058245	-0.785799	0.056119	-0.613171
51978		9.535309	0.250762	-2.379430	-0.003890	-0.002977	0.000011	-0.810059	-0.093262	0.749512	-0.058286	-0.785822	0.056147	-0.613135
51979		9.513087	0.227581	-2.410208	-0.009233	0.001126	-0.003531	-0.799805	-0.086914	0.741943	-0.058413	-0.785813	0.056176	-0.613131
51980		9.517816	0.221940	-2.404821	-0.001277	0.000941	-0.004182	-0.808105	-0.103027	0.747803	-0.058465	-0.785816	0.056138	-0.613126
51981		9.526640	0.238617	-2.391584	-0.010331	0.002896	-0.003358	-0.806152	-0.094971	0.740967	-0.058601	-0.785801	0.056177	-0.613129
51982		9.515001	0.202287	-2.375035	0.004021	0.000420	-0.005810	-0.802734	-0.097656	0.739258	-0.058613	-0.785818	0.056083	-0.613114
51983		9.526860	0.247091	-2.382956	0.008363	0.003292	-0.008481	-0.803223	-0.103516	0.740479	-0.058601	-0.785819	0.055931	-0.613128
51984		9.532332	0.212953	-2.379695	0.003049	0.002617	-0.010438	-0.807129	-0.100342	0.739746	-0.058661	-0.785825	0.055797	-0.613127
51985		9.514404	0.213926	-2.401737	0.005981	0.005404	-0.014283	-0.801514	-0.105713	0.745605	-0.058718	-0.785812	0.055605	-0.613155
51986		9.520266	0.204818	-2.366817	0.009240	0.004074	-0.018780	-0.797607	-0.096924	0.747070	-0.058776	-0.785826	0.055347	-0.613155
51987		9.520304	0.191802	-2.388866	0.015584	0.007952	-0.025952	-0.800537	-0.100098	0.740479	-0.058810	-0.785821	0.054979	-0.613192
51988		9.497503	0.266472	-2.365902	0.019647	0.007580	-0.026192	-0.809082	-0.100342	0.735840	-0.058802	-0.785814	0.054582	-0.613238
51989		9.523555	0.294149	-2.357308	0.005171	0.006627	-0.019941	-0.812744	-0.095215	0.738770	-0.058893	-0.785786	0.054355	-0.613284
51990		9.520726	0.270401	-2.335002	0.013147	0.003866	-0.020394	-0.802490	-0.097168	0.743896	-0.058898	-0.785786	0.054064	-0.613310
51991		9.512129	0.264913	-2.339417	0.018308	0.001329	-0.021999	-0.802490	-0.099854	0.738281	-0.058874	-0.785823	0.053709	-0.613296
51992		9.536863	0.286179	-2.376077	0.005492	0.005090	-0.020794	-0.802246	-0.093750	0.743408	-0.058984	-0.785803	0.053459	-0.613332
51993		9.529174	0.251928	-2.382479	0.001454	0.003269	-0.019165	-0.798584	-0.098389	0.736328	-0.059089	-0.785809	0.053259	-0.613332
51994		9.521541	0.241176	-2.358246	0.009892	0.000608	-0.021680	-0.805664	-0.099365	0.739014	-0.059155	-0.785831	0.052971	-0.613323
51995		9.511009	0.271032	-2.389573	0.018635	-0.000795	-0.024644	-0.800049	-0.100342	0.736084	-0.059146	-0.785865	0.052593	-0.613312
51996		9.515568	0.286607	-2.361580	0.015844	-0.002564	-0.023808	-0.799805	-0.099121	0.745850	-0.059169	-0.785916	0.052245	-0.613275
51997		9.532456	0.298951	-2.367530	0.006922	0.001584	-0.022418	-0.797363	-0.100830	0.747314	-0.059248	-0.785964	0.051969	-0.613229
51998		9.514404	0.307864	-2.382162	0.002542	0.003475	-0.021338	-0.801758	-0.097168	0.741699	-0.059374	-0.786006	0.051728	-0.613183
51999		9.520111	0.300082	-2.347736	-0.004448	0.001045	-0.017249	-0.805664	-0.100586	0.747314	-0.059511	-0.786023	0.051598	-0.613158
52000		9.529412	0.266985	-2.368501	0.002593	-0.000294	-0.016755	-0.806152	-0.104248	0.735107	-0.059589	-0.786068	0.051409	-0.613110
52001		9.507428	0.293465	-2.337285	0.018541	-0.003587	-0.019050	-0.801514	-0.101318	0.733154	-0.059579	-0.786086	0.051090	-0.613115
52002		9.517451	0.339930	-2.383344	0.012314	-0.004070	-0.015681	-0.798584	-0.100342	0.739014	-0.059578	-0.786102	0.050857	-0.613113
52003		9.520994	0.376685	-2.361043	0.001078	-0.002192	-0.009337	-0.809326	-0.098877	0.736816	-0.059620	-0.786139	0.050758	-0.613069
52004		9.528346	0.295617	-2.348346	0.001591	-0.004865	-0.003828	-0.795410	-0.100098	0.745117	-0.059603	-0.786130	0.050719	-0.613086
52005		9.519418	0.280511	-2.362466	0.011450	-0.006811	-0.003377	-0.800293	-0.106445	0.739990	-0.059480	-0.786258	0.050584	-0.612945
52006		9.508529	0.312063	-2.387472	0.007523	-0.005438	-0.006154	-0.804688	-0.099365	0.748047	-0.059518	-0.786313	0.050464	-0.612880
52007		9.530002	0.296221	-2.412472	-0.000304	-0.003067	-0.004930	-0.796631	-0.103027	0.744141	-0.059503	-0.786373	0.050415	-0.612809
52008		9.522353	0.293888	-2.373527	0.004359	-0.000707	-0.005470	-0.799805	-0.101318	0.739746	-0.059508	-0.786439	0.050317	-0.612732
52009		9.522330	0.283016	-2.388954	0.007613	0.002161	-0.005391	-0.806396	-0.096436	0.736572	-0.059465	-0.786435	0.050207	-0.612751
52010		9.518623	0.290996	-2.357389	0.015278	0.000155	-0.007389	-0.802734	-0.097168	0.734619	-0.059287	-0.786391	0.050040	-0.612838
52011		9.520439	0.325428	-2.407010	0.005880	0.003595	-0.005722	-0.803223	-0.096680	0.744873	-0.059209	-0.786319	0.049957	-0.612945
52012		9.530172	0.318601	-2.388012	-0.000675	0.004239	-0.002699	-0.803711	-0.103516	0.739746	-0.059129	-0.786315	0.049926	-0.612960
52013		9.518089	0.298758	-2.383932	0.002929	0.003595	-0.001469	-0.801025	-0.101562	0.737549	-0.059155	-0.786274	0.049899	-0.613012
52014		9.518258	0.310566	-2.367771	0.004824	0.001797	-0.000365	-0.807373	-0.101562	0.744141	-0.059122	-0.786251	0.049869	-0.613048
52015		9.509815	0.300640	-2.372322	0.001085	0.001225	0.000823	-0.808105	-0.107666	0.740234	-0.059092	-0.786237	0.049873	-0.613068
52016		9.531739	0.301271	-2.372515	0.002007	0.002410	-0.000323	-0.803467	-0.098633	0.734619	-0.059203	-0.786175	0.049875	-0.613136
52017		9.510103	0.306022	-2.363490	0.004663	0.003167	0.001850	-0.810547	-0.097900	0.735840	-0.059098	-0.786099	0.049869	-0.613244
52018		9.518889	0.291549	-2.388647	-0.000050	0.005778	0.001385	-0.803955	-0.103027	0.740479	-0.059027	-0.785958	0.049899	-0.613429
52019		9.515543	0.280520	-2.378965	-0.001159	0.007946	0.002748	-0.807129	-0.092041	0.738770	-0.059060	-0.785894	0.049942	-0.613505
52020		9.530253	0.265580	-2.354015	0.006970	0.006430	-0.000118	-0.817383	-0.099365	0.746094	-0.058781	-0.785817	0.049870	-0.613637
52021		9.520128	0.296094	-2.376111	0.008379	0.006124	-0.000139	-0.807617	-0.103760	0.738281	-0.058637	-0.785725	0.049810	-0.613773
52022		9.529048	0.299533	-2.377471	-0.000373	0.006906	0.001031	-0.796143	-0.090332	0.744141	-0.058713	-0.785630	0.049850	-0.613884
52023		9.512434	0.274176	-2.393238	-0.011781	0.007737	0.002416	-0.806885	-0.103516	0.746094	-0.058539	-0.785678	0.049898	-0.613835
52024		9.527038	0.265495	-2.360829	0.005748	0.003586	0.000284	-0.805176	-0.098145	0.738037	-0.058509	-0.785696	0.049844	-0.613819
52025		9.513062	0.291742	-2.367424	0.004154	0.006236	-0.002467	-0.797607	-0.104736	0.736328	-0.058439	-0.785635	0.049799	-0.613907
52026		9.536098	0.275361	-2.353772	0.008405	0.002731	-0.002322	-0.803711	-0.102295	0.736816	-0.058492	-0.785652	0.049730	-0.613887
52027		9.509709	0.287270	-2.349855	0.015264	0.004149	-0.003401	-0.802490	-0.101074	0.737061	-0.058423	-0.785616	0.049601	-0.613949
52028		9.522301	0.307718	-2.351834	0.001498	0.006284	-0.002253	-0.800049	-0.097656	0.742920	-0.058455	-0.785568	0.049582	-0.614009
52029		9.528362	0.272248	-2.347591	-0.008017	0.005116	-0.000362	-0.803711	-0.096191	0.737305	-0.058451	-0.785603	0.049620	-0.613963
52030		9.524879	0.244528	-2.361667	-0.003327	0.004487	-0.001890	-0.814209	-0.100586	0.744141	-0.058401	-0.785559	0.049630	-0.614022
52031		9.529873	0.244478	-2.347622	0.009469	0.004930	-0.006483	-0.808594	-0.101807	0.739258	-0.058332	-0.785502	0.049499	-0.614112
52032		9.532954	0.291090	-2.344256	0.012263	0.006904	-0.006729	-0.815918	-0.103760	0.740479	-0.058295	-0.785434	0.049355	-0.614215
52033		9.506654	0.309759	-2.332040	0.005728	0.004559	-0.004702	-0.808105	-0.103516	0.733154	-0.058342	-0.785330	0.049290	-0.614349
52034		9.524910	0.282769	-2.347052	0.005128	0.002449	-0.002606	-0.800537	-0.101074	0.734131	-0.058409	-0.785239	0.049264	-0.614460
52035		9.515440	0.313947	-2.333821	0.000160	0.000244	0.002566	-0.800293	-0.096680	0.733643	-0.058421	-0.785237	0.049311	-0.614458
52036		9.529733	0.286751	-2.326064	-0.001389	-0.000463	0.005603	-0.809082	-0.095947	0.736084	-0.058314	-0.785237	0.049383	-0.614462
52037		9.525945	0.257052	-2.341658	0.008938	-0.002316	0.003999	-0.810059	-0.096924	0.736084	-0.058087	-0.785208	0.049360	-0.614523
52038		9.529620	0.260061	-2.358143	0.011756	-0.002726	0.004558	-0.809814	-0.101562	0.738281	-0.057863	-0.785175	0.049329	-0.614588
52039		9.521054	0.237444	-2.378944	0.004065	-0.000152	0.000363	-0.810547	-0.095703	0.736328	-0.057871	-0.785142	0.049328	-0.614629
52040		9.518268	0.197737	-2.373131	0.011391	0.000745	-0.004574	-0.798096	-0.104248	0.733887	-0.057698	-0.785091	0.049203	-0.614721
52041		9.534408	0.241337	-2.368439	0.015574	0.003382	-0.009827	-0.803955	-0.100342	0.743652	-0.057782	-0.785106	0.049040	-0.614706
52042		9.521234	0.257952	-2.354492	0.015254	0.003700	-0.012572	-0.805664	-0.098145	0.739746	-0.057732	-0.785168	0.048804	-0.614652
52043		9.526114	0.259541	-2.340698	0.016182	0.004275	-0.015513	-0.806396	-0.099365	0.735352	-0.057652	-0.785174	0.048533	-0.614673
52044		9.516717	0.275821	-2.350313	0.013227	0.003066	-0.014846	-0.809326	-0.095947	0.734131	-0.057645	-0.785138	0.048309	-0.614737
52045		9.525287	0.294059	-2.337024	0.011354	0.003286	-0.012761	-0.797363	-0.102539	0.734863	-0.057551	-0.785065	0.048107	-0.614855
52046		9.516807	0.298189	-2.325847	0.008719	0.001963	-0.008753	-0.814453	-0.107666	0.746338	-0.057640	-0.785105	0.047997	-0.614804
52047		9.533798	0.318568	-2.316029	0.004695	-0.000830	-0.002124	-0.807617	-0.099365	0.737549	-0.057770	-0.785122	0.047970	-0.614773
52048		9.537662	0.304957	-2.355191	0.000943	0.000219	0.003840	-0.807617	-0.101074	0.736572	-0.057718	-0.785101	0.048014	-0.614800
52049		9.526465	0.260159	-2.346385	-0.000146	0.000209	0.006603	-0.808350	-0.091553	0.736816	-0.057705	-0.785069	0.048101	-0.614835
52050		9.522753	0.230350	-2.361774	0.004250	-0.002081	0.004334	-0.805176	-0.096680	0.740967	-0.057426	-0.785063	0.048095	-0.614870
52051		9.518925	0.231209	-2.338280	-0.000486	0.001488	-0.001130	-0.810303	-0.100586	0.739746	-0.057367	-0.785090	0.048087	-0.614842
52052		9.519099	0.214198	-2.361044	0.002777	0.002533	-0.006432	-0.803955	-0.100098	0.740479	-0.057409	-0.785059	0.048015	-0.614882
52053		9.527658	0.231475	-2.347936	0.015124	0.002081	-0.011350	-0.809082	-0.092041	0.745117	-0.057359	-0.785103	0.047802	-0.614848
52054		9.513338	0.271457	-2.339929	0.011844	0.001997	-0.011038	-0.801270	-0.100098	0.745850	-0.057129	-0.785148	0.047586	-0.614828
52055		9.542803	0.288971	-2.363841	0.009804	0.003391	-0.007338	-0.804199	-0.104004	0.740479	-0.057082	-0.785242	0.047430	-0.614725
52056		9.524814	0.317182	-2.347432	-0.000814	0.003020	-0.000292	-0.798096	-0.095703	0.742920	-0.057187	-0.785253	0.047442	-0.614701
52057		9.523412	0.248214	-2.342773	-0.010829	0.004348	0.003457	-0.809082	-0.094482	0.745117	-0.057187	-0.785314	0.047565	-0.614614
52058		9.528232	0.258798	-2.313748	0.002815	0.000406	0.002949	-0.802246	-0.101074	0.744141	-0.057005	-0.785348	0.047572	-0.614586
52059		9.526380	0.280378	-2.355658	-0.005003	0.000996	0.006758	-0.809082	-0.104248	0.737793	-0.057016	-0.785411	0.047667	-0.614497
52060		9.538941	0.196264	-2.328813	-0.003558	-0.003316	0.002770	-0.802490	-0.100586	0.738037	-0.057115	-0.785402	0.047723	-0.614496
52061		9.545193	0.263695	-2.320190	0.018308	-0.001377	-0.000456	-0.811768	-0.093994	0.741455	-0.056965	-0.785446	0.047594	-0.614463
52062		9.512933	0.275052	-2.366781	0.001407	0.000305	0.001773	-0.806641	-0.098145	0.736084	-0.056820	-0.785424	0.047615	-0.614503
52063		9.527369	0.254343	-2.350561	-0.004263	0.004516	0.002830	-0.798828	-0.099609	0.738281	-0.056836	-0.785357	0.047694	-0.614581
52064		9.537116	0.246698	-2.331347	-0.001137	0.004147	-0.000648	-0.810303	-0.097168	0.735596	-0.056879	-0.785375	0.047714	-0.614552
52065		9.514630	0.251275	-2.358559	-0.003013	0.004368	0.001438	-0.807373	-0.099854	0.732666	-0.056867	-0.785284	0.047768	-0.614666
52066		9.532987	0.241309	-2.349769	-0.003339	0.005901	0.002277	-0.806641	-0.097900	0.735840	-0.056919	-0.785179	0.047839	-0.614789
52067		9.517306	0.210199	-2.337023	0.002442	0.006095	0.000377	-0.811523	-0.085449	0.733643	-0.056880	-0.785114	0.047840	-0.614875
52068		9.525044	0.242970	-2.336681	0.007163	0.002880	-0.000936	-0.818359	-0.085205	0.732910	-0.056565	-0.785031	0.047800	-0.615014
52069		9.515727	0.256158	-2.346357	0.002467	0.003712	0.001186	-0.804199	-0.098877	0.730713	-0.056283	-0.784885	0.047818	-0.615224
52070		9.525535	0.236205	-2.342649	0.004800	0.004995	0.001213	-0.811523	-0.098389	0.740723	-0.056290	-0.784814	0.047844	-0.615312
52071		9.521149	0.242313	-2.346442	0.004935	0.007221	0.001775	-0.813721	-0.101562	0.738037	-0.056212	-0.784760	0.047816	-0.615391
52072		9.547990	0.247579	-2.324921	-0.000820	0.004239	0.003289	-0.801514	-0.095215	0.742676	-0.056250	-0.784688	0.047861	-0.615475
52073		9.536998	0.203480	-2.315063	-0.004263	0.004517	0.002826	-0.802490	-0.092529	0.734619	-0.056200	-0.784737	0.047913	-0.615414
52074		9.527807	0.222484	-2.316370	-0.001630	0.007056	0.002399	-0.804688	-0.092773	0.742188	-0.056121	-0.784696	0.047973	-0.615468
52075		9.523454	0.216881	-2.335810	0.005752	0.003590	0.000278	-0.811768	-0.096924	0.741211	-0.055945	-0.784735	0.047919	-0.615438
52076		9.536915	0.219401	-2.324868	0.010283	0.003931	-0.000229	-0.810303	-0.090088	0.735352	-0.055801	-0.784718	0.047825	-0.615481
52077		9.527638	0.232649	-2.334439	0.011376	0.003939	-0.002991	-0.814453	-0.092285	0.745117	-0.055592	-0.784669	0.047734	-0.615570
52078		9.519376	0.229252	-2.330422	0.006662	0.006137	-0.004668	-0.809326	-0.094971	0.743164	-0.055420	-0.784650	0.047598	-0.615619
52079		9.518605	0.265087	-2.319144	0.000255	0.005816	-0.002674	-0.811279	-0.098389	0.735107	-0.055360	-0.784648	0.047538	-0.615632
52080		9.527409	0.281166	-2.305011	-0.009605	0.006790	0.001840	-0.812988	-0.091553	0.739502	-0.055471	-0.784554	0.047646	-0.615734
52081		9.538285	0.238111	-2.295373	-0.007228	0.003919	0.005280	-0.805908	-0.098389	0.745361	-0.055388	-0.784508	0.047754	-0.615792
52082		9.538522	0.230648	-2.302473	-0.003446	0.001148	0.009898	-0.803955	-0.102051	0.731445	-0.055300	-0.784573	0.047818	-0.615711
52083		9.547285	0.220550	-2.320442	-0.004390	0.001739	0.008444	-0.812500	-0.103027	0.741699	-0.055396	-0.784540	0.047969	-0.615733
52084		9.527590	0.165580	-2.316285	-0.001404	0.000159	0.007394	-0.810059	-0.096191	0.738037	-0.055393	-0.784546	0.048004	-0.615723
52085		9.531553	0.157199	-2.347518	0.007189	0.000494	-0.000120	-0.810303	-0.090576	0.736084	-0.055295	-0.784547	0.047951	-0.615735
52086		9.526713	0.188154	-2.321455	0.000912	0.002547	-0.004944	-0.803223	-0.097900	0.736572	-0.055234	-0.784515	0.047930	-0.615783
52087		9.543959	0.197429	-2.326335	-0.005206	0.004442	-0.008397	-0.811768	-0.092529	0.736328	-0.055372	-0.784514	0.047900	-0.615774
52088		9.531835	0.185439	-2.314338	-0.002546	0.004192	-0.009206	-0.803955	-0.093994	0.736816	-0.055397	-0.784464	0.047853	-0.615839
52089		9.536795	0.169568	-2.323886	0.001700	0.001650	-0.014033	-0.807861	-0.094971	0.734863	-0.055446	-0.784492	0.047728	-0.615809
52090		9.544045	0.229730	-2.293431	0.011095	0.000392	-0.017074	-0.809814	-0.098145	0.730225	-0.055441	-0.784499	0.047509	-0.615817
52091		9.533511	0.257499	-2.325179	0.005490	-0.001934	-0.011804	-0.809570	-0.098877	0.739502	-0.055519	-0.784473	0.047403	-0.615852
52092		9.516123	0.263924	-2.304621	-0.001064	-0.003263	-0.006791	-0.812012	-0.097412	0.738281	-0.055569	-0.784517	0.047338	-0.615796
52093		9.543344	0.253800	-2.271816	-0.000128	-0.002836	-0.002352	-0.812012	-0.095459	0.739014	-0.055555	-0.784532	0.047316	-0.615780
52094		9.543392	0.230355	-2.303446	0.004564	-0.002853	-0.002082	-0.813721	-0.091309	0.735352	-0.055463	-0.784554	0.047262	-0.615763
52095		9.526319	0.199149	-2.329600	0.004428	-0.004875	-0.002046	-0.811035	-0.099854	0.736084	-0.055338	-0.784556	0.047245	-0.615773
52096		9.521291	0.206588	-2.335887	0.007074	-0.003759	-0.006653	-0.807861	-0.094238	0.729736	-0.055339	-0.784575	0.047134	-0.615758
52097		9.530585	0.200472	-2.318230	0.006727	-0.000455	-0.008419	-0.806885	-0.095215	0.734375	-0.055333	-0.784543	0.047070	-0.615804
52098		9.529767	0.201441	-2.354629	0.008112	0.001827	-0.008652	-0.804932	-0.101318	0.731201	-0.055301	-0.784533	0.046960	-0.615829
52099		9.525731	0.222297	-2.307639	0.016258	0.000722	-0.010307	-0.810059	-0.087891	0.745605	-0.055312	-0.784527	0.046787	-0.615848
52100		9.541946	0.242647	-2.333913	0.001050	0.004159	-0.006179	-0.813965	-0.092041	0.731445	-0.055159	-0.784550	0.046697	-0.615839
52101		9.535508	0.211917	-2.295810	0.004505	0.002866	-0.008700	-0.810791	-0.099121	0.729004	-0.055124	-0.784472	0.046625	-0.615948
52102		9.530869	0.220395	-2.300374	0.008414	0.003082	-0.009109	-0.810303	-0.103516	0.731934	-0.055174	-0.784398	0.046528	-0.616045
52103		9.530131	0.227095	-2.328502	0.002160	0.002803	-0.005145	-0.809326	-0.097656	0.736084	-0.055297	-0.784343	0.046496	-0.616106
52104		9.530229	0.234221	-2.319986	0.001835	0.003929	-0.005503	-0.810791	-0.104248	0.726807	-0.055318	-0.784313	0.046445	-0.616146
52105		9.535156	0.228482	-2.313973	0.002318	0.002648	-0.003772	-0.809082	-0.099365	0.737305	-0.055459	-0.784226	0.046450	-0.616244
52106		9.553369	0.213711	-2.313622	-0.000639	0.001232	-0.003701	-0.798828	-0.097168	0.735352	-0.055506	-0.784226	0.046437	-0.616240
52107		9.526733	0.232463	-2.302492	-0.000964	0.002357	-0.004059	-0.803223	-0.099365	0.741943	-0.055573	-0.784259	0.046467	-0.616190
52108		9.531618	0.220685	-2.304682	-0.004849	-0.000037	-0.002240	-0.807129	-0.101807	0.742676	-0.055650	-0.784324	0.046509	-0.616098
52109		9.536535	0.202902	-2.314776	-0.002511	0.000842	-0.003408	-0.807373	-0.091309	0.735107	-0.055727	-0.784366	0.046502	-0.616038
52110		9.531847	0.204771	-2.327620	-0.004379	0.000044	-0.004309	-0.810303	-0.095215	0.737305	-0.055711	-0.784366	0.046532	-0.616036
52111		9.541260	0.198806	-2.309475	-0.001085	-0.000684	-0.007007	-0.804199	-0.094971	0.728760	-0.055717	-0.784374	0.046488	-0.616029
52112		9.528862	0.192458	-2.290801	0.002970	0.000537	-0.010438	-0.807861	-0.098145	0.734863	-0.055763	-0.784356	0.046433	-0.616052
52113		9.535263	0.233159	-2.320497	0.003464	-0.001559	-0.011096	-0.807129	-0.102539	0.735840	-0.055810	-0.784374	0.046332	-0.616033
52114		9.536111	0.224325	-2.299579	-0.000938	0.000318	-0.010031	-0.816406	-0.098389	0.733643	-0.055950	-0.784381	0.046273	-0.616015
52115		9.537127	0.197504	-2.302159	0.014603	-0.004024	-0.013201	-0.816895	-0.097168	0.736084	-0.055869	-0.784378	0.046032	-0.616045
52116		9.526099	0.242561	-2.311493	0.013657	-0.003234	-0.014060	-0.810791	-0.100098	0.731201	-0.055777	-0.784380	0.045781	-0.616069
52117		9.525894	0.239051	-2.320132	0.004122	-0.004017	-0.010979	-0.815674	-0.093018	0.732422	-0.055840	-0.784380	0.045680	-0.616071
52118		9.536127	0.216751	-2.289541	0.004123	-0.004017	-0.010979	-0.806152	-0.097900	0.726807	-0.055778	-0.784366	0.045548	-0.616105
52119		9.544425	0.211123	-2.309199	0.008073	-0.006993	-0.012963	-0.807373	-0.101562	0.729736	-0.055823	-0.784390	0.045439	-0.616078
52120		9.534517	0.221238	-2.328886	0.013369	-0.004896	-0.014804	-0.817139	-0.091064	0.739502	-0.055865	-0.784412	0.045258	-0.616059
52121		9.541390	0.263392	-2.322939	0.010525	-0.002528	-0.017377	-0.809082	-0.096436	0.736084	-0.055721	-0.784428	0.044972	-0.616072
52122		9.518191	0.288750	-2.328649	0.004723	-0.001713	-0.012492	-0.811523	-0.098877	0.732422	-0.055722	-0.784448	0.044837	-0.616057
52123		9.537171	0.270121	-2.300133	-0.005162	0.000054	-0.005583	-0.806885	-0.104980	0.737305	-0.055809	-0.784410	0.044855	-0.616096
52124		9.537831	0.180347	-2.254403	-0.006669	-0.004254	-0.005309	-0.811523	-0.101318	0.739014	-0.055988	-0.784452	0.044902	-0.616023
52125		9.550361	0.240423	-2.338291	0.026399	-0.007695	-0.011621	-0.811523	-0.103027	0.738281	-0.055805	-0.784535	0.044599	-0.615956
52126		9.545032	0.254790	-2.337444	0.003830	-0.005072	-0.009928	-0.803467	-0.093018	0.746826	-0.055860	-0.784575	0.044490	-0.615908
52127		9.529173	0.220311	-2.334030	-0.006132	0.002400	-0.009645	-0.807861	-0.106934	0.733398	-0.055881	-0.784635	0.044451	-0.615833
52128		9.548420	0.190590	-2.320729	0.011151	-0.002190	-0.016885	-0.809082	-0.098389	0.735352	-0.055999	-0.784649	0.044251	-0.615818
52129		9.536080	0.259897	-2.335415	0.007706	-0.001928	-0.017350	-0.811768	-0.101074	0.736084	-0.056027	-0.784665	0.044053	-0.615809
52130		9.518800	0.255880	-2.330392	0.007580	-0.003951	-0.017311	-0.813721	-0.099365	0.737305	-0.056071	-0.784689	0.043844	-0.615790
52131		9.528158	0.240042	-2.328724	0.005407	-0.005193	-0.015364	-0.803955	-0.094238	0.739258	-0.056083	-0.784717	0.043655	-0.615767
52132		9.523757	0.251017	-2.298835	0.011370	-0.005951	-0.018284	-0.807373	-0.107910	0.736572	-0.056029	-0.784810	0.043431	-0.615669
52133		9.534657	0.268057	-2.347723	0.006655	-0.004725	-0.014966	-0.810059	-0.101318	0.724365	-0.056162	-0.784854	0.043278	-0.615611
52134		9.543634	0.275976	-2.315203	-0.001333	-0.004419	-0.013722	-0.806885	-0.099121	0.733398	-0.056312	-0.784815	0.043222	-0.615651
52135		9.538892	0.261627	-2.352282	0.002729	-0.003930	-0.011567	-0.811523	-0.103027	0.735596	-0.056354	-0.784836	0.043138	-0.615626
52136		9.520121	0.217933	-2.305063	0.003082	-0.006285	-0.014793	-0.803711	-0.098389	0.744385	-0.056434	-0.784867	0.042995	-0.615589
52137		9.530705	0.246773	-2.338872	0.015151	-0.007123	-0.016874	-0.807617	-0.099121	0.737305	-0.056356	-0.784993	0.042747	-0.615453
52138		9.528670	0.279191	-2.339092	0.024445	-0.010361	-0.019895	-0.809326	-0.093506	0.733398	-0.056223	-0.785096	0.042402	-0.615357
52139		9.531124	0.322817	-2.311020	0.014691	-0.007409	-0.015404	-0.802002	-0.098145	0.741699	-0.056089	-0.785140	0.042169	-0.615330
52140		9.522585	0.291579	-2.348703	-0.000303	-0.009770	-0.010628	-0.802979	-0.098877	0.745117	-0.056127	-0.785259	0.042114	-0.615179
52141		9.538908	0.233946	-2.316591	0.005247	-0.013800	-0.013054	-0.808838	-0.099121	0.748047	-0.056116	-0.785424	0.041977	-0.614978
52142		9.542090	0.223280	-2.358823	0.008373	-0.013343	-0.014151	-0.813232	-0.100098	0.740967	-0.056045	-0.785575	0.041762	-0.614806
52143		9.531327	0.245940	-2.365124	0.020935	-0.015122	-0.021305	-0.815186	-0.098877	0.737549	-0.055926	-0.785696	0.041393	-0.614688
52144		9.512091	0.266067	-2.368288	0.003026	-0.011617	-0.024316	-0.805176	-0.103027	0.734375	-0.056003	-0.785751	0.041139	-0.614627
52145		9.533869	0.174773	-2.369513	0.021693	-0.013054	-0.029448	-0.800781	-0.096680	0.741943	-0.056040	-0.785856	0.040760	-0.614515
52146		9.519796	0.270871	-2.356468	0.040351	-0.013552	-0.039592	-0.806641	-0.094482	0.741211	-0.055878	-0.786036	0.040115	-0.614342
52147		9.526066	0.293263	-2.383677	0.028874	-0.010643	-0.039616	-0.797852	-0.095459	0.734619	-0.055785	-0.786155	0.039532	-0.614236
52148		9.528906	0.311778	-2.393758	0.016997	-0.003618	-0.039027	-0.802979	-0.095947	0.746338	-0.055891	-0.786212	0.039122	-0.614180
52149		9.516067	0.323855	-2.360329	0.010545	-0.001816	-0.038431	-0.802979	-0.096191	0.739258	-0.055972	-0.786285	0.038668	-0.614107
52150		9.520845	0.313256	-2.370850	0.014610	-0.001098	-0.035692	-0.805420	-0.109619	0.751953	-0.056030	-0.786319	0.038256	-0.614085
52151		9.523829	0.337444	-2.372018	0.023585	-0.002774	-0.037900	-0.798828	-0.100098	0.745850	-0.056069	-0.786422	0.037657	-0.613987
52152		9.511276	0.336332	-2.353965	0.011988	-0.002632	-0.032263	-0.797852	-0.111572	0.736572	-0.056140	-0.786508	0.037275	-0.613893
52153		9.506248	0.337437	-2.375216	0.023724	-0.001468	-0.032351	-0.798096	-0.105225	0.744141	-0.056271	-0.786549	0.036866	-0.613852
52154		9.512462	0.382639	-2.369195	0.027005	-0.000731	-0.030889	-0.798828	-0.101074	0.741455	-0.056247	-0.786622	0.036401	-0.613790
52155		9.519297	0.402581	-2.393759	0.008044	-0.001328	-0.019662	-0.801758	-0.099609	0.749512	-0.056294	-0.786663	0.036209	-0.613743
52156		9.519018	0.343567	-2.381385	0.006083	0.002096	-0.016002	-0.803223	-0.105713	0.744385	-0.056263	-0.786702	0.036004	-0.613709
52157		9.525732	0.379747	-2.381882	0.016218	0.004539	-0.015055	-0.806152	-0.101318	0.740723	-0.056202	-0.786697	0.035746	-0.613735
52158		9.520708	0.401007	-2.370490	0.000306	0.007702	-0.010770	-0.806152	-0.099121	0.745605	-0.056235	-0.786628	0.035669	-0.613826
52159		9.528085	0.361459	-2.372295	-0.009663	0.011383	-0.005840	-0.808594	-0.098145	0.738037	-0.056282	-0.786545	0.035684	-0.613926
52160		9.507081	0.355454	-2.376663	-0.004474	0.010575	-0.002652	-0.793945	-0.111816	0.739746	-0.056279	-0.786429	0.035738	-0.614073
52161		9.522175	0.348398	-2.342904	0.001004	0.010815	-0.000526	-0.804932	-0.101562	0.744141	-0.056375	-0.786377	0.035797	-0.614127
52162		9.521641	0.353188	-2.369463	0.008263	0.008815	-0.000448	-0.805420	-0.100098	0.735596	-0.056235	-0.786327	0.035740	-0.614207
52163		9.513530	0.354573	-2.357006	0.005627	0.007287	0.002994	-0.809082	-0.096924	0.750000	-0.056132	-0.786246	0.035798	-0.614317
52164		9.509107	0.360090	-2.360401	-0.003976	0.008807	0.005293	-0.802490	-0.104492	0.737061	-0.055980	-0.786199	0.035836	-0.614388
52165		9.549753	0.351065	-2.351215	-0.005073	0.008599	0.007470	-0.801514	-0.105225	0.730225	-0.055995	-0.786118	0.036016	-0.614480
52166		9.526398	0.320437	-2.327068	0.004233	0.006238	0.006833	-0.801758	-0.105469	0.741455	-0.055976	-0.786036	0.036176	-0.614577
52167		9.512341	0.326292	-2.356989	0.008342	0.005101	0.004200	-0.806885	-0.101807	0.735840	-0.055870	-0.786018	0.036193	-0.614609
52168		9.526193	0.322466	-2.352791	0.007276	0.010836	0.002278	-0.801270	-0.106445	0.739746	-0.055771	-0.785913	0.036215	-0.614751
52169		9.525099	0.356540	-2.340066	-0.000875	0.017302	0.006064	-0.802246	-0.103516	0.737061	-0.055772	-0.785791	0.036328	-0.614901
52170		9.514495	0.328383	-2.340439	0.001389	0.014214	0.006954	-0.804199	-0.101562	0.739746	-0.055727	-0.785680	0.036450	-0.615039
52171		9.511696	0.321852	-2.321165	0.008122	0.014515	0.008287	-0.800293	-0.103516	0.737793	-0.055568	-0.785578	0.036507	-0.615180
52172		9.515847	0.335939	-2.318777	0.007100	0.011100	0.008901	-0.806152	-0.099121	0.738525	-0.055461	-0.785509	0.036611	-0.615272
52173		9.545247	0.361332	-2.325554	-0.005616	0.010824	0.016105	-0.805176	-0.104004	0.734375	-0.055357	-0.785414	0.036852	-0.615388
52174		9.557770	0.308971	-2.321687	-0.006564	0.010681	0.020254	-0.813721	-0.104004	0.745117	-0.055301	-0.785304	0.037170	-0.615514
52175		9.528658	0.286774	-2.331056	0.006309	0.010098	0.020039	-0.806885	-0.106934	0.733887	-0.055030	-0.785227	0.037281	-0.615631
52176		9.516168	0.278630	-2.338928	0.000552	0.008401	0.017770	-0.795898	-0.098389	0.730957	-0.054949	-0.785136	0.037515	-0.615740
52177		9.537423	0.293220	-2.350194	-0.010710	0.014913	0.016432	-0.805420	-0.104248	0.735107	-0.054988	-0.785014	0.037896	-0.615867
52178		9.517238	0.221849	-2.304617	-0.012438	0.016411	0.008682	-0.803467	-0.104736	0.736084	-0.055092	-0.784871	0.038139	-0.616025
52179		9.550527	0.259397	-2.318250	0.001379	0.016168	0.004926	-0.810791	-0.100830	0.736328	-0.055100	-0.784754	0.038249	-0.616167
52180		9.527659	0.298372	-2.296775	-0.003489	0.016697	0.004478	-0.803711	-0.100830	0.732178	-0.055084	-0.784610	0.038345	-0.616346
52181		9.532388	0.301772	-2.308793	-0.005665	0.015453	0.006435	-0.816162	-0.102051	0.734863	-0.055129	-0.784481	0.038540	-0.616494
52182		9.547877	0.280938	-2.289408	-0.008273	0.012684	0.006284	-0.809570	-0.096924	0.733398	-0.055132	-0.784344	0.038668	-0.616660
52183		9.531555	0.277805	-2.272827	-0.002959	0.013263	0.007646	-0.804199	-0.096191	0.729736	-0.055069	-0.784225	0.038813	-0.616808
52184		9.544024	0.296184	-2.273990	0.005171	0.006071	0.009492	-0.808838	-0.095215	0.730957	-0.054947	-0.784170	0.038967	-0.616879
52185		9.547858	0.309871	-2.273119	0.000765	0.006168	0.013172	-0.807861	-0.100586	0.733887	-0.054802	-0.784101	0.039154	-0.616968
52186		9.532777	0.275700	-2.260224	-0.008448	0.003800	0.015437	-0.807861	-0.098389	0.736084	-0.054781	-0.784057	0.039441	-0.617007
52187		9.528598	0.266828	-2.279984	-0.006870	0.003155	0.016201	-0.805664	-0.095703	0.731689	-0.054712	-0.784030	0.039713	-0.617031
52188		9.545833	0.271275	-2.284911	-0.010951	0.003471	0.016428	-0.803955	-0.099365	0.740479	-0.054685	-0.783986	0.040045	-0.617067
52189		9.543091	0.239303	-2.298748	-0.009699	0.003738	0.016229	-0.805908	-0.103271	0.733398	-0.054669	-0.783983	0.040354	-0.617053
52190		9.544439	0.225205	-2.276630	-0.006548	0.003578	0.013345	-0.812988	-0.103516	0.739258	-0.054691	-0.783949	0.040627	-0.617076
52191		9.539998	0.223147	-2.288918	-0.004315	0.002028	0.011025	-0.816162	-0.102295	0.730957	-0.054657	-0.783931	0.040800	-0.617091
52192		9.529825	0.258471	-2.268070	-0.005924	0.004843	0.008834	-0.806885	-0.096924	0.740234	-0.054644	-0.783850	0.040957	-0.617184
52193		9.538611	0.260590	-2.269854	-0.007007	0.004015	0.009213	-0.810059	-0.102295	0.737793	-0.054629	-0.783840	0.041169	-0.617183
52194		9.526066	0.243107	-2.294530	-0.003058	0.002087	0.010229	-0.818848	-0.096436	0.732422	-0.054601	-0.783828	0.041349	-0.617189
52195		9.544255	0.237221	-2.278526	0.005547	0.002763	0.011285	-0.805908	-0.096924	0.730957	-0.054389	-0.783770	0.041419	-0.617277
52196		9.543117	0.257101	-2.283723	0.003023	0.003058	0.014067	-0.811768	-0.093750	0.740234	-0.054273	-0.783740	0.041634	-0.617310
52197		9.539690	0.242889	-2.275025	0.004931	0.001289	0.015195	-0.813477	-0.100586	0.738037	-0.054049	-0.783744	0.041784	-0.617316
52198		9.543676	0.243144	-2.290653	0.001949	0.000891	0.018257	-0.818359	-0.096680	0.734619	-0.053885	-0.783732	0.041981	-0.617331
52199		9.541610	0.199052	-2.284419	0.004046	-0.002268	0.017181	-0.811768	-0.094971	0.734863	-0.053657	-0.783720	0.042127	-0.617356
52200		9.542830	0.171770	-2.279401	0.000645	-0.004810	0.016346	-0.809326	-0.094238	0.728027	-0.053497	-0.783747	0.042341	-0.617322
52201		9.529794	0.152950	-2.305983	0.010074	-0.004684	0.009494	-0.806641	-0.088379	0.736328	-0.053329	-0.783763	0.042453	-0.617309
52202		9.549465	0.199025	-2.282447	0.003762	-0.001674	0.007630	-0.809082	-0.098877	0.740234	-0.053189	-0.783791	0.042588	-0.617275
52203		9.543879	0.202791	-2.324790	0.000487	-0.002399	0.006150	-0.815430	-0.087402	0.736572	-0.053154	-0.783830	0.042707	-0.617220
52204		9.549276	0.195486	-2.283543	0.006599	-0.002473	0.007002	-0.811768	-0.091553	0.732910	-0.052937	-0.783842	0.042757	-0.617221
52205		9.535649	0.202107	-2.279164	0.009761	-0.004186	0.007337	-0.813721	-0.091797	0.736816	-0.052751	-0.783865	0.042821	-0.617203
52206		9.540586	0.180896	-2.290195	0.010542	-0.004200	0.008613	-0.811279	-0.091309	0.729980	-0.052531	-0.783896	0.042867	-0.617179
52207		9.538862	0.207393	-2.289742	0.013085	-0.006254	0.008449	-0.812500	-0.095459	0.734863	-0.052320	-0.783926	0.042933	-0.617155
52208		9.550512	0.230652	-2.286703	0.009882	-0.002878	0.012886	-0.811768	-0.092773	0.739746	-0.052121	-0.783939	0.043039	-0.617147
52209		9.546686	0.215933	-2.279541	0.011009	-0.005558	0.017743	-0.811035	-0.095459	0.738525	-0.051846	-0.783991	0.043175	-0.617095
52210		9.541278	0.235090	-2.263118	0.015044	-0.003810	0.023477	-0.810059	-0.095215	0.739258	-0.051520	-0.784025	0.043344	-0.617067
52211		9.526702	0.253652	-2.272229	0.011857	-0.001766	0.031723	-0.815674	-0.090332	0.728516	-0.051170	-0.784041	0.043620	-0.617056
52212		9.562705	0.317359	-2.268072	-0.009002	-0.003764	0.047568	-0.806885	-0.086182	0.738281	-0.050869	-0.783997	0.044209	-0.617096
52213		9.543529	0.250753	-2.264885	-0.015071	-0.009320	0.068747	-0.797607	-0.094238	0.749756	-0.050464	-0.784038	0.045093	-0.617012
52214		9.568590	0.164859	-2.250590	-0.006041	-0.016197	0.082399	-0.814941	-0.086670	0.736084	-0.049953	-0.784195	0.046076	-0.616782
52215		9.546512	0.113171	-2.292863	-0.000619	-0.021546	0.089795	-0.811768	-0.081787	0.731445	-0.049217	-0.784293	0.047006	-0.616646
52216		9.535804	-0.004877	-2.321010	-0.003240	-0.022134	0.088195	-0.819824	-0.078369	0.739502	-0.048529	-0.784384	0.047979	-0.616511
52217		9.510347	-0.088776	-2.349385	-0.003567	-0.017832	0.074005	-0.817139	-0.086182	0.737549	-0.047878	-0.784454	0.048735	-0.616413
52218		9.505770	-0.138115	-2.375083	-0.004889	-0.010060	0.051357	-0.813232	-0.082275	0.735596	-0.047500	-0.784476	0.049290	-0.616370
52219		9.525059	-0.172643	-2.318686	0.001917	-0.001656	0.024448	-0.813477	-0.081055	0.737793	-0.047280	-0.784456	0.049566	-0.616389
52220		9.519527	-0.169785	-2.360223	0.007956	0.003975	-0.004092	-0.811768	-0.079834	0.731934	-0.047212	-0.784422	0.049507	-0.616443
52221		9.515824	-0.146466	-2.312742	0.007153	0.004069	-0.028095	-0.809082	-0.081299	0.736816	-0.047359	-0.784385	0.049253	-0.616499
52222		9.519033	-0.116700	-2.341384	0.024407	0.002336	-0.049718	-0.816162	-0.079834	0.736816	-0.047511	-0.784409	0.048665	-0.616503
52223		9.526389	-0.035335	-2.296239	0.017059	0.001245	-0.060726	-0.813232	-0.084229	0.730225	-0.047762	-0.784426	0.047969	-0.616517
52224		9.551949	-0.010152	-2.305228	0.058530	-0.003315	-0.074147	-0.811523	-0.080811	0.731934	-0.047768	-0.784495	0.046867	-0.616514
52225		9.543795	0.171835	-2.340644	0.063463	-0.006064	-0.072307	-0.804199	-0.076904	0.737793	-0.047688	-0.784595	0.045756	-0.616476
52226		9.549541	0.228117	-2.364511	0.022969	-0.003054	-0.052447	-0.811279	-0.080811	0.739502	-0.047854	-0.784673	0.045193	-0.616405
52227		9.548886	0.164943	-2.331090	0.004589	-0.000958	-0.042218	-0.812744	-0.086914	0.740479	-0.048097	-0.784706	0.044805	-0.616373
52228		9.558092	0.179142	-2.297283	-0.008330	0.002862	-0.033072	-0.806152	-0.084961	0.740234	-0.048422	-0.784695	0.044590	-0.616378
52229		9.542531	0.143935	-2.299978	-0.022758	0.002162	-0.024209	-0.808838	-0.088379	0.734863	-0.048845	-0.784691	0.044631	-0.616346
52230		9.543110	0.119948	-2.337517	-0.017111	0.002216	-0.020708	-0.805908	-0.084473	0.739990	-0.049198	-0.784664	0.044650	-0.616351
52231		9.542902	0.137442	-2.321930	-0.008925	0.000212	-0.017369	-0.812500	-0.091553	0.742188	-0.049421	-0.784680	0.044659	-0.616312
52232		9.520040	0.151613	-2.342535	-0.013326	0.000548	-0.013091	-0.812256	-0.086670	0.730225	-0.049649	-0.784679	0.044678	-0.616294
52233		9.533110	0.091323	-2.290738	-0.014276	0.001329	-0.013954	-0.812744	-0.091064	0.738770	-0.049884	-0.784633	0.044717	-0.616330
52234		9.537031	0.093707	-2.314042	0.010843	0.000578	-0.019879	-0.813232	-0.082031	0.741699	-0.049923	-0.784640	0.044489	-0.616335
52235		9.517297	0.148293	-2.304552	0.009242	0.002480	-0.017065	-0.803711	-0.082520	0.743164	-0.049887	-0.784638	0.044291	-0.616355
52236		9.525864	0.155308	-2.306949	0.001711	0.002154	-0.012285	-0.805176	-0.089844	0.736084	-0.049953	-0.784658	0.044284	-0.616324
52237		9.521903	0.165697	-2.275295	0.003907	0.002054	-0.010432	-0.805420	-0.090088	0.731201	-0.050035	-0.784653	0.044276	-0.616325
52238		9.557455	0.147392	-2.295942	0.013802	0.001017	-0.007573	-0.812500	-0.085205	0.738281	-0.050006	-0.784644	0.044225	-0.616342
52239		9.534394	0.163701	-2.309389	0.016688	-0.003282	-0.002961	-0.808594	-0.085693	0.739014	-0.049817	-0.784673	0.044124	-0.616327
52240		9.525803	0.159284	-2.306931	0.001726	-0.000373	0.003330	-0.807861	-0.092041	0.737061	-0.049760	-0.784679	0.044236	-0.616317
52241		9.552639	0.140149	-2.317641	0.005826	-0.002033	0.006909	-0.805176	-0.081299	0.739990	-0.049684	-0.784693	0.044361	-0.616296
52242		9.539240	0.141221	-2.320504	-0.005633	-0.001676	0.007104	-0.813232	-0.079834	0.734863	-0.049669	-0.784712	0.044602	-0.616255
52243		9.533341	0.089755	-2.305608	0.002170	0.001155	0.005430	-0.818604	-0.087402	0.737549	-0.049532	-0.784681	0.044686	-0.616300
52244		9.544008	0.137975	-2.307427	0.005638	0.000273	0.004102	-0.814941	-0.088379	0.738281	-0.049379	-0.784655	0.044678	-0.616346
52245		9.523467	0.112451	-2.301073	-0.001709	-0.001656	0.006088	-0.812744	-0.083984	0.738770	-0.049314	-0.784650	0.044784	-0.616350
52246		9.541833	0.083692	-2.316801	0.006486	-0.003576	0.002039	-0.807373	-0.093262	0.736816	-0.049187	-0.784673	0.044810	-0.616328
52247		9.535173	0.130653	-2.306130	0.009146	-0.003193	0.003012	-0.804443	-0.090820	0.741699	-0.049128	-0.784700	0.044882	-0.616294
52248		9.536270	0.106429	-2.300932	0.009781	-0.003480	0.001719	-0.806396	-0.086914	0.737549	-0.049070	-0.784752	0.044960	-0.616227
52249		9.543635	0.113909	-2.333631	0.009939	-0.003622	0.003094	-0.820557	-0.084473	0.737305	-0.048971	-0.784786	0.045036	-0.616186
52250		9.538909	0.106949	-2.354845	0.011316	-0.001337	0.002836	-0.804688	-0.088867	0.734619	-0.048744	-0.784771	0.044949	-0.616229
52251		9.532527	0.074178	-2.317420	0.011333	-0.002176	0.000452	-0.817871	-0.079834	0.738281	-0.048686	-0.784790	0.045010	-0.616204
52252		9.541779	0.145843	-2.326028	0.017289	-0.001697	0.001103	-0.816406	-0.086182	0.734131	-0.048408	-0.784792	0.044888	-0.616233
52253		9.537774	0.146133	-2.303043	0.008508	-0.002485	0.005495	-0.808350	-0.088867	0.746338	-0.048243	-0.784782	0.044901	-0.616258
52254		9.534403	0.115260	-2.317899	0.009410	-0.000053	0.007904	-0.819092	-0.087402	0.731689	-0.048103	-0.784807	0.044998	-0.616230
52255		9.539322	0.099513	-2.320360	0.013509	-0.001502	0.012076	-0.807861	-0.084717	0.733154	-0.047834	-0.784776	0.045010	-0.616290
52256		9.529629	0.109167	-2.331452	0.010054	-0.001246	0.011617	-0.818359	-0.075439	0.736328	-0.047672	-0.784769	0.045164	-0.616299
52257		9.547481	0.108682	-2.308866	0.001117	-0.002097	0.014039	-0.806641	-0.091553	0.737305	-0.047440	-0.784750	0.045289	-0.616332
52258		9.532046	0.049893	-2.327945	0.011339	-0.003150	0.012846	-0.821533	-0.090576	0.741943	-0.047304	-0.784773	0.045462	-0.616301
52259		9.535486	0.056189	-2.337331	0.021424	-0.005597	0.013496	-0.802246	-0.083740	0.735596	-0.046936	-0.784803	0.045398	-0.616295
52260		9.535048	0.058142	-2.331210	0.020815	-0.006569	0.011213	-0.816406	-0.081299	0.736084	-0.046714	-0.784862	0.045530	-0.616227
52261		9.509398	0.024384	-2.347058	0.022273	-0.009452	0.011436	-0.813477	-0.083252	0.731934	-0.046352	-0.784916	0.045496	-0.616189
52262		9.523194	0.007027	-2.325595	0.033900	-0.009495	0.006401	-0.817383	-0.077637	0.738281	-0.045965	-0.784972	0.045365	-0.616156
52263		9.545746	0.055560	-2.356772	0.031721	-0.010451	0.001571	-0.817139	-0.081543	0.743896	-0.045560	-0.785047	0.045145	-0.616106
52264		9.537632	0.052269	-2.319296	-0.006352	-0.006116	0.000731	-0.810791	-0.074219	0.733154	-0.045555	-0.785084	0.045209	-0.616056
52265		9.526550	0.003373	-2.318245	-0.005118	-0.004539	-0.003290	-0.813477	-0.082031	0.736328	-0.045601	-0.785092	0.045303	-0.616035
52266		9.533555	0.025255	-2.336386	0.010003	-0.007428	-0.007628	-0.807861	-0.077881	0.735352	-0.045550	-0.785137	0.045215	-0.615988
52267		9.541375	0.042713	-2.326205	0.020243	-0.009334	-0.011214	-0.800049	-0.083740	0.744385	-0.045444	-0.785213	0.045071	-0.615910
52268		9.534575	0.092198	-2.316926	0.011720	-0.006478	-0.008121	-0.813477	-0.077393	0.741211	-0.045472	-0.785301	0.045103	-0.615793
52269		9.535827	0.045821	-2.342446	0.002743	-0.004946	-0.006525	-0.821533	-0.088135	0.737793	-0.045441	-0.785334	0.045059	-0.615756
52270		9.522203	0.050467	-2.346063	0.001804	-0.005224	-0.010364	-0.808594	-0.088623	0.739746	-0.045459	-0.785344	0.044912	-0.615752
52271		9.539025	0.054341	-2.360543	-0.004833	-0.002612	-0.009361	-0.808105	-0.085693	0.745605	-0.045637	-0.785361	0.044978	-0.615713
52272		9.518242	0.032842	-2.354711	0.001020	-0.005216	-0.011638	-0.808350	-0.088867	0.746338	-0.045742	-0.785420	0.044970	-0.615630
52273		9.521370	0.064206	-2.341319	0.007112	-0.002929	-0.011658	-0.815430	-0.082764	0.746338	-0.045803	-0.785466	0.044915	-0.615571
52274		9.528486	0.081262	-2.366670	-0.002114	-0.005658	-0.010531	-0.806396	-0.077393	0.737549	-0.045847	-0.785513	0.044846	-0.615513
52275		9.525517	0.068437	-2.330662	0.000079	-0.005119	-0.006897	-0.813965	-0.077881	0.743652	-0.045902	-0.785547	0.044904	-0.615461
52276		9.531450	0.028010	-2.335779	0.013944	-0.007621	-0.009258	-0.815674	-0.079102	0.733887	-0.045763	-0.785612	0.044735	-0.615401
52277		9.516281	0.061271	-2.338625	0.019289	-0.007696	-0.009711	-0.807373	-0.083496	0.741211	-0.045591	-0.785650	0.044507	-0.615382
52278		9.510857	0.075377	-2.338378	0.019301	-0.008332	-0.011499	-0.804443	-0.078613	0.736816	-0.045510	-0.785729	0.044366	-0.615297
52279		9.509554	0.002193	-2.342585	0.015888	-0.010872	-0.012299	-0.813477	-0.075195	0.745117	-0.045474	-0.785818	0.044277	-0.615192
52280		9.488865	-0.057366	-2.384230	0.067202	-0.015368	-0.022027	-0.813721	-0.074219	0.738281	-0.044891	-0.785982	0.043571	-0.615077
52281		9.533796	-0.061973	-2.330830	0.101297	-0.012693	-0.038172	-0.803711	-0.079590	0.740723	-0.044111	-0.786130	0.042443	-0.615022
52282		9.560397	0.006600	-2.335161	0.104198	-0.014108	-0.055425	-0.809570	-0.083496	0.736572	-0.043549	-0.786323	0.041259	-0.614897
52283		9.545503	0.009882	-2.384271	0.095653	-0.008451	-0.066816	-0.809570	-0.082764	0.742188	-0.043149	-0.786446	0.039963	-0.614852
52284		9.518004	0.086903	-2.440797	0.085522	-0.002608	-0.072762	-0.812256	-0.074219	0.746338	-0.042881	-0.786536	0.038675	-0.614839
52285		9.517824	0.186893	-2.424722	0.055022	0.004943	-0.068053	-0.803955	-0.081543	0.743896	-0.042796	-0.786553	0.037604	-0.614889
52286		9.542201	0.186369	-2.373002	0.026059	0.012705	-0.060192	-0.800293	-0.073242	0.753662	-0.043057	-0.786500	0.036955	-0.614979
52287		9.541864	0.160928	-2.325937	0.019280	0.013493	-0.051125	-0.804199	-0.078857	0.740723	-0.043275	-0.786467	0.036473	-0.615034
52288		9.552500	0.214121	-2.334068	0.018292	0.008385	-0.040420	-0.806396	-0.071045	0.749756	-0.043440	-0.786425	0.036072	-0.615099
52289		9.538429	0.296153	-2.369806	0.000390	0.011701	-0.019817	-0.806641	-0.083740	0.738281	-0.043546	-0.786360	0.035966	-0.615181
52290		9.542032	0.260393	-2.346489	-0.035526	0.010350	-0.003964	-0.799072	-0.079346	0.744141	-0.043966	-0.786248	0.036311	-0.615274
52291		9.519487	0.139968	-2.344165	-0.032197	0.008974	0.006338	-0.811768	-0.081299	0.747803	-0.044308	-0.786175	0.036832	-0.615313
52292		9.518646	0.150208	-2.363989	-0.012082	0.004349	0.006225	-0.805420	-0.082031	0.744629	-0.044342	-0.786134	0.037035	-0.615350
52293		9.524804	0.145498	-2.320750	-0.029916	0.005894	0.007255	-0.808105	-0.074219	0.742920	-0.044609	-0.786075	0.037472	-0.615379
52294		9.559203	0.080301	-2.340120	-0.037113	0.004245	0.004457	-0.808594	-0.075684	0.740234	-0.044903	-0.786018	0.037887	-0.615406
52295		9.509890	0.021197	-2.365883	-0.007163	0.004030	-0.007561	-0.802979	-0.074707	0.738037	-0.044999	-0.785977	0.037946	-0.615448
52296		9.511435	0.082949	-2.349428	-0.010374	0.007658	-0.017348	-0.812256	-0.082275	0.743408	-0.045252	-0.785916	0.038008	-0.615503
52297		9.557009	0.137158	-2.348467	-0.015599	0.009722	-0.024369	-0.814697	-0.088623	0.744629	-0.045558	-0.785837	0.037930	-0.615586
52298		9.505199	0.149601	-2.326546	-0.018807	0.012277	-0.022327	-0.808350	-0.080322	0.747314	-0.045888	-0.785735	0.037874	-0.615695
52299		9.521334	0.174105	-2.351494	-0.016360	0.008639	-0.021222	-0.811279	-0.080566	0.739014	-0.046193	-0.785681	0.037893	-0.615740
52300		9.501936	0.142544	-2.357674	-0.004034	0.006422	-0.018136	-0.812500	-0.083008	0.734863	-0.046335	-0.785624	0.037801	-0.615807
52301		9.517059	0.190072	-2.353548	0.007924	0.006829	-0.018663	-0.812744	-0.074707	0.743164	-0.046369	-0.785559	0.037597	-0.615900
52302		9.548324	0.201097	-2.319475	-0.000191	0.003356	-0.014668	-0.808838	-0.084717	0.733643	-0.046396	-0.785536	0.037487	-0.615934
52303		9.571545	0.133244	-2.283894	-0.003820	0.003924	-0.015904	-0.812744	-0.080811	0.739502	-0.046570	-0.785490	0.037463	-0.615982
52304		9.519111	0.123867	-2.322680	-0.022220	0.004438	-0.024582	-0.803223	-0.081543	0.745850	-0.046925	-0.785441	0.037434	-0.616018
52305		9.534274	0.086159	-2.371251	-0.023536	0.008471	-0.034691	-0.806641	-0.099365	0.740234	-0.047441	-0.785400	0.037438	-0.616032
52306		9.517809	-0.042303	-2.379070	-0.029073	0.013803	-0.058375	-0.807129	-0.087158	0.734375	-0.048262	-0.785304	0.037238	-0.616102
52307		9.536000	0.035586	-2.409274	-0.025065	0.024499	-0.094948	-0.808838	-0.095703	0.733398	-0.049268	-0.785130	0.036614	-0.616282
52308		9.585659	0.270222	-2.342401	-0.068745	0.040014	-0.115083	-0.806641	-0.091553	0.735107	-0.050884	-0.784814	0.036112	-0.616583
52309		9.482848	0.096409	-2.427703	-0.134118	0.057051	-0.132693	-0.811523	-0.098389	0.731689	-0.053266	-0.784341	0.035954	-0.616992
52310		9.475920	-0.007960	-2.418387	-0.111265	0.071034	-0.169403	-0.808594	-0.101807	0.733154	-0.055685	-0.783775	0.035194	-0.617541
52311		9.528044	0.156109	-2.400387	-0.117107	0.082552	-0.213005	-0.809814	-0.107666	0.729980	-0.058525	-0.783144	0.034100	-0.618141
52312		9.566697	0.173084	-2.448095	-0.200283	0.112491	-0.260034	-0.811279	-0.123779	0.731689	-0.062551	-0.782227	0.033160	-0.618958
52313		9.576306	-0.035909	-2.414342	-0.337721	0.165913	-0.345645	-0.817383	-0.128174	0.718750	-0.068637	-0.780812	0.032425	-0.620137
52314		9.493977	-0.313383	-2.341986	-0.381590	0.205511	-0.462813	-0.815186	-0.154297	0.713867	-0.075993	-0.779033	0.030769	-0.621600
52315		9.592158	-0.660174	-2.264365	-0.219134	0.223035	-0.639830	-0.805908	-0.163818	0.713135	-0.083239	-0.777294	0.026197	-0.623056
52316		9.648189	-0.502926	-2.315398	-0.181231	0.262416	-0.853734	-0.815674	-0.187744	0.709473	-0.091851	-0.775315	0.019349	-0.624560
52317		9.670159	-0.364600	-2.213774	-0.373118	0.317236	-1.095423	-0.813477	-0.216309	0.694824	-0.104142	-0.772602	0.011495	-0.626185
52318		10.075692	-0.462605	-2.028903	-0.644146	0.373121	-1.397987	-0.797607	-0.260986	0.679443	-0.121415	-0.768899	0.002789	-0.627730
52319		9.934325	-1.051710	-1.584824	-0.762634	0.375872	-1.756561	-0.793457	-0.301025	0.664795	-0.142750	-0.764658	-0.008263	-0.628373
52320		9.390503	0.549211	-1.478486	-0.372215	0.297260	-2.015668	-0.772461	-0.345459	0.661133	-0.162243	-0.761230	-0.024738	-0.627371
52321		8.339533	2.403594	-1.365736	0.066159	0.272590	-2.099269	-0.759033	-0.388184	0.650146	-0.178216	-0.758405	-0.045268	-0.625309
52322		5.902762	3.508773	-0.562120	0.157193	0.256906	-2.089842	-0.737549	-0.422852	0.651855	-0.193094	-0.755373	-0.066438	-0.622665
52323		5.411231	4.724543	-1.707494	0.182262	0.133371	-2.014735	-0.714111	-0.444824	0.654541	-0.207129	-0.752964	-0.086765	-0.618559
52324		10.549662	2.287629	-2.743681	-0.069722	0.209976	-1.953529	-0.686523	-0.484619	0.648926	-0.222735	-0.748914	-0.104808	-0.615250
52325		8.761148	3.266968	-2.285455	0.234096	0.339757	-2.203876	-0.659668	-0.511230	0.653320	-0.237070	-0.743838	-0.127855	-0.611683
52326		5.507058	6.324218	-0.780322	0.416131	0.271693	-2.095700	-0.635010	-0.544922	0.652832	-0.248756	-0.739427	-0.151032	-0.607089
52327		6.440563	8.817901	0.595648	0.200335	0.129534	-1.692724	-0.602051	-0.547119	0.659912	-0.259531	-0.735763	-0.168293	-0.602473
52328		8.477428	10.576118	-2.415777	0.401692	0.107801	-1.194842	-0.581055	-0.566650	0.653564	-0.264584	-0.733681	-0.182480	-0.598673
52329		8.877562	12.907326	0.681591	0.037067	-0.023908	-0.356357	-0.588379	-0.572754	0.662842	-0.267023	-0.733207	-0.185740	-0.597166
52330		8.775102	13.961171	-1.017093	0.300812	-0.191671	0.606142	-0.598389	-0.561035	0.671875	-0.260191	-0.737039	-0.181665	-0.596717
52331		11.131091	14.457170	-1.413844	0.218579	-0.374736	1.806745	-0.604248	-0.525391	0.678467	-0.245483	-0.744452	-0.165315	-0.598499
52332		18.671904	13.774775	-1.411091	-0.313656	-0.447857	3.008977	-0.653809	-0.491943	0.670898	-0.226650	-0.752508	-0.133429	-0.603786
52333		23.441564	5.623845	-1.148898	-1.384639	-0.138189	3.786848	-0.702637	-0.456299	0.644043	-0.211053	-0.754978	-0.086772	-0.614765
52334		18.057162	-2.140841	-2.438851	-1.728426	-0.439836	4.054545	-0.743896	-0.421387	0.624756	-0.196478	-0.757035	-0.033758	-0.622217
52335		8.753630	0.083667	-3.412124	-1.088293	-0.757847	4.590312	-0.785400	-0.355225	0.607422	-0.171462	-0.760821	0.020655	-0.625560
52336		9.119480	0.643576	-5.206804	-0.168581	-0.034919	4.131957	-0.820557	-0.270996	0.607910	-0.141022	-0.758592	0.062031	-0.633090
52337		4.102450	5.343904	-4.137345	0.139650	-0.069858	2.280405	-0.829346	-0.233887	0.590576	-0.121921	-0.757252	0.083245	-0.636219
52338		0.689622	5.645578	-1.931209	-0.497102	-0.440630	0.523761	-0.831543	-0.226074	0.590820	-0.122419	-0.759340	0.093459	-0.632204
52339		0.372624	1.864937	2.168565	-1.494536	-0.126649	0.218996	-0.817871	-0.244385	0.573242	-0.134925	-0.757615	0.107884	-0.629425
52340		1.328335	-1.694324	-0.110295	-1.880310	0.074274	-0.034828	-0.825928	-0.275391	0.555420	-0.153226	-0.753655	0.122460	-0.627319
52341		0.585709	-3.764125	-2.111675	-1.200888	0.452409	-0.441905	-0.827393	-0.307129	0.541260	-0.168819	-0.748334	0.127088	-0.628764
52342		0.428218	-2.402805	-1.542356	-0.225535	0.245300	-0.795734	-0.821289	-0.324951	0.527100	-0.177722	-0.747109	0.121191	-0.628933
52343		0.324695	-0.545801	-0.422320	0.401632	0.152904	-1.213131	-0.806396	-0.340332	0.526611	-0.183895	-0.748499	0.106686	-0.628132
52344		0.613052	1.061582	0.616643	0.885511	0.117672	-1.494271	-0.811279	-0.357422	0.543213	-0.187655	-0.751391	0.085827	-0.626762
52345		0.826068	1.491263	-0.007731	1.040923	0.040589	-1.517766	-0.794922	-0.374512	0.557861	-0.189982	-0.754915	0.063688	-0.624463
52346		0.538435	0.662876	-0.755573	0.936023	0.116293	-1.566108	-0.774170	-0.388184	0.585449	-0.193719	-0.757256	0.041798	-0.622325
52347		0.696428	-0.053511	-1.544122	0.742445	0.134369	-1.656106	-0.756592	-0.399414	0.592773	-0.199974	-0.758665	0.020600	-0.619688
52348		0.046843	1.310327	0.688823	0.690215	0.312615	-1.702607	-0.750732	-0.426025	0.594482	-0.207089	-0.758206	-0.001002	-0.618253
52349		18.400046	38.052688	-5.543347	0.313954	-0.306705	-4.590462	-0.678955	-0.490967	0.625732	-0.239725	-0.760117	-0.045369	-0.602242
52350		11.992845	-18.170341	-0.345293	-0.208587	-0.556117	-3.170775	-0.631592	-0.540527	0.636719	-0.265733	-0.761249	-0.072208	-0.587088
52351		35.551810	-0.646673	-11.452649	0.239030	-0.178052	-2.597382	-0.583984	-0.575439	0.663330	-0.282515	-0.760596	-0.098004	-0.576259
52352		29.169422	14.755895	2.370173	0.580741	0.464233	-2.489316	-0.547852	-0.602783	0.664062	-0.294206	-0.755884	-0.127258	-0.570865
52353		-3.166188	26.209488	-0.486744	1.589329	-0.026236	-0.826323	-0.535156	-0.575439	0.688721	-0.285086	-0.760453	-0.146040	-0.564898
52354		13.250939	17.114428	1.282647	-2.039399	-0.363766	2.159443	-0.578369	-0.588379	0.663086	-0.289662	-0.759156	-0.109694	-0.572490
52355		16.840239	14.913618	-2.735947	-0.120074	-0.584705	2.776001	-0.597656	-0.551514	0.662109	-0.271513	-0.766211	-0.080353	-0.576840
52356		22.424847	7.992359	1.601154	-1.348752	-0.416679	4.062668	-0.659180	-0.522705	0.635742	-0.255146	-0.767591	-0.030241	-0.587188
52357		16.691792	-3.034315	-1.296235	-1.674084	0.024967	4.304597	-0.723389	-0.470703	0.605957	-0.239254	-0.762396	0.023395	-0.600801
52358		7.712841	-3.197045	-4.401471	-1.069923	-0.069276	4.579996	-0.786133	-0.410645	0.581299	-0.214699	-0.757031	0.075369	-0.612478
52359		7.658206	-0.849399	-6.092180	0.293253	0.733784	3.249036	-0.835693	-0.352051	0.563721	-0.187739	-0.748426	0.102144	-0.627837
52360		0.972950	5.075878	-7.266915	0.918160	-0.323671	1.079740	-0.826904	-0.312500	0.564453	-0.170477	-0.751558	0.106199	-0.628346
52361		1.544233	5.926929	-1.121355	-0.487842	-0.292764	-0.450601	-0.819092	-0.330566	0.560303	-0.178361	-0.753346	0.106718	-0.623914
52362		1.104774	2.709779	1.475402	-1.245800	0.319686	-0.553938	-0.821289	-0.354004	0.536865	-0.194929	-0.748666	0.110712	-0.623895
52363		1.077325	-1.597187	0.628149	-1.533792	0.434412	-0.793691	-0.810547	-0.390869	0.506348	-0.216104	-0.742427	0.114317	-0.623725
52364		1.104213	-3.885044	-0.864703	-0.137149	0.452002	-1.396512	-0.805176	-0.422607	0.511719	-0.228954	-0.740376	0.101354	-0.623820
52365		1.729591	-2.790212	-0.176144	2.034390	0.261535	-1.812027	-0.792480	-0.429199	0.523682	-0.224534	-0.746000	0.068108	-0.623241
52366		1.588027	0.915241	0.165062	2.595389	0.304966	-2.069376	-0.776123	-0.436523	0.555664	-0.216612	-0.752009	0.027909	-0.621918
52367		2.559166	2.363597	-0.745140	2.277594	0.370722	-2.158323	-0.748291	-0.440186	0.591064	-0.212047	-0.755457	-0.010867	-0.619841
52368		1.792529	3.213966	-1.805145	1.375671	0.683057	-2.237937	-0.731689	-0.451660	0.592285	-0.216278	-0.753078	-0.044239	-0.619790
52369		0.163844	-1.293089	-1.939042	1.123473	0.822481	-2.488786	-0.718018	-0.488037	0.609619	-0.224466	-0.747900	-0.078379	-0.619772
52370		-8.304120	14.769759	2.603992	2.175262	0.253875	-3.007538	-0.689209	-0.491211	0.649902	-0.227093	-0.748321	-0.123674	-0.610859
52371		24.583729	3.293178	-3.337660	1.096089	0.214979	-2.597885	-0.662598	-0.508545	0.669434	-0.236108	-0.745278	-0.156985	-0.603464
52372		26.690051	4.866139	-11.291108	-0.565774	-0.204405	-1.539030	-0.637451	-0.538330	0.666748	-0.253181	-0.741928	-0.166564	-0.598080
52373		28.487295	15.440181	-1.278283	0.510034	-0.094194	-1.242724	-0.617920	-0.552490	0.689697	-0.257838	-0.741554	-0.181541	-0.592166
52374		18.986434	18.865090	-0.147330	0.575383	-0.002826	0.127487	-0.614990	-0.535645	0.692383	-0.251577	-0.743727	-0.184441	-0.591237
52375		18.286157	19.869636	-2.671620	-0.329497	-0.129536	2.095485	-0.645752	-0.518799	0.685547	-0.239325	-0.748217	-0.161989	-0.597206
52376		22.341409	6.305886	-1.541714	-1.421204	-0.030453	3.450847	-0.695312	-0.498047	0.651123	-0.226664	-0.750366	-0.118762	-0.609483
52377		15.922071	-0.671175	-3.354417	-1.622859	0.064968	4.092509	-0.748291	-0.446045	0.614990	-0.210288	-0.750213	-0.067902	-0.623177
52378		6.790898	2.243093	-5.282976	-0.943593	-0.223105	4.065853	-0.776123	-0.392334	0.601562	-0.187376	-0.751891	-0.021594	-0.631731
52379		6.659581	2.746189	-3.633990	-0.054466	-0.058371	2.221296	-0.796875	-0.348633	0.587891	-0.170483	-0.752527	0.000246	-0.636112
52380		5.541197	9.653249	-1.345991	-0.539381	-0.360498	0.081447	-0.793457	-0.361084	0.580811	-0.175083	-0.754208	0.006466	-0.632830
52381		1.187559	0.654369	0.322119	-0.719346	-0.253824	-0.250193	-0.777832	-0.371826	0.569092	-0.183991	-0.754617	0.010693	-0.629751
52382		-2.104139	-5.786296	1.633330	-0.224928	0.055103	-0.064668	-0.774902	-0.376953	0.560547	-0.186735	-0.753665	0.011978	-0.630060
52383		-2.203738	-4.642057	0.201623	0.586091	0.060135	0.424269	-0.777832	-0.358887	0.564941	-0.177960	-0.754460	0.011472	-0.631656
52384		-0.511409	-1.461256	0.333726	1.149239	-0.078215	1.005073	-0.790771	-0.325684	0.572510	-0.159226	-0.757345	0.012320	-0.633185
52385		1.387129	1.477997	0.235354	0.875378	-0.241591	1.031776	-0.797852	-0.294922	0.591797	-0.142807	-0.760721	0.015929	-0.632975
52386		1.400282	0.112765	-0.325328	0.286327	-0.065236	1.111646	-0.805908	-0.262207	0.604004	-0.131362	-0.761436	0.024641	-0.634312
52387		0.274382	0.040643	-1.315695	0.161554	0.142142	0.952668	-0.812744	-0.241699	0.600098	-0.122399	-0.760211	0.032476	-0.637215
52388		0.532337	2.721881	-0.472376	0.292806	0.141726	0.492662	-0.818848	-0.216553	0.602783	-0.115885	-0.759293	0.034943	-0.639393
52389		0.456662	0.982574	-1.127559	0.781455	0.222652	-0.027001	-0.826660	-0.206787	0.623535	-0.108872	-0.758607	0.028387	-0.641761
52390		-1.268122	7.224671	1.070262	0.861263	0.323064	-0.698855	-0.830322	-0.215332	0.630371	-0.106529	-0.757350	0.014692	-0.644093
52391		20.191552	24.226012	-7.119214	-0.997424	-0.038195	-3.562706	-0.806396	-0.300537	0.629639	-0.144712	-0.756181	-0.010635	-0.638072
52392		19.278697	-14.972211	-4.357791	0.597451	-0.613108	-2.494297	-0.772461	-0.324219	0.664551	-0.158997	-0.761414	-0.037825	-0.627326
52393		50.618259	-5.227515	-3.268829	2.359718	0.003376	-2.322707	-0.745605	-0.319824	0.696289	-0.154498	-0.764331	-0.078435	-0.621109
52394		20.471234	10.570802	-2.960996	1.820944	0.378975	-2.796095	-0.721680	-0.341309	0.705811	-0.158274	-0.761508	-0.119747	-0.617021
52395		4.606831	19.650917	2.174605	0.584011	0.222279	-0.564081	-0.723633	-0.340332	0.693848	-0.156714	-0.760080	-0.129858	-0.617135
52396		1.427233	13.403163	-0.624936	-1.289937	-0.063154	1.380750	-0.733154	-0.334717	0.682373	-0.158352	-0.760068	-0.106547	-0.621183
52397		6.688283	7.564524	-1.841800	-1.534721	-0.221731	2.311561	-0.758057	-0.320312	0.667969	-0.155139	-0.761358	-0.072181	-0.625344
52398		7.613018	2.956588	-2.685700	-2.242188	-0.171924	2.406201	-0.781738	-0.325439	0.651123	-0.157638	-0.759868	-0.031414	-0.629892
52399		6.988756	-0.929847	-3.187292	-2.224436	-0.365305	2.126689	-0.792725	-0.321533	0.635254	-0.162021	-0.758616	0.007022	-0.631033
52400		5.812810	-2.251935	-3.221697	-1.249280	-0.433409	1.645618	-0.801025	-0.304443	0.634766	-0.160780	-0.759085	0.033376	-0.629941
52401		4.769571	-0.008845	-2.220379	-0.525145	-0.497858	1.108615	-0.811279	-0.304688	0.639648	-0.156787	-0.761375	0.049070	-0.627151
52402		4.977919	2.142689	-1.836187	-0.935575	-0.478608	0.757555	-0.805908	-0.302979	0.643066	-0.159452	-0.762716	0.064629	-0.623428
52403		7.546642	-0.972047	-1.459251	-1.002206	-0.372882	0.441324	-0.807373	-0.305176	0.645508	-0.165257	-0.763177	0.077452	-0.619880
52404		9.707422	-3.415949	-1.496966	0.340379	-0.398310	0.017221	-0.796631	-0.291992	0.658691	-0.161483	-0.766924	0.075873	-0.616437
52405		17.028188	-2.868387	-1.356890	2.231807	0.024551	-0.300243	-0.800049	-0.266357	0.682617	-0.142356	-0.771211	0.055816	-0.617943
52406		17.455389	0.740390	-2.012640	1.994243	-0.144145	-0.298609	-0.789062	-0.231934	0.698486	-0.125298	-0.775826	0.037908	-0.617218
52407		7.084021	5.694185	-2.943258	1.117503	-0.037070	-0.044981	-0.795166	-0.213135	0.707520	-0.114785	-0.777799	0.029052	-0.617260
52408		8.881234	4.159325	-2.448860	-0.432732	-0.006816	0.409331	-0.792480	-0.218262	0.704834	-0.115833	-0.777051	0.036501	-0.617611
52409		9.326451	1.254513	-1.405100	-0.714683	0.004048	0.480457	-0.807617	-0.215088	0.696045	-0.119063	-0.775711	0.046776	-0.617987
52410		9.310833	0.277914	-0.795495	-0.408429	-0.133867	0.425203	-0.795654	-0.223877	0.702393	-0.119660	-0.775856	0.054353	-0.617070
52411		9.489700	-0.467496	-2.396947	0.116957	-0.243886	0.318160	-0.800293	-0.215332	0.701416	-0.115907	-0.777674	0.057001	-0.615256
52412		8.982841	0.384459	-3.356758	0.503503	-0.187027	0.276897	-0.801025	-0.197754	0.709473	-0.108751	-0.779610	0.056208	-0.614184
52413		9.435109	1.837546	-2.623949	0.393679	-0.096365	0.341567	-0.803711	-0.189697	0.719482	-0.102229	-0.780616	0.056766	-0.613975
52414		10.339284	1.604107	-1.361617	0.025434	-0.096171	0.418095	-0.800293	-0.173584	0.717041	-0.098707	-0.781067	0.060887	-0.613582
52415		10.142380	0.295134	-1.751615	-0.216820	-0.128564	0.395052	-0.795898	-0.167969	0.718994	-0.097698	-0.781460	0.066673	-0.612642
52416		9.315020	-0.591499	-2.605266	-0.141434	-0.095348	0.262734	-0.804199	-0.164551	0.720947	-0.096991	-0.781780	0.070548	-0.611911
52417		9.115517	-0.770188	-2.844563	-0.016112	-0.054323	0.094213	-0.804688	-0.166992	0.709961	-0.096385	-0.782079	0.071778	-0.611482
52418		9.293409	-0.126062	-2.743185	0.058401	-0.016714	-0.018075	-0.803955	-0.162354	0.724854	-0.095946	-0.782279	0.071308	-0.611351
52419		9.377703	0.181917	-2.452293	0.083468	-0.009932	-0.079527	-0.804199	-0.164062	0.729980	-0.095736	-0.782511	0.070040	-0.611232
52420		9.752616	0.568987	-2.148375	0.060314	-0.022533	-0.101222	-0.798828	-0.168945	0.723877	-0.095909	-0.782830	0.068755	-0.610943
52421		9.717002	0.677361	-2.218146	0.014102	-0.028734	-0.100630	-0.794678	-0.172363	0.721436	-0.096524	-0.783138	0.067836	-0.610554
52422		9.615852	0.777711	-2.286084	-0.036001	-0.027040	-0.074232	-0.796875	-0.173340	0.718994	-0.097428	-0.783350	0.067555	-0.610169
52423		9.447101	0.632328	-2.291292	-0.048472	-0.013786	-0.052944	-0.802979	-0.177979	0.719727	-0.098304	-0.783427	0.067561	-0.609930
52424		9.415687	0.472595	-2.319443	0.065790	-0.027079	-0.055400	-0.798584	-0.177734	0.721436	-0.098068	-0.783747	0.066688	-0.609653
52425		9.338878	0.553957	-2.324539	0.173912	-0.031155	-0.069229	-0.793701	-0.167480	0.723633	-0.096874	-0.784239	0.064860	-0.609407
52426		9.421405	0.996237	-2.332433	0.159167	-0.035776	-0.053361	-0.799072	-0.166016	0.729004	-0.095698	-0.784733	0.063304	-0.609121
52427		9.575040	1.012933	-2.336075	0.082870	-0.041773	-0.003608	-0.792480	-0.165283	0.734375	-0.094887	-0.785140	0.062822	-0.608773
52428		9.710438	0.899967	-2.286818	0.022404	-0.039884	0.039131	-0.798340	-0.163086	0.726807	-0.094345	-0.785427	0.063212	-0.608447
52429		9.561016	0.754868	-2.328463	-0.007924	-0.032809	0.065863	-0.790039	-0.162354	0.723389	-0.093904	-0.785602	0.064090	-0.608198
52430		9.464869	0.458771	-2.484782	-0.027957	-0.020716	0.061986	-0.798096	-0.159180	0.728760	-0.093697	-0.785664	0.065065	-0.608046
52431		9.433645	0.435286	-2.396085	-0.003752	-0.011443	0.037613	-0.789307	-0.160400	0.730713	-0.093446	-0.785702	0.065607	-0.607976
52432		9.406858	0.517765	-2.367712	0.015339	-0.003856	0.018888	-0.790039	-0.161621	0.723145	-0.093156	-0.785722	0.065809	-0.607974
52433		9.504257	0.634501	-2.332522	0.017088	-0.007648	0.018000	-0.798096	-0.160400	0.728760	-0.092853	-0.785772	0.065998	-0.607935
52434		9.528257	0.663970	-2.276155	0.009491	-0.016792	0.031673	-0.791748	-0.163818	0.734863	-0.092513	-0.785870	0.066389	-0.607817
52435		9.523247	0.671486	-2.365867	0.017182	-0.013298	0.049358	-0.794189	-0.152344	0.736084	-0.091967	-0.785938	0.066886	-0.607758
52436		9.572826	0.779643	-2.335927	0.008204	-0.010516	0.073916	-0.787598	-0.153076	0.739990	-0.091321	-0.785953	0.067687	-0.607747
52437		9.485927	0.608279	-2.292271	-0.034224	-0.015161	0.096151	-0.787842	-0.154053	0.731934	-0.090919	-0.785936	0.069029	-0.607678
52438		9.451250	0.336514	-2.416289	-0.015550	-0.016429	0.089718	-0.798096	-0.142822	0.727783	-0.090383	-0.785952	0.070173	-0.607606
52439		9.489495	0.498937	-2.429323	0.006633	-0.005390	0.080944	-0.797363	-0.160645	0.731445	-0.089703	-0.785915	0.071055	-0.607654
52440		9.493354	0.468343	-2.373128	-0.018009	-0.004141	0.078435	-0.799805	-0.152100	0.731201	-0.089291	-0.785841	0.072099	-0.607686
52441		9.527403	0.416615	-2.395847	-0.024660	-0.001148	0.081294	-0.793945	-0.149658	0.733887	-0.088922	-0.785734	0.073216	-0.607745
52442		9.509588	0.407714	-2.270360	-0.028781	-0.006161	0.077898	-0.794678	-0.150146	0.727783	-0.088614	-0.785664	0.074332	-0.607745
52443		9.600121	0.473114	-2.353722	-0.057218	-0.019241	0.083774	-0.791504	-0.151855	0.737549	-0.088529	-0.785654	0.075740	-0.607597
52444		9.639409	0.362788	-2.349993	-0.063003	-0.021892	0.093085	-0.791992	-0.146973	0.732910	-0.088428	-0.785649	0.077279	-0.607424
52445		9.437153	0.184688	-2.510497	-0.004402	-0.013776	0.086344	-0.799561	-0.152100	0.732666	-0.087808	-0.785651	0.078300	-0.607381
52446		9.422748	0.150372	-2.575233	0.072253	-0.005378	0.064676	-0.802979	-0.144287	0.732178	-0.086612	-0.785691	0.078525	-0.607471
52447		9.480828	0.201916	-2.504282	0.089331	0.001734	0.044889	-0.797607	-0.145264	0.727783	-0.085402	-0.785714	0.078420	-0.607626
52448		9.499349	0.167436	-2.415665	0.087622	0.007206	0.026497	-0.794189	-0.142334	0.730225	-0.084357	-0.785710	0.078142	-0.607813
52449		9.517136	0.126907	-2.377849	0.090730	0.013002	0.002917	-0.795410	-0.140137	0.732910	-0.083465	-0.785689	0.077600	-0.608033
52450		9.556799	0.178553	-2.379228	0.137317	0.011077	-0.023068	-0.805176	-0.134766	0.734619	-0.082311	-0.785756	0.076450	-0.608250
52451		9.536353	0.433194	-2.360070	0.121842	0.018656	-0.031064	-0.798584	-0.133057	0.733398	-0.081374	-0.785752	0.075335	-0.608520
52452		9.562014	0.565767	-2.453940	0.033565	0.022084	-0.010862	-0.796875	-0.130859	0.729248	-0.081154	-0.785614	0.075081	-0.608758
52453		9.538352	0.415654	-2.409606	-0.032206	0.032013	0.013333	-0.796143	-0.127197	0.729004	-0.081405	-0.785311	0.075554	-0.609058
52454		9.556793	0.307404	-2.311109	0.005991	0.028721	0.018646	-0.800781	-0.132080	0.729980	-0.081234	-0.785068	0.075787	-0.609366
52455		9.587481	0.393612	-2.251516	0.020096	0.022206	0.029036	-0.797852	-0.134766	0.734863	-0.080842	-0.784877	0.076025	-0.609634
52456		9.450211	0.275258	-2.474565	0.009511	0.016353	0.042568	-0.804443	-0.139404	0.729980	-0.080449	-0.784709	0.076477	-0.609845
52457		9.473592	0.141741	-2.521885	-0.004112	0.027790	0.030471	-0.807129	-0.126709	0.732666	-0.080296	-0.784448	0.076914	-0.610147
52458		9.530462	0.293489	-2.458463	-0.055208	0.039565	0.027337	-0.804932	-0.130615	0.733398	-0.080669	-0.784049	0.077690	-0.610511
52459		9.597876	0.457420	-2.347882	-0.093568	0.068144	0.033540	-0.795166	-0.135010	0.729736	-0.081402	-0.783388	0.078789	-0.611121
52460		9.683225	0.622340	-2.117041	-0.243404	0.090860	0.035128	-0.808105	-0.137695	0.726562	-0.083616	-0.782397	0.081019	-0.611800
52461		9.634241	0.186884	-1.999542	-0.354465	0.093793	0.028456	-0.804688	-0.140137	0.722656	-0.086966	-0.781257	0.084033	-0.612382
52462		9.541718	-0.526739	-2.039183	-0.173411	0.066291	-0.028552	-0.804443	-0.151611	0.720459	-0.088951	-0.780576	0.085128	-0.612815
52463		9.617629	-0.185096	-2.101831	0.123456	0.031681	-0.092040	-0.816406	-0.144043	0.717529	-0.088497	-0.780553	0.083377	-0.613151
52464		9.674590	0.509809	-2.194508	0.228604	0.034911	-0.120344	-0.814453	-0.146973	0.713379	-0.087231	-0.780640	0.080551	-0.613599
52465		9.465630	0.496359	-2.282445	0.067022	0.040688	-0.092456	-0.812988	-0.147949	0.718262	-0.087336	-0.780472	0.079232	-0.613969
52466		9.484859	0.145097	-2.377484	0.063362	0.052616	-0.087506	-0.803955	-0.137939	0.718262	-0.087451	-0.780207	0.077967	-0.614452
52467		9.616725	0.269562	-2.185049	0.167393	0.047953	-0.100938	-0.813232	-0.147461	0.716797	-0.086641	-0.780106	0.075764	-0.614970
52468		9.424476	0.493558	-2.365032	0.124600	0.039139	-0.082313	-0.811279	-0.140137	0.712646	-0.086106	-0.780000	0.074095	-0.615382
52469		9.462130	0.389926	-2.427555	0.062965	0.042713	-0.060416	-0.822510	-0.139648	0.712646	-0.086000	-0.779779	0.073108	-0.615796
52470		9.460713	0.451172	-2.311315	0.000206	0.038033	-0.030282	-0.809814	-0.143799	0.724609	-0.086268	-0.779493	0.072911	-0.616143
52471		9.429180	0.251127	-2.346612	-0.004692	0.032086	-0.019896	-0.810547	-0.149414	0.716797	-0.086502	-0.779251	0.072832	-0.616425
52472		9.574739	0.335501	-2.158804	0.018093	0.029116	-0.022504	-0.819092	-0.139404	0.716064	-0.086537	-0.779055	0.072568	-0.616700
52473		9.518063	0.212343	-2.147780	0.007795	0.012004	-0.020683	-0.813721	-0.149170	0.713623	-0.086632	-0.778974	0.072424	-0.616805
52474		9.673648	0.523556	-2.093834	0.065667	0.027841	-0.037454	-0.820312	-0.146729	0.714600	-0.086319	-0.778849	0.071655	-0.617097
52475		9.609856	0.706691	-2.003462	-0.032780	0.028879	-0.022961	-0.812500	-0.148926	0.712646	-0.086849	-0.778595	0.071789	-0.617328
52476		9.591721	0.453189	-2.120264	-0.078364	0.027784	-0.008754	-0.808838	-0.151123	0.720215	-0.087714	-0.778289	0.072403	-0.617519
52477		9.571138	0.285540	-2.106942	-0.019377	0.032346	-0.018345	-0.813721	-0.146729	0.711426	-0.088083	-0.778028	0.072447	-0.617790
52478		9.553378	0.474905	-2.141856	-0.014231	0.022620	-0.004019	-0.823486	-0.145020	0.711182	-0.088278	-0.777828	0.072617	-0.617994
52479		9.562366	0.521197	-2.252894	-0.016516	0.030082	-0.005725	-0.822266	-0.148682	0.708496	-0.088513	-0.777565	0.072790	-0.618271
52480		9.467271	0.559220	-2.341294	-0.090649	0.025160	0.035682	-0.820801	-0.156250	0.712158	-0.089147	-0.777219	0.073945	-0.618478
52481		9.377925	0.181082	-2.443593	-0.104345	0.009653	0.053148	-0.822998	-0.158691	0.715576	-0.089771	-0.776963	0.075383	-0.618536
52482		9.491208	-0.024422	-2.266443	0.037738	0.001757	0.042405	-0.811523	-0.145752	0.704834	-0.089092	-0.776938	0.075624	-0.618636
52483		9.525817	0.327606	-2.242983	0.101083	-0.009700	0.039365	-0.824463	-0.148926	0.712646	-0.087801	-0.777075	0.075361	-0.618681
52484		9.600315	0.461199	-2.130423	0.039564	-0.001386	0.045324	-0.822998	-0.142578	0.713135	-0.087073	-0.777070	0.075630	-0.618757
52485		9.625782	0.571060	-1.963265	-0.075074	0.000519	0.059711	-0.812988	-0.141357	0.706787	-0.087344	-0.776913	0.076919	-0.618757
52486		9.626690	0.326418	-1.912174	-0.128262	-0.013179	0.064489	-0.814697	-0.144775	0.709473	-0.088081	-0.776799	0.078673	-0.618575
52487		9.594968	0.117590	-2.086655	-0.013975	-0.023722	0.038938	-0.813721	-0.151123	0.711670	-0.087898	-0.776917	0.079304	-0.618373
52488		9.486949	0.248383	-2.310614	0.047088	-0.030085	0.025582	-0.817871	-0.147461	0.706299	-0.087226	-0.777164	0.079338	-0.618152
52489		9.420129	0.424247	-2.405907	-0.020635	-0.016273	0.030902	-0.823242	-0.139404	0.707275	-0.087183	-0.777219	0.079951	-0.618011
52490		9.679973	0.499472	-2.001398	-0.151045	0.002951	0.040013	-0.823730	-0.149902	0.710938	-0.088346	-0.776970	0.081645	-0.617938
52491		9.660067	0.237231	-1.945307	-0.192100	-0.007818	0.046928	-0.823242	-0.150879	0.710693	-0.089852	-0.776750	0.083726	-0.617719
52492		9.630281	0.211028	-2.005962	-0.096693	-0.025583	0.040260	-0.819092	-0.152344	0.706787	-0.090462	-0.776778	0.085023	-0.617417
52493		9.520172	0.375228	-2.224952	-0.058029	-0.031970	0.052377	-0.822998	-0.142578	0.714844	-0.090598	-0.776884	0.086148	-0.617107
52494		9.515356	0.304183	-2.270526	-0.059422	-0.017100	0.054250	-0.820801	-0.145264	0.708496	-0.090735	-0.776876	0.087277	-0.616940
52495		9.592014	0.130592	-2.114831	-0.050020	-0.002184	0.038741	-0.822266	-0.148438	0.707275	-0.090921	-0.776775	0.088174	-0.616912
52496		9.597221	0.056032	-2.139003	-0.037829	-0.013444	0.024250	-0.819824	-0.151367	0.709961	-0.091093	-0.776788	0.088855	-0.616772
52497		9.491807	0.079763	-2.286973	0.003917	-0.017423	0.014704	-0.829346	-0.143799	0.709473	-0.090931	-0.776893	0.089117	-0.616626
52498		9.475320	0.210445	-2.303351	0.010028	-0.014816	0.017432	-0.818115	-0.141357	0.709473	-0.090683	-0.776974	0.089376	-0.616522
52499		9.584448	0.383628	-2.175647	0.022216	-0.006164	0.017112	-0.814209	-0.148682	0.711670	-0.090326	-0.777012	0.089508	-0.616508
52500		9.713250	0.494428	-1.977032	-0.024445	0.001295	0.027223	-0.811523	-0.147705	0.709473	-0.090364	-0.776931	0.090077	-0.616522
52501		9.577385	0.258326	-2.095044	-0.064330	-0.003862	0.035626	-0.820801	-0.149902	0.717529	-0.090718	-0.776835	0.091037	-0.616449
52502		9.628472	0.159089	-2.121892	-0.023942	-0.002147	0.020304	-0.809814	-0.150146	0.715332	-0.090799	-0.776789	0.091535	-0.616421
52503		9.615037	0.267259	-2.130334	-0.011985	-0.005535	0.015916	-0.820068	-0.143555	0.710938	-0.090796	-0.776795	0.091884	-0.616363
52504		9.538384	0.227925	-2.180550	-0.033403	-0.001929	0.018886	-0.826904	-0.147705	0.716797	-0.090973	-0.776732	0.092455	-0.616330
52505		9.562650	0.187817	-2.236656	-0.017879	0.000721	0.013634	-0.816406	-0.150879	0.707520	-0.091046	-0.776673	0.092852	-0.616334
52506		9.540869	0.131374	-2.211786	0.015819	-0.002223	0.008268	-0.821777	-0.151367	0.705322	-0.090839	-0.776680	0.092940	-0.616342
52507		9.599839	0.230950	-2.113404	0.024312	0.003236	-0.000728	-0.820557	-0.146729	0.710449	-0.090627	-0.776659	0.092887	-0.616409
52508		9.582414	0.165971	-2.164221	0.003005	-0.001495	-0.001055	-0.812744	-0.142334	0.719971	-0.090610	-0.776657	0.092984	-0.616399
52509		9.587706	0.205660	-2.192255	0.015095	0.000117	-0.002411	-0.823242	-0.143555	0.709961	-0.090479	-0.776674	0.092932	-0.616404
52510		9.517381	0.206500	-2.196788	0.020551	-0.001856	0.001172	-0.819824	-0.145264	0.708008	-0.090270	-0.776689	0.092924	-0.616417
52511		9.614663	0.260524	-2.124002	0.017729	0.000321	-0.001997	-0.810303	-0.140381	0.711914	-0.090120	-0.776689	0.092901	-0.616443
52512		9.566983	0.189683	-2.172227	-0.005253	-0.002038	0.002353	-0.816650	-0.150391	0.706055	-0.090147	-0.776689	0.093068	-0.616414
52513		9.585776	0.112177	-2.200668	0.009834	-0.000296	-0.003247	-0.824951	-0.149414	0.701660	-0.090093	-0.776686	0.093093	-0.616422
52514		9.558375	0.129265	-2.189311	0.025239	0.002140	-0.011091	-0.810791	-0.148438	0.708252	-0.089951	-0.776678	0.092951	-0.616474
52515		9.563367	0.176414	-2.209044	0.027363	0.000472	-0.016023	-0.821045	-0.148682	0.702393	-0.089823	-0.776711	0.092697	-0.616489
52516		9.557404	0.254315	-2.214621	0.013820	0.004897	-0.011197	-0.819336	-0.133301	0.710938	-0.089796	-0.776674	0.092628	-0.616550
52517		9.567684	0.247258	-2.159075	0.006324	0.004321	-0.006499	-0.819336	-0.142334	0.708252	-0.089773	-0.776641	0.092633	-0.616595
52518		9.605623	0.212533	-2.167249	0.013311	0.003721	-0.004127	-0.819336	-0.139160	0.708252	-0.089682	-0.776613	0.092615	-0.616646
52519		9.561069	0.221199	-2.186588	0.015483	0.003414	-0.002848	-0.829102	-0.144287	0.713135	-0.089553	-0.776589	0.092592	-0.616698
52520		9.612375	0.250518	-2.119958	0.002225	0.008916	0.000942	-0.821045	-0.141113	0.709717	-0.089539	-0.776499	0.092713	-0.616795
52521		9.560579	0.123824	-2.198367	-0.001731	0.006203	0.000100	-0.824219	-0.144287	0.707031	-0.089562	-0.776431	0.092846	-0.616857
52522		9.555955	0.130804	-2.201863	0.019626	0.006802	-0.006230	-0.820801	-0.149902	0.710449	-0.089434	-0.776383	0.092768	-0.616948
52523		9.552057	0.131951	-2.177161	0.034726	0.003547	-0.012874	-0.814697	-0.138916	0.709717	-0.089218	-0.776392	0.092496	-0.617009
52524		9.539177	0.078525	-2.161959	0.048900	0.000883	-0.020982	-0.815918	-0.140381	0.712646	-0.088903	-0.776453	0.092023	-0.617048
52525		9.585747	0.101672	-2.162094	0.087812	0.001192	-0.035117	-0.826660	-0.138428	0.707764	-0.088322	-0.776572	0.091109	-0.617117
52526		9.624445	0.276871	-2.162240	0.072706	0.004290	-0.039109	-0.813477	-0.146240	0.714600	-0.087922	-0.776638	0.090311	-0.617209
52527		9.586800	0.261668	-2.171138	0.012264	0.009598	-0.034004	-0.812012	-0.139648	0.714844	-0.088090	-0.776610	0.089973	-0.617270
52528		9.534473	0.164758	-2.179618	-0.010108	0.013382	-0.033704	-0.818115	-0.147949	0.704346	-0.088462	-0.776531	0.089798	-0.617342
52529		9.579919	0.165199	-2.120935	-0.010635	0.002261	-0.038679	-0.817139	-0.138184	0.714355	-0.088886	-0.776522	0.089640	-0.617315
52530		9.534187	0.091360	-2.112030	0.010513	-0.009989	-0.043441	-0.825195	-0.145996	0.704102	-0.089099	-0.776652	0.089250	-0.617177
52531		9.561053	0.067951	-2.258673	0.113252	-0.008450	-0.056376	-0.820312	-0.144531	0.706543	-0.088437	-0.776875	0.087996	-0.617171
52532		9.581608	0.443231	-2.211774	0.105105	0.004225	-0.055391	-0.820312	-0.144043	0.714355	-0.087858	-0.776996	0.086783	-0.617273
52533		9.625606	0.409628	-2.140545	-0.021758	0.013321	-0.037649	-0.811523	-0.146240	0.704834	-0.088381	-0.776897	0.086687	-0.617337
52534		9.579339	0.205485	-2.163958	-0.056842	0.017835	-0.034078	-0.815186	-0.149414	0.707520	-0.089229	-0.776718	0.086896	-0.617411
52535		9.581748	0.204401	-2.102458	-0.017394	0.015773	-0.042105	-0.816406	-0.146240	0.708496	-0.089756	-0.776607	0.086725	-0.617499
52536		9.609400	0.347961	-2.120883	-0.007609	0.016692	-0.041746	-0.815674	-0.135010	0.712891	-0.090175	-0.776501	0.086477	-0.617606
52537		9.584782	0.391669	-2.141709	-0.042857	0.020103	-0.035170	-0.817383	-0.146729	0.712646	-0.090858	-0.776331	0.086537	-0.617711
52538		9.558636	0.309505	-2.192003	-0.052507	0.020981	-0.026149	-0.813232	-0.146973	0.709717	-0.091589	-0.776130	0.086765	-0.617823
52539		9.584780	0.290801	-2.116427	-0.059113	0.023201	-0.025793	-0.819092	-0.137695	0.702393	-0.092383	-0.775905	0.087039	-0.617948
52540		9.599147	0.297357	-2.108337	-0.039078	0.020781	-0.026323	-0.823975	-0.155273	0.708008	-0.092963	-0.775710	0.087189	-0.618085
52541		9.553996	0.325228	-2.144172	-0.026449	0.020805	-0.027162	-0.821289	-0.152832	0.706299	-0.093461	-0.775530	0.087232	-0.618231
52542		9.580723	0.385070	-2.114743	-0.019838	0.021779	-0.023911	-0.818115	-0.152832	0.704102	-0.093864	-0.775348	0.087248	-0.618395
52543		9.564985	0.337043	-2.107632	-0.023284	0.020731	-0.020013	-0.822754	-0.150146	0.702393	-0.094268	-0.775168	0.087325	-0.618548
52544		9.576530	0.323544	-2.100406	-0.016144	0.019832	-0.016840	-0.820801	-0.160400	0.702881	-0.094570	-0.774994	0.087394	-0.618710
52545		9.549300	0.299178	-2.125234	-0.006745	0.014687	-0.018417	-0.822510	-0.165039	0.702148	-0.094811	-0.774875	0.087375	-0.618826
52546		9.583997	0.360914	-2.099648	-0.004960	0.017528	-0.019465	-0.815186	-0.147949	0.702881	-0.095056	-0.774733	0.087336	-0.618971
52547		9.584725	0.365624	-2.095507	-0.013070	0.016352	-0.015902	-0.814209	-0.162598	0.705566	-0.095305	-0.774602	0.087360	-0.619094
52548		9.577259	0.319859	-2.092273	-0.005318	0.017226	-0.016009	-0.819824	-0.156006	0.706299	-0.095515	-0.774475	0.087313	-0.619226
52549		9.606586	0.301789	-2.070540	0.004245	0.016140	-0.017584	-0.820557	-0.157715	0.699707	-0.095625	-0.774367	0.087188	-0.619362
52550		9.599152	0.342441	-2.105176	0.005404	0.016033	-0.020960	-0.820557	-0.155029	0.699463	-0.095758	-0.774255	0.087048	-0.619502
52551		9.573173	0.351136	-2.069805	-0.003325	0.016316	-0.020517	-0.820312	-0.161133	0.699463	-0.095965	-0.774130	0.086976	-0.619635
52552		9.585357	0.371638	-2.076382	-0.003229	0.013731	-0.020343	-0.823486	-0.162109	0.701172	-0.096181	-0.774026	0.086909	-0.619742
52553		9.598975	0.334481	-2.065994	-0.007922	0.013988	-0.019475	-0.820801	-0.170410	0.704590	-0.096436	-0.773911	0.086887	-0.619848
52554		9.579849	0.359987	-2.054598	-0.002162	0.011795	-0.023112	-0.826172	-0.157471	0.703857	-0.096678	-0.773832	0.086768	-0.619926
52555		9.591385	0.342071	-2.094244	-0.001714	0.009707	-0.025793	-0.815674	-0.156494	0.700928	-0.096900	-0.773769	0.086635	-0.619990
52556		9.614649	0.339174	-2.071135	-0.009455	0.010433	-0.028907	-0.814697	-0.160400	0.699951	-0.097218	-0.773703	0.086505	-0.620040
52557		9.569449	0.320611	-2.076627	-0.007006	0.011863	-0.036874	-0.823486	-0.158203	0.698730	-0.097585	-0.773637	0.086279	-0.620095
52558		9.576026	0.312530	-2.084518	0.006383	0.012364	-0.045192	-0.825928	-0.155518	0.694336	-0.097881	-0.773581	0.085901	-0.620172
52559		9.567879	0.319326	-2.079512	0.022760	0.009197	-0.055152	-0.824463	-0.175781	0.696533	-0.098089	-0.773571	0.085329	-0.620231
52560		9.573107	0.364591	-2.040391	0.036298	0.009538	-0.062096	-0.818604	-0.162598	0.701172	-0.098270	-0.773582	0.084577	-0.620290
52561		9.599259	0.459287	-2.034246	0.039549	0.011742	-0.064373	-0.824219	-0.168701	0.701904	-0.098397	-0.773601	0.083729	-0.620362
52562		9.570484	0.493549	-2.012773	0.011239	0.014331	-0.055561	-0.817383	-0.162598	0.706299	-0.098747	-0.773548	0.083201	-0.620444
52563		9.577603	0.442617	-2.024011	0.007184	0.010304	-0.054001	-0.816895	-0.164551	0.693115	-0.099094	-0.773537	0.082676	-0.620472
52564		9.575493	0.431669	-1.994395	0.017335	0.001382	-0.051642	-0.817627	-0.171875	0.696045	-0.099331	-0.773585	0.082162	-0.620443
52565		9.584091	0.516274	-2.022283	0.026861	-0.001662	-0.053202	-0.825195	-0.165771	0.701660	-0.099501	-0.773671	0.081556	-0.620388
52566		9.576022	0.550909	-2.041653	0.025718	-0.007583	-0.045824	-0.815918	-0.170410	0.705811	-0.099595	-0.773795	0.081038	-0.620287
52567		9.593301	0.517265	-2.023278	0.007723	-0.006285	-0.037859	-0.820312	-0.159424	0.700439	-0.099809	-0.773895	0.080685	-0.620173
52568		9.609339	0.494393	-2.025546	0.013773	-0.007779	-0.033698	-0.821289	-0.172607	0.697998	-0.099904	-0.773997	0.080365	-0.620072
52569		9.590384	0.504571	-2.044233	0.021524	-0.016075	-0.035406	-0.823486	-0.174072	0.697510	-0.099969	-0.774166	0.080002	-0.619898
52570		9.584235	0.478918	-2.085542	0.018179	-0.018129	-0.034534	-0.812500	-0.165771	0.702881	-0.100063	-0.774339	0.079691	-0.619706
52571		9.566601	0.404246	-2.103610	0.020352	-0.013568	-0.042892	-0.813721	-0.169189	0.701416	-0.100170	-0.774514	0.079206	-0.619532
52572		9.582684	0.418308	-2.119519	0.036513	-0.007881	-0.058482	-0.820068	-0.170898	0.698486	-0.100259	-0.774674	0.078455	-0.619414
52573		9.565457	0.490447	-2.105601	0.031804	-0.009300	-0.066469	-0.812744	-0.168945	0.701416	-0.100464	-0.774831	0.077710	-0.619278
52574		9.589420	0.479479	-2.111042	0.027133	-0.008505	-0.073864	-0.809570	-0.168701	0.708984	-0.100758	-0.774998	0.076885	-0.619125
52575		9.594088	0.518206	-2.056301	0.046805	-0.011558	-0.086763	-0.815186	-0.163330	0.697266	-0.100943	-0.775241	0.075737	-0.618931
52576		9.594577	0.621656	-2.048314	0.046125	-0.009338	-0.087508	-0.812744	-0.173340	0.704346	-0.101144	-0.775437	0.074672	-0.618782
52577		9.575340	0.636328	-2.075515	0.036059	-0.016554	-0.079820	-0.809082	-0.168457	0.698975	-0.101393	-0.775681	0.073727	-0.618549
52578		9.579128	0.674730	-2.095253	0.030428	-0.013962	-0.070987	-0.806396	-0.179443	0.695312	-0.101619	-0.775884	0.072924	-0.618352
52579		9.598268	0.697596	-2.054996	0.035332	-0.015280	-0.063453	-0.815186	-0.172607	0.705078	-0.101775	-0.776090	0.072175	-0.618156
52580		9.549445	0.699156	-2.079597	0.021106	-0.013109	-0.053962	-0.812012	-0.185547	0.703125	-0.101964	-0.776257	0.071610	-0.617981
52581		9.566888	0.668392	-2.098812	0.015604	-0.011704	-0.048748	-0.815186	-0.174805	0.708252	-0.102206	-0.776397	0.071144	-0.617819
52582		9.569531	0.649954	-2.068869	0.019695	-0.018085	-0.047502	-0.810547	-0.179688	0.703857	-0.102353	-0.776597	0.070648	-0.617600
52583		9.560110	0.650277	-2.151246	0.018855	-0.013484	-0.049030	-0.809082	-0.183594	0.705078	-0.102543	-0.776758	0.070150	-0.617423
52584		9.564703	0.745165	-2.093995	0.016210	-0.008932	-0.047069	-0.814697	-0.183838	0.699707	-0.102755	-0.776881	0.069677	-0.617287
52585		9.593819	0.666451	-2.089048	0.004764	-0.010111	-0.041965	-0.813477	-0.182617	0.704834	-0.103050	-0.776974	0.069404	-0.617151
52586		9.547616	0.771809	-2.130017	0.009863	-0.008331	-0.037487	-0.812988	-0.183350	0.711182	-0.103247	-0.777067	0.069099	-0.617035
52587		9.564691	0.715034	-2.119926	0.005632	-0.013045	-0.031595	-0.809082	-0.190186	0.698730	-0.103426	-0.777197	0.068852	-0.616869
52588		9.547581	0.711799	-2.081091	0.019252	-0.010403	-0.026558	-0.808838	-0.174805	0.701904	-0.103475	-0.777300	0.068609	-0.616758
52589		9.571152	0.758985	-2.112314	0.029503	-0.005836	-0.022656	-0.801514	-0.183105	0.707031	-0.103342	-0.777388	0.068287	-0.616705
52590		9.529330	0.801905	-2.134229	0.005816	-0.002839	-0.019598	-0.815918	-0.180420	0.703125	-0.103435	-0.777437	0.068117	-0.616646
52591		9.584480	0.760065	-2.118957	-0.014495	0.002686	-0.014229	-0.810303	-0.175781	0.705811	-0.103693	-0.777384	0.068242	-0.616656
52592		9.531623	0.701964	-2.138485	-0.013341	0.003611	-0.012591	-0.815918	-0.174072	0.708984	-0.103902	-0.777339	0.068320	-0.616669
52593		9.557889	0.708144	-2.124119	0.007824	0.008630	-0.015542	-0.804688	-0.185059	0.705811	-0.103922	-0.777284	0.068204	-0.616748
52594		9.543322	0.781095	-2.114230	-0.000465	0.007649	-0.012703	-0.810547	-0.185059	0.701416	-0.104037	-0.777232	0.068155	-0.616799
52595		9.554020	0.743513	-2.117375	-0.014506	0.009553	-0.011865	-0.806152	-0.185791	0.704590	-0.104294	-0.777129	0.068276	-0.616872
52596		9.528875	0.710073	-2.114900	-0.011320	0.008192	-0.010912	-0.808594	-0.187988	0.707764	-0.104503	-0.777054	0.068338	-0.616925
52597		9.558877	0.721630	-2.115119	-0.000201	0.012537	-0.016410	-0.803467	-0.178711	0.704834	-0.104651	-0.776966	0.068247	-0.617020
52598		9.569336	0.746999	-2.078813	-0.003187	0.007307	-0.015127	-0.804199	-0.174805	0.701172	-0.104780	-0.776921	0.068176	-0.617063
52599		9.572440	0.789524	-2.069083	-0.008189	0.007225	-0.008744	-0.810547	-0.186035	0.705811	-0.104901	-0.776858	0.068226	-0.617117
52600		9.561557	0.775170	-2.093964	0.006470	0.002522	-0.002580	-0.809326	-0.184570	0.705322	-0.104863	-0.776840	0.068245	-0.617143
52601		9.554650	0.820394	-2.104137	-0.003785	-0.001141	0.010047	-0.799805	-0.187744	0.699463	-0.104818	-0.776828	0.068463	-0.617142
52602		9.538314	0.723362	-2.073049	-0.020737	-0.002012	0.015358	-0.803711	-0.180176	0.701416	-0.104914	-0.776799	0.068857	-0.617118
52603		9.540877	0.703329	-2.097057	-0.001518	-0.003544	0.012759	-0.804932	-0.183594	0.701416	-0.104812	-0.776810	0.069077	-0.617098
52604		9.576085	0.730747	-2.116029	-0.008157	-0.001897	0.011901	-0.810303	-0.187744	0.705078	-0.104797	-0.776796	0.069349	-0.617087
52605		9.566069	0.678622	-2.093137	-0.014240	-0.004136	0.010990	-0.805176	-0.171143	0.702881	-0.104859	-0.776789	0.069672	-0.617048
52606		9.561772	0.705608	-2.091069	0.006355	-0.001890	0.006347	-0.810059	-0.181396	0.700928	-0.104696	-0.776806	0.069752	-0.617045
52607		9.553999	0.755610	-2.094234	-0.000917	-0.004018	0.008838	-0.810791	-0.178223	0.703369	-0.104633	-0.776812	0.069973	-0.617024
52608		9.544126	0.759687	-2.113032	-0.004679	-0.001547	0.015626	-0.806152	-0.181885	0.698730	-0.104540	-0.776792	0.070268	-0.617032
52609		9.530831	0.757623	-2.115965	-0.014014	-0.003413	0.018819	-0.807617	-0.180176	0.703369	-0.104533	-0.776768	0.070681	-0.617015
52610		9.581234	0.713170	-2.106220	-0.008578	-0.000312	0.024861	-0.815674	-0.182617	0.713135	-0.104413	-0.776731	0.071076	-0.617038
52611		9.560727	0.670373	-2.093138	0.001933	0.000049	0.022108	-0.802979	-0.180664	0.715332	-0.104205	-0.776712	0.071338	-0.617066
52612		9.563758	0.675877	-2.101426	0.012295	-0.003050	0.021215	-0.806641	-0.186035	0.697998	-0.103875	-0.776761	0.071416	-0.617052
52613		9.559157	0.732939	-2.112440	0.010769	-0.002029	0.023649	-0.805664	-0.180420	0.699951	-0.103618	-0.776749	0.071701	-0.617076
52614		9.561704	0.680835	-2.115862	-0.000223	-0.002702	0.027882	-0.810303	-0.183350	0.708252	-0.103408	-0.776733	0.072082	-0.617087
52615		9.566821	0.673580	-2.067089	0.002055	-0.003720	0.026746	-0.809082	-0.181152	0.705566	-0.103179	-0.776738	0.072403	-0.617082
52616		9.577623	0.592394	-2.097188	0.002994	-0.005105	0.023792	-0.798096	-0.178955	0.700684	-0.102963	-0.776753	0.072702	-0.617064
52617		9.578374	0.643328	-2.103480	0.013938	-0.004047	0.020767	-0.807373	-0.180908	0.705566	-0.102659	-0.776787	0.072854	-0.617054
52618		9.563859	0.645521	-2.136296	0.008297	-0.007973	0.018392	-0.805420	-0.174072	0.705566	-0.102433	-0.776839	0.073056	-0.617002
52619		9.581246	0.582141	-2.116863	0.008580	-0.000862	0.015279	-0.810547	-0.180908	0.704834	-0.102208	-0.776844	0.073197	-0.617017
52620		9.553829	0.615399	-2.135647	0.020842	-0.003896	0.012892	-0.806641	-0.173584	0.700684	-0.101917	-0.776876	0.073274	-0.617015
52621		9.557615	0.678762	-2.113457	0.021187	-0.004808	0.013854	-0.814941	-0.175781	0.715332	-0.101596	-0.776915	0.073359	-0.617009
52622		9.542322	0.658747	-2.081187	0.005754	-0.008017	0.020579	-0.813232	-0.174316	0.709473	-0.101349	-0.776969	0.073570	-0.616956
52623		9.578282	0.614638	-2.112460	0.006574	-0.009997	0.023897	-0.813477	-0.169922	0.703369	-0.101079	-0.777026	0.073847	-0.616895
52624		9.564878	0.576160	-2.140693	0.009112	-0.007524	0.022899	-0.807861	-0.174561	0.707275	-0.100800	-0.777054	0.074143	-0.616871
52625		9.568987	0.603943	-2.142381	0.009022	-0.005342	0.021484	-0.811279	-0.177490	0.702881	-0.100536	-0.777084	0.074361	-0.616850
52626		9.565516	0.593001	-2.127922	0.008605	-0.003834	0.022339	-0.809814	-0.166016	0.712646	-0.100305	-0.777082	0.074657	-0.616854
52627		9.556552	0.526263	-2.121000	0.018051	-0.002815	0.016703	-0.807617	-0.177979	0.707031	-0.099948	-0.777119	0.074711	-0.616859
52628		9.565690	0.582841	-2.129946	0.020166	-0.003486	0.014782	-0.814453	-0.167725	0.700439	-0.099653	-0.777152	0.074788	-0.616856
52629		9.553088	0.574124	-2.140869	0.007085	0.000172	0.017692	-0.810059	-0.166992	0.708984	-0.099458	-0.777111	0.075079	-0.616903
52630		9.578943	0.544120	-2.143516	0.003021	0.001702	0.014049	-0.805908	-0.171143	0.702393	-0.099297	-0.777087	0.075257	-0.616939
52631		9.576756	0.558074	-2.156092	0.010512	0.003028	0.011117	-0.806641	-0.169434	0.711426	-0.099120	-0.777055	0.075384	-0.616991
52632		9.549323	0.597748	-2.129430	0.013802	0.001691	0.014066	-0.813721	-0.166016	0.703125	-0.098853	-0.777056	0.075439	-0.617026
52633		9.569878	0.607484	-2.113680	0.010030	0.002173	0.020864	-0.810303	-0.165771	0.708008	-0.098598	-0.777008	0.075704	-0.617094
52634		9.555086	0.552251	-2.102529	0.010660	0.003176	0.025193	-0.807861	-0.158447	0.704102	-0.098283	-0.776969	0.075937	-0.617165
52635		9.572669	0.548999	-2.115053	0.015149	0.003939	0.025327	-0.812988	-0.166016	0.709961	-0.097906	-0.776927	0.076139	-0.617253
52636		9.569127	0.570881	-2.148050	0.006102	0.005441	0.028058	-0.807129	-0.165039	0.703125	-0.097619	-0.776862	0.076432	-0.617345
52637		9.567752	0.546945	-2.146351	-0.006631	0.008217	0.031926	-0.812500	-0.156982	0.704834	-0.097443	-0.776751	0.076877	-0.617457
52638		9.576644	0.482300	-2.112327	-0.014792	0.012535	0.030271	-0.815430	-0.165039	0.704346	-0.097331	-0.776595	0.077367	-0.617609
52639		9.562208	0.461221	-2.075314	-0.005849	0.010978	0.025539	-0.823975	-0.168457	0.703125	-0.097209	-0.776458	0.077779	-0.617749
52640		9.554374	0.484895	-2.119971	0.007481	0.008548	0.022186	-0.811523	-0.160400	0.702148	-0.097016	-0.776338	0.078131	-0.617885
52641		9.588758	0.491982	-2.100185	-0.002594	0.006567	0.023480	-0.813965	-0.166260	0.696045	-0.096857	-0.776247	0.078479	-0.617980
52642		9.579772	0.493461	-2.080380	0.002307	0.005807	0.022764	-0.814941	-0.161133	0.703857	-0.096709	-0.776146	0.078868	-0.618081
52643		9.556812	0.496591	-2.136325	-0.001583	0.005414	0.023135	-0.815430	-0.162354	0.712891	-0.096546	-0.776064	0.079210	-0.618166
52644		9.586814	0.470274	-2.080590	-0.009466	0.003003	0.025115	-0.814941	-0.166992	0.704102	-0.096417	-0.776011	0.079558	-0.618208
52645		9.567600	0.444478	-2.103485	-0.003198	-0.000026	0.024418	-0.822510	-0.159668	0.707520	-0.096284	-0.775967	0.079941	-0.618235
52646		9.588660	0.413375	-2.119102	0.007598	0.001298	0.020608	-0.813721	-0.163574	0.712158	-0.096044	-0.775925	0.080204	-0.618291
52647		9.587597	0.453700	-2.116110	0.010309	0.003397	0.020394	-0.819824	-0.170898	0.701660	-0.095772	-0.775899	0.080351	-0.618346
52648		9.601667	0.446687	-2.076418	-0.005287	0.002046	0.022489	-0.816650	-0.170166	0.699219	-0.095718	-0.775820	0.080796	-0.618396
52649		9.570254	0.377917	-2.104377	0.002048	0.001262	0.017596	-0.815918	-0.162354	0.703369	-0.095632	-0.775761	0.081135	-0.618438
52650		9.568661	0.459585	-2.106086	0.011017	0.008337	0.012604	-0.815918	-0.156738	0.704102	-0.095452	-0.775680	0.081285	-0.618549
52651		9.584927	0.470832	-2.102061	-0.005145	0.004858	0.016809	-0.816162	-0.157715	0.697998	-0.095365	-0.775606	0.081582	-0.618615
52652		9.574891	0.445465	-2.098021	-0.009153	0.005473	0.020206	-0.825928	-0.157715	0.705811	-0.095316	-0.775504	0.081997	-0.618696
52653		9.574524	0.378501	-2.062798	-0.001882	0.003701	0.020361	-0.806396	-0.162842	0.706543	-0.095184	-0.775424	0.082352	-0.618770
52654		9.574813	0.407863	-2.111459	0.007655	0.004891	0.017346	-0.817871	-0.154297	0.706787	-0.094980	-0.775390	0.082486	-0.618826
52655		9.594861	0.389364	-2.073557	0.002198	0.007535	0.018123	-0.819092	-0.151855	0.704346	-0.094800	-0.775309	0.082713	-0.618924
52656		9.597088	0.441874	-2.113329	-0.009299	0.009844	0.017370	-0.813721	-0.156250	0.709473	-0.094739	-0.775190	0.083038	-0.619039
52657		9.579340	0.412276	-2.032563	-0.012103	0.008550	0.020000	-0.820801	-0.158691	0.696777	-0.094679	-0.775099	0.083343	-0.619121
52658		9.577273	0.357390	-2.053784	-0.019425	0.008304	0.019861	-0.823730	-0.159912	0.698242	-0.094760	-0.774952	0.083865	-0.619222
52659		9.584061	0.335468	-2.099489	0.010990	0.002074	0.014066	-0.817627	-0.152100	0.703857	-0.094588	-0.774894	0.084107	-0.619288
52660		9.587600	0.484554	-2.150905	0.008825	0.007369	0.015749	-0.818359	-0.155029	0.697021	-0.094362	-0.774822	0.084264	-0.619391
52661		9.576500	0.469983	-2.129884	-0.029907	0.013987	0.029980	-0.823242	-0.157471	0.701416	-0.094450	-0.774618	0.084922	-0.619543
52662		9.597341	0.301896	-2.089020	-0.025333	0.019165	0.031282	-0.819824	-0.145752	0.706787	-0.094493	-0.774379	0.085546	-0.619749
52663		9.596171	0.279298	-2.084181	0.011850	0.020603	0.020451	-0.820068	-0.160156	0.702393	-0.094174	-0.774215	0.085661	-0.619988
52664		9.582207	0.400999	-2.125950	0.019482	0.024328	0.020724	-0.831055	-0.147705	0.696777	-0.093877	-0.774012	0.085800	-0.620267
52665		9.622583	0.440412	-2.101054	0.003800	0.033094	0.026739	-0.821045	-0.163818	0.701416	-0.093666	-0.773685	0.086178	-0.620654
52666		9.585790	0.353650	-2.061099	-0.019663	0.036915	0.034906	-0.822510	-0.160645	0.698975	-0.093679	-0.773321	0.086757	-0.621025
52667		9.591407	0.317300	-2.054497	-0.015490	0.038550	0.034085	-0.829102	-0.163574	0.703125	-0.093652	-0.772946	0.087301	-0.621420
52668		9.592452	0.321600	-2.065401	-0.008481	0.043894	0.031832	-0.828613	-0.148438	0.703613	-0.093590	-0.772539	0.087769	-0.621870
52669		9.596143	0.342595	-2.038870	-0.009066	0.046161	0.033094	-0.826904	-0.153320	0.694092	-0.093439	-0.772125	0.088178	-0.622347
52670		9.596392	0.317874	-2.027287	-0.007906	0.049883	0.037109	-0.828369	-0.144775	0.692139	-0.093304	-0.771660	0.088685	-0.622873
52671		9.592938	0.327315	-2.041118	-0.009106	0.051996	0.038456	-0.828369	-0.146729	0.685303	-0.093130	-0.771175	0.089192	-0.623426
52672		9.623846	0.342452	-1.969904	-0.009538	0.060932	0.041450	-0.827148	-0.152344	0.697510	-0.092978	-0.770602	0.089769	-0.624074
52673		9.635860	0.297352	-1.988604	-0.030232	0.064070	0.046904	-0.828369	-0.157471	0.688965	-0.092977	-0.770012	0.090457	-0.624703
52674		9.598083	0.265141	-1.996884	-0.018809	0.064066	0.046905	-0.835205	-0.157959	0.693604	-0.092921	-0.769412	0.091132	-0.625352
52675		9.641830	0.282435	-1.912701	-0.016890	0.066939	0.047804	-0.825439	-0.148438	0.685791	-0.092838	-0.768794	0.091785	-0.626029
52676		9.627956	0.234473	-1.943722	-0.022717	0.066919	0.050784	-0.836426	-0.156006	0.690674	-0.092740	-0.768177	0.092466	-0.626701
52677		9.643798	0.193104	-1.939819	-0.017679	0.072334	0.048639	-0.844482	-0.147461	0.697998	-0.092659	-0.767516	0.093116	-0.627425
52678		9.633489	0.276104	-1.918504	-0.018995	0.081202	0.046332	-0.838867	-0.148193	0.692627	-0.092557	-0.766800	0.093686	-0.628231
52679		9.661978	0.323718	-1.865770	-0.042682	0.089113	0.058232	-0.838135	-0.145996	0.690430	-0.092607	-0.765984	0.094539	-0.629090
52680		9.659376	0.255100	-1.851706	-0.066444	0.092392	0.068323	-0.842773	-0.144531	0.678467	-0.092796	-0.765107	0.095654	-0.629960
52681		9.722276	0.277481	-1.836911	-0.068958	0.099985	0.073162	-0.843750	-0.143311	0.677979	-0.093005	-0.764127	0.096908	-0.630927
52682		9.695212	0.228547	-1.788860	-0.119219	0.106263	0.076768	-0.849365	-0.140137	0.671143	-0.093661	-0.763038	0.098563	-0.631890
52683		9.676266	0.106314	-1.768371	-0.157620	0.116979	0.073531	-0.849854	-0.153564	0.667236	-0.094718	-0.761802	0.100514	-0.632916
52684		9.668006	-0.025262	-1.772981	-0.154147	0.121318	0.055765	-0.842041	-0.150635	0.674561	-0.095959	-0.760548	0.102299	-0.633951
52685		9.764938	0.056895	-1.697894	-0.137811	0.135955	0.032042	-0.851807	-0.153076	0.662598	-0.097182	-0.759276	0.103569	-0.635081
52686		9.730172	-0.034410	-1.745434	-0.189488	0.146184	0.006037	-0.857178	-0.152832	0.662842	-0.099154	-0.757848	0.105091	-0.636232
52687		9.672277	-0.327595	-1.787607	-0.190761	0.162968	-0.048867	-0.856445	-0.166504	0.655029	-0.101569	-0.756355	0.106058	-0.637465
52688		9.862344	-0.501113	-1.754403	-0.146537	0.174461	-0.122273	-0.860840	-0.162354	0.652344	-0.104227	-0.754909	0.106001	-0.638759
52689		9.989959	-0.166641	-1.574599	-0.097453	0.185322	-0.202142	-0.851562	-0.171387	0.640137	-0.107017	-0.753542	0.104757	-0.640115
52690		10.001297	0.020942	-1.278515	-0.070513	0.199053	-0.274908	-0.866699	-0.177490	0.638428	-0.110180	-0.752185	0.102601	-0.641522
52691		10.022685	0.409725	-0.983712	-0.189727	0.181735	-0.367125	-0.860107	-0.185059	0.638672	-0.115179	-0.750884	0.100595	-0.642486
52692		10.055288	0.067432	-0.995773	-0.254257	0.175860	-0.461203	-0.859619	-0.208008	0.633545	-0.121486	-0.749658	0.098147	-0.643134
52693		10.268967	-0.048799	-0.609561	-0.038203	0.215238	-0.499939	-0.864258	-0.220215	0.620361	-0.126175	-0.748453	0.093557	-0.644317
52694		10.132285	0.193047	-0.409350	0.335391	0.194598	-0.506420	-0.867432	-0.217529	0.621582	-0.127423	-0.747939	0.086002	-0.645720
52695		9.674686	0.967139	-0.428392	0.562597	0.153662	-0.422465	-0.855957	-0.216309	0.620361	-0.125757	-0.747984	0.077422	-0.647079
52696		9.597129	1.574493	-0.099200	0.408954	0.250834	-0.273763	-0.861328	-0.218018	0.613770	-0.124395	-0.746832	0.071265	-0.649376
52697		9.089896	1.681002	-0.294704	0.149391	0.291336	-0.107528	-0.867432	-0.212891	0.608154	-0.124162	-0.744759	0.068738	-0.652068
52698		9.129445	1.034575	-0.531137	0.148370	0.298549	-0.049141	-0.876465	-0.226074	0.608643	-0.123435	-0.742560	0.066741	-0.654916
52699		9.187745	0.873627	-0.806677	0.422348	0.262329	-0.039877	-0.884033	-0.211670	0.606445	-0.120137	-0.741053	0.062662	-0.657633
52700		9.086449	0.913369	-1.142732	0.644712	0.211930	-0.052724	-0.886719	-0.193115	0.601318	-0.114781	-0.740264	0.056690	-0.660015
52701		9.181428	0.869222	-1.485986	0.826920	0.147868	-0.038057	-0.890625	-0.188477	0.605469	-0.107503	-0.740184	0.049428	-0.661912
52702		9.175074	1.151070	-1.720111	0.739254	0.067597	0.034737	-0.893555	-0.171387	0.597168	-0.100417	-0.740535	0.043675	-0.663036
52703		9.027366	0.733126	-1.837115	0.343379	-0.032751	0.165960	-0.900635	-0.167969	0.605469	-0.095836	-0.741080	0.042594	-0.663175
52704		8.753304	0.367095	-1.948991	-0.024873	-0.109119	0.377560	-0.895508	-0.164062	0.611328	-0.092898	-0.741688	0.046622	-0.662642
52705		9.302605	0.409100	-1.452665	-0.398541	-0.155429	0.586218	-0.904053	-0.157227	0.616943	-0.091682	-0.742103	0.055702	-0.661646
52706		9.660978	0.626411	-0.724754	-0.582023	-0.148220	0.526921	-0.896484	-0.146729	0.614502	-0.092654	-0.742212	0.065749	-0.660465
52707		9.737506	1.106794	-1.169984	-0.059079	-0.169136	0.187680	-0.894531	-0.139893	0.623535	-0.091498	-0.743344	0.068318	-0.659091
52708		11.062177	-0.016164	-1.233386	0.348310	-0.339883	0.098012	-0.888916	-0.128906	0.628906	-0.087112	-0.746426	0.066848	-0.656347
52709		10.024379	0.381710	-1.153886	0.087812	-0.324017	0.025829	-0.891602	-0.140381	0.644531	-0.085744	-0.749126	0.066831	-0.653446
52710		9.877811	0.173216	-1.703503	0.087082	-0.304916	-0.017721	-0.879639	-0.126709	0.639648	-0.084837	-0.751695	0.066411	-0.650651
52711		9.632649	-0.506078	-1.560170	0.342704	-0.300371	-0.092839	-0.881592	-0.126953	0.647705	-0.082073	-0.754528	0.063205	-0.648040
52712		9.731327	0.184490	-1.035788	0.550338	-0.311409	-0.145390	-0.865234	-0.117920	0.659668	-0.077795	-0.757654	0.057868	-0.645414
52713		9.582436	0.472110	-1.360796	0.535172	-0.339856	-0.144829	-0.866211	-0.116211	0.671143	-0.073596	-0.760980	0.052609	-0.642437
52714		9.719286	0.381867	-2.057185	0.639749	-0.340321	-0.142147	-0.865234	-0.105225	0.683838	-0.068404	-0.764338	0.046556	-0.639485
52715		9.703770	0.371363	-2.215006	0.745429	-0.307368	-0.136374	-0.856689	-0.090576	0.691162	-0.062146	-0.767448	0.039673	-0.636857
52716		9.906844	0.839852	-2.285821	0.662698	-0.264271	-0.144502	-0.853760	-0.086914	0.702881	-0.056733	-0.770089	0.033313	-0.634535
52717		9.987546	0.786269	-2.145431	0.467635	-0.187881	-0.136215	-0.844482	-0.078613	0.700684	-0.053189	-0.771940	0.028520	-0.632824
52718		9.740818	0.539071	-2.138282	0.238077	-0.137113	-0.125925	-0.840820	-0.076172	0.704346	-0.051790	-0.773208	0.025610	-0.631515
52719		9.668577	0.538582	-2.329731	0.212410	-0.098870	-0.121006	-0.838623	-0.076660	0.714600	-0.050610	-0.774150	0.022918	-0.630559
52720		9.641693	1.034949	-2.232788	0.239517	-0.063381	-0.079439	-0.842285	-0.080078	0.713135	-0.048851	-0.774826	0.020363	-0.629956
52721		9.597224	1.138380	-1.855490	0.111145	-0.045702	-0.006465	-0.842041	-0.075928	0.716553	-0.047808	-0.775243	0.019557	-0.629547
52722		9.728882	0.711302	-1.676805	-0.128984	-0.039893	0.044327	-0.838135	-0.064209	0.714600	-0.048680	-0.775462	0.021114	-0.629161
52723		9.792998	0.123945	-2.413121	-0.024166	-0.032759	0.018287	-0.841553	-0.082520	0.710693	-0.048687	-0.775696	0.021564	-0.628856
52724		9.763831	0.418480	-2.427307	0.133516	0.043471	-0.012732	-0.835938	-0.073486	0.708740	-0.047525	-0.775419	0.020490	-0.629323
52725		9.604838	0.996005	-2.487273	0.066346	0.101560	-0.000196	-0.843506	-0.063721	0.710693	-0.046898	-0.774648	0.020006	-0.630334
52726		9.622791	0.830049	-1.975687	-0.180990	0.151137	0.053122	-0.845459	-0.072021	0.707764	-0.048224	-0.773325	0.021939	-0.631792
52727		9.732132	0.107513	-1.968804	-0.278390	0.160945	0.057886	-0.845459	-0.078125	0.705566	-0.050482	-0.771856	0.024689	-0.633308
52728		9.651650	0.527287	-2.074941	-0.213113	0.167357	0.057402	-0.854736	-0.075439	0.703613	-0.052123	-0.770372	0.026908	-0.634890
52729		9.649180	1.681629	-2.050175	-0.324214	0.159065	0.108580	-0.855469	-0.086914	0.688477	-0.054408	-0.768847	0.030506	-0.636383
52730		9.541856	1.821048	-1.575559	-0.874916	0.187589	0.237533	-0.861328	-0.089844	0.691895	-0.061006	-0.766599	0.039729	-0.637986
52731		9.641128	0.536915	-1.665055	-1.213263	0.213135	0.352261	-0.865967	-0.104980	0.685303	-0.069896	-0.763692	0.052688	-0.639619
52732		9.562034	-0.954963	-1.695506	-0.898583	0.166655	0.323142	-0.873779	-0.125244	0.669189	-0.075977	-0.761298	0.062884	-0.640858
52733		9.679605	0.396039	-1.575241	-0.626060	0.101918	0.280969	-0.864746	-0.126709	0.665283	-0.079792	-0.759609	0.070589	-0.641595
52734		9.658207	0.736677	-1.210808	-0.664136	0.116357	0.260308	-0.873291	-0.131104	0.658691	-0.084126	-0.757738	0.078365	-0.642351
52735		9.533402	-0.010237	-1.486437	-0.862198	0.097553	0.276601	-0.873535	-0.140869	0.658203	-0.090175	-0.755705	0.087901	-0.642691
52736		9.652946	-0.184831	-1.438314	-0.768006	0.097442	0.242335	-0.892578	-0.143799	0.653564	-0.095596	-0.753736	0.096337	-0.643011
52737		9.747297	0.218139	-0.992590	-0.824886	0.093852	0.240942	-0.892090	-0.156738	0.642822	-0.101541	-0.751631	0.105225	-0.643170
52738		9.588841	-0.000593	-1.543194	-0.935901	0.076039	0.231927	-0.887451	-0.168701	0.639893	-0.108578	-0.749438	0.114932	-0.642918
52739		9.561260	-0.635294	-1.661247	-0.774170	0.055680	0.147962	-0.888672	-0.174072	0.629150	-0.114730	-0.747667	0.122555	-0.642504
52740		9.712309	-1.029114	-1.608876	-0.464097	0.032570	0.041365	-0.893799	-0.179199	0.625732	-0.118792	-0.746634	0.126724	-0.642158
52741		9.887063	-1.141314	-1.528892	0.090730	0.009508	-0.108427	-0.898193	-0.187256	0.631592	-0.118838	-0.746832	0.125081	-0.642242
52742		9.524961	-0.145416	-1.162041	0.271055	-0.006769	-0.197945	-0.891357	-0.176514	0.619873	-0.117899	-0.747565	0.121176	-0.642310
52743		9.319859	0.038888	-1.716634	0.368714	-0.009117	-0.232914	-0.890869	-0.187988	0.636719	-0.116310	-0.748494	0.116166	-0.642444
52744		10.080197	0.124289	-1.235998	0.342752	0.033430	-0.272262	-0.888428	-0.178223	0.622070	-0.115344	-0.749091	0.110918	-0.642849
52745		9.721922	0.344825	-1.168628	0.250166	-0.002262	-0.262020	-0.880615	-0.180176	0.638916	-0.115103	-0.749803	0.106567	-0.642799
52746		9.423948	0.485884	-1.355164	0.228600	-0.065503	-0.216178	-0.877686	-0.186768	0.635010	-0.114604	-0.750928	0.102896	-0.642172
52747		9.397334	1.065744	-1.292482	0.235470	-0.118552	-0.141987	-0.876221	-0.185303	0.638916	-0.113381	-0.752379	0.099942	-0.641156
52748		9.638874	1.410146	-1.243788	0.116024	-0.146223	-0.046700	-0.880371	-0.182129	0.645752	-0.112480	-0.753757	0.098878	-0.639861
52749		9.802704	1.110773	-1.324440	-0.044569	-0.155536	0.036026	-0.872070	-0.183350	0.639160	-0.112417	-0.754877	0.099888	-0.638393
52750		9.709798	0.241646	-1.713276	0.008118	-0.156128	0.070013	-0.873047	-0.180664	0.650635	-0.111586	-0.756028	0.100797	-0.637032
52751		9.695530	-0.003386	-1.822919	0.303076	-0.145613	0.046520	-0.876709	-0.173584	0.656250	-0.108164	-0.757530	0.099118	-0.636101
52752		9.902430	0.623261	-1.328610	0.507717	-0.128678	0.014490	-0.872803	-0.167236	0.669434	-0.103077	-0.759190	0.095486	-0.635521
52753		9.830262	0.574323	-1.344669	0.453007	-0.152516	0.000273	-0.860107	-0.156250	0.665771	-0.098588	-0.760960	0.092174	-0.634606
52754		9.719885	0.194368	-1.617917	0.320311	-0.159634	0.000830	-0.857422	-0.150635	0.670410	-0.095345	-0.762601	0.089926	-0.633453
52755		9.607878	0.292496	-2.011057	0.265373	-0.151458	-0.011430	-0.865723	-0.148193	0.672119	-0.092730	-0.764111	0.087985	-0.632292
52756		9.620891	0.491260	-1.982964	0.186812	-0.142833	-0.002281	-0.863525	-0.146729	0.676270	-0.090806	-0.765441	0.086749	-0.631133
52757		9.677346	0.406806	-1.800096	0.019591	-0.129736	0.003295	-0.862061	-0.134766	0.683105	-0.090452	-0.766468	0.086868	-0.629920
52758		9.454337	-0.075155	-2.080294	-0.115773	-0.134718	0.026108	-0.864746	-0.140625	0.687256	-0.091203	-0.767354	0.088277	-0.628536
52759		9.329010	-0.243541	-2.269832	-0.347644	-0.142568	0.085267	-0.866943	-0.155518	0.689941	-0.093706	-0.767960	0.092085	-0.626878
52760		9.120594	-0.880194	-2.669531	-0.579059	-0.131823	0.134675	-0.855957	-0.160400	0.680908	-0.098057	-0.768122	0.098164	-0.625089
52761		9.801501	-0.169615	-2.453339	-0.265152	-0.129830	0.080105	-0.847900	-0.159180	0.685547	-0.099821	-0.768691	0.101267	-0.623614
52762		10.141365	0.728138	-1.691202	-0.055222	-0.069943	-0.019831	-0.856201	-0.163330	0.691162	-0.100418	-0.769178	0.101696	-0.622847
52763		9.666985	-0.209851	-1.827690	0.055858	-0.062649	-0.079299	-0.851318	-0.162598	0.689941	-0.100420	-0.769821	0.100679	-0.622218
52764		9.800824	-0.351070	-2.179890	0.341537	-0.041405	-0.181676	-0.850342	-0.153809	0.697021	-0.098495	-0.770777	0.096428	-0.622016
52765		9.461658	0.113538	-2.786477	0.399067	0.032539	-0.242261	-0.846436	-0.157227	0.693115	-0.096569	-0.771281	0.091053	-0.622503
52766		9.402889	0.371862	-2.211837	0.301375	0.086501	-0.264113	-0.847900	-0.150635	0.692627	-0.095817	-0.771249	0.086162	-0.623354
52767		9.628917	0.382490	-1.673534	0.329463	0.084794	-0.279961	-0.847900	-0.152344	0.693604	-0.094911	-0.771260	0.080900	-0.624183
52768		9.659521	1.121984	-1.717840	0.380473	0.066343	-0.273659	-0.850586	-0.153320	0.695068	-0.093442	-0.771446	0.075318	-0.624874
52769		9.551541	1.537855	-2.086481	0.095731	0.067710	-0.202103	-0.844727	-0.158936	0.697266	-0.094159	-0.771204	0.072644	-0.625381
52770		9.620491	0.806721	-2.261466	-0.124976	0.093455	-0.142807	-0.845459	-0.162354	0.687988	-0.096563	-0.770445	0.072228	-0.625998
52771		9.711310	0.407800	-2.038802	-0.094180	0.128418	-0.148429	-0.846436	-0.169189	0.687500	-0.098746	-0.769447	0.071477	-0.626971
52772		9.630056	0.304587	-1.923894	-0.042855	0.169391	-0.195194	-0.852783	-0.172607	0.683594	-0.100838	-0.768227	0.069821	-0.628319
52773		9.580345	1.135781	-2.031943	-0.074747	0.182654	-0.227405	-0.850342	-0.186279	0.684326	-0.103500	-0.766880	0.068093	-0.629719
52774		9.580729	1.138281	-1.581284	-0.570175	0.178094	-0.225039	-0.853027	-0.186035	0.672119	-0.110885	-0.764899	0.070282	-0.630630
52775		9.673607	-0.138354	-1.256057	-0.894385	0.154501	-0.331113	-0.854736	-0.207275	0.662354	-0.122167	-0.762666	0.074042	-0.630820
52776		9.667468	-0.886780	-1.241869	-0.587878	0.088283	-0.526156	-0.853760	-0.237061	0.651123	-0.131991	-0.761509	0.073624	-0.630288
52777		9.607900	0.397430	-1.394300	-0.275057	0.044527	-0.703164	-0.850586	-0.251465	0.659668	-0.140190	-0.761301	0.069133	-0.629276
52778		9.261803	1.025451	-1.225659	-0.385910	-0.032371	-0.775098	-0.838379	-0.273438	0.649658	-0.149918	-0.761493	0.064950	-0.627244
52779		9.360078	1.884826	-1.215022	-0.591719	-0.069997	-0.783259	-0.822021	-0.300781	0.644775	-0.161622	-0.761497	0.062369	-0.624588
52780		9.405661	1.039313	-1.834623	-0.509741	-0.101924	-0.802467	-0.820068	-0.329834	0.643066	-0.172647	-0.761823	0.059010	-0.621560
52781		9.572527	1.778057	-1.246713	-0.442958	-0.118195	-0.851705	-0.806396	-0.352051	0.642090	-0.183388	-0.762344	0.054698	-0.618231
52782		9.147248	2.102252	-1.373733	-0.439869	-0.149858	-0.860777	-0.797852	-0.367920	0.638184	-0.194116	-0.763013	0.050333	-0.614488
52783		9.437056	2.542489	-1.583030	-0.408372	-0.164930	-0.844340	-0.786133	-0.399170	0.642334	-0.204374	-0.763753	0.045921	-0.610577
52784		9.238491	2.727009	-1.846457	-0.287653	-0.160991	-0.813475	-0.777100	-0.418945	0.637207	-0.213223	-0.764657	0.040852	-0.606767
52785		9.066456	2.951992	-1.958504	-0.251840	-0.114994	-0.784665	-0.757812	-0.435059	0.630859	-0.221518	-0.765202	0.035674	-0.603427
52786		9.105381	3.200852	-1.980017	-0.261657	-0.104718	-0.765988	-0.754883	-0.449463	0.628662	-0.229748	-0.765554	0.030711	-0.600166
52787		9.069521	3.281869	-1.410745	-0.296254	-0.082556	-0.762886	-0.734863	-0.473389	0.629639	-0.238266	-0.765557	0.025989	-0.597057
52788		8.914788	3.219498	-1.754624	-0.274559	-0.076557	-0.786970	-0.740479	-0.486816	0.626221	-0.246734	-0.765512	0.020826	-0.593869
52789		8.970551	2.918498	-1.956226	-0.123658	-0.068401	-0.799146	-0.719971	-0.502686	0.630859	-0.253822	-0.765788	0.014431	-0.590708
52790		8.740550	3.745163	-2.024996	-0.013063	-0.052935	-0.806242	-0.707764	-0.517090	0.638184	-0.259875	-0.766232	0.007076	-0.587626
52791		8.929660	3.919110	-1.751596	-0.037615	-0.015145	-0.772295	-0.691162	-0.536865	0.634033	-0.265889	-0.766244	0.000095	-0.584956
52792		8.695333	3.852124	-1.460350	-0.133061	-0.008402	-0.769592	-0.680664	-0.541016	0.627686	-0.272783	-0.765816	-0.006182	-0.582303
52793		8.512766	4.052614	-1.679611	-0.054050	-0.029107	-0.768541	-0.658447	-0.554932	0.634277	-0.278884	-0.765736	-0.012941	-0.579400
52794		8.386176	4.941679	-2.085335	0.073300	0.003147	-0.759927	-0.653076	-0.571533	0.629883	-0.283662	-0.765799	-0.020674	-0.576767
52795		8.528799	4.652354	-2.490733	0.129604	0.066003	-0.714296	-0.640869	-0.578369	0.637451	-0.287542	-0.765553	-0.028581	-0.574832
52796		8.530535	5.003766	-2.024064	0.070782	0.131342	-0.655432	-0.640137	-0.593262	0.630127	-0.291510	-0.764590	-0.035744	-0.573713
52797		8.511986	4.938426	-1.751842	0.001942	0.144368	-0.579646	-0.623779	-0.597168	0.629883	-0.295577	-0.763269	-0.041721	-0.572987
52798		8.324960	5.020072	-1.410548	0.046785	0.122242	-0.511269	-0.617432	-0.601318	0.625732	-0.298721	-0.762271	-0.047289	-0.572252
52799		8.000616	5.685044	-1.176862	0.095073	0.082375	-0.465814	-0.615479	-0.603027	0.627930	-0.301090	-0.761735	-0.052621	-0.571258
52800		8.103044	5.715229	-1.419709	0.089212	0.040585	-0.400740	-0.610107	-0.613525	0.628906	-0.303059	-0.761494	-0.057147	-0.570102
52801		8.084895	5.873955	-1.180573	0.051734	0.001355	-0.327201	-0.602539	-0.613770	0.631348	-0.304889	-0.761427	-0.060549	-0.568863
52802		7.996427	5.620433	-1.276987	0.021396	-0.039961	-0.269071	-0.597168	-0.615967	0.631104	-0.306618	-0.761571	-0.063032	-0.567470
52803		8.128036	5.635425	-1.383135	0.048162	-0.074792	-0.230791	-0.597412	-0.617920	0.636719	-0.307843	-0.762086	-0.065209	-0.565867
52804		7.975123	6.009489	-1.543102	-0.002815	-0.077715	-0.173882	-0.589355	-0.619141	0.638428	-0.309145	-0.762466	-0.066482	-0.564496
52805		8.093400	5.362277	-1.821473	-0.068872	-0.072701	-0.123002	-0.585449	-0.625977	0.638428	-0.310713	-0.762593	-0.066824	-0.563422
52806		7.987451	5.399502	-1.836914	0.010843	-0.069767	-0.105350	-0.573975	-0.625244	0.637695	-0.311399	-0.763022	-0.067563	-0.562373
52807		7.933855	5.550260	-1.856384	0.060820	-0.057009	-0.090127	-0.590332	-0.622559	0.635010	-0.311495	-0.763568	-0.068551	-0.561459
52808		7.904337	5.631557	-1.753267	0.069768	-0.049939	-0.075505	-0.583252	-0.631104	0.644531	-0.311382	-0.764108	-0.069507	-0.560668
52809		8.047410	5.311889	-1.766881	0.064259	-0.049208	-0.064207	-0.577637	-0.625488	0.640137	-0.311250	-0.764632	-0.070311	-0.559926
52810		8.086678	5.526263	-2.020260	0.100940	-0.024524	-0.063864	-0.573486	-0.616699	0.647949	-0.310744	-0.765124	-0.071462	-0.559389
52811		8.075175	5.678857	-2.149195	0.058303	0.033135	-0.043591	-0.572754	-0.622314	0.640869	-0.310439	-0.765064	-0.072360	-0.559525
52812		8.005254	5.640066	-2.094930	0.023066	0.084757	-0.021834	-0.572998	-0.622070	0.641357	-0.310286	-0.764526	-0.072987	-0.560264
52813		7.951479	5.532779	-1.886441	0.036684	0.119678	-0.004312	-0.573486	-0.622803	0.640625	-0.309846	-0.763811	-0.073679	-0.561391
52814		7.929295	5.558281	-1.756193	0.068495	0.132575	0.003786	-0.577881	-0.625000	0.647461	-0.309035	-0.763134	-0.074562	-0.562640
52815		8.024250	5.645382	-1.822968	0.078740	0.150110	0.024857	-0.585449	-0.618896	0.641357	-0.307959	-0.762390	-0.075388	-0.564128
52816		8.023541	5.633114	-1.839187	0.057880	0.173295	0.057207	-0.585205	-0.620605	0.636963	-0.306824	-0.761427	-0.075854	-0.565980
52817		8.113360	5.505421	-1.722761	0.050418	0.189261	0.091742	-0.593994	-0.617432	0.628662	-0.305507	-0.760352	-0.075989	-0.568115
52818		8.143467	5.525108	-1.467865	0.025225	0.177569	0.125664	-0.596436	-0.614502	0.625244	-0.304198	-0.759291	-0.075576	-0.570289
52819		8.114846	5.529727	-1.360346	0.014002	0.157183	0.165421	-0.594971	-0.614258	0.628662	-0.302729	-0.758363	-0.074627	-0.572426
52820		7.997042	5.548481	-1.350819	0.023753	0.132527	0.197392	-0.598633	-0.604004	0.631348	-0.300963	-0.757672	-0.073348	-0.574434
52821		8.170653	5.433135	-1.287302	0.009122	0.097867	0.251780	-0.614990	-0.614014	0.628906	-0.298963	-0.757216	-0.071331	-0.576330
52822		8.147160	5.750895	-1.351091	0.002460	0.072746	0.310809	-0.608887	-0.595459	0.629395	-0.296631	-0.756958	-0.068596	-0.578203
52823		8.105661	5.483723	-1.493488	-0.003488	0.052876	0.379669	-0.624023	-0.594971	0.634521	-0.293857	-0.756865	-0.065110	-0.580141
52824		8.368145	5.175045	-1.307709	-0.007583	0.041532	0.434305	-0.637451	-0.586182	0.631348	-0.290725	-0.756863	-0.061037	-0.582161
52825		8.161061	5.407503	-1.574230	0.050840	0.034602	0.487927	-0.647949	-0.584473	0.624756	-0.286640	-0.757138	-0.056860	-0.584249
52826		8.190939	5.684892	-1.545190	0.108646	0.039098	0.540091	-0.646484	-0.570801	0.623779	-0.281624	-0.757592	-0.052608	-0.586494
52827		8.637225	5.102648	-1.355229	0.007642	0.047317	0.636014	-0.666748	-0.569824	0.626465	-0.276841	-0.757651	-0.046738	-0.589186
52828		8.476727	4.895280	-1.629003	-0.026918	0.030149	0.705699	-0.672607	-0.548584	0.624512	-0.271868	-0.757703	-0.039881	-0.591932
52829		8.743155	4.708055	-1.239983	-0.028899	0.034714	0.794493	-0.687988	-0.533203	0.626953	-0.266217	-0.757691	-0.032199	-0.594976
52830		8.592020	5.125623	-1.143679	-0.096207	0.025652	0.867254	-0.692383	-0.530762	0.618408	-0.260626	-0.757468	-0.023304	-0.598141
52831		8.757964	4.354836	-1.281597	-0.210955	0.027234	0.954688	-0.708008	-0.513184	0.615479	-0.255462	-0.756782	-0.012697	-0.601547
52832		8.585910	4.267092	-1.444896	-0.198488	0.016865	0.992741	-0.723389	-0.511475	0.608887	-0.249846	-0.756102	-0.001797	-0.604884
52833		8.592465	4.163573	-1.372876	-0.078171	-0.030981	1.044131	-0.753662	-0.486084	0.616699	-0.242691	-0.756031	0.008859	-0.607816
52834		8.916832	4.209837	-1.641591	-0.081197	-0.045496	1.132618	-0.749023	-0.455566	0.612793	-0.234815	-0.755909	0.020394	-0.610776
52835		9.032807	3.597946	-1.627023	-0.122087	-0.013473	1.220218	-0.778809	-0.446289	0.610352	-0.226599	-0.755238	0.032941	-0.614152
52836		8.997151	2.997688	-1.619810	-0.032726	-0.005217	1.271183	-0.793945	-0.414062	0.614014	-0.217121	-0.754545	0.045290	-0.617632
52837		9.066787	2.082599	-1.399926	-0.012130	0.037801	1.283216	-0.806885	-0.392822	0.615234	-0.207301	-0.753378	0.057440	-0.621408
52838		9.099225	1.747806	-1.115523	0.023726	0.004548	1.240636	-0.826904	-0.379150	0.607910	-0.197413	-0.752404	0.068994	-0.624624
52839		9.281756	1.584956	-1.055869	0.137728	-0.045089	1.219027	-0.840088	-0.350098	0.605957	-0.186562	-0.751929	0.079596	-0.627266
52840		9.601114	1.600781	-1.738128	0.376524	-0.081359	1.172140	-0.850342	-0.315430	0.617188	-0.173737	-0.752166	0.087931	-0.629547
52841		9.459589	0.936649	-1.572164	0.408908	-0.022108	1.120425	-0.858643	-0.288086	0.613281	-0.161025	-0.751897	0.095356	-0.632162
52842		9.596782	0.636149	-1.359733	0.215356	-0.014636	1.069312	-0.868652	-0.265625	0.622314	-0.150513	-0.751086	0.103796	-0.634383
52843		9.570490	0.665793	-1.095763	-0.096752	-0.034571	1.037764	-0.870361	-0.243896	0.626953	-0.143128	-0.749753	0.114435	-0.635837
52844		9.599809	0.462834	-0.982562	-0.075347	-0.117221	0.982544	-0.874756	-0.226074	0.623779	-0.135839	-0.749072	0.124514	-0.636345
52845		9.742173	-0.408505	-0.763588	-0.062610	-0.171692	0.870098	-0.888672	-0.207520	0.626709	-0.129222	-0.748915	0.133516	-0.636083
52846		9.463699	-1.085373	-1.374669	-0.097570	-0.229571	0.708731	-0.885254	-0.191406	0.632080	-0.124105	-0.749351	0.141366	-0.634892
52847		9.502015	-1.220103	-2.138748	-0.054248	-0.207828	0.535682	-0.882568	-0.184570	0.641113	-0.119985	-0.749932	0.147212	-0.633667
52848		9.517533	-1.157534	-2.166665	-0.069296	-0.138987	0.395760	-0.890381	-0.163818	0.641113	-0.117238	-0.750173	0.151761	-0.632823
52849		9.506471	-1.248889	-1.865569	-0.018657	-0.106928	0.239980	-0.891846	-0.166016	0.641846	-0.115308	-0.750514	0.154403	-0.632134
52850		9.594176	-1.652182	-1.910450	0.171584	-0.092843	0.060744	-0.883789	-0.159668	0.646973	-0.113036	-0.751356	0.153842	-0.631680
52851		9.605782	-1.401565	-2.031437	0.284274	-0.074620	-0.107282	-0.886719	-0.166016	0.641602	-0.111067	-0.752528	0.150792	-0.631369
52852		9.647166	-0.733901	-1.975283	0.309664	-0.058794	-0.212526	-0.881836	-0.157227	0.650146	-0.109719	-0.753795	0.146531	-0.631097
52853		9.742279	-0.102104	-1.939412	0.173565	-0.007273	-0.237586	-0.884277	-0.161621	0.653076	-0.109944	-0.754501	0.143036	-0.631016
52854		9.561091	0.387373	-1.951145	0.011299	0.027769	-0.226973	-0.884766	-0.163330	0.654541	-0.111677	-0.754681	0.140872	-0.630983
52855		9.503070	0.073504	-1.806204	-0.078637	0.045851	-0.214380	-0.885010	-0.172119	0.653809	-0.114189	-0.754565	0.139507	-0.630975
52856		9.597181	0.131525	-1.683551	-0.105565	0.056556	-0.208806	-0.878662	-0.178223	0.646729	-0.116929	-0.754311	0.138390	-0.631023
52857		9.634572	-0.144751	-1.690010	-0.078156	0.054786	-0.218089	-0.876709	-0.188721	0.648682	-0.119480	-0.754120	0.136971	-0.631084
52858		9.819514	-0.089263	-1.626860	0.015420	0.033536	-0.229166	-0.878662	-0.187012	0.651855	-0.121199	-0.754249	0.134740	-0.631082
52859		9.646440	0.324218	-1.480849	0.027168	0.024105	-0.220990	-0.873779	-0.190186	0.650391	-0.122726	-0.754451	0.132507	-0.631018
52860		9.732989	0.012520	-1.574502	-0.007311	0.008177	-0.227787	-0.879883	-0.206299	0.642578	-0.124604	-0.754731	0.130505	-0.630732
52861		9.667775	-0.035491	-1.618484	0.086321	-0.003619	-0.269251	-0.879395	-0.193115	0.643555	-0.125906	-0.755310	0.127391	-0.630418
52862		9.414172	0.311846	-1.665064	0.153919	-0.003080	-0.295801	-0.872803	-0.208008	0.643555	-0.126777	-0.756022	0.123492	-0.630165
52863		9.593361	0.639660	-1.802317	0.155661	-0.003930	-0.282723	-0.870605	-0.210449	0.642578	-0.127526	-0.756712	0.119702	-0.629917
52864		9.682394	1.029874	-1.950944	-0.055221	0.035542	-0.234682	-0.864746	-0.213379	0.642822	-0.129948	-0.756674	0.117961	-0.629796
52865		9.613655	0.609635	-1.764703	-0.325286	0.075543	-0.217355	-0.868652	-0.219971	0.641846	-0.134845	-0.755845	0.118442	-0.629672
52866		9.720995	-0.603069	-1.493291	-0.397278	0.111488	-0.312926	-0.864014	-0.241699	0.639893	-0.141222	-0.754728	0.118521	-0.629599
52867		9.709476	-0.502623	-1.442226	-0.281172	0.125245	-0.507687	-0.862793	-0.241455	0.634277	-0.148052	-0.753959	0.115822	-0.629453
52868		9.478115	-0.148687	-1.223831	-0.102561	0.076138	-0.662360	-0.862549	-0.265137	0.630371	-0.154334	-0.754084	0.110349	-0.628778
52869		9.343820	0.301272	-1.253793	0.078735	0.002065	-0.767250	-0.848145	-0.283936	0.627197	-0.159619	-0.755224	0.102600	-0.627401
52870		9.250722	0.766046	-1.597520	0.450334	-0.056198	-0.836451	-0.841797	-0.288330	0.634033	-0.161847	-0.757564	0.091388	-0.625740
52871		9.315624	0.973440	-2.106976	0.806072	-0.065087	-0.859660	-0.837158	-0.297363	0.643311	-0.160848	-0.760586	0.077177	-0.624244
52872		9.721388	2.165202	-2.112167	0.716814	0.004662	-0.872469	-0.827637	-0.295898	0.652344	-0.160832	-0.762741	0.063386	-0.623170
52873		9.799940	2.196574	-1.450302	0.141782	0.001282	-0.868343	-0.819092	-0.316895	0.647949	-0.166233	-0.763646	0.054105	-0.621518
52874		9.388580	1.042800	-1.403067	-0.266501	-0.028429	-0.907307	-0.804443	-0.334961	0.648438	-0.175797	-0.763860	0.047680	-0.619145
52875		9.343911	1.722225	-1.474839	-0.152965	-0.081393	-0.941017	-0.794434	-0.360596	0.646729	-0.184477	-0.764648	0.040160	-0.616172
52876		9.441485	3.286596	-1.404286	0.003576	-0.115264	-0.918092	-0.777100	-0.377441	0.656006	-0.191446	-0.765942	0.031729	-0.612923
52877		9.106547	2.238408	-1.498693	-0.155849	-0.121828	-0.926356	-0.771484	-0.399658	0.650146	-0.199970	-0.766808	0.024434	-0.609442
52878		9.163151	2.337374	-1.871117	-0.321215	-0.144102	-1.017451	-0.758301	-0.419434	0.650146	-0.210739	-0.767333	0.017591	-0.605376
52879		8.920160	2.854838	-1.675873	-0.382652	-0.122563	-1.045893	-0.736328	-0.437988	0.653320	-0.222275	-0.767396	0.010880	-0.601314
52880		8.794924	3.318848	-1.610304	-0.390176	-0.121600	-1.036819	-0.732910	-0.464355	0.649902	-0.233761	-0.767287	0.004291	-0.597167
52881		8.839127	3.447820	-1.829058	-0.261229	-0.129871	-1.037762	-0.707764	-0.491943	0.643555	-0.243979	-0.767468	-0.003229	-0.592837
