// Start Time: Unknown
// Update Rate: 60.0Hz
// Filter Profile: human (46.1)
// Firmware Version: 4.6.0
PacketCounter	SampleTimeFine	Acc_X	Acc_Y	Acc_Z	Gyr_X	Gyr_Y	Gyr_Z	Mag_X	Mag_Y	Mag_Z	Quat_q0	Quat_q1	Quat_q2	Quat_q3
36942		0.344812	-9.583345	-1.815943	0.004655	0.008985	-0.001202	-0.190186	0.944092	0.493652	0.318684	-0.408435	0.652864	-0.552621
36943		0.332269	-9.574860	-1.829547	-0.000106	0.004625	0.002560	-0.193115	0.949219	0.488037	0.318670	-0.408400	0.652886	-0.552630
36944		0.311800	-9.559706	-1.832580	0.002625	0.004754	0.004580	-0.193848	0.945801	0.489746	0.318675	-0.408343	0.652897	-0.552656
36945		0.318745	-9.553841	-1.851453	-0.008089	0.002855	0.002670	-0.193359	0.936035	0.486084	0.318644	-0.408336	0.652951	-0.552614
36946		0.327819	-9.602258	-1.876453	-0.015848	0.007246	0.005478	-0.192139	0.944092	0.482422	0.318576	-0.408315	0.653063	-0.552537
36947		0.352544	-9.619038	-1.850340	-0.008441	0.008836	0.004413	-0.195801	0.941895	0.489502	0.318520	-0.408273	0.653142	-0.552506
36948		0.326840	-9.651580	-1.848417	-0.003020	0.003714	0.003148	-0.186035	0.950684	0.493652	0.318503	-0.408248	0.653180	-0.552491
36949		0.359113	-9.638021	-1.854198	0.003636	0.001842	0.003114	-0.186768	0.952881	0.483887	0.318519	-0.408213	0.653182	-0.552505
36950		0.338903	-9.610569	-1.864029	0.010216	0.007123	0.000910	-0.190430	0.944824	0.491455	0.318517	-0.408150	0.653160	-0.552578
36951		0.304260	-9.557477	-1.859388	0.012218	0.008823	-0.000144	-0.179688	0.948486	0.492432	0.318508	-0.408080	0.653132	-0.552668
36952		0.284327	-9.530014	-1.869264	0.001228	0.005756	0.001857	-0.194580	0.945801	0.488525	0.318487	-0.408042	0.653156	-0.552680
36953		0.271354	-9.583708	-1.844871	-0.003365	0.007190	0.004261	-0.193115	0.943848	0.486084	0.318456	-0.407995	0.653217	-0.552660
36954		0.285647	-9.634239	-1.844068	-0.007522	0.005538	0.004246	-0.183838	0.947510	0.488281	0.318422	-0.407965	0.653296	-0.552608
36955		0.330672	-9.629123	-1.836489	-0.000344	0.003475	0.001116	-0.189453	0.946289	0.493164	0.318413	-0.407939	0.653329	-0.552594
36956		0.336024	-9.568811	-1.849960	0.003905	0.005517	-0.000173	-0.196533	0.940430	0.490234	0.318401	-0.407901	0.653342	-0.552613
36957		0.296048	-9.575889	-1.832548	0.006396	0.004498	0.000406	-0.192383	0.948730	0.498779	0.318403	-0.407860	0.653343	-0.552642
36958		0.278255	-9.615407	-1.839576	0.004824	0.002218	-0.000335	-0.191895	0.951172	0.485840	0.318413	-0.407835	0.653348	-0.552647
36959		0.320500	-9.625710	-1.883847	-0.003919	-0.000505	0.001427	-0.187256	0.950439	0.479248	0.318422	-0.407828	0.653393	-0.552596
36960		0.348723	-9.590088	-1.826892	-0.002499	0.003524	0.000047	-0.184326	0.944092	0.488281	0.318407	-0.407801	0.653438	-0.552571
36961		0.368931	-9.617684	-1.816299	-0.002737	0.002377	-0.001396	-0.193848	0.952393	0.489014	0.318386	-0.407797	0.653477	-0.552539
36962		0.338952	-9.611043	-1.861574	0.000270	0.003675	-0.003287	-0.186523	0.948242	0.478760	0.318360	-0.407794	0.653497	-0.552534
36963		0.326640	-9.639915	-1.852033	0.004809	0.007229	0.000918	-0.187988	0.945068	0.484619	0.318348	-0.407726	0.653515	-0.552569
36964		0.304579	-9.570339	-1.849529	0.008973	0.006374	0.000307	-0.188477	0.946289	0.487549	0.318348	-0.407665	0.653512	-0.552618
36965		0.330008	-9.537871	-1.851155	0.005138	0.008764	0.001054	-0.192383	0.945557	0.490479	0.318327	-0.407603	0.653539	-0.552643
36966		0.304659	-9.558115	-1.856043	-0.005184	0.006268	0.002700	-0.190674	0.942139	0.481689	0.318284	-0.407583	0.653613	-0.552595
36967		0.301329	-9.622990	-1.879032	-0.011250	0.003306	0.002431	-0.193359	0.950195	0.485840	0.318237	-0.407577	0.653699	-0.552526
36968		0.301152	-9.660052	-1.857492	-0.008558	-0.001943	-0.000850	-0.199463	0.946289	0.489990	0.318217	-0.407611	0.653757	-0.552443
36969		0.319396	-9.633076	-1.842221	0.003783	-0.002756	-0.004798	-0.186523	0.947266	0.487061	0.318208	-0.407659	0.653738	-0.552435
36970		0.266891	-9.606746	-1.853907	0.011632	-0.001403	0.001758	-0.187256	0.948242	0.493164	0.318279	-0.407611	0.653722	-0.552449
36971		0.279584	-9.590791	-1.853279	0.013842	-0.006441	-0.003782	-0.194580	0.947998	0.489990	0.318360	-0.407626	0.653675	-0.552446
36972		0.337746	-9.607084	-1.821750	0.006089	-0.004555	-0.001609	-0.181641	0.941162	0.491211	0.318401	-0.407649	0.653660	-0.552424
36973		0.385573	-9.606895	-1.848622	-0.000451	-0.009810	-0.004761	-0.184326	0.939697	0.487549	0.318452	-0.407709	0.653667	-0.552342
36974		0.343664	-9.571718	-1.819522	0.003612	-0.008549	-0.003442	-0.192871	0.947998	0.489258	0.318501	-0.407747	0.653647	-0.552309
36975		0.359587	-9.564969	-1.752830	-0.001464	-0.006902	-0.003296	-0.198486	0.944336	0.486084	0.318517	-0.407812	0.653646	-0.552252
36976		0.309158	-9.580470	-1.778479	-0.003236	-0.004950	-0.000175	-0.192139	0.943604	0.491455	0.318504	-0.407868	0.653640	-0.552226
36977		0.363594	-9.624076	-1.794252	-0.007340	-0.006234	0.003861	-0.191650	0.954834	0.489258	0.318523	-0.407916	0.653689	-0.552122
36978		0.435719	-9.653162	-1.787139	-0.009087	0.000752	0.002878	-0.190918	0.943115	0.485352	0.318522	-0.407913	0.653758	-0.552042
36979		0.493613	-9.619043	-1.789699	-0.011647	0.006414	-0.000500	-0.183350	0.951660	0.482178	0.318437	-0.407912	0.653820	-0.552019
36980		0.465924	-9.596771	-1.784435	-0.016526	0.009182	0.006443	-0.187988	0.953125	0.490723	0.318406	-0.407821	0.653940	-0.551963
36981		0.361488	-9.548006	-1.847970	-0.012825	0.006377	0.012353	-0.194824	0.947998	0.491211	0.318401	-0.407759	0.654060	-0.551869
36982		0.228754	-9.539676	-1.865253	-0.013041	0.015614	0.017466	-0.194092	0.952637	0.487061	0.318314	-0.407665	0.654207	-0.551814
36983		0.201527	-9.559391	-1.872993	-0.022917	0.020072	0.013834	-0.187012	0.945801	0.489502	0.318177	-0.407560	0.654391	-0.551752
36984		0.300558	-9.584884	-1.891851	-0.034359	0.019744	0.008828	-0.188232	0.944824	0.490723	0.318006	-0.407508	0.654641	-0.551593
36985		0.377756	-9.615250	-1.863787	-0.032035	0.025474	0.008535	-0.187988	0.944580	0.488770	0.317800	-0.407435	0.654896	-0.551462
36986		0.303867	-9.634724	-1.846939	-0.036558	0.017238	0.012461	-0.188965	0.942627	0.496826	0.317645	-0.407380	0.655156	-0.551284
36987		0.304765	-9.638546	-1.886949	-0.020573	0.015764	0.011018	-0.190674	0.946533	0.489990	0.317525	-0.407342	0.655360	-0.551139
36988		0.288813	-9.599863	-1.883323	-0.011919	0.018097	0.010578	-0.183838	0.938477	0.484863	0.317429	-0.407232	0.655494	-0.551116
36989		0.311187	-9.537364	-1.867159	-0.006559	0.017629	0.006531	-0.179932	0.939209	0.498047	0.317375	-0.407094	0.655594	-0.551129
36990		0.290696	-9.571649	-1.841778	-0.019414	0.010779	0.002255	-0.186768	0.946533	0.490234	0.317312	-0.407108	0.655786	-0.550928
36991		0.255198	-9.586977	-1.900531	-0.033034	0.002967	-0.000374	-0.191650	0.955322	0.497803	0.317213	-0.407160	0.655949	-0.550752
36992		0.209523	-9.615782	-1.899015	-0.034982	-0.003391	0.003455	-0.188477	0.951172	0.490967	0.317143	-0.407263	0.656123	-0.550509
36993		0.256204	-9.639555	-1.915517	-0.022687	-0.001723	0.005520	-0.182129	0.939453	0.493408	0.317139	-0.407261	0.656237	-0.550376
36994		0.302545	-9.670798	-2.025750	-0.009355	0.007094	0.003292	-0.185303	0.945312	0.494141	0.317138	-0.407221	0.656347	-0.550276
36995		0.255155	-9.646127	-2.013860	0.008799	0.020634	0.001381	-0.194092	0.940918	0.491455	0.317104	-0.407082	0.656392	-0.550345
36996		0.178188	-9.595420	-1.956927	0.016266	0.020082	0.003767	-0.191895	0.945068	0.494385	0.317009	-0.406950	0.656383	-0.550508
36997		0.211882	-9.500324	-1.910124	0.014699	0.015302	0.002386	-0.190186	0.940430	0.492432	0.316969	-0.406848	0.656382	-0.550607
36998		0.234371	-9.532854	-1.933783	-0.003660	0.008169	-0.000613	-0.198730	0.941895	0.491211	0.316893	-0.406839	0.656444	-0.550584
36999		0.282198	-9.619761	-1.908470	-0.010686	0.005645	-0.005424	-0.187744	0.947266	0.490479	0.316707	-0.406911	0.656481	-0.550593
37000		0.310630	-9.666256	-1.902415	-0.011567	-0.003564	-0.008407	-0.193604	0.950928	0.499023	0.316697	-0.406960	0.656510	-0.550527
37001		0.326550	-9.691761	-1.917181	0.000406	-0.005926	-0.007099	-0.188232	0.951172	0.489014	0.316688	-0.407062	0.656497	-0.550473
37002		0.282561	-9.672104	-1.938483	0.029555	-0.004353	-0.009382	-0.181396	0.943359	0.491455	0.316832	-0.406986	0.656314	-0.550666
37003		0.291895	-9.642632	-1.965083	0.058793	-0.002402	-0.012985	-0.185791	0.944092	0.486572	0.317084	-0.406862	0.656040	-0.550937
37004		0.330173	-9.540859	-1.954991	0.055260	-0.006366	-0.018062	-0.195801	0.946045	0.488281	0.317278	-0.406780	0.655723	-0.551264
37005		0.305211	-9.532936	-1.932206	0.042103	-0.009404	-0.017187	-0.190430	0.942139	0.486084	0.317336	-0.406809	0.655440	-0.551546
37006		0.301828	-9.581871	-1.920921	0.025767	-0.019518	-0.013060	-0.188232	0.938232	0.484131	0.317461	-0.406882	0.655238	-0.551660
37007		0.333533	-9.576640	-1.880400	0.013893	-0.031810	-0.014063	-0.188965	0.944092	0.488281	0.317616	-0.407041	0.655063	-0.551661
37008		0.321868	-9.593275	-1.877401	0.009215	-0.035787	-0.011625	-0.188721	0.944824	0.492676	0.317803	-0.407239	0.654913	-0.551586
37009		0.344841	-9.638523	-1.892100	0.019704	-0.040052	-0.012399	-0.188232	0.945068	0.481445	0.318045	-0.407471	0.654720	-0.551504
37010		0.292707	-9.650089	-1.878053	0.031063	-0.032592	-0.009581	-0.186279	0.950684	0.489746	0.318312	-0.407512	0.654449	-0.551640
37011		0.281747	-9.610100	-1.806167	0.039971	-0.024090	-0.012708	-0.191162	0.950195	0.494141	0.318595	-0.407567	0.654185	-0.551750
37012		0.336281	-9.600322	-1.810460	0.035598	-0.021870	-0.018285	-0.192871	0.944336	0.484863	0.318750	-0.407727	0.653937	-0.551836
37013		0.353967	-9.569559	-1.753958	0.032884	-0.011617	-0.013763	-0.196777	0.952148	0.490234	0.318815	-0.407765	0.653709	-0.552041
37014		0.360781	-9.597043	-1.709430	0.021870	-0.007167	-0.009887	-0.194092	0.948730	0.495850	0.318822	-0.407836	0.653553	-0.552169
37015		0.354381	-9.590999	-1.694984	0.025072	-0.004744	-0.004987	-0.192383	0.944092	0.482422	0.318862	-0.407915	0.653452	-0.552207
37016		0.355233	-9.579189	-1.698987	0.021740	0.002464	-0.006091	-0.191650	0.944580	0.488037	0.318863	-0.407861	0.653325	-0.552396
37017		0.398391	-9.577506	-1.748507	0.009816	0.007716	-0.002673	-0.187744	0.947021	0.489502	0.318816	-0.407844	0.653313	-0.552451
37018		0.403552	-9.575043	-1.825451	0.011469	0.012890	-0.002620	-0.187012	0.950195	0.483887	0.318807	-0.407782	0.653322	-0.552490
37019		0.353715	-9.578685	-1.856327	0.013256	0.021330	0.000801	-0.185059	0.951172	0.478516	0.318810	-0.407593	0.653320	-0.552632
37020		0.319670	-9.575249	-1.821351	0.002733	0.020206	-0.003719	-0.193115	0.944580	0.491699	0.318799	-0.407400	0.653325	-0.552774
37021		0.363062	-9.573179	-1.873142	-0.000920	0.013334	-0.002715	-0.189697	0.956055	0.487061	0.318658	-0.407443	0.653395	-0.552741
37022		0.381011	-9.678355	-1.875920	-0.001229	0.006785	-0.004095	-0.184814	0.942871	0.489014	0.318660	-0.407414	0.653401	-0.552754
37023		0.392145	-9.682106	-1.825685	0.009507	0.001162	-0.004053	-0.189697	0.951416	0.479980	0.318721	-0.407430	0.653404	-0.552703
37024		0.377922	-9.594606	-1.848327	0.020899	-0.001391	-0.003744	-0.186768	0.951660	0.493896	0.318822	-0.407325	0.653264	-0.552887
37025		0.363262	-9.569435	-1.831397	0.020292	-0.004089	0.000038	-0.179932	0.950684	0.486328	0.318981	-0.407348	0.653213	-0.552840
37026		0.282818	-9.559010	-1.810870	0.017041	-0.004025	0.001115	-0.191895	0.951660	0.479004	0.319215	-0.407262	0.653172	-0.552816
37027		0.252248	-9.602669	-1.823355	0.003506	-0.003930	-0.000881	-0.191895	0.947510	0.489502	0.319239	-0.407208	0.653111	-0.552914
37028		0.292124	-9.620614	-1.824309	-0.002430	-0.001111	0.002853	-0.194580	0.939453	0.475098	0.319227	-0.407274	0.653153	-0.552823
37029		0.315013	-9.607911	-1.775885	0.006481	0.004879	-0.000918	-0.191895	0.947021	0.486328	0.319118	-0.407197	0.653104	-0.553001
37030		0.260401	-9.589289	-1.744220	0.011638	0.006121	-0.001752	-0.187744	0.948730	0.493164	0.319091	-0.407181	0.653075	-0.553062
37031		0.195232	-9.604405	-1.738504	0.010458	0.003248	0.001080	-0.191650	0.952393	0.481934	0.319150	-0.407207	0.653098	-0.552982
37032		0.204390	-9.616127	-1.784067	-0.002964	0.001596	0.006573	-0.194580	0.953613	0.496338	0.319174	-0.407135	0.653119	-0.552996
37033		0.278437	-9.650141	-1.811302	-0.002636	0.003131	0.006706	-0.190186	0.947021	0.482422	0.319151	-0.407210	0.653199	-0.552859
37034		0.321517	-9.640243	-1.766887	0.011260	0.004204	-0.005939	-0.191895	0.946045	0.484863	0.319144	-0.407173	0.653139	-0.552962
37035		0.338077	-9.604359	-1.816907	0.019052	0.002311	-0.013480	-0.192871	0.942871	0.489014	0.319113	-0.407204	0.653021	-0.553096
37036		0.329568	-9.576514	-1.878887	0.019665	0.005373	-0.007857	-0.184082	0.950195	0.478760	0.319063	-0.407249	0.652956	-0.553168
37037		0.317839	-9.605906	-1.866332	0.021446	0.003783	-0.001566	-0.190918	0.956299	0.493896	0.319211	-0.407081	0.652866	-0.553313
37038		0.323367	-9.595931	-1.845758	0.023024	0.003553	-0.001456	-0.194580	0.947266	0.488281	0.319297	-0.407080	0.652804	-0.553338
37039		0.323948	-9.571698	-1.858208	0.015911	0.000622	-0.004920	-0.194336	0.955811	0.484863	0.319277	-0.407141	0.652735	-0.553385
37040		0.362662	-9.597546	-1.813147	0.018832	-0.000986	-0.006135	-0.187988	0.951416	0.489990	0.319319	-0.407142	0.652609	-0.553509
37041		0.405923	-9.620855	-1.847170	0.011453	-0.007576	-0.006292	-0.191406	0.945068	0.481934	0.319412	-0.407213	0.652567	-0.553452
37042		0.479090	-9.650354	-1.836214	0.016834	-0.012710	-0.002184	-0.193848	0.952881	0.492920	0.319509	-0.407249	0.652460	-0.553496
37043		0.481703	-9.622848	-1.788613	0.021383	-0.014163	0.000765	-0.193848	0.953857	0.485596	0.319643	-0.407357	0.652361	-0.553456
37044		0.380843	-9.609803	-1.762916	0.026762	-0.009271	0.001974	-0.194580	0.949219	0.477295	0.319784	-0.407356	0.652214	-0.553549
37045		0.335501	-9.582600	-1.687003	0.024424	-0.009995	0.003521	-0.190674	0.953613	0.478027	0.319904	-0.407309	0.652050	-0.553707
37046		0.347196	-9.579161	-1.677874	0.011961	-0.012419	0.004142	-0.189941	0.945312	0.479248	0.320056	-0.407268	0.651953	-0.553764
37047		0.436161	-9.664118	-1.701638	-0.000070	-0.015430	0.002973	-0.185547	0.945312	0.477783	0.320141	-0.407317	0.651931	-0.553705
37048		0.455525	-9.642182	-1.721396	0.004581	-0.008978	0.001099	-0.187256	0.947754	0.484863	0.320244	-0.407292	0.651907	-0.553691
37049		0.369746	-9.642117	-1.719261	0.014174	0.005469	0.002842	-0.192139	0.953369	0.484375	0.320291	-0.407233	0.651904	-0.553711
37050		0.246932	-9.571474	-1.685641	0.023447	0.015868	0.003835	-0.189697	0.956787	0.485840	0.320292	-0.407108	0.651851	-0.553866
37051		0.212876	-9.581762	-1.779915	0.016992	0.018911	0.010671	-0.193115	0.943848	0.482178	0.320326	-0.406933	0.651870	-0.553951
37052		0.258428	-9.627902	-1.876476	0.018118	0.024283	0.013797	-0.186523	0.949707	0.484863	0.320258	-0.406754	0.651911	-0.554073
37053		0.308070	-9.649832	-1.824394	0.022780	0.038238	0.008390	-0.192139	0.952881	0.480469	0.320193	-0.406484	0.651982	-0.554226
37054		0.253100	-9.606643	-1.806639	0.017224	0.040089	0.006269	-0.195312	0.948242	0.474365	0.320056	-0.406229	0.652022	-0.554445
37055		0.137856	-9.542641	-1.784092	0.019195	0.036758	0.009326	-0.194824	0.948486	0.484619	0.319915	-0.405959	0.652025	-0.554720
37056		0.102181	-9.526765	-1.756137	0.009405	0.024072	0.010825	-0.188965	0.953613	0.480713	0.319808	-0.405841	0.652107	-0.554773
37057		0.251715	-9.561997	-1.728933	-0.009428	0.014692	0.010474	-0.189941	0.951660	0.481201	0.319775	-0.405728	0.652243	-0.554714
37058		0.414101	-9.663125	-1.755261	-0.034010	0.021042	-0.000490	-0.179932	0.952637	0.476074	0.319556	-0.405728	0.652474	-0.554569
37059		0.534869	-9.811138	-1.804076	-0.037468	0.024962	-0.004992	-0.190674	0.953857	0.483398	0.319393	-0.405625	0.652729	-0.554438
37060		0.522124	-9.813517	-1.672759	0.017822	0.044837	-0.006327	-0.193604	0.955566	0.475098	0.319195	-0.405417	0.652758	-0.554669
37061		0.381402	-9.636678	-1.495235	0.062960	0.043374	0.006642	-0.187500	0.955322	0.479004	0.319211	-0.404976	0.652564	-0.555211
37062		0.374250	-9.412662	-1.511894	0.065726	0.028844	0.014391	-0.194824	0.954346	0.478027	0.319403	-0.404553	0.652395	-0.555607
37063		0.391891	-9.504391	-1.758720	-0.002066	0.008735	0.012898	-0.185303	0.963867	0.471924	0.319389	-0.404465	0.652455	-0.555609
37064		0.474821	-9.707139	-1.835937	-0.044787	0.014196	0.007055	-0.189453	0.951416	0.476807	0.319316	-0.404364	0.652692	-0.555446
37065		0.484286	-9.749894	-1.666598	-0.048057	0.029270	0.006396	-0.185791	0.958740	0.480713	0.319044	-0.404305	0.653016	-0.555264
37066		0.485208	-9.463335	-1.550010	-0.026972	0.031830	0.014103	-0.192139	0.957031	0.479492	0.318930	-0.404118	0.653283	-0.555152
37067		0.408791	-9.337903	-1.686380	-0.028699	0.029169	0.020032	-0.187744	0.953369	0.481934	0.318782	-0.403943	0.653544	-0.555057
37068		0.259168	-9.468796	-1.792323	-0.043428	0.024315	0.029639	-0.187012	0.950928	0.475830	0.318680	-0.403783	0.653924	-0.554784
37069		0.168145	-9.764337	-1.916490	-0.070145	0.026084	0.025692	-0.190918	0.953369	0.480713	0.318461	-0.403660	0.654397	-0.554442
37070		0.180131	-9.825643	-1.915788	-0.045053	0.051608	0.021410	-0.192871	0.961670	0.489258	0.318134	-0.403417	0.654805	-0.554325
37071		0.204502	-9.688891	-1.786071	-0.010385	0.061143	0.018269	-0.187500	0.950928	0.487061	0.317866	-0.403098	0.655075	-0.554392
37072		0.252807	-9.498970	-1.729686	0.019182	0.036609	0.009379	-0.195068	0.952637	0.478760	0.317804	-0.402851	0.655148	-0.554521
37073		0.288138	-9.429109	-1.806536	0.018887	0.012593	0.009138	-0.187988	0.949707	0.478760	0.317813	-0.402690	0.655096	-0.554693
37074		0.338959	-9.501168	-1.865398	-0.022257	-0.006784	0.011933	-0.192139	0.955811	0.487305	0.317858	-0.402690	0.655225	-0.554516
37075		0.348609	-9.628320	-1.883234	-0.059226	0.000439	0.010090	-0.196289	0.958252	0.481445	0.317704	-0.402826	0.655543	-0.554129
37076		0.380543	-9.734046	-1.760037	-0.057450	0.006324	0.012840	-0.189941	0.954102	0.484619	0.317515	-0.402882	0.655828	-0.553859
37077		0.367931	-9.795688	-1.674352	-0.028582	-0.011257	0.006151	-0.183838	0.945068	0.484131	0.317528	-0.402974	0.655950	-0.553641
37078		0.254691	-9.677982	-1.626301	0.029823	-0.015122	0.002492	-0.193115	0.949219	0.480957	0.317763	-0.402940	0.655813	-0.553692
37079		0.089083	-9.592360	-1.650449	0.046458	-0.013602	0.001347	-0.187012	0.954834	0.483887	0.317971	-0.402876	0.655549	-0.553933
37080		0.076687	-9.498072	-1.712917	0.031822	-0.005591	0.007292	-0.188232	0.948975	0.482910	0.318187	-0.402760	0.655415	-0.554052
37081		0.112710	-9.544457	-1.756936	-0.015930	0.004780	0.010097	-0.190918	0.956055	0.485107	0.318163	-0.402729	0.655546	-0.553933
37082		0.243752	-9.639440	-1.829595	-0.046428	0.004360	0.009663	-0.189453	0.948975	0.485840	0.318036	-0.402786	0.655799	-0.553664
37083		0.393462	-9.674076	-1.808890	-0.046308	0.009369	0.000169	-0.194092	0.953613	0.478516	0.317826	-0.402885	0.656053	-0.553412
37084		0.424502	-9.597003	-1.719654	-0.021262	0.014538	-0.002233	-0.188232	0.959717	0.478027	0.317648	-0.402863	0.656137	-0.553430
37085		0.310625	-9.481753	-1.734833	-0.017660	0.018854	0.001486	-0.187256	0.954834	0.486572	0.317559	-0.402746	0.656226	-0.553461
37086		0.166109	-9.534286	-1.826337	-0.027634	0.014018	0.019487	-0.190186	0.950928	0.484131	0.317522	-0.402639	0.656460	-0.553283
37087		0.124252	-9.697551	-1.956553	-0.031208	0.015414	0.025060	-0.183594	0.953369	0.489258	0.317451	-0.402509	0.656722	-0.553107
37088		0.234067	-9.781851	-1.928431	-0.018536	0.025355	0.010311	-0.195801	0.954590	0.484375	0.317364	-0.402377	0.656932	-0.553003
37089		0.411812	-9.620309	-1.805490	0.000211	0.030383	-0.010024	-0.184326	0.950195	0.482178	0.317114	-0.402296	0.656948	-0.553187
37090		0.445899	-9.559825	-1.903108	-0.014530	0.024788	-0.013936	-0.190430	0.943359	0.481934	0.316927	-0.402258	0.657032	-0.553222
37091		0.299608	-9.565531	-1.944693	0.001170	0.010344	-0.000999	-0.193604	0.953613	0.482910	0.316850	-0.402209	0.657051	-0.553279
37092		0.107118	-9.648286	-1.885974	0.016939	-0.001580	0.007204	-0.182861	0.955811	0.486572	0.316936	-0.402119	0.656968	-0.553395
37093		0.054726	-9.746629	-1.958839	0.011806	-0.004938	0.011436	-0.188232	0.953613	0.482910	0.317149	-0.402021	0.656946	-0.553369
37094		0.212748	-9.715394	-1.985392	0.013887	0.011386	-0.000699	-0.185303	0.947998	0.484619	0.317163	-0.401909	0.656899	-0.553498
37095		0.434235	-9.507738	-1.836221	0.032505	0.006024	-0.016811	-0.176025	0.951904	0.479736	0.317201	-0.401880	0.656725	-0.553704
37096		0.474987	-9.356577	-1.699271	0.013964	-0.016776	-0.015484	-0.187744	0.954102	0.484131	0.317419	-0.401940	0.656571	-0.553719
37097		0.334357	-9.427045	-1.815025	-0.009444	-0.033206	0.005476	-0.186279	0.948242	0.479980	0.317628	-0.402075	0.656545	-0.553532
37098		0.151017	-9.740207	-1.909126	-0.022580	-0.033311	0.011000	-0.186768	0.950928	0.482178	0.317812	-0.402199	0.656596	-0.553275
37099		0.199623	-9.960899	-1.876994	-0.001550	-0.024736	-0.000875	-0.184570	0.952393	0.481445	0.317964	-0.402299	0.656533	-0.553190
37100		0.356404	-9.846813	-1.714989	0.036109	-0.012131	-0.013258	-0.181885	0.950928	0.486328	0.318142	-0.402296	0.656284	-0.553385
37101		0.432362	-9.451355	-1.622850	0.069415	-0.016574	-0.017352	-0.187988	0.955078	0.484131	0.318458	-0.402288	0.655878	-0.553690
37102		0.364964	-9.308476	-1.632801	0.050208	-0.034608	-0.010404	-0.191650	0.952637	0.475830	0.318788	-0.402365	0.655519	-0.553869
37103		0.313689	-9.403052	-1.807321	0.000558	-0.049802	0.004834	-0.181152	0.952637	0.484375	0.319056	-0.402521	0.655379	-0.553768
37104		0.271026	-9.653522	-1.882743	-0.058074	-0.039201	0.012964	-0.188232	0.946533	0.486084	0.319212	-0.402787	0.655598	-0.553225
37105		0.249891	-9.765633	-1.853237	-0.054361	-0.009879	0.006717	-0.188965	0.951904	0.480957	0.319092	-0.402973	0.655862	-0.552845
37106		0.192701	-9.625071	-1.664903	-0.021984	0.001110	-0.003608	-0.178955	0.946533	0.488525	0.318982	-0.403020	0.655944	-0.552778
37107		0.063688	-9.509179	-1.648611	0.011630	-0.014289	-0.005307	-0.180908	0.951904	0.478516	0.319150	-0.403110	0.655862	-0.552712
37108		0.015385	-9.632884	-1.844524	0.017851	-0.018097	-0.004135	-0.185791	0.947266	0.480957	0.319358	-0.403109	0.655708	-0.552776
37109		0.134085	-9.848373	-2.046067	0.011304	-0.007962	0.000439	-0.192627	0.949463	0.487549	0.319444	-0.403093	0.655638	-0.552820
37110		0.225370	-9.818683	-1.938266	0.021104	0.019329	-0.006725	-0.187256	0.951660	0.493164	0.319317	-0.403014	0.655582	-0.553018
37111		0.260719	-9.528551	-1.772453	0.029653	0.020507	-0.019311	-0.192627	0.943115	0.477051	0.319219	-0.403005	0.655464	-0.553221
37112		0.194742	-9.426456	-1.660233	0.026111	-0.018814	-0.026238	-0.185547	0.943848	0.478760	0.319217	-0.403147	0.655202	-0.553428
37113		0.288212	-9.417143	-1.639388	0.022627	-0.054904	-0.024465	-0.171875	0.946777	0.473877	0.319487	-0.403458	0.654877	-0.553430
37114		0.369795	-9.705889	-1.824241	-0.030405	-0.065828	-0.009623	-0.181641	0.948242	0.475586	0.319859	-0.403832	0.654805	-0.553028
37115		0.400651	-9.856771	-1.932399	-0.019962	-0.034744	-0.003115	-0.188232	0.948730	0.481689	0.320019	-0.404006	0.654786	-0.552832
37116		0.392622	-9.766662	-1.734389	0.013307	0.005505	-0.016371	-0.180420	0.947754	0.489014	0.319938	-0.404020	0.654688	-0.552984
37117		0.385753	-9.486149	-1.612766	0.038644	0.009352	-0.023361	-0.188232	0.952881	0.485107	0.319978	-0.404048	0.654479	-0.553188
37118		0.382029	-9.368637	-1.666366	0.035222	-0.003493	-0.013349	-0.181396	0.940674	0.488525	0.320055	-0.404050	0.654267	-0.553393
37119		0.401572	-9.487655	-1.796710	0.004244	-0.025510	0.002683	-0.189453	0.952881	0.483398	0.320264	-0.404214	0.654223	-0.553204
37120		0.367809	-9.720538	-1.896200	-0.039815	-0.020456	0.010934	-0.193115	0.948975	0.483154	0.320277	-0.404355	0.654389	-0.552896
37121		0.284896	-9.819784	-1.815340	-0.037776	0.011635	0.010559	-0.182617	0.950195	0.489014	0.320069	-0.404352	0.654632	-0.552732
37122		0.182999	-9.659577	-1.649349	-0.018435	0.010056	-0.002663	-0.187012	0.949463	0.484375	0.319985	-0.404401	0.654753	-0.552601
37123		0.193189	-9.434456	-1.705788	-0.001326	0.001013	-0.008083	-0.184570	0.950928	0.481689	0.319937	-0.404445	0.654739	-0.552613
37124		0.243887	-9.414637	-1.783021	0.011212	-0.008346	0.001724	-0.182373	0.950195	0.484375	0.320056	-0.404419	0.654668	-0.552647
37125		0.354491	-9.577543	-1.904224	-0.014068	-0.001817	0.009858	-0.189209	0.955566	0.484619	0.320111	-0.404408	0.654768	-0.552505
37126		0.412574	-9.742265	-1.923747	-0.038885	0.016278	0.004514	-0.182617	0.957275	0.485352	0.319904	-0.404399	0.654999	-0.552357
37127		0.330387	-9.749874	-1.860894	-0.027587	0.030471	-0.004301	-0.181641	0.947510	0.491943	0.319685	-0.404334	0.655188	-0.552308
37128		0.182214	-9.635657	-1.737496	0.004214	0.016668	-0.007003	-0.186768	0.951416	0.488525	0.319627	-0.404333	0.655213	-0.552313
37129		0.155897	-9.527073	-1.782821	0.018494	0.000340	0.003829	-0.188965	0.957031	0.493408	0.319717	-0.404278	0.655149	-0.552377
37130		0.268061	-9.508438	-1.914587	0.009235	-0.007159	0.007449	-0.189697	0.947510	0.483887	0.319830	-0.404288	0.655120	-0.552339
37131		0.323961	-9.606882	-1.933769	-0.014662	-0.007374	0.003618	-0.187500	0.949707	0.485107	0.319809	-0.404345	0.655181	-0.552237
37132		0.341133	-9.641446	-1.882447	-0.023946	-0.013104	-0.005597	-0.177734	0.949951	0.486328	0.319769	-0.404500	0.655240	-0.552076
37133		0.253928	-9.659908	-1.835653	-0.027782	-0.021088	-0.011382	-0.188477	0.951660	0.495361	0.319819	-0.404721	0.655288	-0.551829
37134		0.174802	-9.635649	-1.829243	-0.008163	-0.025769	-0.010934	-0.187500	0.945801	0.485596	0.319879	-0.404982	0.655235	-0.551664
37135		0.202889	-9.645134	-1.844272	0.008319	-0.024618	-0.005443	-0.186768	0.949707	0.487793	0.320003	-0.405108	0.655118	-0.551639
37136		0.253570	-9.604942	-1.832949	0.009277	-0.012519	-0.003199	-0.179443	0.945557	0.484375	0.320090	-0.405166	0.655037	-0.551643
37137		0.286620	-9.629073	-1.813337	0.016615	-0.003816	-0.006454	-0.183350	0.956543	0.485352	0.320187	-0.405156	0.654943	-0.551705
37138		0.227906	-9.645993	-1.782120	0.018187	0.000598	-0.014510	-0.187988	0.942627	0.481445	0.320221	-0.405152	0.654808	-0.551849
37139		0.202762	-9.612305	-1.778801	0.029874	0.007066	-0.012198	-0.181152	0.953125	0.491455	0.320198	-0.405097	0.654652	-0.552087
37140		0.227598	-9.587838	-1.734365	0.019860	0.011129	-0.009194	-0.189453	0.944824	0.483643	0.320222	-0.405063	0.654578	-0.552186
37141		0.339323	-9.626350	-1.791346	0.015185	0.007182	-0.006729	-0.187012	0.952881	0.484131	0.320173	-0.405034	0.654509	-0.552317
37142		0.436045	-9.618414	-1.747400	0.012503	0.007429	-0.004705	-0.191406	0.944336	0.483154	0.320164	-0.404979	0.654454	-0.552429
37143		0.397289	-9.542849	-1.680696	0.003191	0.004556	-0.003894	-0.182861	0.955322	0.480957	0.320086	-0.404983	0.654443	-0.552484
37144		0.335132	-9.549908	-1.720946	-0.011428	0.002189	-0.004387	-0.188232	0.960449	0.484863	0.320066	-0.404983	0.654479	-0.552452
37145		0.294997	-9.576926	-1.794229	-0.009895	-0.000550	0.000472	-0.185547	0.942871	0.485107	0.320058	-0.404984	0.654512	-0.552417
37146		0.435436	-9.608425	-1.818851	-0.019683	-0.003218	-0.000979	-0.187256	0.951660	0.489014	0.320006	-0.405074	0.654607	-0.552270
37147		0.470528	-9.648735	-1.832733	-0.027842	0.004275	-0.001163	-0.181641	0.951904	0.484375	0.319891	-0.405153	0.654751	-0.552107
37148		0.373091	-9.643453	-1.746769	-0.016657	0.015957	0.000122	-0.188477	0.949219	0.479736	0.319801	-0.405101	0.654873	-0.552053
37149		0.318384	-9.566332	-1.654895	-0.018016	0.007312	0.004333	-0.183838	0.943604	0.479004	0.319710	-0.405056	0.654979	-0.552012
37150		0.274536	-9.513508	-1.741274	-0.028346	0.002693	0.014757	-0.187988	0.945068	0.485840	0.319684	-0.405006	0.655165	-0.551843
37151		0.251486	-9.579990	-1.798546	-0.029474	0.007705	0.018124	-0.183838	0.953369	0.483398	0.319610	-0.404956	0.655389	-0.551657
37152		0.248815	-9.649158	-1.860349	-0.030933	0.015829	0.013187	-0.183594	0.951172	0.488281	0.319517	-0.404860	0.655608	-0.551521
37153		0.205424	-9.600432	-1.844831	-0.036142	0.029227	0.008289	-0.181641	0.945068	0.496094	0.319308	-0.404774	0.655882	-0.551379
37154		0.162498	-9.596697	-1.902137	-0.034713	0.030731	0.006269	-0.181152	0.948242	0.494141	0.319092	-0.404745	0.656171	-0.551182
37155		0.111705	-9.623785	-1.924541	-0.022280	0.028131	0.009835	-0.179199	0.953857	0.490234	0.318959	-0.404650	0.656398	-0.551058
37156		0.183823	-9.665049	-1.910741	-0.016001	0.026852	0.006264	-0.186523	0.947510	0.495850	0.318863	-0.404519	0.656568	-0.551007
37157		0.312196	-9.605458	-1.900999	-0.029697	0.018680	0.004951	-0.187500	0.948242	0.488770	0.318693	-0.404531	0.656786	-0.550837
37158		0.342428	-9.618687	-1.956274	-0.032275	0.008949	-0.000865	-0.188477	0.949219	0.485840	0.318530	-0.404575	0.656956	-0.550697
37159		0.249699	-9.660558	-1.918107	-0.007600	0.002297	-0.004528	-0.180908	0.941650	0.489746	0.318462	-0.404580	0.656975	-0.550710
37160		0.177861	-9.598618	-1.847128	0.004388	-0.005067	-0.004434	-0.188232	0.940918	0.484619	0.318523	-0.404622	0.656941	-0.550684
37161		0.241427	-9.586840	-1.910449	-0.000690	-0.003424	-0.004318	-0.191162	0.949951	0.495117	0.318494	-0.404646	0.656923	-0.550704
37162		0.285089	-9.609664	-1.946277	0.006096	0.002613	-0.009115	-0.184082	0.956299	0.487061	0.318436	-0.404695	0.656879	-0.550755
37163		0.356452	-9.634590	-1.900207	0.012216	0.000932	-0.006016	-0.187744	0.953125	0.494629	0.318488	-0.404647	0.656795	-0.550860
37164		0.342419	-9.621552	-1.877245	0.008072	-0.003211	-0.006665	-0.188232	0.950928	0.493408	0.318514	-0.404692	0.656732	-0.550887
37165		0.318332	-9.572109	-1.824013	0.006624	-0.002233	-0.004043	-0.188721	0.949463	0.485840	0.318533	-0.404721	0.656688	-0.550907
37166		0.298785	-9.557035	-1.826540	0.005553	-0.009712	-0.003760	-0.185791	0.944092	0.492676	0.318582	-0.404747	0.656618	-0.550943
37167		0.338917	-9.550159	-1.842681	-0.004061	-0.013767	0.000930	-0.193604	0.949707	0.492432	0.318654	-0.404839	0.656619	-0.550832
37168		0.327716	-9.608421	-1.854861	-0.009007	-0.011372	0.003791	-0.181885	0.949707	0.489014	0.318662	-0.404912	0.656645	-0.550743
37169		0.243654	-9.687061	-1.845599	-0.008057	-0.007143	0.000144	-0.188232	0.944580	0.498535	0.318720	-0.404950	0.656666	-0.550656
37170		0.203389	-9.681460	-1.837290	0.005747	-0.001078	-0.000468	-0.185059	0.953369	0.488525	0.318729	-0.404995	0.656660	-0.550626
37171		0.249568	-9.569611	-1.792736	0.017677	-0.003813	-0.003195	-0.187256	0.954102	0.486084	0.318823	-0.404959	0.656552	-0.550726
37172		0.292897	-9.567916	-1.842011	0.013060	-0.007744	-0.006103	-0.183838	0.947266	0.493652	0.318896	-0.404961	0.656438	-0.550819
37173		0.306194	-9.526892	-1.857523	0.002623	-0.008122	-0.002568	-0.182861	0.950928	0.496826	0.318960	-0.405023	0.656411	-0.550768
37174		0.300740	-9.611891	-1.829716	-0.019330	-0.009206	-0.002760	-0.184570	0.953369	0.486328	0.318968	-0.405156	0.656484	-0.550579
37175		0.270230	-9.654360	-1.848151	-0.029088	-0.011522	-0.000196	-0.187500	0.941406	0.493164	0.318961	-0.405252	0.656577	-0.550401
37176		0.209722	-9.657890	-1.830809	-0.009879	-0.005566	-0.000798	-0.187988	0.948242	0.482422	0.318939	-0.405337	0.656620	-0.550300
37177		0.248028	-9.621331	-1.826934	0.010534	0.000771	-0.004841	-0.179932	0.944092	0.489502	0.318944	-0.405290	0.656542	-0.550424
37178		0.322141	-9.543714	-1.782436	0.006355	0.004121	-0.003630	-0.187500	0.938232	0.486572	0.318970	-0.405270	0.656522	-0.550448
37179		0.403229	-9.529729	-1.815653	-0.015685	0.000142	-0.003139	-0.187744	0.947266	0.488037	0.318880	-0.405329	0.656592	-0.550374
37180		0.327259	-9.614552	-1.819655	-0.034629	-0.004318	0.002945	-0.182129	0.946045	0.490967	0.318795	-0.405412	0.656747	-0.550177
37181		0.243271	-9.617840	-1.859815	-0.023585	0.004458	0.010325	-0.183105	0.943848	0.490967	0.318772	-0.405396	0.656908	-0.550010
37182		0.164537	-9.610885	-1.881201	-0.014141	0.015262	0.004753	-0.193848	0.948242	0.487793	0.318683	-0.405338	0.657037	-0.549950
37183		0.157153	-9.611475	-1.967195	0.002107	0.022457	0.001313	-0.177979	0.944824	0.489746	0.318524	-0.405203	0.657083	-0.550087
37184		0.258461	-9.593197	-1.906968	0.011221	0.019213	-0.002141	-0.186035	0.945068	0.489990	0.318512	-0.405089	0.657079	-0.550182
37185		0.336915	-9.656988	-1.952911	-0.004359	0.004731	-0.004967	-0.184814	0.949951	0.486084	0.318452	-0.405101	0.657099	-0.550184
37186		0.345350	-9.626096	-1.987184	-0.002393	0.001405	-0.001899	-0.179688	0.946289	0.488525	0.318452	-0.405078	0.657097	-0.550203
37187		0.270239	-9.641863	-1.930148	0.000549	-0.002683	-0.003715	-0.184570	0.939697	0.497070	0.318509	-0.405097	0.657073	-0.550185
37188		0.241205	-9.578018	-1.909744	0.009020	-0.011483	-0.008057	-0.178467	0.944824	0.497070	0.318569	-0.405210	0.656999	-0.550155
37189		0.224625	-9.547948	-1.858563	0.016917	-0.012608	-0.007447	-0.186523	0.944580	0.494385	0.318722	-0.405295	0.656881	-0.550146
37190		0.245306	-9.551276	-1.859864	0.020876	-0.011742	-0.004809	-0.185791	0.942627	0.481689	0.318834	-0.405339	0.656750	-0.550203
37191		0.219999	-9.596954	-1.846878	0.013924	-0.011048	-0.000899	-0.179199	0.944092	0.486572	0.318934	-0.405317	0.656649	-0.550282
37192		0.257509	-9.635438	-1.795284	0.005893	-0.010679	-0.004255	-0.186523	0.947998	0.492676	0.319044	-0.405358	0.656580	-0.550271
37193		0.366087	-9.668418	-1.819237	-0.000449	-0.012644	-0.009413	-0.181885	0.945068	0.492432	0.319071	-0.405475	0.656524	-0.550236
37194		0.357655	-9.607223	-1.803516	0.005698	-0.006802	-0.009814	-0.182617	0.947510	0.485352	0.319116	-0.405557	0.656457	-0.550231
37195		0.341646	-9.564532	-1.760440	0.014881	0.003199	-0.007427	-0.182861	0.947510	0.488281	0.319144	-0.405513	0.656367	-0.550353
37196		0.294985	-9.502893	-1.769963	0.010885	0.005169	-0.000039	-0.186523	0.947266	0.477783	0.319181	-0.405448	0.656331	-0.550422
37197		0.254408	-9.529965	-1.841244	-0.004740	0.008536	0.005547	-0.189697	0.947754	0.492676	0.319139	-0.405321	0.656382	-0.550480
37198		0.246098	-9.592896	-1.889221	-0.013792	0.011804	0.003647	-0.184570	0.946777	0.487549	0.319019	-0.405289	0.656500	-0.550432
37199		0.313827	-9.657160	-1.884389	-0.018129	0.011532	-0.002561	-0.185303	0.948486	0.486572	0.318899	-0.405284	0.656605	-0.550380
37200		0.362749	-9.648860	-1.817820	-0.011082	0.011221	-0.007782	-0.182373	0.944336	0.485596	0.318778	-0.405281	0.656656	-0.550392
37201		0.364592	-9.598620	-1.850365	-0.011115	-0.001658	-0.009578	-0.191406	0.948242	0.483154	0.318738	-0.405354	0.656666	-0.550350
37202		0.340213	-9.581236	-1.879695	-0.002319	-0.005726	0.000292	-0.191162	0.942871	0.487305	0.318725	-0.405332	0.656659	-0.550381
37203		0.307290	-9.557550	-1.896796	0.008005	0.004629	0.004597	-0.186279	0.953369	0.485107	0.318700	-0.405242	0.656661	-0.550459
37204		0.234015	-9.540812	-1.897739	-0.003393	0.007163	0.004227	-0.186279	0.942139	0.484375	0.318689	-0.405159	0.656694	-0.550487
37205		0.205717	-9.613400	-1.933829	-0.015022	0.008555	0.002414	-0.179932	0.956055	0.488281	0.318599	-0.405124	0.656794	-0.550446
37206		0.225864	-9.640662	-1.924774	-0.011230	0.008307	-0.001743	-0.183838	0.950195	0.493164	0.318593	-0.405115	0.656837	-0.550405
37207		0.321606	-9.682278	-1.852702	0.002187	0.004973	-0.003037	-0.186035	0.940674	0.488281	0.318592	-0.405110	0.656831	-0.550416
37208		0.327261	-9.634594	-1.857361	0.013704	0.005690	0.000703	-0.183838	0.944336	0.488037	0.318604	-0.405039	0.656796	-0.550504
37209		0.259914	-9.557852	-1.869929	0.016849	0.007737	0.001567	-0.187256	0.954346	0.493652	0.318648	-0.404946	0.656744	-0.550608
37210		0.229781	-9.544129	-1.817523	0.007955	0.006760	0.001166	-0.190186	0.946777	0.491211	0.318651	-0.404882	0.656734	-0.550665
37211		0.264685	-9.585148	-1.827461	-0.004823	-0.002214	0.000318	-0.182617	0.944336	0.495117	0.318615	-0.404892	0.656768	-0.550639
37212		0.340089	-9.606322	-1.863488	-0.019255	-0.003837	-0.002848	-0.184814	0.947998	0.493164	0.318587	-0.405005	0.656850	-0.550473
37213		0.365507	-9.672773	-1.807249	-0.015392	0.001298	-0.007070	-0.185791	0.950195	0.486084	0.318514	-0.405086	0.656908	-0.550388
37214		0.328968	-9.684211	-1.827524	0.003064	0.003819	-0.006618	-0.186035	0.957764	0.489502	0.318491	-0.405069	0.656872	-0.550456
37215		0.292743	-9.589023	-1.810701	0.020043	0.012311	-0.002302	-0.191162	0.948242	0.490479	0.318511	-0.404948	0.656791	-0.550630
37216		0.265841	-9.530406	-1.823215	0.021314	0.013414	0.002354	-0.187500	0.955078	0.492188	0.318484	-0.404797	0.656750	-0.550806
37217		0.290789	-9.498125	-1.823567	0.005369	0.012742	0.007165	-0.178955	0.950928	0.485840	0.318476	-0.404675	0.656784	-0.550860
37218		0.308010	-9.540762	-1.866531	-0.025656	0.012039	0.000366	-0.193848	0.952637	0.490234	0.318410	-0.404685	0.656911	-0.550739
37219		0.293121	-9.621159	-1.892346	-0.041015	0.013693	-0.002667	-0.182373	0.951904	0.489014	0.318133	-0.404711	0.657139	-0.550608
37220		0.278492	-9.681641	-1.830213	-0.026291	0.016478	-0.003415	-0.187500	0.945068	0.493652	0.317995	-0.404720	0.657276	-0.550517
37221		0.271845	-9.637042	-1.845412	-0.009825	0.020161	0.002768	-0.187744	0.943604	0.491943	0.317857	-0.404642	0.657399	-0.550507
37222		0.322430	-9.628856	-1.915469	0.006923	0.027507	0.005659	-0.187988	0.947510	0.488037	0.317745	-0.404465	0.657473	-0.550614
37223		0.302545	-9.614106	-1.916571	0.020722	0.033579	0.005068	-0.192139	0.943115	0.483398	0.317655	-0.404210	0.657483	-0.550842
37224		0.277991	-9.610023	-1.934026	0.016748	0.035194	0.003029	-0.186035	0.940430	0.490723	0.317490	-0.403947	0.657514	-0.551092
37225		0.261628	-9.530092	-1.913724	0.005788	0.037139	0.000833	-0.187256	0.942627	0.493408	0.317312	-0.403765	0.657603	-0.551221
37226		0.214701	-9.517911	-1.894823	-0.008732	0.037975	0.003603	-0.186523	0.945801	0.481934	0.317086	-0.403605	0.657776	-0.551262
37227		0.250151	-9.583494	-1.891027	-0.011828	0.028444	0.000877	-0.183350	0.946045	0.491699	0.316919	-0.403479	0.657892	-0.551312
37228		0.310491	-9.641221	-1.874755	-0.014900	0.019278	0.002204	-0.183838	0.945068	0.488525	0.316820	-0.403435	0.658019	-0.551250
37229		0.358080	-9.715328	-1.857198	-0.010269	0.015364	-0.000776	-0.194336	0.946533	0.494385	0.316742	-0.403403	0.658097	-0.551225
37230		0.306165	-9.676272	-1.878467	0.009337	0.015741	0.001029	-0.189697	0.940918	0.489258	0.316635	-0.403286	0.658129	-0.551334
37231		0.223642	-9.611245	-1.854366	0.025080	0.020979	0.004155	-0.185059	0.946289	0.494141	0.316604	-0.403094	0.658099	-0.551529
37232		0.204362	-9.547048	-1.884056	0.031925	0.022383	0.002183	-0.192627	0.950684	0.489258	0.316628	-0.402914	0.658028	-0.551730
37233		0.249805	-9.555416	-1.862744	0.025896	0.029778	0.003020	-0.190918	0.943848	0.489258	0.316541	-0.402669	0.658007	-0.551984
37234		0.286173	-9.547140	-1.900373	0.011577	0.028543	-0.001504	-0.195312	0.947266	0.490234	0.316393	-0.402507	0.658042	-0.552146
37235		0.306148	-9.624911	-1.856864	0.004197	0.024829	0.002936	-0.184814	0.949463	0.495605	0.316228	-0.402343	0.658123	-0.552263
37236		0.295820	-9.626109	-1.802415	0.002894	0.018719	0.002406	-0.190674	0.949219	0.490479	0.316183	-0.402258	0.658181	-0.552282
37237		0.296421	-9.576387	-1.832636	0.003356	0.018505	0.004668	-0.193604	0.939697	0.488281	0.316107	-0.402132	0.658242	-0.552345
37238		0.316691	-9.554340	-1.851610	0.001776	0.018727	0.004536	-0.191650	0.942627	0.485107	0.315981	-0.402005	0.658325	-0.552410
37239		0.294305	-9.566999	-1.899413	0.006169	0.019015	0.005403	-0.186523	0.946289	0.487061	0.315902	-0.401858	0.658374	-0.552504
37240		0.258358	-9.576008	-1.857889	0.003631	0.012171	0.004268	-0.190186	0.948730	0.491211	0.315898	-0.401773	0.658402	-0.552535
37241		0.318732	-9.596751	-1.862455	-0.005439	0.002235	-0.003483	-0.189209	0.951416	0.483154	0.315846	-0.401793	0.658436	-0.552508
37242		0.362195	-9.619325	-1.899048	-0.003964	0.001623	-0.002046	-0.189209	0.948730	0.490967	0.315841	-0.401792	0.658435	-0.552513
37243		0.326986	-9.698026	-1.915477	0.005473	0.005255	-0.000043	-0.195312	0.958740	0.489258	0.315835	-0.401754	0.658435	-0.552544
37244		0.295759	-9.626728	-1.799116	0.010808	0.002633	0.004747	-0.190186	0.958496	0.487305	0.315856	-0.401657	0.658412	-0.552631
37245		0.302281	-9.551315	-1.759073	0.003462	-0.006048	0.007968	-0.183105	0.950195	0.491455	0.315963	-0.401617	0.658394	-0.552621
37246		0.364178	-9.551974	-1.814442	-0.003590	-0.011079	0.007880	-0.191162	0.952148	0.495361	0.316105	-0.401653	0.658407	-0.552497
37247		0.352561	-9.597822	-1.834381	-0.008875	-0.013071	0.005920	-0.181641	0.947021	0.497070	0.316155	-0.401701	0.658459	-0.552372
37248		0.359034	-9.604225	-1.846539	-0.009975	-0.003079	0.005137	-0.187256	0.946533	0.492432	0.316206	-0.401743	0.658534	-0.552222
37249		0.280260	-9.597622	-1.867083	-0.007063	0.015993	0.011584	-0.184814	0.946045	0.486572	0.316155	-0.401632	0.658663	-0.552178
37250		0.210965	-9.570166	-1.852156	0.004226	0.028384	0.015675	-0.191650	0.945557	0.490479	0.316121	-0.401409	0.658766	-0.552237
37251		0.184373	-9.578018	-1.864874	-0.000478	0.024077	0.014058	-0.186035	0.946777	0.489014	0.316023	-0.401217	0.658898	-0.552275
37252		0.214292	-9.636925	-1.988733	-0.014549	0.021510	0.010348	-0.186279	0.944580	0.487549	0.315926	-0.401104	0.659060	-0.552220
37253		0.172259	-9.705733	-1.936312	-0.009155	0.021033	0.006344	-0.187988	0.945068	0.490723	0.315827	-0.400999	0.659182	-0.552207
37254		0.196677	-9.640458	-1.859215	-0.003934	0.014808	0.003736	-0.187500	0.949951	0.484863	0.315750	-0.400924	0.659266	-0.552206
37255		0.235156	-9.553952	-1.886466	-0.006200	0.001648	0.002212	-0.191650	0.944824	0.490479	0.315755	-0.400910	0.659295	-0.552177
37256		0.255930	-9.589271	-1.970390	0.011792	0.004348	0.000491	-0.197266	0.941895	0.481934	0.315744	-0.400850	0.659274	-0.552253
37257		0.187048	-9.674588	-1.882611	0.032127	0.007409	-0.006801	-0.190430	0.944092	0.485596	0.315715	-0.400737	0.659132	-0.552520
37258		0.195850	-9.682185	-1.888300	0.028138	0.014363	-0.003595	-0.188232	0.945557	0.496094	0.315702	-0.400607	0.659036	-0.552737
37259		0.252453	-9.619757	-1.862925	0.033899	0.026099	-0.002303	-0.182861	0.947998	0.488281	0.315646	-0.400418	0.658977	-0.552976
37260		0.274787	-9.550809	-1.743820	0.035395	0.023352	0.002565	-0.190186	0.952637	0.484131	0.315698	-0.400215	0.658884	-0.553204
37261		0.324749	-9.548510	-1.705503	0.017518	0.005745	0.000658	-0.191650	0.948730	0.487793	0.315738	-0.400126	0.658815	-0.553328
37262		0.393920	-9.583956	-1.815137	-0.006677	0.004353	0.000551	-0.196777	0.942383	0.492920	0.315676	-0.400112	0.658874	-0.553303
37263		0.344221	-9.669294	-1.899239	-0.002600	0.015929	0.003012	-0.179199	0.952881	0.486816	0.315512	-0.400018	0.658987	-0.553330
37264		0.321706	-9.649575	-1.865740	0.023483	0.033549	0.001652	-0.190186	0.949219	0.487305	0.315503	-0.399809	0.658957	-0.553521
37265		0.327442	-9.545096	-1.801895	0.037436	0.048143	0.004317	-0.187744	0.941406	0.481934	0.315381	-0.399461	0.658936	-0.553868
37266		0.421360	-9.445969	-1.772809	0.015292	0.043823	0.005977	-0.192627	0.949707	0.482422	0.315231	-0.399190	0.659003	-0.554068
37267		0.443598	-9.478501	-1.796808	-0.019870	0.022379	0.012942	-0.189697	0.949219	0.481934	0.315094	-0.399056	0.659198	-0.554011
37268		0.407812	-9.623268	-1.815447	-0.047906	-0.003994	0.017574	-0.192627	0.952637	0.483643	0.315052	-0.399099	0.659461	-0.553691
37269		0.335375	-9.763757	-1.804280	-0.052440	-0.015000	0.016882	-0.186035	0.949951	0.494385	0.315033	-0.399198	0.659717	-0.553325
37270		0.272529	-9.729216	-1.814710	-0.030517	-0.011842	0.013783	-0.189453	0.951416	0.482422	0.315074	-0.399267	0.659895	-0.553040
37271		0.231016	-9.685866	-1.832051	0.005102	-0.003404	0.007414	-0.194580	0.951660	0.485107	0.315163	-0.399218	0.659872	-0.553051
37272		0.143027	-9.606353	-1.840482	0.042321	0.002679	0.004617	-0.190430	0.947754	0.484131	0.315283	-0.399049	0.659702	-0.553308
37273		0.118390	-9.553340	-1.884641	0.053563	0.004696	0.007581	-0.184814	0.951416	0.489258	0.315466	-0.398837	0.659494	-0.553605
37274		0.114545	-9.525013	-1.857733	0.033573	0.013144	0.012027	-0.187256	0.947021	0.482910	0.315590	-0.398628	0.659421	-0.553771
37275		0.084806	-9.528332	-1.833373	-0.006725	0.012898	0.014469	-0.188477	0.953125	0.483398	0.315578	-0.398507	0.659534	-0.553731
37276		0.113408	-9.579333	-1.863786	-0.040352	0.007572	0.008281	-0.187744	0.957520	0.487061	0.315456	-0.398525	0.659762	-0.553515
37277		0.143791	-9.639335	-1.828770	-0.038632	0.002754	0.005898	-0.190918	0.952637	0.489746	0.315361	-0.398573	0.659965	-0.553293
37278		0.198549	-9.669946	-1.854928	-0.022728	-0.001983	0.001293	-0.187256	0.948242	0.482666	0.315285	-0.398622	0.660085	-0.553157
37279		0.248327	-9.654178	-1.830497	-0.002594	0.000628	0.000687	-0.191162	0.951660	0.489014	0.315297	-0.398619	0.660093	-0.553144
37280		0.344224	-9.666507	-1.875084	0.002085	-0.007890	0.000590	-0.181885	0.950684	0.487793	0.315331	-0.398633	0.660079	-0.553131
37281		0.392533	-9.654152	-1.908184	0.007708	-0.007237	-0.001962	-0.192383	0.952637	0.484375	0.315438	-0.398666	0.660015	-0.553122
37282		0.314436	-9.615464	-1.844988	0.024885	-0.000915	-0.004850	-0.188965	0.950195	0.489502	0.315489	-0.398613	0.659881	-0.553291
37283		0.186037	-9.642208	-1.775788	0.027131	-0.000947	-0.009110	-0.187500	0.950928	0.482666	0.315533	-0.398590	0.659740	-0.553451
37284		0.130338	-9.614458	-1.810161	0.031629	0.000074	-0.005500	-0.186279	0.941895	0.483887	0.315633	-0.398532	0.659567	-0.553641
37285		0.139056	-9.622163	-1.815328	0.035289	0.006873	-0.006521	-0.190430	0.952393	0.474854	0.315690	-0.398448	0.659410	-0.553857
37286		0.199946	-9.574100	-1.756977	0.031533	0.012479	-0.002511	-0.189209	0.947754	0.474365	0.315736	-0.398307	0.659261	-0.554110
37287		0.301367	-9.506492	-1.723804	0.012109	0.020757	-0.001147	-0.188721	0.950684	0.490234	0.315677	-0.398178	0.659233	-0.554269
37288		0.408387	-9.460472	-1.756959	-0.010159	0.018578	0.002426	-0.179688	0.950928	0.486084	0.315539	-0.398100	0.659365	-0.554247
37289		0.464090	-9.466531	-1.797057	-0.035967	0.022779	0.007393	-0.189453	0.951172	0.487793	0.315398	-0.398070	0.659610	-0.554057
37290		0.444031	-9.566780	-1.773414	-0.051370	0.019845	0.012439	-0.180176	0.951904	0.488770	0.315169	-0.398039	0.659956	-0.553797
37291		0.405770	-9.611172	-1.718667	-0.061299	0.021763	0.013380	-0.179443	0.960205	0.484863	0.314970	-0.398044	0.660339	-0.553451
37292		0.303443	-9.690131	-1.750079	-0.054194	0.019296	0.011650	-0.190674	0.947021	0.494629	0.314832	-0.398041	0.660649	-0.553161
37293		0.221329	-9.725273	-1.874290	-0.031358	0.021655	0.009068	-0.184570	0.944092	0.478027	0.314621	-0.397975	0.660912	-0.553015
37294		0.167688	-9.722951	-1.875587	0.000713	0.024368	0.010542	-0.185059	0.950684	0.490723	0.314582	-0.397804	0.660984	-0.553074
37295		0.253137	-9.604480	-1.846034	0.015938	0.021566	0.006920	-0.185303	0.951660	0.480469	0.314575	-0.397631	0.660995	-0.553189
37296		0.261110	-9.479440	-1.835870	0.008005	0.012748	0.009168	-0.180420	0.953613	0.488281	0.314618	-0.397494	0.661000	-0.553257
37297		0.169495	-9.454444	-1.938512	-0.011966	0.003090	0.006627	-0.190430	0.949951	0.489746	0.314659	-0.397489	0.661074	-0.553149
37298		0.094381	-9.581009	-1.956286	-0.037856	-0.013703	0.005291	-0.186523	0.951660	0.476562	0.314620	-0.397616	0.661244	-0.552877
37299		0.140079	-9.642036	-1.949908	-0.038291	-0.015976	0.002416	-0.178955	0.951660	0.484375	0.314630	-0.397756	0.661358	-0.552634
37300		0.131592	-9.621505	-1.953970	-0.047407	-0.017713	0.004535	-0.186523	0.952393	0.495361	0.314672	-0.397947	0.661520	-0.552278
37301		0.134901	-9.622263	-1.935262	-0.029155	-0.018876	0.003099	-0.185059	0.952881	0.483398	0.314704	-0.398098	0.661628	-0.552023
37302		0.080832	-9.632290	-1.929187	-0.004170	-0.031814	-0.000670	-0.182617	0.951172	0.490723	0.314898	-0.398241	0.661544	-0.551909
37303		0.125131	-9.709689	-1.969678	0.002976	-0.039215	-0.003588	-0.186523	0.952637	0.490234	0.315147	-0.398438	0.661411	-0.551783
37304		0.140429	-9.723436	-1.988766	0.023055	-0.027377	-0.009821	-0.194092	0.947021	0.492188	0.315340	-0.398547	0.661203	-0.551844
37305		0.169967	-9.639265	-1.956324	0.038428	-0.019823	-0.017686	-0.189697	0.947021	0.487793	0.315439	-0.398613	0.660943	-0.552051
37306		0.207857	-9.492176	-1.876013	0.038332	-0.023061	-0.021043	-0.196289	0.952881	0.490234	0.315578	-0.398718	0.660647	-0.552250
37307		0.224409	-9.543884	-1.868932	0.027584	-0.032055	-0.015514	-0.190430	0.947998	0.490967	0.315713	-0.398843	0.660409	-0.552368
37308		0.137083	-9.621372	-1.880214	0.026945	-0.037239	-0.012346	-0.188232	0.946533	0.480713	0.315921	-0.398997	0.660168	-0.552425
37309		0.044890	-9.709460	-1.908392	0.028826	-0.033831	-0.015535	-0.188965	0.949463	0.481445	0.316135	-0.399148	0.659887	-0.552529
37310		0.028753	-9.679859	-1.854403	0.034984	-0.030890	-0.020586	-0.182617	0.950684	0.492188	0.316327	-0.399292	0.659570	-0.552693
37311		0.119344	-9.546710	-1.768400	0.038693	-0.031548	-0.023422	-0.178711	0.954834	0.484131	0.316546	-0.399471	0.659243	-0.552829
37312		0.281004	-9.503391	-1.797481	0.038092	-0.041709	-0.021466	-0.191162	0.955322	0.489502	0.316882	-0.399692	0.658863	-0.552930
37313		0.469131	-9.519066	-1.811554	0.025300	-0.048146	-0.021743	-0.189209	0.947754	0.480469	0.317103	-0.399944	0.658567	-0.552974
37314		0.590756	-9.528365	-1.738216	0.001101	-0.049544	-0.021845	-0.185791	0.947510	0.484863	0.317270	-0.400271	0.658358	-0.552890
37315		0.581383	-9.648524	-1.712629	-0.020972	-0.048508	-0.020245	-0.180908	0.956543	0.482422	0.317381	-0.400658	0.658264	-0.552658
37316		0.490712	-9.782223	-1.656459	-0.012848	-0.032828	-0.011796	-0.185059	0.948975	0.485352	0.317531	-0.400913	0.658171	-0.552499
37317		0.398698	-9.762499	-1.654119	0.020042	-0.018422	-0.006970	-0.187256	0.952637	0.483887	0.317682	-0.400980	0.658007	-0.552558
37318		0.358519	-9.566413	-1.721381	0.045536	0.007249	0.000585	-0.185791	0.943115	0.479492	0.317804	-0.400810	0.657815	-0.552839
37319		0.341701	-9.367534	-1.670310	0.043882	0.035604	0.009849	-0.186523	0.950928	0.493408	0.317810	-0.400473	0.657736	-0.553174
37320		0.253975	-9.333299	-1.751528	-0.004299	0.039322	0.016422	-0.181885	0.956787	0.488525	0.317642	-0.400213	0.657944	-0.553212
37321		0.226571	-9.472417	-1.787660	-0.059153	0.029224	0.016567	-0.181396	0.952148	0.489014	0.317402	-0.400152	0.658346	-0.552914
37322		0.250661	-9.661634	-1.801752	-0.094104	0.020943	0.018599	-0.189941	0.952148	0.483398	0.317097	-0.400215	0.658897	-0.552387
37323		0.328311	-9.719919	-1.802108	-0.094769	0.014986	0.013632	-0.187012	0.949951	0.489014	0.316751	-0.400299	0.659418	-0.551903
37324		0.266735	-9.696646	-1.810754	-0.066747	0.013609	0.008964	-0.181885	0.945068	0.487305	0.316494	-0.400356	0.659797	-0.551557
37325		0.158085	-9.612116	-1.826539	-0.033393	0.012479	0.013781	-0.188232	0.944092	0.488525	0.316413	-0.400320	0.660022	-0.551360
37326		0.077562	-9.557542	-1.941286	-0.020904	0.015252	0.017364	-0.184326	0.941895	0.485352	0.316323	-0.400199	0.660227	-0.551254
37327		0.081051	-9.603637	-1.992465	-0.020735	0.020641	0.011923	-0.180176	0.941406	0.498535	0.316210	-0.400093	0.660411	-0.551174
37328		0.143812	-9.710721	-2.085260	-0.020516	0.033520	0.002962	-0.184326	0.945801	0.497314	0.315990	-0.400001	0.660625	-0.551111
37329		0.257625	-9.688185	-2.020691	-0.011751	0.033024	-0.007417	-0.181641	0.938965	0.486572	0.315736	-0.399927	0.660763	-0.551146
37330		0.282719	-9.568553	-1.938303	0.000999	0.028773	-0.012300	-0.188721	0.945068	0.490723	0.315557	-0.399872	0.660787	-0.551260
37331		0.256064	-9.501974	-1.858049	0.005206	0.011562	0.000366	-0.183838	0.953857	0.485840	0.315498	-0.399793	0.660806	-0.551327
37332		0.300492	-9.484599	-1.856846	-0.010295	-0.006386	0.012448	-0.186035	0.951660	0.490234	0.315601	-0.399775	0.660857	-0.551221
37333		0.350742	-9.567756	-1.912408	-0.044668	-0.019477	0.014104	-0.188477	0.952637	0.491699	0.315639	-0.399895	0.661055	-0.550873
37334		0.380902	-9.659678	-1.960684	-0.062472	-0.022126	0.005060	-0.177002	0.946777	0.496338	0.315571	-0.400115	0.661305	-0.550453
37335		0.351367	-9.711009	-1.916462	-0.042487	-0.015952	-0.005141	-0.187256	0.946777	0.491699	0.315555	-0.400356	0.661435	-0.550131
37336		0.271051	-9.641884	-1.839470	-0.009432	-0.006454	-0.006702	-0.184326	0.947266	0.490967	0.315525	-0.400434	0.661442	-0.550082
37337		0.157775	-9.562290	-1.767544	0.020957	0.001837	0.005258	-0.183105	0.951660	0.490967	0.315629	-0.400337	0.661363	-0.550189
37338		0.178268	-9.547717	-1.879722	0.015265	-0.003853	0.011922	-0.187500	0.947266	0.489746	0.315791	-0.400246	0.661309	-0.550226
37339		0.212028	-9.539097	-1.918889	0.001490	0.000426	0.013573	-0.181152	0.949219	0.490967	0.315850	-0.400147	0.661351	-0.550214
37340		0.254588	-9.571298	-1.889514	-0.036164	0.001971	0.010523	-0.190430	0.947998	0.491699	0.315808	-0.400181	0.661544	-0.549982
37341		0.329702	-9.566372	-1.946281	-0.067733	0.001126	0.002513	-0.187500	0.947266	0.500244	0.315555	-0.400309	0.661879	-0.549630
37342		0.261439	-9.549412	-1.933001	-0.050155	0.017201	0.004386	-0.191162	0.948242	0.495605	0.315288	-0.400324	0.662194	-0.549393
37343		0.126229	-9.540781	-1.818324	-0.027419	0.022074	0.007797	-0.187744	0.944092	0.497314	0.315072	-0.400220	0.662423	-0.549318
37344		0.038395	-9.529041	-1.890910	-0.015482	0.025020	0.014510	-0.181885	0.952637	0.487793	0.314925	-0.400049	0.662627	-0.549280
37345		0.077304	-9.603412	-1.959886	-0.024712	0.022519	0.013882	-0.176758	0.944580	0.497314	0.314844	-0.399938	0.662807	-0.549190
37346		0.206929	-9.668046	-2.011613	-0.032256	0.019849	0.008042	-0.190430	0.938965	0.495361	0.314727	-0.399916	0.663020	-0.549016
37347		0.322041	-9.662527	-1.977424	-0.034669	0.007777	-0.003753	-0.182373	0.942139	0.507080	0.314504	-0.399962	0.663213	-0.548877
37348		0.319067	-9.621485	-2.030924	-0.039127	-0.000356	-0.005207	-0.182617	0.946777	0.492188	0.314348	-0.400102	0.663404	-0.548633
37349		0.214549	-9.591593	-2.048410	-0.022561	0.001191	-0.000796	-0.184570	0.929688	0.495361	0.314302	-0.400161	0.663487	-0.548516
37350		0.030193	-9.561515	-1.978878	0.000749	0.006255	0.003636	-0.185791	0.946533	0.490967	0.314275	-0.400110	0.663529	-0.548519
37351		0.009756	-9.546338	-1.981602	0.010139	0.002046	0.005161	-0.184814	0.944336	0.498047	0.314339	-0.400032	0.663490	-0.548586
37352		0.115211	-9.537834	-1.990458	0.006102	-0.002015	-0.000880	-0.185791	0.942139	0.499268	0.314370	-0.400022	0.663461	-0.548611
37353		0.221312	-9.623242	-2.043959	-0.012091	-0.013996	-0.010650	-0.182373	0.951660	0.494385	0.314347	-0.400164	0.663461	-0.548521
37354		0.313586	-9.670023	-2.092962	-0.013347	-0.012588	-0.014699	-0.184814	0.947021	0.495850	0.314351	-0.400339	0.663417	-0.548444
37355		0.214668	-9.668145	-2.066952	-0.004371	-0.006255	-0.014270	-0.185547	0.944580	0.498047	0.314321	-0.400448	0.663368	-0.548440
37356		0.098712	-9.561775	-2.033675	0.029137	0.008702	-0.004126	-0.185791	0.936035	0.492432	0.314352	-0.400343	0.663251	-0.548640
37357		-0.004087	-9.462938	-1.921446	0.052005	0.011509	-0.002589	-0.180176	0.953613	0.499512	0.314445	-0.400157	0.663041	-0.548976
37358		0.092568	-9.488727	-1.951717	0.035212	-0.006127	-0.006806	-0.182617	0.944580	0.506836	0.314622	-0.400145	0.662825	-0.549145
37359		0.276462	-9.594212	-1.974272	0.005529	-0.018144	-0.012328	-0.186035	0.950439	0.499512	0.314685	-0.400287	0.662739	-0.549109
37360		0.412035	-9.736813	-1.951489	-0.008516	-0.025677	-0.017350	-0.184082	0.944092	0.498779	0.314719	-0.400508	0.662663	-0.549019
37361		0.413653	-9.679872	-1.886371	0.006211	-0.020405	-0.017343	-0.188965	0.945557	0.491699	0.314780	-0.400678	0.662534	-0.549017
37362		0.300076	-9.546083	-1.808444	0.014859	-0.015254	-0.013021	-0.180908	0.941162	0.491699	0.314842	-0.400753	0.662386	-0.549104
37363		0.246559	-9.477870	-1.806070	0.029994	-0.017701	-0.007258	-0.184326	0.948975	0.499268	0.315052	-0.400811	0.662161	-0.549214
37364		0.309511	-9.529110	-1.826219	0.028672	-0.020980	-0.003150	-0.185791	0.944336	0.492432	0.315261	-0.400846	0.661970	-0.549298
37365		0.405214	-9.553874	-1.861297	0.000669	-0.014726	-0.002739	-0.194580	0.942383	0.492676	0.315336	-0.400914	0.661921	-0.549264
37366		0.468354	-9.591190	-1.896332	-0.033530	-0.009673	-0.004791	-0.177979	0.944824	0.495850	0.315183	-0.401014	0.662070	-0.549100
37367		0.420758	-9.590390	-1.875898	-0.039269	0.004186	-0.002602	-0.188721	0.946289	0.490479	0.315081	-0.401144	0.662230	-0.548870
37368		0.264239	-9.581846	-1.816332	-0.024457	0.015507	0.005421	-0.178467	0.937012	0.502441	0.314932	-0.401081	0.662399	-0.548798
37369		0.133312	-9.547740	-1.852485	-0.013620	0.015987	0.013651	-0.182373	0.934326	0.487549	0.314893	-0.400998	0.662556	-0.548691
37370		0.107813	-9.561588	-1.963395	-0.009949	0.023157	0.016738	-0.187012	0.947998	0.490723	0.314839	-0.400834	0.662701	-0.548667
37371		0.226960	-9.590370	-1.982334	-0.021893	0.020187	0.010001	-0.186035	0.945312	0.495361	0.314709	-0.400723	0.662878	-0.548609
37372		0.292143	-9.631571	-2.055012	-0.039555	0.013646	0.006473	-0.187500	0.944580	0.496826	0.314532	-0.400713	0.663119	-0.548426
37373		0.286633	-9.583867	-2.013228	-0.042380	0.012784	0.001657	-0.175537	0.948486	0.500732	0.314313	-0.400732	0.663364	-0.548242
37374		0.145847	-9.550593	-1.998565	-0.030172	0.009090	0.003929	-0.178223	0.942139	0.495117	0.314272	-0.400799	0.663503	-0.548049
37375		0.049572	-9.594713	-2.023062	-0.016163	0.006308	0.007790	-0.184814	0.947510	0.497803	0.314287	-0.400802	0.663588	-0.547935
37376		0.036055	-9.667341	-2.089060	0.000553	0.003314	0.009673	-0.188721	0.945312	0.500732	0.314329	-0.400720	0.663623	-0.547928
37377		0.155692	-9.709429	-2.096873	0.012121	0.008380	0.001340	-0.180176	0.941650	0.502686	0.314297	-0.400607	0.663620	-0.548033
37378		0.220088	-9.641069	-2.090772	0.025085	0.007136	-0.009537	-0.180908	0.939941	0.496094	0.314329	-0.400581	0.663492	-0.548188
37379		0.202356	-9.532374	-2.047022	0.029352	0.009175	-0.010765	-0.180176	0.949463	0.496826	0.314363	-0.400535	0.663335	-0.548392
37380		0.125563	-9.482215	-1.989728	0.017345	0.001859	-0.005313	-0.188232	0.944092	0.497559	0.314445	-0.400530	0.663218	-0.548491
37381		0.171263	-9.477800	-1.978745	0.003668	-0.008443	-0.003357	-0.183594	0.947266	0.494873	0.314464	-0.400546	0.663189	-0.548504
37382		0.245728	-9.574513	-1.966680	-0.004652	-0.011737	-0.003512	-0.187256	0.950439	0.500488	0.314524	-0.400628	0.663157	-0.548448
37383		0.320367	-9.671073	-1.955326	-0.004781	-0.009990	-0.005638	-0.188965	0.948730	0.496338	0.314527	-0.400691	0.663149	-0.548410
37384		0.328467	-9.702682	-1.950855	0.005116	-0.007252	-0.009391	-0.178223	0.945557	0.492188	0.314520	-0.400724	0.663090	-0.548461
37385		0.285389	-9.601116	-1.922123	0.029344	-0.006108	-0.013195	-0.185059	0.945801	0.497070	0.314672	-0.400783	0.662853	-0.548617
37386		0.244047	-9.554543	-1.896306	0.034436	-0.007059	-0.005171	-0.187744	0.946533	0.495605	0.314809	-0.400743	0.662664	-0.548796
37387		0.273146	-9.514785	-1.936070	0.031057	-0.007413	-0.002850	-0.179932	0.944336	0.496582	0.314925	-0.400681	0.662507	-0.548964
37388		0.326347	-9.504688	-1.941731	0.010642	-0.006288	-0.002529	-0.189453	0.949463	0.498779	0.315034	-0.400721	0.662417	-0.548981
37389		0.297675	-9.558044	-1.888813	-0.005577	-0.008476	-0.003365	-0.182861	0.942871	0.502686	0.315012	-0.400752	0.662437	-0.548947
37390		0.264653	-9.583811	-1.877813	-0.013111	-0.010470	-0.001109	-0.179199	0.949463	0.497559	0.315026	-0.400845	0.662482	-0.548816
37391		0.247051	-9.597436	-1.904421	-0.020212	-0.010549	-0.000019	-0.186768	0.937500	0.494629	0.315080	-0.400977	0.662521	-0.548642
37392		0.274116	-9.606293	-1.921617	-0.011361	-0.001781	0.006369	-0.185059	0.937012	0.495850	0.315056	-0.400954	0.662612	-0.548563
37393		0.215281	-9.639753	-1.923408	-0.001812	0.001913	0.003086	-0.189209	0.941895	0.500977	0.315042	-0.400917	0.662653	-0.548548
37394		0.200020	-9.601757	-1.916295	0.013754	0.016339	0.006055	-0.186279	0.938721	0.499756	0.314972	-0.400729	0.662698	-0.548671
37395		0.147944	-9.562810	-1.935511	0.012602	0.018137	0.000702	-0.183594	0.936035	0.494385	0.314887	-0.400584	0.662723	-0.548795
37396		0.149438	-9.525593	-1.956331	0.011016	0.018016	-0.003486	-0.175781	0.938232	0.492920	0.314811	-0.400488	0.662718	-0.548916
37397		0.205538	-9.556964	-1.977298	-0.003056	0.016117	0.000818	-0.185059	0.948242	0.502686	0.314799	-0.400474	0.662738	-0.548908
37398		0.233402	-9.578606	-1.985475	-0.012064	0.014738	0.001628	-0.181396	0.945801	0.489502	0.314681	-0.400418	0.662856	-0.548875
37399		0.220506	-9.607050	-1.978929	-0.013170	0.012253	0.003134	-0.179199	0.941406	0.493164	0.314638	-0.400396	0.662926	-0.548831
37400		0.192754	-9.597424	-1.965652	-0.003762	0.005232	-0.000007	-0.185547	0.939453	0.496582	0.314655	-0.400413	0.662930	-0.548803
37401		0.210006	-9.595767	-1.934393	0.000746	-0.009355	-0.002810	-0.188477	0.942383	0.502441	0.314686	-0.400453	0.662911	-0.548780
37402		0.249065	-9.603634	-2.002175	0.006048	-0.010187	-0.005477	-0.179199	0.936279	0.501953	0.314693	-0.400478	0.662881	-0.548794
37403		0.289791	-9.609356	-2.009312	0.004668	-0.006358	-0.003560	-0.181641	0.944092	0.494873	0.314757	-0.400545	0.662835	-0.548763
37404		0.275299	-9.583823	-1.994896	0.004865	-0.003088	-0.005549	-0.189941	0.934814	0.495117	0.314801	-0.400589	0.662773	-0.548781
37405		0.248123	-9.587167	-1.971825	0.006170	0.003004	-0.004999	-0.185303	0.944580	0.498535	0.314725	-0.400537	0.662780	-0.548854
37406		0.200640	-9.587821	-1.944369	0.009768	0.004819	-0.001840	-0.186523	0.948730	0.509033	0.314719	-0.400487	0.662755	-0.548924
37407		0.203329	-9.617568	-1.963282	0.007518	0.004814	0.002409	-0.181885	0.944824	0.493164	0.314699	-0.400411	0.662783	-0.548958
37408		0.186134	-9.619555	-1.993064	0.013691	0.008156	0.001455	-0.180908	0.945557	0.503906	0.314747	-0.400343	0.662728	-0.549046
37409		0.112528	-9.665852	-1.953838	0.030737	0.019132	0.001192	-0.185547	0.945801	0.500244	0.314774	-0.400186	0.662648	-0.549241
37410		0.103753	-9.568348	-1.955091	0.041411	0.023491	0.003866	-0.183105	0.944580	0.496826	0.314792	-0.399936	0.662553	-0.549529
37411		0.153217	-9.462348	-1.939826	0.038659	0.027631	-0.005073	-0.184570	0.948730	0.494873	0.314762	-0.399739	0.662434	-0.549831
37412		0.190652	-9.491877	-1.952096	0.027073	0.023697	-0.012293	-0.181885	0.948975	0.494873	0.314681	-0.399624	0.662331	-0.550086
37413		0.268287	-9.539076	-1.966545	0.014011	0.008627	-0.010567	-0.188477	0.943604	0.484619	0.314674	-0.399623	0.662240	-0.550200
37414		0.327021	-9.625052	-1.991990	-0.002013	-0.002038	-0.003016	-0.190430	0.945068	0.496826	0.314660	-0.399625	0.662234	-0.550213
37415		0.323740	-9.658051	-1.933693	0.001947	-0.004006	-0.004996	-0.180420	0.953857	0.491455	0.314622	-0.399623	0.662238	-0.550233
37416		0.276640	-9.646243	-1.913339	0.021901	-0.004930	-0.007580	-0.186768	0.945801	0.489990	0.314762	-0.399664	0.662059	-0.550338
37417		0.230038	-9.609994	-1.905367	0.037655	-0.002195	-0.004970	-0.179443	0.952637	0.493896	0.314880	-0.399587	0.661867	-0.550557
37418		0.232934	-9.571174	-1.861955	0.037347	-0.006206	-0.005722	-0.178467	0.941406	0.496582	0.315086	-0.399588	0.661627	-0.550727
37419		0.253921	-9.562590	-1.867641	0.036932	-0.010609	-0.005169	-0.184814	0.946777	0.494873	0.315297	-0.399613	0.661400	-0.550860
37420		0.298894	-9.596128	-1.830312	0.026803	-0.012324	-0.006270	-0.193115	0.947510	0.489502	0.315434	-0.399634	0.661233	-0.550967
37421		0.299550	-9.596724	-1.827077	0.014404	-0.011895	-0.006549	-0.184082	0.954346	0.488525	0.315463	-0.399626	0.661151	-0.551055
37422		0.304971	-9.586589	-1.808000	0.009537	-0.009136	-0.005049	-0.192139	0.948975	0.496826	0.315560	-0.399676	0.661047	-0.551088
37423		0.255355	-9.602199	-1.833316	0.006100	-0.002024	-0.000888	-0.182373	0.951172	0.486328	0.315529	-0.399622	0.661060	-0.551130
37424		0.252622	-9.572878	-1.811808	0.010972	0.008367	0.003396	-0.182617	0.952148	0.494141	0.315588	-0.399553	0.661013	-0.551201
37425		0.284776	-9.559608	-1.815398	0.005781	0.009960	0.008812	-0.185791	0.941895	0.484375	0.315627	-0.399459	0.661034	-0.551222
37426		0.320202	-9.525788	-1.870944	-0.004320	0.018569	0.008850	-0.185303	0.952393	0.487061	0.315558	-0.399325	0.661133	-0.551241
37427		0.280821	-9.612089	-1.845667	-0.006612	0.022835	0.006224	-0.179688	0.947021	0.488281	0.315463	-0.399198	0.661232	-0.551268
37428		0.270583	-9.645207	-1.874114	-0.015656	0.026435	0.008263	-0.190674	0.947510	0.498291	0.315366	-0.399107	0.661371	-0.551222
37429		0.343062	-9.649249	-1.881785	-0.018167	0.029918	0.008241	-0.184082	0.956787	0.494629	0.315127	-0.398932	0.661608	-0.551201
37430		0.307591	-9.595430	-1.881408	-0.005104	0.030389	0.012220	-0.187012	0.950195	0.491699	0.315030	-0.398745	0.661743	-0.551230
37431		0.251051	-9.564169	-1.859931	0.005927	0.031299	0.013798	-0.173584	0.952393	0.487793	0.314940	-0.398495	0.661852	-0.551331
37432		0.157066	-9.544473	-1.858010	0.001534	0.031004	0.012895	-0.186279	0.943604	0.497070	0.314961	-0.398358	0.661900	-0.551362
37433		0.167563	-9.530476	-1.920665	-0.019668	0.033340	0.011405	-0.190674	0.949707	0.492920	0.314750	-0.398187	0.662142	-0.551315
37434		0.176803	-9.578332	-1.947926	-0.034452	0.035516	0.013207	-0.188477	0.941162	0.488770	0.314466	-0.398002	0.662466	-0.551221
37435		0.161848	-9.668723	-1.905590	-0.022587	0.044841	0.009611	-0.191406	0.943604	0.485107	0.314167	-0.397776	0.662739	-0.551226
37436		0.106446	-9.636928	-1.886631	-0.005881	0.054232	0.009186	-0.184814	0.951904	0.486816	0.313857	-0.397445	0.662959	-0.551376
37437		0.137715	-9.568875	-1.886490	0.004182	0.062989	0.008058	-0.192139	0.946289	0.490479	0.313599	-0.397106	0.663110	-0.551587
37438		0.203358	-9.579498	-1.872371	0.001341	0.064930	0.007875	-0.183838	0.950195	0.486572	0.313240	-0.396713	0.663331	-0.551808
37439		0.309948	-9.558103	-1.889550	-0.007921	0.052489	0.010147	-0.188477	0.947510	0.489502	0.313021	-0.396454	0.663511	-0.551902
37440		0.364412	-9.519506	-1.855252	-0.025029	0.036231	0.010489	-0.182373	0.946777	0.496094	0.312786	-0.396279	0.663762	-0.551858
37441		0.356126	-9.499399	-1.857564	-0.042834	0.021887	0.011770	-0.183594	0.946289	0.496582	0.312620	-0.396255	0.664047	-0.551628
37442		0.348912	-9.545861	-1.859806	-0.056883	0.015067	0.014795	-0.186035	0.944580	0.489258	0.312447	-0.396273	0.664394	-0.551294
37443		0.350475	-9.655739	-1.938412	-0.047417	0.015842	0.012226	-0.187988	0.944580	0.495361	0.312280	-0.396257	0.664686	-0.551048
37444		0.285706	-9.700858	-2.023121	-0.023852	0.029108	0.010588	-0.186035	0.947754	0.488037	0.312083	-0.396115	0.664921	-0.550978
37445		0.172014	-9.690269	-2.012298	0.009260	0.046372	0.009762	-0.185547	0.951660	0.499268	0.311932	-0.395825	0.665014	-0.551160
37446		0.070505	-9.607277	-1.933246	0.022656	0.050131	0.006465	-0.187012	0.938477	0.487793	0.311781	-0.395509	0.665062	-0.551414
37447		0.095194	-9.567375	-2.060451	0.009975	0.029237	0.006480	-0.192627	0.948975	0.485596	0.311690	-0.395308	0.665115	-0.551546
37448		0.129816	-9.586071	-2.144144	0.006468	0.015769	0.008381	-0.193359	0.945557	0.492432	0.311644	-0.395126	0.665164	-0.551643
37449		0.120915	-9.614991	-2.049037	0.011443	0.003150	0.004524	-0.187012	0.934814	0.494873	0.311639	-0.395006	0.665170	-0.551724
37450		0.115340	-9.543649	-2.015299	0.000003	-0.012732	-0.001700	-0.196289	0.941162	0.497803	0.311688	-0.395068	0.665158	-0.551667
37451		0.155539	-9.549194	-2.023369	-0.008214	-0.025867	-0.004287	-0.183838	0.942871	0.489990	0.311692	-0.395155	0.665187	-0.551567
37452		0.076033	-9.604858	-2.006116	0.007552	-0.038371	-0.003893	-0.190674	0.945801	0.494873	0.311951	-0.395353	0.665026	-0.551474
37453		0.044774	-9.696128	-1.928065	0.030191	-0.047349	-0.008831	-0.182129	0.947754	0.498535	0.312241	-0.395504	0.664766	-0.551515
37454		0.097014	-9.714115	-1.975524	0.043721	-0.043552	-0.017489	-0.180908	0.948730	0.487061	0.312580	-0.395711	0.664391	-0.551625
37455		0.149463	-9.675590	-1.955494	0.058036	-0.028194	-0.022662	-0.188965	0.945312	0.487793	0.312896	-0.395853	0.663937	-0.551891
37456		0.144149	-9.588936	-1.884696	0.071232	-0.017440	-0.022896	-0.184326	0.945312	0.491455	0.313113	-0.395849	0.663501	-0.552295
37457		0.147920	-9.493746	-1.771742	0.059989	-0.021627	-0.022542	-0.190918	0.948730	0.496582	0.313348	-0.395926	0.663095	-0.552594
37458		0.207773	-9.474100	-1.754794	0.043119	-0.017959	-0.011074	-0.180176	0.946289	0.485596	0.313496	-0.395918	0.662858	-0.552801
37459		0.277022	-9.502561	-1.764093	0.018329	-0.017067	-0.011735	-0.186768	0.957520	0.489746	0.313666	-0.396056	0.662657	-0.552846
37460		0.385388	-9.585827	-1.754104	-0.005972	-0.008575	-0.009627	-0.189453	0.946289	0.494385	0.313672	-0.396160	0.662626	-0.552806
37461		0.418853	-9.596877	-1.745442	-0.018552	-0.001093	-0.006850	-0.190918	0.942871	0.492676	0.313555	-0.396225	0.662721	-0.552711
37462		0.401927	-9.635618	-1.756802	-0.015348	0.004145	-0.002625	-0.185791	0.949219	0.498291	0.313426	-0.396224	0.662836	-0.552647
37463		0.352002	-9.653430	-1.844812	0.005831	0.016674	-0.002841	-0.182617	0.944580	0.487061	0.313340	-0.396146	0.662865	-0.552717
37464		0.304399	-9.631791	-1.892212	0.024708	0.033808	-0.001662	-0.184082	0.948975	0.490234	0.313273	-0.395962	0.662817	-0.552945
37465		0.353583	-9.550068	-1.864549	0.017669	0.039080	-0.000714	-0.184326	0.952881	0.483154	0.313146	-0.395758	0.662826	-0.553151
37466		0.387576	-9.524405	-1.875156	0.001181	0.028707	0.004572	-0.190918	0.948730	0.484375	0.313069	-0.395618	0.662880	-0.553231
37467		0.341843	-9.529147	-1.885678	-0.011798	0.014817	0.013128	-0.197266	0.952393	0.487793	0.313001	-0.395484	0.663025	-0.553191
37468		0.279062	-9.545070	-1.862331	-0.028219	0.001274	0.009729	-0.182617	0.944092	0.491211	0.312884	-0.395430	0.663232	-0.553047
37469		0.244044	-9.570048	-1.855362	-0.038336	-0.002542	0.012033	-0.190186	0.947021	0.488037	0.312865	-0.395504	0.663435	-0.552763
37470		0.241556	-9.593869	-1.846214	-0.038781	-0.002334	0.009757	-0.190430	0.944824	0.484863	0.312783	-0.395539	0.663654	-0.552520
37471		0.244424	-9.582332	-1.834818	-0.034438	-0.009863	0.010169	-0.184814	0.942139	0.488281	0.312760	-0.395594	0.663830	-0.552282
37472		0.237265	-9.629306	-1.834313	-0.029146	-0.018868	0.002986	-0.185059	0.944092	0.498291	0.312806	-0.395751	0.663920	-0.552036
37473		0.249302	-9.694213	-1.889661	-0.026526	-0.011341	0.006852	-0.187012	0.941895	0.488525	0.312813	-0.395838	0.664055	-0.551808
37474		0.185453	-9.737662	-1.911208	-0.009609	0.001294	0.004463	-0.184082	0.951172	0.490723	0.312798	-0.395825	0.664123	-0.551744
37475		0.156623	-9.646109	-1.847403	0.004036	0.013988	0.003088	-0.187988	0.949219	0.493408	0.312786	-0.395747	0.664134	-0.551792
37476		0.142411	-9.476053	-1.821051	0.009558	0.024887	0.007023	-0.183105	0.952637	0.490479	0.312709	-0.395555	0.664191	-0.551906
37477		0.169353	-9.391084	-1.792487	-0.004626	0.020171	0.011971	-0.187012	0.949463	0.497070	0.312686	-0.395429	0.664281	-0.551900
37478		0.176259	-9.456601	-1.931752	-0.036527	0.020994	0.012314	-0.183105	0.947754	0.486084	0.312502	-0.395350	0.664562	-0.551723
37479		0.114944	-9.635374	-2.013811	-0.069273	0.027915	0.012035	-0.184570	0.950439	0.497070	0.312225	-0.395356	0.664965	-0.551390
37480		0.050336	-9.727062	-2.013133	-0.067126	0.042354	0.007334	-0.186523	0.944824	0.482910	0.311824	-0.395303	0.665408	-0.551121
37481		0.041960	-9.661909	-1.945527	-0.035987	0.042360	0.001176	-0.190186	0.946777	0.490234	0.311506	-0.395193	0.665667	-0.551067
37482		0.067524	-9.656001	-1.995391	-0.003770	0.034931	-0.003526	-0.187256	0.942139	0.487793	0.311275	-0.395034	0.665773	-0.551183
37483		0.189016	-9.677814	-2.136710	0.020433	0.026098	-0.004229	-0.186279	0.945312	0.492676	0.311194	-0.394879	0.665727	-0.551395
37484		0.303137	-9.703874	-2.196886	0.028639	0.018365	-0.007885	-0.182129	0.956299	0.498779	0.311169	-0.394767	0.665615	-0.551625
37485		0.371149	-9.581165	-2.098259	0.025916	0.018580	-0.005930	-0.186523	0.953857	0.492920	0.311185	-0.394681	0.665501	-0.551814
37486		0.283044	-9.481939	-2.019990	0.011216	0.008754	-0.003184	-0.188721	0.947021	0.500000	0.311189	-0.394634	0.665451	-0.551906
37487		0.067954	-9.495293	-1.965988	0.009023	-0.011371	-0.002445	-0.190674	0.944092	0.497559	0.311261	-0.394667	0.665395	-0.551910
37488		0.026796	-9.632137	-1.908662	0.013705	-0.030092	-0.003578	-0.184326	0.948486	0.487793	0.311429	-0.394765	0.665274	-0.551890
37489		0.130030	-9.688794	-1.937120	0.016824	-0.036211	-0.007219	-0.188477	0.942383	0.493652	0.311700	-0.394945	0.665056	-0.551872
37490		0.249693	-9.639360	-1.958494	0.025016	-0.031225	-0.009187	-0.185547	0.945557	0.491699	0.311903	-0.395061	0.664848	-0.551924
37491		0.301252	-9.600102	-1.941748	0.035372	-0.024508	-0.017531	-0.183350	0.955811	0.483643	0.312096	-0.395184	0.664562	-0.552071
37492		0.309826	-9.538358	-1.888616	0.041191	-0.022380	-0.014570	-0.194824	0.957031	0.485596	0.312356	-0.395281	0.664225	-0.552260
37493		0.390003	-9.506149	-1.824891	0.031081	-0.018064	-0.007755	-0.194824	0.955078	0.484619	0.312493	-0.395266	0.664028	-0.552430
37494		0.431905	-9.497361	-1.776380	0.011048	-0.022451	-0.005181	-0.188965	0.955078	0.487061	0.312599	-0.395311	0.663921	-0.552467
37495		0.433906	-9.551803	-1.781855	-0.016643	-0.027064	-0.002508	-0.191650	0.941162	0.488281	0.312695	-0.395477	0.663915	-0.552301
37496		0.342099	-9.705148	-1.817756	-0.036069	-0.036230	-0.000169	-0.181152	0.938721	0.485107	0.312739	-0.395698	0.664018	-0.551994
37497		0.206702	-9.728857	-1.783255	-0.011106	-0.018645	0.000811	-0.181152	0.943848	0.490723	0.312865	-0.395845	0.663996	-0.551844
37498		0.111472	-9.557328	-1.675378	0.008639	0.000528	0.007177	-0.184570	0.943848	0.491455	0.312974	-0.395816	0.663961	-0.551845
37499		0.104265	-9.453460	-1.784871	0.008773	0.009067	0.010413	-0.185547	0.952881	0.489502	0.313019	-0.395701	0.663978	-0.551881
37500		0.151658	-9.418290	-1.893412	-0.005461	0.013545	0.009683	-0.183350	0.951172	0.487061	0.312997	-0.395600	0.664061	-0.551867
37501		0.166775	-9.620080	-2.001701	-0.027566	0.016666	0.007608	-0.181885	0.950684	0.493408	0.312894	-0.395569	0.664232	-0.551740
37502		0.296667	-9.734611	-2.021795	-0.038440	0.026068	0.001711	-0.184570	0.947266	0.493896	0.312678	-0.395567	0.664465	-0.551585
37503		0.268658	-9.641958	-1.963460	-0.036965	0.035711	0.004250	-0.187256	0.944824	0.492920	0.312398	-0.395483	0.664741	-0.551471
37504		0.140432	-9.497825	-1.908920	-0.032689	0.022855	0.004760	-0.184082	0.949219	0.493408	0.312185	-0.395426	0.664977	-0.551348
37505		0.024234	-9.538941	-1.932022	-0.028504	0.005017	0.009417	-0.187256	0.939209	0.497803	0.312139	-0.395438	0.665141	-0.551167
37506		0.032888	-9.671238	-2.068352	-0.004650	-0.002863	0.009166	-0.187256	0.937744	0.496826	0.312167	-0.395404	0.665210	-0.551092
37507		0.137989	-9.769583	-2.111281	0.014721	0.005236	0.000083	-0.185059	0.953613	0.491699	0.312170	-0.395330	0.665182	-0.551178
37508		0.267547	-9.617328	-2.048627	0.016423	0.013922	-0.014833	-0.186768	0.946777	0.493896	0.312109	-0.395306	0.665082	-0.551350
37509		0.263827	-9.489249	-1.948440	0.007979	0.002127	-0.018256	-0.191895	0.939697	0.493164	0.312045	-0.395369	0.664998	-0.551442
37510		0.164904	-9.475346	-1.928870	0.006833	-0.025133	-0.012063	-0.180176	0.941895	0.494141	0.312108	-0.395492	0.664900	-0.551437
37511		0.106143	-9.641244	-1.948482	0.014402	-0.034149	-0.001124	-0.186279	0.946533	0.489014	0.312393	-0.395659	0.664722	-0.551370
37512		0.195136	-9.739202	-1.961027	0.018155	-0.026630	0.000632	-0.183838	0.945557	0.486084	0.312619	-0.395723	0.664569	-0.551381
37513		0.315885	-9.662091	-1.938497	0.011692	-0.017283	-0.008387	-0.188477	0.950684	0.485107	0.312750	-0.395826	0.664425	-0.551405
37514		0.335328	-9.526278	-1.825153	0.010509	-0.020831	-0.013656	-0.181885	0.946777	0.488281	0.312843	-0.395943	0.664277	-0.551448
37515		0.230329	-9.453404	-1.764700	0.009262	-0.031843	-0.015386	-0.182373	0.938965	0.495850	0.313029	-0.396173	0.664077	-0.551418
37516		0.179824	-9.496344	-1.835356	0.011911	-0.031043	-0.005233	-0.178955	0.944824	0.489746	0.313240	-0.396339	0.663925	-0.551362
37517		0.214908	-9.632019	-1.886595	-0.002033	-0.011964	-0.000079	-0.187012	0.955811	0.484619	0.313365	-0.396442	0.663871	-0.551281
37518		0.292724	-9.733206	-1.908528	0.002635	0.009318	-0.003606	-0.183350	0.943604	0.487549	0.313322	-0.396387	0.663863	-0.551355
37519		0.313883	-9.641624	-1.869076	0.006152	0.020322	-0.006122	-0.185791	0.952148	0.496338	0.313232	-0.396320	0.663857	-0.551463
37520		0.292539	-9.454827	-1.900413	0.002508	0.021673	-0.000598	-0.192139	0.949463	0.479980	0.313130	-0.396217	0.663903	-0.551537
37521		0.234076	-9.394019	-1.859085	0.000008	0.018769	0.009690	-0.189209	0.947998	0.499023	0.313045	-0.396014	0.664000	-0.551615
37522		0.148991	-9.459878	-1.860943	-0.027955	0.005547	0.014468	-0.190430	0.948975	0.487549	0.312964	-0.395959	0.664221	-0.551434
37523		0.219899	-9.664590	-1.949736	-0.061248	-0.002593	0.014979	-0.184814	0.941650	0.488525	0.312825	-0.396005	0.664563	-0.551068
37524		0.266740	-9.804731	-1.935775	-0.045721	-0.005241	0.000748	-0.185547	0.949707	0.491943	0.312723	-0.396143	0.664759	-0.550790
37525		0.286355	-9.737290	-1.886111	-0.008059	-0.002826	-0.006829	-0.186768	0.938477	0.487305	0.312698	-0.396209	0.664762	-0.550753
37526		0.252495	-9.554082	-1.924475	0.010078	-0.001838	-0.006230	-0.186279	0.947510	0.491455	0.312711	-0.396208	0.664699	-0.550824
37527		0.185467	-9.466649	-2.006842	0.013027	0.002947	0.004667	-0.183350	0.945068	0.494385	0.312769	-0.396124	0.664663	-0.550894
37528		0.167887	-9.491352	-1.961497	0.005899	0.003218	0.009760	-0.186768	0.942871	0.486816	0.312841	-0.396053	0.664671	-0.550894
37529		0.184354	-9.594066	-1.905745	-0.022315	-0.002281	0.003357	-0.189697	0.947266	0.489258	0.312798	-0.396083	0.664783	-0.550762
37530		0.250994	-9.622893	-1.985272	-0.040687	-0.001929	0.001920	-0.186035	0.947021	0.491699	0.312662	-0.396144	0.664990	-0.550545
37531		0.226641	-9.627011	-1.944305	-0.031446	-0.001918	0.001977	-0.180908	0.938965	0.493652	0.312586	-0.396212	0.665138	-0.550361
37532		0.209608	-9.556300	-1.861727	-0.017907	-0.002341	0.000222	-0.183594	0.948730	0.498291	0.312581	-0.396297	0.665200	-0.550227
37533		0.167868	-9.539765	-1.925350	-0.021900	-0.002186	0.009651	-0.184814	0.949707	0.501953	0.312589	-0.396321	0.665323	-0.550057
37534		0.132195	-9.567432	-1.976509	-0.014566	0.009280	0.011164	-0.183594	0.949219	0.496094	0.312548	-0.396254	0.665460	-0.549963
37535		0.161120	-9.643465	-1.990427	-0.011271	0.011030	0.002679	-0.179688	0.944092	0.491455	0.312487	-0.396223	0.665542	-0.549921
37536		0.233624	-9.685303	-1.974183	-0.014759	0.014224	-0.004630	-0.182129	0.947266	0.489014	0.312397	-0.396255	0.665601	-0.549877
37537		0.243743	-9.569924	-1.898559	-0.009787	0.012213	-0.003351	-0.187012	0.940674	0.495605	0.312327	-0.396255	0.665641	-0.549868
37538		0.172479	-9.539800	-1.911179	-0.014129	0.006982	-0.005492	-0.190430	0.939209	0.502197	0.312204	-0.396268	0.665726	-0.549827
37539		0.194812	-9.466892	-1.962461	-0.013943	0.004164	0.006860	-0.185059	0.951660	0.494873	0.312114	-0.396203	0.665872	-0.549747
37540		0.231503	-9.549177	-1.988415	-0.030018	-0.000089	0.003995	-0.180664	0.945068	0.500244	0.312056	-0.396254	0.666015	-0.549570
37541		0.252231	-9.620149	-2.054911	-0.029188	0.008664	0.002868	-0.183594	0.939941	0.494629	0.311969	-0.396307	0.666164	-0.549401
37542		0.223996	-9.622571	-2.036734	-0.016907	0.022725	0.002855	-0.182617	0.947510	0.500732	0.311819	-0.396235	0.666307	-0.549364
37543		0.174091	-9.578499	-1.940284	-0.012093	0.014659	0.001484	-0.178467	0.938232	0.499023	0.311737	-0.396209	0.666396	-0.549322
37544		0.243557	-9.555325	-1.986794	-0.016035	0.001405	0.001079	-0.192383	0.942383	0.502441	0.311740	-0.396289	0.666451	-0.549196
37545		0.330374	-9.599950	-2.058724	0.000440	-0.000228	0.002267	-0.185547	0.945068	0.492920	0.311694	-0.396217	0.666507	-0.549206
37546		0.296347	-9.638626	-2.039019	0.002370	-0.001399	0.001946	-0.184570	0.944580	0.494385	0.311731	-0.396193	0.666497	-0.549214
37547		0.271620	-9.549769	-1.949964	-0.011436	0.002817	0.003447	-0.177490	0.947754	0.501709	0.311712	-0.396187	0.666563	-0.549150
37548		0.219145	-9.522283	-1.966950	-0.020286	-0.003100	0.001667	-0.182617	0.941895	0.497559	0.311746	-0.396305	0.666615	-0.548982
37549		0.093135	-9.490134	-1.979557	-0.010740	-0.003368	0.009366	-0.181641	0.946289	0.497803	0.311800	-0.396308	0.666678	-0.548873
37550		0.060705	-9.557744	-1.982460	-0.013852	-0.007864	0.007840	-0.189209	0.943848	0.499023	0.311873	-0.396355	0.666730	-0.548735
37551		0.100847	-9.631682	-2.051480	-0.028167	-0.006614	0.003719	-0.183594	0.947998	0.497803	0.311801	-0.396392	0.666885	-0.548560
37552		0.156378	-9.685254	-2.001322	-0.023939	0.004637	-0.003126	-0.192139	0.934082	0.502197	0.311704	-0.396448	0.666989	-0.548448
37553		0.189701	-9.600457	-1.889060	-0.000392	-0.004704	-0.003489	-0.188232	0.949463	0.503662	0.311639	-0.396420	0.667031	-0.548455
37554		0.179172	-9.530566	-2.001755	-0.004686	-0.014866	-0.006868	-0.187256	0.942383	0.500977	0.311654	-0.396503	0.667016	-0.548405
37555		0.164201	-9.575581	-2.107841	-0.008081	-0.017367	-0.001140	-0.187256	0.935547	0.498535	0.311699	-0.396579	0.667028	-0.548309
37556		0.135870	-9.649674	-2.204772	0.007112	0.000086	-0.001028	-0.186279	0.942627	0.510254	0.311689	-0.396530	0.667022	-0.548357
37557		0.040538	-9.626074	-2.165809	0.028835	0.022065	-0.005734	-0.170898	0.942627	0.505127	0.311608	-0.396362	0.666965	-0.548593
37558		0.036209	-9.510028	-1.993966	0.032109	0.022015	-0.006739	-0.188477	0.945801	0.500977	0.311678	-0.396324	0.666791	-0.548793
37559		0.132840	-9.478561	-1.960620	0.013301	-0.005034	-0.010552	-0.181396	0.940430	0.493896	0.311677	-0.396334	0.666710	-0.548885
37560		0.244579	-9.553828	-1.993855	0.003603	-0.032119	-0.008925	-0.187500	0.935791	0.495605	0.311867	-0.396539	0.666562	-0.548809
37561		0.407086	-9.668202	-2.007247	-0.010074	-0.055133	-0.008796	-0.186768	0.946777	0.500000	0.312075	-0.396831	0.666463	-0.548600
37562		0.470709	-9.692858	-2.048934	-0.016055	-0.053087	-0.013330	-0.182373	0.941162	0.494141	0.312246	-0.397162	0.666371	-0.548374
37563		0.354940	-9.678290	-2.001984	0.012833	-0.027825	-0.015750	-0.178467	0.945801	0.497070	0.312399	-0.397349	0.666176	-0.548389
37564		0.142478	-9.571647	-1.854918	0.051729	-0.015789	-0.009979	-0.190186	0.941650	0.494873	0.312678	-0.397384	0.665830	-0.548626
37565		0.088274	-9.410402	-1.803806	0.068787	-0.021879	-0.005058	-0.182129	0.943604	0.498291	0.312959	-0.397270	0.665479	-0.548972
37566		0.155554	-9.416454	-1.885325	0.037680	-0.026954	-0.000146	-0.172363	0.938232	0.497070	0.313255	-0.397304	0.665233	-0.549078
37567		0.283948	-9.534436	-1.959337	-0.008351	-0.023848	-0.002462	-0.181885	0.950684	0.502930	0.313447	-0.397539	0.665145	-0.548903
37568		0.354039	-9.628019	-1.975877	-0.045963	-0.014928	-0.009325	-0.182617	0.947021	0.485107	0.313359	-0.397791	0.665282	-0.548606
37569		0.275422	-9.613301	-1.907773	-0.046646	-0.002751	-0.007242	-0.179932	0.947510	0.503418	0.313220	-0.397955	0.665442	-0.548372
37570		0.099469	-9.551882	-1.876541	-0.020076	0.010759	0.004916	-0.190674	0.939697	0.500244	0.313156	-0.397960	0.665563	-0.548258
37571		0.046336	-9.524779	-1.891835	0.006471	0.016132	0.012503	-0.181641	0.942871	0.494385	0.313084	-0.397732	0.665671	-0.548334
37572		0.143499	-9.484465	-1.904015	0.012095	0.017160	0.014048	-0.177002	0.948486	0.491455	0.313121	-0.397549	0.665696	-0.548415
37573		0.271993	-9.576683	-1.996024	-0.019192	0.012447	0.006005	-0.179932	0.940186	0.500732	0.313094	-0.397553	0.665786	-0.548317
37574		0.320688	-9.682066	-2.061503	-0.034153	0.012463	-0.005840	-0.181152	0.945312	0.500244	0.312916	-0.397641	0.665947	-0.548160
37575		0.281507	-9.700397	-2.044475	-0.035929	0.011223	-0.011484	-0.181152	0.936035	0.496094	0.312712	-0.397761	0.666092	-0.548013
37576		0.230044	-9.616079	-1.997280	-0.018123	0.011058	-0.006955	-0.179688	0.943604	0.495361	0.312583	-0.397807	0.666174	-0.547955
37577		0.197032	-9.524779	-2.017693	0.014332	0.011180	0.001820	-0.179688	0.940186	0.497070	0.312625	-0.397731	0.666117	-0.548054
37578		0.135019	-9.519158	-2.063219	0.029283	0.013299	0.010236	-0.188232	0.944336	0.496094	0.312738	-0.397563	0.666032	-0.548215
37579		0.140613	-9.540927	-2.123399	0.011061	0.009073	0.006247	-0.189697	0.942871	0.493896	0.312723	-0.397405	0.666055	-0.548311
37580		0.196619	-9.570082	-2.084507	-0.015177	0.005549	0.002810	-0.188721	0.938477	0.499512	0.312611	-0.397334	0.666186	-0.548266
37581		0.238133	-9.585483	-2.027685	-0.028916	-0.003974	-0.009567	-0.180664	0.936035	0.497070	0.312447	-0.397425	0.666320	-0.548131
37582		0.220793	-9.554726	-1.982827	-0.023868	-0.013390	-0.010131	-0.180420	0.939697	0.497070	0.312425	-0.397622	0.666351	-0.547962
37583		0.155020	-9.593914	-1.968657	-0.004564	-0.018776	-0.001319	-0.176270	0.942139	0.504150	0.312546	-0.397748	0.666302	-0.547862
37584		0.144002	-9.652317	-1.980177	0.013918	-0.018368	0.002882	-0.173340	0.937500	0.490479	0.312779	-0.397845	0.666163	-0.547828
37585		0.200099	-9.621325	-2.035627	0.028299	-0.012131	0.003469	-0.177979	0.943359	0.500244	0.313054	-0.397878	0.665952	-0.547904
37586		0.249633	-9.607227	-2.004159	0.025886	-0.003982	-0.004727	-0.181885	0.943359	0.493164	0.313195	-0.397896	0.665780	-0.548019
37587		0.242033	-9.532323	-1.932069	0.015745	-0.003569	-0.009337	-0.181396	0.939941	0.492676	0.313244	-0.397914	0.665662	-0.548122
37588		0.231974	-9.498644	-1.960035	0.002102	-0.003906	-0.010334	-0.181396	0.945312	0.494141	0.313246	-0.397980	0.665601	-0.548146
37589		0.183170	-9.513684	-1.987099	-0.001118	-0.000339	-0.001929	-0.186279	0.941650	0.500244	0.313263	-0.397995	0.665587	-0.548143
37590		0.193611	-9.597874	-1.927527	0.002229	0.002818	0.000424	-0.184326	0.943604	0.493164	0.313233	-0.397939	0.665614	-0.548167
37591		0.236937	-9.620300	-1.962689	0.002066	0.007363	0.002953	-0.180420	0.943115	0.490234	0.313212	-0.397854	0.665642	-0.548207
37592		0.265916	-9.591968	-1.999343	0.001126	0.012757	-0.000356	-0.177246	0.943604	0.492188	0.313179	-0.397799	0.665649	-0.548257
37593		0.217828	-9.592493	-1.973501	0.000339	0.011795	0.001284	-0.184814	0.937988	0.487549	0.313188	-0.397777	0.665642	-0.548277
37594		0.166321	-9.553086	-1.995036	0.002781	0.005126	-0.002045	-0.184326	0.946533	0.501465	0.313146	-0.397711	0.665652	-0.548336
37595		0.190927	-9.535018	-2.049169	-0.000843	0.006119	-0.000567	-0.187988	0.945801	0.493896	0.313108	-0.397676	0.665681	-0.548349
37596		0.217766	-9.594552	-2.033425	0.000274	0.006458	0.001361	-0.175049	0.938232	0.505859	0.313045	-0.397574	0.665733	-0.548395
37597		0.234208	-9.618432	-1.985435	0.014956	0.006075	-0.002499	-0.184326	0.945801	0.495117	0.313130	-0.397611	0.665630	-0.548444
37598		0.186687	-9.606874	-1.964780	0.016587	0.000915	-0.003574	-0.180420	0.940186	0.506348	0.313166	-0.397560	0.665552	-0.548556
37599		0.175653	-9.560905	-1.999313	0.013577	-0.005002	0.001079	-0.184082	0.941650	0.489746	0.313275	-0.397580	0.665474	-0.548574
37600		0.160208	-9.523116	-1.991411	0.009838	-0.004403	0.003859	-0.187256	0.946777	0.497559	0.313348	-0.397521	0.665438	-0.548618
37601		0.179243	-9.551184	-1.979241	0.001142	-0.002131	0.001317	-0.186768	0.946289	0.496094	0.313341	-0.397471	0.665462	-0.548629
37602		0.191638	-9.559985	-1.964812	0.000133	0.000063	-0.005349	-0.182129	0.951904	0.494873	0.313293	-0.397453	0.665471	-0.548659
37603		0.191178	-9.610106	-1.935045	-0.005021	-0.003664	-0.005243	-0.181396	0.940430	0.502197	0.313303	-0.397512	0.665452	-0.548633
37604		0.238802	-9.659691	-1.931252	-0.003334	-0.015904	-0.004104	-0.187500	0.943604	0.501221	0.313381	-0.397634	0.665413	-0.548549
37605		0.265604	-9.658494	-2.013488	0.004322	-0.017457	0.003295	-0.184326	0.941406	0.497314	0.313471	-0.397637	0.665397	-0.548514
37606		0.229698	-9.617916	-2.001956	0.017296	-0.005272	0.002334	-0.188965	0.937256	0.495117	0.313559	-0.397579	0.665330	-0.548587
37607		0.229982	-9.499145	-1.971330	0.016818	-0.000439	-0.002759	-0.178955	0.950439	0.492676	0.313544	-0.397476	0.665298	-0.548709
37608		0.240160	-9.453716	-1.950223	0.002228	0.002817	0.000421	-0.188965	0.945801	0.499023	0.313598	-0.397487	0.665259	-0.548718
37609		0.193510	-9.508623	-1.930213	-0.007449	-0.001268	0.004957	-0.177246	0.941650	0.501709	0.313551	-0.397415	0.665355	-0.548680
37610		0.174135	-9.585147	-1.918273	-0.013423	-0.001346	0.003884	-0.178467	0.941406	0.492676	0.313587	-0.397488	0.665399	-0.548552
37611		0.158497	-9.653194	-1.950458	-0.021140	0.003340	0.005187	-0.185059	0.947998	0.490234	0.313572	-0.397530	0.665494	-0.548416
37612		0.162543	-9.654920	-1.928201	-0.011810	0.008379	0.001129	-0.181885	0.943359	0.504883	0.313486	-0.397474	0.665584	-0.548397
37613		0.180530	-9.615525	-1.920179	-0.001377	0.003480	-0.002144	-0.182861	0.942139	0.494629	0.313460	-0.397480	0.665600	-0.548387
37614		0.220728	-9.598003	-2.003029	0.003136	0.002033	0.000911	-0.181885	0.942383	0.494873	0.313469	-0.397443	0.665600	-0.548410
37615		0.184433	-9.571909	-2.044681	0.013097	0.010441	0.001174	-0.178711	0.942871	0.494873	0.313475	-0.397350	0.665569	-0.548510
37616		0.169140	-9.559302	-2.021314	0.014367	0.018979	0.002328	-0.177734	0.949463	0.494629	0.313476	-0.397244	0.665535	-0.548628
37617		0.113142	-9.553568	-1.983457	0.005677	0.019111	0.003218	-0.178467	0.944824	0.496826	0.313471	-0.397168	0.665528	-0.548695
37618		0.120395	-9.585378	-1.978141	0.003797	0.015341	0.002320	-0.186768	0.945312	0.500977	0.313461	-0.397112	0.665531	-0.548738
37619		0.146606	-9.634538	-2.029597	0.003200	0.007366	0.000827	-0.180664	0.945312	0.493896	0.313402	-0.397020	0.665575	-0.548784
37620		0.174431	-9.669218	-2.027558	0.012233	0.008414	-0.003974	-0.184814	0.944824	0.495605	0.313410	-0.396982	0.665513	-0.548882
37621		0.150068	-9.595710	-1.987450	0.027021	0.019018	-0.003961	-0.183594	0.940430	0.500488	0.313365	-0.396815	0.665444	-0.549112
37622		0.182089	-9.528723	-1.981435	0.038466	0.024324	-0.002869	-0.175781	0.945557	0.491699	0.313338	-0.396609	0.665341	-0.549401
37623		0.184471	-9.492246	-1.998492	0.031611	0.022552	-0.005054	-0.177246	0.947754	0.494385	0.313381	-0.396518	0.665184	-0.549633
37624		0.255884	-9.587613	-2.005914	0.022066	0.018531	-0.005874	-0.176514	0.947998	0.492920	0.313397	-0.396465	0.665068	-0.549802
37625		0.245155	-9.602504	-1.940910	0.025497	0.022408	-0.000794	-0.177734	0.949707	0.493408	0.313436	-0.396364	0.664957	-0.549987
37626		0.254472	-9.584778	-1.962697	0.021985	0.023794	-0.000630	-0.177979	0.951416	0.492432	0.313445	-0.396254	0.664873	-0.550162
37627		0.264129	-9.577350	-1.916508	0.026022	0.025034	0.000761	-0.188965	0.946777	0.495850	0.313467	-0.396116	0.664779	-0.550363
37628		0.259886	-9.601091	-1.921956	0.026342	0.026541	0.000884	-0.179199	0.944824	0.499023	0.313374	-0.395868	0.664770	-0.550606
37629		0.277757	-9.575217	-1.901163	0.025227	0.024065	0.002391	-0.184326	0.945312	0.497803	0.313392	-0.395739	0.664696	-0.550777
37630		0.314230	-9.566786	-1.937799	0.013964	0.020226	0.006776	-0.173340	0.949219	0.497070	0.313368	-0.395579	0.664713	-0.550884
37631		0.313321	-9.579755	-1.928056	0.011594	0.019490	0.008267	-0.182129	0.953125	0.489502	0.313454	-0.395529	0.664665	-0.550930
37632		0.288146	-9.597929	-1.871827	0.011648	0.014552	0.007063	-0.177734	0.946289	0.495117	0.313476	-0.395396	0.664658	-0.551021
37633		0.266711	-9.607990	-1.858938	0.007932	0.012696	0.009237	-0.177002	0.941895	0.492920	0.313546	-0.395334	0.664645	-0.551042
37634		0.278505	-9.566898	-1.873889	0.004473	0.004904	0.015090	-0.183838	0.942383	0.494385	0.313675	-0.395286	0.664646	-0.551001
37635		0.223395	-9.542554	-1.948712	-0.001146	0.001757	0.016984	-0.179932	0.949707	0.484375	0.313751	-0.395196	0.664716	-0.550938
37636		0.167383	-9.565633	-1.933890	-0.009597	0.002694	0.015257	-0.180664	0.948730	0.497070	0.313808	-0.395122	0.664801	-0.550856
37637		0.108157	-9.561511	-1.959323	-0.002409	-0.004643	0.012421	-0.183594	0.951660	0.498291	0.313925	-0.395120	0.664822	-0.550766
37638		0.129096	-9.593766	-1.983672	-0.003692	-0.000441	0.012997	-0.176025	0.943359	0.491699	0.313992	-0.395072	0.664880	-0.550692
37639		0.153266	-9.558692	-1.925589	-0.005450	-0.003810	0.010811	-0.181396	0.940186	0.489990	0.314111	-0.395102	0.664894	-0.550586
37640		0.205109	-9.534963	-1.944215	-0.031350	-0.016010	0.006418	-0.174072	0.949707	0.495850	0.314139	-0.395223	0.665019	-0.550332
37641		0.207285	-9.538176	-1.985832	-0.045863	-0.018003	0.004307	-0.177979	0.940674	0.497314	0.314194	-0.395480	0.665145	-0.549963
37642		0.138902	-9.588884	-1.968154	-0.032939	-0.017939	0.009686	-0.177734	0.943359	0.499023	0.314279	-0.395648	0.665258	-0.549658
37643		0.080477	-9.581696	-1.936661	-0.022400	-0.011873	0.010286	-0.182617	0.951172	0.488525	0.314370	-0.395759	0.665338	-0.549428
37644		0.078329	-9.593650	-1.932021	-0.014151	-0.011805	0.007134	-0.188721	0.944336	0.498291	0.314408	-0.395760	0.665413	-0.549315
37645		0.086530	-9.666988	-1.941702	-0.005577	-0.010219	0.004116	-0.183105	0.939453	0.492676	0.314419	-0.395747	0.665470	-0.549249
37646		0.126702	-9.659990	-1.957299	-0.002224	-0.015538	-0.002133	-0.176270	0.947021	0.494141	0.314473	-0.395808	0.665455	-0.549193
37647		0.167558	-9.653022	-1.972702	-0.002895	-0.013968	-0.005232	-0.182617	0.947754	0.500000	0.314563	-0.395938	0.665391	-0.549125
37648		0.170643	-9.575719	-1.957279	0.009598	-0.013669	-0.002113	-0.173340	0.948730	0.498291	0.314665	-0.395986	0.665313	-0.549126
37649		0.146333	-9.581390	-1.908802	0.012940	-0.010525	0.000228	-0.179443	0.952148	0.497803	0.314844	-0.396066	0.665184	-0.549122
37650		0.191134	-9.564501	-1.904834	0.007619	-0.009695	0.002852	-0.177979	0.954346	0.489746	0.314962	-0.396086	0.665124	-0.549112
37651		0.220648	-9.521734	-1.888284	0.001951	-0.005777	0.002512	-0.179443	0.941895	0.491699	0.315034	-0.396076	0.665101	-0.549106
37652		0.231046	-9.545120	-1.927429	-0.011406	0.000373	0.002853	-0.178467	0.941895	0.500000	0.315015	-0.396080	0.665168	-0.549033
37653		0.205700	-9.552106	-1.943712	-0.022047	0.004168	0.004665	-0.181396	0.947510	0.495605	0.314973	-0.396129	0.665285	-0.548880
37654		0.187726	-9.577871	-1.964578	-0.031946	0.013852	0.006040	-0.182617	0.946533	0.497803	0.314819	-0.396101	0.665498	-0.548731
37655		0.172007	-9.658159	-1.990554	-0.020960	0.021832	0.005475	-0.177002	0.950684	0.499512	0.314647	-0.396008	0.665684	-0.548670
37656		0.112827	-9.598846	-2.012825	-0.018684	0.019701	0.004677	-0.181396	0.951416	0.499023	0.314541	-0.395973	0.665816	-0.548596
37657		0.143604	-9.529974	-2.016285	-0.035344	0.015623	0.004878	-0.182373	0.939697	0.498047	0.314368	-0.395959	0.666040	-0.548434
37658		0.190177	-9.484119	-1.975694	-0.054745	0.003627	0.002470	-0.179932	0.942627	0.491455	0.314172	-0.396060	0.666325	-0.548128
37659		0.182861	-9.557372	-2.024521	-0.055768	-0.006590	-0.001905	-0.179688	0.946045	0.505371	0.314015	-0.396219	0.666565	-0.547810
37660		0.134908	-9.637586	-2.057975	-0.047247	-0.002212	-0.000273	-0.182617	0.943359	0.497314	0.313896	-0.396380	0.666768	-0.547515
37661		0.036402	-9.677042	-2.049253	-0.007247	0.006272	-0.003931	-0.177734	0.947998	0.495117	0.313805	-0.396358	0.666825	-0.547514
37662		-0.007933	-9.707178	-2.042411	0.029663	0.020528	-0.007974	-0.175293	0.943115	0.495361	0.313776	-0.396225	0.666708	-0.547769
37663		0.046240	-9.630936	-2.045584	0.057410	0.037599	-0.012828	-0.184570	0.946289	0.493652	0.313743	-0.395998	0.666480	-0.548230
37664		0.069297	-9.566800	-1.980871	0.070090	0.047870	-0.017981	-0.185791	0.950439	0.493164	0.313598	-0.395639	0.666254	-0.548845
37665		0.026813	-9.529602	-1.906997	0.064946	0.041652	-0.018526	-0.184082	0.934082	0.494873	0.313468	-0.395322	0.666034	-0.549415
37666		0.083998	-9.520633	-1.906361	0.043036	0.030983	-0.017557	-0.177490	0.939941	0.487061	0.313342	-0.395146	0.665885	-0.549794
37667		0.170372	-9.597925	-1.851950	0.033310	0.029374	-0.012454	-0.177246	0.948486	0.494873	0.313269	-0.395006	0.665750	-0.550099
37668		0.242489	-9.609575	-1.746489	0.041433	0.026913	-0.010858	-0.179199	0.949951	0.495361	0.313267	-0.394880	0.665563	-0.550418
37669		0.337937	-9.608033	-1.814752	0.046923	0.027524	-0.008011	-0.175293	0.948730	0.496826	0.313281	-0.394711	0.665369	-0.550766
37670		0.333450	-9.554861	-1.888374	0.033876	0.035157	-0.007604	-0.181396	0.950439	0.492920	0.313249	-0.394585	0.665230	-0.551042
37671		0.338077	-9.490447	-1.863023	0.001290	0.035374	-0.007067	-0.182617	0.946045	0.488525	0.313059	-0.394476	0.665279	-0.551168
37672		0.445512	-9.480984	-1.873779	-0.037401	0.020642	-0.000512	-0.188965	0.948486	0.502930	0.312837	-0.394478	0.665500	-0.551026
37673		0.431284	-9.525549	-1.985464	-0.051002	0.019265	0.008658	-0.181885	0.955811	0.492676	0.312599	-0.394480	0.665829	-0.550763
37674		0.240928	-9.586536	-1.993407	-0.047458	0.029160	0.016351	-0.187988	0.944580	0.490723	0.312391	-0.394387	0.666160	-0.550547
37675		0.143991	-9.531186	-1.860293	-0.048813	0.028018	0.017008	-0.184814	0.941895	0.487061	0.312130	-0.394247	0.666539	-0.550336
37676		0.162632	-9.507080	-1.888463	-0.071695	0.010704	0.021001	-0.184082	0.939209	0.493652	0.311923	-0.394232	0.666979	-0.549931
37677		0.266559	-9.577740	-1.958276	-0.072265	-0.009967	0.017812	-0.175293	0.937744	0.492920	0.311827	-0.394360	0.667349	-0.549444
37678		0.402159	-9.683060	-1.942138	-0.072474	-0.029454	0.010698	-0.185547	0.945068	0.486572	0.311871	-0.394681	0.667600	-0.548884
37679		0.554003	-9.686185	-2.039272	-0.064208	-0.027258	0.004119	-0.193848	0.948486	0.505127	0.311802	-0.394877	0.667863	-0.548462
37680		0.391423	-9.638854	-2.093786	-0.030061	-0.002262	0.007266	-0.177002	0.950439	0.497314	0.311684	-0.394852	0.668076	-0.548287
37681		-0.023559	-9.615665	-2.049833	0.028005	0.030819	0.015394	-0.182129	0.949707	0.498779	0.311737	-0.394590	0.668042	-0.548488
37682		-0.287158	-9.567604	-2.005491	0.042416	0.044778	0.016539	-0.180908	0.945801	0.500732	0.311723	-0.394182	0.668013	-0.548825
37683		-0.218905	-9.547806	-2.104768	0.019269	0.033391	0.016803	-0.186768	0.944336	0.500244	0.311709	-0.393908	0.668054	-0.548979
37684		0.048546	-9.539058	-2.214094	0.007786	0.027058	0.008857	-0.185059	0.951172	0.489990	0.311607	-0.393687	0.668142	-0.549088
37685		0.155106	-9.528327	-2.162042	-0.015827	0.019480	-0.002750	-0.177246	0.945557	0.502441	0.311419	-0.393598	0.668274	-0.549099
37686		0.230361	-9.506935	-2.185119	-0.040589	-0.002933	-0.010523	-0.183350	0.938721	0.501709	0.311320	-0.393838	0.668382	-0.548851
37687		0.222569	-9.524054	-2.166041	-0.039894	-0.011571	-0.005198	-0.180176	0.946533	0.500244	0.311240	-0.394032	0.668523	-0.548585
37688		-0.113456	-9.709533	-2.244489	-0.002635	-0.015257	-0.004413	-0.185547	0.943115	0.505371	0.311333	-0.394156	0.668465	-0.548514
37689		-0.422878	-9.864689	-2.314614	0.074270	-0.008421	-0.016873	-0.188721	0.952393	0.497803	0.311545	-0.394093	0.668063	-0.548929
37690		-0.360569	-9.818260	-2.184530	0.102689	-0.009186	-0.027675	-0.180420	0.947266	0.500977	0.311775	-0.393962	0.667511	-0.549563
37691		0.041188	-9.631315	-2.110946	0.111575	-0.034719	-0.037331	-0.179688	0.944336	0.494629	0.312204	-0.394071	0.666771	-0.550139
37692		0.485024	-9.430104	-1.872396	0.100497	-0.090436	-0.051981	-0.187012	0.946533	0.490967	0.312837	-0.394537	0.665889	-0.550515
37693		0.691526	-9.350904	-1.801475	0.055866	-0.145634	-0.048313	-0.184326	0.944336	0.488770	0.313585	-0.395282	0.665120	-0.550483
37694		0.513403	-9.587089	-1.967498	0.026685	-0.163272	-0.034789	-0.177979	0.945068	0.495850	0.314411	-0.396123	0.664472	-0.550190
37695		0.032857	-9.795765	-1.758544	0.074005	-0.118369	-0.020824	-0.182129	0.949707	0.487793	0.315263	-0.396629	0.663731	-0.550232
37696		-0.180437	-9.797151	-1.637269	0.114886	-0.082836	-0.025615	-0.175537	0.949707	0.490967	0.315985	-0.396822	0.662909	-0.550669
37697		0.081241	-9.667571	-1.754776	0.126416	-0.052820	-0.034728	-0.183105	0.956299	0.489014	0.316594	-0.396966	0.662044	-0.551257
37698		0.404748	-9.559381	-1.874706	0.140289	-0.013569	-0.036801	-0.182861	0.947021	0.490967	0.316965	-0.396838	0.661251	-0.552087
37699		0.458346	-9.323503	-1.827161	0.115842	0.012863	-0.027887	-0.179688	0.949219	0.486328	0.317155	-0.396629	0.660669	-0.552824
37700		0.271475	-9.199362	-1.729341	0.039589	0.027031	-0.006055	-0.173096	0.952637	0.482666	0.317142	-0.396457	0.660527	-0.553126
37701		0.210394	-9.335639	-1.729192	-0.043423	0.022157	0.014881	-0.175293	0.955811	0.483154	0.317030	-0.396454	0.660784	-0.552885
37702		0.313031	-9.626382	-1.761948	-0.080094	0.008022	0.013907	-0.182373	0.951172	0.487061	0.316852	-0.396596	0.661181	-0.552409
37703		0.464460	-9.809326	-1.788164	-0.061394	0.010524	0.003834	-0.179199	0.946777	0.488770	0.316622	-0.396688	0.661506	-0.552086
37704		0.321061	-9.734181	-1.764311	-0.022660	0.023488	-0.000861	-0.184082	0.950439	0.487305	0.316450	-0.396675	0.661655	-0.552016
37705		0.149247	-9.631180	-1.856714	0.007557	0.030313	0.000383	-0.183594	0.947754	0.488281	0.316310	-0.396498	0.661711	-0.552155
37706		0.132891	-9.646237	-1.877276	0.034680	0.030519	0.003597	-0.177979	0.952881	0.490967	0.316279	-0.396243	0.661651	-0.552428
37707		0.257744	-9.681257	-1.920634	0.044089	0.015683	0.000065	-0.186523	0.955811	0.491943	0.316396	-0.396105	0.661460	-0.552688
37708		0.492709	-9.601948	-1.913214	0.040578	0.008912	-0.004290	-0.178467	0.947266	0.486572	0.316461	-0.395974	0.661294	-0.552944
37709		0.478828	-9.457267	-1.869347	0.012812	0.007785	-0.011212	-0.185547	0.953857	0.483887	0.316455	-0.396007	0.661197	-0.553040
37710		0.173208	-9.389017	-1.854254	-0.006663	0.001847	-0.000120	-0.182373	0.945312	0.495117	0.316418	-0.395992	0.661245	-0.553015
37711		-0.150726	-9.461047	-1.764436	-0.028609	-0.017580	0.016179	-0.180176	0.945068	0.488525	0.316530	-0.396112	0.661373	-0.552712
37712		-0.102066	-9.713263	-1.816546	-0.052590	-0.032375	0.023132	-0.178223	0.950928	0.488770	0.316676	-0.396306	0.661593	-0.552225
37713		0.098058	-9.844108	-1.834177	-0.032869	-0.023915	0.001918	-0.177002	0.946045	0.491943	0.316752	-0.396526	0.661668	-0.551934
37714		0.386319	-9.774303	-1.769663	-0.006891	-0.011378	-0.017503	-0.176270	0.955566	0.485840	0.316766	-0.396748	0.661587	-0.551864
37715		0.455950	-9.445378	-1.764416	0.004041	-0.003046	-0.014096	-0.182861	0.945068	0.487549	0.316779	-0.396851	0.661489	-0.551899
37716		0.343308	-9.281189	-1.809069	0.001762	0.001267	0.005627	-0.176758	0.953857	0.487549	0.316812	-0.396811	0.661508	-0.551886
37717		0.093961	-9.487761	-1.904940	-0.024958	0.007605	0.020749	-0.181396	0.943359	0.485596	0.316832	-0.396758	0.661687	-0.551699
37718		-0.072671	-9.781307	-1.948431	-0.043825	0.025508	0.015886	-0.184082	0.949951	0.492676	0.316629	-0.396667	0.662012	-0.551490
37719		-0.095380	-9.877228	-1.889066	-0.024973	0.050737	-0.000789	-0.178467	0.952881	0.487305	0.316270	-0.396509	0.662263	-0.551508
37720		-0.008668	-9.688257	-1.803815	0.007457	0.056436	-0.010549	-0.179443	0.943848	0.499756	0.315968	-0.396298	0.662330	-0.551753
37721		0.141143	-9.386304	-1.861899	0.030934	0.037471	-0.003927	-0.177246	0.953613	0.492676	0.315905	-0.396146	0.662246	-0.551999
37722		0.289222	-9.323543	-1.973804	0.001828	0.024645	0.007049	-0.182129	0.944092	0.485107	0.315868	-0.396040	0.662295	-0.552037
37723		0.348592	-9.465935	-2.067305	-0.044763	0.020216	0.007319	-0.188721	0.946777	0.490967	0.315653	-0.396021	0.662582	-0.551830
37724		0.311653	-9.746963	-2.006677	-0.068763	0.013856	0.000390	-0.184082	0.948242	0.490967	0.315337	-0.396120	0.662956	-0.551490
37725		0.222625	-9.812090	-1.877869	-0.054783	0.001131	-0.015061	-0.184082	0.951660	0.494141	0.315091	-0.396344	0.663164	-0.551219
37726		0.153672	-9.754189	-1.848886	-0.004278	-0.021863	-0.015225	-0.178223	0.947266	0.486816	0.315147	-0.396551	0.663073	-0.551148
37727		0.199346	-9.585386	-1.959924	0.044669	-0.032933	-0.003636	-0.179443	0.948975	0.489746	0.315493	-0.396614	0.662757	-0.551285
37728		0.245632	-9.484618	-2.064143	0.048222	-0.020874	0.000594	-0.180908	0.943359	0.493408	0.315804	-0.396597	0.662470	-0.551464
37729		0.268530	-9.540432	-2.007092	0.017456	-0.007723	-0.003588	-0.180664	0.956543	0.481689	0.315924	-0.396646	0.662344	-0.551511
37730		0.230635	-9.637106	-1.911876	0.004298	-0.006485	-0.009799	-0.182861	0.947510	0.482910	0.315934	-0.396680	0.662281	-0.551557
37731		0.130387	-9.683235	-1.794178	0.005997	-0.014472	-0.015486	-0.179932	0.941650	0.492920	0.315959	-0.396786	0.662176	-0.551593
37732		0.126972	-9.574532	-1.782416	0.022759	-0.026635	-0.007789	-0.184570	0.950439	0.484863	0.316186	-0.396938	0.661958	-0.551613
37733		0.152816	-9.504973	-1.804093	0.016332	-0.022217	0.004348	-0.188965	0.947266	0.484619	0.316376	-0.396942	0.661854	-0.551628
37734		0.150421	-9.532822	-1.848014	-0.002238	-0.012724	0.002573	-0.180420	0.955566	0.488037	0.316416	-0.396940	0.661872	-0.551585
37735		0.172778	-9.589836	-1.857938	-0.016633	-0.001951	-0.003169	-0.184814	0.954590	0.488281	0.316381	-0.397011	0.661926	-0.551488
37736		0.164978	-9.620085	-1.827321	-0.019041	0.004022	-0.007975	-0.180176	0.951660	0.490967	0.316257	-0.397065	0.662008	-0.551422
37737		0.142317	-9.624799	-1.782545	-0.005716	0.010615	-0.006649	-0.175049	0.950195	0.488525	0.316181	-0.397086	0.662029	-0.551425
37738		0.213655	-9.599408	-1.767399	-0.003551	0.008096	-0.006135	-0.182373	0.943359	0.489990	0.316153	-0.397128	0.662019	-0.551423
37739		0.338690	-9.622841	-1.886378	-0.012143	0.008992	-0.002488	-0.183105	0.942871	0.485107	0.316069	-0.397145	0.662089	-0.551374
37740		0.367566	-9.631945	-1.901620	-0.002863	0.024606	-0.001467	-0.179932	0.946533	0.485352	0.315918	-0.397033	0.662172	-0.551443
37741		0.258224	-9.541967	-1.815373	0.001458	0.029837	0.000640	-0.181641	0.955078	0.492188	0.315783	-0.396889	0.662241	-0.551541
37742		0.227591	-9.480332	-1.858553	-0.024758	0.024578	0.004760	-0.182373	0.942871	0.483398	0.315618	-0.396831	0.662424	-0.551457
37743		0.250616	-9.511576	-1.887726	-0.045017	0.021502	0.006485	-0.177979	0.938232	0.498047	0.315383	-0.396797	0.662716	-0.551265
37744		0.295978	-9.599585	-1.927877	-0.055573	0.017871	0.006487	-0.178223	0.946533	0.484375	0.315195	-0.396906	0.663008	-0.550943
37745		0.326291	-9.649140	-1.963540	-0.058418	0.019802	0.006289	-0.181396	0.950195	0.496582	0.314946	-0.396928	0.663342	-0.550667
37746		0.223545	-9.683846	-1.923147	-0.045162	0.031318	0.008832	-0.178467	0.949219	0.486816	0.314703	-0.396887	0.663644	-0.550472
37747		0.188238	-9.629393	-1.926595	-0.020536	0.026900	0.007567	-0.181152	0.945801	0.489014	0.314547	-0.396769	0.663826	-0.550427
37748		0.200924	-9.587671	-1.944305	-0.002375	0.023321	0.011056	-0.182373	0.943115	0.482666	0.314478	-0.396603	0.663932	-0.550458
37749		0.266637	-9.522860	-1.976160	-0.003134	0.019901	0.012102	-0.187256	0.949951	0.492432	0.314406	-0.396412	0.664053	-0.550492
37750		0.293307	-9.544273	-1.984810	-0.025567	0.021444	0.009804	-0.177490	0.947266	0.493896	0.314238	-0.396301	0.664274	-0.550400
37751		0.243990	-9.543515	-1.965521	-0.050542	0.018659	0.006950	-0.181641	0.940186	0.497559	0.314051	-0.396348	0.664552	-0.550137
37752		0.176624	-9.594015	-1.950404	-0.058439	0.007361	0.008510	-0.184814	0.944336	0.497070	0.313892	-0.396459	0.664854	-0.549783
37753		0.160910	-9.658891	-1.927481	-0.042299	0.002090	0.013033	-0.186523	0.947998	0.493408	0.313812	-0.396496	0.665098	-0.549507
37754		0.176578	-9.618606	-1.923775	-0.025208	-0.002165	0.010571	-0.173340	0.944824	0.493652	0.313779	-0.396484	0.665259	-0.549340
37755		0.183880	-9.576388	-2.028682	-0.022453	-0.004846	0.008008	-0.182373	0.933105	0.497070	0.313831	-0.396563	0.665342	-0.549152
37756		0.113883	-9.563159	-2.070514	-0.011952	0.005831	0.005795	-0.178223	0.943604	0.491699	0.313805	-0.396560	0.665429	-0.549064
37757		0.060422	-9.560933	-2.072625	-0.018367	0.014090	0.006970	-0.195068	0.939697	0.494873	0.313724	-0.396506	0.665565	-0.548984
37758		0.051525	-9.566271	-2.057710	-0.020974	0.014691	0.007618	-0.186035	0.945801	0.503418	0.313546	-0.396385	0.665775	-0.548918
37759		0.062781	-9.586991	-2.038511	-0.014272	0.022777	0.004833	-0.186279	0.949707	0.498779	0.313405	-0.396305	0.665919	-0.548882
37760		0.062200	-9.611727	-2.025159	-0.007650	0.017766	0.001649	-0.184082	0.945312	0.496826	0.313286	-0.396218	0.666017	-0.548893
37761		0.140207	-9.603719	-1.951755	0.000610	0.005487	0.000866	-0.182617	0.947021	0.491455	0.313266	-0.396177	0.666039	-0.548909
37762		0.230325	-9.581529	-1.938923	-0.002310	-0.005662	0.000280	-0.181396	0.939941	0.491211	0.313291	-0.396178	0.666044	-0.548887
37763		0.258406	-9.580132	-2.021804	-0.008735	-0.013299	-0.003598	-0.182129	0.938721	0.493408	0.313326	-0.396265	0.666044	-0.548805
37764		0.217317	-9.599455	-2.000891	-0.007219	-0.008593	-0.002236	-0.185547	0.935547	0.491699	0.313345	-0.396326	0.666053	-0.548738
37765		0.152179	-9.603322	-2.068960	-0.005664	-0.004218	-0.004918	-0.182373	0.948486	0.500732	0.313308	-0.396353	0.666075	-0.548713
37766		0.064613	-9.573317	-2.051253	0.010914	0.015051	-0.002764	-0.179443	0.954346	0.498047	0.313269	-0.396281	0.666051	-0.548816
37767		0.046225	-9.556440	-1.992575	0.017505	0.012504	-0.005345	-0.183105	0.941895	0.494873	0.313268	-0.396218	0.665972	-0.548958
37768		0.125854	-9.513451	-1.999059	0.014499	-0.001503	-0.005230	-0.182373	0.950439	0.491699	0.313306	-0.396207	0.665891	-0.549043
37769		0.262920	-9.566228	-1.965058	-0.002059	-0.015119	-0.003431	-0.190430	0.946777	0.499756	0.313372	-0.396273	0.665856	-0.549001
37770		0.337790	-9.637238	-1.969063	-0.027209	-0.033871	-0.006036	-0.176758	0.951416	0.496582	0.313415	-0.396497	0.665901	-0.548759
37771		0.352931	-9.674453	-1.979599	-0.027849	-0.034778	-0.009756	-0.180908	0.947266	0.498047	0.313520	-0.396806	0.665883	-0.548499
37772		0.241594	-9.611688	-1.941169	-0.006410	-0.028137	-0.006108	-0.184082	0.944336	0.500488	0.313649	-0.396990	0.665813	-0.548376
37773		0.108991	-9.561539	-1.948210	0.017019	-0.017335	-0.002868	-0.186035	0.946045	0.499023	0.313794	-0.397039	0.665687	-0.548410
37774		0.014280	-9.584432	-2.042140	0.035036	-0.004316	-0.003209	-0.179688	0.948242	0.497803	0.313911	-0.396964	0.665521	-0.548599
37775		0.035980	-9.563363	-2.054766	0.041114	0.008530	-0.005757	-0.182861	0.942383	0.500488	0.314002	-0.396861	0.665327	-0.548857
37776		0.143002	-9.567831	-2.050185	0.024757	0.010524	-0.008295	-0.181641	0.937500	0.498535	0.314001	-0.396806	0.665216	-0.549032
37777		0.239816	-9.510559	-2.032971	0.002557	-0.001671	-0.007443	-0.181641	0.943848	0.493408	0.314003	-0.396866	0.665175	-0.549037
37778		0.244985	-9.522941	-1.941125	-0.014816	-0.011661	-0.006824	-0.180664	0.946289	0.500977	0.313998	-0.396988	0.665193	-0.548931
37779		0.195926	-9.547914	-1.904033	-0.025689	-0.029190	-0.004652	-0.178955	0.942871	0.492676	0.314085	-0.397239	0.665208	-0.548680
37780		0.234278	-9.602770	-1.885192	-0.024317	-0.034795	0.000945	-0.182129	0.941406	0.494141	0.314224	-0.397457	0.665226	-0.548421
37781		0.217534	-9.685547	-1.970092	-0.006209	-0.031298	0.002215	-0.178467	0.947998	0.496582	0.314390	-0.397589	0.665188	-0.548276
37782		0.200699	-9.687397	-2.000563	0.023602	-0.017764	-0.008931	-0.175537	0.941406	0.492676	0.314555	-0.397666	0.664994	-0.548360
37783		0.184421	-9.620863	-1.969109	0.041355	-0.006927	-0.017527	-0.184814	0.939941	0.492676	0.314689	-0.397703	0.664713	-0.548598
37784		0.177817	-9.523499	-1.969429	0.041992	-0.003909	-0.017274	-0.187744	0.934814	0.494141	0.314754	-0.397673	0.664475	-0.548870
37785		0.225603	-9.482081	-1.976482	0.028766	-0.006269	-0.008542	-0.183838	0.938721	0.505615	0.314814	-0.397638	0.664332	-0.549035
37786		0.281662	-9.526246	-1.986825	0.007473	-0.011125	-0.002612	-0.183838	0.948730	0.489502	0.314903	-0.397715	0.664262	-0.549012
37787		0.232084	-9.551811	-1.946660	-0.011483	-0.012774	0.002435	-0.187744	0.944580	0.500732	0.314938	-0.397751	0.664304	-0.548915
37788		0.211138	-9.548596	-1.945529	-0.019705	-0.013207	0.001533	-0.182373	0.950928	0.492920	0.314937	-0.397838	0.664388	-0.548752
37789		0.174326	-9.544785	-1.916091	-0.015201	-0.012516	0.001158	-0.184082	0.949219	0.489990	0.314966	-0.397907	0.664434	-0.548630
37790		0.188348	-9.607589	-1.909059	-0.011809	-0.012168	-0.001149	-0.182373	0.939453	0.497314	0.314977	-0.397957	0.664468	-0.548545
37791		0.255517	-9.649204	-1.977321	-0.006196	-0.009004	-0.003036	-0.179199	0.945068	0.498535	0.314996	-0.398029	0.664472	-0.548478
37792		0.281158	-9.628921	-1.971623	0.001136	0.002132	-0.005562	-0.182129	0.941162	0.494873	0.314990	-0.398063	0.664446	-0.548487
37793		0.221271	-9.620991	-1.959486	0.012307	0.009142	-0.001234	-0.183350	0.944092	0.488525	0.314977	-0.397986	0.664418	-0.548585
37794		0.166545	-9.565409	-1.951136	0.020497	0.012040	0.000268	-0.191162	0.950195	0.495361	0.314969	-0.397836	0.664373	-0.548753
37795		0.151368	-9.540321	-1.935084	0.011722	0.009307	0.001846	-0.175293	0.954834	0.494873	0.314918	-0.397687	0.664391	-0.548868
37796		0.241364	-9.507633	-1.990186	-0.007612	0.005067	-0.000030	-0.184326	0.945801	0.495850	0.314922	-0.397715	0.664408	-0.548825
37797		0.285997	-9.514784	-1.974782	-0.020251	0.004672	0.002185	-0.180176	0.940430	0.498535	0.314833	-0.397715	0.664535	-0.548723
37798		0.187180	-9.554963	-1.965370	-0.026861	0.001553	0.000830	-0.181641	0.945557	0.500244	0.314758	-0.397789	0.664663	-0.548557
37799		0.103758	-9.620664	-1.969881	-0.025282	0.001333	0.000980	-0.186523	0.940430	0.500488	0.314687	-0.397851	0.664786	-0.548404
37800		0.095153	-9.638611	-1.947319	-0.012844	-0.001522	0.000772	-0.183350	0.946777	0.497803	0.314636	-0.397866	0.664869	-0.548322
37801		0.131220	-9.641627	-1.980534	0.000972	-0.005714	-0.000719	-0.181641	0.944336	0.493652	0.314670	-0.397880	0.664856	-0.548308
37802		0.145073	-9.587958	-2.002232	0.019750	0.000491	-0.003240	-0.179443	0.947510	0.497559	0.314724	-0.397830	0.664761	-0.548428
37803		0.138779	-9.557008	-2.003561	0.021090	0.003744	-0.007365	-0.179199	0.946777	0.495850	0.314765	-0.397808	0.664642	-0.548563
37804		0.107379	-9.558615	-2.004301	0.009507	0.000490	-0.006571	-0.179199	0.939941	0.493896	0.314790	-0.397826	0.664570	-0.548624
37805		0.141440	-9.555530	-1.939851	0.001993	-0.003975	-0.004974	-0.175293	0.937744	0.491211	0.314816	-0.397872	0.664531	-0.548623
37806		0.170505	-9.552159	-1.961844	-0.004904	-0.011076	-0.007065	-0.188232	0.947266	0.504150	0.314870	-0.397998	0.664483	-0.548559
37807		0.167166	-9.549767	-1.987663	-0.006081	-0.006486	-0.007787	-0.182373	0.940674	0.499023	0.314828	-0.398063	0.664496	-0.548520
37808		0.122522	-9.592158	-1.975843	-0.004334	-0.000984	-0.009035	-0.180176	0.950684	0.500000	0.314783	-0.398129	0.664492	-0.548504
37809		0.107752	-9.581187	-2.015363	0.001835	0.002355	-0.009954	-0.179688	0.950195	0.503174	0.314758	-0.398181	0.664448	-0.548533
37810		0.092022	-9.633255	-2.015589	0.014417	-0.000444	-0.015522	-0.182373	0.946289	0.499268	0.314770	-0.398257	0.664318	-0.548628
37811		0.094305	-9.646380	-2.005114	0.021844	0.001161	-0.016425	-0.184082	0.943604	0.497070	0.314773	-0.398286	0.664170	-0.548784
37812		0.190943	-9.616351	-2.032180	0.021408	-0.000750	-0.015255	-0.178711	0.942871	0.492676	0.314778	-0.398306	0.664032	-0.548934
37813		0.174144	-9.599524	-1.972682	0.016767	-0.007511	-0.017534	-0.183594	0.941650	0.494873	0.314824	-0.398403	0.663867	-0.549036
37814		0.120357	-9.581669	-1.941424	0.019763	-0.013664	-0.015828	-0.184082	0.944580	0.493164	0.314894	-0.398490	0.663699	-0.549136
37815		0.112842	-9.628175	-1.957537	0.023342	-0.019990	-0.017210	-0.177246	0.950928	0.492676	0.315003	-0.398597	0.663493	-0.549244
37816		0.109555	-9.666668	-2.016134	0.025935	-0.018480	-0.021329	-0.183105	0.943359	0.495117	0.315141	-0.398753	0.663233	-0.549368
37817		0.175996	-9.633502	-1.924082	0.038795	-0.007394	-0.029134	-0.180176	0.943115	0.502197	0.315185	-0.398842	0.662945	-0.549625
37818		0.196216	-9.635327	-1.945929	0.045563	-0.000685	-0.025767	-0.184570	0.946289	0.499756	0.315256	-0.398904	0.662639	-0.549907
37819		0.233519	-9.597923	-1.958349	0.045020	0.004805	-0.022797	-0.179688	0.946777	0.495117	0.315286	-0.398898	0.662375	-0.550213
37820		0.195993	-9.512093	-1.893397	0.048954	0.015222	-0.027120	-0.180664	0.946533	0.487061	0.315279	-0.398876	0.662086	-0.550581
37821		0.268201	-9.420546	-1.874554	0.021078	0.017143	-0.025426	-0.181152	0.944092	0.492432	0.315165	-0.398885	0.661941	-0.550814
37822		0.372323	-9.448838	-1.944192	-0.004556	0.025460	-0.015915	-0.185547	0.946777	0.495117	0.314969	-0.398889	0.661965	-0.550894
37823		0.428732	-9.591902	-1.897180	-0.010487	0.034615	-0.005647	-0.179443	0.936523	0.491943	0.314731	-0.398795	0.662088	-0.550951
37824		0.482324	-9.655332	-1.861149	-0.013372	0.039021	-0.005232	-0.181885	0.939209	0.495850	0.314489	-0.398716	0.662218	-0.550990
37825		0.506014	-9.617665	-1.828353	-0.003705	0.040966	-0.006347	-0.182373	0.955811	0.493896	0.314258	-0.398610	0.662308	-0.551089
37826		0.491764	-9.581817	-1.883660	-0.008226	0.030717	0.001051	-0.184814	0.950439	0.486084	0.314110	-0.398508	0.662410	-0.551126
37827		0.434088	-9.605762	-1.954037	-0.002842	0.015411	0.004250	-0.186768	0.947021	0.486816	0.314051	-0.398408	0.662475	-0.551154
37828		0.316365	-9.592276	-1.906645	0.011776	0.015741	0.008507	-0.186523	0.946533	0.493408	0.314048	-0.398239	0.662495	-0.551253
37829		0.222862	-9.561010	-1.912870	0.005811	0.015642	0.007419	-0.181885	0.946533	0.500977	0.314031	-0.398118	0.662533	-0.551304
37830		0.162471	-9.515700	-1.924595	-0.002013	0.019565	0.005934	-0.175781	0.944824	0.487549	0.313997	-0.398059	0.662589	-0.551299
37831		0.196994	-9.581178	-1.919948	-0.015436	0.012543	0.005866	-0.184570	0.941895	0.488037	0.313969	-0.398052	0.662677	-0.551214
37832		0.195072	-9.620774	-1.959342	-0.008919	0.012811	0.007919	-0.186523	0.947998	0.495361	0.313921	-0.397973	0.662777	-0.551179
37833		0.190736	-9.628617	-1.917229	-0.002886	0.012194	0.000897	-0.187012	0.946533	0.494629	0.313868	-0.397932	0.662822	-0.551184
37834		0.211242	-9.606053	-1.936947	-0.008841	0.007876	0.006722	-0.187256	0.950928	0.502686	0.313842	-0.397891	0.662905	-0.551129
37835		0.235402	-9.575402	-1.999993	-0.006710	0.002164	0.003903	-0.189453	0.952148	0.488525	0.313856	-0.397911	0.662945	-0.551058
37836		0.232859	-9.650462	-1.954426	0.005062	0.004432	0.007992	-0.178467	0.952148	0.494873	0.313877	-0.397801	0.662974	-0.551091
37837		0.204860	-9.604065	-1.961789	0.012796	0.009661	0.003758	-0.185547	0.949463	0.490967	0.313945	-0.397747	0.662921	-0.551154
37838		0.157823	-9.542594	-1.972783	0.010341	0.018079	-0.000471	-0.181885	0.948486	0.493408	0.313894	-0.397638	0.662918	-0.551266
37839		0.188815	-9.474504	-1.971068	0.002797	0.018198	-0.001721	-0.191895	0.948242	0.493408	0.313835	-0.397584	0.662930	-0.551324
37840		0.240114	-9.553421	-1.985570	0.000944	0.012322	0.000858	-0.183350	0.943848	0.495605	0.313764	-0.397501	0.662978	-0.551367
37841		0.294298	-9.659475	-1.959575	0.006276	0.015059	0.005633	-0.180908	0.944336	0.493652	0.313764	-0.397418	0.662993	-0.551408
37842		0.297734	-9.686860	-1.917764	0.012629	0.021623	0.002677	-0.187988	0.951172	0.497559	0.313744	-0.397309	0.662981	-0.551513
37843		0.227213	-9.605812	-1.897043	0.016023	0.021961	0.000367	-0.184814	0.947998	0.489258	0.313698	-0.397182	0.662961	-0.551654
37844		0.193849	-9.513116	-1.855166	0.019739	0.008253	-0.002761	-0.180908	0.949463	0.493164	0.313725	-0.397110	0.662880	-0.551789
37845		0.250146	-9.544439	-1.873270	0.007622	-0.005053	0.000064	-0.190430	0.942383	0.498779	0.313828	-0.397149	0.662809	-0.551787
37846		0.357940	-9.601867	-1.877752	0.001225	-0.001371	0.004085	-0.182373	0.955811	0.496826	0.313872	-0.397157	0.662815	-0.551750
37847		0.393230	-9.630087	-1.894825	-0.005770	0.014486	0.004742	-0.187500	0.944824	0.488281	0.313844	-0.397118	0.662871	-0.551725
37848		0.277031	-9.566124	-1.879825	-0.002734	0.023554	0.003372	-0.188477	0.943115	0.493896	0.313725	-0.396989	0.662963	-0.551776
37849		0.118897	-9.561888	-1.879850	-0.003369	0.028302	0.003587	-0.185791	0.940918	0.487061	0.313588	-0.396863	0.663065	-0.551822
37850		0.053812	-9.576765	-1.879759	-0.006337	0.037628	0.005168	-0.181641	0.949951	0.499756	0.313393	-0.396675	0.663212	-0.551891
37851		0.179284	-9.594448	-1.877064	-0.011091	0.049595	0.012537	-0.179932	0.946289	0.489502	0.313201	-0.396469	0.663404	-0.551918
37852		0.322185	-9.572397	-1.867193	-0.032698	0.065101	0.008851	-0.187744	0.948486	0.494141	0.312817	-0.396232	0.663735	-0.551908
37853		0.383842	-9.566681	-1.891056	-0.045460	0.058634	0.008383	-0.189697	0.950439	0.500244	0.312404	-0.396050	0.664119	-0.551811
37854		0.322751	-9.569712	-1.880809	-0.054792	0.045835	0.011941	-0.189453	0.941650	0.494141	0.312054	-0.395950	0.664518	-0.551599
37855		0.251684	-9.606204	-1.897456	-0.039916	0.034569	0.016031	-0.185547	0.942139	0.499512	0.311819	-0.395820	0.664844	-0.551433
37856		0.156050	-9.638386	-1.933219	-0.022306	0.040733	0.015659	-0.186768	0.945312	0.494873	0.311635	-0.395654	0.665084	-0.551366
37857		0.155880	-9.610347	-1.891618	-0.023714	0.040975	0.010121	-0.181152	0.942383	0.494141	0.311402	-0.395489	0.665325	-0.551325
37858		0.197530	-9.577193	-1.925627	-0.033765	0.031126	0.004350	-0.190186	0.946777	0.493652	0.311184	-0.395445	0.665555	-0.551203
37859		0.274619	-9.597249	-1.961409	-0.028314	0.028578	0.003905	-0.186279	0.943848	0.495117	0.310958	-0.395361	0.665775	-0.551124
