// Start Time: Unknown
// Update Rate: 60.0Hz
// Filter Profile: human (46.1)
// Firmware Version: 4.6.0
PacketCounter	SampleTimeFine	Acc_X	Acc_Y	Acc_Z	Gyr_X	Gyr_Y	Gyr_Z	Mag_X	Mag_Y	Mag_Z	Quat_q0	Quat_q1	Quat_q2	Quat_q3
31449		5.122139	2.899910	7.821675	0.002022	-0.002623	0.001156	-1.028564	0.390137	-1.174316	0.537484	-0.138768	-0.284994	-0.781430
31450		5.129359	2.859585	7.826576	0.001366	-0.001122	-0.000516	-1.030273	0.393066	-1.181396	0.537479	-0.138768	-0.285008	-0.781428
31451		5.114374	2.888190	7.820599	0.000708	-0.002686	-0.000413	-1.035889	0.399414	-1.182617	0.537474	-0.138779	-0.285022	-0.781425
31452		5.118267	2.868271	7.822776	0.004209	-0.003806	-0.000024	-1.033447	0.390625	-1.177246	0.537470	-0.138785	-0.285066	-0.781410
31453		5.132210	2.894271	7.837830	0.003663	-0.002745	-0.000173	-1.031494	0.388672	-1.175781	0.537467	-0.138787	-0.285102	-0.781399
31454		5.130904	2.861254	7.824953	0.005575	-0.004929	-0.000541	-1.031982	0.386719	-1.176758	0.537458	-0.138793	-0.285160	-0.781383
31455		5.116017	2.890339	7.818731	0.003391	-0.000682	-0.001135	-1.032959	0.390137	-1.182617	0.537454	-0.138782	-0.285184	-0.781379
31456		5.128013	2.882714	7.821549	0.004209	-0.003807	-0.000025	-1.037354	0.391846	-1.180420	0.537451	-0.138790	-0.285225	-0.781364
31457		5.132951	2.915476	7.819321	0.000711	0.000378	-0.002189	-1.031982	0.393555	-1.174072	0.537440	-0.138781	-0.285227	-0.781373
31458		5.105379	2.880757	7.831570	0.003337	-0.002560	0.002726	-1.033203	0.396973	-1.173096	0.537457	-0.138792	-0.285254	-0.781349
31459		5.140445	2.875530	7.823920	0.002349	-0.002809	-0.001743	-1.031982	0.389893	-1.171875	0.537443	-0.138798	-0.285279	-0.781349
31460		5.125894	2.885503	7.834724	0.003392	-0.000682	-0.001136	-1.031738	0.397705	-1.175781	0.537441	-0.138789	-0.285299	-0.781345
31461		5.108978	2.880574	7.816467	0.000546	-0.001062	0.000149	-1.035156	0.391846	-1.180664	0.537443	-0.138799	-0.285299	-0.781341
31462		5.109104	2.880627	7.816365	0.000930	-0.000499	0.000859	-1.028076	0.407959	-1.166992	0.537452	-0.138805	-0.285297	-0.781335
31463		5.118081	2.873951	7.833629	0.003227	-0.002122	0.001202	-1.026367	0.404297	-1.182129	0.537463	-0.138814	-0.285314	-0.781319
31464		5.124800	2.852673	7.821651	0.002681	-0.001060	0.001053	-1.031982	0.393555	-1.183838	0.537477	-0.138815	-0.285318	-0.781308
31465		5.132602	2.884085	7.805219	0.002461	-0.000183	-0.001995	-1.029297	0.392822	-1.178223	0.537472	-0.138806	-0.285320	-0.781312
31466		5.113129	2.861832	7.818056	0.005527	-0.000680	-0.000232	-1.029297	0.386230	-1.172852	0.537479	-0.138792	-0.285346	-0.781300
31467		5.107378	2.865323	7.846175	0.005741	-0.003492	-0.002879	-1.027344	0.390625	-1.181152	0.537459	-0.138789	-0.285394	-0.781298
31468		5.130727	2.868958	7.835062	0.006288	-0.004555	-0.002730	-1.034180	0.388428	-1.180664	0.537447	-0.138787	-0.285433	-0.781292
31469		5.115990	2.898440	7.828573	0.005904	-0.005118	-0.003441	-1.029297	0.395752	-1.175781	0.537425	-0.138796	-0.285477	-0.781289
31470		5.134005	2.888643	7.802610	0.005196	-0.002431	-0.003028	-1.034180	0.388184	-1.179199	0.537416	-0.138799	-0.285497	-0.781287
31471		5.120144	2.880097	7.830023	0.005468	-0.004495	-0.002066	-1.030029	0.399170	-1.184570	0.537403	-0.138809	-0.285538	-0.781280
31472		5.117576	2.882358	7.843697	0.005743	-0.003494	-0.002880	-1.030762	0.383301	-1.179199	0.537409	-0.138818	-0.285541	-0.781273
31473		5.150374	2.863031	7.806610	0.007168	-0.003869	0.000213	-1.029053	0.389648	-1.187012	0.537404	-0.138801	-0.285596	-0.781259
31474		5.117800	2.902482	7.825892	-0.001147	0.000248	0.003565	-1.034668	0.395264	-1.176025	0.537446	-0.138806	-0.285538	-0.781251
31475		5.128144	2.860818	7.816483	0.005195	-0.005497	-0.001252	-1.036621	0.397949	-1.169678	0.537443	-0.138856	-0.285574	-0.781231
31476		5.130154	2.895093	7.828395	0.001915	0.000878	-0.002145	-1.031006	0.393799	-1.180420	0.537441	-0.138908	-0.285572	-0.781224
31477		5.124827	2.882007	7.813428	0.001367	-0.001124	-0.000517	-1.030273	0.394287	-1.177979	0.537454	-0.138925	-0.285543	-0.781222
31478		5.141999	2.887501	7.831308	0.002682	-0.001060	0.001052	-1.033691	0.391113	-1.183350	0.537476	-0.138944	-0.285526	-0.781210
31479		5.127535	2.897174	7.842170	0.001093	-0.002125	0.000298	-1.035156	0.390381	-1.183594	0.537492	-0.138964	-0.285504	-0.781204
31480		5.105924	2.859904	7.825882	0.003393	-0.000684	-0.001137	-1.038330	0.387695	-1.176758	0.537502	-0.138961	-0.285497	-0.781200
31481		5.117127	2.870849	7.812132	-0.000052	0.001188	0.002085	-1.028076	0.394531	-1.179199	0.537508	-0.138987	-0.285503	-0.781189
31482		5.131253	2.877553	7.844391	0.003119	-0.001685	-0.000323	-1.032227	0.391602	-1.176270	0.537527	-0.138990	-0.285477	-0.781185
31483		5.122646	2.884719	7.826685	0.001367	-0.001124	-0.000517	-1.033691	0.389648	-1.177734	0.537523	-0.139014	-0.285475	-0.781184
31484		5.117450	2.871769	7.811582	0.003829	-0.001310	-0.002513	-1.039062	0.400635	-1.175781	0.537505	-0.139014	-0.285501	-0.781187
31485		5.117546	2.872419	7.811281	0.004324	-0.001184	-0.000279	-1.027100	0.388428	-1.182861	0.537534	-0.139117	-0.285479	-0.781156
31486		5.100162	2.883784	7.836264	0.002898	-0.003875	-0.001594	-1.029785	0.395020	-1.177246	0.537529	-0.139069	-0.285474	-0.781170
31487		5.135194	2.878796	7.828524	0.003171	-0.002874	-0.002409	-1.032471	0.395020	-1.174805	0.537531	-0.139092	-0.285455	-0.781171
31488		5.112632	2.876864	7.838527	0.004650	-0.004437	-0.001401	-1.034180	0.389893	-1.187744	0.537528	-0.139152	-0.285473	-0.781157
31489		5.137693	2.913705	7.839863	0.001804	-0.001750	-0.001892	-1.030762	0.388428	-1.172607	0.537546	-0.139114	-0.285435	-0.781165
31490		5.116171	2.876628	7.823465	0.004103	-0.003374	-0.001550	-1.037109	0.394775	-1.179199	0.537499	-0.139124	-0.285503	-0.781171
31491		5.138763	2.895870	7.856004	0.003120	-0.001686	-0.000324	-1.036865	0.389893	-1.181885	0.537519	-0.139179	-0.285489	-0.781152
31492		5.120086	2.857164	7.825513	0.001316	0.000064	0.001568	-1.020752	0.384766	-1.177979	0.537539	-0.139180	-0.285480	-0.781141
31493		5.119822	2.876459	7.808302	0.005034	-0.003874	-0.000692	-1.034424	0.394775	-1.171875	0.537520	-0.139056	-0.285513	-0.781164
31494		5.125561	2.890331	7.822705	0.001641	-0.003189	0.000447	-1.033203	0.394043	-1.176758	0.537508	-0.139175	-0.285517	-0.781150
31495		5.122985	2.891816	7.836681	0.000710	-0.002689	-0.000412	-1.036133	0.402344	-1.177490	0.537516	-0.139237	-0.285490	-0.781143
31496		5.137931	2.882506	7.825363	0.000984	-0.001689	-0.001227	-1.032227	0.391846	-1.174805	0.537567	-0.139372	-0.285394	-0.781119
31497		5.121142	2.877329	7.807116	0.000274	-0.002064	0.000963	-1.032471	0.392578	-1.178467	0.537562	-0.139415	-0.285390	-0.781116
31498		5.133557	2.850226	7.827128	0.000384	0.000564	0.000710	-1.036133	0.387451	-1.171631	0.537585	-0.139420	-0.285349	-0.781115
31499		5.121588	2.877687	7.806691	0.005198	-0.005501	-0.001253	-1.032959	0.387939	-1.181152	0.537508	-0.139477	-0.285478	-0.781110
31500		5.121549	2.897145	7.789262	0.001146	-0.003316	-0.001787	-1.032227	0.394043	-1.173340	0.537496	-0.139434	-0.285496	-0.781120
31501		5.124759	2.893208	7.835007	0.000710	-0.002690	-0.000412	-1.030762	0.400146	-1.180176	0.537489	-0.139513	-0.285475	-0.781118
31502		5.111432	2.867855	7.819374	0.001752	-0.000562	0.000193	-1.033203	0.391846	-1.183594	0.537575	-0.139556	-0.285344	-0.781100
31503		5.122703	2.878907	7.805510	0.002573	-0.000624	-0.000473	-1.033691	0.396729	-1.178223	0.537612	-0.139504	-0.285309	-0.781096
31504		5.119826	2.880624	7.819603	0.002189	-0.001188	-0.001183	-1.029053	0.383789	-1.177490	0.537648	-0.139553	-0.285255	-0.781082
31505		5.119863	2.880899	7.819477	0.000821	-0.000062	-0.000666	-1.025391	0.383057	-1.182373	0.537597	-0.139448	-0.285304	-0.781118
31506		5.114826	2.868093	7.804223	0.007609	-0.004499	-0.001166	-1.030029	0.388428	-1.174316	0.537586	-0.139259	-0.285378	-0.781133
31507		5.120841	2.863213	7.835648	0.000273	0.001001	-0.000815	-1.031494	0.388672	-1.172607	0.537552	-0.139248	-0.285382	-0.781156
31508		5.129110	2.875666	7.836071	0.003557	-0.002313	-0.001700	-1.028564	0.392090	-1.174805	0.537490	-0.139276	-0.285435	-0.781175
31509		5.129331	2.876275	7.835703	0.003557	-0.002314	-0.001700	-1.029053	0.386719	-1.174072	0.537501	-0.139285	-0.285419	-0.781171
31510		5.112622	2.871555	7.817237	0.002899	-0.003878	-0.001595	-1.032959	0.389648	-1.180420	0.537450	-0.139267	-0.285472	-0.781190
31511		5.143515	2.902933	7.850285	0.003557	-0.002314	-0.001700	-1.036865	0.384033	-1.182373	0.537462	-0.139228	-0.285485	-0.781184
31512		5.129524	2.897128	7.817591	0.005856	-0.000875	-0.003138	-1.026855	0.389893	-1.175049	0.537408	-0.139127	-0.285585	-0.781203
31513		5.130167	2.879139	7.834104	0.006079	-0.001748	-0.000089	-1.038086	0.392090	-1.179688	0.537442	-0.139091	-0.285586	-0.781185
31514		5.133292	2.878306	7.819517	0.001368	-0.001126	-0.000517	-1.029541	0.391357	-1.180908	0.537441	-0.139143	-0.285580	-0.781178
31515		5.133512	2.878916	7.819149	0.005747	-0.003503	-0.002884	-1.031982	0.396973	-1.173828	0.537498	-0.139083	-0.285571	-0.781154
31516		5.122597	2.869054	7.832362	0.003994	-0.002942	-0.003076	-1.035400	0.394775	-1.184814	0.537525	-0.139187	-0.285526	-0.781133
31517		5.134099	2.880354	7.818233	0.000763	-0.003882	-0.002496	-1.030518	0.391113	-1.181152	0.537601	-0.139190	-0.285470	-0.781101
31518		5.133930	2.899662	7.800910	0.003285	-0.003315	-0.000886	-1.036133	0.394043	-1.183350	0.537651	-0.139149	-0.285450	-0.781081
31519		5.123118	2.889496	7.814171	0.004106	-0.003378	-0.001552	-1.033691	0.384766	-1.174072	0.537719	-0.139150	-0.285435	-0.781040
31520		5.134907	2.881975	7.817105	0.003119	0.001376	-0.002105	-1.026611	0.386719	-1.178955	0.537619	-0.139135	-0.285506	-0.781085
31521		5.123178	2.890393	7.813801	0.000275	-0.002064	0.000964	-1.029053	0.391602	-1.178467	0.537636	-0.139064	-0.285489	-0.781092
31522		5.120451	2.891926	7.827874	0.003890	-0.000560	0.001093	-1.030029	0.394287	-1.178711	0.537702	-0.139033	-0.285457	-0.781064
31523		5.127005	2.870812	7.815982	0.003010	-0.001252	-0.001850	-1.038818	0.385010	-1.184082	0.537773	-0.139031	-0.285406	-0.781034
31524		5.123574	2.891343	7.813189	-0.000769	-0.001129	-0.001418	-1.028564	0.389893	-1.177979	0.537729	-0.138988	-0.285452	-0.781055
31525		5.115476	2.879472	7.812457	0.003122	-0.001688	-0.000326	-1.024902	0.404785	-1.175537	0.537756	-0.138958	-0.285439	-0.781046
31526		5.117955	2.894679	7.841347	0.002574	-0.000625	-0.000475	-1.031006	0.394531	-1.172852	0.537973	-0.139028	-0.285266	-0.780948
31527		5.120971	2.893622	7.826907	0.001753	-0.000562	0.000192	-1.038574	0.391357	-1.181641	0.538002	-0.139106	-0.285233	-0.780926
31528		5.116465	2.861717	7.828684	0.004106	-0.003379	-0.001552	-1.034668	0.397461	-1.179199	0.538017	-0.139121	-0.285275	-0.780898
31529		5.121473	2.894526	7.826244	0.002686	-0.001061	0.001050	-1.033936	0.393311	-1.176270	0.538130	-0.139169	-0.285222	-0.780831
31530		5.107769	2.885659	7.853793	0.005203	-0.005507	-0.001254	-1.034912	0.389893	-1.176270	0.538143	-0.139225	-0.285254	-0.780800
31531		5.111082	2.885070	7.838986	0.005533	-0.000686	-0.000241	-1.033203	0.397461	-1.180908	0.538128	-0.139234	-0.285301	-0.780792
31532		5.139934	2.885496	7.799650	0.001257	-0.000691	-0.002042	-1.036377	0.391602	-1.173340	0.538229	-0.139244	-0.285227	-0.780747
31533		5.114673	2.865729	7.841247	0.002190	-0.001190	-0.001184	-1.029053	0.391357	-1.173584	0.538206	-0.139316	-0.285260	-0.780738
31534		5.122507	2.897045	7.824635	0.002302	-0.001626	0.000341	-1.031738	0.391602	-1.184814	0.538195	-0.139342	-0.285249	-0.780745
31535		5.114517	2.885221	7.823823	0.001917	-0.002190	-0.000369	-1.028564	0.395020	-1.177002	0.538254	-0.139275	-0.285217	-0.780728
31536		5.111135	2.905775	7.820977	0.001257	-0.000691	-0.002042	-1.030518	0.393066	-1.177246	0.538299	-0.139278	-0.285155	-0.780720
31537		5.126552	2.877629	7.826627	0.002798	-0.001497	0.002574	-1.029785	0.391602	-1.176270	0.538346	-0.139288	-0.285130	-0.780694
31538		5.109686	2.872487	7.808420	0.002138	0.000002	0.000900	-1.035889	0.391602	-1.178955	0.538358	-0.139284	-0.285110	-0.780694
31539		5.135160	2.890163	7.826770	0.003235	-0.002125	0.001198	-1.032227	0.394775	-1.169434	0.538382	-0.139300	-0.285133	-0.780666
31540		5.150089	2.880752	7.815487	-0.001974	-0.001630	-0.001460	-1.030762	0.398682	-1.179443	0.538359	-0.139422	-0.285103	-0.780671
31541		5.127200	2.878167	7.826005	0.001205	0.000501	0.000042	-1.036865	0.390869	-1.180420	0.538468	-0.139429	-0.285013	-0.780627
31542		5.123791	2.898628	7.823208	0.001917	-0.002191	-0.000369	-1.033203	0.397705	-1.176270	0.538479	-0.139429	-0.285040	-0.780610
31543		5.121676	2.884252	7.793769	0.003559	-0.002318	-0.001702	-1.031250	0.393799	-1.176025	0.538538	-0.139477	-0.285016	-0.780570
31544		5.139501	2.871122	7.828434	0.002686	-0.001061	0.001049	-1.022949	0.388672	-1.179443	0.538565	-0.139495	-0.284999	-0.780554
31545		5.131428	2.859447	7.827628	0.004328	-0.001189	-0.000284	-1.036377	0.392090	-1.173340	0.538541	-0.139399	-0.284979	-0.780595
31546		5.108156	2.876429	7.820835	0.003227	-0.004076	-0.004495	-1.030029	0.386719	-1.178223	0.538486	-0.139469	-0.285037	-0.780599
31547		5.139539	2.891638	7.810490	0.001369	-0.001127	-0.000518	-1.031250	0.393066	-1.182373	0.538438	-0.139423	-0.285057	-0.780633
31548		5.123192	2.868010	7.809117	0.005586	-0.001881	-0.002327	-1.029541	0.388184	-1.179688	0.538483	-0.139364	-0.285055	-0.780613
31549		5.114557	2.872874	7.851576	0.003560	-0.002319	-0.001702	-1.027588	0.391602	-1.176270	0.538457	-0.139309	-0.285077	-0.780633
31550		5.125427	2.903120	7.820470	0.004493	-0.002818	-0.000844	-1.029785	0.389404	-1.176758	0.538458	-0.139297	-0.285076	-0.780635
31551		5.123831	2.870096	7.807931	0.003832	-0.001319	-0.002518	-1.032227	0.392334	-1.179443	0.538426	-0.139270	-0.285095	-0.780655
31552		5.114568	2.893912	7.833451	0.006904	-0.001816	-0.000761	-1.031494	0.397705	-1.177734	0.538458	-0.139242	-0.285117	-0.780630
31553		5.112414	2.879859	7.803918	0.003560	-0.002319	-0.001702	-1.033203	0.386963	-1.172607	0.538527	-0.139270	-0.285081	-0.780590
31554		5.114926	2.895281	7.832711	0.003011	-0.001256	-0.001852	-1.039307	0.388428	-1.177490	0.538432	-0.139296	-0.285138	-0.780630
31555		5.126794	2.887704	7.835625	0.002243	-0.002386	-0.003269	-1.034668	0.394043	-1.175293	0.538372	-0.139322	-0.285204	-0.780643
31556		5.118771	2.876028	7.834799	0.001918	-0.002192	-0.000369	-1.027344	0.388672	-1.171387	0.538381	-0.139380	-0.285200	-0.780628
31557		5.126552	2.907406	7.818140	0.003781	-0.000126	-0.000435	-1.028076	0.395996	-1.182617	0.538334	-0.139379	-0.285210	-0.780657
31558		5.121876	2.875434	7.820116	0.001754	-0.000563	0.000191	-1.033936	0.390381	-1.180176	0.538440	-0.139332	-0.285136	-0.780619
31559		5.130840	2.868994	7.837384	0.003124	-0.001691	-0.000327	-1.030762	0.391113	-1.171143	0.538454	-0.139312	-0.285154	-0.780607
31560		5.115751	2.897801	7.831240	0.003509	-0.001126	0.000382	-1.029053	0.395996	-1.179443	0.538419	-0.139358	-0.285166	-0.780618
31561		5.104589	2.887424	7.844866	0.000709	0.000370	-0.002192	-1.030762	0.399658	-1.175781	0.538481	-0.139340	-0.285098	-0.780603
31562		5.133281	2.887403	7.805744	0.000384	0.000565	0.000709	-1.030518	0.394043	-1.178223	0.538564	-0.139390	-0.285014	-0.780568
31563		5.119326	2.878107	7.833673	0.000713	-0.002693	-0.000410	-1.031738	0.388672	-1.170166	0.538594	-0.139404	-0.284985	-0.780555
31564		5.127712	2.890623	7.833947	0.004602	-0.000190	-0.001102	-1.027100	0.391602	-1.175537	0.538516	-0.139433	-0.285030	-0.780587
31565		5.127840	2.891198	7.833651	0.002355	-0.002822	-0.001744	-1.026855	0.383789	-1.183105	0.538509	-0.139428	-0.285020	-0.780597
31566		5.111028	2.886299	7.815320	0.003124	-0.001691	-0.000327	-1.038086	0.390869	-1.186279	0.538505	-0.139306	-0.285049	-0.780611
31567		5.122915	2.878570	7.818281	0.002575	-0.000627	-0.000477	-1.031738	0.384766	-1.170410	0.538555	-0.139253	-0.285067	-0.780579
31568		5.123100	2.879000	7.818002	0.004058	-0.002190	0.000530	-1.024414	0.387939	-1.175781	0.538444	-0.139286	-0.285135	-0.780625
31569		5.132214	2.872627	7.835154	0.001919	-0.002192	-0.000369	-1.029053	0.388184	-1.174072	0.538440	-0.139248	-0.285129	-0.780637
31570		5.115497	2.867589	7.816813	0.002468	-0.003256	-0.000219	-1.033203	0.393799	-1.184326	0.538400	-0.139260	-0.285152	-0.780654
31571		5.121045	2.881518	7.831295	0.003012	-0.001257	-0.001852	-1.031738	0.390381	-1.175293	0.538472	-0.139213	-0.285138	-0.780618
31572		5.135851	2.872493	7.819947	0.003509	-0.001126	0.000381	-1.032959	0.392334	-1.179932	0.538458	-0.139225	-0.285152	-0.780620
31573		5.113222	2.870285	7.830188	0.002468	-0.003257	-0.000219	-1.031738	0.399414	-1.179443	0.538486	-0.139229	-0.285156	-0.780598
31574		5.121731	2.882759	7.830389	0.001807	-0.001759	-0.001894	-1.034668	0.394043	-1.180908	0.538567	-0.139253	-0.285101	-0.780558
31575		5.121903	2.883176	7.830124	0.003125	-0.001692	-0.000328	-1.036377	0.394043	-1.180176	0.538614	-0.139250	-0.285100	-0.780527
31576		5.129177	2.843142	7.835176	0.002740	-0.002257	-0.001036	-1.038574	0.391357	-1.176025	0.538646	-0.139265	-0.285108	-0.780500
31577		5.112931	2.909651	7.795053	0.001038	-0.002890	-0.003310	-1.035156	0.388672	-1.176514	0.538601	-0.139317	-0.285141	-0.780509
31578		5.128408	2.881534	7.800710	0.002252	-0.000432	0.002424	-1.034180	0.383789	-1.177490	0.538590	-0.139329	-0.285164	-0.780506
31579		5.121044	2.850952	7.816850	0.004111	-0.003387	-0.001554	-1.031006	0.388916	-1.173584	0.538521	-0.139307	-0.285241	-0.780530
31580		5.123159	2.885329	7.828509	0.002793	-0.003454	-0.003120	-1.038574	0.392578	-1.182617	0.538462	-0.139328	-0.285270	-0.780556
31581		5.123481	2.886061	7.828028	0.004932	-0.003452	-0.002222	-1.035889	0.401123	-1.179199	0.538485	-0.139321	-0.285309	-0.780527
31582		5.123874	2.887088	7.827392	0.007124	-0.004646	-0.003408	-1.023926	0.390625	-1.178711	0.538544	-0.139362	-0.285310	-0.780478
31583		5.118307	2.893529	7.794994	0.004435	-0.003584	-0.004456	-1.028809	0.400146	-1.182373	0.538547	-0.139307	-0.285305	-0.780488
31584		5.112747	2.897283	7.823019	0.005754	-0.003518	-0.002890	-1.033691	0.387451	-1.177734	0.538650	-0.139285	-0.285268	-0.780435
31585		5.108215	2.865791	7.824783	0.004219	-0.000758	-0.001813	-1.032715	0.391846	-1.176270	0.538619	-0.139258	-0.285305	-0.780447
31586		5.125410	2.871909	7.842415	0.003999	-0.002955	-0.003080	-1.031738	0.388428	-1.177246	0.538604	-0.139270	-0.285324	-0.780448
31587		5.133450	2.903811	7.825308	0.006854	-0.005647	-0.002592	-1.030518	0.394531	-1.176758	0.538571	-0.139261	-0.285387	-0.780450
31588		5.126116	2.873753	7.841277	0.002900	-0.000827	-0.003379	-1.029053	0.387207	-1.174316	0.538590	-0.139260	-0.285364	-0.780446
31589		5.099169	2.910795	7.831906	0.002357	-0.002825	-0.001745	-1.031738	0.393799	-1.174316	0.538539	-0.139263	-0.285381	-0.780474
31590		5.135877	2.852002	7.814683	0.004436	-0.003587	-0.004456	-1.027100	0.386230	-1.173096	0.538520	-0.139291	-0.285393	-0.780478
31591		5.131497	2.908352	7.837793	0.005371	-0.004086	-0.003599	-1.028564	0.394531	-1.179932	0.538452	-0.139279	-0.285436	-0.780511
31592		5.110577	2.942935	7.799584	0.003616	-0.003522	-0.003789	-1.032227	0.389160	-1.178467	0.538494	-0.139257	-0.285419	-0.780492
31593		5.130426	2.876103	7.824704	0.003790	-0.003191	0.001346	-1.037109	0.390625	-1.180664	0.538508	-0.139251	-0.285440	-0.780476
31594		5.121895	2.883396	7.806802	0.004769	-0.001824	-0.001665	-1.027832	0.393555	-1.174805	0.538522	-0.139234	-0.285473	-0.780457
31595		5.130187	2.896397	7.806921	0.003774	-0.002091	-0.006132	-1.031006	0.391113	-1.179199	0.538510	-0.139230	-0.285461	-0.780471
31596		5.116262	2.888085	7.834550	0.006141	-0.002955	-0.002184	-1.029053	0.388184	-1.180908	0.538529	-0.139201	-0.285484	-0.780454
31597		5.122487	2.886141	7.805399	0.004665	-0.004455	-0.001406	-1.036621	0.388184	-1.174072	0.538541	-0.139160	-0.285510	-0.780444
31598		5.125289	2.901737	7.833944	0.002795	-0.003459	-0.003121	-1.029053	0.386230	-1.183105	0.538474	-0.139200	-0.285553	-0.780467
31599		5.131520	2.899612	7.804851	0.004665	-0.004455	-0.001407	-1.028320	0.394287	-1.182373	0.538492	-0.139135	-0.285586	-0.780454
31600		5.123757	2.888201	7.803803	0.003731	-0.003957	-0.002264	-1.029053	0.390625	-1.181396	0.538567	-0.139100	-0.285570	-0.780415
31601		5.124626	2.869807	7.820491	0.000052	-0.001199	-0.002084	-1.024658	0.392090	-1.179688	0.538602	-0.139064	-0.285538	-0.780408
31602		5.117659	2.910576	7.814868	0.003128	-0.001694	-0.000330	-1.036133	0.386719	-1.177979	0.538663	-0.139022	-0.285507	-0.780385
31603		5.118397	2.892139	7.831660	0.001258	-0.000698	-0.002044	-1.036621	0.387207	-1.176758	0.538620	-0.139022	-0.285527	-0.780408
31604		5.123722	2.908211	7.785967	-0.000157	-0.001431	0.002343	-1.027588	0.387207	-1.178955	0.538599	-0.139054	-0.285536	-0.780413
31605		5.129900	2.902657	7.817681	-0.000707	-0.000367	0.002194	-1.029785	0.392822	-1.174805	0.538619	-0.139030	-0.285504	-0.780415
31606		5.133028	2.900914	7.803375	-0.000594	-0.000799	0.003719	-1.022461	0.388184	-1.181396	0.538661	-0.139067	-0.285460	-0.780396
31607		5.141911	2.893614	7.821061	-0.004001	0.002959	0.003082	-1.029297	0.382568	-1.174316	0.538732	-0.139002	-0.285371	-0.780391
31608		5.125366	2.868574	7.820458	-0.003337	0.001461	0.004757	-1.035645	0.395508	-1.177734	0.538675	-0.139016	-0.285342	-0.780438
31609		5.114076	2.857293	7.834573	-0.001153	0.003328	0.001785	-1.024658	0.391846	-1.175537	0.538732	-0.139036	-0.285287	-0.780415
31610		5.130310	2.880994	7.835875	-0.005539	0.000693	0.000251	-1.032959	0.392090	-1.175293	0.538758	-0.139049	-0.285200	-0.780427
31611		5.115432	2.889642	7.847420	-0.005757	0.003522	0.002893	-1.029053	0.391846	-1.180420	0.538773	-0.139088	-0.285122	-0.780438
31612		5.121154	2.885930	7.819247	-0.004106	0.000327	0.003341	-1.033203	0.390381	-1.177490	0.538836	-0.139087	-0.285057	-0.780418
31613		5.113074	2.873091	7.818930	-0.004054	-0.000871	0.001257	-1.039307	0.383301	-1.177979	0.538829	-0.139123	-0.285022	-0.780430
31614		5.130195	2.877800	7.837124	-0.003450	0.001893	0.003231	-1.025879	0.391846	-1.174561	0.538764	-0.139145	-0.285024	-0.780470
31615		5.130135	2.876996	7.837459	-0.004655	0.001392	0.003191	-1.027344	0.391113	-1.184814	0.538793	-0.139166	-0.284946	-0.780474
31616		5.124715	2.862748	7.823019	-0.003948	0.001759	0.000998	-1.036621	0.395996	-1.179199	0.538878	-0.139107	-0.284879	-0.780451
31617		5.101755	2.859611	7.833859	-0.002463	0.000196	0.002004	-1.038818	0.388672	-1.174316	0.538921	-0.139149	-0.284838	-0.780429
31618		5.114808	2.903939	7.832103	0.000602	-0.002262	-0.001935	-1.031006	0.387451	-1.181152	0.538831	-0.139205	-0.284870	-0.780469
31619		5.115549	2.887382	7.788689	-0.003555	-0.000738	0.003489	-1.035889	0.387939	-1.176514	0.538851	-0.139198	-0.284843	-0.780466
31620		5.119027	2.883020	7.834609	0.000558	-0.004128	0.001933	-1.028076	0.395020	-1.184570	0.538805	-0.139245	-0.284872	-0.780479
31621		5.125455	2.880300	7.805608	0.002200	-0.004259	0.000597	-1.022949	0.391357	-1.179199	0.538898	-0.139214	-0.284861	-0.780425
31622		5.127293	2.842863	7.839111	0.002200	-0.004259	0.000596	-1.028809	0.393799	-1.180664	0.538943	-0.139188	-0.284853	-0.780401
31623		5.131771	2.894382	7.819521	0.002742	-0.002260	-0.001038	-1.031982	0.396729	-1.178955	0.538989	-0.139165	-0.284847	-0.780375
31624		5.125755	2.916368	7.830698	0.003905	-0.003626	0.002869	-1.028076	0.391846	-1.172363	0.539058	-0.139186	-0.284849	-0.780323
31625		5.130644	2.861364	7.806745	0.003232	0.000936	-0.000589	-1.028809	0.387939	-1.179688	0.539033	-0.139190	-0.284840	-0.780343
31626		5.105073	2.860536	7.831359	0.001816	-0.004826	-0.000111	-1.028076	0.400635	-1.177979	0.539019	-0.139183	-0.284862	-0.780346
31627		5.147733	2.886010	7.807147	-0.000271	-0.000999	0.000817	-1.034668	0.391357	-1.176514	0.539115	-0.139201	-0.284803	-0.780298
31628		5.133892	2.876785	7.835076	0.002306	-0.001629	0.000338	-1.025635	0.398682	-1.176758	0.539093	-0.139224	-0.284818	-0.780304
31629		5.125965	2.864978	7.834281	0.002856	-0.002694	0.000487	-1.033447	0.392822	-1.176758	0.539167	-0.139232	-0.284790	-0.780262
31630		5.114502	2.873403	7.830785	0.002306	-0.001629	0.000338	-1.026123	0.386719	-1.170410	0.539164	-0.139251	-0.284797	-0.780258
31631		5.131911	2.879267	7.848364	0.003729	-0.003958	-0.002265	-1.034180	0.388672	-1.178955	0.539062	-0.139275	-0.284830	-0.780312
31632		5.129170	2.883828	7.801864	0.003563	-0.002327	-0.001707	-1.023926	0.385742	-1.180176	0.539027	-0.139267	-0.284866	-0.780324
31633		5.130219	2.865340	7.818462	0.001380	-0.004195	0.001265	-1.031006	0.396484	-1.176025	0.539039	-0.139230	-0.284879	-0.780318
31634		5.135912	2.879096	7.832903	0.003897	-0.000562	0.001084	-1.033203	0.384277	-1.174805	0.539077	-0.139241	-0.284869	-0.780293
31635		5.128648	2.848821	7.848962	0.005100	-0.005090	-0.002785	-1.039062	0.394043	-1.178223	0.538967	-0.139256	-0.284942	-0.780340
31636		5.128605	2.868759	7.831169	0.008998	-0.005653	-0.001701	-1.029785	0.389404	-1.180420	0.538940	-0.139285	-0.285018	-0.780326
31637		5.105600	2.886265	7.823982	0.007513	-0.004090	-0.002707	-1.028076	0.394043	-1.183350	0.538945	-0.139240	-0.285074	-0.780310
31638		5.109459	2.867298	7.826024	0.007783	-0.003091	-0.003525	-1.033203	0.389648	-1.178955	0.539009	-0.139174	-0.285105	-0.780266
31639		5.130521	2.853858	7.845907	0.008115	-0.006356	-0.004642	-1.027588	0.392334	-1.170410	0.538969	-0.139164	-0.285182	-0.780267
31640		5.147323	2.879441	7.846122	0.007233	-0.002027	-0.003675	-1.030273	0.386230	-1.177246	0.538924	-0.139172	-0.285209	-0.780287
31641		5.108113	2.856358	7.794799	0.008065	-0.005157	-0.002559	-1.032715	0.391846	-1.166504	0.538883	-0.139149	-0.285282	-0.780292
31642		5.119207	2.884547	7.823610	0.005758	-0.003528	-0.002896	-1.025879	0.389893	-1.178467	0.538777	-0.139222	-0.285316	-0.780341
31643		5.131049	2.877419	7.826390	0.005311	0.000169	-0.003306	-1.030518	0.395996	-1.176758	0.538809	-0.139155	-0.285325	-0.780327
31644		5.122075	2.885036	7.808634	0.005041	-0.000830	-0.002488	-1.036133	0.392090	-1.175537	0.538833	-0.139149	-0.285321	-0.780313
31645		5.131393	2.860065	7.843077	0.001310	0.003132	-0.000222	-1.033691	0.387939	-1.175781	0.538815	-0.139160	-0.285299	-0.780331
31646		5.092166	2.905100	7.830838	0.003940	0.001300	-0.002786	-1.029297	0.404297	-1.177002	0.538772	-0.139141	-0.285317	-0.780358
31647		5.118459	2.888184	7.822758	0.004221	-0.000764	-0.001819	-1.030273	0.389404	-1.175537	0.538842	-0.139162	-0.285271	-0.780323
31648		5.107326	2.878104	7.836370	0.004169	0.000436	0.000265	-1.030762	0.388672	-1.175293	0.538841	-0.139146	-0.285278	-0.780324
31649		5.106848	2.897252	7.819106	0.002038	-0.002629	0.001156	-1.033203	0.388916	-1.174316	0.538828	-0.139163	-0.285287	-0.780326
31650		5.119097	2.888903	7.822074	-0.002453	-0.002863	0.003793	-1.032471	0.396973	-1.172607	0.538808	-0.139225	-0.285270	-0.780335
31651		5.154105	2.882820	7.814604	-0.001143	0.000268	0.003570	-1.028809	0.389404	-1.183838	0.538820	-0.139293	-0.285213	-0.780336
31652		5.120209	2.869165	7.839140	-0.002027	-0.000434	0.000631	-1.027100	0.390625	-1.175293	0.538884	-0.139252	-0.285183	-0.780310
31653		5.107863	2.895677	7.819027	-0.002463	0.000200	0.002007	-1.032227	0.384521	-1.177246	0.538907	-0.139261	-0.285137	-0.780309
31654		5.129630	2.845084	7.813605	-0.003835	0.001332	0.002526	-1.031738	0.385010	-1.178467	0.538893	-0.139262	-0.285111	-0.780328
31655		5.111281	2.874184	7.822307	-0.003565	0.002330	0.001708	-1.029785	0.395752	-1.175781	0.538892	-0.139244	-0.285081	-0.780343
31656		5.125360	2.880445	7.854834	-0.003399	0.000698	0.001150	-1.030273	0.390869	-1.177002	0.538916	-0.139278	-0.285014	-0.780345
31657		5.125788	2.863885	7.811592	0.000821	-0.000066	-0.000669	-1.032959	0.396484	-1.172607	0.538917	-0.139272	-0.285001	-0.780350
31658		5.120031	2.866647	7.840178	-0.002027	-0.000434	0.000630	-1.027588	0.391113	-1.177979	0.538894	-0.139341	-0.284953	-0.780372
31659		5.126576	2.845049	7.828529	0.003899	-0.000563	0.001083	-1.029785	0.395752	-1.171143	0.538934	-0.139310	-0.284956	-0.780348
31660		5.135688	2.838980	7.845628	0.004937	-0.003462	-0.002227	-1.027100	0.400146	-1.173096	0.538897	-0.139353	-0.284966	-0.780362
31661		5.128352	2.899186	7.822536	0.006309	-0.004595	-0.002747	-1.028809	0.392090	-1.175781	0.538901	-0.139386	-0.284970	-0.780352
31662		5.136254	2.840864	7.844574	0.004491	0.000234	-0.002637	-1.029297	0.392578	-1.181152	0.538900	-0.139360	-0.284975	-0.780355
31663		5.133277	2.843301	7.858553	0.006299	-0.001532	-0.004533	-1.042236	0.393799	-1.177490	0.538923	-0.139306	-0.285002	-0.780340
31664		5.111335	2.897017	7.803333	0.008057	-0.002098	-0.004346	-1.033203	0.395996	-1.179932	0.538851	-0.139328	-0.285060	-0.780364
31665		5.117650	2.893375	7.834293	0.011468	-0.005860	-0.003710	-1.031738	0.386963	-1.170898	0.538853	-0.139317	-0.285131	-0.780339
31666		5.104656	2.869171	7.818200	0.007633	-0.004528	-0.001184	-1.037109	0.385498	-1.185303	0.538791	-0.139335	-0.285199	-0.780354
31667		5.141621	2.898843	7.821866	0.010148	-0.005932	-0.005275	-1.025635	0.395752	-1.176758	0.538773	-0.139276	-0.285310	-0.780335
31668		5.110995	2.885819	7.831140	0.008391	-0.005367	-0.005462	-1.032959	0.394043	-1.169678	0.538785	-0.139258	-0.285345	-0.780318
31669		5.125953	2.877610	7.819360	0.006031	-0.002535	-0.003717	-1.032227	0.396484	-1.185547	0.538717	-0.139300	-0.285368	-0.780349
31670		5.137842	2.870600	7.822078	0.006801	-0.001400	-0.002303	-1.026611	0.388672	-1.175049	0.538777	-0.139253	-0.285378	-0.780312
31671		5.106027	2.875636	7.814928	0.004492	0.000231	-0.002640	-1.024170	0.385254	-1.173096	0.538780	-0.139214	-0.285387	-0.780314
31672		5.111316	2.890139	7.829336	0.006802	-0.001401	-0.002303	-1.035400	0.385986	-1.179932	0.538773	-0.139166	-0.285426	-0.780313
31673		5.125411	2.900118	7.800854	0.001810	-0.001768	-0.001896	-1.031006	0.385742	-1.172607	0.538749	-0.139155	-0.285450	-0.780323
31674		5.131443	2.895255	7.832478	0.002028	0.000433	-0.000632	-1.035400	0.394043	-1.173828	0.538712	-0.139154	-0.285455	-0.780347
31675		5.108981	2.876498	7.799747	0.002143	0.000002	0.000894	-1.032227	0.391602	-1.177979	0.538687	-0.139198	-0.285438	-0.780363
31676		5.121394	2.849607	7.820020	-0.001373	0.001133	0.000520	-1.034180	0.399658	-1.173828	0.538701	-0.139204	-0.285398	-0.780366
31677		5.100186	2.880946	7.842657	0.002464	-0.000203	-0.002008	-1.030273	0.390381	-1.178955	0.538673	-0.139255	-0.285364	-0.780389
31678		5.114213	2.890458	7.814390	0.000552	-0.001066	0.000150	-1.027832	0.396973	-1.175049	0.538698	-0.139248	-0.285350	-0.780379
31679		5.103318	2.879951	7.828044	0.001925	-0.002199	-0.000370	-1.041748	0.383789	-1.175293	0.538715	-0.139275	-0.285320	-0.780372
31680		5.123530	2.884228	7.831440	0.000988	-0.001701	-0.001226	-1.026611	0.394287	-1.175293	0.538633	-0.139307	-0.285358	-0.780409
31681		5.135671	2.876445	7.834281	0.003029	-0.004331	-0.000071	-1.031006	0.388428	-1.181885	0.538654	-0.139328	-0.285353	-0.780393
31682		5.121955	2.869747	7.801662	0.000834	-0.003130	0.001119	-1.029297	0.386719	-1.177002	0.538694	-0.139314	-0.285359	-0.780366
31683		5.124615	2.884754	7.830535	0.000385	0.000568	0.000707	-1.027588	0.393799	-1.179443	0.538716	-0.139290	-0.285348	-0.780359
31684		5.116568	2.872530	7.830029	-0.000924	-0.002564	0.000932	-1.041504	0.393799	-1.177979	0.538764	-0.139299	-0.285314	-0.780336
31685		5.116842	2.872377	7.829906	-0.000269	-0.000998	0.000819	-1.032471	0.384521	-1.174561	0.538730	-0.139356	-0.285299	-0.780355
31686		5.148098	2.886782	7.819680	-0.003234	-0.000933	0.000595	-1.037598	0.390381	-1.172607	0.538706	-0.139375	-0.285286	-0.780373
31687		5.124465	2.902433	7.813546	-0.002798	0.003470	0.003123	-1.034912	0.386963	-1.175293	0.538674	-0.139419	-0.285237	-0.780405
31688		5.110774	2.873671	7.859265	-0.003786	0.005171	0.004349	-1.029541	0.395264	-1.177246	0.538686	-0.139422	-0.285184	-0.780416
31689		5.136320	2.873852	7.834807	-0.005865	0.000903	0.003160	-1.038818	0.394287	-1.171631	0.538721	-0.139460	-0.285098	-0.780416
31690		5.118919	2.867419	7.817435	-0.004337	0.006236	0.004199	-1.034912	0.392090	-1.176025	0.538686	-0.139520	-0.285014	-0.780461
31691		5.107428	2.855994	7.831810	-0.002245	0.002403	0.003272	-1.028564	0.392334	-1.173828	0.538688	-0.139546	-0.284967	-0.780471
31692		5.124201	2.860792	7.850191	-0.004670	0.004465	0.001409	-1.035645	0.399658	-1.178223	0.538707	-0.139550	-0.284888	-0.780486
31693		5.114961	2.867060	7.833083	-0.000166	0.001633	0.000557	-1.021973	0.395508	-1.177490	0.538688	-0.139590	-0.284831	-0.780513
31694		5.111834	2.868404	7.847563	-0.001103	0.002132	-0.000299	-1.026855	0.399170	-1.172363	0.538750	-0.139559	-0.284768	-0.780499
31695		5.108788	2.869864	7.861946	0.000821	-0.000067	-0.000669	-1.027832	0.385986	-1.180420	0.538742	-0.139593	-0.284718	-0.780517
31696		5.114594	2.867178	7.833280	0.001758	-0.000566	0.000187	-1.022217	0.382324	-1.173584	0.538800	-0.139535	-0.284735	-0.780481
31697		5.117552	2.866036	7.818837	0.002579	-0.000633	-0.000482	-1.025146	0.387695	-1.177734	0.538846	-0.139471	-0.284764	-0.780450
31698		5.104480	2.838645	7.863619	0.005877	-0.003965	-0.001372	-1.029785	0.393799	-1.168945	0.538880	-0.139427	-0.284812	-0.780417
31699		5.122019	2.847667	7.820318	0.009611	-0.007933	-0.003637	-1.029541	0.391846	-1.182373	0.538807	-0.139474	-0.284882	-0.780433
31700		5.112925	2.890955	7.827984	0.007584	-0.008367	-0.003006	-1.020264	0.385498	-1.183105	0.538825	-0.139458	-0.284952	-0.780398
31701		5.129200	2.863790	7.832899	0.007148	-0.007732	-0.001630	-1.030762	0.388184	-1.167969	0.538917	-0.139379	-0.285027	-0.780322
31702		5.118938	2.854157	7.845830	0.006982	-0.006099	-0.001074	-1.028564	0.390625	-1.180176	0.538838	-0.139424	-0.285087	-0.780346
31703		5.110113	2.880674	7.810401	0.007419	-0.006736	-0.002450	-1.035400	0.397461	-1.173828	0.538858	-0.139402	-0.285148	-0.780314
31704		5.134431	2.865647	7.815858	0.007419	-0.006736	-0.002450	-1.036133	0.392578	-1.180908	0.538801	-0.139462	-0.285190	-0.780327
31705		5.120952	2.857323	7.843363	0.003568	-0.002336	-0.001710	-1.036133	0.394287	-1.181152	0.538791	-0.139463	-0.285206	-0.780328
31706		5.112490	2.864673	7.825334	0.005225	-0.005535	-0.001261	-1.023926	0.390869	-1.181396	0.538781	-0.139483	-0.285241	-0.780318
31707		5.129546	2.889593	7.825521	0.003466	-0.004969	-0.001447	-1.025879	0.394287	-1.179199	0.538846	-0.139446	-0.285260	-0.780273
31708		5.121677	2.878140	7.824627	0.005160	-0.001269	-0.000967	-1.032227	0.388916	-1.177490	0.538903	-0.139408	-0.285263	-0.780240
31709		5.125383	2.858417	7.827127	0.000988	-0.001703	-0.001227	-1.027588	0.386475	-1.178955	0.538890	-0.139409	-0.285264	-0.780248
31710		5.121873	2.879085	7.824151	0.002900	-0.000841	-0.003386	-1.030029	0.384766	-1.173828	0.538898	-0.139360	-0.285280	-0.780245
31711		5.136509	2.870219	7.812815	0.004223	-0.000771	-0.001824	-1.031006	0.385742	-1.179199	0.538863	-0.139339	-0.285307	-0.780264
31712		5.113659	2.868444	7.823189	0.004660	-0.001408	-0.003200	-1.027832	0.394775	-1.176514	0.538852	-0.139297	-0.285342	-0.780266
31713		5.131058	2.874732	7.840614	0.004674	-0.004470	-0.001411	-1.039307	0.389893	-1.180420	0.538873	-0.139304	-0.285356	-0.780245
31714		5.114099	2.870005	7.822329	0.002784	-0.000412	-0.004912	-1.032471	0.390869	-1.183594	0.538819	-0.139297	-0.285371	-0.780278
31715		5.114851	2.851867	7.839137	0.002363	-0.002838	-0.001747	-1.030273	0.390869	-1.173584	0.538846	-0.139276	-0.285383	-0.780259
31716		5.120439	2.866163	7.853420	0.006921	-0.001836	-0.000782	-1.035400	0.394775	-1.177490	0.538834	-0.139271	-0.285411	-0.780258
31717		5.122830	2.884337	7.821590	0.004006	-0.002975	-0.003087	-1.029297	0.395752	-1.180908	0.538807	-0.139292	-0.285423	-0.780268
31718		5.103125	2.881116	7.817496	0.004944	-0.003473	-0.002231	-1.030762	0.390381	-1.176270	0.538846	-0.139276	-0.285434	-0.780240
31719		5.126946	2.865903	7.823365	0.006035	-0.002544	-0.003721	-1.027832	0.398926	-1.180908	0.538827	-0.139260	-0.285466	-0.780245
31720		5.095380	2.871007	7.816043	0.006151	-0.002974	-0.002196	-1.018799	0.391113	-1.178711	0.538888	-0.139239	-0.285472	-0.780204
31721		5.101074	2.885685	7.830108	0.005433	-0.005318	-0.005690	-1.023193	0.386719	-1.176270	0.538929	-0.139188	-0.285499	-0.780175
31722		5.113404	2.878588	7.832584	0.005229	-0.005539	-0.001262	-1.035889	0.395996	-1.184082	0.538938	-0.139170	-0.285536	-0.780158
31723		5.105751	2.867301	7.831511	0.005883	-0.003973	-0.001376	-1.026367	0.395020	-1.182617	0.538981	-0.139161	-0.285564	-0.780120
31724		5.122637	2.892088	7.831810	0.001274	-0.003769	-0.000256	-1.025879	0.398438	-1.183838	0.539060	-0.139148	-0.285551	-0.780073
31725		5.128808	2.889585	7.802778	0.003739	-0.003975	-0.002268	-1.032959	0.396729	-1.172363	0.539158	-0.139117	-0.285550	-0.780011
31726		5.118783	2.860581	7.833394	0.001491	-0.001564	0.001006	-1.022217	0.395752	-1.187988	0.539181	-0.139157	-0.285531	-0.779994
31727		5.130095	2.871427	7.819273	0.002313	-0.001633	0.000335	-1.029541	0.386719	-1.184814	0.539315	-0.139092	-0.285509	-0.779921
31728		5.126723	2.891810	7.816278	0.000168	-0.001636	-0.000556	-1.025146	0.388184	-1.175537	0.539324	-0.139065	-0.285499	-0.779924
31729		5.119315	2.861157	7.832836	0.003352	0.000502	0.000926	-1.036133	0.397705	-1.177734	0.539325	-0.139044	-0.285488	-0.779931
31730		5.130688	2.872114	7.818632	0.001827	-0.004836	-0.000107	-1.032227	0.392334	-1.175537	0.539369	-0.139084	-0.285494	-0.779891
31731		5.102853	2.856185	7.814319	0.001375	-0.001136	-0.000521	-1.033691	0.390137	-1.181396	0.539371	-0.139098	-0.285484	-0.779891
31732		5.122061	2.895978	7.843713	0.005063	-0.003905	-0.000707	-1.033936	0.392334	-1.175049	0.539378	-0.139090	-0.285517	-0.779875
31733		5.128781	2.874761	7.831867	0.001760	-0.000567	0.000185	-1.031494	0.394287	-1.178467	0.539380	-0.139106	-0.285508	-0.779874
31734		5.100006	2.877577	7.810607	0.002313	-0.001634	0.000335	-1.025635	0.392822	-1.169922	0.539422	-0.139106	-0.285501	-0.779848
31735		5.128943	2.875359	7.831541	0.001911	0.000859	-0.002162	-1.031494	0.391113	-1.182861	0.539407	-0.139110	-0.285475	-0.779867
31736		5.134562	2.872715	7.802912	0.000436	-0.000638	-0.001376	-1.032471	0.397461	-1.174561	0.539433	-0.139089	-0.285460	-0.779859
31737		5.123643	2.861953	7.816755	-0.000588	-0.000788	0.003723	-1.030518	0.390869	-1.177490	0.539499	-0.139125	-0.285423	-0.779819
31738		5.111794	2.886455	7.856674	0.000721	-0.002703	-0.000406	-1.033447	0.389648	-1.172119	0.539496	-0.139139	-0.285416	-0.779822
31739		5.101297	2.859595	7.827052	0.003018	-0.001275	-0.001862	-1.034912	0.394043	-1.171387	0.539443	-0.139160	-0.285424	-0.779852
31740		5.112461	2.870802	7.812883	0.002633	-0.001844	-0.002568	-1.037354	0.397217	-1.179443	0.539414	-0.139192	-0.285428	-0.779865
31741		5.115242	2.886337	7.841499	0.002096	-0.003839	-0.000927	-1.026611	0.395752	-1.173828	0.539453	-0.139216	-0.285436	-0.779831
31742		5.130213	2.877085	7.830075	0.002699	-0.001065	0.001040	-1.032471	0.392578	-1.177979	0.539493	-0.139222	-0.285417	-0.779809
31743		5.127583	2.879005	7.844055	0.003186	-0.002911	-0.002418	-1.031006	0.396484	-1.178223	0.539491	-0.139223	-0.285430	-0.779805
31744		5.141750	2.888625	7.815533	0.002314	-0.001634	0.000335	-1.036621	0.386719	-1.176025	0.539546	-0.139224	-0.285419	-0.779771
31745		5.128016	2.879790	7.843484	0.001811	-0.001775	-0.001897	-1.030518	0.390625	-1.178955	0.539485	-0.139240	-0.285432	-0.779805
31746		5.111109	2.874629	7.825328	0.003253	-0.002132	0.001190	-1.029785	0.386475	-1.175781	0.539502	-0.139236	-0.285437	-0.779793
31747		5.120323	2.868067	7.842615	0.000620	-0.000288	0.003758	-1.034912	0.390869	-1.178467	0.539489	-0.139247	-0.285417	-0.779807
31748		5.124096	2.847854	7.845300	0.000990	-0.001706	-0.001227	-1.023682	0.388184	-1.173096	0.539480	-0.139256	-0.285415	-0.779812
31749		5.123500	2.866896	7.828000	0.002197	-0.001206	-0.001192	-1.034424	0.395996	-1.173828	0.539448	-0.139253	-0.285404	-0.779839
31750		5.117309	2.889033	7.839157	0.003304	-0.003340	-0.000892	-1.020752	0.385498	-1.178223	0.539450	-0.139285	-0.285413	-0.779829
31751		5.115065	2.874310	7.809889	0.001375	-0.001137	-0.000521	-1.036133	0.389404	-1.177246	0.539440	-0.139255	-0.285398	-0.779846
31752		5.124075	2.867908	7.827252	0.000436	-0.000639	-0.001376	-1.030518	0.393066	-1.180420	0.539411	-0.139266	-0.285390	-0.779867
31753		5.109527	2.878030	7.838084	0.005215	-0.002482	-0.003055	-1.022705	0.385010	-1.173340	0.539427	-0.139241	-0.285411	-0.779853
31754		5.112506	2.877197	7.823471	0.000487	-0.001847	-0.003459	-1.030029	0.391113	-1.172852	0.539364	-0.139237	-0.285399	-0.779902
31755		5.112563	2.877381	7.823366	-0.000385	-0.000569	-0.000706	-1.031006	0.392090	-1.172852	0.539341	-0.139259	-0.285372	-0.779923
31756		5.118725	2.872465	7.855021	0.002197	-0.001206	-0.001192	-1.027344	0.394531	-1.181152	0.539319	-0.139275	-0.285365	-0.779938
31757		5.109862	2.879446	7.837345	0.002582	-0.000637	-0.000487	-1.020508	0.394775	-1.180908	0.539375	-0.139247	-0.285351	-0.779910
31758		5.101705	2.867779	7.836767	0.003404	-0.000707	-0.001158	-1.034424	0.398438	-1.179443	0.539448	-0.139198	-0.285335	-0.779874
31759		5.136504	2.862677	7.828984	0.001929	-0.002204	-0.000371	-1.029297	0.396973	-1.183350	0.539499	-0.139209	-0.285327	-0.779840
31760		5.127716	2.869516	7.811310	0.002146	0.000002	0.000890	-1.029541	0.388184	-1.175781	0.539587	-0.139179	-0.285306	-0.779792
31761		5.133608	2.864588	7.843150	-0.000403	0.002492	-0.002497	-1.027832	0.390381	-1.181885	0.539549	-0.139164	-0.285272	-0.779834
31762		5.109922	2.880881	7.836779	0.001493	-0.001565	0.001005	-1.026367	0.392822	-1.178223	0.539579	-0.139148	-0.285261	-0.779819
31763		5.113677	2.861005	7.839366	0.003019	-0.001276	-0.001863	-1.029053	0.390381	-1.177979	0.539595	-0.139129	-0.285255	-0.779814
31764		5.124769	2.872094	7.825263	0.001258	-0.000709	-0.002048	-1.030762	0.397461	-1.178711	0.539583	-0.139120	-0.285243	-0.779828
31765		5.104827	2.868325	7.821554	0.001376	-0.001137	-0.000521	-1.031982	0.395264	-1.177734	0.539636	-0.139120	-0.285225	-0.779798
31766		5.124886	2.872657	7.824979	0.001258	-0.000709	-0.002048	-1.024170	0.388428	-1.177979	0.539656	-0.139119	-0.285212	-0.779789
31767		5.124872	2.872909	7.824896	0.000822	-0.000070	-0.000671	-1.030518	0.390137	-1.176758	0.539642	-0.139103	-0.285187	-0.779811
31768		5.112916	2.881178	7.821738	0.000150	0.001425	-0.002347	-1.028809	0.389160	-1.175049	0.539618	-0.139093	-0.285160	-0.779839
31769		5.128331	2.853253	7.827600	0.003690	-0.002771	-0.000187	-1.030273	0.401611	-1.173584	0.539588	-0.139103	-0.285171	-0.779854
31770		5.124830	2.873761	7.824611	0.000268	0.000997	-0.000821	-1.026855	0.390381	-1.171875	0.539644	-0.139115	-0.285129	-0.779829
31771		5.121999	2.875520	7.838791	0.003137	-0.001704	-0.000337	-1.031738	0.394043	-1.179932	0.539611	-0.139130	-0.285127	-0.779850
31772		5.111006	2.865258	7.852531	0.002029	0.000430	-0.000637	-1.035889	0.392822	-1.176270	0.539641	-0.139113	-0.285113	-0.779837
31773		5.113139	2.882845	7.820978	0.001812	-0.001777	-0.001898	-1.031738	0.389893	-1.179688	0.539622	-0.139131	-0.285115	-0.779846
31774		5.114162	2.864499	7.837773	0.002484	-0.003272	-0.000221	-1.037354	0.396729	-1.176025	0.539615	-0.139136	-0.285125	-0.779846
31775		5.111696	2.866579	7.851599	0.004949	-0.003482	-0.002235	-1.022705	0.391357	-1.181885	0.539618	-0.139155	-0.285152	-0.779831
31776		5.123036	2.877775	7.837285	0.002315	-0.001635	0.000334	-1.022461	0.381592	-1.187744	0.539656	-0.139127	-0.285139	-0.779815
31777		5.115165	2.866040	7.836555	0.002921	-0.003912	-0.001598	-1.029785	0.383057	-1.177246	0.539634	-0.139080	-0.285157	-0.779831
31778		5.115632	2.866578	7.836053	0.004245	-0.003840	-0.000037	-1.033447	0.395996	-1.179199	0.539568	-0.139087	-0.285186	-0.779866
31779		5.127091	2.877898	7.821609	0.003240	-0.004125	-0.004501	-1.030518	0.390137	-1.177246	0.539569	-0.139093	-0.285203	-0.779857
31780		5.119235	2.866506	7.820746	0.004128	-0.003413	-0.001564	-1.023193	0.390381	-1.174072	0.539549	-0.139096	-0.285222	-0.779864
31781		5.119647	2.867285	7.820191	0.005890	-0.003981	-0.001381	-1.038086	0.389160	-1.181396	0.539533	-0.139093	-0.285246	-0.779867
31782		5.129016	2.861488	7.837120	0.004128	-0.003413	-0.001565	-1.040527	0.404541	-1.179443	0.539512	-0.139094	-0.285277	-0.779869
31783		5.094814	2.867866	7.844061	0.005941	-0.005192	-0.003463	-1.028320	0.390137	-1.170898	0.539562	-0.139116	-0.285311	-0.779819
31784		5.126360	2.883548	7.832989	0.005505	-0.004552	-0.002086	-1.030029	0.386963	-1.178955	0.539509	-0.139138	-0.285339	-0.779841
31785		5.118538	2.872441	7.832008	0.006980	-0.003055	-0.002875	-1.027100	0.390381	-1.174316	0.539479	-0.139112	-0.285381	-0.779851
31786		5.110925	2.861408	7.830868	0.005459	-0.008398	-0.003902	-1.027100	0.395264	-1.180664	0.539432	-0.139140	-0.285428	-0.779862
31787		5.113322	2.896202	7.841905	0.006662	-0.002842	0.000028	-1.032471	0.391113	-1.173096	0.539490	-0.139113	-0.285449	-0.779819
31788		5.111114	2.882073	7.812389	0.006981	-0.003057	-0.002876	-1.029297	0.389160	-1.180664	0.539452	-0.139116	-0.285484	-0.779832
31789		5.118288	2.859395	7.860728	0.006159	-0.002986	-0.002204	-1.022705	0.385986	-1.178711	0.539454	-0.139088	-0.285516	-0.779824
31790		5.122433	2.911428	7.840513	0.005389	-0.004128	-0.003614	-1.031738	0.396729	-1.178711	0.539428	-0.139060	-0.285545	-0.779835
31791		5.109981	2.868047	7.842049	0.006596	-0.003629	-0.003581	-1.036621	0.390869	-1.184082	0.539452	-0.139047	-0.285575	-0.779810
31792		5.118784	2.864686	7.798547	0.006597	-0.003629	-0.003581	-1.032227	0.390625	-1.176758	0.539459	-0.139020	-0.285621	-0.779793
31793		5.101739	2.876987	7.823213	0.008092	-0.005195	-0.002577	-1.032227	0.391602	-1.177002	0.539440	-0.139018	-0.285674	-0.779787
31794		5.107623	2.891891	7.837043	0.006767	-0.005269	-0.004137	-1.030518	0.390137	-1.184814	0.539418	-0.139019	-0.285720	-0.779786
31795		5.125498	2.881922	7.810972	0.005776	-0.003560	-0.002910	-1.024902	0.390625	-1.181641	0.539443	-0.138982	-0.285752	-0.779764
31796		5.137745	2.875001	7.813457	0.008094	-0.005196	-0.002578	-1.026855	0.395996	-1.184570	0.539465	-0.138948	-0.285798	-0.779737
31797		5.100798	2.883267	7.834521	0.006768	-0.005271	-0.004137	-1.030762	0.389160	-1.184326	0.539527	-0.138911	-0.285836	-0.779687
31798		5.123264	2.905632	7.805905	0.005391	-0.004132	-0.003616	-1.035889	0.385498	-1.177002	0.539535	-0.138881	-0.285870	-0.779675
31799		5.112497	2.895716	7.819441	0.001814	-0.001782	-0.001899	-1.030518	0.389648	-1.183105	0.539481	-0.138892	-0.285873	-0.779708
31800		5.103633	2.902645	7.801732	0.002200	-0.001211	-0.001195	-1.025879	0.388916	-1.177002	0.539508	-0.138867	-0.285869	-0.779696
31801		5.127293	2.886810	7.807988	0.000822	-0.000071	-0.000672	-1.033447	0.391113	-1.177979	0.539507	-0.138858	-0.285842	-0.779709
31802		5.116350	2.876317	7.821857	0.002267	-0.000423	0.002414	-1.031006	0.387207	-1.183838	0.539540	-0.138860	-0.285831	-0.779689
31803		5.112984	2.896719	7.818751	0.003260	-0.002134	0.001187	-1.033691	0.384521	-1.179932	0.539562	-0.138841	-0.285838	-0.779674
31804		5.127912	2.887262	7.807415	-0.001037	-0.002139	-0.000586	-1.029541	0.392090	-1.172852	0.539522	-0.138856	-0.285823	-0.779705
31805		5.117106	2.876548	7.821278	-0.000266	-0.000997	0.000823	-1.032959	0.394775	-1.176514	0.539525	-0.138883	-0.285792	-0.779710
31806		5.118070	2.857769	7.838363	-0.000266	-0.000997	0.000823	-1.029053	0.393799	-1.174561	0.539562	-0.138901	-0.285764	-0.779691
31807		5.108362	2.883008	7.803663	0.000822	-0.000072	-0.000672	-1.025635	0.390625	-1.176514	0.539580	-0.138906	-0.285737	-0.779688
31808		5.117545	2.876727	7.820925	0.002489	-0.003276	-0.000222	-1.028809	0.385742	-1.173584	0.539583	-0.138914	-0.285734	-0.779686
31809		5.133937	2.901094	7.821539	-0.002052	0.002633	-0.001155	-1.035156	0.395508	-1.180420	0.539531	-0.138917	-0.285682	-0.779740
31810		5.112114	2.863123	7.806327	0.001497	-0.001565	0.001005	-1.036621	0.389160	-1.173828	0.539588	-0.138922	-0.285672	-0.779704
31811		5.114827	2.878201	7.835167	-0.002029	-0.000428	0.000640	-1.030029	0.385498	-1.175293	0.539558	-0.138959	-0.285638	-0.779729
31812		5.117662	2.876597	7.820896	0.001207	0.000500	0.000032	-1.032959	0.390869	-1.174561	0.539520	-0.138959	-0.285619	-0.779763
31813		5.112273	2.862932	7.806292	-0.000822	0.000072	0.000672	-1.030273	0.393311	-1.181641	0.539513	-0.138980	-0.285586	-0.779776
31814		5.105842	2.884566	7.817743	0.000000	0.000000	0.000000	-1.038330	0.400146	-1.178223	0.539545	-0.138966	-0.285579	-0.779759
31815		5.112258	2.879565	7.849351	0.000460	-0.003704	0.000418	-1.025879	0.391602	-1.177979	0.539601	-0.139003	-0.285570	-0.779717
31816		5.138420	2.880814	7.823868	0.003430	-0.003773	0.000632	-1.039795	0.396973	-1.181885	0.539619	-0.139007	-0.285574	-0.779703
31817		5.106814	2.884958	7.816964	-0.000941	0.000497	-0.000855	-1.023926	0.398926	-1.177979	0.539676	-0.139006	-0.285547	-0.779673
31818		5.107767	2.866432	7.833967	0.002489	-0.003276	-0.000222	-1.023926	0.392822	-1.182373	0.539741	-0.139007	-0.285535	-0.779632
31819		5.130251	2.888116	7.805562	0.004252	-0.003845	-0.000040	-1.030029	0.395508	-1.176025	0.539781	-0.138990	-0.285543	-0.779605
31820		5.119772	2.877811	7.819069	0.001787	-0.003630	0.001977	-1.029785	0.389648	-1.176758	0.539823	-0.139015	-0.285537	-0.779573
31821		5.134945	2.868629	7.807463	0.004689	-0.004488	-0.001418	-1.025635	0.388184	-1.178467	0.539797	-0.139024	-0.285561	-0.779581
31822		5.127083	2.873798	7.849737	0.003987	-0.004842	0.000782	-1.027344	0.380859	-1.171631	0.539782	-0.139033	-0.285575	-0.779585
31823		5.117890	2.899506	7.814507	0.003867	-0.004417	-0.000745	-1.026855	0.388184	-1.183350	0.539665	-0.139064	-0.285592	-0.779654
31824		5.124835	2.878428	7.802513	0.005075	-0.003918	-0.000714	-1.026855	0.395020	-1.175293	0.539677	-0.139040	-0.285616	-0.779641
31825		5.130608	2.892531	7.816702	0.002825	-0.001491	0.002563	-1.028809	0.403809	-1.180176	0.539723	-0.139047	-0.285602	-0.779613
31826		5.126298	2.860492	7.818980	0.003141	-0.001710	-0.000341	-1.023193	0.394531	-1.178711	0.539835	-0.139033	-0.285592	-0.779542
31827		5.125657	2.879487	7.801583	0.001378	-0.001141	-0.000523	-1.035156	0.393066	-1.177979	0.539873	-0.139020	-0.285568	-0.779526
31828		5.121942	2.916655	7.841710	0.002705	-0.001066	0.001036	-1.035156	0.393311	-1.168701	0.539905	-0.139022	-0.285567	-0.779504
31829		5.120499	2.883013	7.829691	0.001668	-0.003206	0.000450	-1.029297	0.395264	-1.185303	0.539884	-0.139072	-0.285566	-0.779510
31830		5.129108	2.895496	7.829603	0.003312	-0.003350	-0.000896	-1.025635	0.398682	-1.173828	0.539948	-0.139050	-0.285575	-0.779466
31831		5.124145	2.882169	7.814598	0.001668	-0.003206	0.000450	-1.027100	0.398926	-1.181396	0.539999	-0.139069	-0.285561	-0.779433
31832		5.122247	2.865090	7.845975	0.000215	0.002211	0.001258	-1.030518	0.388916	-1.179688	0.540104	-0.139038	-0.285517	-0.779382
31833		5.128595	2.843515	7.834559	0.002585	-0.000642	-0.000492	-1.026367	0.387451	-1.175781	0.540090	-0.139026	-0.285510	-0.779396
31834		5.097779	2.900203	7.822324	-0.000386	-0.000571	-0.000704	-1.031494	0.398193	-1.179932	0.540038	-0.139038	-0.285477	-0.779442
31835		5.121510	2.884048	7.828648	-0.000266	-0.000996	0.000823	-1.029297	0.394775	-1.187256	0.540118	-0.139038	-0.285451	-0.779396
31836		5.105512	2.859924	7.827720	0.002661	-0.004918	-0.000777	-1.027588	0.398682	-1.170166	0.540181	-0.139023	-0.285465	-0.779350
31837		5.127873	2.898371	7.842369	0.003483	-0.004991	-0.001450	-1.031494	0.396973	-1.175781	0.540207	-0.139053	-0.285477	-0.779323
31838		5.117732	2.871540	7.812567	0.003989	-0.004845	0.000781	-1.032715	0.396240	-1.182373	0.540259	-0.139071	-0.285498	-0.779275
31839		5.130820	2.845110	7.832523	0.001498	-0.001566	0.001004	-1.031006	0.385254	-1.177490	0.540342	-0.139058	-0.285491	-0.779223
31840		5.124620	2.867113	7.843686	0.003142	-0.001711	-0.000342	-1.033203	0.393066	-1.179199	0.540267	-0.139066	-0.285490	-0.779274
31841		5.112166	2.894242	7.823057	0.001814	-0.001785	-0.001900	-1.026855	0.390625	-1.176270	0.540282	-0.139061	-0.285489	-0.779264
31842		5.124278	2.886832	7.825810	0.005898	-0.003993	-0.001388	-1.031006	0.389893	-1.185303	0.540250	-0.139063	-0.285512	-0.779278
31843		5.116499	2.875473	7.824951	0.004135	-0.003424	-0.001569	-1.031006	0.390869	-1.175781	0.540256	-0.139042	-0.285531	-0.779271
31844		5.113974	2.877481	7.838890	0.002706	-0.001067	0.001035	-1.035889	0.386719	-1.179443	0.540252	-0.139048	-0.285524	-0.779275
31845		5.131514	2.866488	7.813361	-0.000386	-0.000572	-0.000704	-1.036377	0.392090	-1.180420	0.540215	-0.139056	-0.285505	-0.779306
31846		5.102440	2.885735	7.835446	0.001113	-0.002138	0.000300	-1.022461	0.394775	-1.186279	0.540242	-0.139060	-0.285504	-0.779287
31847		5.121890	2.908672	7.821506	0.002320	-0.001639	0.000331	-1.028809	0.393555	-1.181885	0.540305	-0.139028	-0.285488	-0.779255
31848		5.129410	2.868404	7.827058	0.000291	-0.002065	0.000973	-1.038330	0.395020	-1.171875	0.540346	-0.139027	-0.285469	-0.779233
31849		5.133015	2.848038	7.830020	-0.001163	0.003354	0.001781	-1.027100	0.391602	-1.174561	0.540391	-0.139034	-0.285428	-0.779216
31850		5.115183	2.859011	7.855749	-0.000847	0.003134	-0.001123	-1.025635	0.389160	-1.180176	0.540370	-0.139027	-0.285375	-0.779251
31851		5.105143	2.884171	7.821227	-0.000386	-0.000572	-0.000704	-1.035156	0.396729	-1.177002	0.540340	-0.139026	-0.285340	-0.779285
31852		5.143330	2.858631	7.816475	0.002801	0.001570	0.000765	-1.032959	0.389404	-1.181396	0.540408	-0.139006	-0.285330	-0.779245
31853		5.108587	2.864362	7.824090	0.001208	0.000499	0.000031	-1.034180	0.384033	-1.184570	0.540406	-0.138992	-0.285313	-0.779255
31854		5.106545	2.847495	7.855514	0.001644	-0.000145	-0.001346	-1.033691	0.389648	-1.169922	0.540356	-0.138973	-0.285305	-0.779297
31855		5.120248	2.857124	7.827080	0.004495	0.000209	-0.002662	-1.034668	0.395508	-1.172607	0.540292	-0.138977	-0.285309	-0.779339
31856		5.114501	2.861197	7.855397	0.005368	-0.001080	-0.005416	-1.033203	0.392822	-1.175781	0.540276	-0.138966	-0.285331	-0.779344
31857		5.125529	2.872947	7.840957	0.007759	-0.001928	-0.001477	-1.033203	0.393555	-1.173340	0.540277	-0.138949	-0.285366	-0.779333
31858		5.120060	2.860542	7.825955	0.006842	0.000414	-0.006209	-1.032959	0.389160	-1.182373	0.540248	-0.138918	-0.285389	-0.779351
31859		5.116291	2.882156	7.822628	0.008076	-0.002149	-0.004382	-1.029053	0.386963	-1.180664	0.540230	-0.138875	-0.285434	-0.779354
31860		5.105419	2.873183	7.835955	0.010277	-0.003365	-0.005579	-1.024902	0.392090	-1.175293	0.540174	-0.138833	-0.285495	-0.779378
31861		5.119296	2.883570	7.807109	0.005053	-0.000862	-0.002513	-1.027100	0.396973	-1.167236	0.540154	-0.138817	-0.285497	-0.779394
31862		5.105576	2.875519	7.834996	0.006047	-0.002577	-0.003740	-1.031250	0.392822	-1.180176	0.540127	-0.138830	-0.285511	-0.779405
31863		5.105871	2.876599	7.834407	0.006724	-0.004070	-0.002062	-1.034912	0.389893	-1.184326	0.540140	-0.138816	-0.285549	-0.779385
31864		5.114617	2.889585	7.834016	0.004429	-0.005492	-0.000595	-1.028809	0.387451	-1.177734	0.540157	-0.138815	-0.285584	-0.779360
31865		5.115156	2.890324	7.833392	0.004574	-0.004073	-0.002946	-1.030029	0.394531	-1.177246	0.540107	-0.138817	-0.285605	-0.779387
31866		5.119069	2.870947	7.835824	0.004789	-0.001859	-0.001690	-1.022705	0.390625	-1.181641	0.540125	-0.138806	-0.285616	-0.779372
31867		5.127373	2.883755	7.835782	0.003024	-0.001289	-0.001870	-1.034668	0.392334	-1.179443	0.540126	-0.138782	-0.285606	-0.779380
31868		5.112791	2.893630	7.846757	0.000000	0.000000	0.000000	-1.029297	0.389893	-1.180420	0.540140	-0.138780	-0.285606	-0.779370
31869		5.118401	2.890432	7.818192	-0.000822	0.000073	0.000674	-1.023926	0.389648	-1.179688	0.540150	-0.138779	-0.285571	-0.779377
31870		5.119263	2.871639	7.835444	-0.000822	0.000073	0.000674	-1.035400	0.396484	-1.183350	0.540149	-0.138777	-0.285528	-0.779393
31871		5.107600	2.879389	7.832255	-0.002681	-0.001994	0.000764	-1.033447	0.390869	-1.169922	0.540222	-0.138790	-0.285498	-0.779351
31872		5.125288	2.867729	7.806869	-0.002732	-0.000776	0.002845	-1.026855	0.389404	-1.171875	0.540203	-0.138843	-0.285452	-0.779372
31873		5.122431	2.868736	7.821403	-0.003701	0.002782	0.000193	-1.033691	0.394043	-1.183105	0.540162	-0.138863	-0.285379	-0.779424
31874		5.113917	2.873266	7.864410	0.001379	-0.001142	-0.000523	-1.031982	0.395020	-1.177246	0.540207	-0.138850	-0.285371	-0.779398
31875		5.110577	2.876757	7.818241	-0.000386	-0.000572	-0.000704	-1.030518	0.391113	-1.179688	0.540229	-0.138857	-0.285343	-0.779391
31876		5.113004	2.892036	7.847205	0.000094	0.002637	-0.000271	-1.032715	0.390625	-1.172119	0.540242	-0.138836	-0.285305	-0.779400
31877		5.104694	2.879933	7.846990	0.000943	-0.000497	0.000854	-1.028320	0.386719	-1.182861	0.540217	-0.138860	-0.285284	-0.779420
31878		5.122122	2.869136	7.821458	0.003289	-0.000293	-0.002694	-1.033691	0.395996	-1.174316	0.540191	-0.138827	-0.285283	-0.779444
31879		5.111123	2.859066	7.835291	0.002587	-0.000644	-0.000493	-1.030029	0.393066	-1.181152	0.540209	-0.138834	-0.285275	-0.779434
31880		5.107596	2.879826	7.832097	0.004789	-0.001860	-0.001690	-1.033936	0.396729	-1.178467	0.540227	-0.138812	-0.285288	-0.779421
31881		5.108562	2.862386	7.848787	0.008515	-0.002800	-0.005762	-1.020508	0.386719	-1.183350	0.540238	-0.138780	-0.285337	-0.779401
31882		5.127958	2.886259	7.834478	0.004139	-0.003428	-0.001570	-1.027588	0.386719	-1.183350	0.540204	-0.138763	-0.285343	-0.779425
31883		5.120061	2.875009	7.833687	0.005663	-0.003153	-0.004445	-1.031982	0.394531	-1.177979	0.540166	-0.138733	-0.285372	-0.779446
31884		5.117371	2.877485	7.847575	0.004232	-0.000791	-0.001841	-1.028809	0.394287	-1.178223	0.540184	-0.138718	-0.285377	-0.779434
31885		5.120183	2.876632	7.833011	0.004232	-0.000791	-0.001841	-1.031006	0.391357	-1.184082	0.540200	-0.138700	-0.285378	-0.779427
31886		5.100190	2.873397	7.829215	0.005492	-0.001512	-0.003892	-1.031494	0.391846	-1.178223	0.540210	-0.138660	-0.285400	-0.779418
31887		5.122953	2.876898	7.818062	0.005826	0.000280	-0.001109	-1.031738	0.396240	-1.180908	0.540221	-0.138632	-0.285411	-0.779412
31888		5.108261	2.887258	7.828926	0.002904	-0.000868	-0.003399	-1.026611	0.395264	-1.179199	0.540257	-0.138609	-0.285410	-0.779391
31889		5.077349	2.873026	7.839272	0.002709	-0.001067	0.001034	-1.025146	0.396729	-1.176514	0.540300	-0.138603	-0.285397	-0.779367
31890		5.112382	2.868238	7.831117	0.006900	-0.005716	-0.002616	-1.030518	0.388916	-1.179932	0.540310	-0.138606	-0.285433	-0.779347
31891		5.109171	2.889036	7.827677	0.001501	-0.001566	0.001004	-1.031250	0.384277	-1.180420	0.540308	-0.138610	-0.285421	-0.779352
31892		5.117716	2.901335	7.827647	0.001287	-0.003781	-0.000251	-1.034912	0.390381	-1.183350	0.540258	-0.138629	-0.285421	-0.779383
31893		5.124525	2.879734	7.815987	0.001501	-0.001566	0.001004	-1.030029	0.398926	-1.176758	0.540291	-0.138623	-0.285417	-0.779363
31894		5.110313	2.889593	7.826725	0.003053	-0.004352	-0.000072	-1.028809	0.384277	-1.174805	0.540342	-0.138640	-0.285424	-0.779322
31895		5.114465	2.869535	7.829281	0.000414	-0.002487	0.002503	-1.023438	0.397461	-1.178223	0.540279	-0.138677	-0.285403	-0.779366
31896		5.111189	2.889526	7.826178	-0.000144	-0.001418	0.002352	-1.028809	0.394043	-1.179932	0.540331	-0.138691	-0.285366	-0.779342
31897		5.112307	2.871115	7.843159	0.003583	-0.002361	-0.001721	-1.035156	0.392578	-1.175293	0.540348	-0.138681	-0.285371	-0.779330
31898		5.134528	2.892641	7.814773	0.000730	-0.002712	-0.000402	-1.029053	0.388672	-1.174561	0.540347	-0.138706	-0.285364	-0.779328
31899		5.115525	2.869975	7.828428	0.000386	0.000573	0.000703	-1.032227	0.392822	-1.180176	0.540317	-0.138717	-0.285331	-0.779360
31900		5.135509	2.874258	7.831835	0.001259	-0.000721	-0.002051	-1.026367	0.387939	-1.175293	0.540328	-0.138707	-0.285319	-0.779358
31901		5.101782	2.861413	7.856583	0.001766	-0.000571	0.000180	-1.027588	0.393799	-1.183838	0.540288	-0.138715	-0.285298	-0.779393
31902		5.123845	2.882791	7.828351	0.000994	-0.001717	-0.001227	-1.028076	0.392822	-1.182373	0.540319	-0.138702	-0.285283	-0.779379
31903		5.103188	2.897451	7.807472	0.001501	-0.001566	0.001004	-1.028564	0.391357	-1.175781	0.540352	-0.138697	-0.285269	-0.779362
31904		5.113181	2.872350	7.842136	-0.000051	0.001220	0.002080	-1.035645	0.385498	-1.177246	0.540355	-0.138704	-0.285228	-0.779373
31905		5.098671	2.882006	7.853151	0.001938	-0.002213	-0.000373	-1.018066	0.397705	-1.176270	0.540312	-0.138717	-0.285231	-0.779399
31906		5.116109	2.870847	7.827726	-0.000609	0.002290	0.001930	-1.043701	0.392822	-1.184570	0.540350	-0.138713	-0.285167	-0.779398
31907		5.116986	2.852514	7.844842	0.004019	-0.003009	-0.003098	-1.036377	0.397217	-1.171875	0.540384	-0.138694	-0.285201	-0.779365
31908		5.110829	2.874811	7.855822	0.001552	-0.002787	-0.001076	-1.031250	0.392578	-1.182861	0.540393	-0.138724	-0.285198	-0.779355
31909		5.113017	2.892208	7.823993	0.003146	-0.001715	-0.000344	-1.030273	0.397461	-1.170654	0.540421	-0.138709	-0.285201	-0.779336
31910		5.102225	2.882152	7.837726	0.004355	-0.001216	-0.000316	-1.028564	0.393555	-1.175293	0.540429	-0.138720	-0.285200	-0.779329
31911		5.119802	2.871655	7.811965	0.004405	-0.002437	-0.002396	-1.035645	0.393066	-1.180176	0.540411	-0.138720	-0.285208	-0.779338
31912		5.103454	2.865100	7.854153	0.005228	-0.002512	-0.003070	-1.024414	0.391113	-1.180176	0.540422	-0.138702	-0.285236	-0.779324
31913		5.106592	2.864362	7.839323	0.004699	-0.004502	-0.001420	-1.033447	0.388672	-1.177734	0.540404	-0.138703	-0.285252	-0.779331
31914		5.131526	2.901849	7.839432	0.007431	-0.003731	-0.004269	-1.029053	0.388428	-1.175537	0.540362	-0.138689	-0.285298	-0.779345
31915		5.115183	2.878597	7.838540	0.003554	0.000697	-0.003523	-1.029297	0.388184	-1.177979	0.540312	-0.138671	-0.285291	-0.779386
31916		5.115196	2.879477	7.838208	0.006173	-0.003009	-0.002217	-1.036621	0.386475	-1.182373	0.540278	-0.138660	-0.285318	-0.779402
31917		5.106270	2.903735	7.863318	0.005351	-0.002935	-0.001543	-1.024170	0.396240	-1.176758	0.540270	-0.138643	-0.285352	-0.779398
31918		5.107491	2.869095	7.837007	0.004671	-0.001444	-0.003222	-1.028076	0.389648	-1.181641	0.540268	-0.138629	-0.285351	-0.779402
31919		5.134917	2.904800	7.823059	0.004407	-0.002439	-0.002397	-1.036621	0.393311	-1.180176	0.540258	-0.138611	-0.285364	-0.779407
31920		5.092237	2.898957	7.830095	0.004671	-0.001444	-0.003222	-1.025879	0.387939	-1.174316	0.540273	-0.138590	-0.285383	-0.779394
31921		5.118962	2.882134	7.821711	0.004702	-0.004504	-0.001421	-1.022461	0.391602	-1.171387	0.540216	-0.138608	-0.285399	-0.779424
31922		5.111129	2.870732	7.820972	0.004793	-0.001866	-0.001694	-1.034424	0.391113	-1.187744	0.540169	-0.138615	-0.285396	-0.779456
31923		5.122180	2.898844	7.849632	0.001605	-0.004011	-0.003156	-1.039307	0.394775	-1.179688	0.540194	-0.138602	-0.285410	-0.779436
31924		5.107844	2.908997	7.860350	0.003971	-0.001791	-0.001020	-1.027588	0.396973	-1.178711	0.540230	-0.138594	-0.285425	-0.779407
31925		5.117189	2.886135	7.834457	0.002590	-0.000646	-0.000496	-1.034668	0.395996	-1.183350	0.540264	-0.138587	-0.285408	-0.779391
31926		5.099938	2.880840	7.816589	0.002854	0.000348	-0.001322	-1.030518	0.390381	-1.182373	0.540323	-0.138556	-0.285403	-0.779358
31927		5.120067	2.885370	7.819794	0.001168	-0.003363	-0.001778	-1.026123	0.391357	-1.179688	0.540322	-0.138559	-0.285402	-0.779358
31928		5.109345	2.874985	7.833638	0.000944	-0.000496	0.000853	-1.036621	0.390137	-1.177979	0.540330	-0.138558	-0.285374	-0.779363
31929		5.106733	2.876910	7.847702	0.003585	-0.002366	-0.001723	-1.026367	0.391113	-1.175293	0.540326	-0.138557	-0.285389	-0.779361
31930		5.118869	2.869538	7.850464	0.004144	-0.003436	-0.001572	-1.034424	0.386719	-1.174561	0.540293	-0.138568	-0.285396	-0.779379
31931		5.119224	2.870040	7.850049	0.003270	-0.002138	0.001183	-1.028809	0.388428	-1.176758	0.540266	-0.138584	-0.285401	-0.779393
31932		5.114985	2.909184	7.829480	0.002377	-0.002865	-0.001751	-1.031982	0.397705	-1.172363	0.540228	-0.138594	-0.285400	-0.779418
31933		5.109943	2.895835	7.814575	0.002499	-0.003286	-0.000222	-1.022461	0.388184	-1.172852	0.540234	-0.138625	-0.285394	-0.779411
31934		5.122984	2.869366	7.834776	-0.000650	-0.001569	0.000123	-1.034912	0.395020	-1.182861	0.540179	-0.138655	-0.285355	-0.779457
31935		5.112279	2.858902	7.848649	0.001940	-0.002216	-0.000373	-1.027832	0.383545	-1.179443	0.540223	-0.138650	-0.285353	-0.779429
31936		5.107940	2.897910	7.828188	0.000996	-0.001719	-0.001227	-1.034668	0.399170	-1.180664	0.540179	-0.138650	-0.285343	-0.779463
31937		5.112717	2.859422	7.848174	0.001940	-0.002216	-0.000373	-1.027344	0.391846	-1.183105	0.540230	-0.138654	-0.285335	-0.779430
31938		5.114943	2.876715	7.816279	0.002499	-0.003286	-0.000223	-1.035889	0.386963	-1.176514	0.540247	-0.138652	-0.285336	-0.779418
31939		5.118004	2.892586	7.844618	0.003373	-0.004585	-0.002977	-1.028564	0.392822	-1.170654	0.540203	-0.138666	-0.285361	-0.779437
31940		5.115794	2.877748	7.815341	0.002886	-0.002712	0.000480	-1.022461	0.391357	-1.175293	0.540174	-0.138696	-0.285352	-0.779455
31941		5.124297	2.890301	7.815201	0.002378	-0.002866	-0.001751	-1.031006	0.396729	-1.181152	0.540138	-0.138709	-0.285340	-0.779482
31942		5.104651	2.886746	7.811332	0.005476	-0.003360	-0.000018	-1.028076	0.394043	-1.180420	0.540176	-0.138702	-0.285359	-0.779449
31943		5.114147	2.880863	7.828344	0.002500	-0.003287	-0.000223	-1.034668	0.383057	-1.185303	0.540193	-0.138708	-0.285356	-0.779438
31944		5.107148	2.850591	7.845046	0.002641	-0.001871	-0.002577	-1.031006	0.385986	-1.183105	0.540181	-0.138681	-0.285372	-0.779445
31945		5.110942	2.901913	7.824745	0.001941	-0.002216	-0.000374	-1.029541	0.391602	-1.176270	0.540179	-0.138672	-0.285374	-0.779448
31946		5.129313	2.872429	7.816441	0.002031	0.000423	-0.000648	-1.029053	0.388428	-1.177246	0.540173	-0.138666	-0.285353	-0.779461
31947		5.112186	2.884098	7.841511	0.003496	-0.005007	-0.001450	-1.033691	0.397949	-1.178223	0.540140	-0.138683	-0.285369	-0.779475
31948		5.118103	2.881653	7.812391	0.005232	-0.002520	-0.003075	-1.031494	0.395752	-1.185059	0.540155	-0.138674	-0.285386	-0.779460
31949		5.115549	2.884124	7.826227	0.004024	-0.003018	-0.003102	-1.033936	0.391602	-1.184082	0.540190	-0.138652	-0.285401	-0.779433
31950		5.133038	2.890497	7.843538	0.002764	-0.002293	-0.001049	-1.031738	0.387207	-1.177246	0.540220	-0.138638	-0.285409	-0.779412
31951		5.118798	2.883669	7.811191	0.003587	-0.002369	-0.001725	-1.029053	0.392334	-1.176758	0.540188	-0.138637	-0.285418	-0.779431
31952		5.093505	2.883354	7.835988	0.003201	-0.002943	-0.002427	-1.020752	0.396240	-1.178955	0.540169	-0.138642	-0.285421	-0.779442
31953		5.116526	2.886515	7.824707	0.003587	-0.002369	-0.001725	-1.025635	0.381836	-1.180176	0.540173	-0.138638	-0.285412	-0.779444
31954		5.105065	2.895384	7.820948	0.007683	-0.004584	-0.001219	-1.027100	0.395020	-1.180420	0.540123	-0.138624	-0.285456	-0.779465
31955		5.131848	2.895638	7.855502	0.004147	-0.003440	-0.001574	-1.028809	0.386719	-1.185791	0.540138	-0.138621	-0.285465	-0.779452
31956		5.117515	2.889119	7.823099	0.006268	-0.000378	-0.002498	-1.026123	0.389893	-1.178223	0.540146	-0.138568	-0.285487	-0.779448
31957		5.109405	2.877946	7.822493	0.005233	-0.002522	-0.003076	-1.026855	0.398438	-1.178955	0.540119	-0.138554	-0.285502	-0.779463
31958		5.126855	2.884664	7.839702	0.004848	-0.003097	-0.003778	-1.033936	0.395996	-1.180420	0.540131	-0.138546	-0.285513	-0.779452
31959		5.108928	2.898404	7.804216	0.004462	-0.003672	-0.004480	-1.028564	0.395020	-1.175293	0.540144	-0.138536	-0.285535	-0.779437
31960		5.095466	2.890426	7.832106	0.005234	-0.002523	-0.003077	-1.034424	0.385010	-1.168457	0.540133	-0.138533	-0.285547	-0.779441
31961		5.106674	2.901869	7.817494	0.004585	-0.004093	-0.002952	-1.029541	0.382080	-1.185303	0.540045	-0.138561	-0.285569	-0.779489
31962		5.127886	2.888292	7.837692	0.004797	-0.001872	-0.001699	-1.030029	0.392822	-1.182617	0.540034	-0.138526	-0.285591	-0.779495
31963		5.122729	2.875399	7.822711	0.005795	-0.003595	-0.002926	-1.030762	0.384521	-1.170410	0.540047	-0.138506	-0.285619	-0.779478
31964		5.123091	2.876157	7.822195	0.003326	-0.003365	-0.000899	-1.022217	0.387207	-1.178955	0.539976	-0.138534	-0.285624	-0.779521
31965		5.119620	2.896848	7.818862	0.003415	-0.000726	-0.001175	-1.023438	0.395264	-1.178955	0.539958	-0.138517	-0.285616	-0.779540
31966		5.111697	2.885217	7.818316	0.002941	-0.003941	-0.001601	-1.023193	0.390381	-1.179443	0.539963	-0.138526	-0.285613	-0.779536
31967		5.109295	2.887242	7.832231	0.001943	-0.002218	-0.000374	-1.034668	0.392090	-1.177490	0.539961	-0.138527	-0.285600	-0.779541
31968		5.126853	2.893335	7.849599	0.003275	-0.002139	0.001180	-1.023438	0.389893	-1.178467	0.539978	-0.138535	-0.285601	-0.779528
31969		5.109839	2.888010	7.831593	0.004361	-0.001222	-0.000323	-1.031738	0.400635	-1.179688	0.539976	-0.138522	-0.285598	-0.779533
31970		5.110120	2.888481	7.831236	0.002504	-0.003290	-0.000223	-1.027344	0.394043	-1.177979	0.540019	-0.138536	-0.285592	-0.779503
31971		5.136032	2.889907	7.805579	0.004150	-0.003443	-0.001575	-1.025879	0.389648	-1.182373	0.540019	-0.138539	-0.285600	-0.779499
31972		5.137133	2.871873	7.822584	0.001646	-0.000154	-0.001352	-1.037109	0.390869	-1.171387	0.540027	-0.138519	-0.285581	-0.779504
31973		5.104438	2.894630	7.798503	0.002767	-0.002296	-0.001050	-1.028809	0.390625	-1.176270	0.539999	-0.138542	-0.285582	-0.779519
31974		5.122818	2.882395	7.833169	0.002643	-0.001877	-0.002579	-1.034424	0.387695	-1.174072	0.539975	-0.138543	-0.285577	-0.779537
31975		5.122992	2.882986	7.832838	0.003590	-0.002373	-0.001726	-1.030762	0.393311	-1.185547	0.539941	-0.138551	-0.285586	-0.779557
31976		5.116817	2.888414	7.800688	0.005184	-0.001299	-0.000999	-1.031982	0.392578	-1.177002	0.539985	-0.138518	-0.285599	-0.779527
31977		5.123445	2.884316	7.832051	0.002942	-0.003943	-0.001601	-1.030273	0.393799	-1.170166	0.539976	-0.138534	-0.285606	-0.779528
31978		5.120074	2.904958	7.828653	0.003153	-0.001721	-0.000349	-1.024902	0.395508	-1.178223	0.539953	-0.138556	-0.285594	-0.779544
31979		5.092115	2.889064	7.824799	0.003153	-0.001721	-0.000349	-1.032471	0.394775	-1.170654	0.539966	-0.138556	-0.285582	-0.779539
31980		5.125924	2.902635	7.799485	0.003030	-0.001303	-0.001878	-1.032227	0.387451	-1.169189	0.539941	-0.138572	-0.285571	-0.779558
31981		5.127043	2.884696	7.816460	0.003204	-0.002949	-0.002428	-1.031250	0.396484	-1.176758	0.539878	-0.138596	-0.285576	-0.779595
31982		5.112784	2.894808	7.827160	0.002505	-0.003291	-0.000223	-1.031738	0.389893	-1.181152	0.539885	-0.138617	-0.285569	-0.779589
31983		5.110297	2.896809	7.841149	0.002207	-0.001226	-0.001202	-1.027100	0.389160	-1.179443	0.539894	-0.138606	-0.285564	-0.779587
31984		5.132397	2.918164	7.812614	0.001296	-0.003789	-0.000248	-1.030029	0.384766	-1.177246	0.539888	-0.138621	-0.285558	-0.779591
31985		5.111978	2.861909	7.814718	0.003590	-0.002374	-0.001727	-1.019775	0.388672	-1.176514	0.539860	-0.138615	-0.285569	-0.779607
31986		5.128508	2.886770	7.814733	0.003154	-0.001722	-0.000349	-1.032959	0.385010	-1.182861	0.539844	-0.138612	-0.285559	-0.779623
31987		5.124976	2.907261	7.811485	0.001384	-0.001149	-0.000525	-1.026855	0.389893	-1.178223	0.539854	-0.138596	-0.285555	-0.779620
31988		5.117038	2.895355	7.811071	0.001559	-0.002796	-0.001076	-1.027832	0.394531	-1.180176	0.539843	-0.138605	-0.285546	-0.779629
31989		5.108961	2.883742	7.810640	0.004501	0.000189	-0.002681	-1.029541	0.389648	-1.172852	0.539853	-0.138576	-0.285542	-0.779629
31990		5.114325	2.898144	7.824918	0.002593	-0.000650	-0.000501	-1.024170	0.394043	-1.174805	0.539829	-0.138583	-0.285528	-0.779649
31991		5.115392	2.880101	7.841984	0.002258	-0.002455	-0.003281	-1.028564	0.386963	-1.177002	0.539799	-0.138593	-0.285515	-0.779673
31992		5.114704	2.899246	7.824262	0.004152	-0.003446	-0.001576	-1.040527	0.389648	-1.174072	0.539777	-0.138593	-0.285531	-0.779683
31993		5.104084	2.889528	7.837907	0.005237	-0.002531	-0.003081	-1.022949	0.389648	-1.174072	0.539743	-0.138596	-0.285555	-0.779697
31994		5.118087	2.898907	7.809065	0.000089	-0.004288	-0.000273	-1.030518	0.395508	-1.174561	0.539715	-0.138631	-0.285536	-0.779717
31995		5.124855	2.894710	7.840399	0.006570	-0.002451	-0.001527	-1.036377	0.400879	-1.171631	0.539701	-0.138632	-0.285551	-0.779721
31996		5.113294	2.886489	7.793681	0.004415	-0.002454	-0.002404	-1.038086	0.389648	-1.182129	0.539671	-0.138660	-0.285547	-0.779738
31997		5.116159	2.902635	7.822054	0.003978	-0.001800	-0.001027	-1.031006	0.388428	-1.181396	0.539687	-0.138646	-0.285562	-0.779724
31998		5.122799	2.881529	7.810402	0.004415	-0.002454	-0.002405	-1.035156	0.386719	-1.173828	0.539687	-0.138627	-0.285579	-0.779721
31999		5.122941	2.882196	7.810062	0.003031	-0.001305	-0.001879	-1.029053	0.391602	-1.178955	0.539659	-0.138628	-0.285582	-0.779739
32000		5.102079	2.914304	7.832062	0.003643	-0.003607	-0.003807	-1.031006	0.391846	-1.182373	0.539638	-0.138627	-0.285593	-0.779750
32001		5.108805	2.893046	7.820414	0.001946	-0.002221	-0.000375	-1.027344	0.390869	-1.176514	0.539656	-0.138626	-0.285587	-0.779740
32002		5.132971	2.877784	7.826243	0.006923	-0.005747	-0.002629	-1.030273	0.386719	-1.175049	0.539631	-0.138631	-0.285625	-0.779743
32003		5.105957	2.914690	7.816266	0.003155	-0.001723	-0.000351	-1.035400	0.394531	-1.185547	0.539616	-0.138632	-0.285626	-0.779752
32004		5.098986	2.884624	7.833078	0.004416	-0.002455	-0.002405	-1.022949	0.392090	-1.169678	0.539639	-0.138614	-0.285640	-0.779734
32005		5.121948	2.887862	7.821731	0.003593	-0.002377	-0.001728	-1.028564	0.388184	-1.171875	0.539595	-0.138632	-0.285630	-0.779766
32006		5.099386	2.886000	7.832311	0.003083	-0.002537	-0.003958	-1.023926	0.392822	-1.180420	0.539543	-0.138639	-0.285632	-0.779799
32007		5.127697	2.903118	7.835431	0.004802	-0.001880	-0.001705	-1.031982	0.390625	-1.175537	0.539549	-0.138622	-0.285635	-0.779797
32008		5.107859	2.899786	7.831657	0.005239	-0.002534	-0.003083	-1.031250	0.394287	-1.187988	0.539522	-0.138618	-0.285651	-0.779810
32009		5.120114	2.892757	7.834240	0.006488	-0.005095	-0.001252	-1.029053	0.386230	-1.175537	0.539555	-0.138604	-0.285687	-0.779777
32010		5.119621	2.912069	7.816280	0.004155	-0.003450	-0.001578	-1.034668	0.395508	-1.185547	0.539533	-0.138606	-0.285703	-0.779786
32011		5.111843	2.900911	7.815513	0.006677	-0.004917	-0.005688	-1.026855	0.375000	-1.170166	0.539529	-0.138589	-0.285743	-0.779777
32012		5.110522	2.885115	7.846489	0.005104	-0.003946	-0.000726	-1.034912	0.391602	-1.183838	0.539481	-0.138588	-0.285778	-0.779798
32013		5.121834	2.896592	7.831698	0.005854	-0.004840	-0.005011	-1.024658	0.389160	-1.176758	0.539472	-0.138575	-0.285816	-0.779792
32014		5.116724	2.884100	7.816565	0.008659	-0.003268	-0.004264	-1.031494	0.387695	-1.180664	0.539446	-0.138548	-0.285856	-0.779801
32015		5.110642	2.907195	7.827093	0.005980	-0.005258	-0.003483	-1.027100	0.393555	-1.177002	0.539432	-0.138540	-0.285897	-0.779797
32016		5.116508	2.904994	7.797815	0.006627	-0.003688	-0.003611	-1.032959	0.390869	-1.184814	0.539411	-0.138534	-0.285920	-0.779804
32017		5.123501	2.901537	7.828777	0.006719	-0.007980	-0.003881	-1.042236	0.391846	-1.182861	0.539407	-0.138536	-0.285976	-0.779786
32018		5.126775	2.900970	7.813714	0.006576	-0.002456	-0.001533	-1.027344	0.388672	-1.177490	0.539427	-0.138518	-0.286009	-0.779763
32019		5.109851	2.913223	7.838505	0.005158	-0.005181	-0.002806	-1.030273	0.386230	-1.175049	0.539404	-0.138523	-0.286035	-0.779768
32020		5.126357	2.921092	7.795362	0.003242	0.000917	-0.000632	-1.028076	0.393555	-1.182129	0.539396	-0.138506	-0.286023	-0.779782
32021		5.119124	2.908212	7.855430	0.004242	-0.000811	-0.001859	-1.029541	0.395508	-1.178223	0.539411	-0.138485	-0.286019	-0.779776
32022		5.118175	2.910134	7.794803	0.003419	-0.000732	-0.001181	-1.029785	0.387207	-1.177002	0.539417	-0.138481	-0.286004	-0.779778
32023		5.100961	2.921832	7.819991	0.001000	-0.001728	-0.001227	-1.025146	0.391113	-1.184570	0.539405	-0.138487	-0.285990	-0.779791
32024		5.119566	2.892251	7.811690	0.002074	-0.002639	0.001154	-1.028809	0.390137	-1.179199	0.539438	-0.138484	-0.285979	-0.779772
32025		5.105204	2.902166	7.822542	0.002595	-0.000653	-0.000504	-1.028809	0.392334	-1.177002	0.539446	-0.138475	-0.285966	-0.779773
32026		5.106452	2.884056	7.839611	0.002512	-0.003296	-0.000224	-1.029785	0.382324	-1.179688	0.539444	-0.138493	-0.285960	-0.779774
32027		5.108353	2.900928	7.807805	-0.002158	-0.000003	-0.000874	-1.022949	0.388428	-1.170166	0.539438	-0.138490	-0.285925	-0.779792
32028		5.132155	2.902133	7.857165	0.001897	-0.000990	0.001703	-1.033203	0.388428	-1.174072	0.539420	-0.138508	-0.285898	-0.779810
32029		5.128763	2.905310	7.810796	0.002512	-0.003296	-0.000224	-1.033203	0.393555	-1.177490	0.539403	-0.138529	-0.285899	-0.779818
32030		5.109182	2.901363	7.807101	0.001688	-0.003217	0.000454	-1.030029	0.394531	-1.171387	0.539406	-0.138554	-0.285888	-0.779815
32031		5.126988	2.907458	7.824296	0.002251	-0.004289	0.000605	-1.030273	0.391602	-1.180664	0.539385	-0.138598	-0.285878	-0.779825
32032		5.104700	2.905102	7.834924	0.001126	-0.002144	0.000302	-1.029053	0.392090	-1.185059	0.539399	-0.138607	-0.285862	-0.779821
32033		5.139584	2.899973	7.826831	0.004493	-0.001643	0.001199	-1.034180	0.390869	-1.179199	0.539439	-0.138589	-0.285865	-0.779795
32034		5.121581	2.912964	7.791509	0.003284	-0.002142	0.001176	-1.027832	0.389648	-1.183350	0.539456	-0.138594	-0.285865	-0.779783
32035		5.120231	2.896672	7.822752	0.004159	-0.003455	-0.001580	-1.028809	0.388184	-1.177734	0.539465	-0.138583	-0.285878	-0.779773
32036		5.120334	2.897063	7.822540	0.000260	0.000993	-0.000829	-1.032227	0.382080	-1.176758	0.539464	-0.138573	-0.285845	-0.779787
32037		5.106914	2.871261	7.807827	0.002126	-0.003874	-0.000924	-1.037598	0.389648	-1.184814	0.539445	-0.138582	-0.285857	-0.779795
32038		5.126269	2.911738	7.836316	0.005754	-0.002380	-0.000858	-1.033203	0.386719	-1.176758	0.539471	-0.138560	-0.285884	-0.779771
32039		5.136611	2.870545	7.827774	0.003857	-0.001391	-0.002561	-1.031738	0.378906	-1.170166	0.539453	-0.138548	-0.285892	-0.779782
32040		5.114475	2.903922	7.789540	0.002731	0.000754	-0.002863	-1.029785	0.385986	-1.185059	0.539405	-0.138530	-0.285889	-0.779820
32041		5.098205	2.897664	7.831978	0.007016	-0.003118	-0.002914	-1.025146	0.393799	-1.175537	0.539415	-0.138493	-0.285929	-0.779805
32042		5.135753	2.891695	7.809305	0.005681	-0.003201	-0.004466	-1.024414	0.390869	-1.171143	0.539385	-0.138488	-0.285943	-0.779821
32043		5.098600	2.899918	7.830887	0.006453	-0.002046	-0.003066	-1.025391	0.388916	-1.183838	0.539349	-0.138482	-0.285955	-0.779843
32044		5.112284	2.909564	7.802017	0.002648	-0.001890	-0.002583	-1.027344	0.386475	-1.175781	0.539358	-0.138462	-0.285953	-0.779841
32045		5.104351	2.898065	7.801521	0.003649	-0.003620	-0.003810	-1.033203	0.389893	-1.174561	0.539323	-0.138462	-0.285966	-0.779860
32046		5.096555	2.903945	7.843882	0.004598	-0.004115	-0.002959	-1.036377	0.389160	-1.173340	0.539292	-0.138474	-0.285985	-0.779873
32047		5.099787	2.903167	7.828910	0.006111	-0.005683	-0.001956	-1.029785	0.391113	-1.179932	0.539259	-0.138496	-0.286022	-0.779879
32048		5.123238	2.906784	7.817031	0.007113	-0.007414	-0.003183	-1.040039	0.382568	-1.177734	0.539241	-0.138505	-0.286071	-0.779871
32049		5.135846	2.899738	7.819403	0.004851	-0.004945	0.000100	-1.037598	0.387939	-1.181396	0.539235	-0.138514	-0.286108	-0.779860
32050		5.105441	2.885728	7.829754	0.004036	-0.003044	-0.003111	-1.018555	0.388916	-1.175293	0.539228	-0.138506	-0.286127	-0.779859
32051		5.126415	2.925728	7.783543	0.002515	-0.003298	-0.000224	-1.025879	0.395264	-1.172363	0.539220	-0.138516	-0.286117	-0.779866
32052		5.113371	2.917392	7.811536	0.003516	-0.005030	-0.001451	-1.026611	0.389893	-1.179932	0.539193	-0.138550	-0.286117	-0.779880
32053		5.115000	2.899188	7.828450	0.000994	-0.003552	0.002662	-1.029785	0.386475	-1.176514	0.539217	-0.138571	-0.286102	-0.779865
32054		5.131796	2.923512	7.828311	0.000868	-0.003138	0.001132	-1.041260	0.388672	-1.171143	0.539218	-0.138591	-0.286091	-0.779865
32055		5.118442	2.897458	7.813683	0.000386	0.000578	0.000700	-1.022949	0.381592	-1.179932	0.539202	-0.138611	-0.286062	-0.779883
32056		5.106493	2.905045	7.810678	-0.003472	0.001972	0.003263	-1.026855	0.389160	-1.182373	0.539241	-0.138601	-0.286002	-0.779879
32057		5.141114	2.899115	7.803024	-0.000697	-0.000334	0.002208	-1.037598	0.392822	-1.173340	0.539277	-0.138600	-0.285966	-0.779868
32058		5.107552	2.885667	7.828399	-0.002262	0.002470	0.003284	-1.031982	0.386963	-1.178711	0.539288	-0.138624	-0.285901	-0.779879
32059		5.106539	2.903512	7.811219	-0.004452	-0.001413	0.000615	-1.031738	0.379150	-1.186279	0.539291	-0.138652	-0.285852	-0.779891
32060		5.115863	2.896866	7.828745	0.000512	0.000163	0.002229	-1.033936	0.390381	-1.179932	0.539339	-0.138622	-0.285841	-0.779867
32061		5.101248	2.889007	7.796966	-0.002210	0.001233	0.001206	-1.031494	0.384766	-1.178955	0.539358	-0.138627	-0.285790	-0.779871
32062		5.115803	2.896413	7.828952	0.000000	0.000000	0.000000	-1.030273	0.392578	-1.179932	0.539353	-0.138619	-0.285793	-0.779875
32063		5.113364	2.898034	7.843102	-0.000342	-0.003636	0.001111	-1.022461	0.390381	-1.174072	0.539366	-0.138648	-0.285772	-0.779869
32064		5.139184	2.898947	7.817503	0.001951	-0.002226	-0.000376	-1.028809	0.396240	-1.175537	0.539356	-0.138659	-0.285756	-0.779880
32065		5.111346	2.882940	7.813771	0.003724	-0.002801	-0.000204	-1.036133	0.391846	-1.187256	0.539354	-0.138675	-0.285751	-0.779880
32066		5.120951	2.877206	7.830777	0.004288	-0.003874	-0.000053	-1.026367	0.396729	-1.182861	0.539385	-0.138668	-0.285771	-0.779853
32067		5.120350	2.896273	7.812873	0.004161	-0.003460	-0.001582	-1.030762	0.379883	-1.176514	0.539400	-0.138666	-0.285775	-0.779841
32068		5.132613	2.888909	7.815585	0.003338	-0.003380	-0.000904	-1.036865	0.388428	-1.181641	0.539381	-0.138663	-0.285794	-0.779848
32069		5.129185	2.909442	7.812140	0.002337	-0.001648	0.000323	-1.034668	0.385742	-1.178467	0.539396	-0.138660	-0.285792	-0.779838
32070		5.101232	2.893295	7.808546	0.001001	-0.001732	-0.001227	-1.029053	0.397705	-1.185303	0.539388	-0.138661	-0.285785	-0.779847
32071		5.116166	2.901034	7.840166	0.000868	-0.003139	0.001132	-1.030518	0.388184	-1.183350	0.539427	-0.138676	-0.285765	-0.779824
32072		5.120950	2.916011	7.793922	0.000817	-0.001902	0.003210	-1.030029	0.396973	-1.181396	0.539465	-0.138680	-0.285749	-0.779803
32073		5.143898	2.918205	7.782869	-0.002470	0.000241	0.002036	-1.033691	0.393799	-1.175537	0.539503	-0.138696	-0.285693	-0.779794
32074		5.115868	2.918663	7.822589	-0.002033	-0.000417	0.000658	-1.033203	0.387451	-1.182617	0.539509	-0.138722	-0.285647	-0.779803
32075		5.129641	2.856149	7.817813	-0.001615	0.004041	0.003154	-1.029053	0.389893	-1.174805	0.539553	-0.138700	-0.285591	-0.779796
32076		5.115307	2.900422	7.780307	-0.004161	0.003461	0.001582	-1.026123	0.391602	-1.179443	0.539561	-0.138707	-0.285514	-0.779818
32077		5.133437	2.887272	7.815649	-0.003034	0.001314	0.001885	-1.036621	0.384521	-1.185059	0.539584	-0.138715	-0.285452	-0.779823
32078		5.091738	2.861727	7.840915	-0.001210	-0.000498	-0.000021	-1.029297	0.381592	-1.178467	0.539600	-0.138707	-0.285430	-0.779822
32079		5.122644	2.876357	7.829982	-0.000386	-0.000578	-0.000700	-1.033936	0.393799	-1.179932	0.539584	-0.138702	-0.285409	-0.779841
32080		5.137387	2.866768	7.818734	0.001127	-0.002146	0.000302	-1.026611	0.393066	-1.185059	0.539599	-0.138714	-0.285396	-0.779834
32081		5.128323	2.873246	7.801100	-0.000076	-0.000822	-0.003607	-1.027100	0.391357	-1.175049	0.539605	-0.138699	-0.285371	-0.779841
32082		5.120278	2.878861	7.843765	0.004807	-0.001890	-0.001713	-1.038574	0.390381	-1.182861	0.539591	-0.138692	-0.285379	-0.779849
32083		5.110325	2.904299	7.808450	0.004161	-0.003461	-0.001583	-1.031250	0.391357	-1.185303	0.539598	-0.138688	-0.285401	-0.779837
32084		5.132635	2.872143	7.846180	0.000874	-0.001317	-0.002757	-1.029053	0.386230	-1.171387	0.539608	-0.138673	-0.285389	-0.779837
32085		5.127898	2.911262	7.825466	0.003857	-0.001395	-0.002564	-1.034668	0.391602	-1.180908	0.539566	-0.138670	-0.285392	-0.779866
32086		5.126148	2.895089	7.857008	0.002292	0.001410	-0.001488	-1.027344	0.399414	-1.179199	0.539579	-0.138646	-0.285376	-0.779867
32087		5.108595	2.889602	7.839430	0.001906	0.000832	-0.002187	-1.029785	0.387207	-1.185791	0.539595	-0.138633	-0.285347	-0.779868
32088		5.122014	2.899046	7.810753	0.005067	-0.000898	-0.002543	-1.035645	0.394043	-1.177490	0.539603	-0.138593	-0.285363	-0.779864
32089		5.113907	2.905000	7.853338	0.003345	-0.001560	-0.004793	-1.028564	0.389160	-1.173096	0.539585	-0.138585	-0.285368	-0.779876
32090		5.108537	2.891930	7.838609	0.004808	-0.001890	-0.001713	-1.031494	0.401123	-1.172852	0.539561	-0.138582	-0.285377	-0.779891
32091		5.123090	2.882881	7.827291	0.001906	0.000831	-0.002188	-1.031982	0.385498	-1.180664	0.539564	-0.138584	-0.285347	-0.779899
32092		5.116400	2.905231	7.838459	0.003116	0.001329	-0.002167	-1.034668	0.385254	-1.167725	0.539559	-0.138550	-0.285340	-0.779911
32093		5.118884	2.903895	7.824165	0.001982	0.001655	0.001420	-1.033691	0.395020	-1.185547	0.539538	-0.138554	-0.285315	-0.779934
32094		5.136096	2.892526	7.798804	-0.000824	0.000081	0.000679	-1.032471	0.384033	-1.176758	0.539577	-0.138552	-0.285280	-0.779920
32095		5.101380	2.897727	7.806806	-0.001952	0.002227	0.000376	-1.031250	0.389160	-1.172607	0.539571	-0.138547	-0.285233	-0.779943
32096		5.118615	2.903269	7.824574	-0.002857	-0.000336	0.001337	-1.032471	0.399170	-1.175049	0.539560	-0.138577	-0.285184	-0.779963
32097		5.105087	2.894216	7.853180	-0.000950	0.000495	-0.000851	-1.039551	0.389160	-1.175781	0.539563	-0.138594	-0.285137	-0.779974
32098		5.121323	2.901388	7.810337	0.001388	-0.001154	-0.000527	-1.029785	0.398193	-1.180420	0.539556	-0.138602	-0.285129	-0.779981
32099		5.106892	2.911102	7.821328	-0.000259	-0.000992	0.000830	-1.034180	0.387939	-1.183105	0.539580	-0.138617	-0.285094	-0.779974
32100		5.130949	2.895144	7.827526	0.001255	-0.002560	0.001832	-1.026611	0.395264	-1.180176	0.539603	-0.138623	-0.285089	-0.779959
32101		5.103033	2.878842	7.823977	0.002160	0.000003	0.000872	-1.026123	0.388428	-1.185303	0.539627	-0.138617	-0.285066	-0.779952
32102		5.120528	2.885291	7.841239	0.005372	-0.002964	-0.001562	-1.023438	0.386230	-1.177246	0.539634	-0.138593	-0.285089	-0.779943
32103		5.123537	2.884254	7.826492	0.004112	-0.002224	0.000495	-1.024902	0.387207	-1.179932	0.539626	-0.138588	-0.285094	-0.779947
32104		5.133058	2.878502	7.843573	0.003726	-0.002803	-0.000204	-1.035156	0.398438	-1.177979	0.539624	-0.138582	-0.285102	-0.779947
32105		5.106799	2.879711	7.808033	0.006893	-0.002713	-0.004450	-1.030029	0.385498	-1.181885	0.539615	-0.138570	-0.285130	-0.779946
32106		5.113403	2.876084	7.839405	0.003035	-0.001316	-0.001885	-1.028076	0.395020	-1.181885	0.539608	-0.138550	-0.285135	-0.779952
32107		5.115206	2.893581	7.807309	0.006583	-0.002468	-0.001542	-1.029297	0.390625	-1.183350	0.539622	-0.138531	-0.285157	-0.779938
32108		5.116394	2.876004	7.824316	0.004245	-0.000819	-0.001865	-1.029053	0.396973	-1.168945	0.539631	-0.138505	-0.285162	-0.779934
32109		5.112818	2.896999	7.820773	0.005811	-0.003626	-0.002941	-1.036621	0.390869	-1.169922	0.539600	-0.138521	-0.285179	-0.779947
32110		5.110394	2.899604	7.834563	0.004423	-0.002472	-0.002413	-1.042480	0.394043	-1.182373	0.539568	-0.138531	-0.285192	-0.779962
32111		5.125207	2.890748	7.823002	0.005760	-0.002388	-0.000864	-1.026367	0.390137	-1.175049	0.539589	-0.138520	-0.285217	-0.779940
32112		5.102814	2.888888	7.833589	0.003727	-0.002804	-0.000205	-1.027100	0.392822	-1.172607	0.539579	-0.138528	-0.285221	-0.779945
32113		5.099331	2.909747	7.830026	0.005247	-0.002554	-0.003093	-1.029053	0.385986	-1.178955	0.539550	-0.138527	-0.285233	-0.779961
32114		5.120482	2.879090	7.807339	0.005583	-0.000736	-0.000316	-1.033203	0.393311	-1.184082	0.539552	-0.138502	-0.285247	-0.779959
32115		5.111303	2.903081	7.832682	0.000259	0.000992	-0.000831	-1.035156	0.391602	-1.177734	0.539574	-0.138488	-0.285216	-0.779957
32116		5.083242	2.886875	7.829222	0.003290	-0.002144	0.001174	-1.031738	0.390381	-1.181641	0.539588	-0.138495	-0.285218	-0.779946
32117		5.111723	2.903529	7.832242	0.000743	-0.002726	-0.000396	-1.026855	0.396729	-1.175781	0.539593	-0.138505	-0.285208	-0.779944
32118		5.106493	2.889632	7.817739	0.000513	0.000166	0.002229	-1.034912	0.387939	-1.177002	0.539615	-0.138519	-0.285168	-0.779941
32119		5.103869	2.891121	7.832077	-0.001647	0.000163	0.001358	-1.035645	0.401367	-1.176270	0.539621	-0.138531	-0.285130	-0.779948
32120		5.118582	2.880992	7.821050	-0.002730	-0.000748	0.002868	-1.026855	0.391602	-1.177246	0.539652	-0.138573	-0.285074	-0.779939
32121		5.107849	2.870131	7.835367	-0.000051	0.001239	0.002077	-1.032471	0.387451	-1.181152	0.539669	-0.138574	-0.285033	-0.779943
32122		5.111116	2.920330	7.815126	-0.004683	0.001481	0.003244	-1.029053	0.390381	-1.175049	0.539696	-0.138587	-0.284968	-0.779945
32123		5.116018	2.881018	7.835887	-0.004453	-0.001411	0.000619	-1.034424	0.387207	-1.180420	0.539686	-0.138624	-0.284914	-0.779966
32124		5.130752	2.870722	7.824903	-0.001571	0.000988	0.004966	-1.033936	0.388184	-1.180664	0.539726	-0.138632	-0.284871	-0.779952
32125		5.118883	2.878080	7.821925	-0.003035	0.001318	0.001886	-1.031494	0.389648	-1.182129	0.539746	-0.138636	-0.284821	-0.779956
32126		5.109640	2.883954	7.804608	-0.000437	0.000660	0.001378	-1.030273	0.395264	-1.178223	0.539768	-0.138631	-0.284788	-0.779954
32127		5.096191	2.875140	7.833111	0.000564	-0.001074	0.000151	-1.030273	0.394775	-1.177734	0.539776	-0.138641	-0.284763	-0.779955
32128		5.124455	2.891862	7.836251	0.003035	-0.001318	-0.001886	-1.032227	0.383301	-1.181396	0.539772	-0.138638	-0.284758	-0.779961
32129		5.115461	2.898357	7.818541	0.000305	-0.002066	0.000982	-1.029541	0.392578	-1.182861	0.539775	-0.138641	-0.284750	-0.779961
32130		5.125107	2.892487	7.835594	0.006066	-0.004455	0.000118	-1.034180	0.399414	-1.179199	0.539789	-0.138638	-0.284780	-0.779941
32131		5.100000	2.874863	7.817555	0.001388	-0.001155	-0.000528	-1.026123	0.397217	-1.174805	0.539806	-0.138646	-0.284761	-0.779935
32132		5.129357	2.873359	7.838015	0.004810	-0.001895	-0.001715	-1.032471	0.386963	-1.181152	0.539797	-0.138645	-0.284764	-0.779940
32133		5.097750	2.877808	7.831116	0.003778	-0.004044	-0.002283	-1.024902	0.397949	-1.178223	0.539783	-0.138642	-0.284787	-0.779942
32134		5.118237	2.882755	7.833798	0.004729	-0.004540	-0.001432	-1.027588	0.391602	-1.178955	0.539778	-0.138654	-0.284801	-0.779938
32135		5.132146	2.892371	7.804679	0.006198	-0.003051	-0.002244	-1.031494	0.390381	-1.183105	0.539768	-0.138641	-0.284826	-0.779938
32136		5.101768	2.895962	7.858026	0.005940	-0.004043	-0.001413	-1.033203	0.393799	-1.175293	0.539771	-0.138630	-0.284859	-0.779926
32137		5.132925	2.894014	7.803557	0.003728	-0.002806	-0.000206	-1.027588	0.391602	-1.184326	0.539771	-0.138640	-0.284865	-0.779922
32138		5.110380	2.892086	7.814291	0.002908	-0.000906	-0.003417	-1.028320	0.390381	-1.177246	0.539767	-0.138616	-0.284863	-0.779929
32139		5.110336	2.892516	7.814161	0.002934	0.001160	0.002268	-1.028809	0.389893	-1.179199	0.539787	-0.138603	-0.284844	-0.779925
32140		5.107854	2.894424	7.828259	0.001694	-0.003222	0.000454	-1.032715	0.396973	-1.183350	0.539787	-0.138617	-0.284840	-0.779924
32141		5.098913	2.900848	7.810529	0.001775	-0.000577	0.000171	-1.028809	0.389160	-1.177979	0.539816	-0.138611	-0.284824	-0.779911
32142		5.116301	2.906834	7.828026	-0.000824	0.000082	0.000679	-1.036377	0.386719	-1.176270	0.539818	-0.138616	-0.284789	-0.779922
32143		5.110894	2.892766	7.813703	-0.001210	-0.000497	-0.000019	-1.038330	0.389404	-1.170166	0.539810	-0.138627	-0.284761	-0.779935
32144		5.120257	2.886250	7.831191	-0.002292	-0.001407	0.001491	-1.031006	0.390381	-1.186279	0.539799	-0.138665	-0.284725	-0.779949
32145		5.124043	2.865871	7.834390	-0.000178	0.001653	0.000547	-1.026855	0.394043	-1.176758	0.539829	-0.138644	-0.284692	-0.779944
32146		5.117555	2.887969	7.845504	0.003036	-0.001320	-0.001887	-1.030273	0.384521	-1.180908	0.539819	-0.138640	-0.284685	-0.779954
32147		5.106593	2.877447	7.859863	-0.004165	0.003467	0.001584	-1.031250	0.388184	-1.174805	0.539832	-0.138631	-0.284620	-0.779971
32148		5.088210	2.889562	7.825003	0.001257	-0.002561	0.001833	-1.026367	0.397217	-1.177979	0.539828	-0.138652	-0.284610	-0.779973
32149		5.112306	2.873809	7.831111	0.002340	-0.001651	0.000322	-1.035400	0.394775	-1.180664	0.539838	-0.138659	-0.284595	-0.779971
32150		5.112547	2.874004	7.830881	0.001516	-0.001569	0.001002	-1.030029	0.401367	-1.177490	0.539859	-0.138667	-0.284583	-0.779959
32151		5.113892	2.855884	7.848027	0.002390	-0.002891	-0.001755	-1.022705	0.394775	-1.180664	0.539859	-0.138682	-0.284575	-0.779959
32152		5.103888	2.880801	7.812830	0.001516	-0.001569	0.001002	-1.031982	0.377686	-1.183838	0.539873	-0.138687	-0.284555	-0.779956
32153		5.122666	2.868947	7.847342	0.006378	-0.004706	-0.002792	-1.035645	0.391113	-1.177002	0.539848	-0.138663	-0.284610	-0.779958
32154		5.107353	2.897509	7.840632	-0.000259	-0.000992	0.000831	-1.028076	0.394287	-1.179199	0.539852	-0.138677	-0.284585	-0.779961
32155		5.114100	2.875948	7.829154	0.003393	-0.004627	-0.002982	-1.023193	0.398438	-1.172363	0.539834	-0.138686	-0.284599	-0.779967
32156		5.099809	2.886079	7.839921	0.001775	-0.000577	0.000171	-1.030273	0.398682	-1.185791	0.539831	-0.138699	-0.284571	-0.779978
32157		5.134620	2.881091	7.831729	0.004166	-0.003469	-0.001585	-1.028809	0.394531	-1.186768	0.539849	-0.138695	-0.284583	-0.779961
32158		5.101411	2.868858	7.856581	0.004425	-0.002477	-0.002416	-1.025391	0.395752	-1.178711	0.539860	-0.138675	-0.284598	-0.779952
32159		5.120662	2.892234	7.841904	0.003780	-0.004048	-0.002284	-1.031738	0.395752	-1.178955	0.539848	-0.138682	-0.284608	-0.779955
32160		5.127292	2.870972	7.830396	0.002084	-0.000826	-0.002738	-1.031006	0.384521	-1.171875	0.539845	-0.138676	-0.284597	-0.779963
32161		5.123681	2.891332	7.827076	0.000307	-0.002066	0.000983	-1.027588	0.393066	-1.179688	0.539822	-0.138697	-0.284581	-0.779980
32162		5.113014	2.880851	7.841248	0.000387	0.000579	0.000699	-1.024414	0.391113	-1.176514	0.539836	-0.138693	-0.284549	-0.779983
32163		5.124880	2.873073	7.844386	0.001261	-0.000744	-0.002058	-1.027100	0.395020	-1.180664	0.539817	-0.138690	-0.284531	-0.780003
32164		5.127648	2.871647	7.829915	0.002727	-0.001072	0.001020	-1.025879	0.400146	-1.177246	0.539837	-0.138687	-0.284520	-0.779994
32165		5.121331	2.893745	7.840910	0.002162	0.000002	0.000869	-1.027588	0.389160	-1.171143	0.539856	-0.138689	-0.284493	-0.779990
32166		5.099760	2.855789	7.826262	0.002778	-0.002313	-0.001057	-1.022949	0.389893	-1.173828	0.539827	-0.138700	-0.284491	-0.780009
32167		5.104362	2.888720	7.822788	0.004425	-0.002478	-0.002417	-1.029785	0.386963	-1.178223	0.539798	-0.138696	-0.284501	-0.780026
32168		5.091073	2.880681	7.850969	0.002263	-0.002480	-0.003285	-1.026123	0.393799	-1.181152	0.539771	-0.138691	-0.284507	-0.780043
32169		5.114173	2.883791	7.839411	0.004861	-0.004957	0.000096	-1.027344	0.388184	-1.176514	0.539778	-0.138699	-0.284529	-0.780029
32170		5.102757	2.892277	7.835717	0.002392	-0.002893	-0.001756	-1.026855	0.394531	-1.182861	0.539757	-0.138703	-0.284532	-0.780042
32171		5.103030	2.892565	7.835433	0.001518	-0.001569	0.001001	-1.026123	0.381348	-1.177246	0.539779	-0.138705	-0.284517	-0.780032
32172		5.120544	2.881185	7.809823	0.000307	-0.002066	0.000983	-1.026611	0.396729	-1.184082	0.539769	-0.138711	-0.284506	-0.780042
32173		5.111761	2.904742	7.835082	0.000307	-0.002066	0.000983	-1.027832	0.387939	-1.179688	0.539795	-0.138721	-0.284484	-0.780030
32174		5.119652	2.864469	7.841139	0.001259	-0.002561	0.001833	-1.030762	0.395264	-1.169434	0.539804	-0.138731	-0.284477	-0.780025
32175		5.120474	2.899574	7.791709	0.001518	-0.001569	0.001001	-1.027588	0.400146	-1.178955	0.539792	-0.138757	-0.284455	-0.780036
32176		5.108363	2.872842	7.837407	0.003215	-0.002976	-0.002436	-1.033936	0.383545	-1.177246	0.539787	-0.138764	-0.284454	-0.780039
32177		5.123067	2.863393	7.826111	-0.000824	0.000083	0.000680	-1.031006	0.397217	-1.175537	0.539782	-0.138765	-0.284428	-0.780051
32178		5.108625	2.873212	7.837100	0.003165	-0.001735	-0.000359	-1.027832	0.392090	-1.177246	0.539781	-0.138772	-0.284422	-0.780053
32179		5.105327	2.893796	7.833481	0.003651	-0.005455	0.000077	-1.030518	0.384033	-1.178711	0.539774	-0.138794	-0.284439	-0.780048
32180		5.109456	2.873992	7.836272	0.000437	-0.000662	-0.001379	-1.025146	0.392334	-1.178467	0.539762	-0.138785	-0.284427	-0.780062
32181		5.112279	2.872570	7.821754	0.002392	-0.002894	-0.001756	-1.032959	0.394531	-1.168945	0.539752	-0.138788	-0.284427	-0.780068
32182		5.103292	2.879305	7.803920	0.003989	-0.001818	-0.001039	-1.021240	0.393555	-1.181152	0.539725	-0.138801	-0.284426	-0.780086
32183		5.121891	2.867406	7.838603	0.002213	-0.001240	-0.001209	-1.025391	0.391113	-1.184570	0.539733	-0.138790	-0.284416	-0.780086
32184		5.108909	2.894258	7.817771	0.003295	-0.000331	-0.002721	-1.028809	0.382812	-1.173340	0.539740	-0.138759	-0.284416	-0.780086
32185		5.119372	2.870160	7.852437	0.001182	-0.003392	-0.001774	-1.032471	0.395508	-1.178467	0.539704	-0.138771	-0.284419	-0.780108
32186		5.118469	2.889241	7.834599	0.007234	-0.000907	-0.001684	-1.041260	0.394287	-1.182861	0.539704	-0.138746	-0.284440	-0.780104
32187		5.087803	2.875488	7.845220	0.004040	-0.003061	-0.003117	-1.029053	0.386475	-1.177734	0.539693	-0.138743	-0.284458	-0.780106
32188		5.117143	2.857012	7.822516	0.006976	-0.001899	-0.000853	-1.030762	0.394043	-1.179199	0.539690	-0.138717	-0.284489	-0.780102
32189		5.104651	2.901615	7.844239	0.004735	-0.004548	-0.001435	-1.031494	0.392334	-1.172852	0.539682	-0.138725	-0.284511	-0.780098
32190		5.110435	2.898748	7.815109	0.003345	-0.003391	-0.000906	-1.031250	0.387695	-1.174316	0.539660	-0.138742	-0.284516	-0.780108
32191		5.145355	2.893633	7.806855	0.001132	-0.002150	0.000303	-1.029541	0.383057	-1.172119	0.539648	-0.138755	-0.284506	-0.780117
32192		5.120278	2.893077	7.832001	0.002343	-0.001653	0.000321	-1.033203	0.394287	-1.170898	0.539632	-0.138757	-0.284505	-0.780128
32193		5.114980	2.879306	7.817511	0.000953	-0.000495	0.000850	-1.025635	0.399170	-1.179443	0.539618	-0.138777	-0.284476	-0.780146
32194		5.100522	2.888955	7.828577	0.000516	0.000168	0.002228	-1.034180	0.389648	-1.170654	0.539644	-0.138786	-0.284437	-0.780140
32195		5.124564	2.872756	7.834896	-0.002549	-0.002397	0.002327	-1.027832	0.396973	-1.177490	0.539629	-0.138832	-0.284398	-0.780156
32196		5.108627	2.848168	7.834726	0.001906	-0.000990	0.001699	-1.028076	0.398926	-1.180664	0.539642	-0.138842	-0.284377	-0.780153
32197		5.102456	2.870155	7.845657	0.001132	-0.002150	0.000303	-1.031494	0.393555	-1.174072	0.539651	-0.138857	-0.284357	-0.780152
32198		5.122709	2.874584	7.848642	0.001003	-0.001738	-0.001227	-1.033447	0.385254	-1.175293	0.539631	-0.138871	-0.284339	-0.780169
32199		5.105523	2.869006	7.830871	0.003990	-0.001820	-0.001041	-1.026855	0.388916	-1.182129	0.539621	-0.138861	-0.284354	-0.780173
32200		5.101955	2.889656	7.827384	0.003166	-0.001736	-0.000360	-1.033447	0.398438	-1.179932	0.539638	-0.138844	-0.284361	-0.780161
32201		5.123200	2.876115	7.847760	0.004248	-0.000828	-0.001873	-1.034424	0.391846	-1.186768	0.539632	-0.138836	-0.284359	-0.780168
32202		5.103356	2.872726	7.844130	0.005817	-0.003642	-0.002949	-1.029785	0.389160	-1.173584	0.539635	-0.138815	-0.284394	-0.780156
32203		5.115608	2.865638	7.846770	0.004170	-0.003475	-0.001587	-1.030762	0.390625	-1.182129	0.539613	-0.138820	-0.284411	-0.780165
32204		5.127934	2.858852	7.849254	0.010195	-0.004883	-0.003292	-1.032959	0.390137	-1.183838	0.539607	-0.138792	-0.284478	-0.780150
32205		5.112675	2.888219	7.842152	0.005818	-0.003644	-0.002949	-1.027832	0.384766	-1.183105	0.539603	-0.138773	-0.284513	-0.780143
32206		5.111310	2.855162	7.830430	0.005818	-0.003644	-0.002949	-1.033691	0.390625	-1.180664	0.539602	-0.138747	-0.284554	-0.780133
32207		5.104171	2.896444	7.823430	0.006385	-0.004720	-0.002798	-1.030762	0.389893	-1.178711	0.539587	-0.138740	-0.284594	-0.780130
32208		5.112139	2.857162	7.829159	0.004995	-0.003561	-0.002269	-1.022461	0.390137	-1.179199	0.539574	-0.138734	-0.284618	-0.780131
32209		5.116757	2.890369	7.825477	0.005252	-0.002570	-0.003102	-1.031494	0.398926	-1.181152	0.539567	-0.138714	-0.284640	-0.780132
32210		5.096975	2.886912	7.821839	0.004945	-0.002316	-0.000193	-1.032471	0.391113	-1.177734	0.539579	-0.138712	-0.284647	-0.780122
32211		5.126328	2.885668	7.842209	0.003682	0.000244	-0.002026	-1.039307	0.386475	-1.168213	0.539571	-0.138693	-0.284643	-0.780132
32212		5.102549	2.901968	7.835665	0.001004	-0.001740	-0.001227	-1.025635	0.387451	-1.184082	0.539526	-0.138714	-0.284629	-0.780165
32213		5.123776	2.870845	7.813104	0.004559	-0.002897	-0.000891	-1.035645	0.396484	-1.178711	0.539544	-0.138694	-0.284652	-0.780147
32214		5.100342	2.887290	7.806280	0.003348	-0.003394	-0.000907	-1.029297	0.394775	-1.182373	0.539534	-0.138709	-0.284655	-0.780150
32215		5.107272	2.883380	7.837670	0.002781	-0.002319	-0.001059	-1.032227	0.386230	-1.178467	0.539542	-0.138707	-0.284654	-0.780146
32216		5.107545	2.883838	7.837323	0.002395	-0.002900	-0.001757	-1.033447	0.395996	-1.180908	0.539528	-0.138707	-0.284662	-0.780152
32217		5.127893	2.888588	7.840110	0.003735	-0.002814	-0.000210	-1.036621	0.382324	-1.178711	0.539534	-0.138712	-0.284667	-0.780146
32218		5.108049	2.884845	7.836624	0.003812	-0.000167	-0.000497	-1.022705	0.388428	-1.186035	0.539533	-0.138688	-0.284675	-0.780147
32219		5.122953	2.875556	7.825126	0.001107	-0.006044	-0.001486	-1.031494	0.390381	-1.181641	0.539543	-0.138700	-0.284691	-0.780133
32220		5.108827	2.885940	7.835714	0.006464	-0.002076	-0.003087	-1.028076	0.394043	-1.184082	0.539537	-0.138672	-0.284720	-0.780131
32221		5.131669	2.889300	7.824155	0.003606	-0.002404	-0.001741	-1.025635	0.392334	-1.173584	0.539548	-0.138661	-0.284728	-0.780122
32222		5.115692	2.865725	7.823707	0.006208	-0.003068	-0.002254	-1.031006	0.389404	-1.180176	0.539528	-0.138656	-0.284750	-0.780129
32223		5.106777	2.890246	7.848692	0.004250	-0.000833	-0.001876	-1.024902	0.393311	-1.176270	0.539526	-0.138635	-0.284757	-0.780131
32224		5.129734	2.893576	7.837066	0.006906	-0.004554	-0.000572	-1.035400	0.397217	-1.180908	0.539524	-0.138636	-0.284789	-0.780121
32225		5.105758	2.857948	7.836514	0.005254	-0.002574	-0.003104	-1.029053	0.394531	-1.174072	0.539514	-0.138628	-0.284805	-0.780124
32226		5.119571	2.885085	7.850281	0.006596	-0.002488	-0.001557	-1.033691	0.391113	-1.182373	0.539501	-0.138623	-0.284824	-0.780127
32227		5.110748	2.892191	7.832156	0.004405	-0.006385	-0.004211	-1.033447	0.395020	-1.177979	0.539476	-0.138631	-0.284860	-0.780129
32228		5.123167	2.885437	7.834574	0.008425	-0.004315	-0.003467	-1.032715	0.395020	-1.174805	0.539456	-0.138621	-0.284904	-0.780129
32229		5.117156	2.908732	7.844876	0.008039	-0.004898	-0.004164	-1.035400	0.387207	-1.182373	0.539422	-0.138620	-0.284947	-0.780137
32230		5.094774	2.889934	7.812371	0.006004	-0.005310	-0.003498	-1.028076	0.395020	-1.175293	0.539404	-0.138612	-0.284991	-0.780135
32231		5.112630	2.897323	7.829030	0.008864	-0.004984	-0.004847	-1.027832	0.389160	-1.179932	0.539371	-0.138603	-0.285040	-0.780141
32232		5.125019	2.890822	7.831377	0.006442	-0.005978	-0.004878	-1.031738	0.389648	-1.177002	0.539343	-0.138597	-0.285087	-0.780145
32233		5.110672	2.884174	7.798913	0.007035	-0.003158	-0.002939	-1.028076	0.395264	-1.180664	0.539324	-0.138582	-0.285121	-0.780148
32234		5.103117	2.890639	7.841178	0.005051	-0.004818	-0.004348	-1.031738	0.386475	-1.178467	0.539305	-0.138583	-0.285146	-0.780151
32235		5.116847	2.900442	7.811877	0.007473	-0.003826	-0.004318	-1.026123	0.391602	-1.176025	0.539280	-0.138561	-0.285192	-0.780156
32236		5.105277	2.909619	7.807999	0.005876	-0.004904	-0.005030	-1.024658	0.387939	-1.170410	0.539245	-0.138559	-0.285224	-0.780169
32237		5.129371	2.894869	7.813792	0.005644	-0.001998	-0.002410	-1.030518	0.389404	-1.185059	0.539219	-0.138549	-0.285239	-0.780183
32238		5.117539	2.903604	7.810249	0.004252	-0.000836	-0.001880	-1.026123	0.383301	-1.178711	0.539233	-0.138521	-0.285248	-0.780175
32239		5.124370	2.899981	7.841656	0.004564	-0.002903	-0.000894	-1.032715	0.392090	-1.178467	0.539232	-0.138509	-0.285269	-0.780170
32240		5.107229	2.894785	7.823721	0.006082	-0.002666	-0.003789	-1.030273	0.390869	-1.174316	0.539213	-0.138494	-0.285293	-0.780177
32241		5.104904	2.897403	7.837518	0.002967	-0.003982	-0.001605	-1.035400	0.389648	-1.177002	0.539191	-0.138512	-0.285298	-0.780187
32242		5.107857	2.896089	7.822828	0.003172	-0.001742	-0.000364	-1.026611	0.389404	-1.186035	0.539186	-0.138514	-0.285297	-0.780191
32243		5.110630	2.894791	7.808249	0.003041	-0.001334	-0.001895	-1.032959	0.377930	-1.180420	0.539203	-0.138491	-0.285300	-0.780182
32244		5.108307	2.897240	7.822108	0.004747	-0.004562	-0.001439	-1.036377	0.388916	-1.177734	0.539190	-0.138483	-0.285337	-0.780179
32245		5.116769	2.910117	7.821577	0.003997	-0.001828	-0.001046	-1.031250	0.392090	-1.171143	0.539182	-0.138479	-0.285344	-0.780183
32246		5.112683	2.878426	7.824494	0.003610	-0.002410	-0.001743	-1.032227	0.386963	-1.186279	0.539155	-0.138490	-0.285342	-0.780200
32247		5.111854	2.897403	7.806480	0.005134	-0.003981	-0.000743	-1.038086	0.389893	-1.179688	0.539171	-0.138478	-0.285373	-0.780180
32248		5.104507	2.903725	7.848694	0.005623	-0.005900	-0.004198	-1.034424	0.387939	-1.179443	0.539139	-0.138484	-0.285412	-0.780187
32249		5.110215	2.900915	7.819500	0.003742	-0.002819	-0.000213	-1.030029	0.392822	-1.178955	0.539139	-0.138485	-0.285422	-0.780183
32250		5.110646	2.901452	7.819019	0.004311	-0.003895	-0.000061	-1.024658	0.391602	-1.176514	0.539144	-0.138494	-0.285435	-0.780173
32251		5.116422	2.916023	7.832860	0.003042	-0.001335	-0.001896	-1.029785	0.396240	-1.182373	0.539139	-0.138488	-0.285429	-0.780180
32252		5.116727	2.916504	7.832482	0.003487	-0.003809	0.000622	-1.029053	0.395020	-1.182861	0.539159	-0.138500	-0.285433	-0.780162
32253		5.129130	2.909067	7.835176	0.002969	-0.003984	-0.001606	-1.030518	0.390381	-1.182129	0.539165	-0.138508	-0.285440	-0.780154
32254		5.126933	2.911226	7.849068	0.002094	-0.002647	0.001152	-1.023682	0.392822	-1.179199	0.539184	-0.138515	-0.285436	-0.780141
32255		5.121902	2.897586	7.834395	0.004312	-0.003896	-0.000061	-1.032959	0.391846	-1.169434	0.539195	-0.138520	-0.285448	-0.780128
32256		5.134178	2.890365	7.837093	0.004435	-0.002499	-0.002427	-1.026611	0.390625	-1.177002	0.539163	-0.138528	-0.285454	-0.780147
32257		5.119462	2.883080	7.805092	0.002473	-0.000259	-0.002048	-1.027832	0.388184	-1.174072	0.539159	-0.138516	-0.285441	-0.780157
32258		5.137107	2.890344	7.821928	0.010265	-0.006162	-0.005385	-1.027832	0.387207	-1.177979	0.539117	-0.138502	-0.285510	-0.780163
32259		5.143096	2.905712	7.835331	0.005961	-0.004070	-0.001427	-1.032471	0.386475	-1.178955	0.539111	-0.138496	-0.285540	-0.780157
32260		5.103492	2.898331	7.828356	0.008873	-0.005000	-0.004855	-1.035156	0.383789	-1.178711	0.539082	-0.138476	-0.285600	-0.780159
32261		5.115895	2.891952	7.830664	0.009005	-0.005408	-0.003324	-1.032959	0.390625	-1.178223	0.539058	-0.138460	-0.285662	-0.780155
32262		5.147058	2.908239	7.818533	0.010472	-0.003923	-0.004146	-1.034424	0.388184	-1.177490	0.539039	-0.138432	-0.285721	-0.780152
32263		5.128401	2.887392	7.832236	0.010158	-0.001858	-0.005134	-1.029785	0.394775	-1.179443	0.539014	-0.138390	-0.285772	-0.780158
32264		5.101589	2.888962	7.796801	0.009151	-0.000112	-0.003907	-1.037354	0.382568	-1.175537	0.539013	-0.138346	-0.285801	-0.780156
32265		5.118899	2.896729	7.813668	0.008429	-0.002533	-0.007375	-1.034668	0.392090	-1.183838	0.538959	-0.138309	-0.285851	-0.780182
32266		5.133230	2.888859	7.802008	0.011057	0.000702	-0.006110	-1.025635	0.383301	-1.171631	0.538952	-0.138240	-0.285896	-0.780182
32267		5.106782	2.908054	7.809329	0.007615	-0.004248	-0.002794	-1.030762	0.386963	-1.180176	0.538923	-0.138231	-0.285938	-0.780189
32268		5.104472	2.911516	7.822823	0.012900	-0.002937	-0.004123	-1.034668	0.387695	-1.181152	0.538914	-0.138180	-0.286011	-0.780177
32269		5.098390	2.935188	7.832953	0.009011	-0.005415	-0.003325	-1.037109	0.384766	-1.180176	0.538899	-0.138166	-0.286070	-0.780168
32270		5.124226	2.937058	7.806611	0.006150	-0.005736	-0.001971	-1.030273	0.393066	-1.175537	0.538883	-0.138170	-0.286112	-0.780163
32271		5.126128	2.919608	7.823448	0.004501	-0.005560	-0.000605	-1.032715	0.386230	-1.176025	0.538875	-0.138195	-0.286129	-0.780158
32272		5.113527	2.946064	7.802192	0.001273	-0.002559	0.001836	-1.026123	0.385498	-1.176514	0.538881	-0.138215	-0.286117	-0.780155
32273		5.120213	2.923891	7.791110	-0.002474	0.000264	0.002050	-1.034668	0.394775	-1.181641	0.538897	-0.138229	-0.286067	-0.780159
32274		5.127219	2.919281	7.822855	-0.000764	-0.002967	0.002507	-1.022949	0.383545	-1.175537	0.538920	-0.138263	-0.286038	-0.780148
32275		5.112942	2.928233	7.834084	-0.006343	0.001692	0.004632	-1.031982	0.395264	-1.174561	0.538950	-0.138289	-0.285955	-0.780153
32276		5.120846	2.887277	7.840779	-0.000377	-0.002384	0.003203	-1.031006	0.379639	-1.177246	0.538966	-0.138328	-0.285921	-0.780147
32277		5.122751	2.903215	7.808735	-0.002800	-0.003376	0.003178	-1.024414	0.374512	-1.172119	0.538975	-0.138364	-0.285892	-0.780146
32278		5.108792	2.912467	7.819648	-0.001150	-0.003552	0.001811	-1.036377	0.387207	-1.177246	0.538967	-0.138389	-0.285878	-0.780152
32279		5.131893	2.914788	7.808189	-0.000458	-0.003234	-0.000404	-1.034424	0.393311	-1.181396	0.538954	-0.138416	-0.285861	-0.780162
32280		5.120322	2.888107	7.854090	0.002281	-0.004309	0.000609	-1.032227	0.390869	-1.179688	0.538963	-0.138439	-0.285861	-0.780152
32281		5.114029	2.892586	7.821930	0.001965	-0.002242	-0.000379	-1.027344	0.391846	-1.177734	0.538967	-0.138446	-0.285853	-0.780151
32282		5.142622	2.909663	7.824405	0.005325	-0.005650	-0.001290	-1.035400	0.389893	-1.180664	0.538962	-0.138459	-0.285881	-0.780142
32283		5.126937	2.886157	7.823933	0.005834	-0.003672	-0.002962	-1.032715	0.387695	-1.174316	0.538950	-0.138451	-0.285909	-0.780141
32284		5.114118	2.913052	7.802662	0.003747	-0.002824	-0.000215	-1.031738	0.389648	-1.177002	0.538942	-0.138458	-0.285915	-0.780143
32285		5.133160	2.901920	7.837022	0.008441	-0.004342	-0.003482	-1.037598	0.391113	-1.175049	0.538923	-0.138445	-0.285962	-0.780142
32286		5.124204	2.909084	7.818877	0.005010	-0.003585	-0.002278	-1.035156	0.385010	-1.176758	0.538900	-0.138452	-0.285979	-0.780150
32287		5.118107	2.931861	7.829353	0.005397	-0.003001	-0.001583	-1.031006	0.387695	-1.177734	0.538888	-0.138445	-0.286002	-0.780151
32288		5.112817	2.918693	7.814694	0.006039	-0.001428	-0.001724	-1.029785	0.394043	-1.181152	0.538886	-0.138424	-0.286020	-0.780149
32289		5.113003	2.919745	7.814179	0.007047	-0.003179	-0.002951	-1.031250	0.387939	-1.179932	0.538884	-0.138409	-0.286049	-0.780143
32290		5.123844	2.931136	7.799285	0.004694	-0.001520	-0.003267	-1.038818	0.384521	-1.177246	0.538875	-0.138389	-0.286061	-0.780149
32291		5.116080	2.937398	7.841898	0.003819	-0.000175	-0.000509	-1.035645	0.381592	-1.176025	0.538872	-0.138374	-0.286061	-0.780153
32292		5.117059	2.901680	7.816578	-0.000774	-0.001168	-0.001391	-1.031738	0.383057	-1.179688	0.538855	-0.138382	-0.286039	-0.780171
32293		5.120089	2.917818	7.844895	0.003565	-0.001164	0.000327	-1.028564	0.377930	-1.182373	0.538867	-0.138368	-0.286043	-0.780164
32294		5.107919	2.908066	7.798833	-0.000438	0.000673	0.001379	-1.027588	0.387939	-1.178955	0.538892	-0.138352	-0.286017	-0.780159
32295		5.098786	2.931732	7.824247	-0.000184	0.001662	0.000543	-1.030029	0.397705	-1.184814	0.538911	-0.138341	-0.285978	-0.780162
32296		5.107814	2.907774	7.799011	-0.001079	-0.000901	0.001520	-1.032715	0.384766	-1.188477	0.538945	-0.138356	-0.285938	-0.780151
32297		5.113441	2.921451	7.813256	-0.002474	0.000265	0.002052	-1.025635	0.386963	-1.178223	0.538981	-0.138355	-0.285897	-0.780141
32298		5.130426	2.909118	7.788214	-0.005836	0.003675	0.002963	-1.036621	0.385254	-1.173096	0.539012	-0.138362	-0.285810	-0.780151
32299		5.128952	2.891718	7.820559	-0.004561	0.001114	0.004798	-1.031494	0.393799	-1.181641	0.539027	-0.138395	-0.285740	-0.780160
32300		5.107719	2.904603	7.800254	-0.005519	0.001608	0.003951	-1.030762	0.390869	-1.175293	0.539067	-0.138421	-0.285660	-0.780157
32301		5.109219	2.903300	7.860962	-0.003044	0.001342	0.001899	-1.030762	0.384766	-1.181396	0.539081	-0.138437	-0.285599	-0.780167
32302		5.115914	2.915457	7.800587	-0.002157	-0.001802	0.003040	-1.034424	0.386963	-1.178467	0.539103	-0.138459	-0.285565	-0.780160
32303		5.129284	2.888805	7.821417	-0.002087	0.000849	0.002747	-1.024658	0.391846	-1.182373	0.539122	-0.138470	-0.285517	-0.780163
32304		5.102960	2.905864	7.829474	-0.002728	-0.000725	0.002887	-1.027344	0.383545	-1.173828	0.539158	-0.138489	-0.285469	-0.780152
32305		5.125729	2.907792	7.818358	-0.002474	0.000265	0.002051	-1.031250	0.384521	-1.172363	0.539162	-0.138503	-0.285422	-0.780164
32306		5.136208	2.865416	7.810614	-0.000895	-0.002562	0.000976	-1.029053	0.395996	-1.184814	0.539148	-0.138532	-0.285398	-0.780177
32307		5.109757	2.883030	7.818551	0.000895	0.002562	-0.000976	-1.031738	0.390381	-1.172119	0.539176	-0.138506	-0.285361	-0.780176
32308		5.114943	2.897124	7.832936	-0.001528	0.001571	-0.001000	-1.026123	0.386719	-1.174316	0.539164	-0.138511	-0.285312	-0.780201
32309		5.108162	2.901212	7.801226	-0.000254	-0.000989	0.000836	-1.029785	0.391846	-1.173096	0.539165	-0.138522	-0.285285	-0.780208
32310		5.116334	2.913280	7.801125	-0.000437	0.000672	0.001379	-1.034424	0.396240	-1.177490	0.539172	-0.138533	-0.285243	-0.780217
32311		5.109494	2.882659	7.818860	-0.001212	-0.000496	-0.000012	-1.029541	0.394531	-1.175781	0.539174	-0.138552	-0.285202	-0.780227
32312		5.100603	2.906054	7.844231	-0.002340	-0.000141	0.003582	-1.030029	0.391846	-1.176514	0.539199	-0.138580	-0.285148	-0.780225
32313		5.126093	2.906195	7.818713	-0.001333	-0.001891	0.002355	-1.031006	0.391846	-1.172607	0.539211	-0.138609	-0.285113	-0.780224
32314		5.123744	2.907522	7.833042	-0.003685	-0.000231	0.002039	-1.031250	0.387207	-1.176025	0.539214	-0.138642	-0.285054	-0.780238
32315		5.115583	2.894592	7.833454	-0.004051	0.003091	0.003126	-1.027832	0.388916	-1.173096	0.539236	-0.138649	-0.284982	-0.780248
32316		5.109942	2.879790	7.819625	-0.004255	0.000846	0.001887	-1.022705	0.392822	-1.178955	0.539241	-0.138672	-0.284918	-0.780263
32317		5.121679	2.871290	7.823152	-0.003747	0.002825	0.000216	-1.028076	0.389648	-1.181396	0.539262	-0.138669	-0.284850	-0.780275
32318		5.113838	2.911137	7.816844	-0.000437	0.000671	0.001379	-1.021484	0.392334	-1.182617	0.539285	-0.138664	-0.284815	-0.780272
32319		5.123127	2.904807	7.834453	-0.002606	0.000670	0.000520	-1.031738	0.393799	-1.175049	0.539312	-0.138664	-0.284766	-0.780271
32320		5.115091	2.892275	7.834631	-0.001079	-0.000902	0.001519	-1.033691	0.393066	-1.176758	0.539318	-0.138687	-0.284728	-0.780277
32321		5.117792	2.890219	7.820343	-0.000824	0.000088	0.000684	-1.033936	0.385010	-1.179199	0.539321	-0.138699	-0.284690	-0.780287
32322		5.118906	2.871823	7.838047	-0.001528	0.001572	-0.001000	-1.032227	0.382812	-1.183594	0.539315	-0.138690	-0.284651	-0.780307
32323		5.106578	2.879638	7.835158	-0.000111	0.004311	0.000252	-1.034912	0.389893	-1.175049	0.539335	-0.138650	-0.284612	-0.780314
32324		5.093191	2.906046	7.814458	0.003043	-0.001341	-0.001899	-1.034424	0.392334	-1.176514	0.539314	-0.138648	-0.284610	-0.780330
32325		5.102858	2.900226	7.831630	0.001019	-0.003551	0.002671	-1.029297	0.392090	-1.175781	0.539320	-0.138681	-0.284599	-0.780324
32326		5.123108	2.886699	7.791605	0.000062	-0.003057	0.001823	-1.026611	0.391357	-1.180176	0.539325	-0.138710	-0.284579	-0.780322
32327		5.122217	2.870217	7.823194	0.000886	-0.003145	0.001139	-1.032715	0.393311	-1.179199	0.539339	-0.138725	-0.284570	-0.780313
32328		5.108057	2.879843	7.834118	0.000266	-0.000812	0.003062	-1.023926	0.384521	-1.183350	0.539362	-0.138740	-0.284541	-0.780305
32329		5.115017	2.875552	7.865778	0.000183	-0.001661	-0.000544	-1.029785	0.390381	-1.179688	0.539374	-0.138732	-0.284531	-0.780302
32330		5.104784	2.899904	7.830494	0.000886	-0.003145	0.001139	-1.027100	0.388916	-1.182861	0.539382	-0.138749	-0.284522	-0.780297
32331		5.103456	2.865833	7.819315	0.001528	-0.001572	0.000999	-1.031250	0.392578	-1.176514	0.539403	-0.138746	-0.284514	-0.780286
32332		5.106586	2.881721	7.847673	-0.000254	-0.000990	0.000836	-1.021729	0.392578	-1.173828	0.539405	-0.138761	-0.284484	-0.780292
32333		5.126847	2.886212	7.850530	0.002402	-0.002915	-0.001759	-1.028076	0.386230	-1.177734	0.539396	-0.138767	-0.284483	-0.780298
32334		5.113656	2.860487	7.835968	0.003930	-0.004487	-0.000760	-1.028076	0.389160	-1.178467	0.539387	-0.138772	-0.284505	-0.780296
32335		5.110287	2.881124	7.832193	0.003747	-0.002826	-0.000216	-1.025879	0.389893	-1.187988	0.539389	-0.138771	-0.284516	-0.780291
32336		5.121262	2.892132	7.817364	0.004438	-0.002508	-0.002431	-1.033691	0.394287	-1.177734	0.539402	-0.138745	-0.284537	-0.780278
32337		5.113318	2.880687	7.817087	0.003480	-0.002014	-0.003279	-1.030762	0.389404	-1.178711	0.539381	-0.138741	-0.284540	-0.780292
32338		5.125191	2.873483	7.820047	0.004460	0.001398	-0.000649	-1.028320	0.395020	-1.178223	0.539388	-0.138710	-0.284536	-0.780295
32339		5.118689	2.896185	7.830836	0.004692	-0.001519	-0.003267	-1.032959	0.388184	-1.174805	0.539378	-0.138694	-0.284546	-0.780300
32340		5.114321	2.864634	7.834019	0.002727	0.000725	-0.002888	-1.033203	0.399170	-1.182129	0.539353	-0.138675	-0.284535	-0.780325
32341		5.092789	2.879242	7.813287	0.003939	0.001220	-0.002876	-1.026855	0.390869	-1.180176	0.539357	-0.138648	-0.284524	-0.780331
32342		5.110004	2.886367	7.830447	0.005771	-0.000619	-0.004787	-1.020752	0.391846	-1.181641	0.539343	-0.138611	-0.284543	-0.780341
32343		5.126208	2.911919	7.829796	0.006088	-0.002686	-0.003800	-1.028809	0.401611	-1.174805	0.539344	-0.138584	-0.284571	-0.780335
32344		5.107334	2.872748	7.800956	0.006659	-0.003765	-0.003648	-1.026855	0.395508	-1.178223	0.539329	-0.138583	-0.284597	-0.780336
32345		5.116079	2.903724	7.843044	0.005398	-0.003004	-0.001585	-1.028564	0.384033	-1.173340	0.539331	-0.138577	-0.284614	-0.780329
32346		5.110812	2.890473	7.828405	0.004827	-0.001926	-0.001737	-1.035645	0.384277	-1.174316	0.539308	-0.138566	-0.284630	-0.780341
32347		5.104686	2.912980	7.839004	0.002537	-0.003322	-0.000228	-1.036377	0.391113	-1.181152	0.539282	-0.138581	-0.284635	-0.780355
32348		5.119667	2.903705	7.827411	0.004320	-0.003905	-0.000065	-1.027100	0.398193	-1.178223	0.539279	-0.138589	-0.284652	-0.780349
32349		5.103814	2.879692	7.827282	0.001008	-0.001751	-0.001227	-1.027588	0.391113	-1.173096	0.539282	-0.138599	-0.284633	-0.780352
32350		5.126594	2.882229	7.815907	-0.000254	-0.000989	0.000836	-1.029053	0.393555	-1.183594	0.539282	-0.138615	-0.284603	-0.780360
32351		5.113647	2.873689	7.844433	0.000888	-0.003145	0.001140	-1.029541	0.390137	-1.178467	0.539302	-0.138630	-0.284593	-0.780347
32352		5.102171	2.881673	7.840921	0.001713	-0.003234	0.000456	-1.027344	0.389160	-1.178467	0.539304	-0.138645	-0.284590	-0.780345
32353		5.101511	2.899982	7.822908	0.001593	-0.004629	0.002824	-1.033447	0.399170	-1.176514	0.539319	-0.138672	-0.284591	-0.780329
32354		5.125913	2.884268	7.828892	0.000754	-0.002740	-0.000391	-1.034668	0.391846	-1.182373	0.539315	-0.138698	-0.284572	-0.780334
32355		5.114341	2.892216	7.825456	0.001663	-0.001977	0.002530	-1.025635	0.395752	-1.178223	0.539336	-0.138709	-0.284561	-0.780322
32356		5.132951	2.862590	7.817387	0.001832	-0.001840	-0.001912	-1.033936	0.389648	-1.178711	0.539336	-0.138710	-0.284551	-0.780325
32357		5.132264	2.898946	7.842294	0.001966	-0.002245	-0.000380	-1.033936	0.387939	-1.177979	0.539329	-0.138716	-0.284547	-0.780330
32358		5.109626	2.879183	7.810377	0.004187	-0.003501	-0.001597	-1.038818	0.392334	-1.181641	0.539311	-0.138718	-0.284565	-0.780336
32359		5.127455	2.886050	7.827226	0.004187	-0.003502	-0.001597	-1.028320	0.395020	-1.179688	0.539298	-0.138722	-0.284581	-0.780338
32360		5.105113	2.884125	7.838104	0.001833	-0.001841	-0.001912	-1.031738	0.397461	-1.175781	0.539296	-0.138722	-0.284572	-0.780342
32361		5.119750	2.875054	7.826653	0.006040	-0.001433	-0.001728	-1.027588	0.392090	-1.177734	0.539292	-0.138710	-0.284584	-0.780343
32362		5.107910	2.883680	7.823140	0.003045	-0.001346	-0.001901	-1.025635	0.393799	-1.175781	0.539288	-0.138702	-0.284583	-0.780348
32363		5.122526	2.874773	7.811642	0.006477	-0.002107	-0.003108	-1.024170	0.395264	-1.179932	0.539278	-0.138683	-0.284606	-0.780350
32364		5.105522	2.887208	7.836703	0.003432	-0.000762	-0.001207	-1.020508	0.385254	-1.187012	0.539291	-0.138668	-0.284601	-0.780345
