// Start Time: Unknown
// Update Rate: 60.0Hz
// Filter Profile: human (46.1)
// Firmware Version: 4.6.0
PacketCounter	SampleTimeFine	Acc_X	Acc_Y	Acc_Z	Gyr_X	Gyr_Y	Gyr_Z	Mag_X	Mag_Y	Mag_Z	Quat_q0	Quat_q1	Quat_q2	Quat_q3
58937		8.278683	-4.773198	-2.140023	0.044068	0.025339	0.013824	-0.275391	0.644775	0.350342	0.447024	-0.751503	-0.211392	-0.436722
58938		8.290317	-4.755517	-1.875214	0.046385	0.014119	0.005149	-0.274170	0.644775	0.346924	0.447358	-0.751288	-0.211476	-0.436710
58939		8.364316	-4.664728	-1.822595	0.056703	-0.032396	-0.005839	-0.275391	0.637207	0.341797	0.447637	-0.751182	-0.211840	-0.436429
58940		8.404552	-4.745762	-1.974755	0.018146	-0.020963	-0.011309	-0.268311	0.641113	0.343750	0.447675	-0.751167	-0.212055	-0.436311
58941		8.437867	-4.798269	-2.164372	-0.003724	0.016659	0.009623	-0.276367	0.642090	0.352295	0.447719	-0.751131	-0.211920	-0.436394
58942		8.354766	-4.720514	-2.020320	-0.010852	0.035378	0.014142	-0.264648	0.647461	0.339600	0.447766	-0.751061	-0.211662	-0.436590
58943		8.331666	-4.711746	-1.921731	-0.023317	0.036573	0.005428	-0.260986	0.642090	0.346191	0.447708	-0.751014	-0.211411	-0.436854
58944		8.258027	-4.764448	-1.851491	-0.052432	0.035652	-0.000705	-0.270996	0.637939	0.338135	0.447446	-0.751061	-0.211095	-0.437194
58945		8.291213	-4.807547	-1.975242	-0.062515	0.022148	-0.002815	-0.268066	0.645752	0.347412	0.447099	-0.751181	-0.210804	-0.437483
58946		8.306581	-4.823833	-2.032700	-0.058540	0.021242	-0.002047	-0.267090	0.640869	0.343994	0.446786	-0.751284	-0.210522	-0.437762
58947		8.340533	-4.796247	-1.987261	-0.055243	0.030302	-0.005607	-0.259277	0.637695	0.346680	0.446501	-0.751332	-0.210238	-0.438106
58948		8.307232	-4.842824	-2.017766	-0.050862	0.040636	-0.017539	-0.266846	0.635986	0.349121	0.446224	-0.751298	-0.210004	-0.438558
58949		8.259342	-4.928751	-1.919805	-0.042933	0.017886	-0.018111	-0.268555	0.645264	0.351562	0.445963	-0.751312	-0.209883	-0.438858
58950		8.290602	-4.917356	-2.043977	-0.040191	0.002452	-0.009242	-0.264648	0.645996	0.358398	0.445743	-0.751379	-0.209760	-0.439025
58951		8.289633	-4.817201	-2.055364	-0.030008	0.014472	-0.008002	-0.274414	0.641357	0.348633	0.445624	-0.751366	-0.209614	-0.439240
58952		8.291781	-4.847339	-2.051897	-0.020925	0.018799	-0.014869	-0.271973	0.647705	0.356689	0.445549	-0.751289	-0.209521	-0.439491
58953		8.285534	-4.841617	-2.019853	-0.016140	0.008793	-0.016133	-0.264160	0.638184	0.354736	0.445491	-0.751225	-0.209490	-0.439674
58954		8.253915	-4.845281	-2.007054	0.009573	-0.001763	-0.016589	-0.277344	0.637939	0.350342	0.445567	-0.751111	-0.209586	-0.439745
58955		8.353068	-4.915005	-2.023381	0.004373	-0.009423	-0.019130	-0.267822	0.635742	0.337402	0.445610	-0.751027	-0.209697	-0.439793
58956		8.364881	-4.827271	-2.021998	0.003104	0.003244	-0.007998	-0.269043	0.641602	0.353516	0.445702	-0.750936	-0.209674	-0.439867
58957		8.321683	-4.699138	-1.990174	0.000727	0.000854	-0.005581	-0.272461	0.643555	0.353271	0.445802	-0.750847	-0.209648	-0.439928
58958		8.323782	-4.763170	-1.983557	0.002877	-0.000036	-0.011836	-0.265869	0.640381	0.350098	0.445900	-0.750731	-0.209678	-0.440014
58959		8.285066	-4.835292	-2.055102	0.020851	-0.022802	-0.016565	-0.262451	0.636230	0.350098	0.446030	-0.750638	-0.209887	-0.439941
58960		8.355970	-4.861795	-2.089866	0.014163	-0.008864	-0.015997	-0.271240	0.646240	0.352783	0.446125	-0.750535	-0.210009	-0.439961
58961		8.370958	-4.782337	-2.099437	0.020961	0.002902	-0.009683	-0.271484	0.644531	0.348389	0.446368	-0.750340	-0.210081	-0.440014
58962		8.386530	-4.608359	-2.008591	0.028310	-0.007393	-0.004422	-0.275879	0.643311	0.357666	0.446644	-0.750173	-0.210183	-0.439970
58963		8.367763	-4.671852	-1.918958	0.018449	-0.015281	-0.012920	-0.273926	0.640869	0.353516	0.446807	-0.750034	-0.210354	-0.439959
58964		8.327163	-4.742887	-2.046557	-0.000914	-0.024192	-0.016231	-0.277588	0.632080	0.351318	0.446797	-0.750003	-0.210505	-0.439950
58965		8.383825	-4.769427	-2.086312	-0.000053	-0.007558	-0.016158	-0.260742	0.643066	0.353271	0.446777	-0.749924	-0.210569	-0.440075
58966		8.349304	-4.720328	-2.072922	-0.005123	0.005411	-0.017826	-0.275391	0.637207	0.350830	0.446745	-0.749849	-0.210624	-0.440208
58967		8.346735	-4.735660	-1.990822	-0.008884	0.003358	-0.020432	-0.271973	0.640869	0.348633	0.446686	-0.749754	-0.210667	-0.440408
58968		8.348713	-4.810288	-1.976714	-0.004281	0.003632	-0.019242	-0.267822	0.632568	0.351318	0.446673	-0.749648	-0.210732	-0.440571
58969		8.308836	-4.881182	-2.102114	0.005843	-0.002482	-0.008718	-0.264648	0.638428	0.346924	0.446685	-0.749587	-0.210759	-0.440650
58970		8.320405	-4.807672	-2.038194	-0.006675	0.005170	-0.005737	-0.271729	0.639648	0.355469	0.446685	-0.749551	-0.210704	-0.440737
58971		8.367670	-4.702899	-2.002075	-0.010381	0.007912	-0.008359	-0.269287	0.642578	0.347412	0.446673	-0.749480	-0.210657	-0.440894
58972		8.311322	-4.748736	-2.005978	-0.011033	-0.006799	-0.015073	-0.273438	0.639404	0.342773	0.446631	-0.749454	-0.210712	-0.440952
58973		8.302389	-4.909695	-1.994640	-0.010565	-0.000471	-0.018189	-0.271973	0.641602	0.348145	0.446590	-0.749389	-0.210755	-0.441084
58974		8.374331	-4.954333	-2.088126	-0.001725	0.003348	-0.012721	-0.267822	0.637451	0.358643	0.446641	-0.749289	-0.210786	-0.441188
58975		8.294766	-4.765703	-2.104632	0.010122	0.003335	-0.009839	-0.266113	0.634521	0.348633	0.446709	-0.749198	-0.210819	-0.441258
58976		8.399896	-4.660241	-1.999187	0.026535	-0.013399	-0.001563	-0.268311	0.632324	0.354248	0.446873	-0.749142	-0.210900	-0.441149
58977		8.324414	-4.746603	-1.982975	0.018552	-0.012794	-0.002762	-0.264404	0.642822	0.349121	0.446949	-0.749109	-0.210959	-0.441099
58978		8.331469	-4.858854	-2.053489	0.001808	-0.020899	0.000137	-0.275635	0.633545	0.350342	0.447013	-0.749149	-0.211008	-0.440943
58979		8.345981	-4.832316	-2.121825	-0.005066	-0.002927	0.002229	-0.265869	0.640625	0.354004	0.447014	-0.749132	-0.210932	-0.441007
58980		8.342141	-4.747175	-2.123928	0.011043	0.000350	-0.001401	-0.266113	0.640381	0.357178	0.447133	-0.749074	-0.210935	-0.440983
58981		8.373739	-4.669963	-2.021336	0.012509	-0.010177	-0.008365	-0.269775	0.635986	0.350830	0.447195	-0.749050	-0.211028	-0.440918
58982		8.440908	-4.689882	-2.042805	0.027896	-0.004063	-0.006118	-0.264160	0.641357	0.351318	0.447360	-0.748932	-0.211135	-0.440899
58983		8.339152	-4.719706	-2.051325	0.009984	-0.008540	-0.004406	-0.265625	0.631836	0.350586	0.447443	-0.748913	-0.211194	-0.440819
58984		8.338591	-4.770254	-2.162589	-0.006972	-0.002668	0.001234	-0.265381	0.641602	0.355957	0.447365	-0.748972	-0.211095	-0.440845
58985		8.334072	-4.774893	-2.142889	-0.003336	0.009372	0.000266	-0.272217	0.637695	0.354492	0.447386	-0.748959	-0.211011	-0.440886
58986		8.368094	-4.795880	-2.029740	0.002968	0.004945	0.003707	-0.266113	0.637695	0.349609	0.447425	-0.748922	-0.210960	-0.440934
58987		8.320450	-4.848340	-2.008416	0.023997	-0.003250	-0.002099	-0.271240	0.650391	0.351318	0.447584	-0.748844	-0.211028	-0.440872
58988		8.281363	-4.814226	-2.040237	0.032845	-0.006798	0.002773	-0.267578	0.636230	0.345703	0.447921	-0.748689	-0.211185	-0.440719
58989		8.317225	-4.753199	-2.015043	0.034754	-0.007064	0.003773	-0.273682	0.647461	0.346680	0.448167	-0.748582	-0.211266	-0.440610
58990		8.384500	-4.743426	-1.983712	0.030786	-0.002523	0.003311	-0.269531	0.641846	0.349854	0.448497	-0.748401	-0.211401	-0.440517
58991		8.370184	-4.686721	-2.058762	0.015221	0.003920	-0.001903	-0.271973	0.646484	0.350342	0.448639	-0.748305	-0.211439	-0.440519
58992		8.373446	-4.739352	-2.058578	-0.006514	0.007350	-0.001603	-0.270264	0.635010	0.345703	0.448690	-0.748249	-0.211421	-0.440570
58993		8.376978	-4.747119	-2.069695	-0.002479	0.010131	0.004220	-0.267090	0.646240	0.346924	0.448695	-0.748218	-0.211305	-0.440674
58994		8.369563	-4.699574	-2.047539	-0.002429	0.014926	0.004197	-0.271729	0.636719	0.354492	0.448826	-0.748145	-0.211222	-0.440704
58995		8.370910	-4.726099	-1.920893	-0.006891	0.015450	-0.003317	-0.265625	0.640381	0.344482	0.448733	-0.748126	-0.211130	-0.440874
58996		8.361620	-4.772331	-2.053174	-0.015190	0.016759	-0.002045	-0.275146	0.638672	0.347900	0.448721	-0.748102	-0.210998	-0.440991
58997		8.300652	-4.843757	-2.094734	-0.016017	0.013698	0.004166	-0.268799	0.642578	0.350342	0.448665	-0.748072	-0.210873	-0.441158
58998		8.298238	-4.869129	-2.077775	-0.007072	0.023422	0.009296	-0.272217	0.641357	0.346924	0.448735	-0.748020	-0.210695	-0.441260
58999		8.310934	-4.739683	-2.030611	-0.012632	0.020164	0.004769	-0.270508	0.639404	0.351074	0.448758	-0.747961	-0.210553	-0.441406
59000		8.406661	-4.708122	-1.933366	0.010683	0.003602	0.001695	-0.270020	0.647949	0.350098	0.448829	-0.747915	-0.210548	-0.441413
59001		8.329886	-4.793268	-1.970851	0.003644	0.000983	-0.001851	-0.272949	0.636475	0.351807	0.448947	-0.747856	-0.210601	-0.441368
59002		8.285287	-4.839304	-2.025394	-0.022834	0.007003	0.003858	-0.268311	0.635742	0.354492	0.448772	-0.747929	-0.210440	-0.441498
59003		8.353050	-4.827481	-1.996597	-0.032037	0.013804	0.002065	-0.266357	0.640137	0.355713	0.448526	-0.748059	-0.210192	-0.441647
59004		8.312622	-4.830092	-1.951128	-0.021778	0.035427	0.003262	-0.265137	0.631836	0.352051	0.448437	-0.748070	-0.209903	-0.441855
59005		8.293950	-4.866676	-1.983730	-0.012478	0.024634	-0.001249	-0.265137	0.641846	0.358398	0.448314	-0.748097	-0.209670	-0.442045
59006		8.298499	-4.957863	-2.100479	0.013222	0.011844	0.003732	-0.270508	0.644287	0.351074	0.448406	-0.748087	-0.209576	-0.442015
59007		8.276339	-4.854100	-2.154612	0.039136	-0.012379	0.011363	-0.269287	0.646240	0.352539	0.448736	-0.747987	-0.209692	-0.441793
59008		8.298102	-4.841077	-2.067781	0.039191	-0.018639	0.010461	-0.265869	0.644531	0.352295	0.449053	-0.747925	-0.209832	-0.441509
59009		8.287517	-4.788322	-1.980518	0.024379	-0.019881	0.004149	-0.270264	0.641602	0.346680	0.449235	-0.747944	-0.209928	-0.441247
59010		8.338096	-4.803467	-1.938197	0.019986	0.007519	-0.001629	-0.266113	0.633545	0.350830	0.449423	-0.747810	-0.209975	-0.441260
59011		8.365335	-4.815050	-1.921483	0.004240	0.007219	0.004571	-0.271973	0.642334	0.352295	0.449403	-0.747841	-0.209846	-0.441288
59012		8.287485	-4.874766	-2.083149	0.019107	0.002197	0.009987	-0.271484	0.640869	0.354248	0.449565	-0.747777	-0.209843	-0.441233
59013		8.231217	-4.867141	-2.103385	0.026239	-0.006543	0.006649	-0.270752	0.648438	0.349365	0.449703	-0.747741	-0.209903	-0.441125
59014		8.273910	-4.834731	-2.040708	0.026176	-0.013870	0.001294	-0.272217	0.640625	0.341797	0.449944	-0.747663	-0.210058	-0.440938
59015		8.283069	-4.839371	-2.017499	0.031717	-0.019373	-0.005224	-0.274170	0.648926	0.354492	0.450163	-0.747537	-0.210293	-0.440815
59016		8.345341	-4.793610	-1.849975	0.023193	-0.009162	-0.012007	-0.266846	0.639648	0.341797	0.450280	-0.747450	-0.210525	-0.440733
59017		8.325534	-4.783823	-1.950020	0.031434	-0.006776	-0.017751	-0.268311	0.641357	0.337402	0.450467	-0.747303	-0.210734	-0.440691
59018		8.353224	-4.780277	-1.997301	0.035300	-0.024605	-0.017501	-0.270996	0.644531	0.347412	0.450708	-0.747156	-0.211054	-0.440541
59019		8.365794	-4.809448	-2.099582	0.039637	-0.014028	-0.018663	-0.269531	0.645752	0.353760	0.450909	-0.747005	-0.211372	-0.440440
59020		8.307569	-4.829252	-1.975293	0.016414	0.001115	-0.016557	-0.269775	0.649414	0.354492	0.450945	-0.746951	-0.211515	-0.440425
59021		8.326089	-4.821497	-2.044902	0.008746	0.003581	-0.014867	-0.267822	0.650391	0.349854	0.450983	-0.746909	-0.211630	-0.440402
59022		8.342568	-4.800287	-1.926798	0.008333	-0.001624	-0.012042	-0.269775	0.648926	0.351807	0.451084	-0.746867	-0.211739	-0.440317
59023		8.293764	-4.850616	-1.961300	0.019681	-0.016447	-0.006253	-0.261719	0.644287	0.340820	0.451208	-0.746855	-0.211920	-0.440125
59024		8.312757	-4.864969	-2.037248	0.023188	-0.019950	-0.002060	-0.264404	0.643799	0.354004	0.451431	-0.746841	-0.212013	-0.439874
59025		8.363573	-4.879295	-1.995595	0.028409	-0.006353	-0.004681	-0.270996	0.646484	0.351074	0.451559	-0.746840	-0.212116	-0.439695
59026		8.353804	-4.798033	-2.032138	0.016388	0.001397	-0.005776	-0.260742	0.641846	0.348145	0.451658	-0.746774	-0.212217	-0.439655
59027		8.298027	-4.833908	-2.041152	0.006991	0.005193	0.004138	-0.278320	0.647949	0.352051	0.451740	-0.746820	-0.212098	-0.439552
59028		8.305497	-4.831478	-1.950709	0.014841	-0.009821	0.005464	-0.267578	0.648193	0.347656	0.451832	-0.746772	-0.212240	-0.439469
59029		8.292131	-4.833805	-1.900455	0.006061	-0.017353	0.004501	-0.275146	0.635010	0.341309	0.451926	-0.746826	-0.212285	-0.439259
59030		8.294904	-4.804164	-2.047268	0.008335	-0.020893	0.002431	-0.273193	0.646240	0.341064	0.451882	-0.746835	-0.212362	-0.439252
59031		8.359622	-4.817665	-2.003592	0.010322	-0.006744	-0.001458	-0.275391	0.646729	0.346924	0.452016	-0.746739	-0.212457	-0.439231
59032		8.375804	-4.824374	-2.065003	0.019610	0.015579	-0.003409	-0.266113	0.640625	0.344482	0.452182	-0.746553	-0.212541	-0.439336
59033		8.318608	-4.730630	-2.031972	0.021321	0.003503	-0.001688	-0.274414	0.646240	0.349609	0.452314	-0.746487	-0.212553	-0.439308
59034		8.359426	-4.823876	-1.868494	0.021594	-0.013059	-0.004951	-0.263184	0.642090	0.347168	0.452398	-0.746433	-0.212752	-0.439216
59035		8.257653	-4.860375	-1.998997	0.007180	-0.006534	-0.008717	-0.271729	0.649414	0.332764	0.452395	-0.746482	-0.212776	-0.439123
59036		8.314533	-4.785309	-2.122362	0.002508	-0.010475	-0.014958	-0.267334	0.639893	0.355225	0.452536	-0.746344	-0.212940	-0.439133
59037		8.411172	-4.706046	-2.039522	0.002106	-0.005746	-0.006201	-0.268555	0.641113	0.347656	0.452390	-0.746463	-0.212958	-0.439074
59038		8.416194	-4.714628	-1.996158	0.019018	0.001119	0.005510	-0.269287	0.636963	0.347412	0.452488	-0.746436	-0.212953	-0.439019
59039		8.357272	-4.776380	-1.989672	0.001506	0.004473	0.009757	-0.261475	0.646240	0.342041	0.452442	-0.746483	-0.212833	-0.439046
59040		8.273744	-4.802084	-2.014140	-0.017779	0.012547	0.006950	-0.262451	0.646973	0.344727	0.452477	-0.746539	-0.212600	-0.439028
59041		8.316620	-4.819680	-2.062825	-0.034237	0.014866	0.008236	-0.272461	0.642822	0.351807	0.452397	-0.746661	-0.212303	-0.439046
59042		8.307139	-4.873241	-2.012862	-0.037689	0.015778	0.003446	-0.270996	0.638916	0.347900	0.452129	-0.746783	-0.212103	-0.439211
59043		8.321815	-4.891888	-2.068748	-0.014917	0.009023	0.005634	-0.260742	0.640869	0.352295	0.452001	-0.746839	-0.211965	-0.439314
59044		8.302049	-4.885510	-2.114397	0.013420	0.001850	0.012060	-0.270752	0.633545	0.347168	0.452073	-0.746930	-0.211820	-0.439155
59045		8.284747	-4.862080	-1.989638	0.045817	0.000833	0.013806	-0.260010	0.644287	0.347900	0.452283	-0.746817	-0.211868	-0.439109
59046		8.279991	-4.779499	-1.990163	0.041466	-0.014874	0.004260	-0.259277	0.638428	0.344482	0.452549	-0.746808	-0.211939	-0.438815
59047		8.282175	-4.775660	-2.064902	0.038751	-0.035270	-0.007773	-0.264648	0.641846	0.348877	0.452678	-0.746864	-0.212131	-0.438495
59048		8.323139	-4.850498	-2.095570	0.038428	-0.029765	-0.010113	-0.263672	0.650146	0.337891	0.452779	-0.746881	-0.212383	-0.438240
59049		8.367484	-4.790967	-2.104026	0.028728	-0.003440	-0.006869	-0.267578	0.639160	0.345459	0.453092	-0.746726	-0.212509	-0.438118
59050		8.360142	-4.723058	-2.022405	0.024333	0.010667	-0.003430	-0.265381	0.640869	0.344971	0.453187	-0.746624	-0.212548	-0.438175
59051		8.352660	-4.692444	-1.808086	0.004106	0.007266	-0.005018	-0.269775	0.631104	0.343994	0.453171	-0.746617	-0.212516	-0.438219
59052		8.271285	-4.775278	-2.010680	-0.035294	-0.004256	-0.011429	-0.262695	0.647705	0.349854	0.452754	-0.746782	-0.212450	-0.438402
59053		8.267464	-4.919802	-2.027343	-0.031755	-0.016257	-0.002679	-0.266113	0.647461	0.347656	0.452517	-0.747036	-0.212330	-0.438271
59054		8.322207	-5.018043	-1.985348	-0.025038	0.012873	0.005244	-0.261230	0.646729	0.346680	0.452426	-0.747120	-0.212127	-0.438320
59055		8.235697	-4.957598	-2.011424	-0.010989	0.038787	0.003500	-0.266113	0.639404	0.349854	0.452480	-0.747082	-0.211830	-0.438472
59056		8.260766	-4.844093	-1.823447	0.004267	0.020532	-0.000051	-0.273438	0.642334	0.343018	0.452458	-0.747063	-0.211717	-0.438583
59057		8.325262	-4.773869	-1.976661	0.007889	-0.012785	-0.004064	-0.248779	0.636963	0.339355	0.452483	-0.747015	-0.211880	-0.438559
59058		8.309578	-4.773381	-2.036047	-0.011983	-0.001053	-0.007350	-0.262939	0.634521	0.343994	0.452430	-0.747171	-0.211648	-0.438460
59059		8.335185	-4.813754	-2.128371	-0.038582	0.013591	-0.010995	-0.268555	0.649902	0.349365	0.452112	-0.747304	-0.211444	-0.438660
59060		8.277065	-4.876854	-1.994023	-0.022074	0.019738	-0.012036	-0.267822	0.642822	0.342041	0.452001	-0.747303	-0.211360	-0.438817
59061		8.335277	-4.864751	-1.857861	-0.014965	0.012410	-0.009650	-0.264893	0.640869	0.341309	0.451951	-0.747265	-0.211321	-0.438952
59062		8.264904	-4.938807	-2.045467	-0.022434	-0.006147	-0.000409	-0.272705	0.643555	0.343994	0.451852	-0.747362	-0.211230	-0.438933
59063		8.262614	-5.047572	-2.138625	-0.022105	0.001938	0.008139	-0.253662	0.638672	0.340820	0.451784	-0.747396	-0.211146	-0.438985
59064		8.266411	-5.007005	-2.290804	0.007618	0.011756	0.026087	-0.260742	0.645996	0.339844	0.452016	-0.747445	-0.210802	-0.438827
59065		8.343539	-4.836640	-1.913212	0.029887	0.000135	0.037122	-0.260742	0.639404	0.349121	0.452478	-0.747385	-0.210624	-0.438541
59066		8.341649	-4.745285	-1.812624	0.032674	-0.009603	0.025382	-0.256836	0.646973	0.347168	0.452698	-0.747438	-0.210515	-0.438275
59067		8.302661	-4.721176	-1.912775	-0.008318	0.000525	0.017132	-0.264893	0.643799	0.353516	0.452760	-0.747577	-0.210253	-0.438099
59068		8.339174	-4.756677	-1.933866	-0.053801	0.033577	0.013811	-0.269531	0.652832	0.344482	0.452456	-0.747764	-0.209792	-0.438314
59069		8.359544	-4.783230	-1.945055	-0.070060	0.057308	0.004759	-0.271973	0.641846	0.348389	0.452257	-0.747759	-0.209338	-0.438745
59070		8.339083	-4.700545	-1.929425	-0.081179	0.062924	-0.008518	-0.268555	0.643066	0.352539	0.451796	-0.747800	-0.208903	-0.439358
59071		8.349767	-4.848896	-1.808348	-0.091673	0.060321	-0.000965	-0.268066	0.640625	0.342285	0.451278	-0.747956	-0.208340	-0.439891
59072		8.267259	-4.967591	-1.933720	-0.130552	0.061714	0.021425	-0.262939	0.652588	0.350586	0.450711	-0.748206	-0.207511	-0.440439
59073		8.292246	-5.087278	-2.011403	-0.129214	0.084984	0.044748	-0.268555	0.645020	0.352051	0.450339	-0.748465	-0.206398	-0.440902
59074		8.017646	-5.159708	-2.116277	-0.117509	0.060798	0.057347	-0.267090	0.645264	0.351318	0.449951	-0.748776	-0.205385	-0.441242
59075		8.050589	-5.205736	-1.957068	-0.137570	0.049753	0.064678	-0.263672	0.639160	0.354004	0.449475	-0.749208	-0.204284	-0.441506
59076		8.127957	-5.175652	-1.691478	-0.109502	0.055126	0.058695	-0.266602	0.635742	0.352295	0.449096	-0.749554	-0.203256	-0.441778
59077		8.110191	-5.124231	-2.001290	-0.106247	0.051969	0.054599	-0.267822	0.638672	0.357178	0.448707	-0.749857	-0.202305	-0.442097
59078		8.245043	-5.020860	-2.086218	-0.135441	0.059878	0.055948	-0.266113	0.636963	0.350830	0.448144	-0.750251	-0.201223	-0.442492
59079		8.216115	-4.998495	-2.165429	-0.152033	0.084592	0.061665	-0.258789	0.636963	0.364014	0.447611	-0.750578	-0.199950	-0.443056
59080		8.223155	-5.005953	-1.912483	-0.143116	0.074521	0.070449	-0.269043	0.635010	0.360352	0.447045	-0.751066	-0.198592	-0.443409
59081		8.209851	-5.006978	-1.938784	-0.133079	0.048524	0.073681	-0.259033	0.637695	0.360107	0.446524	-0.751508	-0.197464	-0.443690
59082		8.085933	-5.003228	-2.125610	-0.135744	0.044165	0.073193	-0.260254	0.645020	0.362549	0.446047	-0.752015	-0.196259	-0.443843
59083		8.242747	-4.856958	-2.072673	-0.144105	0.049242	0.076083	-0.263672	0.638672	0.363281	0.445599	-0.752512	-0.195020	-0.443999
59084		8.364331	-4.744654	-1.937251	-0.168561	0.064561	0.079395	-0.260986	0.637939	0.368652	0.444970	-0.753032	-0.193642	-0.444350
59085		8.295770	-4.781515	-1.922950	-0.222912	0.090656	0.080466	-0.255371	0.642090	0.363525	0.444012	-0.753700	-0.191933	-0.444918
59086		8.181235	-4.903157	-2.012896	-0.249982	0.080527	0.074867	-0.257568	0.633789	0.369385	0.442974	-0.754457	-0.190165	-0.445428
59087		8.172548	-5.094089	-2.208419	-0.249638	0.084798	0.064290	-0.261230	0.630615	0.374023	0.441793	-0.755207	-0.188456	-0.446056
59088		8.217250	-5.168913	-2.157637	-0.201908	0.088596	0.058254	-0.255371	0.642578	0.377441	0.440844	-0.755753	-0.186979	-0.446691
59089		8.212173	-5.107764	-1.990037	-0.156160	0.066525	0.061630	-0.255371	0.629639	0.368164	0.440288	-0.756226	-0.185704	-0.446971
59090		8.219764	-5.085154	-2.096000	-0.117710	0.022374	0.069219	-0.257324	0.634277	0.382568	0.439902	-0.756691	-0.184664	-0.446995
59091		8.105490	-5.047632	-2.266148	-0.102353	-0.013892	0.068807	-0.257812	0.629150	0.367432	0.439490	-0.757293	-0.183859	-0.446712
59092		8.105174	-4.989103	-2.189460	-0.087919	-0.013080	0.062451	-0.256836	0.629395	0.375488	0.439227	-0.757723	-0.183136	-0.446539
59093		8.232117	-4.990960	-2.127701	-0.050602	-0.024633	0.059099	-0.255615	0.639404	0.375977	0.439116	-0.758103	-0.182620	-0.446214
59094		8.328763	-4.905441	-2.124679	-0.030399	-0.020038	0.060625	-0.250244	0.638184	0.376221	0.439244	-0.758366	-0.182170	-0.445825
59095		8.255129	-4.880362	-2.273562	-0.037571	-0.030984	0.056467	-0.253174	0.634277	0.378418	0.439292	-0.758720	-0.181722	-0.445359
59096		8.240583	-4.950315	-2.246427	-0.040212	-0.036616	0.054896	-0.255127	0.634277	0.377686	0.439246	-0.759101	-0.181321	-0.444917
59097		8.198716	-4.906246	-2.295133	-0.048480	-0.045688	0.064282	-0.247314	0.632324	0.377197	0.439169	-0.759535	-0.180884	-0.444430
59098		8.182995	-4.866299	-2.159857	-0.043510	-0.036050	0.059712	-0.242188	0.643066	0.381592	0.439128	-0.759948	-0.180402	-0.443961
59099		8.205071	-5.007523	-2.098665	-0.025588	-0.034027	0.057521	-0.248535	0.629395	0.386230	0.439279	-0.760300	-0.179996	-0.443372
59100		8.244490	-5.156305	-2.045162	-0.018377	-0.036908	0.058563	-0.243652	0.645020	0.381104	0.439302	-0.760658	-0.179663	-0.442871
59101		8.136705	-5.034127	-2.242482	-0.024718	-0.043376	0.054021	-0.243164	0.635986	0.380127	0.439441	-0.761002	-0.179339	-0.442273
59102		8.189336	-4.810673	-2.246336	-0.000196	-0.056403	0.039078	-0.239502	0.632324	0.373535	0.439584	-0.761297	-0.179232	-0.441667
59103		8.352723	-4.713631	-2.144773	0.016124	-0.038174	0.032390	-0.241455	0.626221	0.382324	0.439841	-0.761443	-0.179106	-0.441208
59104		8.509464	-4.658216	-2.122499	-0.022380	-0.009374	0.019104	-0.245850	0.634033	0.369873	0.439737	-0.761655	-0.178868	-0.441044
59105		8.431192	-4.631714	-2.405635	-0.062959	0.008779	0.003626	-0.243652	0.635498	0.382568	0.439466	-0.761806	-0.178501	-0.441201
59106		8.320447	-4.755301	-2.330706	-0.065347	0.011736	-0.008258	-0.250000	0.633545	0.382324	0.439096	-0.762012	-0.178238	-0.441321
59107		8.213336	-4.836213	-2.209506	-0.068277	0.016984	-0.015411	-0.242432	0.638916	0.381348	0.438658	-0.762163	-0.178021	-0.441583
59108		8.044724	-4.999844	-2.195463	-0.044647	0.009410	-0.022480	-0.247070	0.625000	0.380371	0.438416	-0.762263	-0.177926	-0.441688
59109		8.002824	-5.191747	-2.200628	-0.026998	-0.003103	-0.026350	-0.250000	0.632080	0.389160	0.438127	-0.762345	-0.177956	-0.441822
59110		7.990149	-5.232315	-2.321342	0.005490	-0.037523	-0.025276	-0.241699	0.634277	0.380615	0.438011	-0.762445	-0.178292	-0.441628
59111		8.033475	-5.067033	-2.321890	0.039904	-0.060079	-0.010178	-0.237793	0.632812	0.386719	0.438226	-0.762520	-0.178665	-0.441135
59112		8.094038	-4.952066	-2.220285	0.035968	-0.053246	0.001022	-0.247803	0.633057	0.385986	0.438432	-0.762656	-0.178938	-0.440585
59113		8.188835	-4.836126	-2.074507	0.034161	-0.033036	0.004289	-0.254639	0.621582	0.385010	0.438636	-0.762669	-0.179156	-0.440270
59114		8.315999	-4.689236	-1.987906	0.008204	-0.006032	-0.007480	-0.239014	0.632568	0.392578	0.438553	-0.762650	-0.179255	-0.440346
59115		8.323738	-4.757658	-2.239684	-0.015773	0.023158	-0.023610	-0.251953	0.627930	0.385010	0.438409	-0.762678	-0.179250	-0.440442
59116		8.182217	-5.068256	-2.546110	-0.017328	0.017784	-0.028482	-0.241211	0.626953	0.373047	0.438189	-0.762629	-0.179305	-0.440723
59117		7.884615	-5.148127	-2.439181	-0.004560	-0.018062	-0.041758	-0.244141	0.639160	0.385986	0.438036	-0.762646	-0.179523	-0.440757
59118		7.983959	-5.329475	-2.517415	0.048203	-0.071162	-0.065569	-0.245117	0.627686	0.387207	0.438081	-0.762650	-0.180371	-0.440360
59119		8.005765	-5.191753	-2.366631	0.132675	-0.105432	-0.079385	-0.242432	0.636719	0.387207	0.438455	-0.762481	-0.181725	-0.439722
59120		7.993670	-4.929316	-2.087678	0.152114	-0.114104	-0.090110	-0.247314	0.635986	0.383301	0.438974	-0.762253	-0.183261	-0.438962
59121		8.100296	-5.136358	-2.303818	0.134299	-0.111260	-0.097186	-0.247559	0.634521	0.385498	0.439344	-0.762030	-0.184770	-0.438346
59122		8.120058	-5.117147	-2.431912	0.160430	-0.119613	-0.080830	-0.250488	0.644043	0.381104	0.439896	-0.761785	-0.186312	-0.437565
59123		8.221929	-4.874494	-2.253611	0.188084	-0.142529	-0.057716	-0.244873	0.638916	0.381592	0.440742	-0.761505	-0.187902	-0.436519
59124		8.335072	-4.920887	-2.163646	0.188953	-0.114526	-0.047524	-0.249268	0.635010	0.374023	0.441637	-0.761182	-0.189311	-0.435570
59125		8.305392	-4.576523	-2.008777	0.127285	-0.054989	-0.034106	-0.238770	0.641113	0.374023	0.442248	-0.760851	-0.190158	-0.435158
59126		8.317892	-4.293131	-2.015855	0.054172	-0.026131	-0.032790	-0.251465	0.635498	0.372803	0.442521	-0.760728	-0.190616	-0.434895
59127		8.458569	-4.598770	-2.053660	0.022350	0.025206	-0.055377	-0.245361	0.638428	0.375000	0.442501	-0.760450	-0.190932	-0.435263
59128		8.328464	-4.605442	-2.282733	0.009353	0.059065	-0.091166	-0.250732	0.649170	0.372559	0.442361	-0.760075	-0.191307	-0.435895
59129		8.277821	-4.708757	-2.375498	0.002005	0.078426	-0.136520	-0.252197	0.639160	0.371338	0.442113	-0.759531	-0.191894	-0.436836
59130		8.249838	-5.011237	-2.464022	0.022800	0.051973	-0.155105	-0.243164	0.635498	0.380859	0.441818	-0.758996	-0.192746	-0.437688
59131		8.121538	-5.219545	-2.586958	0.069443	-0.007724	-0.147866	-0.251221	0.629150	0.378662	0.441734	-0.758615	-0.193974	-0.437892
59132		7.978473	-5.311361	-2.561289	0.125375	-0.066932	-0.122633	-0.260010	0.645264	0.366943	0.441932	-0.758260	-0.195455	-0.437647
59133		8.048469	-5.172977	-2.410107	0.167657	-0.103577	-0.097796	-0.267578	0.636475	0.373535	0.442545	-0.757811	-0.197046	-0.437092
59134		8.218099	-4.912962	-2.201783	0.172432	-0.088925	-0.079549	-0.257568	0.634521	0.375977	0.443158	-0.757337	-0.198529	-0.436621
59135		8.396238	-4.640106	-1.911621	0.152816	-0.077609	-0.066874	-0.260254	0.641113	0.363770	0.443720	-0.756981	-0.199818	-0.436080
59136		8.415606	-4.613053	-2.042362	0.128597	-0.046849	-0.058797	-0.259521	0.638916	0.369141	0.444274	-0.756548	-0.200803	-0.435813
59137		8.299214	-4.571260	-2.111956	0.098383	-0.029523	-0.058605	-0.267822	0.631836	0.369629	0.444632	-0.756199	-0.201646	-0.435665
59138		8.234763	-4.545955	-2.262326	0.050816	-0.003389	-0.075918	-0.260986	0.636963	0.364258	0.444583	-0.755888	-0.202332	-0.435938
59139		8.333602	-4.624903	-2.249348	0.064860	-0.007137	-0.101536	-0.267334	0.633301	0.352783	0.444604	-0.755499	-0.203218	-0.436179
59140		8.556257	-4.799572	-2.034705	0.112828	-0.018638	-0.122739	-0.262207	0.636475	0.365723	0.444822	-0.754878	-0.204406	-0.436475
59141		8.443073	-4.688256	-2.229144	0.136700	-0.038820	-0.130327	-0.260010	0.632812	0.367188	0.445123	-0.754305	-0.205864	-0.436474
59142		8.372064	-4.545684	-2.363195	0.129094	-0.048634	-0.118370	-0.266602	0.641846	0.359619	0.445372	-0.753850	-0.207245	-0.436353
59143		8.358832	-4.534269	-2.277502	0.087275	-0.030560	-0.102321	-0.274170	0.639160	0.356934	0.445517	-0.753439	-0.208322	-0.436400
59144		8.403478	-4.533334	-2.115884	0.051718	-0.007376	-0.098453	-0.267334	0.635742	0.353271	0.445458	-0.753051	-0.209163	-0.436728
59145		8.398630	-4.779905	-2.059856	0.022539	0.019635	-0.096907	-0.257568	0.643311	0.358398	0.445286	-0.752703	-0.209754	-0.437220
59146		8.249353	-4.929220	-2.175792	0.009739	0.020443	-0.091983	-0.279297	0.633789	0.363525	0.445121	-0.752464	-0.210274	-0.437550
59147		8.206336	-4.895943	-2.342194	0.028024	0.009849	-0.086656	-0.271729	0.633789	0.354492	0.444912	-0.752154	-0.210905	-0.437991
59148		8.304936	-4.805461	-2.362798	0.032947	0.014515	-0.077181	-0.270264	0.639404	0.364746	0.444849	-0.751826	-0.211437	-0.438363
59149		8.543895	-4.620054	-2.118391	0.053821	0.013337	-0.065363	-0.268799	0.629150	0.356934	0.444954	-0.751491	-0.212007	-0.438555
59150		8.713585	-4.472389	-2.083342	0.029678	0.027968	-0.040742	-0.276611	0.634277	0.359375	0.444993	-0.751234	-0.212231	-0.438847
59151		8.475358	-4.393391	-2.156845	-0.038736	0.065969	-0.025069	-0.269043	0.640869	0.360107	0.444728	-0.751089	-0.212007	-0.439472
59152		8.027089	-4.316634	-2.237306	-0.084742	0.061729	-0.025742	-0.271973	0.634766	0.356689	0.444236	-0.751153	-0.211631	-0.440041
59153		8.190036	-4.523964	-2.144553	-0.057972	0.039489	-0.049200	-0.276367	0.626709	0.348633	0.443760	-0.751140	-0.211570	-0.440572
59154		8.483687	-4.896088	-2.282045	-0.012493	0.047896	-0.075481	-0.270996	0.630859	0.361816	0.443469	-0.750841	-0.211794	-0.441267
59155		8.433917	-4.932767	-2.333269	0.033456	0.038895	-0.084560	-0.271484	0.636963	0.359619	0.443395	-0.750471	-0.212277	-0.441738
59156		8.372695	-4.639481	-2.434912	0.097705	-0.021433	-0.098419	-0.277588	0.636230	0.342041	0.443620	-0.750042	-0.213322	-0.441737
59157		8.393908	-4.671417	-2.671115	0.120781	-0.094329	-0.102558	-0.272705	0.638916	0.357910	0.443920	-0.749685	-0.214765	-0.441343
59158		8.440132	-4.757487	-2.515330	0.133979	-0.123112	-0.093336	-0.275879	0.630615	0.354004	0.444216	-0.749502	-0.216294	-0.440608
59159		8.480815	-4.773505	-2.299093	0.160707	-0.118009	-0.079104	-0.279053	0.635742	0.350098	0.444687	-0.749215	-0.217796	-0.439881
59160		8.401073	-4.645467	-1.937847	0.175919	-0.076411	-0.055801	-0.285156	0.638184	0.346191	0.445452	-0.748724	-0.219077	-0.439307
59161		8.284860	-4.517280	-1.798752	0.164665	-0.060843	-0.047479	-0.277344	0.639160	0.352295	0.446212	-0.748189	-0.220230	-0.438869
59162		8.223514	-4.607002	-2.005230	0.117355	-0.041304	-0.049705	-0.282959	0.641602	0.343018	0.446684	-0.747826	-0.221123	-0.438560
59163		8.393765	-4.641246	-2.128586	0.073585	-0.046121	-0.036263	-0.281006	0.635254	0.355225	0.446971	-0.747599	-0.221818	-0.438303
59164		8.549910	-4.602085	-2.162006	0.047851	-0.019765	-0.006466	-0.269287	0.635986	0.347900	0.447135	-0.747514	-0.222094	-0.438141
59165		8.408510	-4.666355	-2.053016	0.001140	0.018756	0.021856	-0.281006	0.636475	0.351074	0.447268	-0.747526	-0.221861	-0.438103
59166		8.347369	-4.830302	-1.926490	-0.020852	0.047062	0.016909	-0.284424	0.634277	0.351318	0.447242	-0.747474	-0.221500	-0.438400
59167		8.130739	-5.052264	-2.075445	0.016809	0.023482	0.000074	-0.281738	0.640869	0.351807	0.447320	-0.747329	-0.221473	-0.438583
59168		8.035207	-5.242202	-2.300183	0.109633	-0.045301	-0.025706	-0.277832	0.630615	0.350342	0.447805	-0.747043	-0.222209	-0.438202
59169		8.175783	-5.124383	-2.423323	0.214172	-0.111246	-0.046712	-0.279053	0.644043	0.348633	0.448683	-0.746603	-0.223660	-0.437314
59170		8.415082	-4.793890	-2.281054	0.303015	-0.154585	-0.045761	-0.280518	0.638916	0.344482	0.450114	-0.745956	-0.225628	-0.435934
59171		8.387974	-4.584759	-1.920013	0.329436	-0.142412	-0.048767	-0.279541	0.637207	0.341553	0.451680	-0.745151	-0.227658	-0.434635
59172		8.336159	-4.575827	-1.953515	0.291552	-0.093606	-0.057941	-0.278809	0.636719	0.337891	0.453047	-0.744296	-0.229412	-0.433753
59173		8.398649	-4.645645	-1.991747	0.262484	-0.111328	-0.050770	-0.283203	0.639893	0.337402	0.454223	-0.743626	-0.231078	-0.432788
59174		8.425942	-4.848109	-2.099383	0.264535	-0.129466	-0.025237	-0.263184	0.656250	0.341064	0.455454	-0.743045	-0.232678	-0.431632
59175		8.317601	-4.833283	-2.179363	0.215069	-0.130029	0.001573	-0.269775	0.642334	0.334229	0.456568	-0.742793	-0.233858	-0.430250
59176		8.369113	-4.708663	-2.293204	0.214292	-0.135149	0.009874	-0.274414	0.644775	0.330322	0.457625	-0.742539	-0.235028	-0.428925
59177		8.261232	-4.742903	-2.235060	0.229099	-0.164362	0.016635	-0.269531	0.648926	0.329102	0.458751	-0.742304	-0.236357	-0.427397
59178		8.276956	-4.905276	-2.148628	0.271495	-0.234236	0.027151	-0.279785	0.656006	0.324951	0.460056	-0.742185	-0.238021	-0.425271
59179		8.228120	-5.114445	-2.032291	0.282311	-0.264971	0.035356	-0.265137	0.651611	0.331299	0.461415	-0.742070	-0.239866	-0.422957
59180		8.284959	-5.077833	-2.118621	0.311735	-0.283873	0.047459	-0.275635	0.658447	0.320801	0.462886	-0.742037	-0.241698	-0.420357
59181		8.183403	-5.061313	-2.087236	0.300742	-0.277262	0.063223	-0.262451	0.652832	0.327637	0.464418	-0.741935	-0.243476	-0.417813
59182		8.321346	-5.000575	-2.153165	0.306418	-0.245614	0.066597	-0.265869	0.658447	0.323730	0.465968	-0.741811	-0.245017	-0.415400
59183		8.282748	-4.543096	-2.277057	0.313665	-0.224963	0.063365	-0.263672	0.660645	0.313965	0.467613	-0.741533	-0.246564	-0.413127
59184		8.494879	-4.049993	-1.973159	0.281669	-0.183397	0.031905	-0.257324	0.659180	0.310791	0.469093	-0.741122	-0.248067	-0.411282
59185		8.532311	-3.931344	-1.880784	0.139652	-0.146089	0.008822	-0.260986	0.660645	0.315674	0.469693	-0.741107	-0.249049	-0.410030
59186		8.521477	-4.290888	-1.835690	-0.019797	-0.130324	0.010439	-0.259766	0.666016	0.315918	0.469290	-0.741678	-0.249416	-0.409234
59187		8.435393	-5.005452	-2.102042	-0.017965	-0.075995	0.022733	-0.251221	0.657471	0.314209	0.469088	-0.742070	-0.249506	-0.408699
59188		8.265377	-5.255997	-2.227533	0.065722	-0.075414	0.028961	-0.249023	0.657227	0.326172	0.469415	-0.742179	-0.249790	-0.407951
59189		8.330598	-5.080283	-2.052402	0.155867	-0.092935	0.043170	-0.255859	0.661621	0.315674	0.470206	-0.742107	-0.250277	-0.406872
59190		8.483221	-4.938334	-2.205279	0.154485	-0.087391	0.063802	-0.253662	0.671875	0.314209	0.471154	-0.741964	-0.250726	-0.405759
59191		8.178518	-4.828210	-2.462802	0.155126	-0.058242	0.066426	-0.257568	0.677246	0.322754	0.472220	-0.741715	-0.251038	-0.404780
59192		8.098978	-4.694843	-2.194058	0.185656	-0.074867	0.039337	-0.253418	0.662354	0.305908	0.473276	-0.741377	-0.251669	-0.403772
59193		8.496530	-4.690900	-2.198726	0.185972	-0.046655	0.038729	-0.250244	0.667480	0.309326	0.474451	-0.740880	-0.252263	-0.402935
59194		8.492820	-4.636077	-2.148518	0.113747	0.005352	0.079952	-0.251465	0.665771	0.312012	0.475402	-0.740618	-0.252096	-0.402399
59195		8.313811	-4.375873	-2.053485	0.053571	0.044393	0.084148	-0.250488	0.669189	0.313232	0.476031	-0.740490	-0.251542	-0.402239
59196		8.345243	-4.378341	-2.176793	-0.028008	0.050167	0.074264	-0.250244	0.663818	0.301270	0.476131	-0.740653	-0.250736	-0.402323
59197		8.288535	-4.364879	-2.221601	-0.116369	0.066953	0.068871	-0.253662	0.674805	0.311768	0.475783	-0.741025	-0.249696	-0.402695
59198		8.236007	-4.635272	-2.309209	-0.160570	0.075039	0.042565	-0.246582	0.653076	0.311768	0.475049	-0.741521	-0.248598	-0.403329
59199		8.147105	-4.990586	-2.301459	-0.159396	0.077499	0.017120	-0.253174	0.666016	0.314209	0.474173	-0.741994	-0.247605	-0.404100
59200		8.057385	-5.099209	-2.241801	-0.135690	0.026173	0.007979	-0.248779	0.661133	0.318115	0.473350	-0.742487	-0.247001	-0.404529
59201		7.872559	-5.299930	-2.288112	-0.089855	-0.013098	0.001717	-0.240967	0.667969	0.313477	0.472672	-0.742960	-0.246678	-0.404651
59202		7.958881	-5.434596	-2.303221	-0.014736	-0.050372	-0.003047	-0.251465	0.670654	0.315186	0.472454	-0.743243	-0.246738	-0.404347
59203		8.030623	-5.403360	-2.410146	0.001533	-0.039319	0.011300	-0.245117	0.658203	0.317383	0.472401	-0.743409	-0.246830	-0.404048
59204		8.135292	-5.305164	-2.127752	0.043938	-0.038846	0.012546	-0.252930	0.663086	0.309326	0.472553	-0.743463	-0.246983	-0.403678
59205		8.288372	-5.650635	-2.617699	0.075964	-0.022780	0.033586	-0.246826	0.661377	0.325684	0.473096	-0.743282	-0.247217	-0.403232
59206		7.682174	-5.579662	-2.270601	0.137953	-0.055632	0.050681	-0.239990	0.665527	0.311035	0.473844	-0.743148	-0.247446	-0.402460
59207		7.781470	-5.613671	-2.092578	0.232983	-0.123660	0.051986	-0.245117	0.673096	0.304932	0.475186	-0.742802	-0.248306	-0.400983
59208		7.899189	-5.531755	-1.905332	0.247504	-0.113404	0.044377	-0.244141	0.673828	0.307617	0.476671	-0.742281	-0.249330	-0.399548
59209		7.894222	-5.608761	-2.241927	0.218496	-0.067309	0.033388	-0.239502	0.674805	0.307129	0.477983	-0.741729	-0.250092	-0.398526
59210		7.711695	-5.516684	-2.295925	0.254754	-0.092145	0.019218	-0.244141	0.670654	0.297119	0.479404	-0.741114	-0.251091	-0.397335
59211		7.970968	-5.201354	-2.068502	0.306451	-0.133273	0.020404	-0.234375	0.681396	0.302734	0.481113	-0.740351	-0.252579	-0.395747
59212		8.440966	-4.872616	-1.960591	0.251834	-0.086562	0.032765	-0.235107	0.671387	0.297607	0.482571	-0.739770	-0.253392	-0.394535
59213		8.517841	-4.628233	-2.234924	0.133688	0.022033	0.049192	-0.233643	0.686035	0.294189	0.483572	-0.739320	-0.253352	-0.394179
59214		8.240586	-4.628214	-2.175684	0.017015	0.089224	0.047883	-0.241699	0.676758	0.298340	0.484047	-0.739102	-0.252635	-0.394465
59215		8.038955	-4.771139	-2.041017	-0.040716	0.084099	0.047158	-0.239014	0.678711	0.294189	0.484084	-0.739123	-0.251854	-0.394879
59216		7.998367	-4.898673	-2.097338	-0.059867	0.060484	0.042020	-0.233154	0.675537	0.302246	0.483980	-0.739272	-0.251138	-0.395183
59217		8.277066	-5.152907	-2.134239	-0.056072	0.055780	0.039208	-0.237549	0.682129	0.285400	0.483802	-0.739495	-0.250314	-0.395508
59218		8.255844	-5.096762	-2.221243	-0.037682	0.060768	0.033645	-0.235352	0.676514	0.305176	0.483908	-0.739472	-0.249802	-0.395743
59219		8.200501	-4.889402	-2.073745	0.001204	0.032638	0.019623	-0.238281	0.676514	0.293945	0.483952	-0.739500	-0.249391	-0.395897
59220		8.224409	-4.938022	-2.102782	0.034232	0.009884	0.001101	-0.239746	0.676758	0.289062	0.484195	-0.739340	-0.249466	-0.395850
59221		8.150252	-5.213934	-2.140418	0.034559	0.025578	-0.004403	-0.239990	0.676270	0.295410	0.484497	-0.739078	-0.249587	-0.395894
59222		8.154896	-5.425904	-2.324832	0.063278	0.026255	-0.001944	-0.225830	0.677490	0.288086	0.484919	-0.738750	-0.249708	-0.395915
59223		8.013172	-5.265723	-1.886485	0.102759	-0.000706	0.007169	-0.237549	0.679443	0.293457	0.485620	-0.738395	-0.249860	-0.395621
59224		8.068727	-5.333125	-1.833716	0.079543	0.011217	0.040062	-0.233887	0.683105	0.300293	0.486254	-0.738148	-0.249792	-0.395345
59225		8.053029	-5.229247	-1.804088	0.008358	0.059550	0.057571	-0.239014	0.683594	0.289307	0.486546	-0.738133	-0.249034	-0.395495
59226		7.828918	-4.993789	-1.931188	-0.053869	0.067970	0.058355	-0.232666	0.677979	0.294189	0.486575	-0.738243	-0.248244	-0.395749
59227		8.091451	-5.173758	-1.916344	-0.092794	0.083267	0.060266	-0.222656	0.678955	0.294922	0.486345	-0.738525	-0.247119	-0.396209
59228		8.003722	-5.590321	-2.362277	-0.150785	0.146380	0.048236	-0.233643	0.682617	0.290283	0.485846	-0.738854	-0.245450	-0.397243
59229		7.802566	-5.328353	-2.253727	-0.123482	0.114681	0.055159	-0.230713	0.676025	0.295166	0.485539	-0.739097	-0.244196	-0.397939
59230		8.031688	-5.103569	-2.133789	-0.094416	0.079433	0.071763	-0.224854	0.685059	0.302734	0.485343	-0.739412	-0.243008	-0.398321
59231		8.105138	-4.957247	-2.121532	-0.111170	0.092700	0.073736	-0.236328	0.676514	0.296631	0.485026	-0.739824	-0.241477	-0.398872
59232		8.117880	-4.763467	-2.197555	-0.109032	0.092796	0.045669	-0.230469	0.669434	0.295410	0.484690	-0.740060	-0.240474	-0.399447
59233		8.248979	-4.618084	-1.975514	-0.132005	0.089663	0.014189	-0.230713	0.678955	0.300781	0.484104	-0.740350	-0.239553	-0.400175
59234		8.423379	-5.002390	-2.194273	-0.145191	0.097984	-0.018935	-0.244873	0.680908	0.299316	0.483316	-0.740627	-0.238653	-0.401150
59235		8.145262	-5.255093	-2.336031	-0.115286	0.101785	-0.028264	-0.239990	0.671631	0.295898	0.482735	-0.740663	-0.238178	-0.402065
59236		8.164888	-5.365990	-2.123400	-0.048855	0.042381	-0.008581	-0.235352	0.677246	0.301514	0.482530	-0.740671	-0.238030	-0.402385
59237		7.954628	-5.155549	-2.110374	-0.003060	0.005234	0.009579	-0.233887	0.673096	0.303467	0.482551	-0.740714	-0.237882	-0.402367
59238		7.988232	-5.093963	-2.001304	0.009149	-0.018371	0.025845	-0.242432	0.673584	0.298828	0.482628	-0.740839	-0.237737	-0.402131
59239		8.215724	-5.027659	-2.058872	-0.025819	0.030190	0.022737	-0.235352	0.674805	0.307617	0.482627	-0.740861	-0.237530	-0.402215
59240		8.255711	-5.238077	-2.107578	-0.097014	0.099408	0.010202	-0.232666	0.669678	0.291016	0.482196	-0.741002	-0.236627	-0.403002
59241		7.939765	-5.501676	-2.216410	-0.121247	0.087472	-0.007431	-0.232910	0.674805	0.302246	0.481685	-0.741146	-0.236003	-0.403714
59242		7.863862	-5.429141	-2.062833	-0.034758	0.004734	-0.003144	-0.228516	0.673828	0.305176	0.481474	-0.741297	-0.235805	-0.403805
59243		8.204275	-5.324329	-2.255127	0.030219	-0.017725	0.020879	-0.237793	0.676270	0.298828	0.481673	-0.741346	-0.235653	-0.403564
59244		8.214595	-4.999764	-2.280456	0.031487	0.021368	0.027543	-0.234375	0.671631	0.304932	0.482047	-0.741187	-0.235566	-0.403461
59245		8.231836	-4.810592	-2.118074	0.004476	0.050804	0.015343	-0.224609	0.674072	0.301025	0.482196	-0.741072	-0.235212	-0.403701
59246		8.294200	-4.681764	-2.011178	-0.011696	0.019690	-0.000405	-0.230225	0.670898	0.294434	0.482165	-0.741116	-0.234888	-0.403846
59247		8.159697	-4.750555	-2.139685	-0.021764	0.003056	-0.015683	-0.240723	0.673828	0.303467	0.482048	-0.741157	-0.234907	-0.403899
59248		8.179627	-4.830932	-2.127231	-0.002058	-0.001444	-0.026538	-0.237793	0.674316	0.307373	0.481937	-0.741122	-0.235135	-0.403964
59249		8.369505	-4.636952	-2.078861	0.006222	0.009128	-0.040308	-0.227295	0.672363	0.309082	0.481813	-0.741031	-0.235314	-0.404175
59250		8.369013	-4.611299	-2.053733	-0.064970	0.059116	-0.057976	-0.229736	0.669678	0.302734	0.481260	-0.741083	-0.234937	-0.404956
59251		8.311800	-4.952268	-2.130951	-0.112372	0.086190	-0.065326	-0.237549	0.681396	0.302979	0.480503	-0.741167	-0.234476	-0.405966
59252		8.147759	-5.315931	-2.103875	-0.095301	0.086655	-0.050624	-0.234619	0.674316	0.307861	0.479936	-0.741174	-0.234068	-0.406861
59253		7.960516	-5.379027	-1.847524	-0.053674	0.061578	-0.014295	-0.235596	0.668701	0.312988	0.479645	-0.741213	-0.233567	-0.407419
59254		8.101438	-5.283671	-1.900871	-0.031283	0.055456	0.008047	-0.235840	0.681152	0.309814	0.479504	-0.741253	-0.232994	-0.407839
59255		8.016539	-5.183018	-2.184340	-0.076485	0.091018	0.018608	-0.243164	0.676514	0.308105	0.479236	-0.741356	-0.232043	-0.408511
59256		8.074741	-5.146835	-2.248826	-0.095498	0.099100	0.010379	-0.241211	0.672119	0.309082	0.478865	-0.741437	-0.231254	-0.409244
59257		7.997644	-5.210809	-2.193899	-0.105006	0.101681	0.009846	-0.242188	0.672607	0.306885	0.478428	-0.741558	-0.230398	-0.410020
59258		8.035302	-5.310875	-2.177580	-0.093947	0.080819	-0.002514	-0.234863	0.668945	0.298340	0.478006	-0.741659	-0.229791	-0.410668
59259		7.988882	-5.347837	-2.138129	-0.067720	0.050335	-0.015466	-0.229004	0.679443	0.312744	0.477717	-0.741712	-0.229475	-0.411085
59260		7.973916	-5.391247	-2.105657	-0.052839	0.035995	-0.019305	-0.237793	0.666748	0.300293	0.477351	-0.741868	-0.228892	-0.411554
59261		7.939187	-5.462098	-2.037703	-0.038539	0.043714	-0.024425	-0.233154	0.672363	0.308105	0.477192	-0.741804	-0.228803	-0.411902
59262		7.959399	-5.520969	-2.019942	-0.011793	0.032713	-0.030118	-0.230713	0.671143	0.325195	0.477083	-0.741736	-0.228626	-0.412250
59263		8.029581	-5.484240	-2.061692	0.003036	0.038878	-0.015421	-0.233154	0.681885	0.305176	0.476962	-0.741734	-0.228074	-0.412699
59264		8.031734	-5.281688	-1.834426	0.000156	0.034565	0.004237	-0.229736	0.665771	0.311768	0.477063	-0.741677	-0.227653	-0.412917
59265		8.076610	-5.122767	-1.809810	-0.070721	0.054301	0.011631	-0.232666	0.671875	0.314209	0.476720	-0.741889	-0.226815	-0.413393
59266		8.053520	-5.164378	-1.895790	-0.123476	0.069175	0.004827	-0.242920	0.669922	0.315430	0.476039	-0.742250	-0.225755	-0.414109
59267		8.057323	-5.281171	-1.936332	-0.129677	0.079127	-0.000563	-0.239014	0.671631	0.317627	0.475350	-0.742534	-0.224917	-0.414847
59268		7.985789	-5.404925	-1.896995	-0.127637	0.079252	-0.005861	-0.239746	0.670898	0.316406	0.474627	-0.742833	-0.223973	-0.415651
59269		7.846431	-5.541603	-1.884041	-0.121001	0.085392	-0.015361	-0.247803	0.674316	0.325439	0.473945	-0.743048	-0.223129	-0.416497
59270		7.863989	-5.613651	-1.989457	-0.091103	0.076915	-0.030375	-0.241699	0.670410	0.321045	0.473323	-0.743160	-0.222530	-0.417323
59271		7.885730	-5.547423	-1.803981	-0.037523	0.034554	-0.036968	-0.243408	0.671143	0.320801	0.472961	-0.743196	-0.222268	-0.417809
59272		7.843695	-5.403604	-1.844981	-0.021217	-0.002290	-0.041480	-0.236328	0.667236	0.322754	0.472621	-0.743281	-0.222260	-0.418047
59273		7.997633	-5.324696	-1.731813	-0.036198	-0.014596	-0.048099	-0.249756	0.673584	0.323486	0.472103	-0.743501	-0.222109	-0.418321
59274		8.170352	-5.474882	-1.908872	-0.041774	0.019119	-0.047462	-0.245605	0.662109	0.322266	0.471650	-0.743567	-0.222052	-0.418744
59275		7.968702	-5.376854	-1.956631	-0.042833	0.041666	-0.038517	-0.238770	0.665771	0.326660	0.471298	-0.743563	-0.221903	-0.419228
59276		8.032642	-5.287200	-1.983558	-0.020764	0.010946	-0.033426	-0.241699	0.665527	0.324463	0.470950	-0.743671	-0.221589	-0.419593
59277		8.012721	-5.212706	-2.043601	-0.008194	-0.031644	-0.040650	-0.240723	0.669434	0.318115	0.470610	-0.743835	-0.221638	-0.419658
59278		8.097472	-5.148227	-2.032722	-0.002226	-0.032870	-0.038864	-0.245605	0.672852	0.324707	0.470350	-0.743964	-0.221709	-0.419683
59279		8.354440	-5.071381	-2.057948	0.019778	-0.016964	-0.033943	-0.244141	0.660889	0.326904	0.470214	-0.743984	-0.221729	-0.419790
59280		8.361246	-4.809355	-2.097423	0.046067	0.011166	-0.024979	-0.246826	0.674072	0.322266	0.470356	-0.743799	-0.221795	-0.419922
59281		8.298251	-4.739499	-1.880834	0.019568	0.015067	-0.021138	-0.247803	0.671143	0.319824	0.470334	-0.743722	-0.221632	-0.420170
59282		8.266289	-4.765167	-1.847710	-0.012098	0.010149	-0.031471	-0.250977	0.662842	0.324951	0.470113	-0.743736	-0.221556	-0.420432
59283		8.391357	-4.756249	-1.930159	-0.022736	0.001439	-0.033986	-0.251221	0.659424	0.323730	0.469826	-0.743793	-0.221656	-0.420599
59284		8.381347	-4.727845	-1.876207	-0.074538	0.045243	-0.031783	-0.250732	0.668457	0.327393	0.469343	-0.743880	-0.221476	-0.421079
59285		8.369759	-4.633413	-1.832432	-0.134789	0.076919	-0.032787	-0.250244	0.654785	0.324219	0.468437	-0.744157	-0.220691	-0.422010
59286		8.329352	-4.729804	-1.859663	-0.155160	0.087423	-0.045471	-0.255859	0.669922	0.327637	0.467505	-0.744374	-0.220170	-0.422931
59287		8.205321	-4.807476	-1.849434	-0.158597	0.076183	-0.061422	-0.246826	0.659668	0.327148	0.466374	-0.744666	-0.219564	-0.423982
59288		8.241446	-5.025622	-1.897393	-0.169022	0.087112	-0.070989	-0.252930	0.655029	0.323242	0.465174	-0.744956	-0.218843	-0.425160
59289		8.347054	-5.161579	-2.077276	-0.160846	0.100626	-0.070222	-0.242432	0.653564	0.328613	0.464170	-0.745081	-0.218416	-0.426257
59290		8.255827	-5.357249	-2.359052	-0.140536	0.132032	-0.046286	-0.258301	0.658447	0.327148	0.463309	-0.745163	-0.217364	-0.427587
59291		7.910592	-5.262322	-2.089892	-0.088374	0.089676	-0.023659	-0.257324	0.656006	0.326660	0.462864	-0.745142	-0.216899	-0.428339
59292		7.983550	-5.253910	-1.997018	-0.023605	0.015919	-0.014130	-0.259277	0.657715	0.333496	0.462735	-0.745149	-0.216895	-0.428469
59293		8.091978	-5.103573	-1.924934	0.008312	-0.005289	-0.006181	-0.257324	0.666992	0.333252	0.462722	-0.745162	-0.216930	-0.428444
59294		8.266318	-4.828751	-1.923660	-0.027601	0.009885	-0.009299	-0.257324	0.656738	0.323975	0.462429	-0.745303	-0.216565	-0.428698
59295		8.349053	-4.811136	-1.818375	-0.097737	0.056760	-0.023971	-0.258301	0.662109	0.328125	0.461903	-0.745417	-0.216228	-0.429237
59296		8.344284	-4.744172	-1.735229	-0.165529	0.072530	-0.034004	-0.259277	0.654053	0.338623	0.460872	-0.745761	-0.215482	-0.430122
59297		8.305458	-4.993798	-2.047455	-0.212036	0.078949	-0.038449	-0.252930	0.656494	0.326416	0.459503	-0.746274	-0.214557	-0.431158
59298		8.204402	-5.297437	-2.268052	-0.178370	0.067844	-0.022534	-0.256104	0.659424	0.340088	0.458456	-0.746697	-0.213672	-0.431979
59299		8.145949	-5.299726	-2.265921	-0.120177	0.059764	0.014673	-0.255859	0.653076	0.337402	0.457752	-0.747066	-0.212577	-0.432628
59300		8.168712	-5.168344	-2.149916	-0.098894	0.058174	0.030163	-0.258057	0.649414	0.334229	0.457310	-0.747341	-0.211639	-0.433080
59301		8.215150	-4.971392	-2.166081	-0.082275	0.022664	0.045286	-0.260254	0.654541	0.337891	0.457048	-0.747651	-0.211012	-0.433127
59302		8.211461	-4.751520	-2.178987	-0.078868	0.007803	0.056436	-0.264893	0.654297	0.335693	0.456766	-0.748047	-0.210294	-0.433089
59303		8.526472	-4.713996	-2.265784	-0.098266	0.043557	0.053213	-0.264160	0.636230	0.339111	0.456482	-0.748330	-0.209596	-0.433238
59304		8.394700	-4.563560	-2.078367	-0.169706	0.117494	0.041211	-0.253906	0.645996	0.342773	0.455930	-0.748543	-0.208717	-0.433877
59305		8.392760	-4.510399	-1.946847	-0.235326	0.141390	0.011841	-0.262695	0.653809	0.341553	0.454738	-0.748984	-0.207159	-0.435111
59306		8.303450	-4.537703	-1.986774	-0.262174	0.123911	-0.010892	-0.262207	0.648926	0.342529	0.453285	-0.749515	-0.205815	-0.436348
59307		8.282340	-4.781483	-2.117336	-0.262165	0.117393	-0.019832	-0.256592	0.650635	0.351807	0.451812	-0.750039	-0.204598	-0.437548
59308		8.118818	-4.883325	-2.077991	-0.247796	0.110759	-0.024131	-0.264404	0.643555	0.350342	0.450278	-0.750605	-0.203157	-0.438827
59309		8.299654	-4.798751	-2.079967	-0.227506	0.093617	-0.017048	-0.268311	0.650635	0.346191	0.448971	-0.751089	-0.202134	-0.439809
59310		8.617226	-4.872570	-2.226070	-0.212774	0.095373	0.006171	-0.260986	0.640625	0.346191	0.447869	-0.751526	-0.201047	-0.440684
59311		8.283345	-4.964165	-2.374904	-0.162305	0.076448	0.040906	-0.257812	0.646240	0.356445	0.447209	-0.751901	-0.199992	-0.441195
59312		7.956952	-4.963925	-2.116452	-0.108026	0.036225	0.061257	-0.262939	0.637451	0.355225	0.446761	-0.752337	-0.198843	-0.441424
59313		8.276739	-4.884402	-1.989434	-0.046592	-0.001920	0.068350	-0.266846	0.640381	0.350098	0.446752	-0.752631	-0.198313	-0.441170
59314		8.527622	-4.689351	-2.153460	-0.069619	0.054834	0.080098	-0.259277	0.643066	0.356689	0.446794	-0.752778	-0.197559	-0.441216
59315		8.441720	-4.524030	-2.106508	-0.104809	0.085422	0.070601	-0.258301	0.637939	0.362305	0.446527	-0.753000	-0.196329	-0.441655
59316		8.337422	-4.571392	-2.106718	-0.130636	0.077406	0.045636	-0.267578	0.640869	0.348633	0.445967	-0.753321	-0.195173	-0.442186
59317		8.311530	-4.640218	-2.054028	-0.143624	0.056607	0.035572	-0.265381	0.640625	0.368408	0.445413	-0.753639	-0.194481	-0.442507
59318		8.387454	-4.784917	-2.085059	-0.162321	0.074207	0.034793	-0.264160	0.640381	0.357178	0.444579	-0.754067	-0.193316	-0.443127
59319		8.310734	-4.850177	-2.067487	-0.170202	0.095106	0.029819	-0.256836	0.639893	0.357422	0.443820	-0.754379	-0.192236	-0.443826
59320		8.150592	-4.904838	-2.133951	-0.156779	0.089384	0.016317	-0.263672	0.642578	0.367920	0.443072	-0.754666	-0.191184	-0.444540
59321		8.206136	-4.939314	-1.989455	-0.149497	0.058656	0.011040	-0.261719	0.637207	0.373047	0.442221	-0.755057	-0.190240	-0.445128
59322		8.291163	-5.093742	-2.333359	-0.146635	0.053956	0.010041	-0.260742	0.626465	0.369141	0.441352	-0.755469	-0.189293	-0.445694
59323		8.183920	-4.958374	-2.132649	-0.105553	0.026761	0.015185	-0.270996	0.638672	0.363525	0.440804	-0.755794	-0.188753	-0.445915
59324		8.295615	-4.842273	-2.068114	-0.066218	0.000897	0.003429	-0.253662	0.631348	0.371826	0.440456	-0.756006	-0.188637	-0.445948
59325		8.383653	-4.764560	-2.075572	-0.082894	0.006033	-0.007766	-0.254639	0.633545	0.363770	0.439881	-0.756334	-0.188195	-0.446146
59326		8.297044	-4.862689	-2.186786	-0.110996	0.017517	-0.014166	-0.259277	0.635254	0.369141	0.439197	-0.756669	-0.187761	-0.446435
59327		8.219577	-5.006701	-2.319960	-0.108253	0.022848	-0.018639	-0.268555	0.634277	0.372070	0.438484	-0.756975	-0.187328	-0.446798
59328		8.276852	-4.951937	-2.143196	-0.071588	0.012175	-0.024827	-0.259521	0.634766	0.372070	0.437967	-0.757151	-0.187225	-0.447049
59329		8.165570	-4.800718	-2.094398	-0.095248	0.001082	-0.021026	-0.254883	0.638916	0.373291	0.437280	-0.757495	-0.186906	-0.447274
59330		8.004579	-4.879967	-2.048285	-0.139355	-0.012957	-0.026054	-0.261719	0.632568	0.374512	0.436244	-0.758071	-0.186375	-0.447531
59331		8.042942	-5.306363	-2.283396	-0.171116	0.006919	-0.019629	-0.266113	0.629395	0.383545	0.435097	-0.758660	-0.185779	-0.447897
59332		8.049134	-5.339349	-2.304304	-0.089957	0.002116	-0.009725	-0.261963	0.629883	0.378662	0.434446	-0.759001	-0.185425	-0.448098
59333		8.142756	-5.189801	-2.124379	-0.027909	-0.032714	0.003562	-0.258057	0.623047	0.375977	0.434221	-0.759258	-0.185351	-0.447911
59334		8.042089	-4.907891	-2.101444	-0.055297	-0.047179	0.009730	-0.261475	0.630127	0.379639	0.433870	-0.759662	-0.185260	-0.447603
59335		8.156892	-4.829212	-2.282663	-0.097015	-0.033768	0.024019	-0.256348	0.630371	0.386475	0.433283	-0.760203	-0.184802	-0.447443
59336		8.277912	-4.841279	-2.023766	-0.128558	-0.030316	0.042400	-0.253662	0.633789	0.388184	0.432507	-0.760918	-0.183948	-0.447330
59337		8.157222	-5.150509	-2.400320	-0.118645	-0.037213	0.038847	-0.259521	0.624512	0.387695	0.431746	-0.761634	-0.183095	-0.447198
59338		8.093863	-5.303168	-2.394785	-0.057762	-0.049886	0.027603	-0.257080	0.625488	0.383789	0.431378	-0.762106	-0.182813	-0.446864
59339		8.213794	-5.146166	-2.217580	0.003567	-0.080569	0.021158	-0.259521	0.628906	0.383789	0.431361	-0.762449	-0.182936	-0.446244
59340		8.332775	-5.130645	-2.412565	0.015058	-0.075053	0.026666	-0.254639	0.629639	0.392578	0.431444	-0.762731	-0.183053	-0.445634
59341		8.063581	-4.977353	-2.485414	0.056761	-0.091402	0.036651	-0.253418	0.634277	0.382812	0.431713	-0.762997	-0.183139	-0.444881
59342		7.964957	-5.001229	-2.141930	0.117256	-0.112358	0.052392	-0.253174	0.627930	0.381836	0.432458	-0.763112	-0.183498	-0.443812
59343		8.181791	-5.081239	-1.953957	0.168699	-0.122075	0.066591	-0.249023	0.638672	0.380615	0.433608	-0.763072	-0.184109	-0.442503
59344		8.225875	-4.761605	-2.106064	0.123832	-0.122513	0.064147	-0.254639	0.632812	0.371582	0.434407	-0.763225	-0.184407	-0.441329
59345		8.296711	-4.491747	-2.295827	0.058019	-0.134472	0.024256	-0.249268	0.637695	0.380127	0.434751	-0.763511	-0.185066	-0.440220
59346		8.209419	-4.692199	-2.372834	0.027134	-0.114727	0.004092	-0.242676	0.637939	0.381592	0.434743	-0.763874	-0.185434	-0.439442
59347		8.132076	-4.908609	-2.119657	0.039380	-0.104584	0.015100	-0.258789	0.639893	0.376221	0.434843	-0.764201	-0.185651	-0.438683
59348		8.104540	-5.001213	-2.082525	0.044074	-0.093515	0.011358	-0.251953	0.636963	0.379639	0.435057	-0.764375	-0.186131	-0.437963
59349		8.291030	-4.921336	-2.385520	0.028958	-0.056139	0.016876	-0.246582	0.641602	0.379883	0.435222	-0.764508	-0.186305	-0.437493
59350		8.304707	-4.622858	-2.391732	0.018881	-0.045046	0.028131	-0.253662	0.637939	0.388672	0.435345	-0.764687	-0.186208	-0.437099
59351		8.121028	-4.628468	-2.462442	-0.032765	-0.032546	0.020905	-0.255371	0.639893	0.381836	0.435094	-0.764995	-0.185954	-0.436917
59352		8.065491	-4.919673	-2.572920	-0.057868	-0.023528	0.011912	-0.245605	0.639648	0.388428	0.434721	-0.765312	-0.185725	-0.436832
59353		7.927689	-5.028811	-2.497845	0.000179	-0.034706	0.000631	-0.245361	0.639160	0.387695	0.434584	-0.765507	-0.185629	-0.436667
59354		7.887568	-5.222488	-2.430105	0.083677	-0.053315	-0.020320	-0.243164	0.638672	0.379395	0.434883	-0.765430	-0.186052	-0.436324
59355		8.461253	-4.987887	-2.540130	0.143593	-0.083016	-0.015562	-0.249512	0.634277	0.376465	0.435600	-0.765220	-0.186862	-0.435629
59356		8.626330	-4.296383	-2.547478	0.079078	-0.079418	-0.017828	-0.249023	0.635742	0.383789	0.435972	-0.765173	-0.187628	-0.435010
59357		8.211628	-4.352263	-2.575942	-0.025625	-0.033214	-0.036013	-0.246338	0.644043	0.378662	0.435604	-0.765352	-0.187837	-0.434974
59358		8.041577	-4.864067	-2.332164	-0.088967	0.020726	-0.032902	-0.249512	0.631592	0.381104	0.434915	-0.765583	-0.187515	-0.435396
59359		8.098087	-5.123679	-2.319043	-0.035214	0.003787	-0.037162	-0.249512	0.635498	0.373535	0.434594	-0.765632	-0.187664	-0.435567
59360		8.215655	-4.994793	-2.381186	0.046214	-0.025028	-0.042188	-0.254150	0.638916	0.382568	0.434769	-0.765461	-0.188280	-0.435426
59361		8.295315	-4.692646	-2.381022	0.059451	-0.026804	-0.050872	-0.254150	0.633301	0.385498	0.434902	-0.765271	-0.188873	-0.435370
59362		8.256960	-4.506938	-2.429800	0.041893	-0.028794	-0.072782	-0.237305	0.637207	0.379883	0.434844	-0.765118	-0.189581	-0.435391
59363		8.212942	-4.772475	-2.295265	0.063654	-0.029883	-0.084655	-0.255127	0.634521	0.383789	0.434867	-0.764925	-0.190301	-0.435392
59364		8.389812	-4.926200	-2.340464	0.123026	-0.019313	-0.093704	-0.251465	0.637451	0.388184	0.435264	-0.764409	-0.191394	-0.435422
59365		8.508720	-4.536212	-2.568774	0.105570	-0.009386	-0.110085	-0.257812	0.635254	0.376465	0.435434	-0.763944	-0.192341	-0.435650
59366		8.334212	-4.290336	-2.543123	0.041960	0.000097	-0.136150	-0.245361	0.633545	0.375977	0.435236	-0.763555	-0.193413	-0.436057
59367		8.231967	-4.614472	-2.556598	0.034685	0.008946	-0.131378	-0.258301	0.635742	0.382324	0.435002	-0.763216	-0.194294	-0.436490
59368		8.267464	-4.857062	-2.406327	0.049634	0.009228	-0.104561	-0.256836	0.634766	0.372070	0.434911	-0.762860	-0.195033	-0.436875
59369		8.232046	-4.851743	-2.532075	0.064956	0.010910	-0.091606	-0.257324	0.634766	0.385498	0.435048	-0.762425	-0.195855	-0.437130
59370		8.077156	-4.873057	-2.656943	0.049429	0.023219	-0.086134	-0.264160	0.634033	0.370361	0.435008	-0.762076	-0.196355	-0.437553
59371		8.144884	-5.016913	-2.611873	0.049633	0.005159	-0.066222	-0.268311	0.645752	0.378906	0.435147	-0.761734	-0.197037	-0.437704
59372		8.235339	-4.944602	-2.486099	0.062153	-0.052227	-0.047382	-0.260498	0.632324	0.386719	0.435197	-0.761655	-0.197593	-0.437541
59373		8.210160	-4.605510	-2.154554	0.081103	-0.068668	-0.036369	-0.266846	0.634277	0.371094	0.435382	-0.761607	-0.198235	-0.437149
59374		8.440115	-4.442398	-2.083222	0.072006	0.000440	-0.023580	-0.268555	0.638916	0.372559	0.435798	-0.761272	-0.198733	-0.437093
59375		8.733054	-4.222024	-2.217430	0.029880	0.061498	-0.022884	-0.266357	0.637939	0.371582	0.436004	-0.760889	-0.198765	-0.437539
59376		8.738563	-4.348924	-2.426627	-0.020744	0.079363	-0.034934	-0.268066	0.633301	0.371826	0.435879	-0.760610	-0.198623	-0.438213
59377		8.472684	-4.601834	-2.281956	-0.018920	0.063856	-0.027667	-0.265137	0.639160	0.372559	0.435790	-0.760377	-0.198557	-0.438736
59378		8.230592	-4.320703	-1.895546	-0.010623	0.058124	-0.018239	-0.263184	0.634521	0.370117	0.435730	-0.760187	-0.198365	-0.439210
59379		8.278267	-4.599203	-1.982953	-0.051365	0.114771	-0.028411	-0.260498	0.641357	0.370117	0.435511	-0.759905	-0.197957	-0.440101
59380		8.400197	-4.834421	-2.248551	-0.041098	0.124872	-0.044795	-0.271484	0.639404	0.373535	0.435267	-0.759556	-0.197539	-0.441130
59381		8.469750	-4.954169	-2.387772	-0.018698	0.083160	-0.060082	-0.270996	0.636230	0.375244	0.435027	-0.759231	-0.197474	-0.441955
59382		7.938123	-4.815095	-2.315562	-0.029692	0.050145	-0.068607	-0.267822	0.632324	0.364014	0.434631	-0.759057	-0.197546	-0.442609
59383		7.757725	-4.894554	-2.259335	0.001360	0.004196	-0.097825	-0.265381	0.634033	0.372559	0.434359	-0.758844	-0.198253	-0.442927
59384		7.959891	-5.016256	-2.081597	0.124637	-0.019803	-0.107425	-0.264160	0.637939	0.381348	0.434705	-0.758314	-0.199408	-0.442976
59385		8.615685	-4.723095	-2.092675	0.230343	-0.064379	-0.105459	-0.270508	0.637695	0.375000	0.435547	-0.757631	-0.200924	-0.442632
59386		8.851350	-4.518904	-2.528839	0.196260	-0.042883	-0.103776	-0.267334	0.641113	0.372559	0.436258	-0.756952	-0.202311	-0.442462
59387		8.653658	-4.297341	-2.876950	0.094700	-0.048622	-0.114174	-0.273193	0.636963	0.366455	0.436262	-0.756665	-0.203361	-0.442467
59388		8.390045	-4.534164	-2.553174	0.047924	-0.039726	-0.109279	-0.278809	0.645752	0.366699	0.436080	-0.756465	-0.204328	-0.442543
59389		8.120291	-4.815706	-2.185192	0.072954	-0.023607	-0.078675	-0.276611	0.638916	0.366211	0.436132	-0.756189	-0.205018	-0.442646
59390		8.185933	-4.815769	-2.124137	0.132319	-0.030021	-0.029037	-0.274658	0.636963	0.360596	0.436774	-0.755787	-0.205724	-0.442370
59391		8.437796	-4.610285	-2.174272	0.140142	-0.037494	0.005325	-0.273926	0.637695	0.361084	0.437632	-0.755419	-0.206355	-0.441857
59392		8.519438	-4.524124	-2.489264	0.076763	-0.023910	0.016890	-0.269775	0.630615	0.357910	0.438142	-0.755261	-0.206605	-0.441506
59393		8.332670	-4.488745	-2.299228	0.017622	0.006033	0.025690	-0.269287	0.634521	0.356689	0.438435	-0.755194	-0.206603	-0.441330
59394		8.226451	-4.676383	-2.103065	0.003384	0.026593	0.008430	-0.282715	0.635254	0.363281	0.438590	-0.755085	-0.206535	-0.441394
59395		8.151175	-4.669127	-2.036428	0.069081	0.004441	-0.014627	-0.275879	0.626709	0.360840	0.438979	-0.754769	-0.206885	-0.441383
59396		8.145484	-4.766454	-2.524173	0.147746	-0.027666	-0.062984	-0.269775	0.640625	0.344727	0.439697	-0.754182	-0.208060	-0.441121
59397		8.325937	-4.840714	-2.593778	0.243445	-0.078493	-0.083320	-0.275146	0.636230	0.357910	0.440882	-0.753396	-0.209874	-0.440422
59398		8.570597	-4.691272	-2.520997	0.284656	-0.124615	-0.080846	-0.278076	0.638184	0.348633	0.442159	-0.752664	-0.211889	-0.439426
59399		8.667136	-4.392976	-2.342313	0.223145	-0.121704	-0.066577	-0.271484	0.636719	0.353516	0.443151	-0.752133	-0.213648	-0.438483
59400		8.608456	-4.327846	-2.112982	0.157002	-0.075998	-0.064115	-0.284180	0.641357	0.349365	0.443782	-0.751722	-0.214926	-0.437925
59401		8.337065	-4.534289	-1.946038	0.076730	-0.027004	-0.059019	-0.273926	0.638672	0.357422	0.444004	-0.751404	-0.215689	-0.437870
59402		8.171075	-4.831913	-1.993751	0.042205	-0.011315	-0.046339	-0.273926	0.634277	0.351318	0.444043	-0.751238	-0.216120	-0.437903
59403		8.215703	-4.889791	-2.084593	0.015160	-0.010633	-0.015988	-0.275879	0.639404	0.348145	0.444089	-0.751185	-0.216367	-0.437825
59404		8.250843	-4.881933	-2.042755	0.000679	0.006181	0.009819	-0.269287	0.645996	0.348389	0.444164	-0.751170	-0.216313	-0.437803
59405		8.273536	-4.903072	-2.202989	-0.026572	0.029480	0.038861	-0.267578	0.639404	0.350342	0.444192	-0.751259	-0.215820	-0.437864
59406		8.291114	-5.049532	-2.229316	-0.030878	0.022414	0.057422	-0.273193	0.648193	0.349365	0.444267	-0.751415	-0.215270	-0.437791
59407		8.100889	-5.169436	-2.229244	0.020629	-0.028603	0.054705	-0.263916	0.643311	0.353271	0.444524	-0.751567	-0.215035	-0.437384
59408		8.142993	-5.107137	-2.335307	0.078101	-0.058465	0.029442	-0.268311	0.645996	0.349121	0.445003	-0.751591	-0.215295	-0.436728
59409		8.098516	-4.994574	-2.208058	0.140377	-0.065125	0.001265	-0.269775	0.643311	0.352783	0.445766	-0.751335	-0.215994	-0.436044
59410		8.189272	-4.837565	-2.086562	0.204646	-0.115165	-0.036863	-0.273926	0.642822	0.357910	0.446680	-0.750958	-0.217338	-0.435090
59411		8.067548	-4.970249	-2.161093	0.238838	-0.148400	-0.053877	-0.265869	0.645996	0.343262	0.447638	-0.750553	-0.218983	-0.433977
59412		8.126038	-5.077760	-2.182902	0.298058	-0.197778	-0.044454	-0.273926	0.648193	0.343262	0.448999	-0.750087	-0.221072	-0.432315
59413		8.259901	-4.868211	-2.090442	0.333886	-0.204426	-0.032555	-0.273926	0.648682	0.343018	0.450578	-0.749518	-0.223205	-0.430560
59414		8.308418	-4.551253	-2.081988	0.290815	-0.197521	-0.018822	-0.262207	0.647949	0.337646	0.451934	-0.749108	-0.225060	-0.428883
59415		8.471478	-4.527367	-2.190483	0.228650	-0.183965	-0.012807	-0.267090	0.649170	0.333496	0.452993	-0.748894	-0.226660	-0.427294
59416		8.485902	-4.685413	-2.289041	0.199680	-0.169163	-0.011346	-0.262695	0.655029	0.336182	0.453910	-0.748711	-0.228114	-0.425866
59417		8.413013	-4.547594	-2.272227	0.184796	-0.174230	0.013077	-0.261719	0.644775	0.340332	0.454765	-0.748686	-0.229291	-0.424362
59418		8.692131	-4.286337	-2.135862	0.207178	-0.153497	0.029605	-0.262207	0.648193	0.329346	0.455869	-0.748518	-0.230434	-0.422853
59419		8.813904	-4.078567	-2.076971	0.132789	-0.068911	0.054281	-0.256104	0.655518	0.334717	0.456807	-0.748342	-0.230902	-0.421895
59420		8.731169	-3.861507	-2.114489	0.007238	-0.007460	0.057913	-0.263672	0.658691	0.328613	0.457031	-0.748493	-0.230552	-0.421578
59421		8.470118	-4.227613	-2.132392	-0.101224	0.009903	0.028375	-0.250244	0.651123	0.337891	0.456520	-0.748904	-0.229959	-0.421724
59422		8.380002	-4.810127	-2.207819	-0.100058	0.000876	0.008141	-0.262207	0.653320	0.336670	0.455927	-0.749343	-0.229538	-0.421815
59423		8.151026	-4.848580	-2.029177	-0.052441	-0.040620	0.006252	-0.264404	0.652832	0.331787	0.455527	-0.749716	-0.229438	-0.421638
59424		8.175048	-4.822251	-2.103980	-0.007887	-0.055582	-0.016056	-0.259521	0.652100	0.331543	0.455330	-0.749902	-0.229741	-0.421356
59425		8.404375	-4.782205	-2.075248	-0.016934	-0.038998	-0.029857	-0.256836	0.643799	0.332031	0.455076	-0.750042	-0.230049	-0.421214
59426		8.271439	-4.658308	-2.074682	-0.083467	-0.025787	-0.036092	-0.265869	0.647217	0.329590	0.454441	-0.750359	-0.230186	-0.421259
59427		8.058135	-4.965437	-2.342403	-0.102079	-0.020161	-0.053633	-0.259521	0.650879	0.332764	0.453622	-0.750677	-0.230319	-0.421502
59428		8.052372	-5.317322	-2.412486	-0.047493	-0.046237	-0.059747	-0.266113	0.649658	0.336670	0.453062	-0.750898	-0.230737	-0.421481
59429		8.103261	-5.436922	-2.447423	0.020612	-0.065405	-0.035813	-0.262695	0.645508	0.333252	0.452940	-0.750979	-0.231276	-0.421175
59430		8.155061	-5.518141	-2.672423	0.054070	-0.047649	-0.021271	-0.255859	0.653809	0.336182	0.453153	-0.750880	-0.231842	-0.420810
59431		7.970762	-5.032541	-2.314575	0.118956	-0.095206	-0.004494	-0.260498	0.653320	0.325439	0.453718	-0.750775	-0.232642	-0.419946
59432		7.833938	-5.114759	-2.278970	0.126974	-0.094398	-0.002499	-0.256348	0.652832	0.335205	0.454389	-0.750591	-0.233533	-0.419055
59433		7.986949	-5.474530	-2.500217	0.122683	-0.078530	-0.010064	-0.262207	0.656250	0.331543	0.454983	-0.750397	-0.234318	-0.418318
59434		7.991985	-5.098936	-2.290687	0.177186	-0.116724	0.001231	-0.250488	0.655273	0.330811	0.455872	-0.750137	-0.235351	-0.417234
59435		7.906316	-4.993282	-2.412706	0.166495	-0.120220	0.013485	-0.258057	0.653809	0.327637	0.456766	-0.749963	-0.236328	-0.416016
59436		7.978814	-5.156864	-2.503965	0.143283	-0.109257	0.017712	-0.255371	0.657959	0.331299	0.457536	-0.749826	-0.237154	-0.414947
59437		8.119086	-5.001030	-2.348789	0.149485	-0.128133	0.042243	-0.256836	0.655518	0.325928	0.458363	-0.749802	-0.237867	-0.413665
59438		8.242609	-4.795812	-2.478706	0.109016	-0.128044	0.044101	-0.259277	0.648682	0.324707	0.458964	-0.749910	-0.238472	-0.412453
59439		8.151632	-4.699317	-2.418182	0.091409	-0.105130	0.023861	-0.249512	0.659668	0.324463	0.459430	-0.749948	-0.239084	-0.411511
59440		8.337932	-4.793558	-2.441636	0.110190	-0.105741	0.015043	-0.254639	0.664795	0.320557	0.459998	-0.749922	-0.239798	-0.410506
59441		8.373246	-4.740201	-2.461786	0.121564	-0.090945	0.020947	-0.254883	0.661133	0.323242	0.460675	-0.749803	-0.240438	-0.409589
59442		8.405743	-4.826413	-2.544560	0.131213	-0.072946	0.016016	-0.250000	0.651367	0.330566	0.461411	-0.749582	-0.241056	-0.408801
59443		8.268149	-4.769088	-2.680543	0.136596	-0.068882	0.002887	-0.249756	0.666016	0.321289	0.462121	-0.749320	-0.241752	-0.408069
59444		8.098458	-4.587393	-2.526322	0.178653	-0.102515	-0.003030	-0.251221	0.657715	0.311523	0.463037	-0.748984	-0.242767	-0.407042
59445		8.235052	-4.668411	-2.697760	0.209634	-0.124804	-0.017237	-0.248779	0.657227	0.313232	0.464099	-0.748527	-0.244162	-0.405838
59446		8.409292	-4.564094	-2.402808	0.206403	-0.128042	-0.009630	-0.247803	0.664551	0.311523	0.465144	-0.748120	-0.245491	-0.404589
59447		8.499162	-4.271339	-2.179037	0.157734	-0.105962	0.005649	-0.254150	0.658447	0.310059	0.465977	-0.747864	-0.246452	-0.403518
59448		8.360330	-4.432973	-2.244258	0.041446	-0.025936	-0.001671	-0.246338	0.656982	0.317627	0.466194	-0.747766	-0.246740	-0.403273
59449		8.293839	-4.753836	-2.448042	0.015243	-0.010998	-0.005117	-0.246338	0.662354	0.318604	0.466255	-0.747744	-0.246878	-0.403159
59450		8.034825	-4.749160	-2.423211	-0.005529	-0.042314	-0.007522	-0.243164	0.662842	0.320068	0.466107	-0.747912	-0.247059	-0.402907
59451		7.965971	-4.828500	-2.610975	-0.028023	-0.061902	-0.009928	-0.250977	0.659424	0.316162	0.465778	-0.748234	-0.247260	-0.402567
59452		8.257620	-5.117817	-2.757710	0.006341	-0.038109	-0.003698	-0.246338	0.662109	0.311035	0.465719	-0.748334	-0.247447	-0.402333
59453		8.391945	-5.103579	-2.496616	0.032823	-0.027213	0.024652	-0.250488	0.658447	0.321045	0.465994	-0.748336	-0.247572	-0.401935
59454		8.169491	-5.148479	-2.501349	0.027206	-0.024374	0.039632	-0.239502	0.662109	0.319092	0.466206	-0.748420	-0.247457	-0.401604
59455		7.866658	-5.173636	-2.576388	0.070259	-0.036638	0.009403	-0.246338	0.665771	0.309326	0.466622	-0.748309	-0.247791	-0.401120
59456		8.071395	-5.265275	-2.495784	0.125313	-0.064367	-0.011730	-0.245361	0.661865	0.311768	0.467272	-0.747998	-0.248589	-0.400448
59457		8.114719	-5.330738	-2.547112	0.129912	-0.044533	-0.000875	-0.252197	0.662598	0.311279	0.468007	-0.747638	-0.249232	-0.399863
59458		7.976596	-5.153637	-2.469361	0.167229	-0.041142	0.011057	-0.244629	0.663086	0.305176	0.468979	-0.747149	-0.249862	-0.399245
59459		7.880500	-5.087624	-2.389611	0.166584	-0.047792	0.006394	-0.246582	0.667725	0.309570	0.469980	-0.746654	-0.250630	-0.398512
59460		8.003389	-4.980809	-2.310129	0.135804	-0.055041	0.000537	-0.240479	0.663574	0.307129	0.470708	-0.746317	-0.251283	-0.397872
59461		8.156701	-5.005269	-2.236387	0.091176	-0.038034	0.016694	-0.240723	0.674316	0.307617	0.471280	-0.746123	-0.251668	-0.397314
59462		8.208515	-5.018998	-2.196207	0.038561	-0.006263	0.039405	-0.242920	0.661865	0.312500	0.471665	-0.746086	-0.251591	-0.396975
59463		8.146987	-5.465481	-2.464789	0.011123	0.059311	0.045828	-0.244873	0.672607	0.311035	0.471977	-0.745975	-0.251058	-0.397150
59464		7.869532	-5.324782	-2.312717	0.084967	0.047345	0.040236	-0.238770	0.671631	0.305664	0.472712	-0.745598	-0.250849	-0.397116
59465		7.819067	-5.138140	-2.217782	0.122733	0.024155	0.026989	-0.240479	0.668701	0.298340	0.473645	-0.745101	-0.251013	-0.396835
59466		7.953631	-4.816566	-2.169615	0.118417	-0.014966	0.012686	-0.248779	0.666504	0.297852	0.474440	-0.744695	-0.251454	-0.396367
59467		8.227889	-4.640115	-2.147163	0.066812	-0.001677	0.000534	-0.238770	0.668701	0.296387	0.474844	-0.744433	-0.251686	-0.396228
59468		8.345801	-4.671485	-2.204327	-0.012743	0.040636	-0.009898	-0.239502	0.678223	0.292725	0.474873	-0.744315	-0.251620	-0.396458
59469		8.339106	-4.882249	-2.374922	-0.062877	0.058916	-0.017487	-0.241455	0.673340	0.306396	0.474636	-0.744302	-0.251402	-0.396902
59470		8.108902	-4.998462	-2.312786	-0.053691	0.051291	-0.009837	-0.239990	0.665283	0.312256	0.474372	-0.744351	-0.251050	-0.397349
59471		8.132618	-5.125386	-2.259831	-0.050634	0.051918	0.016397	-0.241943	0.668457	0.302002	0.474179	-0.744463	-0.250489	-0.397723
59472		8.150074	-5.282025	-2.452234	-0.057335	0.069006	0.031154	-0.231689	0.670410	0.291504	0.474086	-0.744533	-0.249847	-0.398107
59473		8.042604	-5.187885	-2.302329	-0.040570	0.069519	0.035995	-0.243408	0.665527	0.299561	0.474243	-0.744491	-0.249404	-0.398277
59474		8.095327	-5.051982	-2.355777	-0.023427	0.061857	0.032022	-0.242676	0.668213	0.302979	0.474343	-0.744447	-0.248901	-0.398555
59475		8.118284	-4.840829	-2.265858	-0.029458	0.075430	0.033611	-0.249512	0.674316	0.301514	0.474431	-0.744394	-0.248291	-0.398928
59476		8.241908	-4.880007	-2.162283	-0.079016	0.085128	0.031003	-0.242432	0.670898	0.297363	0.474201	-0.744497	-0.247478	-0.399514
59477		8.111806	-5.032799	-2.163572	-0.119023	0.110929	0.025078	-0.239258	0.669678	0.307617	0.473822	-0.744635	-0.246556	-0.400277
59478		8.188694	-5.191937	-2.147949	-0.095360	0.086773	0.022653	-0.235840	0.670654	0.301758	0.473498	-0.744787	-0.245747	-0.400874
59479		8.191513	-5.429531	-2.542860	-0.097092	0.120551	0.017704	-0.240479	0.667969	0.301025	0.473280	-0.744792	-0.244924	-0.401627
59480		7.921610	-5.207876	-2.376095	-0.060212	0.117521	0.014819	-0.234131	0.657227	0.301758	0.473245	-0.744657	-0.244228	-0.402341
59481		7.801958	-5.009854	-2.117375	-0.038586	0.064129	0.005061	-0.238770	0.666016	0.303955	0.473213	-0.744600	-0.243882	-0.402692
59482		7.905915	-4.905545	-2.169279	-0.046145	0.039807	0.004401	-0.241455	0.672607	0.300293	0.473068	-0.744658	-0.243587	-0.402935
59483		8.166494	-5.046148	-2.369178	-0.076746	0.070195	-0.013226	-0.244385	0.674316	0.304932	0.472761	-0.744679	-0.243226	-0.403474
59484		7.858954	-5.116703	-2.328371	-0.073767	0.079120	-0.017357	-0.240967	0.662598	0.306641	0.472444	-0.744665	-0.242814	-0.404119
59485		7.855348	-5.449400	-2.329134	-0.013618	0.046179	-0.019226	-0.242188	0.661621	0.302490	0.472407	-0.744536	-0.242713	-0.404460
59486		7.855445	-5.779500	-2.276376	0.029753	-0.002230	-0.014756	-0.241699	0.664062	0.305176	0.472568	-0.744397	-0.242947	-0.404388
59487		8.064202	-5.821616	-2.509481	0.099473	-0.024623	0.008282	-0.244629	0.665039	0.301758	0.473191	-0.744111	-0.243348	-0.403944
59488		8.171130	-5.184263	-2.333506	0.148834	-0.027112	0.051309	-0.249756	0.668457	0.303467	0.474249	-0.743722	-0.243654	-0.403234
59489		8.297620	-4.773076	-2.490001	0.110708	0.013399	0.065132	-0.242676	0.666260	0.291748	0.475145	-0.743394	-0.243517	-0.402868
59490		8.250215	-4.504979	-2.312621	0.046441	0.041762	0.068073	-0.243164	0.670410	0.307373	0.475805	-0.743183	-0.243181	-0.402680
59491		8.269264	-4.414724	-2.321617	-0.026296	0.040387	0.052878	-0.246094	0.661377	0.295654	0.475878	-0.743292	-0.242545	-0.402776
59492		8.279528	-4.372610	-2.238520	-0.112504	0.054837	0.024633	-0.231934	0.668701	0.306885	0.475351	-0.743615	-0.241780	-0.403263
59493		8.226478	-4.610481	-2.290704	-0.196768	0.103014	-0.008857	-0.239746	0.670654	0.303955	0.474373	-0.744038	-0.240808	-0.404215
59494		8.252574	-5.013499	-2.418744	-0.198621	0.111962	-0.031382	-0.241943	0.664062	0.304688	0.473305	-0.744381	-0.239938	-0.405350
59495		8.045942	-4.931882	-2.359961	-0.127380	0.061245	-0.023854	-0.246582	0.665283	0.303711	0.472572	-0.744638	-0.239426	-0.406036
59496		8.121815	-4.882527	-2.207299	-0.087351	0.026389	-0.011254	-0.240234	0.667969	0.303955	0.472046	-0.744876	-0.239106	-0.406399
59497		8.305409	-5.022445	-2.391913	-0.113790	0.054446	0.006000	-0.245605	0.666504	0.306641	0.471543	-0.745135	-0.238566	-0.406826
59498		8.020296	-4.867170	-2.301426	-0.105062	0.057026	0.014289	-0.241211	0.666992	0.315186	0.471068	-0.745386	-0.237921	-0.407293
59499		8.087920	-4.963938	-2.285986	-0.082827	0.024234	0.005718	-0.245605	0.665771	0.312500	0.470640	-0.745660	-0.237504	-0.407531
59500		8.063856	-5.119002	-2.476523	-0.075150	0.016737	-0.006739	-0.239258	0.663574	0.308838	0.470179	-0.745902	-0.237210	-0.407790
59501		8.255800	-5.149463	-2.273134	-0.043489	0.008413	-0.012251	-0.245361	0.670410	0.310303	0.469949	-0.746012	-0.237182	-0.407871
59502		8.378430	-4.823443	-2.057446	-0.032326	0.013111	0.004521	-0.240723	0.667969	0.308594	0.469833	-0.746097	-0.237054	-0.407923
59503		8.479814	-4.698073	-2.107163	-0.069541	0.040611	0.007135	-0.241699	0.665771	0.319092	0.469587	-0.746226	-0.236723	-0.408162
59504		8.344590	-4.976179	-2.339926	-0.119218	0.108372	-0.002977	-0.242920	0.666748	0.327881	0.469064	-0.746340	-0.235900	-0.409032
59505		8.209057	-4.983778	-2.136746	-0.095204	0.100078	-0.007236	-0.250732	0.663330	0.324707	0.468623	-0.746402	-0.235150	-0.409856
59506		8.179963	-4.997955	-2.180862	-0.084271	0.111341	-0.008423	-0.238770	0.662842	0.321289	0.468205	-0.746390	-0.234342	-0.410816
59507		8.095979	-4.982251	-2.259377	-0.084004	0.132797	-0.014139	-0.244629	0.659180	0.315430	0.467940	-0.746250	-0.233644	-0.411769
59508		8.160869	-4.959055	-2.097311	-0.070673	0.116754	-0.013532	-0.242676	0.664062	0.319092	0.467698	-0.746111	-0.233036	-0.412640
59509		8.192629	-4.918993	-2.015541	-0.079934	0.083707	-0.016684	-0.241943	0.666504	0.315430	0.467359	-0.746107	-0.232581	-0.413287
59510		8.241791	-4.930044	-2.154202	-0.089339	0.093905	-0.019733	-0.238770	0.656982	0.324219	0.467017	-0.746075	-0.232147	-0.413974
59511		8.178032	-5.053845	-2.180669	-0.103621	0.131928	-0.032481	-0.256592	0.658936	0.320312	0.466562	-0.745981	-0.231486	-0.415027
59512		8.047077	-5.044922	-2.153890	-0.059471	0.104851	-0.048029	-0.243652	0.658203	0.320801	0.466156	-0.745797	-0.231067	-0.416046
59513		8.249895	-4.780971	-2.058009	-0.024500	0.047600	-0.050617	-0.249268	0.661133	0.321777	0.465973	-0.745638	-0.231148	-0.416491
59514		8.292957	-4.727603	-2.040205	-0.029084	0.032486	-0.055802	-0.240967	0.658936	0.315186	0.465686	-0.745544	-0.231275	-0.416908
59515		8.275857	-4.761313	-2.124885	-0.062673	0.043090	-0.063177	-0.247803	0.662598	0.322998	0.465286	-0.745493	-0.231423	-0.417364
59516		8.312437	-4.814181	-2.086208	-0.075412	0.057994	-0.073640	-0.254395	0.658691	0.321533	0.464740	-0.745442	-0.231453	-0.418046
59517		8.227179	-4.920144	-2.078771	-0.070608	0.062016	-0.079867	-0.250000	0.651611	0.321289	0.464144	-0.745364	-0.231447	-0.418851
59518		8.175213	-5.007110	-2.170123	-0.061482	0.036477	-0.082829	-0.249268	0.655273	0.319336	0.463558	-0.745335	-0.231593	-0.419470
59519		8.074226	-5.036609	-2.134015	-0.041558	0.018317	-0.068414	-0.250000	0.654297	0.319824	0.463167	-0.745296	-0.231870	-0.419818
59520		8.056813	-5.070845	-2.073344	-0.062437	0.015070	-0.053415	-0.259277	0.651611	0.322510	0.462688	-0.745379	-0.231987	-0.420134
59521		8.128335	-5.103129	-2.232200	-0.079240	0.019608	-0.045247	-0.257324	0.650391	0.321289	0.462033	-0.745563	-0.231838	-0.420610
59522		8.233985	-5.150893	-2.258586	-0.099443	0.043314	-0.029288	-0.253174	0.657959	0.324951	0.461384	-0.745760	-0.231467	-0.421176
59523		8.147175	-5.192377	-2.382341	-0.099123	0.051223	0.001066	-0.258789	0.668213	0.330566	0.460951	-0.745957	-0.230996	-0.421562
59524		8.130853	-5.171893	-2.383267	-0.071363	0.041750	0.022504	-0.259033	0.646973	0.330566	0.460754	-0.746113	-0.230547	-0.421745
59525		8.093585	-4.977857	-2.237167	-0.058744	0.040159	0.020431	-0.260742	0.660156	0.319092	0.460471	-0.746289	-0.229933	-0.422078
59526		8.160816	-4.962818	-2.136387	-0.070791	0.031658	0.014158	-0.261230	0.649170	0.330078	0.460200	-0.746460	-0.229557	-0.422276
59527		8.130222	-5.057847	-2.225955	-0.077797	0.036380	0.003593	-0.253662	0.654053	0.333008	0.459736	-0.746682	-0.229011	-0.422685
59528		8.150547	-5.037413	-2.252177	-0.075849	0.046833	-0.008388	-0.254639	0.645996	0.328125	0.459368	-0.746805	-0.228636	-0.423071
59529		8.221712	-4.982861	-2.175338	-0.057396	0.042925	-0.013103	-0.259521	0.654541	0.323242	0.459048	-0.746874	-0.228318	-0.423468
59530		8.196312	-4.877995	-2.235541	-0.050672	0.041500	-0.011829	-0.261719	0.654541	0.334961	0.458811	-0.746894	-0.228102	-0.423805
59531		8.214558	-4.791679	-2.141830	-0.046807	0.014685	-0.016548	-0.266846	0.657227	0.332031	0.458474	-0.747018	-0.227937	-0.424040
59532		8.194616	-4.703826	-2.154205	-0.061737	0.013106	-0.022672	-0.262695	0.650635	0.326904	0.458006	-0.747187	-0.227763	-0.424342
59533		8.286706	-4.777032	-2.111757	-0.086123	0.031456	-0.027360	-0.257812	0.647217	0.329590	0.457424	-0.747368	-0.227484	-0.424800
59534		8.401119	-4.907589	-2.279109	-0.093739	0.049480	-0.018251	-0.261963	0.651367	0.330322	0.456884	-0.747531	-0.227071	-0.425315
59535		8.166474	-4.995210	-2.246218	-0.074271	0.063225	-0.011952	-0.261475	0.650146	0.338867	0.456512	-0.747578	-0.226644	-0.425861
59536		8.159160	-5.011047	-2.325491	-0.030509	0.028293	-0.017436	-0.263428	0.647461	0.340576	0.456301	-0.747591	-0.226487	-0.426146
59537		8.147424	-4.860808	-2.265848	0.006902	0.005082	-0.017808	-0.260498	0.643555	0.334961	0.456239	-0.747560	-0.226499	-0.426261
59538		8.318489	-4.737691	-2.208846	0.006474	-0.018182	-0.010586	-0.262695	0.646973	0.336182	0.456179	-0.747616	-0.226587	-0.426180
59539		8.395764	-4.724441	-2.086146	-0.007070	-0.013938	-0.012236	-0.267090	0.652832	0.333008	0.456037	-0.747703	-0.226624	-0.426160
59540		8.290261	-4.760891	-2.202714	-0.023416	0.002734	-0.015388	-0.265137	0.644775	0.329346	0.455826	-0.747770	-0.226598	-0.426281
59541		8.293576	-4.721420	-2.227564	-0.019783	0.022188	-0.020331	-0.252441	0.651123	0.338867	0.455640	-0.747752	-0.226515	-0.426555
59542		8.310031	-4.694223	-2.165193	-0.026113	0.020686	-0.018603	-0.254883	0.655273	0.337402	0.455540	-0.747746	-0.226530	-0.426666
59543		8.305313	-4.789138	-2.153788	-0.055802	0.024470	-0.011204	-0.259277	0.646729	0.333008	0.455307	-0.747839	-0.226416	-0.426812
59544		8.354902	-4.901467	-2.242754	-0.059608	0.041328	-0.010787	-0.262939	0.650391	0.336670	0.455006	-0.747908	-0.226129	-0.427164
59545		8.297106	-4.941321	-2.356775	-0.026671	0.054814	0.002137	-0.262451	0.640625	0.336670	0.454968	-0.747832	-0.225812	-0.427505
59546		8.293794	-4.753174	-2.153313	-0.003101	0.038548	0.012898	-0.256592	0.646484	0.342773	0.455021	-0.747773	-0.225480	-0.427726
59547		8.287535	-4.726614	-2.133391	0.013968	0.024737	0.009788	-0.267822	0.645508	0.331299	0.455218	-0.747677	-0.225366	-0.427746
59548		8.253382	-4.817093	-2.132562	-0.003499	0.029199	0.001406	-0.263916	0.648438	0.344971	0.455213	-0.747616	-0.225165	-0.427963
59549		8.361604	-4.776096	-2.088340	-0.028800	0.042802	0.004893	-0.261719	0.650879	0.335205	0.455097	-0.747625	-0.224786	-0.428269
59550		8.403401	-4.738016	-2.079422	-0.074569	0.075299	0.005363	-0.261475	0.647461	0.334473	0.454833	-0.747655	-0.224231	-0.428789
59551		8.357161	-4.792708	-2.031483	-0.114724	0.100286	0.006137	-0.268555	0.648682	0.336182	0.454357	-0.747752	-0.223415	-0.429549
59552		8.192487	-5.115565	-2.127328	-0.133640	0.122201	0.007167	-0.263672	0.647949	0.339355	0.453755	-0.747855	-0.222385	-0.430539
59553		8.011890	-5.304569	-2.158169	-0.090302	0.070515	0.017776	-0.265625	0.649170	0.346680	0.453406	-0.747992	-0.221682	-0.431032
59554		8.093475	-5.265166	-2.142126	-0.001706	0.004330	0.038718	-0.261963	0.656250	0.340820	0.453535	-0.748085	-0.221373	-0.430894
59555		8.292037	-4.924919	-2.134678	0.024996	-0.005627	0.065728	-0.260986	0.644531	0.336914	0.454004	-0.748122	-0.221165	-0.430442
59556		8.438033	-4.693713	-2.052167	0.003485	-0.000148	0.078312	-0.262207	0.650635	0.339844	0.454325	-0.748269	-0.220682	-0.430095
59557		8.495689	-4.576260	-2.119653	-0.078456	0.054625	0.082231	-0.247559	0.652100	0.340820	0.454260	-0.748532	-0.219694	-0.430212
59558		8.355231	-4.617421	-2.099754	-0.132929	0.085413	0.077981	-0.255859	0.652100	0.337158	0.454034	-0.748847	-0.218586	-0.430467
59559		8.243634	-4.723075	-2.046009	-0.155282	0.081528	0.083072	-0.254395	0.648926	0.344727	0.453618	-0.749275	-0.217318	-0.430802
59560		8.264583	-4.718659	-2.028402	-0.123756	0.066028	0.078957	-0.261475	0.645752	0.350342	0.453328	-0.749649	-0.216206	-0.431016
59561		8.472068	-4.694429	-2.038924	-0.123462	0.099140	0.094854	-0.258057	0.645264	0.346436	0.453049	-0.749966	-0.214729	-0.431496
59562		8.415465	-4.554821	-2.185687	-0.177353	0.153335	0.106798	-0.253906	0.650146	0.345459	0.452610	-0.750295	-0.212829	-0.432325
59563		8.399205	-4.509232	-2.020176	-0.243567	0.145158	0.104549	-0.256836	0.650391	0.343994	0.451817	-0.750865	-0.210853	-0.433133
59564		8.332165	-4.630043	-1.962897	-0.301134	0.148029	0.098710	-0.257080	0.641113	0.352051	0.450630	-0.751623	-0.208680	-0.434106
59565		8.220257	-4.946901	-2.390737	-0.345444	0.160118	0.095959	-0.251953	0.640625	0.345703	0.449091	-0.752529	-0.206197	-0.435316
59566		8.115302	-5.005782	-2.389754	-0.313243	0.162412	0.111895	-0.250244	0.645264	0.345947	0.447887	-0.753296	-0.203824	-0.436345
59567		8.177768	-4.896274	-1.979503	-0.256902	0.119947	0.125827	-0.257568	0.642578	0.356934	0.447081	-0.753999	-0.201827	-0.436887
59568		8.186920	-4.935859	-1.979729	-0.280822	0.096183	0.123966	-0.246826	0.634766	0.362061	0.445963	-0.754908	-0.199691	-0.437442
59569		8.187616	-5.183960	-2.300991	-0.308051	0.104047	0.121358	-0.250732	0.645264	0.357666	0.444717	-0.755881	-0.197491	-0.438027
59570		8.110464	-5.289948	-2.770685	-0.270321	0.115294	0.145107	-0.249756	0.639648	0.372314	0.443876	-0.756669	-0.195341	-0.438485
59571		7.966608	-5.159075	-2.531654	-0.169225	0.081378	0.160549	-0.250732	0.639893	0.369629	0.443622	-0.757257	-0.193525	-0.438531
59572		7.950626	-5.091731	-1.964321	-0.080187	0.029721	0.153494	-0.240479	0.634033	0.358398	0.443804	-0.757690	-0.192246	-0.438161
59573		7.971136	-5.116235	-1.919314	-0.073783	-0.009764	0.140338	-0.246826	0.640137	0.363525	0.443958	-0.758210	-0.191264	-0.437535
59574		8.035197	-5.196124	-2.255887	-0.088729	-0.008313	0.126336	-0.242432	0.637939	0.371582	0.443934	-0.758759	-0.190273	-0.437041
59575		8.256498	-5.222062	-2.505908	-0.091600	0.014425	0.124352	-0.240234	0.639404	0.370605	0.443934	-0.759237	-0.189228	-0.436664
59576		8.286321	-4.937859	-2.434125	-0.092475	0.023480	0.116971	-0.238281	0.640381	0.371582	0.443942	-0.759663	-0.188235	-0.436344
59577		8.199798	-4.800816	-2.288052	-0.109288	0.014304	0.100936	-0.238281	0.641113	0.369385	0.443793	-0.760151	-0.187356	-0.436023
59578		8.001071	-4.985629	-2.227135	-0.145517	0.008583	0.078562	-0.226562	0.646729	0.375244	0.443319	-0.760755	-0.186502	-0.435817
59579		7.890433	-5.120658	-2.278484	-0.159436	0.006769	0.071732	-0.237549	0.639893	0.380859	0.442949	-0.761347	-0.186008	-0.435371
59580		8.004149	-5.236172	-2.435397	-0.157067	0.000695	0.064244	-0.242188	0.632812	0.377441	0.442351	-0.761997	-0.185279	-0.435152
59581		8.129990	-5.164475	-2.384654	-0.146489	-0.011287	0.055425	-0.234863	0.626709	0.375732	0.441602	-0.762686	-0.184402	-0.435079
59582		8.065787	-5.253299	-2.504449	-0.145151	-0.011595	0.050957	-0.235107	0.641357	0.378906	0.440858	-0.763368	-0.183575	-0.434987
59583		8.000961	-5.270711	-2.351556	-0.150471	-0.027618	0.053884	-0.234863	0.639648	0.385010	0.440252	-0.764060	-0.183085	-0.434592
59584		7.938836	-5.218934	-2.223134	-0.138905	-0.029730	0.063467	-0.226074	0.628418	0.384033	0.439748	-0.764734	-0.182592	-0.434125
59585		7.889337	-5.161474	-2.199259	-0.141987	-0.020944	0.062730	-0.232666	0.639404	0.389160	0.439201	-0.765411	-0.182006	-0.433730
59586		7.858211	-5.324913	-2.265580	-0.133149	-0.007163	0.049446	-0.227295	0.632812	0.387939	0.438750	-0.765947	-0.181607	-0.433407
59587		7.944087	-5.282449	-2.452016	-0.104495	-0.006450	0.047724	-0.229004	0.637207	0.390381	0.438459	-0.766387	-0.181290	-0.433057
59588		8.088741	-5.030822	-2.428349	-0.086392	-0.021934	0.046831	-0.227295	0.632324	0.388672	0.438304	-0.766793	-0.181189	-0.432538
59589		8.107627	-4.876864	-2.488711	-0.075278	-0.046969	0.021165	-0.223877	0.625732	0.387695	0.438027	-0.767233	-0.181275	-0.432001
59590		8.163290	-4.958735	-2.365259	-0.095919	-0.017209	0.003148	-0.228271	0.636230	0.389648	0.437537	-0.767641	-0.181188	-0.431809
59591		8.102209	-4.981879	-2.253434	-0.115771	0.015728	-0.010166	-0.225342	0.627197	0.399414	0.437030	-0.767932	-0.181184	-0.431807
59592		8.227780	-5.055036	-2.320089	-0.145501	0.024531	-0.008346	-0.231201	0.634277	0.393066	0.436333	-0.768321	-0.181024	-0.431887
59593		8.212888	-5.127080	-2.601329	-0.126126	0.014968	-0.007983	-0.225586	0.629395	0.390869	0.435731	-0.768662	-0.180912	-0.431935
59594		7.960017	-5.305930	-2.663735	-0.110943	0.002652	0.008033	-0.224609	0.636230	0.394287	0.435274	-0.769023	-0.180818	-0.431794
59595		7.754577	-5.320476	-2.529791	-0.102056	0.003452	0.022506	-0.230713	0.630371	0.401123	0.435105	-0.769304	-0.180991	-0.431390
59596		7.807092	-5.253399	-2.526602	-0.086347	-0.016132	0.038407	-0.229980	0.630127	0.391357	0.434903	-0.769674	-0.180904	-0.430970
59597		7.893803	-5.268106	-2.538554	-0.068313	-0.028363	0.058107	-0.226562	0.625977	0.394043	0.434771	-0.770083	-0.180599	-0.430500
59598		7.779343	-5.303376	-2.595634	-0.030859	-0.044715	0.057850	-0.217773	0.633057	0.397949	0.434845	-0.770424	-0.180487	-0.429861
59599		7.737454	-5.429353	-2.805632	-0.003254	-0.060115	0.050628	-0.220703	0.628418	0.396240	0.435391	-0.770595	-0.181237	-0.428685
59600		7.761309	-5.209907	-2.725116	0.053951	-0.100327	0.044884	-0.223389	0.621826	0.400879	0.436027	-0.770758	-0.182009	-0.427417
59601		7.882743	-4.991151	-2.497561	0.105196	-0.131796	0.034743	-0.218262	0.633057	0.400391	0.436718	-0.770898	-0.182800	-0.426119
59602		8.002745	-4.929745	-2.596677	0.129987	-0.132684	0.020685	-0.222168	0.635498	0.399658	0.437837	-0.770806	-0.184380	-0.424453
59603		8.119086	-4.829682	-2.561276	0.114302	-0.097464	0.023057	-0.230469	0.638672	0.400635	0.438847	-0.770663	-0.185619	-0.423128
59604		8.148940	-4.943750	-2.632749	0.097282	-0.083855	0.005894	-0.220215	0.626465	0.392334	0.439571	-0.770540	-0.186575	-0.422178
59605		8.126720	-4.970082	-2.680395	0.086255	-0.076780	-0.001394	-0.222656	0.641113	0.395996	0.440022	-0.770515	-0.187186	-0.421484
59606		8.079592	-4.816156	-2.526289	0.090293	-0.084108	0.003053	-0.215820	0.639404	0.396729	0.440835	-0.770363	-0.188433	-0.420355
59607		8.012851	-4.840321	-2.639187	0.080412	-0.068479	0.014577	-0.215820	0.635742	0.387695	0.441769	-0.770172	-0.189777	-0.419119
59608		8.057609	-4.859920	-2.533824	0.061466	-0.049926	0.028910	-0.214355	0.636719	0.394043	0.442421	-0.770100	-0.190426	-0.418267
59609		8.237901	-4.701259	-2.565420	0.056210	-0.047547	0.022907	-0.218018	0.629639	0.396729	0.443154	-0.769978	-0.191363	-0.417287
59610		8.270777	-4.657520	-2.533363	0.033655	-0.024899	0.012781	-0.219482	0.642822	0.395996	0.443468	-0.769954	-0.191664	-0.416860
59611		8.340502	-4.624576	-2.518047	0.017460	-0.010607	-0.006494	-0.220703	0.638672	0.390625	0.443940	-0.769770	-0.192556	-0.416285
59612		8.413773	-4.558712	-2.570410	0.010423	0.004336	-0.034243	-0.215332	0.633545	0.399414	0.444060	-0.769612	-0.193080	-0.416207
59613		8.487989	-4.418281	-2.557954	-0.045599	0.041533	-0.065878	-0.216797	0.647461	0.394775	0.443922	-0.769433	-0.193819	-0.416342
59614		8.224253	-4.707230	-2.641754	-0.102479	0.079194	-0.095725	-0.217773	0.638672	0.389893	0.443718	-0.769127	-0.195056	-0.416546
59615		7.952094	-5.312247	-2.822837	-0.105767	0.084885	-0.111114	-0.235352	0.642822	0.396729	0.443143	-0.768921	-0.195764	-0.417207
59616		7.933487	-5.510886	-2.669299	-0.033738	0.052929	-0.103734	-0.228760	0.632568	0.397461	0.442811	-0.768621	-0.196326	-0.417847
59617		8.068990	-5.302784	-2.586871	0.012562	0.041128	-0.066432	-0.227539	0.633301	0.395020	0.442818	-0.768302	-0.196783	-0.418211
59618		7.857360	-5.108573	-2.400127	-0.018656	0.063676	-0.019675	-0.230469	0.635986	0.389648	0.442878	-0.768076	-0.196857	-0.418528
59619		7.594966	-5.093639	-2.421256	-0.051026	0.082536	0.014398	-0.231445	0.637451	0.398193	0.442803	-0.767985	-0.196355	-0.419009
59620		7.849539	-5.256971	-2.321959	-0.011689	0.069346	0.037077	-0.229004	0.631836	0.396240	0.443233	-0.767748	-0.196280	-0.419025
59621		8.336641	-5.179884	-2.278154	0.033488	0.063950	0.041649	-0.222656	0.637207	0.392334	0.443806	-0.767444	-0.196073	-0.419073
59622		8.420891	-4.901289	-2.684158	-0.002986	0.081183	0.013526	-0.236572	0.634521	0.394531	0.444365	-0.767051	-0.196449	-0.419023
59623		7.998111	-4.501201	-2.708736	-0.037579	0.071536	-0.037722	-0.228027	0.629150	0.399414	0.444053	-0.766909	-0.196097	-0.419779
59624		7.718790	-4.787022	-2.439225	-0.023042	0.060422	-0.072708	-0.228027	0.634766	0.400635	0.443898	-0.766627	-0.196534	-0.420252
59625		8.301323	-5.073815	-2.275284	0.030047	0.048533	-0.072713	-0.229492	0.636230	0.393555	0.444323	-0.766077	-0.197708	-0.420256
59626		8.813180	-4.975418	-2.522468	0.037701	0.059559	-0.067818	-0.231689	0.637207	0.393066	0.444745	-0.765500	-0.198653	-0.420415
59627		8.575333	-4.802877	-2.693161	-0.038344	0.075778	-0.061952	-0.230713	0.628174	0.398926	0.444733	-0.765152	-0.199232	-0.420786
59628		7.856811	-4.448313	-2.445917	-0.118084	0.115562	-0.060736	-0.241211	0.634033	0.387451	0.444157	-0.765027	-0.199161	-0.421656
59629		7.380570	-4.584749	-1.850430	-0.144372	0.148667	-0.051273	-0.226318	0.638184	0.396240	0.443204	-0.765001	-0.198157	-0.423175
59630		8.056337	-5.469455	-2.059928	-0.127060	0.200529	0.001811	-0.231445	0.633545	0.391357	0.443489	-0.764474	-0.198449	-0.423692
59631		8.367656	-5.519000	-2.705575	-0.099165	0.196425	0.010099	-0.229248	0.626465	0.387695	0.443613	-0.764021	-0.198074	-0.424554
59632		8.153324	-5.435356	-3.219406	-0.056135	0.093450	-0.030390	-0.232666	0.624023	0.391602	0.443463	-0.763817	-0.198067	-0.425081
59633		7.647483	-5.120278	-2.776898	-0.006146	0.001005	-0.075977	-0.229980	0.618408	0.395752	0.443239	-0.763711	-0.198707	-0.425207
59634		7.472185	-5.089410	-2.338636	0.051636	-0.030360	-0.125928	-0.235107	0.626221	0.400635	0.443148	-0.763431	-0.200013	-0.425191
59635		8.088510	-5.066558	-2.003156	0.152118	-0.050237	-0.122879	-0.240723	0.634521	0.402588	0.443969	-0.762712	-0.202253	-0.424566
59636		8.676069	-4.443223	-2.203974	0.162882	-0.040846	-0.121068	-0.238770	0.627686	0.399170	0.445108	-0.761800	-0.204877	-0.423751
59637		8.483148	-4.579135	-2.765969	0.094525	-0.016923	-0.150348	-0.249512	0.624268	0.398193	0.445506	-0.761120	-0.206919	-0.423564
59638		7.953136	-4.873132	-2.731366	0.060677	-0.029777	-0.169342	-0.245117	0.625000	0.394531	0.445148	-0.760765	-0.208073	-0.424011
59639		7.658786	-5.108003	-2.451661	0.088969	-0.044848	-0.174271	-0.239746	0.625977	0.393066	0.445083	-0.760286	-0.209763	-0.424106
59640		7.699346	-5.097401	-2.052391	0.176529	-0.076862	-0.154957	-0.242676	0.625244	0.391113	0.445820	-0.759526	-0.212264	-0.423449
59641		8.228784	-5.010782	-2.244497	0.228434	-0.063122	-0.095180	-0.251953	0.625732	0.387939	0.446994	-0.758680	-0.214265	-0.422718
59642		8.470472	-4.806901	-2.594378	0.184634	-0.055955	-0.070795	-0.243408	0.629150	0.381104	0.447667	-0.758150	-0.215237	-0.422464
59643		8.454290	-4.632739	-2.835255	0.113499	-0.059700	-0.102766	-0.253418	0.633545	0.390381	0.448027	-0.757730	-0.216736	-0.422069
59644		8.351097	-4.548268	-2.334540	0.079342	-0.088524	-0.143844	-0.253418	0.622314	0.382080	0.448075	-0.757396	-0.218597	-0.421659
59645		8.182584	-4.755015	-2.016689	0.096322	-0.085216	-0.172763	-0.249512	0.629883	0.391846	0.447546	-0.757225	-0.219585	-0.422013
59646		8.213572	-4.889673	-2.166648	0.155088	-0.062337	-0.161871	-0.256348	0.631104	0.382324	0.448135	-0.756450	-0.221938	-0.421546
59647		8.381349	-4.660103	-2.413741	0.172699	-0.026607	-0.132458	-0.259521	0.635986	0.376953	0.448711	-0.755668	-0.223423	-0.421553
59648		8.444891	-4.724164	-2.589729	0.126046	-0.010067	-0.117705	-0.254639	0.625488	0.376465	0.449112	-0.755001	-0.224638	-0.421674
59649		8.289233	-4.951942	-2.403254	0.080769	-0.010290	-0.127351	-0.256104	0.629639	0.379883	0.448961	-0.754620	-0.225376	-0.422123
59650		8.097097	-4.984933	-2.362954	0.084386	-0.037361	-0.161485	-0.264160	0.621826	0.377930	0.448896	-0.754134	-0.226887	-0.422251
59651		8.132649	-4.941792	-2.226805	0.125315	-0.057948	-0.171842	-0.260010	0.635254	0.382812	0.448535	-0.753782	-0.227734	-0.422808
59652		8.297655	-4.809819	-1.979052	0.130059	-0.050942	-0.147361	-0.272217	0.626953	0.373291	0.449040	-0.753059	-0.229847	-0.422416
59653		8.201009	-4.845378	-2.190267	0.080503	-0.011449	-0.124434	-0.267090	0.627441	0.371826	0.448666	-0.752780	-0.230044	-0.423203
59654		8.010233	-5.169223	-2.347487	0.056505	-0.004338	-0.108067	-0.268799	0.627197	0.373047	0.448389	-0.752517	-0.230413	-0.423764
59655		7.868908	-5.367069	-2.336931	0.094826	-0.042711	-0.092871	-0.275635	0.619873	0.369141	0.448353	-0.752262	-0.231005	-0.423931
59656		7.907529	-5.256753	-2.387176	0.175028	-0.114688	-0.087633	-0.257080	0.629639	0.365723	0.448284	-0.752179	-0.231300	-0.423991
59657		8.170824	-5.074759	-2.465264	0.242025	-0.143699	-0.092665	-0.271484	0.633057	0.375000	0.449224	-0.751622	-0.233333	-0.422868
59658		8.339293	-4.661802	-2.449533	0.274368	-0.157872	-0.097823	-0.271240	0.628418	0.362793	0.450271	-0.750979	-0.235389	-0.421757
59659		8.461933	-4.246345	-2.382439	0.251475	-0.155544	-0.097564	-0.261719	0.634766	0.361572	0.450864	-0.750577	-0.236764	-0.421068
59660		8.629533	-4.209487	-2.210843	0.202608	-0.125331	-0.110048	-0.270508	0.633301	0.364502	0.451517	-0.750053	-0.238651	-0.420236
59661		8.415773	-4.372504	-2.173827	0.126809	-0.076649	-0.117856	-0.277344	0.630371	0.360840	0.451609	-0.749696	-0.239798	-0.420121
59662		8.203557	-4.665404	-2.320803	0.110835	-0.069160	-0.120796	-0.272217	0.632080	0.360107	0.451381	-0.749478	-0.240427	-0.420396
59663		8.164364	-5.149575	-2.650931	0.138198	-0.081075	-0.109634	-0.268555	0.632568	0.358154	0.451501	-0.749142	-0.241469	-0.420269
59664		8.303145	-5.093284	-2.478170	0.220568	-0.126629	-0.086864	-0.276611	0.627441	0.353271	0.452191	-0.748670	-0.242980	-0.419497
59665		8.307290	-4.715785	-2.430255	0.276475	-0.189652	-0.074817	-0.276367	0.630127	0.353027	0.452835	-0.748385	-0.244233	-0.418581
59666		8.130425	-4.742909	-2.456391	0.253062	-0.205165	-0.057111	-0.267334	0.633057	0.353516	0.453443	-0.748231	-0.245507	-0.417452
59667		8.293440	-4.872979	-2.329682	0.241722	-0.184280	-0.045692	-0.272461	0.634521	0.353516	0.454253	-0.747975	-0.246993	-0.416151
59668		8.550872	-4.573385	-2.451776	0.203852	-0.144706	-0.033705	-0.277588	0.637207	0.349365	0.454902	-0.747764	-0.248011	-0.415216
59669		8.540920	-4.309983	-2.235395	0.131495	-0.101283	-0.025245	-0.267822	0.639893	0.347900	0.455173	-0.747707	-0.248450	-0.414759
59670		8.354618	-4.439285	-2.283308	0.078942	-0.070779	-0.041709	-0.266602	0.635254	0.352539	0.455284	-0.747635	-0.249037	-0.414415
59671		8.447526	-4.720230	-2.393625	0.093111	-0.011249	-0.049514	-0.269775	0.634766	0.347412	0.455531	-0.747318	-0.249419	-0.414485
59672		8.494778	-4.444394	-2.263421	0.092683	0.011519	-0.046170	-0.274902	0.638672	0.347900	0.455761	-0.746966	-0.249543	-0.414791
59673		8.493506	-4.337841	-2.288255	0.040457	0.029800	-0.063065	-0.272949	0.637207	0.352783	0.455690	-0.746680	-0.249589	-0.415356
59674		8.430219	-4.411655	-2.195148	0.002236	0.028282	-0.062034	-0.275391	0.638916	0.342529	0.455422	-0.746529	-0.249600	-0.415914
59675		8.278154	-4.543437	-2.221578	0.006082	-0.004626	-0.051658	-0.279053	0.636475	0.350342	0.455109	-0.746515	-0.249599	-0.416284
59676		8.495704	-4.842840	-2.387179	0.045326	-0.002577	-0.049976	-0.271973	0.641846	0.340332	0.455034	-0.746352	-0.249691	-0.416602
59677		8.442748	-4.425268	-2.238567	0.085001	-0.013768	-0.064017	-0.280762	0.627686	0.347656	0.455248	-0.745995	-0.250271	-0.416659
59678		8.300792	-4.284846	-2.331533	0.077305	-0.021072	-0.118696	-0.274658	0.626953	0.347656	0.454935	-0.745720	-0.250683	-0.417244
59679		8.217527	-4.238743	-2.343343	0.051067	-0.053820	-0.175581	-0.273926	0.639404	0.343994	0.454262	-0.745514	-0.251636	-0.417773
59680		8.411349	-4.509611	-2.366499	0.093740	-0.076812	-0.213625	-0.276611	0.635986	0.339844	0.453892	-0.745023	-0.253462	-0.417947
59681		8.438469	-4.604250	-2.284829	0.138707	-0.087473	-0.208744	-0.278809	0.627686	0.340820	0.453727	-0.744442	-0.255327	-0.418027
59682		8.492042	-4.326191	-2.245771	0.185724	-0.121846	-0.169113	-0.286133	0.625244	0.344482	0.453801	-0.743950	-0.257034	-0.417775
59683		8.485912	-4.500434	-2.419913	0.203777	-0.132460	-0.102178	-0.278320	0.629395	0.335938	0.454149	-0.743584	-0.258344	-0.417240
59684		8.458076	-4.598995	-2.438128	0.160971	-0.112589	-0.007206	-0.280762	0.637207	0.340088	0.454692	-0.743478	-0.259005	-0.416429
59685		8.455246	-4.592877	-2.398296	0.099649	-0.122194	0.044727	-0.272461	0.645020	0.336670	0.455116	-0.743683	-0.259354	-0.415379
59686		8.481803	-4.349440	-2.480494	0.058973	-0.126011	0.060645	-0.272217	0.636719	0.334961	0.455456	-0.744033	-0.259700	-0.414163
59687		8.341290	-4.281674	-2.664635	0.025920	-0.163586	0.071616	-0.266846	0.641357	0.333984	0.455419	-0.744731	-0.259776	-0.412900
59688		8.369008	-4.635815	-2.692902	-0.009861	-0.116819	0.073931	-0.281494	0.639404	0.339111	0.455338	-0.745374	-0.259663	-0.411898
59689		8.359996	-4.696141	-2.600188	0.004528	-0.097647	0.072449	-0.280518	0.642822	0.336426	0.455294	-0.745913	-0.259363	-0.411159
59690		8.331174	-4.591089	-2.367577	0.025298	-0.091782	0.056721	-0.274658	0.636475	0.344727	0.455373	-0.746297	-0.259270	-0.410434
59691		8.171520	-4.675030	-2.461675	0.018500	-0.085995	0.019982	-0.274414	0.638672	0.331055	0.455253	-0.746643	-0.259300	-0.409918
59692		8.082265	-5.130023	-2.840703	0.021080	-0.032153	-0.016217	-0.264893	0.642578	0.342041	0.455145	-0.746710	-0.259348	-0.409884
59693		8.099460	-5.077687	-2.817720	0.101856	-0.061332	-0.024299	-0.266846	0.642334	0.335449	0.455547	-0.746518	-0.260031	-0.409354
59694		8.251325	-4.827131	-2.326034	0.167746	-0.109349	-0.002336	-0.274170	0.644775	0.342041	0.456307	-0.746293	-0.260935	-0.408342
59695		8.330813	-4.572859	-2.265526	0.127354	-0.114557	0.013033	-0.274414	0.645264	0.339844	0.456857	-0.746257	-0.261633	-0.407346
59696		8.310732	-4.477337	-2.509928	0.048536	-0.056183	0.010234	-0.261475	0.647461	0.340576	0.457027	-0.746317	-0.261844	-0.406909
59697		8.450786	-4.717799	-2.598776	-0.011361	0.016368	0.027035	-0.273682	0.651611	0.340332	0.457100	-0.746386	-0.261585	-0.406867
59698		8.222134	-4.929100	-2.828259	0.072442	0.026993	0.042868	-0.269531	0.638184	0.333008	0.457776	-0.746106	-0.261475	-0.406692
59699		8.226617	-4.723328	-2.307767	0.171921	-0.047370	0.039421	-0.268799	0.642822	0.332031	0.458753	-0.745779	-0.261747	-0.406014
59700		8.343608	-4.305579	-2.257645	0.177269	-0.093600	0.041657	-0.269043	0.641113	0.330322	0.459712	-0.745567	-0.262276	-0.404976
59701		8.507428	-3.958452	-2.240562	0.100122	-0.052616	0.030813	-0.267578	0.647461	0.337402	0.460216	-0.745501	-0.262406	-0.404441
59702		8.553474	-3.984450	-2.321673	0.012670	0.008533	0.005548	-0.267090	0.651123	0.339111	0.460289	-0.745475	-0.262289	-0.404482
59703		8.539283	-4.398844	-2.471313	-0.030754	0.047512	-0.013158	-0.261230	0.644043	0.328857	0.460151	-0.745423	-0.262060	-0.404883
59704		8.410638	-4.626878	-2.639714	-0.020578	-0.011491	-0.013033	-0.267090	0.651611	0.329834	0.459894	-0.745572	-0.261983	-0.404951
59705		8.267108	-4.660018	-2.661024	0.042429	-0.056905	0.004465	-0.270996	0.645752	0.326416	0.460049	-0.745623	-0.262294	-0.404478
59706		8.302077	-4.689269	-2.526689	0.039361	-0.067079	0.023779	-0.265869	0.643799	0.341797	0.460163	-0.745791	-0.262398	-0.403972
59707		8.395787	-4.417962	-2.551944	0.013263	-0.038048	0.025264	-0.266357	0.640625	0.339355	0.460175	-0.745982	-0.262297	-0.403670
59708		8.300757	-4.468636	-2.419246	-0.055877	0.001316	0.022068	-0.266602	0.636719	0.330322	0.459803	-0.746314	-0.261779	-0.403819
59709		8.172311	-4.713122	-2.433539	-0.040848	0.001074	0.010143	-0.264160	0.648438	0.332764	0.459457	-0.746572	-0.261332	-0.404023
59710		8.046272	-5.070819	-2.532437	-0.030691	-0.008763	0.002784	-0.264160	0.647461	0.332764	0.459235	-0.746753	-0.261190	-0.404034
59711		8.118656	-5.060497	-2.448582	-0.004442	-0.022357	-0.000218	-0.248047	0.649902	0.328613	0.459131	-0.746875	-0.261196	-0.403922
59712		8.099849	-4.995871	-2.412529	0.022102	-0.066823	0.000475	-0.261475	0.651611	0.328125	0.459139	-0.747054	-0.261510	-0.403378
59713		8.030755	-5.155117	-2.510196	0.065880	-0.074577	0.009843	-0.262939	0.648438	0.338867	0.459431	-0.747085	-0.261947	-0.402704
59714		7.986977	-5.383986	-2.695315	0.124127	-0.053915	0.019238	-0.271484	0.642822	0.329834	0.460124	-0.746865	-0.262391	-0.402032
59715		8.093781	-5.325943	-2.520644	0.192436	-0.042105	0.028408	-0.266846	0.652100	0.337646	0.461244	-0.746371	-0.262870	-0.401352
59716		8.092561	-4.984279	-2.321616	0.221412	-0.101451	0.039701	-0.262939	0.653320	0.326172	0.462513	-0.745963	-0.263715	-0.400094
59717		8.159533	-4.850069	-2.441123	0.201296	-0.104592	0.038520	-0.257568	0.653320	0.322510	0.463654	-0.745635	-0.264515	-0.398856
59718		8.284526	-4.923395	-2.448904	0.166386	-0.043927	0.038983	-0.259521	0.644775	0.325684	0.464708	-0.745248	-0.264949	-0.398062
59719		8.253638	-4.889212	-2.498174	0.139758	0.014499	0.045799	-0.258057	0.653320	0.326416	0.465672	-0.744826	-0.264901	-0.397758
59720		8.231545	-4.824255	-2.527793	0.133285	0.021152	0.046342	-0.248779	0.649170	0.318604	0.466666	-0.744377	-0.264899	-0.397433
59721		8.320999	-4.808295	-2.379877	0.095075	0.037412	0.076671	-0.267578	0.658447	0.317871	0.467538	-0.744118	-0.264464	-0.397185
59722		8.024558	-4.670644	-2.281239	0.035408	0.045225	0.080056	-0.256836	0.657227	0.321777	0.468117	-0.744003	-0.263895	-0.397097
59723		8.100386	-4.812638	-2.452324	-0.008125	0.056844	0.059200	-0.254150	0.661133	0.312744	0.468369	-0.744003	-0.263231	-0.397240
59724		8.264414	-4.870210	-2.491060	-0.000902	0.075203	0.042230	-0.255371	0.659912	0.315674	0.468690	-0.743855	-0.262680	-0.397503
59725		8.321638	-4.583691	-2.532084	0.006049	0.068482	0.031481	-0.251465	0.660889	0.322998	0.468988	-0.743686	-0.262225	-0.397769
59726		8.460525	-4.267495	-2.365985	-0.010583	0.075575	0.017722	-0.256348	0.649658	0.324219	0.469148	-0.743541	-0.261764	-0.398154
59727		8.443732	-4.274480	-2.412588	-0.072499	0.112751	0.017871	-0.256836	0.661377	0.319580	0.468927	-0.743550	-0.260829	-0.399010
59728		8.345288	-4.571979	-2.432802	-0.133617	0.160917	0.026094	-0.253662	0.655029	0.321533	0.468546	-0.743602	-0.259596	-0.400163
59729		8.300723	-4.876552	-2.415173	-0.162110	0.167489	0.046811	-0.257568	0.650146	0.315186	0.468032	-0.743815	-0.258044	-0.401372
59730		8.173653	-5.085294	-2.364533	-0.124307	0.145963	0.060852	-0.244141	0.654785	0.325439	0.467735	-0.743977	-0.256591	-0.402346
59731		8.129414	-5.143327	-2.403765	-0.102829	0.124457	0.073057	-0.255615	0.651123	0.322754	0.467587	-0.744173	-0.255228	-0.403023
59732		8.103965	-5.123861	-2.606788	-0.081577	0.129706	0.084044	-0.259033	0.661621	0.322021	0.467599	-0.744274	-0.253843	-0.403698
59733		8.178903	-4.898305	-2.298126	-0.040330	0.107416	0.090566	-0.252441	0.655518	0.325439	0.467908	-0.744256	-0.252761	-0.404049
59734		8.256146	-4.715408	-2.293551	-0.063008	0.115342	0.101114	-0.251465	0.657227	0.319580	0.468085	-0.744360	-0.251421	-0.404490
59735		8.328970	-4.689137	-2.231318	-0.116029	0.146626	0.095033	-0.250732	0.660156	0.319824	0.467997	-0.744537	-0.249848	-0.405240
59736		8.285965	-4.839713	-2.296627	-0.179010	0.161597	0.080025	-0.251465	0.651367	0.333496	0.467517	-0.744865	-0.248127	-0.406248
59737		8.150728	-4.993007	-2.426413	-0.185858	0.140119	0.081336	-0.243896	0.653076	0.337646	0.466881	-0.745334	-0.246349	-0.407200
59738		7.943237	-5.157573	-2.349527	-0.133205	0.112329	0.084223	-0.252686	0.657715	0.322266	0.466533	-0.745706	-0.244838	-0.407827
59739		7.981540	-5.230273	-2.285682	-0.076304	0.087719	0.072930	-0.242432	0.661865	0.328857	0.466508	-0.745859	-0.243796	-0.408200
59740		8.111470	-4.996461	-2.266208	-0.047455	0.060098	0.067447	-0.241455	0.659912	0.327148	0.466602	-0.745998	-0.242993	-0.408318
59741		8.125450	-4.927139	-2.459420	-0.041609	0.052892	0.049240	-0.250244	0.655762	0.334229	0.466647	-0.746105	-0.242336	-0.408461
59742		7.931732	-4.972335	-2.444772	-0.005495	0.044962	0.018519	-0.239014	0.659180	0.328857	0.466759	-0.746041	-0.241992	-0.408655
59743		7.978735	-4.954802	-2.309270	0.047093	0.015269	-0.013506	-0.244141	0.657959	0.325195	0.467059	-0.745813	-0.242156	-0.408632
59744		8.137224	-4.980206	-2.461445	0.083953	-0.016498	-0.033770	-0.252686	0.652588	0.327637	0.467450	-0.745499	-0.242700	-0.408434
59745		8.198741	-4.819575	-2.406866	0.110811	-0.048583	-0.027758	-0.251709	0.655518	0.331299	0.467924	-0.745206	-0.243386	-0.408018
59746		8.206738	-4.778339	-2.395879	0.094418	-0.043674	-0.017636	-0.243896	0.658203	0.324463	0.468347	-0.744981	-0.243944	-0.407611
59747		8.296483	-4.707805	-2.289017	0.067043	-0.013332	-0.001961	-0.254639	0.652832	0.326904	0.468737	-0.744792	-0.244206	-0.407350
59748		8.392439	-4.700935	-2.319339	0.036490	0.008718	0.007774	-0.248291	0.660400	0.330078	0.468978	-0.744666	-0.244191	-0.407312
59749		8.445507	-4.688485	-2.217243	0.035159	0.010092	0.007168	-0.247803	0.659424	0.333008	0.469246	-0.744536	-0.244207	-0.407231
59750		8.246912	-4.830050	-2.263947	0.028547	0.007720	0.005763	-0.244873	0.652344	0.328857	0.469451	-0.744446	-0.244198	-0.407165
59751		8.204368	-4.964552	-2.195243	0.017461	0.016960	0.010336	-0.249023	0.661621	0.328369	0.469588	-0.744397	-0.244027	-0.407198
59752		8.249708	-4.958666	-2.204143	-0.006513	0.010687	0.028640	-0.247314	0.654785	0.316650	0.469676	-0.744467	-0.243775	-0.407120
59753		8.274275	-5.030628	-2.220250	-0.023357	0.027606	0.045099	-0.250000	0.653076	0.333740	0.469734	-0.744583	-0.243266	-0.407145
59754		8.027258	-5.136834	-2.142472	-0.035851	0.039086	0.043977	-0.244873	0.650635	0.319092	0.469694	-0.744729	-0.242630	-0.407304
59755		8.037563	-5.048681	-2.186288	-0.023760	0.020647	0.050038	-0.243164	0.650146	0.323242	0.469728	-0.744896	-0.242073	-0.407290
59756		8.120924	-4.881126	-2.191797	-0.006948	0.019175	0.036119	-0.245361	0.656982	0.324951	0.469806	-0.744984	-0.241647	-0.407294
59757		8.171251	-4.813416	-2.112834	-0.039389	0.058961	0.018627	-0.251465	0.654297	0.328613	0.469734	-0.745008	-0.241121	-0.407644
59758		8.223918	-4.765326	-2.089686	-0.073140	0.082431	-0.001298	-0.244629	0.665771	0.330078	0.469416	-0.745042	-0.240506	-0.408312
59759		8.248935	-4.810268	-2.229001	-0.079696	0.073453	-0.023874	-0.246094	0.661133	0.322998	0.469013	-0.745076	-0.240099	-0.408951
59760		8.027877	-5.024996	-2.245650	-0.068775	0.048323	-0.040474	-0.243896	0.659668	0.327393	0.468568	-0.745114	-0.239927	-0.409492
59761		7.963470	-5.150788	-2.336709	-0.029025	0.017788	-0.062039	-0.250977	0.660156	0.336670	0.468221	-0.745073	-0.240114	-0.409854
59762		8.104686	-5.096617	-2.215733	0.008004	0.013362	-0.072445	-0.237549	0.651855	0.325439	0.468049	-0.744879	-0.240514	-0.410169
59763		8.251896	-5.071600	-2.108960	0.019534	-0.007084	-0.061717	-0.246826	0.650635	0.324707	0.467920	-0.744764	-0.240883	-0.410308
59764		8.207445	-5.075974	-1.949268	0.003336	-0.015154	-0.034446	-0.247803	0.649414	0.323975	0.467769	-0.744777	-0.241090	-0.410336
59765		8.154296	-5.077664	-2.186907	-0.006871	-0.003279	-0.004601	-0.243164	0.654053	0.322998	0.467678	-0.744847	-0.241029	-0.410348
59766		8.094387	-5.063773	-2.197042	-0.036882	0.015403	0.006894	-0.250977	0.659668	0.329590	0.467499	-0.744992	-0.240735	-0.410461
59767		8.098214	-5.047873	-2.152020	-0.069834	0.033941	0.003687	-0.251953	0.650635	0.336670	0.467159	-0.745175	-0.240330	-0.410753
59768		8.036459	-5.080112	-2.259127	-0.114646	0.045446	-0.012450	-0.255615	0.651367	0.333008	0.466456	-0.745487	-0.239754	-0.411323
59769		8.073314	-5.134827	-2.246380	-0.106063	0.035228	-0.018388	-0.243652	0.653320	0.333984	0.465785	-0.745769	-0.239325	-0.411822
59770		8.096060	-5.145359	-2.195580	-0.087897	0.031933	-0.009581	-0.247314	0.645752	0.333008	0.465252	-0.746032	-0.238871	-0.412210
59771		8.108639	-5.108568	-2.124865	-0.057222	0.032338	-0.014047	-0.252197	0.640625	0.330322	0.464872	-0.746168	-0.238530	-0.412590
59772		8.039367	-5.066423	-2.228789	-0.052111	0.033734	-0.032997	-0.249512	0.655518	0.335693	0.464453	-0.746234	-0.238327	-0.413060
59773		8.139100	-5.097089	-2.228737	-0.043841	0.018591	-0.051794	-0.255615	0.647705	0.330322	0.464040	-0.746270	-0.238381	-0.413429
59774		8.217974	-4.982845	-2.282639	-0.049254	0.000718	-0.059161	-0.248047	0.649658	0.334229	0.463521	-0.746363	-0.238542	-0.413750
59775		8.175108	-4.866590	-2.264996	-0.055090	0.002154	-0.067197	-0.250977	0.653564	0.331787	0.462935	-0.746478	-0.238683	-0.414115
59776		8.170345	-4.865220	-2.282877	-0.055393	0.017699	-0.068018	-0.255371	0.651367	0.329102	0.462402	-0.746521	-0.238816	-0.414557
59777		8.307044	-4.835793	-2.201737	-0.068878	0.030336	-0.061401	-0.255127	0.651367	0.335449	0.461839	-0.746572	-0.238837	-0.415081
59778		8.271215	-4.852320	-2.270208	-0.100581	0.053907	-0.053706	-0.262451	0.644043	0.333008	0.461138	-0.746690	-0.238585	-0.415791
59779		8.199685	-4.868049	-2.313564	-0.129028	0.065290	-0.047259	-0.249512	0.646729	0.335938	0.460296	-0.746879	-0.238166	-0.416625
59780		8.293396	-4.774313	-2.217777	-0.132598	0.044113	-0.035678	-0.265625	0.651367	0.349121	0.459422	-0.747209	-0.237677	-0.417277
59781		8.336755	-4.751323	-2.200204	-0.148603	0.063893	-0.026810	-0.259033	0.642578	0.334229	0.458528	-0.747520	-0.237074	-0.418046
59782		8.246126	-4.750578	-2.245188	-0.166456	0.078766	-0.023489	-0.261475	0.652100	0.349365	0.457565	-0.747854	-0.236310	-0.418935
59783		8.204666	-4.808328	-2.271036	-0.169236	0.082583	-0.028447	-0.265625	0.644287	0.335938	0.456582	-0.748177	-0.235564	-0.419850
59784		8.207782	-4.813143	-2.191835	-0.133140	0.042592	-0.039462	-0.256348	0.645020	0.352051	0.455721	-0.748455	-0.235208	-0.420489
59785		8.188625	-4.789755	-2.231394	-0.108018	0.024879	-0.049856	-0.257812	0.636719	0.345947	0.454903	-0.748727	-0.234967	-0.421025
59786		8.270411	-4.843504	-2.331911	-0.083369	0.021337	-0.070067	-0.264893	0.640869	0.341797	0.454151	-0.748875	-0.234945	-0.421586
59787		8.240419	-4.843468	-2.301782	-0.051526	0.014270	-0.071876	-0.256592	0.647705	0.351318	0.453616	-0.748890	-0.235154	-0.422018
59788		8.373950	-4.721835	-2.264183	-0.010832	-0.008023	-0.065176	-0.267578	0.645996	0.354004	0.453308	-0.748871	-0.235496	-0.422192
59789		8.485166	-4.645685	-2.239467	-0.017568	0.009937	-0.054443	-0.266846	0.636230	0.350830	0.453034	-0.748814	-0.235724	-0.422459
59790		8.484035	-4.465721	-2.245886	-0.062866	0.035878	-0.047863	-0.261719	0.640381	0.343506	0.452523	-0.748861	-0.235615	-0.422983
59791		8.409803	-4.471561	-2.352288	-0.118329	0.057139	-0.040568	-0.266602	0.645020	0.354492	0.451761	-0.749051	-0.235202	-0.423692
59792		8.411419	-4.632872	-2.241153	-0.161310	0.077635	-0.029332	-0.263672	0.642822	0.351562	0.450811	-0.749349	-0.234502	-0.424563
59793		8.420874	-4.846321	-2.584223	-0.161113	0.093895	-0.013716	-0.269287	0.640869	0.350586	0.449949	-0.749622	-0.233633	-0.425475
59794		8.259105	-4.794656	-2.358581	-0.145696	0.089381	0.004706	-0.271240	0.631592	0.340332	0.449249	-0.749871	-0.232754	-0.426257
59795		8.305081	-4.715153	-2.267265	-0.129901	0.059891	0.015577	-0.266846	0.641113	0.351318	0.448627	-0.750173	-0.231986	-0.426797
59796		8.305855	-4.720761	-2.391192	-0.121613	0.046535	0.017920	-0.267578	0.633545	0.353516	0.448045	-0.750511	-0.231266	-0.427206
59797		8.422345	-4.654657	-2.342727	-0.112705	0.052545	0.021467	-0.271973	0.641846	0.361816	0.447516	-0.750810	-0.230500	-0.427649
59798		8.511155	-4.530364	-2.392253	-0.134332	0.087657	0.018418	-0.272461	0.636475	0.354736	0.446928	-0.751046	-0.229586	-0.428341
59799		8.485029	-4.461088	-2.368923	-0.156545	0.104455	0.013836	-0.271484	0.629883	0.358398	0.446219	-0.751286	-0.228566	-0.429203
59800		8.408657	-4.537670	-2.251480	-0.200711	0.111972	0.022480	-0.268066	0.630615	0.362549	0.445248	-0.751694	-0.227263	-0.430187
59801		8.396660	-4.711255	-2.288042	-0.213517	0.111332	0.032410	-0.263428	0.633301	0.358643	0.444225	-0.752180	-0.225831	-0.431150
59802		8.359648	-4.677833	-2.213136	-0.236877	0.128562	0.051349	-0.273926	0.630615	0.358398	0.443175	-0.752719	-0.224141	-0.432170
59803		8.236804	-4.866861	-2.529235	-0.262778	0.174501	0.073995	-0.262451	0.625732	0.361816	0.442141	-0.753198	-0.222104	-0.433444
59804		8.078648	-4.996089	-2.267380	-0.208275	0.146315	0.078894	-0.271240	0.625732	0.365723	0.441378	-0.753620	-0.220248	-0.434434
59805		8.168225	-5.001119	-2.091558	-0.142233	0.089267	0.073204	-0.266113	0.623291	0.360596	0.440914	-0.753973	-0.218921	-0.434964
59806		8.211502	-4.847458	-2.281362	-0.117960	0.051017	0.066362	-0.264404	0.624268	0.366211	0.440508	-0.754365	-0.217851	-0.435232
59807		8.296223	-4.713515	-2.445620	-0.117467	0.054617	0.067465	-0.266113	0.629395	0.367676	0.440107	-0.754752	-0.216745	-0.435518
59808		8.289980	-4.646394	-2.295795	-0.085959	0.042670	0.071978	-0.277344	0.625244	0.367920	0.439921	-0.755063	-0.215804	-0.435636
59809		8.463565	-4.555296	-2.261117	-0.061418	0.024485	0.069058	-0.264404	0.627686	0.375488	0.439849	-0.755318	-0.215086	-0.435621
59810		8.353313	-4.436165	-2.374689	-0.059265	0.016904	0.064681	-0.264404	0.626953	0.371094	0.439735	-0.755624	-0.214350	-0.435568
59811		8.277598	-4.569354	-2.626643	-0.050568	0.014039	0.061315	-0.266846	0.629639	0.373291	0.439669	-0.755893	-0.213695	-0.435490
59812		8.451742	-4.548586	-2.335648	-0.045099	0.019651	0.055820	-0.261963	0.618164	0.378174	0.439636	-0.756104	-0.213097	-0.435450
59813		8.503206	-4.475507	-2.401907	-0.068647	0.017590	0.050234	-0.270020	0.624268	0.366455	0.439373	-0.756431	-0.212367	-0.435504
59814		8.350446	-4.585653	-2.658087	-0.098918	0.021495	0.057620	-0.263916	0.625244	0.371826	0.439020	-0.756816	-0.211585	-0.435572
59815		8.196582	-4.647927	-2.483106	-0.114634	0.025038	0.086212	-0.255371	0.621826	0.376465	0.438661	-0.757316	-0.210512	-0.435585
59816		8.264724	-4.754146	-2.386802	-0.131374	0.046696	0.106321	-0.263184	0.629639	0.376953	0.438274	-0.757862	-0.209104	-0.435702
59817		8.273173	-4.711092	-2.239300	-0.178615	0.080916	0.116534	-0.258301	0.630127	0.377686	0.437729	-0.758438	-0.207420	-0.436053
59818		8.251671	-4.743142	-2.286836	-0.228888	0.101497	0.107658	-0.262695	0.614746	0.378418	0.436865	-0.759112	-0.205518	-0.436646
59819		8.050364	-4.994777	-2.601613	-0.220032	0.070572	0.087465	-0.255371	0.625000	0.388672	0.435892	-0.759831	-0.203856	-0.437148
59820		8.173046	-5.043866	-2.559454	-0.196309	0.047772	0.084857	-0.250244	0.619873	0.384521	0.435024	-0.760557	-0.202362	-0.437443
59821		8.249562	-4.952032	-2.509667	-0.173718	0.033023	0.079921	-0.256592	0.624268	0.387695	0.434250	-0.761250	-0.201014	-0.437628
59822		8.178025	-4.868793	-2.311265	-0.187586	0.022537	0.083338	-0.254883	0.615723	0.378174	0.433405	-0.762014	-0.199685	-0.437744
59823		8.089834	-5.060886	-2.191065	-0.213085	0.019682	0.078288	-0.257812	0.618164	0.382324	0.432377	-0.762861	-0.198309	-0.437911
59824		7.997047	-5.214932	-2.340787	-0.193664	0.020332	0.075579	-0.253662	0.618164	0.391846	0.431475	-0.763619	-0.197044	-0.438052
59825		8.030242	-5.194822	-2.336988	-0.182874	0.024751	0.080756	-0.259277	0.624023	0.389404	0.430643	-0.764349	-0.195727	-0.438188
59826		7.911799	-5.211303	-2.326707	-0.168823	0.012520	0.077871	-0.253662	0.622803	0.395020	0.429913	-0.765035	-0.194598	-0.438209
59827		7.906667	-5.235648	-2.502657	-0.125702	-0.022420	0.070212	-0.250732	0.623291	0.391602	0.429353	-0.765701	-0.193759	-0.437968
59828		7.883024	-5.213674	-2.466463	-0.066723	-0.048912	0.073487	-0.256348	0.619873	0.404297	0.429150	-0.766252	-0.193219	-0.437442
59829		8.048366	-5.024198	-2.394440	-0.016449	-0.096266	0.085463	-0.240234	0.616455	0.395508	0.429205	-0.766820	-0.192935	-0.436515
59830		8.151667	-4.969197	-2.235117	-0.021095	-0.088789	0.099077	-0.244141	0.617432	0.394043	0.429280	-0.767424	-0.192464	-0.435588
59831		8.157202	-4.921278	-2.381035	-0.039954	-0.067448	0.113189	-0.242432	0.614502	0.398438	0.429335	-0.768021	-0.191794	-0.434775
59832		8.198825	-4.836742	-2.449341	-0.046238	-0.069752	0.129054	-0.241211	0.620605	0.396240	0.429384	-0.768683	-0.190983	-0.433914
59833		8.346550	-4.745702	-2.298526	-0.051016	-0.067623	0.134575	-0.240479	0.618164	0.396973	0.429452	-0.769348	-0.190147	-0.433034
59834		8.005561	-4.811431	-2.487802	-0.082427	-0.026507	0.129148	-0.242188	0.632324	0.396973	0.429357	-0.769968	-0.189082	-0.432494
59835		7.775049	-4.969153	-2.554336	-0.094499	-0.013249	0.129486	-0.236328	0.624512	0.394775	0.429257	-0.770557	-0.187998	-0.432014
59836		7.961112	-4.861912	-2.586861	-0.048749	-0.035054	0.115150	-0.236816	0.622803	0.407715	0.429342	-0.771052	-0.187209	-0.431390
59837		8.061959	-4.853545	-2.729429	0.003715	-0.079120	0.075664	-0.240967	0.623291	0.399902	0.429521	-0.771471	-0.186983	-0.430561
59838		8.094219	-4.848896	-2.614849	0.048240	-0.126362	0.029771	-0.229736	0.624756	0.397461	0.429775	-0.771801	-0.187431	-0.429519
59839		8.220296	-4.638031	-2.828278	0.071890	-0.140581	-0.005133	-0.230225	0.622070	0.405762	0.430026	-0.772062	-0.188207	-0.428458
59840		8.401246	-4.378809	-2.790204	0.047505	-0.093411	-0.031176	-0.237061	0.629395	0.399170	0.430074	-0.772212	-0.188863	-0.427850
59841		8.389622	-4.509950	-2.899467	0.012970	-0.053553	-0.052715	-0.231201	0.615967	0.400635	0.429932	-0.772275	-0.189472	-0.427609
59842		8.315130	-4.623781	-2.705635	-0.007967	-0.035643	-0.046628	-0.241699	0.618408	0.399414	0.429653	-0.772389	-0.189819	-0.427530
59843		8.329564	-4.658591	-2.632580	-0.045732	-0.017399	-0.045605	-0.229248	0.627686	0.402344	0.429189	-0.772544	-0.190020	-0.427626
59844		8.211832	-4.637415	-2.819071	-0.084359	0.012722	-0.018055	-0.239014	0.621826	0.401855	0.428628	-0.772799	-0.189779	-0.427835
59845		8.007665	-4.745367	-2.943706	-0.118099	0.025548	0.022605	-0.229004	0.621094	0.409424	0.428016	-0.773172	-0.189132	-0.428062
59846		7.998031	-5.033053	-2.742870	-0.132040	0.030023	0.051225	-0.238281	0.617920	0.411621	0.427392	-0.773657	-0.188177	-0.428228
