// Start Time: Unknown
// Update Rate: 60.0Hz
// Filter Profile: human (46.1)
// Firmware Version: 4.6.0
PacketCounter	SampleTimeFine	Acc_X	Acc_Y	Acc_Z	Gyr_X	Gyr_Y	Gyr_Z	Mag_X	Mag_Y	Mag_Z	Quat_q0	Quat_q1	Quat_q2	Quat_q3
05461		7.179420	3.676350	5.680142	-0.066611	-0.064918	-0.098928	-0.834961	-0.236572	-0.166016	-0.020449	-0.414635	-0.200247	-0.887446
05462		7.133909	3.504733	5.819200	-0.067371	-0.071574	-0.093478	-0.832520	-0.240234	-0.162598	-0.021493	-0.414996	-0.200060	-0.887295
05463		7.126319	3.492587	5.928038	-0.044898	-0.064913	-0.086170	-0.834229	-0.240723	-0.162842	-0.022397	-0.415326	-0.200016	-0.887128
05464		7.152872	3.623343	5.960954	-0.050808	-0.041813	-0.078577	-0.832031	-0.244141	-0.166260	-0.023222	-0.415492	-0.199901	-0.887055
05465		7.115029	3.500508	5.906664	-0.073834	-0.020935	-0.064126	-0.830322	-0.243408	-0.169678	-0.023985	-0.415518	-0.199567	-0.887098
05466		7.155106	3.290007	5.791606	-0.054839	-0.014232	-0.066054	-0.833008	-0.246826	-0.167969	-0.024684	-0.415489	-0.199372	-0.887136
05467		7.226046	3.391822	5.631393	-0.052946	-0.008731	-0.037766	-0.835449	-0.243652	-0.163574	-0.025150	-0.415465	-0.199079	-0.887200
05468		7.174251	3.122067	5.582501	-0.028822	-0.009890	-0.005113	-0.836914	-0.242920	-0.168213	-0.025286	-0.415514	-0.198839	-0.887227
05469		7.100473	3.334638	5.609434	0.010194	-0.017486	0.010715	-0.842041	-0.245117	-0.168457	-0.025169	-0.415663	-0.198804	-0.887168
05470		7.131553	3.533983	5.645155	-0.009163	-0.016956	0.029957	-0.834473	-0.244629	-0.170898	-0.024967	-0.415839	-0.198543	-0.887150
05471		7.106756	3.605270	5.664064	-0.031792	-0.013313	0.032101	-0.839844	-0.236572	-0.156006	-0.024818	-0.415988	-0.198102	-0.887183
05472		7.129854	3.641482	5.569002	-0.038398	-0.013660	0.023264	-0.836914	-0.243164	-0.170898	-0.024758	-0.416121	-0.197642	-0.887225
05473		7.171969	3.644418	5.485111	-0.031289	-0.011891	0.010206	-0.835449	-0.242188	-0.167480	-0.024769	-0.416224	-0.197283	-0.887256
05474		7.247949	3.723869	5.418629	-0.035016	-0.026316	-0.002888	-0.844727	-0.242432	-0.165283	-0.024915	-0.416424	-0.196949	-0.887233
05475		7.321528	3.684354	5.409480	-0.056071	-0.037737	-0.011058	-0.836182	-0.236084	-0.160889	-0.025211	-0.416709	-0.196499	-0.887190
05476		7.403731	3.593602	5.380944	-0.070402	-0.048574	-0.020719	-0.839844	-0.242188	-0.163086	-0.025654	-0.417080	-0.195993	-0.887115
05477		7.391440	3.429435	5.370078	-0.061624	-0.055914	-0.009470	-0.838867	-0.245605	-0.161865	-0.025984	-0.417557	-0.195510	-0.886987
05478		7.374169	3.340450	5.412585	-0.030238	-0.057816	0.012947	-0.836426	-0.245605	-0.176514	-0.026030	-0.418124	-0.195175	-0.886793
05479		7.416436	3.392081	5.520561	0.006680	-0.047294	0.040850	-0.835693	-0.248291	-0.166260	-0.025715	-0.418690	-0.194980	-0.886578
05480		7.448155	3.469717	5.575712	0.022564	-0.028465	0.062600	-0.835449	-0.242432	-0.162842	-0.025138	-0.419168	-0.194837	-0.886400
05481		7.402802	3.516739	5.520326	0.027111	-0.010256	0.079838	-0.835205	-0.238281	-0.164795	-0.024388	-0.419550	-0.194660	-0.886279
05482		7.252277	3.541347	5.432403	0.031715	-0.008924	0.097513	-0.843262	-0.239014	-0.168457	-0.023495	-0.419960	-0.194442	-0.886157
05483		7.180530	3.568029	5.527122	0.054059	-0.010577	0.113167	-0.848145	-0.231934	-0.161621	-0.022377	-0.420467	-0.194316	-0.885973
05484		7.245655	3.676139	5.552295	0.073520	-0.009500	0.110784	-0.839355	-0.226318	-0.164062	-0.021203	-0.420985	-0.194350	-0.885748
05485		7.164300	3.767045	5.580802	0.073278	-0.001689	0.095544	-0.835938	-0.226807	-0.156982	-0.020216	-0.421334	-0.194448	-0.885584
05486		7.024361	3.718041	5.615046	0.056401	-0.014121	0.079038	-0.847412	-0.235107	-0.159668	-0.019455	-0.421685	-0.194560	-0.885409
05487		6.973100	3.715231	5.754242	0.046061	-0.034182	0.069539	-0.846680	-0.229980	-0.167969	-0.018746	-0.422246	-0.194636	-0.885141
05488		7.109500	3.738088	5.876305	0.035846	-0.029820	0.057527	-0.842773	-0.223633	-0.163330	-0.018209	-0.422703	-0.194630	-0.884935
05489		7.110392	3.668444	5.859608	0.035374	-0.001505	0.038474	-0.841553	-0.236328	-0.156250	-0.017828	-0.422830	-0.194711	-0.884864
05490		6.981875	3.572979	5.824790	0.033276	0.010522	0.027772	-0.838135	-0.224365	-0.148682	-0.017471	-0.422790	-0.194936	-0.884841
05491		7.030938	3.503410	5.827667	0.039030	0.008606	0.021868	-0.839600	-0.229736	-0.159424	-0.017195	-0.422705	-0.195195	-0.884830
05492		7.181276	3.564332	5.907170	0.026590	0.013069	0.009422	-0.838379	-0.225098	-0.163330	-0.017036	-0.422545	-0.195371	-0.884870
05493		7.228451	3.511591	5.889002	-0.003847	0.025203	0.003493	-0.832275	-0.226318	-0.161865	-0.017020	-0.422250	-0.195302	-0.885027
05494		7.203927	3.317064	5.826050	-0.013492	0.034597	0.005667	-0.841553	-0.228516	-0.166504	-0.017019	-0.421847	-0.195169	-0.885248
05495		7.235910	3.238367	5.721000	0.001719	0.031545	0.012232	-0.841064	-0.228760	-0.159180	-0.016875	-0.421508	-0.195085	-0.885431
05496		7.360179	3.306947	5.649972	0.008402	0.028606	0.026748	-0.841797	-0.225830	-0.159180	-0.016598	-0.421243	-0.195003	-0.885580
05497		7.402945	3.378192	5.580596	0.002251	0.022020	0.035919	-0.841309	-0.232178	-0.150635	-0.016262	-0.421062	-0.194820	-0.885713
05498		7.298196	3.361673	5.537586	-0.009869	0.011768	0.046226	-0.840576	-0.233154	-0.164062	-0.015938	-0.421019	-0.194551	-0.885799
05499		7.269338	3.339658	5.581291	0.000673	0.003845	0.051138	-0.836670	-0.225586	-0.161621	-0.015560	-0.420988	-0.194298	-0.885875
05500		7.259954	3.477893	5.631246	0.003171	0.004690	0.050327	-0.837402	-0.224609	-0.150635	-0.015158	-0.420982	-0.194056	-0.885938
05501		7.171020	3.484040	5.676423	-0.014937	0.004465	0.055030	-0.838623	-0.218262	-0.154541	-0.014791	-0.421054	-0.193706	-0.885987
05502		7.166663	3.535671	5.684829	-0.018819	0.006782	0.051860	-0.840820	-0.218994	-0.164551	-0.014412	-0.421089	-0.193312	-0.886063
05503		7.215321	3.618496	5.699046	-0.021749	0.014436	0.043574	-0.843262	-0.226807	-0.154297	-0.014086	-0.420981	-0.192900	-0.886209
05504		7.196090	3.672854	5.620595	-0.027613	0.030161	0.030863	-0.834717	-0.223389	-0.163086	-0.013916	-0.420787	-0.192568	-0.886376
05505		7.137778	3.628967	5.525877	-0.034193	0.039704	0.016982	-0.834473	-0.224365	-0.162598	-0.013897	-0.420446	-0.192220	-0.886613
05506		7.116769	3.533680	5.430171	-0.025535	0.041937	0.007558	-0.836914	-0.218018	-0.148682	-0.013934	-0.420084	-0.191994	-0.886833
05507		7.155573	3.554764	5.399330	-0.015138	0.034056	0.000556	-0.840332	-0.227539	-0.165039	-0.013944	-0.419917	-0.191910	-0.886930
05508		7.268713	3.589558	5.395732	-0.014331	0.026247	-0.005846	-0.841064	-0.218506	-0.172119	-0.014062	-0.419644	-0.191836	-0.887074
05509		7.274838	3.571921	5.369291	-0.025107	0.018265	-0.014441	-0.844482	-0.218018	-0.167236	-0.014176	-0.419389	-0.191671	-0.887228
05510		7.239093	3.531010	5.342430	-0.034440	-0.000386	-0.015534	-0.842285	-0.215088	-0.167236	-0.014343	-0.419332	-0.191463	-0.887297
05511		7.352186	3.621307	5.522385	-0.045608	-0.011934	0.000897	-0.832031	-0.218018	-0.161133	-0.014425	-0.419406	-0.191113	-0.887337
05512		7.501106	3.631333	5.593608	-0.045715	0.005640	0.029114	-0.846191	-0.219482	-0.166992	-0.014392	-0.419456	-0.190711	-0.887400
05513		7.429541	3.663570	5.570423	-0.009208	0.042148	0.027870	-0.852539	-0.216553	-0.165771	-0.014104	-0.419186	-0.190570	-0.887562
05514		7.312070	3.712376	5.429615	0.020266	0.054777	0.016014	-0.848145	-0.225342	-0.169434	-0.013715	-0.418843	-0.190689	-0.887705
05515		7.275645	3.734205	5.321495	0.023750	0.043280	-0.007675	-0.842041	-0.222412	-0.165527	-0.013653	-0.418504	-0.190961	-0.887807
05516		7.343677	3.742603	5.293544	0.005762	0.025530	-0.031223	-0.837402	-0.214844	-0.159912	-0.013864	-0.418317	-0.191199	-0.887841
05517		7.370650	3.585921	5.232892	-0.006852	0.008044	-0.054671	-0.847168	-0.217041	-0.168213	-0.014251	-0.418306	-0.191414	-0.887794
05518		7.380277	3.447611	5.254760	-0.002159	-0.007680	-0.061232	-0.838379	-0.223389	-0.169922	-0.014657	-0.418336	-0.191661	-0.887720
05519		7.354555	3.387509	5.276293	0.003934	-0.022020	-0.045873	-0.841064	-0.222412	-0.160889	-0.015059	-0.418464	-0.191933	-0.887594
05520		7.382258	3.297688	5.348088	0.017969	-0.034286	-0.033914	-0.837891	-0.222412	-0.176758	-0.015311	-0.418823	-0.192273	-0.887347
05521		7.345122	3.321801	5.426770	0.030934	-0.042833	-0.031036	-0.835449	-0.224854	-0.160889	-0.015496	-0.419058	-0.192640	-0.887153
05522		7.353255	3.393106	5.504532	0.006165	-0.051073	-0.021349	-0.837891	-0.218750	-0.169678	-0.015748	-0.419542	-0.192843	-0.886875
05523		7.329601	3.234290	5.580659	-0.008787	-0.048591	-0.008001	-0.840576	-0.227295	-0.162842	-0.015845	-0.419929	-0.192802	-0.886700
05524		7.313519	3.209858	5.646410	0.009772	-0.051659	-0.004116	-0.831055	-0.224365	-0.166504	-0.015958	-0.420415	-0.192953	-0.886434
05525		7.334332	3.294362	5.681864	0.014450	-0.055298	0.003753	-0.838379	-0.228027	-0.158203	-0.015974	-0.420849	-0.193076	-0.886201
05526		7.299037	3.278652	5.735468	0.000239	-0.052651	0.011099	-0.846191	-0.217529	-0.159912	-0.016020	-0.421387	-0.193100	-0.885939
05527		7.278154	3.353281	5.749539	-0.021709	-0.048732	0.017714	-0.840820	-0.224854	-0.160156	-0.015931	-0.421919	-0.192815	-0.885750
05528		7.245855	3.365102	5.830516	-0.045193	-0.048361	0.030118	-0.843018	-0.224609	-0.153320	-0.015939	-0.422402	-0.192386	-0.885613
05529		7.260948	3.331437	5.845131	-0.035836	-0.033894	0.029071	-0.839844	-0.225830	-0.156250	-0.015903	-0.422860	-0.192044	-0.885469
05530		7.258448	3.402359	5.826719	-0.016457	-0.019917	0.026433	-0.838135	-0.218994	-0.162109	-0.015818	-0.423138	-0.191864	-0.885377
05531		7.220069	3.400308	5.826694	-0.008251	-0.011264	0.025123	-0.841064	-0.226807	-0.163818	-0.015620	-0.423264	-0.191664	-0.885363
05532		7.196572	3.296571	5.861214	0.003002	0.000184	0.020559	-0.839355	-0.216553	-0.162354	-0.015495	-0.423261	-0.191632	-0.885374
05533		7.205065	3.235503	5.889736	0.013917	0.003224	0.008798	-0.837646	-0.215088	-0.157959	-0.015288	-0.423246	-0.191626	-0.885386
05534		7.259633	3.256736	5.942656	0.003204	0.008279	0.011977	-0.843506	-0.214111	-0.162109	-0.015075	-0.423245	-0.191531	-0.885411
05535		7.398103	3.153571	5.927581	-0.016042	0.021988	0.016964	-0.838379	-0.212402	-0.168945	-0.014842	-0.423114	-0.191238	-0.885541
05536		7.415867	2.979880	5.863237	-0.013014	0.040596	0.026390	-0.844971	-0.220947	-0.157715	-0.014494	-0.422744	-0.190898	-0.885796
05537		7.396823	2.874656	5.849673	0.005385	0.045752	0.044933	-0.834229	-0.214355	-0.162354	-0.014032	-0.422545	-0.190748	-0.885931
05538		7.404454	2.877376	5.788752	0.015337	0.043125	0.071096	-0.841797	-0.216064	-0.154785	-0.013304	-0.422314	-0.190506	-0.886104
05539		7.390821	2.978235	5.819634	0.003567	0.044102	0.101516	-0.839355	-0.210938	-0.165771	-0.012383	-0.422267	-0.190116	-0.886224
05540		7.229418	3.007586	5.853577	-0.011603	0.042424	0.121832	-0.844238	-0.219727	-0.160156	-0.011335	-0.422107	-0.189450	-0.886457
05541		6.994690	3.114547	6.033391	-0.016489	0.028298	0.117161	-0.840820	-0.206787	-0.164795	-0.010493	-0.422124	-0.188883	-0.886580
05542		6.990037	3.224330	6.255069	-0.021156	0.025996	0.102125	-0.840576	-0.206055	-0.154785	-0.009631	-0.422073	-0.188210	-0.886757
05543		7.039584	3.272719	6.380856	-0.044127	0.049423	0.086138	-0.840576	-0.210693	-0.165039	-0.008931	-0.421955	-0.187493	-0.886973
05544		7.096238	3.084956	6.321716	-0.056941	0.089631	0.082574	-0.845459	-0.205566	-0.163086	-0.008372	-0.421366	-0.186691	-0.887427
05545		7.170122	2.922480	6.194606	-0.040150	0.116805	0.087149	-0.845703	-0.206543	-0.159912	-0.007560	-0.420647	-0.185982	-0.887924
05546		7.312150	2.875545	6.046154	-0.030903	0.125702	0.081454	-0.839355	-0.205078	-0.175293	-0.006767	-0.419913	-0.185410	-0.888398
05547		7.360278	2.817099	5.906280	-0.061654	0.122811	0.086228	-0.842285	-0.202881	-0.168213	-0.006150	-0.418987	-0.184494	-0.889030
05548		7.398233	2.576558	5.834487	-0.087051	0.100857	0.095858	-0.838379	-0.197754	-0.171387	-0.005510	-0.418381	-0.183405	-0.889544
05549		7.414188	2.554132	5.813317	-0.093144	0.079439	0.113566	-0.832764	-0.199707	-0.174805	-0.004773	-0.417940	-0.182158	-0.890012
05550		7.429756	2.747235	5.843696	-0.122097	0.061300	0.134667	-0.838379	-0.198486	-0.172607	-0.004161	-0.417616	-0.180624	-0.890480
05551		7.412792	2.878143	5.903256	-0.164623	0.046447	0.133144	-0.844727	-0.186523	-0.177734	-0.003673	-0.417466	-0.178813	-0.890918
05552		7.326726	2.911239	5.925605	-0.207549	0.030902	0.108872	-0.840820	-0.191650	-0.174316	-0.003267	-0.417369	-0.176680	-0.891390
05553		7.230708	2.934663	5.977738	-0.261026	0.004945	0.076395	-0.846191	-0.183838	-0.172607	-0.003532	-0.417458	-0.174339	-0.891808
05554		7.337135	2.881937	6.000717	-0.308739	-0.027024	0.035809	-0.841797	-0.178223	-0.165039	-0.004103	-0.417782	-0.171772	-0.892152
05555		7.373951	2.853019	5.981411	-0.360741	-0.061091	0.005689	-0.841309	-0.176270	-0.173096	-0.005080	-0.418428	-0.168943	-0.892385
05556		7.323892	2.615708	5.979995	-0.393357	-0.098288	0.013458	-0.845215	-0.179932	-0.168213	-0.006206	-0.419238	-0.165774	-0.892592
05557		7.385893	2.398105	6.200573	-0.358776	-0.108285	0.021545	-0.842285	-0.176758	-0.172852	-0.007177	-0.420192	-0.162924	-0.892660
05558		7.418030	2.332125	6.367702	-0.298892	-0.080109	0.027434	-0.842529	-0.175049	-0.171387	-0.007925	-0.420866	-0.160423	-0.892790
05559		7.398645	2.319480	6.462590	-0.269099	-0.046729	0.043169	-0.835693	-0.178467	-0.166992	-0.008392	-0.421327	-0.158092	-0.892984
05560		7.408141	2.207445	6.480814	-0.268630	-0.025496	0.042038	-0.841309	-0.163818	-0.165771	-0.009053	-0.421668	-0.155813	-0.893217
05561		7.299740	2.061711	6.540100	-0.268160	-0.033160	0.014365	-0.836182	-0.162598	-0.160645	-0.009531	-0.422079	-0.153556	-0.893408
05562		7.343514	1.863127	6.595217	-0.279790	-0.064634	-0.024156	-0.837402	-0.177979	-0.170654	-0.010441	-0.422735	-0.151367	-0.893462
05563		7.488328	1.581229	6.733192	-0.302322	-0.081788	-0.037466	-0.841064	-0.172119	-0.167725	-0.011967	-0.423311	-0.149078	-0.893555
05564		7.691365	1.219675	6.919795	-0.294462	-0.072833	-0.026546	-0.832520	-0.172607	-0.167480	-0.013151	-0.423878	-0.146791	-0.893648
05565		7.878881	0.958868	7.018587	-0.259037	-0.043703	0.012101	-0.834961	-0.172119	-0.165039	-0.014113	-0.424263	-0.144573	-0.893812
05566		7.899465	0.846340	7.106834	-0.223564	-0.011271	0.079449	-0.836670	-0.167480	-0.171143	-0.014335	-0.424523	-0.142401	-0.894034
05567		8.016432	0.911388	7.191935	-0.224569	0.024929	0.189996	-0.831543	-0.167969	-0.155029	-0.013650	-0.424560	-0.139743	-0.894447
05568		8.172551	0.861962	7.279282	-0.222449	0.089231	0.314366	-0.834961	-0.158936	-0.161377	-0.012031	-0.424489	-0.136793	-0.894959
05569		8.145715	0.831276	7.316456	-0.175463	0.167044	0.406219	-0.836426	-0.149414	-0.177490	-0.009363	-0.423868	-0.133791	-0.895739
05570		7.943138	1.081951	7.330263	-0.146597	0.222037	0.467338	-0.831543	-0.146729	-0.163330	-0.006082	-0.422701	-0.130643	-0.896783
05571		7.768099	1.375291	7.354399	-0.176292	0.239366	0.527743	-0.840088	-0.137207	-0.169189	-0.002536	-0.421679	-0.127184	-0.897777
05572		7.895366	1.538640	7.379661	-0.217180	0.263842	0.559901	-0.840820	-0.130615	-0.165527	0.001327	-0.420441	-0.123309	-0.898901
05573		7.760801	1.449944	7.442144	-0.224524	0.312196	0.568431	-0.832520	-0.113770	-0.182373	0.005277	-0.418887	-0.119397	-0.900139
05574		7.613388	1.393981	7.493553	-0.196223	0.345326	0.548041	-0.833740	-0.112549	-0.186768	0.009107	-0.416866	-0.115581	-0.901543
05575		7.768899	1.442024	7.516339	-0.186488	0.370187	0.511387	-0.836426	-0.100342	-0.184326	0.012667	-0.414579	-0.112029	-0.903002
05576		7.951068	1.408200	7.475419	-0.230303	0.400491	0.477291	-0.840088	-0.102539	-0.196777	0.015992	-0.412070	-0.108290	-0.904553
05577		7.984316	1.051816	7.328176	-0.284243	0.434613	0.500133	-0.834473	-0.086182	-0.201904	0.019277	-0.409228	-0.104091	-0.906271
05578		7.810772	0.688690	7.289669	-0.281875	0.456656	0.568132	-0.825684	-0.079590	-0.201172	0.023129	-0.406267	-0.099619	-0.908013
05579		7.838142	0.554043	7.425633	-0.218648	0.474262	0.643057	-0.828857	-0.065918	-0.213135	0.027694	-0.403228	-0.095365	-0.909695
05580		8.014571	0.663713	7.526676	-0.150821	0.520235	0.695512	-0.834229	-0.057373	-0.229248	0.033008	-0.399806	-0.091430	-0.911431
05581		7.983610	0.771934	7.490225	-0.147028	0.563261	0.729809	-0.828369	-0.042480	-0.225586	0.038664	-0.396021	-0.087407	-0.913254
05582		7.790320	0.714510	7.469970	-0.175645	0.589482	0.771859	-0.820557	-0.027588	-0.235596	0.044553	-0.392093	-0.083017	-0.915088
05583		7.828954	0.697886	7.495777	-0.185732	0.588651	0.817654	-0.821045	-0.014893	-0.240723	0.050721	-0.388168	-0.078382	-0.916847
05584		8.014740	0.802926	7.590596	-0.177864	0.603688	0.859282	-0.822021	-0.000977	-0.248779	0.057259	-0.384123	-0.073681	-0.918554
05585		8.121949	0.961395	7.559684	-0.185594	0.628594	0.867436	-0.812012	0.012207	-0.258545	0.063857	-0.379861	-0.068890	-0.920262
05586		8.101018	1.025947	7.425941	-0.226031	0.651142	0.890389	-0.817871	0.029297	-0.265869	0.070471	-0.375426	-0.063700	-0.921972
05587		7.908985	0.700769	7.361341	-0.228878	0.666056	0.925520	-0.810059	0.053467	-0.277344	0.077377	-0.370867	-0.058387	-0.923613
05588		7.586007	0.647022	7.412403	-0.158247	0.659848	0.926115	-0.790039	0.064453	-0.290283	0.084480	-0.366279	-0.053617	-0.925110
05589		7.204594	0.943952	7.540420	-0.146238	0.614724	0.901544	-0.791748	0.083252	-0.290527	0.091376	-0.361988	-0.049053	-0.926396
05590		7.111375	1.521290	7.667690	-0.259777	0.553927	0.853337	-0.782715	0.098389	-0.293457	0.097531	-0.358207	-0.043817	-0.927500
05591		7.163590	1.528954	7.654936	-0.444609	0.516500	0.795665	-0.781494	0.107178	-0.301758	0.102658	-0.354816	-0.037372	-0.928531
05592		7.030717	0.967821	7.686534	-0.516555	0.489697	0.693937	-0.778809	0.128418	-0.303223	0.106762	-0.351638	-0.030712	-0.929521
05593		6.970501	0.564396	7.631509	-0.495014	0.454899	0.606186	-0.768311	0.142822	-0.305908	0.110229	-0.348668	-0.024519	-0.930419
05594		7.130083	0.104466	7.624124	-0.447439	0.436614	0.563913	-0.748047	0.144775	-0.318848	0.113492	-0.345771	-0.018847	-0.931239
05595		6.988851	-0.594343	7.863840	-0.330941	0.446095	0.564412	-0.756104	0.176758	-0.303955	0.117087	-0.342679	-0.014077	-0.932021
05596		6.776744	-1.096055	8.206559	-0.126146	0.455999	0.595860	-0.738770	0.182861	-0.316162	0.121505	-0.339304	-0.010801	-0.932734
05597		7.367738	-0.423110	8.490042	0.009996	0.503460	0.636921	-0.736328	0.188965	-0.306885	0.126626	-0.335412	-0.008420	-0.933485
05598		7.403804	0.178063	8.405197	-0.097053	0.591998	0.719694	-0.716797	0.203613	-0.318359	0.132087	-0.330935	-0.004887	-0.934351
05599		6.926923	0.114965	8.240891	-0.309378	0.639536	0.816835	-0.706299	0.212158	-0.318848	0.137707	-0.326306	0.000606	-0.935180
05600		7.012865	-0.142691	8.104343	-0.400178	0.650424	0.837858	-0.700928	0.231201	-0.325684	0.143227	-0.321671	0.006864	-0.935931
05601		7.039001	-0.164953	7.821286	-0.383279	0.676487	0.805046	-0.695557	0.243164	-0.328369	0.148519	-0.316791	0.012922	-0.936706
05602		6.802237	-0.342740	7.588330	-0.321022	0.701660	0.793283	-0.676758	0.253906	-0.324463	0.153863	-0.311618	0.018481	-0.937485
05603		6.422629	-0.458713	7.555292	-0.221657	0.705480	0.809584	-0.681641	0.268799	-0.327637	0.159576	-0.306267	0.023299	-0.938186
05604		6.231441	-0.102120	7.678752	-0.135448	0.685152	0.819044	-0.659912	0.280762	-0.336426	0.165569	-0.300939	0.027429	-0.938760
05605		6.305173	0.618531	7.609030	-0.180497	0.675088	0.796612	-0.656006	0.293945	-0.334961	0.171259	-0.295738	0.031825	-0.939253
05606		6.061692	0.551684	7.330612	-0.311073	0.669211	0.734663	-0.640625	0.305664	-0.343018	0.176126	-0.290769	0.037062	-0.939712
05607		5.688913	0.020201	6.954609	-0.349952	0.628591	0.644611	-0.641113	0.309814	-0.332275	0.180189	-0.286188	0.042305	-0.940127
05608		5.309715	-0.250334	6.801876	-0.295299	0.532834	0.594778	-0.627441	0.317627	-0.337158	0.184012	-0.282283	0.046841	-0.940352
05609		5.568067	0.058699	6.849773	-0.278237	0.450267	0.563328	-0.621582	0.330078	-0.339600	0.187650	-0.279004	0.051031	-0.940393
05610		5.552247	-0.056124	6.918858	-0.310588	0.422715	0.499334	-0.610596	0.336670	-0.334717	0.190713	-0.276014	0.055266	-0.940420
05611		5.092480	-0.593651	6.978742	-0.306688	0.379680	0.425050	-0.605225	0.344971	-0.332520	0.193213	-0.273388	0.059217	-0.940437
05612		5.080205	-0.807179	7.070629	-0.280092	0.319089	0.386364	-0.605713	0.359619	-0.332520	0.195493	-0.271209	0.062764	-0.940366
05613		4.831845	-1.060662	7.223668	-0.267005	0.287232	0.399664	-0.599365	0.353760	-0.324219	0.197918	-0.269251	0.066178	-0.940188
05614		4.504387	-1.091866	7.541060	-0.226504	0.249123	0.399344	-0.597412	0.361816	-0.329102	0.200448	-0.267522	0.069203	-0.939928
05615		4.674890	-0.917326	7.869859	-0.214096	0.239281	0.384821	-0.584473	0.374023	-0.328613	0.202892	-0.265853	0.072077	-0.939661
05616		4.395580	-0.974681	8.084791	-0.218308	0.243794	0.358727	-0.582031	0.382080	-0.327637	0.205117	-0.264167	0.074924	-0.939430
05617		4.419512	-0.821138	8.080356	-0.241603	0.240467	0.349079	-0.577637	0.378906	-0.328613	0.207213	-0.262546	0.077919	-0.939181
05618		4.806438	-0.752468	7.910351	-0.297470	0.269493	0.342305	-0.581299	0.383301	-0.331543	0.209111	-0.260794	0.081377	-0.938955
05619		4.598139	-1.151793	7.582754	-0.320439	0.295682	0.295549	-0.581055	0.398682	-0.325439	0.210571	-0.258904	0.084948	-0.938835
05620		4.294946	-1.448490	7.391083	-0.279089	0.242399	0.245451	-0.572754	0.397705	-0.324951	0.211763	-0.257392	0.087987	-0.938703
05621		4.428444	-1.482790	7.401453	-0.264546	0.185250	0.222667	-0.577393	0.401855	-0.327881	0.212846	-0.256316	0.090757	-0.938489
05622		4.076300	-1.841208	7.518658	-0.236842	0.128114	0.191244	-0.573730	0.403564	-0.315430	0.213784	-0.255661	0.093138	-0.938221
05623		3.851617	-1.932657	7.955524	-0.186059	0.053225	0.151641	-0.571289	0.413574	-0.317871	0.214578	-0.255530	0.094901	-0.937899
05624		4.555176	-1.640656	8.235103	-0.194942	0.038081	0.115293	-0.561035	0.417236	-0.314697	0.215081	-0.255558	0.096628	-0.937600
05625		4.725699	-1.702706	8.013844	-0.281105	0.088798	0.080288	-0.573242	0.408936	-0.312500	0.215084	-0.255372	0.099039	-0.937398
05626		3.933731	-2.313538	7.798290	-0.332306	0.091423	0.116496	-0.562988	0.416748	-0.313477	0.215258	-0.255227	0.101927	-0.937088
05627		4.562969	-2.264538	7.844247	-0.270340	0.088354	0.199150	-0.569580	0.416504	-0.306152	0.216210	-0.254921	0.104501	-0.936669
05628		4.952877	-2.046726	7.636626	-0.209723	0.161054	0.216828	-0.563477	0.430176	-0.314453	0.217364	-0.253923	0.106768	-0.936417
05629		4.236131	-1.933343	7.264972	-0.214780	0.183185	0.239859	-0.560547	0.424561	-0.311279	0.218664	-0.252743	0.109159	-0.936158
05630		3.992790	-2.071289	7.103558	-0.191761	0.148861	0.282966	-0.565430	0.434082	-0.311768	0.220379	-0.251749	0.111396	-0.935760
05631		3.939569	-2.030101	7.344865	-0.056983	0.128653	0.289124	-0.557861	0.431641	-0.305664	0.222442	-0.250659	0.112555	-0.935426
05632		4.331102	-1.381652	7.443903	0.031420	0.146591	0.223617	-0.555908	0.443359	-0.305908	0.224161	-0.249325	0.112920	-0.935328
05633		4.127818	-1.399700	7.293584	-0.044765	0.162198	0.146788	-0.547363	0.446045	-0.314941	0.225108	-0.248085	0.113741	-0.935331
05634		4.123387	-1.870443	6.936115	-0.135011	0.142259	0.130225	-0.549316	0.452637	-0.308105	0.225757	-0.247185	0.115188	-0.935235
05635		3.882992	-2.426949	6.736591	-0.075689	0.145726	0.212559	-0.547363	0.447021	-0.311035	0.227166	-0.246069	0.116346	-0.935045
05636		4.182763	-1.811032	6.707854	0.082486	0.164628	0.283907	-0.546143	0.455566	-0.308350	0.229435	-0.244437	0.116454	-0.934906
05637		4.468323	-0.993144	6.510862	0.096231	0.205334	0.285204	-0.543457	0.465088	-0.313965	0.231702	-0.242463	0.116531	-0.934851
05638		3.985725	-1.139692	6.084427	0.042411	0.200335	0.208325	-0.543701	0.456299	-0.317383	0.233263	-0.240708	0.116855	-0.934876
05639		3.206354	-1.803854	6.033829	0.114127	0.104987	0.170755	-0.536133	0.463623	-0.317139	0.234768	-0.239596	0.116354	-0.934847
05640		3.575296	-1.511571	6.311643	0.275253	0.017026	0.184834	-0.537598	0.466553	-0.328125	0.236788	-0.238839	0.114453	-0.934766
05641		3.964068	-0.680881	6.596725	0.337728	0.029338	0.197198	-0.540283	0.457275	-0.325195	0.239016	-0.237851	0.112110	-0.934735
05642		3.780467	-0.131519	6.492799	0.245821	0.068766	0.186187	-0.528564	0.461182	-0.330322	0.240937	-0.236749	0.110532	-0.934710
05643		2.966289	-0.452092	6.344225	0.174940	0.021482	0.142369	-0.533936	0.456055	-0.330566	0.242419	-0.236197	0.109314	-0.934609
05644		2.842800	-0.429274	6.489717	0.216830	-0.084428	0.092325	-0.531250	0.449951	-0.329834	0.243692	-0.236429	0.107451	-0.934436
05645		3.612962	0.044557	6.671595	0.283239	-0.103252	0.036700	-0.526123	0.454102	-0.335693	0.244678	-0.236717	0.104916	-0.934393
05646		3.737879	0.126280	6.718098	0.339532	-0.050571	-0.020633	-0.529053	0.449707	-0.337891	0.245282	-0.236529	0.101926	-0.934613
05647		3.895381	0.257312	6.400300	0.394107	-0.013383	-0.074552	-0.529785	0.458008	-0.334717	0.245540	-0.235982	0.098470	-0.935054
05648		3.838502	0.153878	6.072122	0.428126	-0.016568	-0.104111	-0.527100	0.447021	-0.341553	0.245636	-0.235412	0.094673	-0.935565
05649		3.424131	-0.094184	5.909985	0.477854	-0.083992	-0.134940	-0.527832	0.438477	-0.357910	0.245638	-0.235288	0.090279	-0.936030
05650		3.286954	0.118116	6.211963	0.554791	-0.201051	-0.172983	-0.529297	0.432129	-0.354492	0.245578	-0.235942	0.084963	-0.936378
05651		3.856191	0.657696	6.582345	0.580944	-0.262887	-0.210738	-0.542969	0.420166	-0.360107	0.245311	-0.237043	0.079232	-0.936673
05652		4.208682	0.943068	6.759409	0.550591	-0.271839	-0.333196	-0.532471	0.424072	-0.353516	0.244027	-0.238347	0.073465	-0.937147
05653		3.716739	0.821949	6.748658	0.469441	-0.337193	-0.475652	-0.547363	0.408203	-0.363037	0.241500	-0.240404	0.067901	-0.937696
05654		3.692253	0.319148	6.940333	0.432362	-0.460687	-0.536758	-0.548096	0.390381	-0.360352	0.238481	-0.243521	0.062243	-0.938057
05655		4.617786	0.179068	7.297235	0.515895	-0.498980	-0.587848	-0.555176	0.395508	-0.362549	0.235237	-0.246781	0.055742	-0.938432
05656		4.942887	0.257525	7.492572	0.594007	-0.458937	-0.644012	-0.569336	0.385010	-0.369873	0.231681	-0.249582	0.048583	-0.938974
05657		4.938132	0.247744	7.456659	0.590997	-0.454493	-0.658472	-0.577881	0.365479	-0.360596	0.227986	-0.252341	0.041415	-0.939485
05658		4.807002	-0.226578	7.522433	0.587446	-0.507170	-0.652061	-0.577881	0.350830	-0.370117	0.224335	-0.255497	0.034179	-0.939802
05659		4.847985	-0.182986	7.902523	0.635060	-0.615181	-0.706351	-0.588867	0.345215	-0.368652	0.220371	-0.259403	0.026246	-0.939925
05660		5.461882	0.351184	8.218397	0.574409	-0.698059	-0.760291	-0.596924	0.329590	-0.370117	0.215849	-0.264052	0.018514	-0.939863
05661		5.888480	0.209142	8.418010	0.448853	-0.716600	-0.789081	-0.604980	0.317871	-0.367920	0.210805	-0.269048	0.011662	-0.939701
05662		5.989219	-0.459621	8.419395	0.450654	-0.685157	-0.823833	-0.622803	0.302002	-0.382812	0.205468	-0.273770	0.004767	-0.939580
05663		6.006334	-1.037018	8.458790	0.589021	-0.657161	-0.855208	-0.630127	0.282471	-0.371094	0.200177	-0.278007	-0.003235	-0.939484
05664		6.162342	-0.949306	8.607614	0.721146	-0.674515	-0.887628	-0.639404	0.275879	-0.372314	0.194912	-0.282124	-0.012372	-0.939288
05665		6.503090	-0.430574	8.606122	0.656645	-0.716098	-0.900189	-0.641357	0.254395	-0.365967	0.189368	-0.286633	-0.021097	-0.938902
05666		6.556920	-0.428827	8.509805	0.435271	-0.752901	-0.838796	-0.663086	0.234863	-0.370850	0.183745	-0.291755	-0.027997	-0.938261
05667		6.564040	-0.783340	8.585162	0.329492	-0.767283	-0.716588	-0.666260	0.223877	-0.363770	0.178796	-0.297150	-0.033790	-0.937332
05668		6.552864	-0.740281	8.694256	0.402968	-0.754641	-0.663712	-0.684570	0.214111	-0.360596	0.174430	-0.302326	-0.039999	-0.936255
05669		6.604817	-0.213778	8.739514	0.472148	-0.721254	-0.702460	-0.689453	0.200195	-0.357666	0.169929	-0.307100	-0.046788	-0.935214
05670		6.520854	-0.176470	8.759546	0.427973	-0.722712	-0.758318	-0.700439	0.186523	-0.353271	0.164864	-0.311895	-0.053371	-0.934181
05671		6.635446	-0.479732	8.820951	0.372695	-0.740673	-0.777369	-0.707031	0.183594	-0.352783	0.159481	-0.316865	-0.059589	-0.933066
05672		6.742080	-0.515522	8.956848	0.337592	-0.733428	-0.723837	-0.719482	0.154053	-0.354004	0.154411	-0.321821	-0.065371	-0.931834
05673		7.067676	-0.614499	9.141580	0.361778	-0.663287	-0.661991	-0.737549	0.145752	-0.341309	0.149911	-0.326206	-0.071073	-0.930626
05674		7.498221	-0.552184	9.084551	0.438480	-0.528965	-0.660255	-0.736572	0.135254	-0.349365	0.145702	-0.329430	-0.077185	-0.929671
05675		7.363973	-0.251086	8.636381	0.406298	-0.430242	-0.646180	-0.744385	0.120605	-0.341553	0.141568	-0.331917	-0.082877	-0.928936
05676		7.304090	-0.248861	8.146088	0.300053	-0.396244	-0.550124	-0.758301	0.111328	-0.346436	0.137901	-0.334314	-0.087429	-0.928210
05677		7.585545	-0.133226	7.867684	0.288570	-0.364893	-0.415965	-0.769775	0.100830	-0.329346	0.135257	-0.336569	-0.091474	-0.927394
05678		7.511891	0.237535	7.726427	0.370048	-0.325108	-0.297070	-0.758301	0.081787	-0.334229	0.133788	-0.338509	-0.095760	-0.926468
05679		7.307424	0.880279	7.637413	0.475453	-0.327162	-0.285722	-0.771240	0.075684	-0.336670	0.132699	-0.340347	-0.100822	-0.925413
05680		7.444828	1.697773	7.368740	0.429339	-0.355195	-0.327069	-0.771973	0.067139	-0.323486	0.131132	-0.342409	-0.105671	-0.924334
05681		7.278288	1.701051	7.164780	0.302645	-0.404327	-0.378088	-0.770264	0.065430	-0.323242	0.128764	-0.344932	-0.109741	-0.923254
05682		7.212441	1.268027	7.004444	0.291506	-0.486665	-0.441444	-0.782715	0.060059	-0.314453	0.125796	-0.348031	-0.113992	-0.921984
05683		7.042625	1.474357	6.959037	0.314756	-0.592752	-0.514406	-0.787598	0.041504	-0.314697	0.122228	-0.351837	-0.118737	-0.920420
05684		7.100764	1.485851	7.158664	0.301401	-0.690646	-0.559362	-0.797607	0.028320	-0.300293	0.118172	-0.356341	-0.123604	-0.918574
05685		6.971380	1.595008	7.413004	0.281643	-0.750011	-0.602859	-0.801270	0.015625	-0.280518	0.113653	-0.361248	-0.128497	-0.916554
05686		6.905778	1.431636	7.709005	0.239500	-0.803544	-0.669790	-0.811279	0.005615	-0.281982	0.108430	-0.366502	-0.133308	-0.914411
05687		7.606172	1.179347	8.057355	0.222306	-0.795207	-0.693724	-0.812988	-0.000977	-0.267578	0.102972	-0.371647	-0.138039	-0.912261
05688		7.902763	1.092782	8.066492	0.240251	-0.697498	-0.658082	-0.816895	-0.016602	-0.254639	0.097944	-0.376043	-0.142696	-0.910294
05689		7.713514	1.190451	7.811695	0.220902	-0.577918	-0.511654	-0.808350	-0.026855	-0.252686	0.094102	-0.379699	-0.146636	-0.908554
05690		7.057256	1.339794	7.659986	0.237336	-0.511809	-0.377380	-0.813477	-0.028564	-0.243652	0.091406	-0.382989	-0.150212	-0.906863
05691		6.910312	1.626095	7.778587	0.305924	-0.508071	-0.355060	-0.814697	-0.040283	-0.229004	0.089099	-0.386210	-0.154221	-0.905052
05692		7.036353	2.118846	7.870977	0.341093	-0.510037	-0.453947	-0.817627	-0.052002	-0.230469	0.086154	-0.389274	-0.158805	-0.903230
05693		7.315965	2.527524	7.805193	0.249135	-0.494917	-0.550826	-0.824463	-0.066406	-0.223145	0.082197	-0.392140	-0.162990	-0.901612
05694		7.391281	2.173211	7.632525	0.123863	-0.476158	-0.585008	-0.834717	-0.072998	-0.218506	0.077597	-0.394884	-0.166324	-0.900212
05695		7.577252	1.972021	7.330122	0.086839	-0.459669	-0.585668	-0.825684	-0.083496	-0.211182	0.072889	-0.397506	-0.169361	-0.898884
05696		7.588465	2.087347	6.962604	0.041702	-0.456274	-0.561304	-0.825195	-0.088135	-0.208252	0.068217	-0.400148	-0.171967	-0.897583
05697		7.436751	1.885037	6.838192	-0.005828	-0.473546	-0.531880	-0.825928	-0.098389	-0.210205	0.063579	-0.402971	-0.174118	-0.896245
05698		7.678821	1.744368	6.759188	0.038896	-0.477565	-0.540733	-0.829834	-0.107910	-0.200684	0.059017	-0.405771	-0.176624	-0.894802
05699		7.881935	1.800279	6.656764	0.100116	-0.453777	-0.521535	-0.833008	-0.109619	-0.188232	0.054838	-0.408377	-0.179498	-0.893309
05700		7.724026	1.748112	6.636262	0.151361	-0.426350	-0.472590	-0.824219	-0.120361	-0.188477	0.051238	-0.410815	-0.182562	-0.891783
05701		7.748488	1.784850	6.636526	0.207239	-0.413884	-0.433650	-0.835205	-0.126465	-0.176270	0.048135	-0.413183	-0.185891	-0.890173
05702		8.125007	2.065187	6.549568	0.216165	-0.369861	-0.377734	-0.830078	-0.133789	-0.175781	0.045546	-0.415296	-0.189066	-0.888656
05703		7.854062	1.952721	6.373991	0.209439	-0.302576	-0.286593	-0.840332	-0.141357	-0.167969	0.043713	-0.417050	-0.191840	-0.887331
05704		7.468225	1.863088	6.414847	0.270177	-0.280673	-0.192280	-0.832520	-0.138672	-0.167480	0.042824	-0.418764	-0.194718	-0.885939
05705		7.440561	2.158076	6.472314	0.349976	-0.279842	-0.164594	-0.837402	-0.141357	-0.166260	0.042418	-0.420483	-0.198080	-0.884398
05706		7.432502	2.757371	6.446786	0.326615	-0.274418	-0.162524	-0.833008	-0.140137	-0.156738	0.041954	-0.422166	-0.201252	-0.882901
05707		7.381822	2.816328	6.382340	0.238440	-0.260762	-0.157175	-0.832764	-0.146729	-0.156006	0.041243	-0.423780	-0.203746	-0.881588
05708		7.159240	2.760907	6.309212	0.204591	-0.250510	-0.151252	-0.839111	-0.150635	-0.154785	0.040472	-0.425336	-0.205962	-0.880358
05709		6.963925	2.830444	6.360282	0.205481	-0.252350	-0.138617	-0.847168	-0.156738	-0.145996	0.039794	-0.426920	-0.208135	-0.879110
05710		6.863522	3.059789	6.588951	0.228734	-0.264297	-0.164613	-0.840088	-0.164795	-0.146484	0.038987	-0.428533	-0.210571	-0.877781
05711		7.170332	3.236518	6.752525	0.237294	-0.240673	-0.228282	-0.846924	-0.160156	-0.136475	0.037786	-0.429850	-0.213283	-0.876534
05712		7.476063	3.341950	6.658565	0.222058	-0.175969	-0.300040	-0.835205	-0.164062	-0.141357	0.036121	-0.430563	-0.216117	-0.875560
05713		7.642307	3.172546	6.356640	0.171760	-0.109129	-0.319327	-0.844482	-0.173584	-0.136230	0.034255	-0.430761	-0.218628	-0.874914
05714		7.713768	2.844468	6.033573	0.157443	-0.056397	-0.285077	-0.838135	-0.174561	-0.131592	0.032683	-0.430635	-0.220892	-0.874467
05715		7.530745	2.629830	5.846790	0.205536	-0.045301	-0.222754	-0.841553	-0.180908	-0.135986	0.031759	-0.430527	-0.223273	-0.873949
05716		7.538122	2.883594	5.869859	0.278635	-0.062348	-0.162702	-0.839844	-0.185791	-0.139160	0.031502	-0.430633	-0.225970	-0.873213
05717		7.668536	3.311792	5.896859	0.286794	-0.057717	-0.121683	-0.839600	-0.185791	-0.138428	0.031582	-0.430776	-0.228573	-0.872461
05718		7.738965	3.235066	5.942312	0.288894	-0.027612	-0.128539	-0.838379	-0.194580	-0.133789	0.031677	-0.430684	-0.231203	-0.871810
05719		7.615209	3.167407	5.816224	0.323583	-0.000814	-0.174213	-0.841553	-0.192627	-0.134277	0.031616	-0.430296	-0.234237	-0.871194
05720		7.345606	3.111872	5.742479	0.315232	-0.014106	-0.196480	-0.838623	-0.202148	-0.133545	0.031337	-0.429959	-0.237289	-0.870545
05721		7.256277	3.172271	5.723576	0.259627	-0.075796	-0.226788	-0.837402	-0.203613	-0.136719	0.030517	-0.430019	-0.240056	-0.869785
05722		7.352060	3.406943	5.692119	0.121679	-0.142308	-0.254238	-0.842529	-0.210938	-0.135742	0.028870	-0.430538	-0.241933	-0.869064
05723		7.455526	3.277326	5.711618	-0.034231	-0.188835	-0.263603	-0.837402	-0.205322	-0.137695	0.026502	-0.431409	-0.242722	-0.868487
05724		7.473239	3.077507	5.644944	-0.089691	-0.204530	-0.263231	-0.844727	-0.218994	-0.132324	0.023906	-0.432402	-0.243106	-0.867961
05725		7.409162	2.956523	5.675619	-0.074798	-0.201954	-0.226247	-0.846191	-0.218994	-0.123291	0.021636	-0.433446	-0.243458	-0.867401
05726		7.557727	2.976309	5.822919	0.001799	-0.175262	-0.174135	-0.843018	-0.223633	-0.119873	0.020073	-0.434387	-0.244165	-0.866769
05727		7.595600	3.094961	5.924122	0.089503	-0.122614	-0.135141	-0.842041	-0.230469	-0.127441	0.019217	-0.435011	-0.245350	-0.866141
05728		7.553339	3.343845	5.983127	0.137952	-0.074175	-0.100038	-0.846191	-0.235107	-0.135742	0.018888	-0.435348	-0.246744	-0.865582
05729		7.613364	3.492435	5.972433	0.129581	-0.031676	-0.067755	-0.843506	-0.240479	-0.131836	0.018850	-0.435445	-0.247950	-0.865190
05730		7.592323	3.464649	5.818839	0.106701	0.002985	-0.058673	-0.847412	-0.232910	-0.119873	0.018865	-0.435312	-0.248949	-0.864969
05731		7.422078	3.419716	5.629191	0.071180	0.005983	-0.059366	-0.843262	-0.237549	-0.114746	0.018753	-0.435162	-0.249691	-0.864833
05732		7.359582	3.378259	5.495240	0.036450	-0.013488	-0.042544	-0.835938	-0.236328	-0.126465	0.018595	-0.435192	-0.250121	-0.864697
05733		7.368121	3.329760	5.525867	0.034542	-0.031582	-0.033063	-0.843262	-0.232910	-0.129639	0.018461	-0.435373	-0.250503	-0.864499
05734		7.482828	3.435679	5.625056	0.046302	-0.029447	-0.022913	-0.847168	-0.240967	-0.125244	0.018447	-0.435557	-0.250929	-0.864283
05735		8.759015	1.883497	7.064292	0.049928	0.096798	0.115379	-0.840332	-0.237305	-0.126953	0.019706	-0.435120	-0.250857	-0.864496
05736		7.708446	1.807748	6.180025	0.063189	0.353139	0.375873	-0.839600	-0.229736	-0.121338	0.023426	-0.433376	-0.249879	-0.865562
05737		6.429546	4.246672	4.807254	0.113879	0.265706	0.369269	-0.843506	-0.236328	-0.123047	0.027098	-0.432232	-0.249295	-0.866194
05738		6.783284	4.519060	4.843866	0.016787	0.084513	0.290678	-0.850830	-0.222656	-0.132080	0.029476	-0.432249	-0.248334	-0.866385
05739		7.380888	4.553586	5.225793	-0.018598	-0.000093	0.116347	-0.844971	-0.216797	-0.134033	0.030293	-0.432521	-0.247769	-0.866383
05740		7.429334	4.315949	5.606288	-0.058706	0.006081	-0.002821	-0.848633	-0.223145	-0.129883	0.030118	-0.432511	-0.247343	-0.866515
05741		7.379990	3.681137	5.633713	-0.132254	0.037512	0.007210	-0.839844	-0.216797	-0.135254	0.029815	-0.432312	-0.246343	-0.866910
05742		7.249426	3.470234	5.297465	-0.116849	0.041853	0.028079	-0.844482	-0.219238	-0.138916	0.029727	-0.432119	-0.245376	-0.867283
05743		7.245980	3.621057	5.127267	-0.049724	0.012195	0.019230	-0.844238	-0.221436	-0.139160	0.029756	-0.432105	-0.244932	-0.867414
05744		7.388486	3.680894	5.183303	0.000258	-0.023721	0.001748	-0.842773	-0.201416	-0.141357	0.029765	-0.432303	-0.244921	-0.867319
05745		7.515889	3.786289	5.291202	-0.002769	-0.040427	-0.021558	-0.854492	-0.219971	-0.135010	0.029561	-0.432575	-0.244975	-0.867175
05746		7.325387	3.707111	5.337094	-0.030258	-0.054689	-0.062069	-0.834961	-0.223877	-0.142334	0.028936	-0.432875	-0.244979	-0.867045
05747		7.197017	3.653995	5.330178	-0.067755	-0.080094	-0.105820	-0.849854	-0.225098	-0.135010	0.027807	-0.433276	-0.244875	-0.866911
05748		7.261955	3.666475	5.344922	-0.119600	-0.121690	-0.138089	-0.846191	-0.217285	-0.132324	0.026173	-0.433923	-0.244521	-0.866738
05749		7.443792	3.512838	5.417661	-0.178859	-0.150099	-0.146593	-0.846680	-0.229980	-0.133789	0.024205	-0.434769	-0.243774	-0.866582
05750		7.496696	3.228826	5.566106	-0.191818	-0.151574	-0.161354	-0.842529	-0.235352	-0.133057	0.022081	-0.435596	-0.242984	-0.866445
05751		7.443013	3.074434	5.651856	-0.180627	-0.149605	-0.172194	-0.844727	-0.230469	-0.131348	0.019923	-0.436382	-0.242309	-0.866291
05752		7.515705	3.117783	5.684687	-0.209045	-0.150399	-0.141249	-0.845947	-0.231689	-0.123779	0.017883	-0.437239	-0.241312	-0.866182
05753		7.603726	3.009655	5.755243	-0.254094	-0.134413	-0.081438	-0.838623	-0.223633	-0.130615	0.016142	-0.438105	-0.239764	-0.866208
05754		7.611902	2.929430	5.817410	-0.255473	-0.109982	-0.028527	-0.837402	-0.231934	-0.121826	0.014827	-0.438899	-0.238005	-0.866315
05755		7.595476	2.963031	5.868192	-0.230561	-0.083519	0.014125	-0.840088	-0.228516	-0.128174	0.013963	-0.439581	-0.236261	-0.866461
05756		7.475830	3.049623	5.886687	-0.216140	-0.067761	0.013817	-0.844727	-0.225098	-0.128418	0.013180	-0.440145	-0.234615	-0.866634
05757		7.280035	3.083048	5.907281	-0.239768	-0.097559	-0.026553	-0.837158	-0.223633	-0.120605	0.011961	-0.440846	-0.232946	-0.866745
05758		7.457346	3.017137	5.995987	-0.288705	-0.137379	-0.071377	-0.840332	-0.223877	-0.122803	0.010161	-0.441749	-0.231088	-0.866806
05759		7.780965	2.740560	6.104167	-0.330627	-0.143155	-0.096327	-0.847656	-0.225830	-0.123779	0.008014	-0.442646	-0.229013	-0.866922
05760		7.664783	2.247356	6.168522	-0.311397	-0.129610	-0.101368	-0.838135	-0.226074	-0.114746	0.005928	-0.443429	-0.227089	-0.867044
05761		7.559553	2.077381	6.279413	-0.271747	-0.119904	-0.050543	-0.843506	-0.218262	-0.121094	0.004374	-0.444234	-0.225254	-0.867120
05762		7.655414	2.175528	6.528138	-0.259252	-0.097580	0.047805	-0.847900	-0.221680	-0.108398	0.003618	-0.445059	-0.223137	-0.867248
05763		7.824683	2.313567	6.745726	-0.269981	-0.042252	0.137019	-0.838135	-0.215820	-0.118164	0.003569	-0.445647	-0.220603	-0.867594
05764		7.820698	2.413910	6.788539	-0.285451	0.050110	0.209884	-0.839111	-0.210938	-0.116943	0.004159	-0.445698	-0.217675	-0.868305
05765		7.785425	2.407517	6.711333	-0.299094	0.141524	0.273065	-0.836914	-0.214111	-0.112305	0.005320	-0.445195	-0.214403	-0.869370
05766		7.651806	2.332076	6.567721	-0.276585	0.213912	0.313055	-0.841309	-0.198975	-0.125488	0.006984	-0.444231	-0.211134	-0.870650
05767		7.517653	2.261246	6.500450	-0.225890	0.257352	0.326326	-0.835938	-0.195068	-0.121582	0.009007	-0.442964	-0.208173	-0.871989
05768		7.446567	2.294216	6.555253	-0.196002	0.276904	0.339323	-0.851562	-0.196777	-0.129395	0.011268	-0.441567	-0.205373	-0.873335
05769		7.628033	2.216460	6.678517	-0.182716	0.299632	0.340908	-0.841553	-0.178467	-0.125977	0.013627	-0.439996	-0.202654	-0.874728
05770		7.761472	2.267371	6.754063	-0.179185	0.337841	0.338418	-0.842773	-0.178223	-0.135010	0.016045	-0.438132	-0.199958	-0.876242
05771		7.892816	2.370184	6.717377	-0.227990	0.371929	0.373729	-0.841553	-0.177734	-0.142334	0.018597	-0.436075	-0.196763	-0.877939
05772		7.970390	2.363390	6.583511	-0.295854	0.397038	0.413590	-0.839355	-0.164551	-0.147949	0.021233	-0.433896	-0.192915	-0.879811
05773		7.924042	2.333108	6.458465	-0.349361	0.402742	0.447732	-0.836426	-0.157471	-0.157471	0.023936	-0.431725	-0.188542	-0.881756
05774		7.781930	2.416566	6.379423	-0.388065	0.386142	0.490081	-0.832520	-0.146240	-0.159180	0.026781	-0.429733	-0.183725	-0.883662
05775		7.896320	2.396966	6.408250	-0.374007	0.376410	0.519016	-0.835693	-0.142822	-0.164062	0.029874	-0.427837	-0.178902	-0.885470
05776		7.876984	2.463772	6.416070	-0.328363	0.376641	0.506465	-0.830811	-0.122803	-0.169189	0.033034	-0.425892	-0.174453	-0.887182
05777		7.796922	2.538425	6.363724	-0.321951	0.370065	0.478731	-0.832031	-0.121582	-0.171387	0.036010	-0.423937	-0.170143	-0.888837
05778		7.528407	2.512457	6.358749	-0.381128	0.334785	0.475128	-0.841064	-0.113037	-0.181641	0.038688	-0.422243	-0.165414	-0.890422
05779		7.493092	2.277343	6.552692	-0.413435	0.303605	0.503346	-0.835938	-0.104492	-0.176025	0.041427	-0.420809	-0.160353	-0.891903
05780		7.674135	2.355000	6.739096	-0.382938	0.317203	0.501657	-0.829102	-0.095459	-0.187988	0.044268	-0.419257	-0.155512	-0.893353
05781		7.639828	2.634909	6.686571	-0.390949	0.356021	0.500854	-0.828369	-0.090332	-0.197266	0.047121	-0.417387	-0.150591	-0.894924
05782		7.268199	2.426836	6.612865	-0.413753	0.377572	0.496165	-0.831055	-0.075684	-0.196045	0.049878	-0.415335	-0.145505	-0.896570
05783		7.101205	2.387634	6.642325	-0.395340	0.361729	0.471746	-0.831787	-0.063232	-0.198242	0.052518	-0.413362	-0.140644	-0.898105
05784		7.304918	2.371636	6.752298	-0.380093	0.354793	0.444665	-0.833496	-0.069580	-0.209717	0.055015	-0.411395	-0.135990	-0.899575
05785		7.384172	2.367539	6.812001	-0.382249	0.369876	0.421797	-0.829590	-0.057129	-0.211914	0.057295	-0.409255	-0.131397	-0.901090
05786		7.249743	2.114535	6.869799	-0.387139	0.367354	0.385697	-0.830322	-0.048584	-0.212891	0.059300	-0.407092	-0.126884	-0.902585
05787		7.136889	1.854252	7.011988	-0.369801	0.339902	0.325782	-0.822266	-0.056396	-0.221924	0.060888	-0.405067	-0.122714	-0.903966
05788		7.396196	1.744835	7.102352	-0.356675	0.298902	0.244259	-0.826660	-0.040771	-0.224365	0.061778	-0.403225	-0.118947	-0.905232
05789		7.515896	1.615707	7.135185	-0.426959	0.262633	0.167311	-0.828857	-0.031982	-0.227295	0.061894	-0.401621	-0.114917	-0.906457
05790		7.716342	1.094608	7.199640	-0.505045	0.222415	0.133298	-0.817871	-0.035156	-0.231445	0.061484	-0.400325	-0.110425	-0.907615
05791		8.018202	0.496650	7.236774	-0.508089	0.209538	0.128600	-0.824707	-0.030518	-0.234619	0.060953	-0.399099	-0.105933	-0.908726
05792		8.220988	0.115811	7.239314	-0.457668	0.237437	0.178919	-0.817383	-0.015625	-0.238281	0.061015	-0.397678	-0.101639	-0.909834
05793		7.991454	-0.072542	7.326927	-0.411809	0.274369	0.306397	-0.816895	-0.006836	-0.246826	0.062293	-0.396050	-0.097228	-0.910940
05794		7.877480	-0.089676	7.562872	-0.374343	0.304200	0.466633	-0.811523	-0.006592	-0.244385	0.064965	-0.394272	-0.092553	-0.912010
05795		7.839192	0.125231	7.837612	-0.338504	0.364055	0.592705	-0.814941	0.007324	-0.247803	0.068657	-0.392131	-0.087696	-0.913142
05796		7.850854	0.297602	8.114194	-0.312962	0.447139	0.671974	-0.810547	0.023193	-0.257568	0.073136	-0.389396	-0.082715	-0.914429
05797		7.763690	0.461662	8.161964	-0.290243	0.539185	0.700844	-0.807617	0.041016	-0.264160	0.078020	-0.385919	-0.077745	-0.915934
05798		7.644242	0.529166	8.073560	-0.290569	0.606204	0.701161	-0.796143	0.054443	-0.268799	0.082997	-0.381911	-0.072706	-0.917589
05799		7.602271	0.237368	8.029923	-0.282110	0.650052	0.696952	-0.790039	0.065186	-0.280273	0.087954	-0.377538	-0.067694	-0.919318
05800		7.682369	0.074417	7.864301	-0.234862	0.674086	0.680449	-0.781738	0.076416	-0.288574	0.092896	-0.372888	-0.063096	-0.921056
05801		7.658405	0.210892	7.760653	-0.254625	0.695673	0.719514	-0.781006	0.093018	-0.295410	0.098035	-0.368082	-0.058228	-0.922775
05802		7.366733	0.090174	7.737870	-0.292537	0.690034	0.776206	-0.778564	0.113525	-0.298096	0.103476	-0.363352	-0.052905	-0.924375
05803		7.194129	0.178531	7.822129	-0.297366	0.650457	0.761808	-0.761230	0.119873	-0.308350	0.108761	-0.358894	-0.047621	-0.925796
05804		7.447176	0.292947	7.929565	-0.329025	0.636467	0.726576	-0.756592	0.136719	-0.306396	0.113664	-0.354530	-0.042210	-0.927150
05805		7.839744	-0.117265	7.860170	-0.322434	0.673516	0.707360	-0.743408	0.155029	-0.320312	0.118443	-0.349839	-0.036871	-0.928560
05806		7.692337	-0.482615	7.624334	-0.240709	0.721730	0.726433	-0.736816	0.167236	-0.314941	0.123613	-0.344674	-0.032061	-0.929995
05807		7.117526	-0.429168	7.485052	-0.189110	0.729711	0.837334	-0.731445	0.173340	-0.331787	0.129781	-0.339396	-0.027321	-0.931247
05808		7.041581	-0.251362	7.625507	-0.148067	0.724464	0.953670	-0.716553	0.194824	-0.329346	0.136954	-0.334108	-0.022577	-0.932258
05809		7.097437	0.183731	7.682072	-0.083708	0.750787	0.973366	-0.704834	0.204834	-0.333252	0.144449	-0.328511	-0.018248	-0.933211
05810		6.859764	0.628034	7.550984	-0.108672	0.782003	0.933032	-0.688721	0.215088	-0.339600	0.151551	-0.322659	-0.013800	-0.934202
05811		6.357416	0.592445	7.308810	-0.172191	0.767011	0.891796	-0.683350	0.231445	-0.346191	0.158145	-0.316967	-0.008994	-0.935116
05812		6.147154	0.461759	7.142781	-0.199416	0.715621	0.862036	-0.666016	0.251709	-0.338623	0.164418	-0.311679	-0.004127	-0.935845
05813		5.860929	0.414993	7.122893	-0.174478	0.655351	0.809870	-0.664551	0.253662	-0.350830	0.170333	-0.306798	0.000322	-0.936409
05814		5.674663	0.553531	7.207462	-0.177118	0.588106	0.740503	-0.652344	0.273438	-0.344971	0.175690	-0.302423	0.004512	-0.936831
05815		5.388281	0.676268	7.412278	-0.231278	0.515373	0.679390	-0.652344	0.286377	-0.343750	0.180427	-0.298680	0.008857	-0.937101
05816		5.486092	0.662805	7.611462	-0.285324	0.468819	0.606261	-0.635986	0.288330	-0.346924	0.184455	-0.295371	0.013364	-0.937312
05817		5.712502	0.455429	7.567915	-0.320970	0.467920	0.495212	-0.631836	0.297852	-0.352051	0.187522	-0.292123	0.017868	-0.937646
05818		5.452331	-0.162259	7.496615	-0.326502	0.454617	0.400750	-0.631836	0.296631	-0.357178	0.189835	-0.288992	0.022156	-0.938059
05819		5.392825	-0.629763	7.460393	-0.290575	0.409537	0.365664	-0.620117	0.319580	-0.344727	0.191965	-0.286154	0.026001	-0.938397
05820		5.370600	-0.978989	7.613552	-0.243787	0.385727	0.392977	-0.615967	0.313232	-0.354004	0.194421	-0.283415	0.029504	-0.938619
05821		5.283701	-1.319991	7.952080	-0.134107	0.398440	0.439496	-0.616455	0.322021	-0.344482	0.197492	-0.280381	0.032276	-0.938798
05822		5.126838	-1.296931	8.217952	-0.018549	0.425213	0.466759	-0.609375	0.328857	-0.350098	0.201035	-0.276934	0.034249	-0.938999
05823		4.991929	-0.949253	8.436817	-0.005482	0.455222	0.492637	-0.603760	0.336182	-0.352051	0.204796	-0.273214	0.036226	-0.939202
05824		4.830299	-0.915558	8.547261	-0.070468	0.475794	0.478275	-0.593262	0.342285	-0.353760	0.208285	-0.269439	0.038710	-0.939426
05825		4.693563	-0.909400	8.577103	-0.152586	0.475479	0.440588	-0.591797	0.346924	-0.350830	0.211289	-0.265812	0.041746	-0.939658
05826		4.745628	-0.895033	8.565973	-0.224083	0.469556	0.421339	-0.575195	0.360596	-0.357666	0.213982	-0.262355	0.045285	-0.939857
05827		5.139936	-0.976128	8.302308	-0.261334	0.500319	0.425177	-0.579102	0.356689	-0.360840	0.216605	-0.258713	0.049173	-0.940070
05828		5.440707	-1.144954	7.765505	-0.256456	0.552784	0.385321	-0.573486	0.366699	-0.356934	0.218900	-0.254660	0.053026	-0.940436
05829		4.826789	-1.502215	7.120124	-0.278816	0.530730	0.372251	-0.560791	0.379395	-0.357666	0.221047	-0.250819	0.056980	-0.940735
05830		4.167315	-2.113615	7.003892	-0.227851	0.412402	0.406886	-0.570312	0.379150	-0.359375	0.223623	-0.247789	0.060386	-0.940716
05831		3.919309	-1.834360	7.529235	-0.097547	0.264990	0.419500	-0.566162	0.392578	-0.355225	0.226635	-0.245662	0.062520	-0.940414
05832		4.647464	-0.998040	7.954925	-0.098182	0.221589	0.422821	-0.565430	0.398438	-0.359863	0.229691	-0.243871	0.064583	-0.939999
05833		4.438675	-0.972838	7.881761	-0.204795	0.286323	0.385282	-0.553467	0.403320	-0.363525	0.232199	-0.241793	0.067522	-0.939713
05834		3.574685	-1.197340	7.700718	-0.248721	0.244464	0.331079	-0.546143	0.404541	-0.363525	0.234216	-0.240155	0.070609	-0.939406
05835		3.740893	-1.142352	7.501273	-0.322969	0.175435	0.313161	-0.536377	0.416016	-0.363525	0.235982	-0.239209	0.074103	-0.938936
05836		4.000552	-1.450841	7.368787	-0.304083	0.170348	0.278414	-0.547119	0.422363	-0.359863	0.237515	-0.238284	0.077366	-0.938521
05837		3.601792	-1.547110	7.289715	-0.203516	0.163787	0.273346	-0.542725	0.427979	-0.355957	0.239210	-0.237212	0.079815	-0.938157
05838		4.481228	-1.007275	7.059463	-0.159850	0.210968	0.335101	-0.539795	0.418213	-0.357422	0.241442	-0.235642	0.082136	-0.937781
05839		3.436770	-1.305180	6.746080	-0.118680	0.258118	0.339578	-0.534180	0.430664	-0.362549	0.243756	-0.233615	0.084233	-0.937503
05840		2.647527	-0.961291	6.733147	-0.066819	0.147230	0.312956	-0.537354	0.444824	-0.362549	0.246039	-0.232367	0.085644	-0.937089
05841		3.216177	-0.622475	7.056229	-0.050268	0.086915	0.287166	-0.524658	0.440430	-0.364746	0.248196	-0.231571	0.086748	-0.936615
05842		3.225921	-0.595044	7.299788	0.020458	0.123410	0.256651	-0.525146	0.449219	-0.364258	0.250225	-0.230365	0.087311	-0.936321
05843		3.808789	-0.089811	7.033459	0.057054	0.208039	0.219876	-0.523438	0.442383	-0.362061	0.251977	-0.228447	0.087689	-0.936285
05844		3.814193	0.023564	6.154107	-0.045155	0.285606	0.217350	-0.521240	0.447754	-0.357910	0.253460	-0.226139	0.089015	-0.936320
05845		2.775749	-0.551779	5.532798	-0.074734	0.217718	0.218619	-0.516357	0.444824	-0.364990	0.254947	-0.224422	0.090423	-0.936194
05846		2.647622	-0.389533	5.496023	0.018073	0.047851	0.234411	-0.517334	0.454102	-0.365723	0.256860	-0.223821	0.090771	-0.935782
05847		3.308944	0.178394	5.753185	0.138435	-0.029420	0.206623	-0.510498	0.454102	-0.372314	0.258840	-0.223585	0.089959	-0.935371
05848		3.560489	0.821035	5.883934	0.196179	-0.012032	0.141366	-0.516602	0.448975	-0.366943	0.260408	-0.223139	0.088606	-0.935172
05849		3.172187	1.060518	5.621484	0.163796	-0.014869	0.044067	-0.512451	0.446777	-0.370361	0.261162	-0.222856	0.087308	-0.935151
05850		2.666468	1.173493	5.473190	0.100897	-0.121832	-0.040926	-0.509521	0.444336	-0.369873	0.261218	-0.223607	0.086102	-0.935068
05851		3.272357	0.945871	5.534016	0.112029	-0.187569	-0.071663	-0.512451	0.445801	-0.372070	0.261105	-0.224866	0.084599	-0.934935
05852		3.365598	0.414919	5.683416	0.335190	-0.162748	-0.121992	-0.519287	0.438965	-0.369629	0.261003	-0.225480	0.081308	-0.935107
05853		3.290857	0.868413	5.776078	0.597834	-0.145685	-0.210406	-0.513916	0.435547	-0.384766	0.260690	-0.225446	0.075834	-0.935662
05854		3.677863	1.784839	5.695499	0.594416	-0.180350	-0.282427	-0.515381	0.424316	-0.390381	0.259827	-0.225727	0.070165	-0.936277
05855		3.578252	1.709949	5.675775	0.427027	-0.287071	-0.392940	-0.523193	0.418701	-0.385010	0.257844	-0.227261	0.065351	-0.936802
05856		3.678929	1.011839	5.778578	0.362425	-0.434010	-0.532134	-0.534180	0.412109	-0.395264	0.254728	-0.230148	0.060449	-0.937279
05857		3.704805	0.351987	6.294510	0.482404	-0.556889	-0.625485	-0.535889	0.394287	-0.391357	0.251162	-0.233774	0.054159	-0.937728
05858		4.099696	0.267418	6.996021	0.660523	-0.645171	-0.703271	-0.544922	0.385254	-0.386230	0.247357	-0.237732	0.046130	-0.938174
05859		4.495643	0.686580	7.680938	0.704160	-0.710689	-0.828784	-0.555664	0.375244	-0.382324	0.242656	-0.242134	0.037366	-0.938666
05860		4.732567	0.812905	8.088598	0.552126	-0.775917	-0.936054	-0.572021	0.365723	-0.384033	0.236802	-0.247354	0.029432	-0.939082
05861		5.029112	-0.069218	8.432063	0.415190	-0.788960	-0.952197	-0.578125	0.346680	-0.391113	0.230515	-0.252918	0.022498	-0.939356
05862		5.366376	-1.100515	8.751625	0.535824	-0.769536	-0.955500	-0.585938	0.334229	-0.375244	0.224424	-0.258066	0.014644	-0.939586
05863		5.701182	-0.927520	8.901919	0.677877	-0.748573	-0.970121	-0.607910	0.311035	-0.380371	0.218490	-0.262750	0.005683	-0.939783
05864		6.000890	-0.505750	8.901388	0.597650	-0.756381	-0.935229	-0.612793	0.299316	-0.377930	0.212623	-0.267603	-0.002590	-0.939773
05865		6.226876	-0.584558	8.779884	0.391536	-0.739163	-0.794961	-0.619629	0.294189	-0.382080	0.207371	-0.272658	-0.008907	-0.939455
05866		6.385117	-1.211454	8.740304	0.376152	-0.667560	-0.634285	-0.627686	0.267090	-0.377197	0.203329	-0.277169	-0.014615	-0.938947
05867		6.512478	-1.281365	8.650622	0.602881	-0.593795	-0.616882	-0.633057	0.266602	-0.382812	0.199938	-0.280700	-0.021930	-0.938484
05868		6.022335	-0.697003	8.508570	0.730321	-0.590938	-0.647786	-0.637207	0.248535	-0.380371	0.196584	-0.283967	-0.030306	-0.937976
05869		5.508633	-0.209376	8.739528	0.646098	-0.709140	-0.642928	-0.649658	0.240234	-0.388916	0.193019	-0.288270	-0.038201	-0.937115
05870		5.873555	0.107590	9.088967	0.472343	-0.825836	-0.646675	-0.670166	0.229980	-0.390381	0.188950	-0.293733	-0.044934	-0.935949
05871		6.954171	0.155860	9.225260	0.355139	-0.781867	-0.666873	-0.680664	0.206299	-0.372314	0.184435	-0.299001	-0.050729	-0.934884
05872		6.678275	-0.356429	8.992741	0.386998	-0.653877	-0.671410	-0.691162	0.202881	-0.370117	0.180000	-0.303199	-0.056583	-0.934061
05873		6.025595	0.026022	8.603240	0.443789	-0.653556	-0.705053	-0.692383	0.185791	-0.373291	0.175433	-0.307267	-0.062958	-0.933191
05874		6.222187	0.458629	8.534088	0.317720	-0.761148	-0.756449	-0.706299	0.177734	-0.368896	0.170071	-0.312301	-0.068637	-0.932112
05875		7.129074	0.095634	8.443575	0.188632	-0.796637	-0.808279	-0.715088	0.156006	-0.362305	0.163932	-0.317735	-0.073491	-0.931005
05876		7.086965	-0.475376	8.459474	0.206298	-0.714874	-0.738492	-0.733398	0.141846	-0.355225	0.158415	-0.322525	-0.078178	-0.929930
05877		6.438366	-0.477357	8.496686	0.358466	-0.668429	-0.594715	-0.731934	0.138428	-0.356445	0.154438	-0.326826	-0.083588	-0.928626
05878		6.606064	0.790504	8.570781	0.445779	-0.681960	-0.603859	-0.742188	0.128906	-0.349121	0.150604	-0.331089	-0.089705	-0.927174
05879		7.138460	1.852130	8.280103	0.216904	-0.684639	-0.656925	-0.750000	0.113281	-0.338135	0.145715	-0.335595	-0.094198	-0.925889
05880		7.506224	0.999331	7.918780	0.034095	-0.633725	-0.665089	-0.755615	0.089844	-0.338379	0.140282	-0.339900	-0.097237	-0.924842
05881		7.172871	0.250857	7.631928	0.173137	-0.581472	-0.627860	-0.762939	0.084229	-0.331787	0.135563	-0.343652	-0.101176	-0.923737
05882		6.403732	0.637094	7.740644	0.399537	-0.621614	-0.551747	-0.765381	0.070557	-0.318115	0.132034	-0.347501	-0.106676	-0.922188
05883		7.068752	2.043347	7.903817	0.431752	-0.684514	-0.550140	-0.782227	0.064697	-0.315918	0.128545	-0.351777	-0.112480	-0.920368
05884		7.518158	2.809716	7.751239	0.197363	-0.668847	-0.639739	-0.788574	0.042969	-0.311035	0.123687	-0.356074	-0.116726	-0.918852
05885		7.321844	1.557692	7.695877	0.069948	-0.657624	-0.776445	-0.788086	0.037842	-0.297607	0.117406	-0.360257	-0.120387	-0.917572
05886		7.036122	0.533266	7.713331	0.258272	-0.689428	-0.901090	-0.791748	0.016113	-0.288818	0.110694	-0.364343	-0.125882	-0.916054
05887		7.353401	0.978493	7.862731	0.380876	-0.777068	-0.979383	-0.800537	-0.003906	-0.274902	0.103651	-0.368862	-0.132614	-0.914118
05888		8.177019	2.258787	7.702790	0.068937	-0.818723	-0.952610	-0.807373	-0.013428	-0.265625	0.095792	-0.373953	-0.136905	-0.912272
05889		7.911246	1.421992	7.438801	-0.310202	-0.786914	-0.860842	-0.812744	-0.032715	-0.253418	0.087474	-0.379169	-0.137988	-0.910790
05890		7.295596	0.185327	7.457593	-0.210608	-0.765330	-0.823111	-0.816406	-0.038086	-0.250977	0.079772	-0.384156	-0.139676	-0.909149
05891		7.367432	0.320278	7.678315	0.127365	-0.754305	-0.830245	-0.818604	-0.052246	-0.242920	0.073100	-0.388791	-0.143920	-0.907075
05892		7.782110	1.483189	7.863292	0.233779	-0.703825	-0.816155	-0.817383	-0.076416	-0.230713	0.066931	-0.392962	-0.148874	-0.904952
05893		7.965483	1.997084	7.767874	0.060744	-0.631422	-0.750207	-0.828125	-0.088379	-0.219238	0.060775	-0.396734	-0.152251	-0.903177
05894		7.784589	1.864469	7.407446	-0.118402	-0.584605	-0.673745	-0.822021	-0.082275	-0.212891	0.054657	-0.400316	-0.153991	-0.901691
05895		7.267146	1.496533	7.169001	-0.132524	-0.594984	-0.626886	-0.819824	-0.102051	-0.205566	0.048826	-0.404020	-0.155462	-0.900120
05896		7.433339	1.690981	7.235573	-0.045749	-0.630285	-0.640751	-0.823486	-0.109619	-0.195801	0.043132	-0.407912	-0.157633	-0.898276
05897		8.003350	1.886697	7.303146	0.029608	-0.599332	-0.685995	-0.831055	-0.119629	-0.191650	0.037393	-0.411462	-0.160498	-0.896405
05898		7.966135	1.670343	7.263082	0.083937	-0.541075	-0.706778	-0.823242	-0.125977	-0.179932	0.031760	-0.414508	-0.163808	-0.894618
05899		7.663524	1.503141	7.277223	0.128833	-0.504046	-0.667881	-0.822754	-0.140137	-0.178223	0.026618	-0.417297	-0.167297	-0.892842
05900		7.583509	1.427441	7.343963	0.161902	-0.472003	-0.586057	-0.821777	-0.146973	-0.168457	0.022242	-0.419935	-0.170726	-0.891074
05901		7.874935	1.526291	7.475765	0.200026	-0.392529	-0.521314	-0.821289	-0.156738	-0.172119	0.018591	-0.422051	-0.174186	-0.889487
05902		8.096102	1.467607	7.393051	0.255034	-0.259692	-0.470353	-0.824219	-0.162354	-0.165283	0.015701	-0.423235	-0.177842	-0.888255
05903		8.024879	1.479148	7.051033	0.311068	-0.137392	-0.376018	-0.821533	-0.172119	-0.159912	0.013886	-0.423638	-0.181555	-0.887342
05904		7.815779	1.584572	6.650091	0.347552	-0.068630	-0.264018	-0.823730	-0.179932	-0.161377	0.013130	-0.423691	-0.185125	-0.886590
05905		7.643436	2.047531	6.321045	0.330218	-0.055515	-0.163731	-0.820312	-0.177734	-0.153076	0.013073	-0.423800	-0.188203	-0.885891
05906		7.682939	2.503536	6.117521	0.248306	-0.075249	-0.078962	-0.828369	-0.177979	-0.155762	0.013320	-0.424194	-0.190374	-0.885234
05907		7.393544	2.526712	5.935611	0.201535	-0.086576	-0.052036	-0.821289	-0.183838	-0.160645	0.013581	-0.424718	-0.192102	-0.884606
05908		7.057152	2.798673	5.956126	0.222629	-0.134229	-0.054301	-0.832520	-0.179688	-0.154053	0.013824	-0.425586	-0.193996	-0.883771
05909		7.342982	3.120431	6.094617	0.248967	-0.161677	-0.069100	-0.829834	-0.192627	-0.148438	0.014005	-0.426626	-0.196138	-0.882793
05910		7.340737	3.380017	6.166545	0.265562	-0.167680	-0.154001	-0.835938	-0.188965	-0.151611	0.013611	-0.427566	-0.198701	-0.881771
05911		7.317776	3.643975	6.050686	0.212323	-0.191139	-0.251138	-0.824951	-0.191650	-0.145508	0.012274	-0.428519	-0.201220	-0.880756
05912		7.479669	3.473807	5.895516	0.127117	-0.201508	-0.298774	-0.832764	-0.202148	-0.138428	0.010266	-0.429471	-0.203282	-0.879844
05913		7.425487	2.960898	5.765414	0.130357	-0.202337	-0.317610	-0.832764	-0.207764	-0.152100	0.008129	-0.430392	-0.205433	-0.878916
05914		7.214040	2.698018	5.916663	0.236351	-0.229194	-0.312540	-0.828613	-0.207275	-0.138672	0.006363	-0.431506	-0.208340	-0.877699
05915		7.403205	3.058001	6.100715	0.291641	-0.255347	-0.298286	-0.835693	-0.213379	-0.129395	0.004854	-0.432827	-0.211595	-0.876279
05916		7.681952	3.356922	6.270175	0.233275	-0.234891	-0.288387	-0.832275	-0.224854	-0.134521	0.003242	-0.434011	-0.214382	-0.875022
05917		7.667515	3.110341	6.253725	0.158710	-0.190886	-0.284546	-0.831299	-0.226807	-0.126953	0.001465	-0.434878	-0.216606	-0.874049
05918		7.478918	2.780131	6.159573	0.173010	-0.166365	-0.289074	-0.834229	-0.229492	-0.139160	-0.000248	-0.435553	-0.218945	-0.873130
05919		7.357938	2.669689	6.199370	0.211812	-0.168350	-0.264693	-0.831543	-0.231689	-0.118652	-0.001648	-0.436283	-0.221472	-0.872126
05920		7.460194	2.850621	6.340788	0.222859	-0.162349	-0.227088	-0.831299	-0.240967	-0.129883	-0.002725	-0.437035	-0.223937	-0.871117
05921		7.494413	2.938143	6.441141	0.209884	-0.134089	-0.226599	-0.820557	-0.246094	-0.119873	-0.003794	-0.437578	-0.226301	-0.870229
05922		7.522023	3.097116	6.472664	0.151781	-0.103422	-0.228860	-0.831299	-0.251709	-0.124512	-0.005034	-0.437890	-0.228247	-0.869558
05923		7.629293	2.818748	6.289922	0.091430	-0.067127	-0.214482	-0.837158	-0.255615	-0.120361	-0.006321	-0.437960	-0.229701	-0.869131
05924		7.439391	2.541462	6.186447	0.107041	-0.041395	-0.208516	-0.833740	-0.250244	-0.122070	-0.007461	-0.437855	-0.231242	-0.868766
05925		7.609425	2.632605	6.133574	0.118304	-0.032670	-0.155321	-0.831055	-0.254639	-0.132324	-0.008158	-0.437789	-0.232665	-0.868413
05926		7.594426	2.634708	6.109386	0.123477	-0.007581	-0.092171	-0.831299	-0.267090	-0.118652	-0.008332	-0.437663	-0.233892	-0.868145
05927		7.537357	2.865854	6.070700	0.133939	0.028182	-0.029109	-0.836426	-0.265869	-0.121094	-0.007943	-0.437403	-0.234962	-0.867991
05928		7.566605	2.976242	5.956693	0.146517	0.080140	0.041120	-0.831055	-0.267334	-0.127441	-0.006899	-0.436904	-0.235866	-0.868006
05929		7.497609	3.104517	5.798871	0.187793	0.135380	0.093902	-0.824219	-0.258789	-0.119629	-0.005216	-0.436111	-0.236876	-0.868142
05930		7.437310	3.413413	5.604931	0.204196	0.166512	0.134245	-0.830566	-0.264404	-0.124023	-0.003120	-0.435171	-0.237854	-0.868356
05931		7.573480	3.677096	5.360682	0.174427	0.185724	0.185587	-0.830322	-0.255127	-0.135742	-0.000724	-0.434190	-0.238428	-0.868695
05932		7.464571	3.658220	5.182766	0.159429	0.193877	0.211027	-0.825439	-0.258301	-0.139404	0.001819	-0.433198	-0.238799	-0.869086
05933		7.211508	3.807785	5.114989	0.170760	0.152681	0.190829	-0.830322	-0.255859	-0.127441	0.004173	-0.432461	-0.239323	-0.869301
05934		7.271284	4.179556	5.113977	0.121968	0.090862	0.151345	-0.835205	-0.258057	-0.133545	0.005943	-0.432092	-0.239637	-0.869388
05935		7.336527	4.315109	5.034097	0.024095	0.051749	0.130847	-0.829346	-0.250244	-0.143066	0.007133	-0.431970	-0.239318	-0.869528
05936		7.407796	4.044707	5.031957	0.003108	0.036814	0.122334	-0.840820	-0.250977	-0.140137	0.008157	-0.431939	-0.238879	-0.869655
05937		7.295045	3.902363	5.040722	0.082515	0.031274	0.097967	-0.835449	-0.250732	-0.134766	0.009279	-0.431894	-0.239103	-0.869604
05938		7.252287	4.087912	5.033639	0.149649	0.024719	0.094233	-0.833252	-0.245117	-0.133789	0.010603	-0.431883	-0.239828	-0.869395
05939		7.180848	4.230294	5.080773	0.166048	0.025227	0.105474	-0.833740	-0.248535	-0.135986	0.012068	-0.431888	-0.240631	-0.869151
05940		7.119482	4.250403	5.187638	0.171066	0.020211	0.099862	-0.833496	-0.248779	-0.129639	0.013500	-0.431916	-0.241492	-0.868877
05941		7.097032	4.290576	5.265507	0.189578	0.006662	0.031984	-0.828369	-0.248779	-0.135742	0.014481	-0.431902	-0.242733	-0.868523
05942		7.089141	4.439567	5.213702	0.140882	-0.021847	-0.055141	-0.829590	-0.241943	-0.137207	0.014599	-0.431922	-0.243939	-0.868173
05943		7.194315	4.282026	5.179767	0.030540	-0.061865	-0.104739	-0.830322	-0.251465	-0.132324	0.013879	-0.432143	-0.244531	-0.867908
05944		7.187549	3.771816	5.178099	-0.010778	-0.094040	-0.131329	-0.836426	-0.251953	-0.129395	0.012753	-0.432547	-0.244925	-0.867613
05945		7.311800	3.466716	5.325988	0.017652	-0.123825	-0.143935	-0.828857	-0.253906	-0.128174	0.011577	-0.433136	-0.245571	-0.867153
05946		10.998566	-1.631315	9.999106	0.109775	0.258011	0.270093	-0.842041	-0.257324	-0.126953	0.014507	-0.431801	-0.245349	-0.867837
05947		5.282693	3.593795	4.123256	0.226425	0.483546	0.557783	-0.836182	-0.243652	-0.133789	0.020392	-0.429403	-0.244880	-0.869040
05948		6.332848	4.962139	4.311302	0.148098	0.143382	0.400262	-0.836182	-0.246094	-0.145996	0.024161	-0.429146	-0.244461	-0.869189
05949		7.636994	3.887603	5.830616	0.200886	0.015941	0.096032	-0.837402	-0.238770	-0.149902	0.025657	-0.429176	-0.245540	-0.868827
05950		7.511739	3.341381	6.661416	0.126997	0.130855	0.075523	-0.838135	-0.239502	-0.137695	0.026976	-0.428346	-0.246132	-0.869029
05951		6.380212	4.145373	5.307716	0.019996	0.046268	0.017400	-0.842041	-0.228516	-0.148193	0.027317	-0.428032	-0.246172	-0.869161
05952		6.933644	3.838444	5.563699	-0.075744	-0.119829	-0.112005	-0.836426	-0.232422	-0.143311	0.026039	-0.428676	-0.246019	-0.868927
05953		7.141554	3.531227	5.859927	-0.135034	-0.174404	-0.177996	-0.837158	-0.239746	-0.131836	0.023959	-0.429590	-0.245683	-0.868630
05954		7.044572	3.708207	5.608703	-0.199632	-0.220228	-0.187714	-0.834717	-0.239990	-0.135742	0.021484	-0.430825	-0.244920	-0.868298
05955		7.364871	3.348061	5.661488	-0.213037	-0.253489	-0.185678	-0.839355	-0.244629	-0.142822	0.018907	-0.432303	-0.244056	-0.867867
05956		7.515135	3.052268	5.951196	-0.136186	-0.235718	-0.206760	-0.841064	-0.246826	-0.133057	0.016491	-0.433595	-0.243817	-0.867339
05957		7.589251	3.136210	6.108360	-0.096498	-0.184735	-0.187641	-0.834229	-0.248047	-0.129395	0.014459	-0.434548	-0.243783	-0.866907
05958		7.574717	2.981999	6.167162	-0.125182	-0.130928	-0.140891	-0.836426	-0.250488	-0.130127	0.012769	-0.435210	-0.243362	-0.866720
05959		7.582221	2.774913	6.120954	-0.157499	-0.080546	-0.078404	-0.835693	-0.253174	-0.126953	0.011515	-0.435636	-0.242472	-0.866773
05960		7.457061	2.532097	6.155906	-0.159706	-0.035874	-0.004045	-0.837158	-0.243408	-0.128662	0.010880	-0.435890	-0.241287	-0.866984
05961		7.422146	2.469297	6.236196	-0.122910	-0.009580	0.059764	-0.836670	-0.253418	-0.127930	0.010891	-0.436078	-0.240129	-0.867211
05962		7.351824	2.624860	6.318214	-0.111300	0.006832	0.080350	-0.833008	-0.244873	-0.127197	0.011126	-0.436188	-0.238974	-0.867472
05963		7.286085	2.748409	6.487501	-0.155419	-0.003609	0.082398	-0.838379	-0.244629	-0.121338	0.011193	-0.436379	-0.237489	-0.867783
05964		7.578508	2.791787	6.600949	-0.221054	0.005121	0.086320	-0.838135	-0.238281	-0.128418	0.011066	-0.436520	-0.235510	-0.868253
05965		7.759631	2.536891	6.628820	-0.262434	0.056490	0.097379	-0.838623	-0.237061	-0.125000	0.010969	-0.436311	-0.233182	-0.868987
05966		7.592860	2.229864	6.503688	-0.253757	0.096747	0.116693	-0.830811	-0.236816	-0.142578	0.011120	-0.435845	-0.230837	-0.869845
05967		7.534733	2.177893	6.523005	-0.236300	0.110084	0.177400	-0.841309	-0.231934	-0.126709	0.011800	-0.435394	-0.228391	-0.870707
05968		7.619145	2.088619	6.710622	-0.203098	0.132125	0.243690	-0.829590	-0.231689	-0.132812	0.013122	-0.434902	-0.225937	-0.871573
05969		7.740554	2.148835	6.947093	-0.155288	0.173852	0.267958	-0.833740	-0.218018	-0.135254	0.014871	-0.434144	-0.223731	-0.872492
05970		7.789713	2.344540	6.949476	-0.160974	0.233561	0.291347	-0.840332	-0.215332	-0.135498	0.016879	-0.432990	-0.221385	-0.873627
05971		7.769009	2.263242	6.942926	-0.215636	0.281652	0.342294	-0.841553	-0.209961	-0.143066	0.019148	-0.431580	-0.218443	-0.875017
05972		7.720749	2.130656	6.933283	-0.230107	0.326821	0.389416	-0.834473	-0.203125	-0.150391	0.021790	-0.429919	-0.215211	-0.876572
05973		7.775716	2.213309	6.901764	-0.233327	0.366691	0.429382	-0.845459	-0.196533	-0.144531	0.024782	-0.428028	-0.211796	-0.878248
05974		7.690809	2.256287	6.815989	-0.251067	0.403965	0.460499	-0.828613	-0.181396	-0.155518	0.028003	-0.425909	-0.208123	-0.880058
05975		7.668637	2.416407	6.713325	-0.280081	0.418300	0.494482	-0.824951	-0.179443	-0.169922	0.031392	-0.423734	-0.204104	-0.881933
05976		7.776097	2.442300	6.691835	-0.301055	0.422749	0.512539	-0.829346	-0.172119	-0.166016	0.034845	-0.421546	-0.199856	-0.883822
05977		7.824194	2.488126	6.578487	-0.301405	0.428076	0.494616	-0.835205	-0.162598	-0.173340	0.038172	-0.419273	-0.195659	-0.885703
05978		7.696115	2.408361	6.490502	-0.345295	0.407083	0.487447	-0.828857	-0.148193	-0.171631	0.041259	-0.417140	-0.191161	-0.887552
05979		7.571232	2.055038	6.509744	-0.377991	0.367835	0.484635	-0.833496	-0.140869	-0.188477	0.044150	-0.415289	-0.186439	-0.889284
05980		7.564897	1.915033	6.720088	-0.381549	0.306926	0.472202	-0.827393	-0.138184	-0.195068	0.046840	-0.413850	-0.181746	-0.890788
05981		7.669773	2.038360	6.912696	-0.412074	0.261960	0.482317	-0.830322	-0.122803	-0.192871	0.049415	-0.412759	-0.176797	-0.892150
05982		7.831391	2.013353	7.193975	-0.447150	0.260842	0.506828	-0.828857	-0.115234	-0.194092	0.052070	-0.411715	-0.171503	-0.893513
05983		7.858587	1.983305	7.338731	-0.469265	0.285663	0.528091	-0.824707	-0.103271	-0.198486	0.054832	-0.410512	-0.165951	-0.894949
05984		7.620975	1.864577	7.368432	-0.483471	0.311091	0.543769	-0.827393	-0.101318	-0.205078	0.057702	-0.409126	-0.160221	-0.896446
05985		7.511315	1.861720	7.546391	-0.488346	0.325480	0.571613	-0.824219	-0.091797	-0.199463	0.060746	-0.407652	-0.154336	-0.897948
05986		7.651408	1.852667	7.749007	-0.478694	0.341481	0.591987	-0.830078	-0.076660	-0.218750	0.063980	-0.406077	-0.148437	-0.899430
05987		7.880918	1.863107	7.784203	-0.439165	0.395549	0.559364	-0.833984	-0.070068	-0.218506	0.067232	-0.403979	-0.142922	-0.901030
05988		7.740842	1.873116	7.659347	-0.459998	0.453631	0.527571	-0.826660	-0.061768	-0.218262	0.070216	-0.401416	-0.137315	-0.902817
05989		7.634500	1.560334	7.589180	-0.501240	0.485195	0.552154	-0.816162	-0.045410	-0.225586	0.073249	-0.398662	-0.131282	-0.904692
05990		7.778283	1.220141	7.577480	-0.461574	0.521863	0.598584	-0.818115	-0.036377	-0.236572	0.076847	-0.395623	-0.125370	-0.906565
05991		7.852232	1.178913	7.591926	-0.365214	0.576045	0.639615	-0.814697	-0.020996	-0.237793	0.081126	-0.392119	-0.120010	-0.908438
05992		7.871899	1.261351	7.662840	-0.282511	0.625831	0.676373	-0.816162	-0.014893	-0.256592	0.086031	-0.388214	-0.115118	-0.910295
05993		7.837137	1.361777	7.640755	-0.255567	0.673097	0.706471	-0.802734	0.000000	-0.260010	0.091271	-0.383895	-0.110292	-0.912212
05994		7.516681	1.368139	7.549330	-0.282376	0.694214	0.711343	-0.810303	0.013428	-0.262207	0.096485	-0.379425	-0.105218	-0.914143
05995		7.376502	1.495463	7.538425	-0.345339	0.673864	0.688667	-0.802246	0.022949	-0.275391	0.101328	-0.375149	-0.099754	-0.915994
05996		7.310681	1.547185	7.527277	-0.447160	0.632731	0.655514	-0.798584	0.034912	-0.293457	0.105537	-0.371191	-0.093640	-0.917775
05997		7.185135	1.314801	7.542719	-0.530838	0.585771	0.599476	-0.789795	0.052490	-0.292969	0.109057	-0.367545	-0.087107	-0.919472
05998		6.686048	0.609796	7.741159	-0.522457	0.540309	0.524065	-0.783936	0.072021	-0.296875	0.112032	-0.364194	-0.080904	-0.921014
05999		6.847079	0.200902	8.194892	-0.398767	0.482808	0.446568	-0.771240	0.074219	-0.296875	0.114787	-0.361103	-0.075938	-0.922313
06000		7.444160	0.375998	8.518563	-0.316299	0.470558	0.408649	-0.782471	0.086670	-0.302734	0.117312	-0.357986	-0.071714	-0.923548
06001		7.758139	0.604091	8.501861	-0.384222	0.509637	0.427521	-0.765625	0.097656	-0.306152	0.119801	-0.354627	-0.066876	-0.924886
06002		7.539993	0.649660	8.280353	-0.571365	0.558219	0.544705	-0.753418	0.105225	-0.311768	0.122653	-0.351124	-0.060199	-0.926307
06003		7.389097	0.405349	8.104447	-0.722470	0.580569	0.667468	-0.747070	0.128174	-0.328857	0.126013	-0.347636	-0.051971	-0.927669
06004		7.494406	0.205847	7.859166	-0.712561	0.603222	0.695951	-0.742920	0.144531	-0.318359	0.129621	-0.343941	-0.043710	-0.928974
06005		7.397373	0.090547	7.712526	-0.597949	0.641489	0.692435	-0.733643	0.155029	-0.330322	0.133532	-0.339793	-0.036303	-0.930264
06006		7.386926	-0.137193	7.529251	-0.453850	0.678557	0.710000	-0.727539	0.168701	-0.327637	0.137988	-0.335174	-0.029922	-0.931516
06007		7.292597	-0.021448	7.267249	-0.360111	0.688753	0.716248	-0.714355	0.185059	-0.336670	0.142746	-0.330343	-0.024240	-0.932689
06008		7.018636	-0.014113	7.128879	-0.386056	0.646879	0.767010	-0.710205	0.198975	-0.328857	0.147808	-0.325852	-0.018266	-0.933617
06009		6.757598	0.037693	7.077657	-0.411361	0.570522	0.805180	-0.696777	0.206543	-0.327637	0.153074	-0.321966	-0.012088	-0.934216
06010		6.297593	0.185403	7.176083	-0.421808	0.482592	0.796762	-0.694092	0.224121	-0.335205	0.158227	-0.318754	-0.005966	-0.934518
06011		5.996184	0.652955	7.276151	-0.490436	0.384917	0.725951	-0.674561	0.232178	-0.333252	0.162632	-0.316366	0.000369	-0.934592
06012		5.727863	0.482151	7.513841	-0.598647	0.328029	0.632713	-0.671875	0.256348	-0.329346	0.166018	-0.314548	0.007220	-0.934583
06013		5.955838	0.105022	7.749867	-0.592647	0.333221	0.555364	-0.666016	0.267578	-0.329590	0.168810	-0.312668	0.013822	-0.934639
06014		6.222725	-0.384342	7.843424	-0.474507	0.415798	0.527189	-0.655273	0.268555	-0.322021	0.171675	-0.309965	0.019543	-0.934916
06015		5.920893	-0.627997	7.741651	-0.316190	0.493425	0.539190	-0.660400	0.291504	-0.321533	0.175022	-0.306415	0.024167	-0.935357
06016		5.730822	-0.630695	7.732200	-0.232399	0.530546	0.635033	-0.645508	0.285156	-0.315430	0.179316	-0.302419	0.028432	-0.935724
06017		5.946906	-0.776537	7.790092	-0.121542	0.612623	0.720898	-0.644043	0.299805	-0.331787	0.184530	-0.297580	0.032167	-0.936141
06018		6.038981	-0.488892	7.586656	0.000988	0.714266	0.746551	-0.633789	0.307617	-0.329102	0.190208	-0.291732	0.035160	-0.936738
06019		5.627642	-0.211099	7.141456	0.009656	0.775473	0.728339	-0.621582	0.312988	-0.333496	0.195733	-0.285376	0.038131	-0.937441
06020		4.927983	-0.136143	6.824206	-0.073217	0.716802	0.693295	-0.617676	0.328125	-0.335449	0.200793	-0.279604	0.041563	-0.937964
06021		4.982167	-0.153398	6.687990	-0.149910	0.614045	0.628395	-0.615723	0.336182	-0.338623	0.205192	-0.274769	0.045263	-0.938270
06022		4.989296	-0.234775	6.597161	-0.182661	0.530117	0.514996	-0.602783	0.344482	-0.335693	0.208652	-0.270676	0.048809	-0.938518
06023		4.844612	-0.272780	6.558146	-0.215484	0.451111	0.456006	-0.595947	0.347900	-0.339844	0.211603	-0.267274	0.052336	-0.938642
06024		4.354685	-0.762381	6.656587	-0.191527	0.383479	0.454171	-0.596680	0.351318	-0.340332	0.214618	-0.264353	0.055545	-0.938601
06025		4.020555	-0.439885	6.961243	-0.119850	0.292351	0.427012	-0.601562	0.361328	-0.338867	0.217617	-0.262024	0.057967	-0.938417
06026		3.720250	-0.179331	7.351266	-0.132731	0.222709	0.384504	-0.581055	0.366455	-0.346191	0.220286	-0.260278	0.060266	-0.938135
06027		4.034309	-0.248151	7.597414	-0.162298	0.202923	0.293079	-0.583984	0.371826	-0.335449	0.222187	-0.258783	0.062556	-0.937950
06028		3.991615	-0.639884	7.567014	-0.155915	0.233432	0.177716	-0.583984	0.377197	-0.339844	0.223184	-0.257096	0.064598	-0.938039
06029		3.789649	-1.070311	7.449934	-0.135725	0.249507	0.118027	-0.581055	0.385986	-0.332764	0.223749	-0.255276	0.066381	-0.938277
06030		3.612047	-1.331040	7.579716	-0.117053	0.216335	0.135098	-0.586670	0.379883	-0.343018	0.224506	-0.253669	0.067990	-0.938417
06031		4.099807	-1.272269	7.624424	-0.078055	0.184758	0.116923	-0.577148	0.382812	-0.339355	0.225221	-0.252245	0.069194	-0.938542
06032		4.514585	-1.130864	7.384236	-0.121233	0.183643	0.073216	-0.579590	0.387451	-0.339111	0.225504	-0.250936	0.070639	-0.938717
06033		4.227241	-1.418741	6.987519	-0.216159	0.184778	0.091914	-0.579346	0.388428	-0.335449	0.225734	-0.249785	0.072865	-0.938798
06034		3.744640	-1.692748	6.973689	-0.225946	0.127497	0.152170	-0.574219	0.390625	-0.342041	0.226450	-0.249063	0.075183	-0.938635
06035		3.473315	-1.313511	7.325932	-0.152320	0.060177	0.217785	-0.575439	0.398682	-0.344727	0.227873	-0.248687	0.076933	-0.938248
06036		4.011212	-0.820898	7.801648	-0.069816	0.088228	0.199548	-0.570801	0.406006	-0.341553	0.229307	-0.247946	0.078051	-0.938003
06037		3.853033	-0.459560	7.781164	-0.017774	0.142139	0.083025	-0.568115	0.397217	-0.328857	0.229903	-0.246759	0.078621	-0.938122
06038		3.935934	-0.497598	7.273570	-0.086071	0.159994	0.024016	-0.572266	0.399902	-0.341797	0.229888	-0.245602	0.079632	-0.938344
06039		4.711166	-0.903208	6.481399	-0.144571	0.181703	0.063456	-0.562744	0.407471	-0.334961	0.230049	-0.244360	0.081220	-0.938493
06040		4.611110	-1.544911	5.639890	-0.067938	0.221189	0.114558	-0.567627	0.405518	-0.342529	0.230739	-0.242630	0.082384	-0.938671
06041		3.270629	-1.490393	5.419834	0.102159	0.128273	0.151664	-0.569824	0.399170	-0.335938	0.232126	-0.241276	0.082112	-0.938702
06042		3.138022	-0.585461	5.943520	0.197186	-0.039739	0.212726	-0.566650	0.408691	-0.334473	0.234296	-0.241010	0.080894	-0.938337
06043		4.002815	0.315285	6.415621	0.199765	-0.056535	0.174963	-0.562744	0.406738	-0.330566	0.236187	-0.240895	0.079543	-0.938008
06044		3.775968	0.493750	6.449194	0.182678	0.011015	0.014040	-0.559326	0.408936	-0.337646	0.236742	-0.240393	0.078130	-0.938115
06045		3.108545	0.808583	6.123135	0.100556	-0.020441	-0.079233	-0.555908	0.406982	-0.341309	0.236427	-0.240360	0.077104	-0.938288
06046		3.906549	0.523017	5.808492	0.039238	-0.036752	-0.031001	-0.557861	0.404297	-0.347656	0.236379	-0.240543	0.076616	-0.938293
06047		3.848752	-0.070909	5.527038	0.215735	0.000263	-0.048118	-0.560791	0.401367	-0.343994	0.236530	-0.240102	0.074781	-0.938516
06048		3.078990	-0.000579	5.617561	0.499643	-0.068213	-0.117592	-0.560059	0.396240	-0.351562	0.236747	-0.239678	0.070447	-0.938905
06049		3.795224	0.982469	5.918488	0.601986	-0.154893	-0.205269	-0.574219	0.386475	-0.358643	0.236529	-0.239776	0.064961	-0.939330
06050		4.520968	1.409458	5.957482	0.492268	-0.166929	-0.306611	-0.567871	0.388916	-0.356445	0.235301	-0.240234	0.060099	-0.939845
06051		4.171138	0.687893	5.711090	0.386576	-0.198742	-0.386259	-0.574951	0.372803	-0.353271	0.233250	-0.241183	0.055835	-0.940376
06052		3.589018	0.085281	5.843138	0.442528	-0.344621	-0.426127	-0.568848	0.368164	-0.358154	0.231063	-0.243179	0.050762	-0.940690
06053		4.129410	0.412081	6.342151	0.540743	-0.503853	-0.494061	-0.575928	0.357422	-0.364502	0.228600	-0.246252	0.044469	-0.940811
06054		4.494528	0.697884	6.966043	0.519618	-0.588007	-0.588725	-0.581299	0.343750	-0.366699	0.225370	-0.250045	0.037980	-0.940874
06055		4.686322	0.196064	7.549656	0.500619	-0.622040	-0.671615	-0.595703	0.329590	-0.373535	0.221447	-0.254149	0.031396	-0.940949
06056		4.788132	-0.035848	7.997579	0.547168	-0.650591	-0.766709	-0.597656	0.319336	-0.366211	0.216866	-0.258393	0.024186	-0.941072
06057		5.044452	0.182501	8.313267	0.514072	-0.693155	-0.813676	-0.610352	0.311035	-0.365723	0.211834	-0.263016	0.017052	-0.941094
06058		5.390075	0.080775	8.459599	0.378305	-0.693841	-0.769319	-0.615723	0.299316	-0.361084	0.206834	-0.267851	0.011074	-0.940932
06059		5.216750	-0.598274	8.643375	0.378365	-0.684107	-0.725062	-0.623779	0.290039	-0.357422	0.202163	-0.272584	0.005207	-0.940639
06060		5.402105	-0.998324	8.928039	0.528031	-0.668750	-0.743651	-0.632080	0.266602	-0.358154	0.197668	-0.276921	-0.001851	-0.940340
06061		5.714160	-0.869892	9.193718	0.658522	-0.641260	-0.778987	-0.636475	0.259033	-0.367432	0.193177	-0.280799	-0.009968	-0.940072
06062		6.177639	-0.445865	9.233483	0.612764	-0.595226	-0.753467	-0.647705	0.239746	-0.369629	0.188763	-0.284364	-0.017591	-0.939785
06063		6.369879	-0.612463	8.959496	0.460295	-0.519203	-0.664663	-0.652832	0.228760	-0.359375	0.184679	-0.287563	-0.023690	-0.939489
06064		6.286433	-1.098599	8.699318	0.447755	-0.466211	-0.594125	-0.658203	0.220947	-0.374023	0.181116	-0.290364	-0.029438	-0.939159
06065		6.325249	-1.205481	8.459954	0.549529	-0.448463	-0.564562	-0.669922	0.202148	-0.364990	0.178023	-0.292863	-0.035880	-0.938750
06066		6.185319	-0.829082	8.368455	0.621898	-0.468721	-0.551526	-0.679199	0.204346	-0.367432	0.175188	-0.295400	-0.042883	-0.938194
06067		6.074007	-0.372697	8.426425	0.557440	-0.501681	-0.495715	-0.684082	0.188232	-0.369141	0.172608	-0.298291	-0.049288	-0.937443
06068		6.191104	-0.252258	8.632232	0.509736	-0.520579	-0.492719	-0.683838	0.177979	-0.375000	0.169914	-0.301382	-0.055337	-0.936609
06069		6.485049	-0.063949	8.701581	0.470073	-0.523442	-0.540833	-0.695557	0.164795	-0.370117	0.166733	-0.304513	-0.061198	-0.935803
06070		6.340295	-0.273479	8.787786	0.455083	-0.511969	-0.558768	-0.702148	0.146484	-0.367676	0.163368	-0.307549	-0.066966	-0.935008
06071		6.452145	-0.424107	8.990024	0.500971	-0.502399	-0.502668	-0.719482	0.142334	-0.371094	0.160553	-0.310462	-0.072930	-0.934086
06072		6.995515	0.014698	9.077353	0.570285	-0.436905	-0.442258	-0.709961	0.125244	-0.366455	0.158418	-0.312793	-0.079183	-0.933164
06073		7.055470	0.259752	8.873927	0.583185	-0.314997	-0.389633	-0.728516	0.115723	-0.370605	0.156798	-0.314179	-0.085233	-0.932438
06074		6.394894	0.477107	8.671537	0.585483	-0.245697	-0.344019	-0.723877	0.105713	-0.367676	0.155579	-0.315044	-0.091086	-0.931797
06075		6.348829	0.445543	8.632991	0.610705	-0.248883	-0.310675	-0.738525	0.094482	-0.372803	0.154677	-0.315914	-0.097048	-0.931051
06076		6.760485	0.575568	8.586552	0.668843	-0.247482	-0.364734	-0.736328	0.090820	-0.370117	0.153501	-0.316641	-0.103595	-0.930292
06077		6.841334	0.927969	8.346341	0.632382	-0.236469	-0.386105	-0.742920	0.068848	-0.371094	0.152066	-0.317296	-0.109896	-0.929582
06078		6.701356	0.962016	8.051241	0.505701	-0.253461	-0.313469	-0.752441	0.070068	-0.371094	0.150836	-0.318299	-0.115040	-0.928816
06079		6.571346	1.092046	7.898612	0.437367	-0.284080	-0.224947	-0.749756	0.058105	-0.369141	0.150076	-0.319702	-0.119455	-0.927900
06080		6.366420	1.561819	7.818316	0.408299	-0.327296	-0.213439	-0.766357	0.044922	-0.369873	0.149280	-0.321479	-0.123665	-0.926862
06081		6.491613	2.345480	7.647043	0.280615	-0.373447	-0.256842	-0.765381	0.037842	-0.359131	0.147755	-0.323719	-0.127060	-0.925867
06082		6.282107	2.137682	7.531515	0.131298	-0.425292	-0.313837	-0.768555	0.036133	-0.353271	0.145330	-0.326476	-0.129520	-0.924942
06083		6.375536	1.524917	7.502763	0.185706	-0.488985	-0.427448	-0.770752	0.020996	-0.350586	0.142106	-0.329526	-0.132783	-0.923898
06084		6.578492	1.772449	7.379446	0.314505	-0.536289	-0.552141	-0.778564	0.012451	-0.339844	0.138216	-0.332637	-0.137431	-0.922693
06085		6.802979	2.229454	7.246841	0.256394	-0.568996	-0.560332	-0.786133	0.000732	-0.341553	0.134057	-0.336039	-0.141685	-0.921429
06086		6.707374	2.244651	7.199265	0.128173	-0.580511	-0.495444	-0.784180	-0.005127	-0.325439	0.130017	-0.339735	-0.144781	-0.920171
06087		6.335643	1.996131	7.244858	0.098893	-0.612041	-0.472084	-0.779053	-0.013916	-0.320557	0.126030	-0.343718	-0.147615	-0.918795
06088		6.421810	2.002106	7.419604	0.166710	-0.669626	-0.541361	-0.788330	-0.019287	-0.313477	0.121629	-0.347967	-0.151220	-0.917201
06089		6.927836	2.383934	7.465736	0.189282	-0.688011	-0.647288	-0.794434	-0.030518	-0.313232	0.116452	-0.352180	-0.155315	-0.915579
06090		6.830666	2.182239	7.433697	0.112307	-0.665547	-0.670054	-0.800781	-0.054688	-0.299072	0.110897	-0.356243	-0.158857	-0.914088
06091		6.892930	1.544684	7.575156	0.137086	-0.627612	-0.667508	-0.800049	-0.067871	-0.282471	0.105478	-0.359975	-0.162535	-0.912620
06092		7.046256	1.576374	7.645063	0.228514	-0.592358	-0.657960	-0.810791	-0.066406	-0.282959	0.100445	-0.363350	-0.166837	-0.911073
06093		7.065299	1.908911	7.723001	0.217571	-0.572164	-0.645601	-0.807373	-0.084961	-0.275879	0.095495	-0.366576	-0.170989	-0.909541
06094		7.277174	1.922158	7.777330	0.125580	-0.559382	-0.636465	-0.802490	-0.091797	-0.267578	0.090344	-0.369772	-0.174395	-0.908126
06095		7.488278	1.537361	7.772874	0.094649	-0.525418	-0.636136	-0.811523	-0.102783	-0.260010	0.085144	-0.372716	-0.177529	-0.906817
06096		7.455257	1.302274	7.656564	0.130222	-0.487731	-0.626198	-0.813965	-0.109131	-0.250000	0.080179	-0.375347	-0.180862	-0.905524
06097		7.603274	1.438344	7.483726	0.126788	-0.457242	-0.564669	-0.825195	-0.125977	-0.248779	0.075709	-0.377829	-0.183945	-0.904255
06098		7.537351	1.567988	7.296293	0.097682	-0.418104	-0.449841	-0.812988	-0.129639	-0.239502	0.072069	-0.380198	-0.186412	-0.903054
06099		7.353092	1.969625	7.223291	0.097988	-0.410227	-0.357934	-0.819580	-0.145020	-0.225098	0.069129	-0.382641	-0.188577	-0.901801
06100		7.351911	2.548217	7.098329	0.073735	-0.417968	-0.328162	-0.814697	-0.133545	-0.230469	0.066322	-0.385197	-0.190462	-0.900527
06101		7.328468	2.934597	7.003958	-0.001828	-0.421368	-0.355332	-0.814209	-0.140625	-0.220947	0.063060	-0.387768	-0.191864	-0.899360
06102		7.317191	2.888788	6.760225	-0.063687	-0.424643	-0.398195	-0.821045	-0.142578	-0.221191	0.059270	-0.390319	-0.192937	-0.898284
06103		7.358974	2.709180	6.538989	-0.063710	-0.426277	-0.420689	-0.821289	-0.160400	-0.216309	0.055308	-0.392836	-0.194079	-0.897193
06104		7.497602	2.667354	6.331915	-0.023684	-0.422312	-0.411917	-0.819092	-0.158936	-0.205811	0.051546	-0.395310	-0.195483	-0.896024
06105		7.287043	2.604901	6.175804	0.015801	-0.420895	-0.381723	-0.821289	-0.175049	-0.207031	0.048140	-0.397797	-0.197075	-0.894763
06106		7.093536	2.639588	6.182346	0.070571	-0.426351	-0.326496	-0.826660	-0.170410	-0.197266	0.045317	-0.400385	-0.198890	-0.893354
06107		6.950705	2.670457	6.386208	0.159652	-0.433514	-0.295311	-0.828613	-0.174805	-0.189697	0.043010	-0.403037	-0.201261	-0.891743
06108		7.224968	2.946002	6.676207	0.256462	-0.409348	-0.298341	-0.825928	-0.185059	-0.191162	0.041044	-0.405461	-0.204346	-0.890033
06109		7.292230	3.022114	6.784251	0.314001	-0.343416	-0.321779	-0.832764	-0.182861	-0.182617	0.039210	-0.407326	-0.207910	-0.888438
06110		7.217561	2.962750	6.791329	0.329401	-0.290822	-0.345014	-0.829590	-0.195312	-0.179199	0.037345	-0.408747	-0.211642	-0.886983
06111		7.104597	2.996312	6.743693	0.284633	-0.268844	-0.336154	-0.823242	-0.199951	-0.169678	0.035431	-0.410026	-0.215001	-0.885662
06112		7.138412	2.892300	6.709834	0.221475	-0.261687	-0.308361	-0.834961	-0.205322	-0.168457	0.033517	-0.411314	-0.217792	-0.884457
06113		7.102442	2.810316	6.661962	0.200067	-0.250768	-0.294953	-0.822998	-0.208984	-0.168945	0.031648	-0.412544	-0.220370	-0.883313
06114		7.130142	2.942738	6.639073	0.200940	-0.231428	-0.282556	-0.836426	-0.211182	-0.166504	0.029907	-0.413650	-0.222902	-0.882221
06115		7.085021	2.909731	6.649251	0.202552	-0.207513	-0.280838	-0.824463	-0.221680	-0.167236	0.028227	-0.414576	-0.225429	-0.881199
06116		7.143117	3.143013	6.643124	0.189820	-0.201354	-0.306330	-0.831299	-0.234375	-0.154053	0.026327	-0.415408	-0.227943	-0.880219
06117		7.273037	3.253983	6.510444	0.103564	-0.191697	-0.301424	-0.828369	-0.237305	-0.161377	0.024182	-0.416192	-0.229802	-0.879427
06118		7.349505	3.071733	6.408717	0.045659	-0.167280	-0.288474	-0.831543	-0.242188	-0.166016	0.021976	-0.416829	-0.231182	-0.878821
06119		7.188532	2.959119	6.272597	0.064966	-0.151448	-0.276438	-0.827393	-0.243652	-0.156494	0.019956	-0.417367	-0.232655	-0.878225
06120		7.265370	3.107912	6.249879	0.099693	-0.132896	-0.256948	-0.831299	-0.253906	-0.153564	0.018233	-0.417798	-0.234306	-0.877618
06121		7.395736	3.319154	6.300409	0.110028	-0.114460	-0.238015	-0.834961	-0.252686	-0.155273	0.016721	-0.418127	-0.235961	-0.877048
06122		7.517298	3.463596	6.224834	0.099537	-0.079252	-0.220379	-0.830566	-0.256104	-0.154541	0.015369	-0.418233	-0.237470	-0.876615
06123		7.605695	3.410901	5.997535	0.090500	-0.035463	-0.197683	-0.834473	-0.253906	-0.154053	0.014237	-0.418063	-0.238825	-0.876346
06124		7.552521	3.133713	5.726768	0.120036	0.010267	-0.161501	-0.833008	-0.260986	-0.146729	0.013563	-0.417628	-0.240261	-0.876172
06125		7.460968	2.984171	5.488285	0.189879	0.020990	-0.122454	-0.825928	-0.273682	-0.152344	0.013438	-0.417184	-0.242067	-0.875889
06126		7.462702	3.053534	5.398460	0.251987	0.006714	-0.066635	-0.828369	-0.267334	-0.154297	0.013906	-0.416949	-0.244130	-0.875420
06127		7.297691	3.097137	5.448627	0.288383	-0.024479	-0.028029	-0.830322	-0.270752	-0.150391	0.014718	-0.417015	-0.246325	-0.874761
06128		7.247322	3.535329	5.593804	0.262023	-0.071215	-0.020980	-0.826660	-0.273438	-0.154541	0.015393	-0.417438	-0.248305	-0.873987
06129		7.446245	3.743129	5.694711	0.150265	-0.090273	-0.014678	-0.831787	-0.275146	-0.155273	0.015684	-0.418026	-0.249450	-0.873375
06130		7.297395	3.515522	5.706115	0.079937	-0.103553	-0.061304	-0.828369	-0.274170	-0.150391	0.015364	-0.418622	-0.250245	-0.872867
06131		7.168133	3.410756	5.673188	0.047353	-0.127923	-0.085284	-0.829834	-0.277832	-0.150391	0.014704	-0.419350	-0.250888	-0.872344
06132		7.288884	3.422669	5.853849	0.039730	-0.141726	-0.071081	-0.821045	-0.278320	-0.148926	0.014091	-0.420208	-0.251425	-0.871787
06133		7.541187	3.425373	5.939404	0.059570	-0.106367	-0.035098	-0.824463	-0.281982	-0.146484	0.013882	-0.420882	-0.251974	-0.871307
06134		7.482043	3.479442	5.853501	0.093183	-0.036884	0.011642	-0.835449	-0.283203	-0.142822	0.014276	-0.421145	-0.252592	-0.870994
06135		7.251818	3.592454	5.716029	0.115258	0.009498	0.072005	-0.830811	-0.283203	-0.146484	0.015283	-0.421197	-0.253151	-0.870789
06136		7.137379	3.668816	5.607983	0.132624	0.026948	0.123917	-0.830811	-0.273193	-0.143311	0.016764	-0.421228	-0.253650	-0.870602
06137		7.184695	3.841898	5.586410	0.151796	0.043746	0.159433	-0.832275	-0.274658	-0.140625	0.018604	-0.421208	-0.254158	-0.870426
06138		7.117631	3.970136	5.543636	0.168387	0.053124	0.167150	-0.836426	-0.271973	-0.142822	0.020579	-0.421132	-0.254757	-0.870243
06139		6.989084	4.093295	5.515382	0.163419	0.048291	0.146317	-0.838135	-0.270752	-0.146484	0.022374	-0.421046	-0.255393	-0.870054
06140		6.838855	4.054305	5.525463	0.148497	0.019163	0.095604	-0.838379	-0.266846	-0.141602	0.023687	-0.421063	-0.256103	-0.869802
06141		6.991658	4.210111	5.532259	0.094209	-0.014748	0.043653	-0.838135	-0.269531	-0.138672	0.024361	-0.421225	-0.256608	-0.869556
06142		7.106669	3.999634	5.534572	0.037697	-0.026579	0.018828	-0.840088	-0.264648	-0.142334	0.024631	-0.421430	-0.256794	-0.869394
06143		7.166740	3.841917	5.469753	0.025305	-0.029511	0.000731	-0.835449	-0.264648	-0.145264	0.024721	-0.421620	-0.256953	-0.869253
06144		7.066274	3.730415	5.503833	0.027252	-0.042163	0.001592	-0.842041	-0.273438	-0.140625	0.024796	-0.421903	-0.257125	-0.869062
06145		7.485912	3.287376	6.122161	0.057133	-0.030320	0.029188	-0.833740	-0.268066	-0.134521	0.025201	-0.422153	-0.257414	-0.868844
06146		8.022178	2.457387	6.867070	0.097345	0.138264	0.159322	-0.834229	-0.271240	-0.136475	0.027051	-0.421452	-0.257497	-0.869104
06147		6.727841	3.998242	5.395787	0.091229	0.177528	0.218631	-0.835205	-0.263184	-0.144043	0.029391	-0.420593	-0.257312	-0.869499
06148		6.750272	4.329944	5.164577	0.009055	0.052731	0.172352	-0.839355	-0.263672	-0.142822	0.030840	-0.420557	-0.256724	-0.869640
06149		7.126039	4.258438	5.342408	-0.021957	-0.035861	0.048315	-0.834717	-0.260742	-0.147949	0.031092	-0.420904	-0.256369	-0.869568
06150		7.107556	4.218383	5.553816	-0.051621	-0.073976	-0.054171	-0.840820	-0.260010	-0.142334	0.030417	-0.421316	-0.256169	-0.869451
06151		7.097722	3.879321	5.710149	-0.098870	-0.089407	-0.090774	-0.838623	-0.262939	-0.136475	0.029277	-0.421772	-0.255759	-0.869390
06152		7.312640	3.559455	5.770251	-0.115511	-0.084379	-0.100374	-0.842529	-0.264404	-0.145508	0.028020	-0.422174	-0.255260	-0.869383
06153		7.361952	3.340725	5.792915	-0.101248	-0.055243	-0.082172	-0.838623	-0.267822	-0.136230	0.027007	-0.422399	-0.254791	-0.869443
06154		7.359746	3.194076	5.794961	-0.090573	-0.026409	-0.029278	-0.833740	-0.260742	-0.144531	0.026475	-0.422526	-0.254205	-0.869569
06155		7.424838	3.155304	5.845661	-0.068645	0.003948	0.037131	-0.843750	-0.260254	-0.141113	0.026566	-0.422568	-0.253534	-0.869742
06156		7.429570	3.280020	5.862084	-0.042326	0.031960	0.072417	-0.843506	-0.262939	-0.139160	0.027063	-0.422477	-0.252922	-0.869949
06157		7.432010	3.471523	5.802566	-0.067654	0.039391	0.077739	-0.836914	-0.262939	-0.145508	0.027525	-0.422348	-0.252103	-0.870235
06158		7.385869	3.459329	5.681569	-0.126987	0.024056	0.066962	-0.834961	-0.251221	-0.141113	0.027667	-0.422320	-0.250894	-0.870593
06159		7.455373	3.265511	5.673197	-0.163923	0.000351	0.048840	-0.838623	-0.251709	-0.141602	0.027497	-0.422435	-0.249484	-0.870948
06160		7.539008	3.029067	5.755316	-0.158576	-0.017099	0.031155	-0.840576	-0.258057	-0.148926	0.027182	-0.422638	-0.248177	-0.871233
06161		7.588306	2.702240	5.812725	-0.131222	-0.031576	0.003953	-0.840332	-0.264160	-0.151123	0.026734	-0.422883	-0.247164	-0.871416
06162		7.406566	2.502920	5.944841	-0.104079	-0.053008	-0.018556	-0.838135	-0.256104	-0.143311	0.026174	-0.423232	-0.246430	-0.871471
06163		7.332378	2.506381	6.189511	-0.130476	-0.100655	-0.015998	-0.838623	-0.249023	-0.141846	0.025441	-0.423938	-0.245501	-0.871412
06164		7.559077	2.558995	6.509072	-0.217747	-0.120553	0.021484	-0.840820	-0.241699	-0.138184	0.024629	-0.424883	-0.243806	-0.871451
06165		7.750987	2.497970	6.775945	-0.297545	-0.078502	0.071343	-0.836426	-0.239990	-0.139648	0.023982	-0.425637	-0.241341	-0.871787
06166		7.790201	2.478918	6.750251	-0.349622	-0.004809	0.136683	-0.836914	-0.246582	-0.142822	0.023772	-0.425995	-0.238245	-0.872469
06167		7.586912	2.296495	6.648696	-0.360369	0.061676	0.204997	-0.845947	-0.238525	-0.135986	0.024151	-0.426001	-0.234809	-0.873387
06168		7.411137	2.309650	6.621734	-0.313964	0.082948	0.245539	-0.848145	-0.230469	-0.141113	0.025030	-0.425918	-0.231556	-0.874271
06169		7.752282	2.429700	6.702643	-0.286305	0.112326	0.278637	-0.846924	-0.224121	-0.142090	0.026304	-0.425673	-0.228374	-0.875189
06170		7.763221	2.194793	6.761508	-0.249505	0.161417	0.282306	-0.835449	-0.216064	-0.152100	0.027828	-0.425062	-0.225431	-0.876201
06171		7.749113	2.030149	6.796794	-0.195223	0.195801	0.309020	-0.833984	-0.220459	-0.139404	0.029802	-0.424233	-0.222775	-0.877217
06172		7.936057	2.009066	6.837363	-0.154876	0.220979	0.344858	-0.840088	-0.201904	-0.150879	0.032225	-0.423270	-0.220274	-0.878227
06173		8.000675	2.087023	6.811632	-0.173374	0.243409	0.399423	-0.835693	-0.189941	-0.147217	0.035026	-0.422240	-0.217434	-0.879323
06174		7.967802	2.051678	6.827015	-0.225908	0.253438	0.432879	-0.835205	-0.193848	-0.155518	0.037904	-0.421205	-0.214082	-0.880522
06175		8.100435	1.994419	6.840071	-0.286780	0.256686	0.457373	-0.839111	-0.191162	-0.162842	0.040735	-0.420199	-0.210180	-0.881815
06176		8.013452	1.772427	6.890504	-0.331321	0.278446	0.509560	-0.838623	-0.174561	-0.161621	0.043833	-0.419127	-0.205753	-0.883220
06177		7.950627	1.371882	7.039232	-0.290906	0.306391	0.586119	-0.838623	-0.170654	-0.162109	0.047703	-0.417948	-0.201345	-0.884592
06178		8.123386	1.464884	7.148474	-0.195436	0.350883	0.627932	-0.834473	-0.152344	-0.166992	0.052264	-0.416462	-0.197459	-0.885911
06179		8.169307	1.848456	7.211624	-0.189775	0.398218	0.661514	-0.835938	-0.145508	-0.177734	0.057199	-0.414654	-0.193477	-0.887331
06180		7.897895	2.122682	7.261060	-0.300554	0.393775	0.696334	-0.842041	-0.132324	-0.179443	0.061979	-0.412966	-0.188538	-0.888859
06181		7.835760	2.075720	7.329956	-0.420048	0.371668	0.731660	-0.838867	-0.116211	-0.184814	0.066598	-0.411534	-0.182604	-0.890427
06182		7.892512	2.036040	7.407081	-0.446833	0.377828	0.717520	-0.836670	-0.113281	-0.184326	0.071050	-0.410020	-0.176514	-0.892008
06183		7.841920	2.245238	7.347289	-0.468722	0.392539	0.681322	-0.833008	-0.093750	-0.192627	0.075081	-0.408351	-0.170331	-0.893644
06184		7.667711	2.304970	7.274924	-0.550961	0.379897	0.662427	-0.832031	-0.094238	-0.192627	0.078752	-0.406759	-0.163626	-0.895306
06185		7.685294	2.180667	7.280130	-0.614741	0.360647	0.644397	-0.830811	-0.069824	-0.200439	0.081890	-0.405328	-0.156457	-0.896953
06186		7.775201	2.048639	7.293077	-0.632035	0.359042	0.617115	-0.828857	-0.053955	-0.209961	0.084938	-0.403829	-0.149304	-0.898563
06187		7.777103	2.051635	7.209703	-0.641912	0.373825	0.609185	-0.831055	-0.040771	-0.214355	0.087969	-0.402172	-0.142105	-0.900181
06188		7.740600	1.963002	7.086785	-0.648369	0.395023	0.626240	-0.829834	-0.041748	-0.214600	0.091153	-0.400356	-0.134786	-0.901798
06189		7.551948	1.821046	7.017279	-0.620309	0.391220	0.622345	-0.827393	-0.031982	-0.221191	0.094186	-0.398547	-0.127617	-0.903329
06190		7.608401	1.958950	6.975536	-0.609805	0.379297	0.619024	-0.819092	-0.018066	-0.233154	0.097193	-0.396785	-0.120533	-0.904758
06191		7.868486	1.784629	6.959250	-0.609050	0.398724	0.613888	-0.818848	-0.003662	-0.234863	0.100228	-0.394818	-0.113464	-0.906200
06192		7.867429	1.743869	6.797209	-0.596695	0.428546	0.611560	-0.816406	0.012695	-0.241211	0.103359	-0.392594	-0.106484	-0.907661
06193		7.619687	1.547692	6.664347	-0.584956	0.429267	0.643109	-0.812988	0.024414	-0.242188	0.106834	-0.390349	-0.099508	-0.909017
06194		7.495492	1.547291	6.648475	-0.546273	0.392555	0.648491	-0.809814	0.038818	-0.250732	0.110403	-0.388339	-0.092824	-0.910158
06195		7.565323	1.653058	6.677981	-0.525229	0.360345	0.619897	-0.805908	0.052734	-0.256348	0.113803	-0.386498	-0.086422	-0.911153
06196		7.429983	1.465799	6.710631	-0.536377	0.343480	0.589955	-0.804199	0.063965	-0.250000	0.116905	-0.384752	-0.080040	-0.912082
06197		7.053826	1.077756	6.891468	-0.512708	0.320167	0.583781	-0.801270	0.079590	-0.261719	0.119963	-0.383146	-0.073864	-0.912881
06198		7.012203	0.884164	7.282128	-0.433151	0.292644	0.572919	-0.799316	0.092041	-0.260010	0.123171	-0.381638	-0.068355	-0.913515
06199		7.155006	0.947350	7.579384	-0.347629	0.292930	0.490702	-0.778320	0.104492	-0.264893	0.126010	-0.379979	-0.063754	-0.914151
06200		7.241793	1.002640	7.649810	-0.378079	0.303299	0.403793	-0.791748	0.113037	-0.257080	0.128093	-0.378215	-0.059186	-0.914901
06201		7.449202	0.669064	7.505255	-0.493060	0.322892	0.359003	-0.782715	0.119873	-0.264404	0.129477	-0.376388	-0.053862	-0.915787
06202		7.088093	-0.098413	7.505416	-0.564309	0.312565	0.369824	-0.773438	0.132568	-0.265137	0.130712	-0.374708	-0.047972	-0.916628
06203		7.136934	-0.572254	7.675418	-0.526245	0.277577	0.423364	-0.786865	0.146484	-0.269043	0.132456	-0.373261	-0.042242	-0.917250
06204		7.484520	-0.497118	7.917374	-0.480899	0.301751	0.478836	-0.762695	0.150146	-0.268066	0.134770	-0.371583	-0.036659	-0.917834
06205		7.434609	-0.415894	8.014334	-0.479353	0.354754	0.532608	-0.750488	0.165527	-0.266113	0.137510	-0.369498	-0.030860	-0.918483
06206		7.536112	-0.351368	7.966448	-0.513135	0.407480	0.578055	-0.753174	0.181641	-0.267822	0.140501	-0.367040	-0.024602	-0.919204
06207		7.356484	-0.616950	7.886905	-0.505446	0.459204	0.617492	-0.737549	0.189697	-0.268066	0.143820	-0.364165	-0.018222	-0.919983
06208		7.367744	-0.851459	7.836145	-0.401259	0.512242	0.674483	-0.735107	0.199219	-0.272705	0.147893	-0.360743	-0.012404	-0.920781
06209		7.137051	-0.841657	7.746024	-0.278048	0.564672	0.696972	-0.732178	0.217285	-0.276855	0.152505	-0.356747	-0.007401	-0.921639
06210		6.905219	-0.498774	7.757892	-0.263819	0.581010	0.741038	-0.721680	0.234863	-0.273193	0.157488	-0.352586	-0.002355	-0.922429
06211		7.023876	-0.513431	7.815178	-0.282223	0.608304	0.773579	-0.702881	0.235352	-0.273193	0.162658	-0.348215	0.002960	-0.923190
06212		6.746777	-0.775618	7.810136	-0.211049	0.635889	0.734961	-0.699951	0.252197	-0.285156	0.167725	-0.343510	0.007650	-0.924019
06213		6.455432	-0.799663	7.826233	-0.162477	0.648738	0.699979	-0.689209	0.257568	-0.281006	0.172650	-0.338617	0.011881	-0.924873
06214		6.429295	-1.097448	8.038462	-0.117119	0.671546	0.705401	-0.686768	0.269531	-0.286621	0.177732	-0.333459	0.015807	-0.925725
06215		6.642311	-1.391040	8.151721	-0.016851	0.725424	0.716730	-0.674805	0.280029	-0.291992	0.183160	-0.327711	0.019067	-0.926658
06216		6.807108	-1.346552	8.027177	0.081792	0.806217	0.735081	-0.665527	0.292480	-0.294678	0.188971	-0.321160	0.021735	-0.927725
06217		7.010289	-1.061686	7.622231	0.064619	0.899006	0.797164	-0.652832	0.305908	-0.303955	0.195182	-0.313877	0.024844	-0.928853
06218		6.670564	-0.843716	7.169339	-0.019946	0.959287	0.876654	-0.643555	0.306396	-0.304199	0.201753	-0.306216	0.028908	-0.929888
06219		6.439634	-0.871158	6.653222	-0.064863	0.960604	0.951534	-0.630859	0.321289	-0.316406	0.208764	-0.298565	0.033505	-0.930674
06220		6.051094	-0.798294	6.276569	0.019342	0.919288	0.918876	-0.622559	0.319580	-0.320068	0.215718	-0.291062	0.037289	-0.931321
06221		5.396342	-0.111600	6.024810	0.020431	0.804603	0.867475	-0.611816	0.342773	-0.323486	0.222287	-0.284433	0.040725	-0.931680
06222		5.294469	0.235266	6.034905	-0.072452	0.678992	0.833746	-0.596680	0.350830	-0.330078	0.228399	-0.278939	0.044562	-0.931687
06223		4.666917	-0.027205	6.176650	-0.073839	0.561182	0.745322	-0.599365	0.366699	-0.331787	0.233850	-0.274376	0.047971	-0.931521
06224		4.252283	0.376609	6.385426	-0.062703	0.408064	0.577873	-0.590820	0.362793	-0.332764	0.238079	-0.271034	0.050605	-0.931288
06225		3.901228	0.591441	6.768335	-0.196795	0.255067	0.414679	-0.587646	0.374268	-0.331543	0.240798	-0.269208	0.053602	-0.930951
06226		4.219553	-0.071537	7.201074	-0.294900	0.175078	0.286880	-0.585449	0.374268	-0.328125	0.242341	-0.268251	0.056905	-0.930631
06227		4.493376	-0.654862	7.320558	-0.251785	0.172590	0.153064	-0.582520	0.390381	-0.323486	0.242943	-0.267287	0.059566	-0.930585
06228		4.003751	-1.138723	7.411044	-0.217361	0.171820	0.117897	-0.581787	0.392090	-0.327637	0.243350	-0.266275	0.061876	-0.930618
06229		4.671206	-1.252676	7.524101	-0.202145	0.174133	0.149530	-0.580811	0.389648	-0.315186	0.244034	-0.265196	0.064140	-0.930594
06230		4.899545	-1.505221	7.270306	-0.182888	0.225769	0.144174	-0.571777	0.394775	-0.322754	0.244691	-0.263680	0.066345	-0.930697
06231		3.983799	-2.059117	7.138985	-0.162289	0.219886	0.203093	-0.582031	0.395020	-0.325439	0.245853	-0.262134	0.068506	-0.930671
06232		3.908754	-2.163485	7.670369	-0.053713	0.180738	0.292323	-0.575439	0.402832	-0.322998	0.247964	-0.260616	0.069938	-0.930431
06233		3.844108	-1.721355	8.347635	0.049026	0.209513	0.366191	-0.570068	0.409668	-0.318604	0.250852	-0.258617	0.070792	-0.930150
06234		4.179880	-0.957046	8.558183	0.084546	0.271128	0.338891	-0.562744	0.412109	-0.327393	0.253565	-0.256079	0.071438	-0.930067
06235		4.146464	-0.339718	8.023057	-0.057867	0.320901	0.231413	-0.558594	0.409912	-0.331787	0.255111	-0.253515	0.073059	-0.930221
06236		4.244605	-0.713558	7.284425	-0.258743	0.306216	0.175427	-0.559570	0.410400	-0.332520	0.255807	-0.251524	0.076083	-0.930328
06237		4.264888	-1.457062	6.591539	-0.285925	0.274666	0.187128	-0.563477	0.417725	-0.331299	0.256556	-0.249825	0.079270	-0.930313
06238		3.890684	-1.437353	6.205493	-0.166307	0.191476	0.207373	-0.559082	0.429688	-0.321533	0.257763	-0.248500	0.081392	-0.930151
06239		4.064981	-0.659481	6.113361	-0.111965	0.063777	0.185783	-0.558350	0.428467	-0.336670	0.259001	-0.248064	0.082771	-0.929802
06240		3.937785	-0.419085	6.108378	-0.151432	-0.034940	0.133157	-0.550537	0.435547	-0.325439	0.259819	-0.248514	0.084131	-0.929331
06241		3.872169	-0.917523	6.324668	-0.110086	-0.054081	0.111696	-0.553467	0.439453	-0.328857	0.260571	-0.249039	0.085080	-0.928894
06242		3.218789	-1.357337	6.888241	0.099936	-0.033985	0.060394	-0.558105	0.432373	-0.325684	0.261349	-0.248990	0.084338	-0.928756
06243		3.573064	-0.601184	7.392564	0.234607	-0.025576	0.003641	-0.555908	0.438721	-0.328125	0.261961	-0.248621	0.082453	-0.928852
06244		4.294940	-0.038685	7.065668	0.106817	0.046916	-0.018900	-0.555420	0.423828	-0.331299	0.262085	-0.247984	0.081664	-0.929057
06245		3.703693	-0.664961	6.334716	-0.034041	0.108226	0.010435	-0.549561	0.437256	-0.326904	0.262106	-0.247161	0.082156	-0.929227
06246		3.217698	-1.301814	6.077635	0.072844	0.080597	0.081024	-0.544922	0.426758	-0.339111	0.262913	-0.246271	0.081903	-0.929257
06247		3.742899	-0.734174	6.071407	0.316679	0.071634	0.099426	-0.547363	0.425293	-0.336182	0.264369	-0.244903	0.079777	-0.929391
06248		3.999197	0.308243	5.948065	0.417627	0.087404	0.056688	-0.551514	0.433350	-0.345947	0.265688	-0.243217	0.076814	-0.929707
06249		3.526158	0.737464	5.716761	0.310388	0.032103	-0.002794	-0.553955	0.421143	-0.338867	0.266364	-0.242234	0.074432	-0.929964
06250		3.579616	0.610733	5.566061	0.203288	-0.090190	-0.096505	-0.551514	0.415039	-0.346191	0.266174	-0.242493	0.072415	-0.930110
06251		3.958281	0.358053	5.527180	0.219848	-0.176236	-0.201350	-0.550537	0.414551	-0.346436	0.265258	-0.243445	0.069862	-0.930318
06252		4.001780	-0.075178	5.564040	0.349944	-0.234919	-0.307572	-0.551025	0.410156	-0.336182	0.263815	-0.244625	0.065950	-0.930705
06253		3.402281	-0.211295	5.962073	0.484711	-0.362487	-0.428500	-0.561768	0.399902	-0.354004	0.261773	-0.246557	0.060460	-0.931144
06254		3.474590	0.337521	6.859306	0.443080	-0.558153	-0.509455	-0.569824	0.392090	-0.351562	0.259104	-0.250128	0.054694	-0.931295
06255		4.532451	0.685167	7.615292	0.245485	-0.625685	-0.546395	-0.575195	0.380371	-0.345215	0.255755	-0.254653	0.050232	-0.931245
06256		5.065213	-0.112284	7.915550	0.193681	-0.540327	-0.579654	-0.581299	0.372803	-0.336426	0.251993	-0.258626	0.046276	-0.931381
06257		4.877143	-0.725740	7.766322	0.341753	-0.450880	-0.624493	-0.586426	0.368652	-0.344482	0.248156	-0.261600	0.041256	-0.931816
06258		4.303452	-0.732673	7.719180	0.457304	-0.476787	-0.643512	-0.592773	0.368652	-0.338135	0.244420	-0.264528	0.035239	-0.932224
06259		4.753315	-0.040761	7.916361	0.416268	-0.564153	-0.604723	-0.598389	0.347168	-0.343262	0.240906	-0.268190	0.029444	-0.932294
06260		5.413987	0.053010	7.920907	0.300452	-0.566441	-0.603527	-0.602295	0.338379	-0.341553	0.237130	-0.272086	0.024543	-0.932275
06261		5.290619	-0.649498	7.940336	0.323059	-0.539078	-0.672751	-0.610596	0.317383	-0.346436	0.232850	-0.275723	0.019358	-0.932407
06262		5.244012	-1.238788	7.953263	0.466192	-0.565007	-0.771189	-0.619873	0.324707	-0.343750	0.228122	-0.279280	0.012782	-0.932630
06263		5.687579	-1.286385	8.161797	0.554766	-0.610017	-0.840767	-0.626221	0.307861	-0.349365	0.223043	-0.283001	0.005268	-0.932810
06264		6.213216	-1.516003	8.498497	0.553793	-0.587606	-0.788852	-0.632568	0.284668	-0.347656	0.218343	-0.286521	-0.002074	-0.932860
06265		6.591063	-1.950820	8.747431	0.593355	-0.512693	-0.683931	-0.643311	0.281982	-0.345947	0.214535	-0.289365	-0.009337	-0.932821
06266		6.662715	-1.593549	8.578086	0.592890	-0.459767	-0.627773	-0.645264	0.265137	-0.351562	0.211150	-0.291783	-0.016363	-0.932744
06267		6.430144	-0.814048	8.243522	0.389846	-0.468139	-0.520451	-0.650879	0.252686	-0.353760	0.208090	-0.294622	-0.021562	-0.932433
06268		6.413839	-0.911047	7.962058	0.215408	-0.488842	-0.436509	-0.663330	0.250977	-0.349609	0.205242	-0.297928	-0.025236	-0.931921
06269		6.362663	-1.352388	7.823319	0.303358	-0.502453	-0.453705	-0.672607	0.242432	-0.344727	0.202467	-0.301177	-0.029657	-0.931354
06270		6.084002	-1.552610	8.022816	0.554391	-0.530062	-0.498843	-0.682617	0.230957	-0.345947	0.199954	-0.304191	-0.036183	-0.930687
06271		5.860487	-0.747233	8.522859	0.667105	-0.572543	-0.488096	-0.678223	0.214355	-0.349365	0.197781	-0.307330	-0.043622	-0.929800
06272		6.501308	0.116821	8.889946	0.534622	-0.561441	-0.394495	-0.686279	0.210205	-0.346436	0.195987	-0.310615	-0.049774	-0.928779
06273		7.169767	0.429750	8.629462	0.380610	-0.425791	-0.359915	-0.699707	0.200684	-0.348877	0.194109	-0.313103	-0.054421	-0.928077
06274		6.496480	0.014610	7.905629	0.340424	-0.348786	-0.392898	-0.709229	0.190430	-0.345703	0.191897	-0.315037	-0.058718	-0.927620
06275		5.650303	-0.202731	7.642032	0.398331	-0.428238	-0.407313	-0.714844	0.181152	-0.337646	0.189678	-0.317475	-0.063624	-0.926922
06276		6.034397	0.276395	7.765415	0.470681	-0.550336	-0.438623	-0.714844	0.174561	-0.333984	0.187334	-0.320712	-0.069361	-0.925872
06277		6.959950	1.023329	7.984186	0.425123	-0.566810	-0.500387	-0.727051	0.157471	-0.337158	0.184380	-0.324093	-0.074937	-0.924852
06278		6.878164	0.977792	7.909260	0.308884	-0.532227	-0.525702	-0.727539	0.156494	-0.336670	0.180924	-0.327355	-0.079629	-0.923994
06279		6.566304	0.548819	7.812819	0.276179	-0.559884	-0.564070	-0.738037	0.140137	-0.331055	0.177061	-0.330837	-0.084213	-0.923095
06280		6.636532	0.827936	7.769375	0.272949	-0.628961	-0.610548	-0.747559	0.133545	-0.325684	0.172771	-0.334804	-0.088998	-0.922028
06281		6.792391	1.468465	7.797237	0.150554	-0.681253	-0.600431	-0.749756	0.113525	-0.325195	0.168167	-0.339337	-0.092885	-0.920838
06282		6.892656	1.335536	7.878243	0.035846	-0.694921	-0.590667	-0.765137	0.114014	-0.317871	0.163294	-0.344122	-0.095879	-0.919632
06283		7.375626	1.455340	7.718633	0.039812	-0.682111	-0.661908	-0.772217	0.096680	-0.300293	0.157887	-0.348725	-0.099085	-0.918501
06284		7.253411	1.759528	7.349154	-0.026488	-0.673932	-0.731728	-0.782471	0.084717	-0.300537	0.151748	-0.353272	-0.101971	-0.917482
06285		6.651952	1.362141	7.074547	-0.123908	-0.716419	-0.771233	-0.780762	0.064453	-0.295410	0.144974	-0.358207	-0.104277	-0.916404
06286		6.532849	0.911321	7.334705	-0.070101	-0.800887	-0.817906	-0.799316	0.046631	-0.285400	0.137917	-0.363650	-0.107227	-0.915008
06287		7.238608	0.971165	7.561106	0.051581	-0.835359	-0.888816	-0.803223	0.042725	-0.270020	0.130644	-0.369116	-0.111348	-0.913393
06288		7.524029	1.439329	7.698877	0.040014	-0.825507	-0.954778	-0.805664	0.023193	-0.255859	0.122827	-0.374418	-0.115561	-0.911795
06289		7.545427	1.699639	7.506276	-0.176422	-0.828818	-0.949950	-0.812744	0.012695	-0.241455	0.114353	-0.379929	-0.118104	-0.910290
06290		7.660121	1.052466	7.388912	-0.329927	-0.814579	-0.932740	-0.820068	-0.003662	-0.231445	0.105525	-0.385452	-0.119403	-0.908864
06291		7.941136	0.122632	7.378774	-0.209692	-0.751031	-0.942080	-0.813232	-0.023926	-0.223877	0.097063	-0.390335	-0.121571	-0.907435
06292		7.890613	-0.250911	7.445591	0.038620	-0.665453	-0.890667	-0.825195	-0.029541	-0.223389	0.089873	-0.394386	-0.125366	-0.905906
06293		8.022075	0.146812	7.548345	0.212043	-0.590989	-0.755907	-0.825195	-0.042236	-0.210449	0.084338	-0.397855	-0.129958	-0.904273
06294		8.092352	0.891441	7.598752	0.193512	-0.515341	-0.616735	-0.819824	-0.056641	-0.206543	0.079866	-0.400896	-0.133883	-0.902762
06295		7.931383	0.981035	7.583791	0.124789	-0.455213	-0.549066	-0.832275	-0.067627	-0.198730	0.075736	-0.403589	-0.137018	-0.901447
06296		8.125166	0.732942	7.474841	0.188972	-0.372517	-0.547301	-0.828613	-0.077637	-0.194092	0.071925	-0.405607	-0.140569	-0.900306
06297		7.826875	0.602927	7.377827	0.318928	-0.291133	-0.508433	-0.827637	-0.077148	-0.191406	0.068937	-0.406969	-0.144907	-0.899236
06298		7.773236	0.982831	7.383274	0.396467	-0.256588	-0.416351	-0.826172	-0.095947	-0.186035	0.066940	-0.408127	-0.149486	-0.898112
06299		8.158132	1.740280	7.281356	0.350043	-0.231164	-0.352862	-0.837402	-0.095703	-0.179932	0.065289	-0.409190	-0.153481	-0.897075
06300		8.040439	2.144563	6.924066	0.186035	-0.208336	-0.346563	-0.825195	-0.098145	-0.186523	0.063153	-0.410172	-0.156211	-0.896308
06301		7.660575	1.605493	6.595016	0.081926	-0.206507	-0.357542	-0.832275	-0.100830	-0.181641	0.060581	-0.411175	-0.158197	-0.895678
06302		7.547680	1.120168	6.549125	0.205255	-0.197942	-0.352400	-0.825928	-0.122559	-0.173096	0.058479	-0.412054	-0.161078	-0.894900
06303		7.486196	1.078253	6.681410	0.437437	-0.168246	-0.318942	-0.825195	-0.123535	-0.166260	0.057461	-0.412635	-0.165555	-0.893880
06304		7.734296	1.800676	6.807054	0.566430	-0.137249	-0.289269	-0.833496	-0.138428	-0.168945	0.057148	-0.412954	-0.170868	-0.892752
06305		7.966427	2.415325	6.710301	0.462748	-0.098380	-0.259211	-0.833984	-0.133301	-0.169678	0.056755	-0.413066	-0.175282	-0.891870
06306		7.885480	2.493923	6.296312	0.270168	-0.075818	-0.230652	-0.826660	-0.134277	-0.165283	0.055943	-0.413137	-0.178151	-0.891320
06307		7.481383	2.061284	5.963195	0.174427	-0.090502	-0.164806	-0.822754	-0.139648	-0.160645	0.055267	-0.413456	-0.180088	-0.890824
06308		7.320746	1.904237	5.952114	0.265637	-0.124676	-0.089228	-0.831787	-0.144287	-0.166748	0.055415	-0.414099	-0.182454	-0.890035
06309		7.444100	2.190093	6.070738	0.430781	-0.145750	-0.094582	-0.832031	-0.147705	-0.164551	0.056059	-0.414809	-0.186070	-0.888914
06310		7.674086	2.915456	6.146770	0.470600	-0.160841	-0.155476	-0.833984	-0.149414	-0.160400	0.056365	-0.415511	-0.190194	-0.887693
06311		7.665949	3.141746	6.042310	0.344705	-0.156863	-0.174906	-0.838623	-0.153809	-0.162842	0.056096	-0.416206	-0.193448	-0.886681
06312		7.524292	2.759234	5.997646	0.276914	-0.153150	-0.167758	-0.831543	-0.155273	-0.158447	0.055651	-0.416912	-0.196173	-0.885779
06313		7.183414	2.529441	6.006541	0.330702	-0.154849	-0.150884	-0.836426	-0.156738	-0.159180	0.055513	-0.417628	-0.199235	-0.884766
06314		7.098365	2.684689	6.266027	0.426575	-0.181214	-0.178969	-0.836182	-0.162354	-0.146484	0.055456	-0.418443	-0.203110	-0.883503
06315		7.502289	3.247942	6.375126	0.427776	-0.183384	-0.246349	-0.837646	-0.166260	-0.145264	0.054903	-0.419150	-0.207224	-0.882246
06316		7.612885	3.308226	6.204532	0.283929	-0.154988	-0.319074	-0.835693	-0.175293	-0.143066	0.053360	-0.419581	-0.210519	-0.881355
06317		7.373048	2.971552	6.007766	0.141115	-0.167298	-0.360286	-0.835938	-0.175049	-0.141846	0.050993	-0.420087	-0.212911	-0.880679
06318		7.420542	2.541264	5.990263	0.109984	-0.207250	-0.354733	-0.836914	-0.177734	-0.138672	0.048485	-0.420904	-0.215068	-0.879906
06319		7.381645	2.390196	6.168780	0.182897	-0.242942	-0.361424	-0.834229	-0.185791	-0.135986	0.046119	-0.421936	-0.217793	-0.878868
06320		7.553689	2.562300	6.494551	0.225320	-0.259974	-0.375282	-0.843018	-0.200195	-0.140869	0.043769	-0.423044	-0.220878	-0.877685
06321		7.841223	2.647582	6.755350	0.206647	-0.227606	-0.382212	-0.842529	-0.200439	-0.132812	0.041359	-0.423902	-0.223833	-0.876639
06322		7.993558	2.474339	6.789392	0.162290	-0.153222	-0.345990	-0.840088	-0.200439	-0.134766	0.039195	-0.424293	-0.226304	-0.875914
06323		7.923847	2.205731	6.732648	0.171073	-0.076048	-0.280105	-0.828125	-0.210205	-0.129883	0.037687	-0.424239	-0.228576	-0.875417
06324		7.964603	2.129130	6.531426	0.209706	-0.009867	-0.208827	-0.839844	-0.217041	-0.126465	0.036960	-0.423822	-0.230851	-0.875052
06325		7.790588	2.198168	6.336211	0.241445	0.031536	-0.143082	-0.839355	-0.225098	-0.130615	0.036903	-0.423218	-0.233108	-0.874749
06326		7.661240	2.276365	6.187187	0.248699	0.039710	-0.076606	-0.834229	-0.221924	-0.135254	0.037370	-0.422680	-0.235176	-0.874435
06327		7.778274	2.432269	6.084330	0.250881	0.056006	-0.003550	-0.836182	-0.216064	-0.133789	0.038408	-0.422164	-0.236993	-0.874149
06328		7.647524	2.382547	5.957729	0.273086	0.095952	0.069444	-0.841309	-0.220947	-0.133057	0.040133	-0.421493	-0.238698	-0.873931
06329		7.464383	2.574831	5.831423	0.318238	0.116849	0.126683	-0.836182	-0.222900	-0.128418	0.042474	-0.420765	-0.240519	-0.873672
06330		7.471674	2.983552	5.730255	0.302274	0.127826	0.201617	-0.840088	-0.221680	-0.136719	0.045326	-0.420110	-0.241953	-0.873448
06331		7.392283	3.189066	5.636825	0.266233	0.148524	0.271587	-0.836426	-0.219482	-0.131104	0.048601	-0.419454	-0.242867	-0.873334
06332		7.320539	3.445908	5.563594	0.246882	0.164678	0.312303	-0.842529	-0.214111	-0.135742	0.052136	-0.418765	-0.243487	-0.873288
06333		7.061392	3.587296	5.544894	0.251833	0.165035	0.318367	-0.842285	-0.210205	-0.129883	0.055733	-0.418078	-0.244119	-0.873219
06334		7.087233	3.961187	5.499648	0.258536	0.152670	0.279522	-0.846924	-0.200195	-0.142822	0.059044	-0.417393	-0.244937	-0.873100
06335		7.082408	4.149800	5.494731	0.228858	0.145227	0.219096	-0.842041	-0.195312	-0.140137	0.061797	-0.416648	-0.245751	-0.873036
06336		7.181030	4.410026	5.394240	0.173413	0.129947	0.156515	-0.845703	-0.197266	-0.143311	0.063871	-0.415911	-0.246387	-0.873059
06337		7.128419	4.346590	5.261846	0.114795	0.105903	0.087296	-0.847900	-0.203369	-0.142822	0.065189	-0.415236	-0.246849	-0.873153
06338		7.162611	4.355260	5.118011	0.071413	0.056243	0.027788	-0.850830	-0.189941	-0.144531	0.065822	-0.414821	-0.247230	-0.873194
06339		7.207919	4.204586	5.047793	0.049014	0.012958	-0.029617	-0.845703	-0.205078	-0.143066	0.065871	-0.414616	-0.247671	-0.873163
06340		7.134275	3.981416	5.028506	0.075178	-0.021009	-0.087266	-0.834961	-0.193359	-0.144043	0.065521	-0.414523	-0.248521	-0.872992
06341		7.187498	3.996298	5.166502	0.112423	-0.052863	-0.108705	-0.835693	-0.200439	-0.143066	0.065078	-0.414597	-0.249735	-0.872643
06342		7.253374	4.001489	5.343414	0.130333	-0.058369	-0.090761	-0.841553	-0.201904	-0.142090	0.064816	-0.414738	-0.251020	-0.872227
06343		7.337110	4.013670	5.421853	0.151582	-0.043260	-0.100266	-0.843506	-0.214600	-0.139404	0.064590	-0.414736	-0.252484	-0.871822
06344		7.389339	3.954804	5.427344	0.148517	-0.020663	-0.132957	-0.835205	-0.212402	-0.140381	0.064163	-0.414502	-0.254026	-0.871517
06345		7.360033	3.718204	5.302537	0.122563	-0.034689	-0.179645	-0.848389	-0.209961	-0.136963	0.063278	-0.414283	-0.255548	-0.871241
06346		7.423969	3.571263	5.259847	0.076832	-0.067626	-0.189811	-0.844971	-0.220703	-0.142334	0.062091	-0.414305	-0.256789	-0.870951
06347		7.554898	3.353118	5.329768	0.030253	-0.099667	-0.161438	-0.840088	-0.221191	-0.141846	0.060879	-0.414643	-0.257610	-0.870633
06348		7.559014	3.139116	5.468804	0.053590	-0.116643	-0.146323	-0.836670	-0.223145	-0.144531	0.059821	-0.415125	-0.258554	-0.870197
06349		7.549424	3.154667	5.644303	0.079423	-0.133763	-0.152794	-0.835693	-0.226562	-0.138916	0.058768	-0.415704	-0.259715	-0.869647
06350		7.642146	3.325995	5.800443	0.048922	-0.139319	-0.153255	-0.842773	-0.225830	-0.127930	0.057593	-0.416336	-0.260656	-0.869141
06351		7.539043	3.204383	5.841791	-0.012927	-0.126508	-0.130695	-0.843018	-0.232666	-0.134521	0.056394	-0.416953	-0.261062	-0.868802
06352		7.484870	2.980654	5.902826	-0.032881	-0.105983	-0.093796	-0.843750	-0.235107	-0.130615	0.055436	-0.417511	-0.261184	-0.868559
06353		7.469885	2.897430	5.976348	-0.001689	-0.087330	-0.057154	-0.843994	-0.232178	-0.126953	0.054893	-0.417999	-0.261393	-0.868296
06354		7.568250	3.051228	6.028141	0.010697	-0.055736	-0.012853	-0.838379	-0.238770	-0.127197	0.054780	-0.418350	-0.261520	-0.868096
06355		7.541442	3.121639	5.961513	0.004392	-0.024485	0.023433	-0.844727	-0.234375	-0.129395	0.054976	-0.418556	-0.261458	-0.868002
06356		7.241744	3.130777	5.909206	-0.011561	-0.004335	0.051618	-0.843994	-0.232422	-0.126465	0.055364	-0.418686	-0.261172	-0.868001
06357		7.198466	3.227207	5.917756	-0.018855	0.002134	0.069512	-0.845703	-0.240234	-0.129883	0.055869	-0.418811	-0.260765	-0.868031
06358		7.344390	3.380837	5.922159	-0.038327	0.015642	0.070181	-0.837891	-0.231445	-0.130371	0.056340	-0.418848	-0.260207	-0.868150
06359		7.335468	3.438169	5.865426	-0.069182	0.023240	0.042264	-0.848145	-0.228760	-0.131836	0.056517	-0.418784	-0.259519	-0.868376
06360		7.283895	3.509427	5.787565	-0.140680	0.006021	0.025053	-0.843750	-0.228027	-0.129883	0.056282	-0.418840	-0.258380	-0.868703
06361		7.335720	3.264047	5.771470	-0.195157	-0.025564	0.014644	-0.839844	-0.222656	-0.126465	0.055714	-0.419126	-0.256896	-0.869042
06362		7.489939	3.092819	5.841153	-0.186255	-0.030513	-0.012516	-0.846191	-0.231445	-0.127441	0.054969	-0.419385	-0.255572	-0.869355
06363		7.585137	3.048084	5.862881	-0.195186	-0.030180	-0.014082	-0.847656	-0.227295	-0.125244	0.054182	-0.419642	-0.254185	-0.869686
06364		7.691035	2.872592	5.814558	-0.226018	-0.019874	0.007360	-0.836914	-0.225830	-0.131348	0.053463	-0.419882	-0.252494	-0.870108
06365		7.624649	2.765836	5.763681	-0.249702	-0.015079	0.052269	-0.839355	-0.223877	-0.132568	0.052997	-0.420192	-0.250468	-0.870572
06366		7.674624	2.796900	5.776841	-0.253428	-0.004204	0.121961	-0.848145	-0.222656	-0.139893	0.053045	-0.420567	-0.248163	-0.871048
06367		7.748671	2.816358	5.839605	-0.209363	0.030627	0.181401	-0.843018	-0.209961	-0.135986	0.053750	-0.420792	-0.245950	-0.871524
06368		7.721521	2.861997	5.770306	-0.141391	0.075291	0.197658	-0.839600	-0.201904	-0.137207	0.054902	-0.420693	-0.244151	-0.872005
06369		7.464801	2.954763	5.663506	-0.123604	0.077007	0.187888	-0.843750	-0.211182	-0.138672	0.056049	-0.420552	-0.242513	-0.872458
06370		7.334833	2.949782	5.664494	-0.159984	0.038734	0.191559	-0.842773	-0.204590	-0.125488	0.057016	-0.420712	-0.240612	-0.872844
06371		7.424790	2.879890	5.895924	-0.211708	-0.000988	0.196847	-0.840332	-0.206787	-0.133545	0.057761	-0.421194	-0.238333	-0.873188
06372		7.728885	2.913998	6.069119	-0.241545	-0.010323	0.178632	-0.837646	-0.195557	-0.132812	0.058249	-0.421719	-0.235903	-0.873562
