// Start Time: Unknown
// Update Rate: 60.0Hz
// Filter Profile: human (46.1)
// Firmware Version: 4.6.0
PacketCounter	SampleTimeFine	Acc_X	Acc_Y	Acc_Z	Gyr_X	Gyr_Y	Gyr_Z	Mag_X	Mag_Y	Mag_Z	Quat_q0	Quat_q1	Quat_q2	Quat_q3
51504		8.033066	-1.534911	5.496526	0.039456	0.003348	-0.043181	-0.238770	0.057617	-0.238037	0.882491	-0.093065	-0.460948	-0.008691
51505		7.963521	-1.618744	5.454780	0.024656	0.001510	-0.064137	-0.245117	0.047607	-0.239014	0.882511	-0.092637	-0.460988	-0.009069
51506		7.867725	-1.812752	5.477630	0.016488	-0.012762	-0.057265	-0.251953	0.055664	-0.245850	0.882469	-0.092284	-0.461133	-0.009422
51507		7.844630	-1.991060	5.518419	0.024692	-0.023836	-0.041163	-0.249023	0.056641	-0.238770	0.882393	-0.091950	-0.461340	-0.009609
51508		7.865276	-2.002764	5.611109	0.031807	-0.027340	-0.007756	-0.245605	0.053223	-0.236816	0.882313	-0.091703	-0.461544	-0.009515
51509		7.905140	-1.950292	5.656506	0.031199	-0.019072	0.020987	-0.240234	0.053711	-0.238525	0.882269	-0.091585	-0.461658	-0.009209
51510		7.884723	-1.872674	5.685363	0.031340	-0.002960	0.022015	-0.245361	0.070068	-0.235107	0.882291	-0.091485	-0.461643	-0.008898
51511		7.804099	-1.666658	5.684853	0.010546	0.012232	0.013213	-0.242920	0.055908	-0.244629	0.882360	-0.091518	-0.461507	-0.008734
51512		7.691239	-1.655433	5.675575	-0.026283	0.017360	0.005066	-0.248535	0.052002	-0.237305	0.882428	-0.091797	-0.461321	-0.008771
51513		7.788567	-1.719690	5.654552	-0.031020	0.022020	-0.008439	-0.242432	0.055420	-0.234131	0.882520	-0.092066	-0.461089	-0.008923
51514		7.866598	-1.741665	5.602524	-0.018767	0.030418	-0.020621	-0.246826	0.059082	-0.238525	0.882661	-0.092209	-0.460787	-0.009115
51515		7.852830	-1.762547	5.536985	-0.001796	0.041662	-0.035812	-0.242676	0.053711	-0.239014	0.882862	-0.092181	-0.460402	-0.009355
51516		7.778033	-1.712926	5.547406	-0.009181	0.033786	-0.045856	-0.250000	0.058594	-0.237793	0.883029	-0.092187	-0.460074	-0.009681
51517		7.809521	-1.738095	5.554958	-0.040941	0.024169	-0.046512	-0.243896	0.048096	-0.241455	0.883139	-0.092439	-0.459802	-0.010118
51518		7.828877	-1.853765	5.565284	-0.056673	0.024957	-0.042475	-0.244629	0.055664	-0.237549	0.883245	-0.092838	-0.459508	-0.010579
51519		7.841461	-1.885878	5.545224	-0.045518	0.029534	-0.031270	-0.244141	0.059814	-0.233398	0.883380	-0.093222	-0.459163	-0.010900
51520		7.780013	-1.811098	5.556413	-0.023324	0.021951	-0.020561	-0.242188	0.059570	-0.239014	0.883505	-0.093510	-0.458861	-0.011034
51521		7.743794	-1.701339	5.609509	-0.018738	0.011507	-0.014095	-0.239014	0.060791	-0.235840	0.883599	-0.093814	-0.458616	-0.011088
51522		7.772891	-1.660765	5.705010	-0.028175	0.008980	-0.008288	-0.241455	0.056885	-0.235840	0.883681	-0.094210	-0.458375	-0.011128
51523		7.854976	-1.639905	5.765350	-0.032931	0.022818	-0.011654	-0.249268	0.053223	-0.241699	0.883823	-0.094628	-0.458014	-0.011222
51524		7.833350	-1.614952	5.738540	-0.023063	0.039213	-0.017512	-0.243408	0.055908	-0.231201	0.884050	-0.094970	-0.457502	-0.011331
51525		7.864091	-1.577869	5.674558	-0.012861	0.050193	-0.024294	-0.241211	0.058838	-0.241455	0.884322	-0.095162	-0.456933	-0.011460
51526		7.833660	-1.504484	5.658415	-0.019610	0.054903	-0.037649	-0.251953	0.059570	-0.236572	0.884618	-0.095369	-0.456309	-0.011733
51527		7.804481	-1.547326	5.655726	-0.045189	0.047477	-0.049694	-0.247070	0.058594	-0.235840	0.884869	-0.095710	-0.455740	-0.012157
51528		7.867702	-1.588554	5.667077	-0.062744	0.036020	-0.053465	-0.244873	0.064209	-0.237793	0.885057	-0.096138	-0.455270	-0.012690
51529		7.913119	-1.663112	5.654075	-0.061808	0.033190	-0.046374	-0.251465	0.062012	-0.243652	0.885238	-0.096580	-0.454811	-0.013161
51530		7.852773	-1.649257	5.640316	-0.034738	0.031207	-0.047418	-0.248047	0.062012	-0.246826	0.885444	-0.096856	-0.454339	-0.013535
51531		7.786491	-1.606955	5.603577	-0.016178	0.026756	-0.041108	-0.239746	0.054688	-0.240234	0.885648	-0.097016	-0.453900	-0.013810
51532		7.759927	-1.604664	5.592055	-0.007932	0.014773	-0.041003	-0.242920	0.055176	-0.227539	0.885780	-0.097052	-0.453625	-0.014096
51533		7.812550	-1.600702	5.588431	-0.014514	0.006759	-0.035531	-0.244141	0.065918	-0.230469	0.885854	-0.097108	-0.453462	-0.014318
51534		7.814811	-1.673599	5.565172	-0.008863	0.009703	-0.036936	-0.239258	0.065918	-0.234375	0.885954	-0.097137	-0.453255	-0.014482
51535		7.671973	-1.632435	5.517005	0.003586	0.005165	-0.035515	-0.244873	0.059082	-0.235596	0.886046	-0.097087	-0.453082	-0.014613
51536		7.588606	-1.671542	5.525320	0.007502	-0.013290	-0.038828	-0.242432	0.057129	-0.235352	0.886072	-0.097017	-0.453041	-0.014760
51537		7.687072	-1.710998	5.630613	0.004936	-0.027213	-0.040703	-0.237793	0.064453	-0.233887	0.886039	-0.096955	-0.453114	-0.014936
51538		7.701918	-1.824295	5.747194	0.002383	-0.024735	-0.036140	-0.240234	0.053711	-0.237305	0.886010	-0.096919	-0.453174	-0.015058
51539		7.692719	-2.001644	5.824994	0.014578	-0.017353	-0.032117	-0.240479	0.055420	-0.236328	0.886028	-0.096835	-0.453153	-0.015168
51540		7.621584	-2.021197	5.870829	0.040545	-0.008380	-0.013979	-0.243164	0.070068	-0.238770	0.886108	-0.096649	-0.453041	-0.015024
51541		7.522726	-2.000448	5.898961	0.057556	-0.008716	0.021810	-0.244141	0.059082	-0.244385	0.886229	-0.096522	-0.452850	-0.014442
51542		7.468001	-2.005906	5.971148	0.083276	-0.018524	0.063698	-0.242920	0.056641	-0.240234	0.886356	-0.096403	-0.452655	-0.013525
51543		7.520464	-1.914771	6.107944	0.118132	-0.023954	0.095607	-0.241211	0.056641	-0.241211	0.886492	-0.096134	-0.452483	-0.012233
51544		7.466831	-1.726841	6.210013	0.131206	-0.014205	0.122426	-0.246094	0.048340	-0.232422	0.886690	-0.095872	-0.452188	-0.010710
51545		7.220763	-1.590179	6.397968	0.134791	-0.013517	0.137338	-0.247803	0.048828	-0.236328	0.886885	-0.095584	-0.451903	-0.009071
51546		7.244477	-1.495103	6.586207	0.126004	-0.016393	0.140639	-0.239258	0.051025	-0.239746	0.887099	-0.095377	-0.451556	-0.007454
51547		7.374556	-1.548678	6.752174	0.128505	0.011770	0.118069	-0.243896	0.052734	-0.236328	0.887449	-0.095034	-0.450961	-0.006069
51548		7.393863	-1.573497	6.777520	0.124741	0.060274	0.076499	-0.243164	0.053955	-0.236328	0.887994	-0.094525	-0.450008	-0.004994
51549		7.220315	-1.487713	6.740658	0.082764	0.101387	0.046415	-0.250244	0.055176	-0.234863	0.888677	-0.094187	-0.448735	-0.004326
51550		7.018205	-1.561951	6.744862	0.026790	0.109066	0.034344	-0.245117	0.047363	-0.239014	0.889365	-0.094198	-0.447371	-0.003913
51551		6.995750	-1.699494	6.855037	-0.014080	0.110076	0.026521	-0.247070	0.050781	-0.243164	0.890047	-0.094481	-0.445955	-0.003863
51552		7.183249	-1.888582	6.921753	-0.023107	0.138932	0.007536	-0.243896	0.053955	-0.232422	0.890864	-0.094778	-0.444255	-0.003984
51553		7.330610	-1.986090	6.894342	-0.020973	0.189970	-0.006724	-0.247070	0.054688	-0.235596	0.891832	-0.094928	-0.442276	-0.004136
51554		7.222608	-2.012324	6.740291	-0.026059	0.236142	-0.000408	-0.257324	0.047852	-0.234375	0.892984	-0.095166	-0.439892	-0.004284
51555		7.066237	-2.127445	6.592501	-0.017014	0.257438	0.009916	-0.253906	0.057373	-0.232666	0.894219	-0.095402	-0.437323	-0.004404
51556		7.126154	-2.241483	6.450094	0.004813	0.253513	0.016590	-0.254395	0.057861	-0.231445	0.895438	-0.095474	-0.434809	-0.004209
51557		7.223225	-2.390107	6.369190	0.033236	0.256747	0.023248	-0.251221	0.054443	-0.235107	0.896667	-0.095368	-0.432295	-0.003829
51558		7.296284	-2.398965	6.343090	0.042063	0.261181	0.052847	-0.265625	0.054443	-0.232910	0.897906	-0.095350	-0.429723	-0.003288
51559		7.168326	-2.361111	6.363210	0.036383	0.248587	0.104580	-0.271240	0.055664	-0.235352	0.899083	-0.095590	-0.427209	-0.002298
51560		6.973681	-2.355520	6.498201	0.048499	0.217346	0.140941	-0.267334	0.058838	-0.232666	0.900153	-0.095903	-0.424884	-0.000965
51561		6.993590	-2.321833	6.754196	0.054831	0.206375	0.160249	-0.273193	0.055664	-0.233154	0.901161	-0.096230	-0.422669	0.000531
51562		7.088222	-2.328488	6.943256	0.063993	0.229126	0.165219	-0.286133	0.056885	-0.229492	0.902254	-0.096530	-0.420257	0.001982
51563		7.024711	-2.188383	7.005017	0.052854	0.279450	0.159890	-0.283447	0.060547	-0.228760	0.903505	-0.096900	-0.417466	0.003302
51564		6.743783	-2.161027	7.093484	0.026267	0.299962	0.172518	-0.281494	0.064453	-0.237061	0.904794	-0.097512	-0.414509	0.004602
51565		6.634978	-2.153785	7.290717	0.015403	0.293986	0.177962	-0.292236	0.065430	-0.235596	0.906045	-0.098222	-0.411583	0.005910
51566		6.709266	-2.080528	7.487574	-0.015160	0.302982	0.188141	-0.303711	0.074219	-0.235596	0.907294	-0.099191	-0.408568	0.007181
51567		6.856282	-2.151138	7.548916	-0.023293	0.343788	0.190221	-0.307129	0.072266	-0.238525	0.908667	-0.100220	-0.405228	0.008404
51568		6.910581	-2.168166	7.448144	0.002915	0.396018	0.190612	-0.310303	0.079590	-0.240967	0.910225	-0.101045	-0.401482	0.009671
51569		6.830200	-1.996239	7.380267	0.031691	0.438714	0.196590	-0.321533	0.077148	-0.254639	0.911929	-0.101665	-0.397401	0.011040
51570		6.723823	-1.755124	7.374971	0.020765	0.444074	0.206473	-0.325928	0.078369	-0.242188	0.913619	-0.102387	-0.393271	0.012436
51571		6.736317	-1.703484	7.442822	-0.003052	0.434507	0.195934	-0.325928	0.080566	-0.253906	0.915237	-0.103231	-0.389227	0.013672
51572		6.828528	-1.680459	7.552035	-0.025313	0.445303	0.158426	-0.335205	0.090088	-0.252441	0.916853	-0.104101	-0.385139	0.014531
51573		6.727124	-1.632629	7.760448	-0.057323	0.461443	0.111245	-0.340820	0.095703	-0.265381	0.918477	-0.105042	-0.380978	0.014903
51574		6.668259	-1.711745	7.934057	-0.104904	0.488830	0.081953	-0.345215	0.102051	-0.266602	0.920128	-0.106233	-0.376640	0.014867
51575		6.642480	-1.973902	7.987380	-0.122075	0.523607	0.056140	-0.358887	0.105713	-0.266357	0.921854	-0.107457	-0.372058	0.014540
51576		6.579279	-2.225846	7.964061	-0.093885	0.561237	0.025615	-0.361816	0.104492	-0.281738	0.923698	-0.108361	-0.367209	0.014028
51577		6.337065	-2.471913	7.960584	-0.055119	0.588503	0.011073	-0.368164	0.113281	-0.288330	0.925633	-0.108919	-0.362157	0.013496
51578		6.174997	-2.528629	8.059043	-0.027518	0.586427	0.035537	-0.367676	0.121582	-0.302490	0.927554	-0.109341	-0.357091	0.013238
51579		6.129507	-2.619084	8.216825	-0.036232	0.589832	0.106386	-0.374512	0.123047	-0.304932	0.929438	-0.110043	-0.351928	0.013500
51580		6.143797	-2.754452	8.339908	-0.014478	0.591874	0.171450	-0.367920	0.135498	-0.322266	0.931309	-0.110771	-0.346680	0.014329
51581		6.185375	-2.748641	8.561332	0.023319	0.601508	0.206031	-0.384766	0.136963	-0.328125	0.933206	-0.111311	-0.341314	0.015529
51582		6.125534	-2.630671	8.784205	0.042151	0.622466	0.218790	-0.375000	0.143311	-0.344482	0.935143	-0.111745	-0.335763	0.016862
51583		5.989047	-2.724579	8.914724	0.049139	0.642899	0.228111	-0.384521	0.148193	-0.374512	0.937105	-0.112148	-0.330034	0.018268
51584		5.868960	-2.930485	9.089613	0.082459	0.666924	0.228204	-0.386475	0.162598	-0.374756	0.939127	-0.112293	-0.324101	0.019742
51585		5.938745	-2.993895	9.216827	0.115288	0.699377	0.243558	-0.382324	0.169434	-0.389893	0.941222	-0.112229	-0.317880	0.021395
51586		6.012701	-2.890558	9.289656	0.103325	0.762020	0.284099	-0.387207	0.166992	-0.412842	0.943416	-0.112376	-0.311120	0.023275
51587		5.922475	-2.834254	9.277753	0.078656	0.813976	0.320570	-0.376221	0.174805	-0.428223	0.945658	-0.112817	-0.303912	0.025327
51588		5.753316	-2.700767	9.260659	0.071090	0.840288	0.334431	-0.370605	0.188232	-0.449219	0.947893	-0.113352	-0.296476	0.027440
51589		5.669017	-2.563201	9.364936	0.070375	0.847595	0.340063	-0.364258	0.189697	-0.464600	0.950079	-0.113898	-0.288968	0.029585
51590		5.743934	-2.392738	9.433161	0.060269	0.867343	0.337256	-0.355225	0.197754	-0.482178	0.952237	-0.114508	-0.281301	0.031659
51591		5.737751	-2.271340	9.418849	0.034900	0.914255	0.336827	-0.340820	0.195312	-0.499512	0.954410	-0.115313	-0.273264	0.033619
51592		5.783760	-2.212932	9.356545	0.025138	0.964210	0.332011	-0.323730	0.217285	-0.521729	0.956613	-0.116177	-0.264836	0.035462
51593		5.850892	-2.094010	9.222955	0.036138	1.009759	0.325250	-0.312012	0.225586	-0.547119	0.958844	-0.116929	-0.256048	0.037223
51594		5.871374	-2.010523	8.964989	0.063763	1.044140	0.307815	-0.290039	0.224609	-0.564453	0.961091	-0.117410	-0.247001	0.038861
51595		5.679313	-1.891925	8.652168	0.095043	1.059108	0.284058	-0.278320	0.226807	-0.583496	0.963313	-0.117572	-0.237858	0.040347
51596		5.686892	-1.653462	8.453134	0.093253	1.053967	0.255561	-0.257080	0.233154	-0.595703	0.965440	-0.117666	-0.228800	0.041595
51597		5.562728	-1.602446	8.232658	0.058332	1.036244	0.233234	-0.233887	0.228516	-0.609375	0.967418	-0.117966	-0.219936	0.042604
51598		5.487844	-1.663874	8.142746	0.045108	1.004508	0.195726	-0.225098	0.234619	-0.615967	0.969252	-0.118269	-0.211392	0.043307
51599		5.534053	-1.676965	8.132976	0.031935	0.977295	0.167708	-0.198730	0.231445	-0.634033	0.970958	-0.118598	-0.203124	0.043778
51600		5.606575	-1.744064	8.072286	0.019529	0.967460	0.126382	-0.171875	0.237305	-0.644287	0.972574	-0.118934	-0.195008	0.043894
51601		5.395296	-1.845855	7.980618	0.000782	0.959718	0.093749	-0.159912	0.247070	-0.645508	0.974098	-0.119350	-0.187024	0.043714
51602		5.029316	-2.088538	7.914528	0.017471	0.928929	0.065031	-0.133057	0.240723	-0.656250	0.975532	-0.119561	-0.179341	0.043349
51603		4.809299	-2.209428	7.944413	0.038288	0.881103	0.059527	-0.112061	0.242432	-0.666504	0.976855	-0.119569	-0.172068	0.043012
51604		4.651163	-2.371469	8.103119	0.059454	0.838692	0.073076	-0.095947	0.239502	-0.674561	0.978077	-0.119405	-0.165142	0.042853
51605		4.661781	-2.380914	8.178120	0.058066	0.813712	0.098505	-0.075195	0.245605	-0.669922	0.979202	-0.119276	-0.158415	0.042918
51606		4.507022	-2.334075	8.182223	0.045444	0.800703	0.123875	-0.057861	0.241455	-0.684814	0.980238	-0.119278	-0.151795	0.043182
51607		4.034653	-2.161890	8.316837	0.035608	0.763269	0.124856	-0.033447	0.238525	-0.683838	0.981171	-0.119345	-0.145504	0.043473
51608		3.871425	-2.170571	8.514582	0.021183	0.708350	0.112847	-0.020752	0.246094	-0.685303	0.981987	-0.119491	-0.139692	0.043700
51609		3.907939	-2.194088	8.700461	0.022138	0.685235	0.108673	-0.006104	0.245117	-0.677246	0.982744	-0.119612	-0.134086	0.043914
51610		3.798650	-2.193911	8.765143	0.032765	0.684751	0.101771	0.025879	0.241943	-0.691406	0.983480	-0.119634	-0.128499	0.044080
51611		3.522238	-2.125244	8.800296	0.046813	0.686772	0.099775	0.019531	0.238770	-0.702148	0.984200	-0.119535	-0.122904	0.044240
51612		3.552121	-2.157187	8.791468	0.069204	0.681928	0.084599	0.042480	0.234863	-0.684082	0.984910	-0.119230	-0.117365	0.044301
51613		3.584904	-1.944098	8.824776	0.049511	0.692659	0.063014	0.062988	0.237061	-0.692383	0.985586	-0.119065	-0.111776	0.044152
51614		3.181630	-2.052911	8.855948	0.009683	0.667077	0.030198	0.066162	0.239746	-0.693359	0.986180	-0.119180	-0.106456	0.043720
51615		2.796459	-2.382201	8.992887	0.013675	0.602017	-0.022437	0.084961	0.230225	-0.684814	0.986714	-0.119186	-0.101728	0.042921
51616		2.923783	-2.412992	9.261362	0.008030	0.572635	-0.045094	0.108154	0.234375	-0.683838	0.987202	-0.119209	-0.097269	0.041959
51617		3.179032	-2.417152	9.364576	-0.051283	0.598799	0.011665	0.112305	0.240723	-0.685791	0.987610	-0.119775	-0.092564	0.041389
51618		3.026802	-2.555984	9.079377	-0.049971	0.643805	0.087654	0.130859	0.238525	-0.681885	0.988002	-0.120402	-0.087421	0.041398
51619		2.911802	-2.579644	8.737259	0.069934	0.653699	0.112252	0.140381	0.227783	-0.679688	0.988484	-0.120064	-0.082138	0.041684
51620		3.004339	-1.865024	8.454923	0.150199	0.657869	0.106662	0.153076	0.232910	-0.676025	0.989021	-0.119064	-0.076806	0.041973
51621		2.935319	-1.292977	8.123250	0.070349	0.656663	0.066665	0.160889	0.228271	-0.669434	0.989463	-0.118691	-0.071562	0.041880
51622		2.471632	-0.931328	7.834926	-0.063457	0.631084	-0.033228	0.186035	0.230225	-0.670654	0.989766	-0.119340	-0.066685	0.040908
51623		2.183854	-1.214741	7.782350	-0.192354	0.554784	-0.082824	0.189697	0.234863	-0.668701	0.989894	-0.120985	-0.062536	0.039530
51624		2.690714	-1.898332	7.608053	-0.158140	0.514383	-0.099393	0.207031	0.233154	-0.664307	0.990020	-0.122315	-0.058730	0.038073
51625		2.945125	-2.341730	7.352205	0.000988	0.526910	-0.079796	0.200928	0.232178	-0.658691	0.990291	-0.122345	-0.054760	0.036840
51626		3.447878	-2.221599	6.756101	0.176063	0.558081	-0.061172	0.228760	0.235596	-0.659668	0.990728	-0.120951	-0.050474	0.035807
51627		3.133525	-1.351437	6.117729	0.206390	0.570786	-0.020789	0.234863	0.231201	-0.660400	0.991164	-0.119332	-0.046053	0.035103
51628		2.379491	-0.771544	5.810188	0.087755	0.460025	-0.030001	0.239746	0.225342	-0.646240	0.991425	-0.118652	-0.042607	0.034386
51629		2.066827	-0.583446	5.744336	-0.085320	0.303477	-0.155520	0.240723	0.229248	-0.648193	0.991486	-0.119305	-0.040638	0.032725
51630		2.277144	-1.292693	5.799982	-0.228418	0.187087	-0.273011	0.229492	0.240723	-0.645508	0.991389	-0.121060	-0.039792	0.030159
51631		2.973375	-1.948772	5.911812	-0.256090	0.167794	-0.293971	0.247803	0.236084	-0.640625	0.991252	-0.123029	-0.039141	0.027428
51632		3.470333	-2.606127	5.655037	-0.171456	0.182875	-0.261215	0.242188	0.240967	-0.643066	0.991188	-0.124316	-0.038326	0.024974
51633		2.676292	-2.761426	5.330178	-0.002740	0.129071	-0.261781	0.241699	0.242188	-0.648438	0.991272	-0.124209	-0.037940	0.022620
51634		2.120023	-2.789167	5.203670	0.119474	-0.020488	-0.272530	0.241699	0.238525	-0.651123	0.991430	-0.123073	-0.038789	0.020366
51635		1.980775	-2.399635	5.444221	0.099566	-0.182072	-0.195269	0.235840	0.237305	-0.653564	0.991493	-0.122113	-0.040901	0.018908
51636		2.546660	-2.434949	5.814634	-0.018893	-0.306805	-0.036900	0.236572	0.245850	-0.645508	0.991358	-0.122175	-0.043903	0.018842
51637		2.861489	-2.428387	6.097431	-0.057235	-0.402270	0.033071	0.227783	0.247314	-0.651611	0.991125	-0.122573	-0.047637	0.019434
51638		2.671987	-2.074992	6.324550	-0.024482	-0.491728	0.005253	0.221680	0.243896	-0.649658	0.990876	-0.122682	-0.052141	0.019897
51639		2.207017	-1.713649	6.627784	-0.017423	-0.569287	-0.040155	0.202393	0.242676	-0.649170	0.990583	-0.122703	-0.057337	0.020065
51640		2.214399	-1.636902	7.089057	-0.011608	-0.612404	-0.086336	0.193115	0.244873	-0.657471	0.990253	-0.122644	-0.062935	0.019898
51641		3.417102	-1.873153	7.422165	-0.019508	-0.599922	-0.080087	0.186523	0.246338	-0.663818	0.989891	-0.122650	-0.068423	0.019765
51642		3.938998	-2.162398	7.225265	0.031057	-0.556336	-0.084633	0.170410	0.242676	-0.657471	0.989577	-0.122240	-0.073556	0.019578
51643		2.906123	-2.143384	7.118339	0.152329	-0.627942	-0.160923	0.151367	0.239014	-0.674072	0.989323	-0.120771	-0.079349	0.018906
51644		2.367793	-1.961380	7.325938	0.175491	-0.781950	-0.202894	0.153564	0.241455	-0.670410	0.988952	-0.119056	-0.086450	0.018058
51645		2.934379	-1.937632	7.857494	0.088798	-0.869289	-0.172503	0.125977	0.242676	-0.672363	0.988369	-0.118059	-0.094247	0.017485
51646		3.905118	-1.790945	8.215602	-0.087524	-0.837287	-0.063537	0.110352	0.234863	-0.680664	0.987564	-0.118597	-0.101693	0.017639
51647		4.183480	-2.272890	8.063199	-0.119659	-0.801054	-0.031621	0.092529	0.240967	-0.672119	0.986698	-0.119425	-0.108817	0.017990
51648		3.535400	-2.437674	7.804033	0.064616	-0.842234	-0.097608	0.068115	0.246338	-0.684326	0.985933	-0.118667	-0.116319	0.018004
51649		3.068636	-2.123951	7.915675	0.250250	-0.939396	-0.165378	0.049316	0.236328	-0.681641	0.985201	-0.116301	-0.124653	0.017736
51650		3.456484	-1.783900	8.308202	0.250351	-0.990125	-0.155335	0.035400	0.238281	-0.680908	0.984337	-0.113930	-0.133381	0.017602
51651		4.386086	-1.550412	8.488528	0.088786	-0.947087	-0.068256	0.003418	0.234131	-0.689453	0.983280	-0.112977	-0.141686	0.017963
51652		4.664778	-2.027464	8.259511	-0.002474	-0.927055	-0.043425	-0.005371	0.222656	-0.678467	0.982088	-0.112793	-0.149810	0.018399
51653		3.861531	-2.388263	8.135012	0.117805	-1.012302	-0.156622	-0.032227	0.227539	-0.687012	0.980845	-0.111463	-0.158715	0.018138
51654		3.447005	-2.197580	8.370056	0.216066	-1.135898	-0.257550	-0.060547	0.218994	-0.687744	0.979452	-0.109170	-0.168691	0.017297
51655		3.879583	-2.073595	8.849875	0.137978	-1.164337	-0.237917	-0.081299	0.224121	-0.678223	0.977840	-0.107529	-0.178868	0.016532
51656		5.178645	-2.054468	9.086982	-0.047298	-1.076852	-0.117047	-0.120117	0.221436	-0.672363	0.976078	-0.107579	-0.188225	0.016399
51657		5.311277	-2.283759	8.837194	-0.131234	-0.979410	-0.004423	-0.130127	0.217285	-0.666504	0.974298	-0.108493	-0.196686	0.016960
51658		5.095243	-2.629903	8.389125	0.018865	-1.005010	-0.027714	-0.143799	0.212646	-0.664551	0.972539	-0.108141	-0.205340	0.017600
51659		4.751841	-2.254943	8.229065	0.242245	-1.100971	-0.137501	-0.171631	0.222900	-0.656982	0.970746	-0.105773	-0.214819	0.017818
51660		4.472189	-1.918947	8.383286	0.306146	-1.196960	-0.158913	-0.210693	0.206299	-0.642334	0.968736	-0.102826	-0.225058	0.018064
51661		5.208507	-1.611066	9.007198	0.214248	-1.248324	-0.092341	-0.230469	0.208984	-0.634766	0.966426	-0.100727	-0.235635	0.018719
51662		6.055750	-1.432296	9.349007	0.006208	-1.220781	0.036300	-0.249512	0.203613	-0.625977	0.963864	-0.100547	-0.245882	0.019978
51663		6.173659	-1.852478	9.099850	-0.062888	-1.177187	0.074027	-0.273193	0.196045	-0.600830	0.961222	-0.100991	-0.255729	0.021360
51664		6.102379	-2.018269	8.729542	0.080865	-1.164081	-0.017688	-0.292725	0.196533	-0.591797	0.958645	-0.100080	-0.265493	0.022301
51665		5.655206	-1.939088	8.569067	0.280934	-1.176177	-0.135583	-0.308838	0.190918	-0.582520	0.956127	-0.097298	-0.275384	0.022752
51666		6.176371	-1.858234	8.783234	0.369226	-1.183655	-0.208747	-0.337158	0.185791	-0.562988	0.953569	-0.093632	-0.285339	0.022830
51667		6.607497	-1.571796	8.843248	0.259117	-1.121279	-0.190764	-0.349121	0.168213	-0.543945	0.950965	-0.090884	-0.294769	0.022740
51668		6.793946	-1.528995	8.662548	0.050159	-1.058871	-0.131641	-0.359131	0.169189	-0.521240	0.948256	-0.089939	-0.303667	0.022558
51669		6.930943	-1.692951	8.172840	-0.068365	-1.031503	-0.134550	-0.369385	0.160400	-0.511230	0.945448	-0.089917	-0.312343	0.022031
51670		6.297681	-1.651760	7.928278	-0.076071	-1.054101	-0.208978	-0.388672	0.158203	-0.476562	0.942509	-0.089750	-0.321225	0.020912
51671		5.725520	-1.545470	8.111523	-0.082364	-1.122586	-0.316409	-0.392822	0.143799	-0.452148	0.939311	-0.089322	-0.330689	0.018982
51672		6.409947	-1.383027	8.635670	-0.221665	-1.144072	-0.404445	-0.404541	0.144287	-0.434570	0.935867	-0.089727	-0.340362	0.015994
51673		7.158851	-1.315516	8.882707	-0.486029	-1.043175	-0.412293	-0.399414	0.139648	-0.411377	0.932410	-0.092169	-0.349240	0.012118
51674		7.637978	-1.835678	8.644186	-0.673099	-0.895689	-0.394563	-0.408936	0.137207	-0.390381	0.929141	-0.096115	-0.356931	0.007717
51675		7.369816	-2.383026	8.091261	-0.603162	-0.790323	-0.442975	-0.417725	0.136719	-0.358398	0.926157	-0.099370	-0.363799	0.003063
51676		6.869291	-2.628310	7.836790	-0.383947	-0.789791	-0.526160	-0.417236	0.125732	-0.349365	0.923284	-0.100672	-0.370688	-0.001571
51677		7.235256	-2.740453	7.528472	-0.182581	-0.802550	-0.564952	-0.416504	0.121826	-0.327881	0.920472	-0.100300	-0.377673	-0.005868
51678		7.805175	-2.501783	7.276181	-0.110540	-0.756442	-0.526009	-0.407227	0.109131	-0.307129	0.917805	-0.099492	-0.384241	-0.009676
51679		8.061762	-2.168825	6.915737	-0.181487	-0.704075	-0.394469	-0.400391	0.104248	-0.292480	0.915205	-0.099641	-0.390268	-0.012746
51680		7.808982	-2.262228	6.449484	-0.242577	-0.720665	-0.261265	-0.394287	0.096924	-0.273193	0.912468	-0.100688	-0.396281	-0.014985
51681		7.737516	-2.177465	6.127361	-0.193547	-0.819660	-0.176535	-0.381836	0.091553	-0.269043	0.909408	-0.101651	-0.402960	-0.016333
51682		7.941661	-1.810385	6.093253	-0.109413	-0.950008	-0.115839	-0.373047	0.077881	-0.246338	0.905933	-0.102196	-0.410558	-0.016827
51683		8.083200	-1.465030	6.102291	-0.045879	-1.061180	-0.071590	-0.355225	0.081299	-0.237305	0.902068	-0.102423	-0.418934	-0.016674
51684		8.168978	-1.182677	6.183754	-0.014203	-1.141339	-0.062135	-0.343750	0.082275	-0.227295	0.897869	-0.102445	-0.427869	-0.016269
51685		8.396690	-1.122948	6.324529	0.008283	-1.185991	-0.096009	-0.330078	0.066895	-0.218750	0.893436	-0.102173	-0.437124	-0.015999
51686		8.753333	-1.218770	6.420435	0.037193	-1.201613	-0.141977	-0.315918	0.061768	-0.213623	0.888870	-0.101506	-0.446488	-0.015950
51687		8.911168	-1.546186	6.432263	0.112093	-1.198339	-0.218706	-0.323730	0.062256	-0.219727	0.884274	-0.099986	-0.455851	-0.016193
51688		8.914522	-1.551226	6.676532	0.168627	-1.193886	-0.295344	-0.300537	0.053711	-0.212891	0.879634	-0.097745	-0.465196	-0.016787
51689		8.891226	-1.294513	6.960684	0.094995	-1.182794	-0.325983	-0.291260	0.045654	-0.213623	0.874877	-0.095911	-0.474416	-0.017896
51690		8.903255	-1.177021	7.045726	-0.087690	-1.137647	-0.316216	-0.276855	0.053711	-0.221924	0.870065	-0.095429	-0.483211	-0.019690
51691		8.729367	-1.309733	6.881118	-0.233340	-1.067860	-0.320420	-0.273193	0.057617	-0.225098	0.865335	-0.095961	-0.491422	-0.022155
51692		8.525857	-1.376891	6.763840	-0.292438	-1.005971	-0.362841	-0.268066	0.050537	-0.230225	0.860730	-0.096722	-0.499152	-0.025216
51693		8.641055	-1.529634	6.629659	-0.292034	-0.945968	-0.416857	-0.262939	0.068115	-0.234375	0.856294	-0.097232	-0.506441	-0.028708
51694		8.824795	-1.679033	6.516990	-0.265292	-0.867173	-0.481458	-0.260742	0.066162	-0.246338	0.852134	-0.097251	-0.513172	-0.032609
51695		8.888551	-1.664489	6.248938	-0.268293	-0.780735	-0.513496	-0.258301	0.069580	-0.236328	0.848277	-0.097123	-0.519267	-0.036817
51696		8.795340	-1.625430	5.905089	-0.287858	-0.722174	-0.478634	-0.260742	0.075928	-0.253174	0.844619	-0.097259	-0.524868	-0.040906
51697		8.730412	-1.743669	5.466596	-0.252476	-0.709743	-0.423818	-0.262939	0.081055	-0.256592	0.841019	-0.097377	-0.530309	-0.044462
51698		8.780413	-1.705327	5.159601	-0.178238	-0.735414	-0.401665	-0.267822	0.083984	-0.257080	0.837334	-0.097078	-0.535902	-0.047509
51699		8.820755	-1.521864	4.951167	-0.118145	-0.776401	-0.399050	-0.260254	0.094971	-0.264893	0.833473	-0.096384	-0.541766	-0.050231
51700		8.834599	-1.463648	4.872347	-0.098813	-0.822840	-0.372317	-0.273438	0.100342	-0.262451	0.829384	-0.095693	-0.547900	-0.052640
51701		9.130872	-1.787876	4.760307	-0.049875	-0.860495	-0.330477	-0.269043	0.113770	-0.260254	0.825134	-0.094866	-0.554241	-0.054500
51702		9.444686	-1.917102	4.593177	0.050742	-0.868261	-0.300082	-0.279297	0.112549	-0.270264	0.820895	-0.093489	-0.560617	-0.055676
51703		9.516302	-1.648888	4.395077	0.114528	-0.834524	-0.255983	-0.291016	0.128174	-0.258545	0.816838	-0.091865	-0.566718	-0.056271
51704		9.481363	-1.437555	4.073005	0.125547	-0.792311	-0.202251	-0.301025	0.132812	-0.259521	0.812975	-0.090398	-0.572460	-0.056476
51705		9.490257	-1.389417	3.759915	0.126761	-0.765149	-0.163862	-0.303467	0.133057	-0.255615	0.809224	-0.089092	-0.577958	-0.056431
51706		9.443003	-1.241148	3.585995	0.146070	-0.766866	-0.147637	-0.316162	0.137207	-0.249756	0.805451	-0.087733	-0.583434	-0.056178
51707		9.383930	-0.954773	3.555437	0.123146	-0.788951	-0.135677	-0.331543	0.149658	-0.252686	0.801525	-0.086595	-0.589008	-0.055936
51708		9.411018	-0.733201	3.525341	0.050088	-0.817194	-0.131807	-0.352051	0.155273	-0.248291	0.797373	-0.085974	-0.594701	-0.056002
51709		9.368193	-0.565791	3.597485	-0.031133	-0.837735	-0.136910	-0.364014	0.155273	-0.232910	0.793020	-0.085872	-0.600462	-0.056487
51710		9.498778	-0.527294	3.597292	-0.099935	-0.844702	-0.140047	-0.375000	0.156006	-0.230713	0.788544	-0.086206	-0.606202	-0.057329
51711		9.602722	-0.583179	3.592565	-0.111319	-0.828411	-0.160071	-0.390137	0.160645	-0.226807	0.784094	-0.086501	-0.611807	-0.058370
51712		9.564446	-0.639034	3.656758	-0.084145	-0.808082	-0.215000	-0.411133	0.162842	-0.221191	0.779704	-0.086323	-0.617295	-0.059642
51713		9.402893	-0.513162	3.764631	-0.079405	-0.789060	-0.270249	-0.429199	0.159912	-0.211182	0.775354	-0.085816	-0.622663	-0.061260
51714		9.412754	-0.473300	3.859480	-0.129301	-0.749101	-0.300480	-0.446777	0.159912	-0.207031	0.771127	-0.085448	-0.627732	-0.063357
51715		9.323871	-0.636126	3.850948	-0.187845	-0.699188	-0.313994	-0.462891	0.167236	-0.205078	0.767084	-0.085354	-0.632421	-0.065880
51716		9.139488	-0.761602	3.826498	-0.209407	-0.657028	-0.314068	-0.468018	0.166992	-0.197998	0.763222	-0.085370	-0.636794	-0.068544
51717		9.099982	-0.846356	3.764464	-0.193078	-0.621696	-0.319343	-0.491455	0.168213	-0.195557	0.759533	-0.085231	-0.640920	-0.071177
51718		9.124439	-0.840033	3.787564	-0.178320	-0.572081	-0.324748	-0.502441	0.168213	-0.192871	0.756098	-0.084938	-0.644714	-0.073796
51719		9.135448	-0.747719	3.714960	-0.202238	-0.515383	-0.330134	-0.516113	0.174805	-0.183105	0.752931	-0.084730	-0.648110	-0.076615
51720		9.227783	-0.805264	3.494471	-0.238196	-0.456290	-0.318046	-0.523438	0.178955	-0.179443	0.750053	-0.084774	-0.651076	-0.079590
51721		9.194633	-0.831219	3.141625	-0.234637	-0.421315	-0.301337	-0.546631	0.172852	-0.167480	0.747367	-0.084862	-0.653790	-0.082463
51722		9.156224	-0.946835	2.909853	-0.182248	-0.404357	-0.282123	-0.550537	0.181885	-0.167236	0.744814	-0.084717	-0.656399	-0.084939
51723		9.204372	-0.994942	2.714194	-0.086638	-0.399166	-0.270012	-0.565674	0.180664	-0.156250	0.742358	-0.084042	-0.659017	-0.086817
51724		9.360709	-0.821725	2.613063	-0.021726	-0.408921	-0.225527	-0.573730	0.182129	-0.151123	0.739920	-0.083219	-0.661694	-0.088054
51725		9.519789	-0.725555	2.392505	0.005950	-0.400473	-0.176416	-0.584473	0.187500	-0.150146	0.737578	-0.082490	-0.664291	-0.088837
51726		9.618459	-0.585911	2.171873	0.008596	-0.385209	-0.168002	-0.596191	0.178467	-0.140869	0.735323	-0.081782	-0.666776	-0.089562
51727		9.674358	-0.350030	1.968825	-0.017022	-0.361484	-0.180582	-0.605469	0.187256	-0.132080	0.733169	-0.081143	-0.669093	-0.090521
51728		9.470464	-0.238467	1.881537	-0.054562	-0.363365	-0.199170	-0.603516	0.182373	-0.127686	0.730959	-0.080632	-0.671394	-0.091799
51729		9.078535	-0.281113	1.879774	-0.078426	-0.402355	-0.217963	-0.614990	0.187012	-0.127686	0.728494	-0.080190	-0.673916	-0.093297
51730		9.147491	-0.402919	1.871246	-0.075503	-0.436312	-0.230263	-0.616455	0.190186	-0.116455	0.725822	-0.079687	-0.676639	-0.094829
51731		9.255107	-0.484920	1.962769	-0.067174	-0.420379	-0.239551	-0.630127	0.188232	-0.107666	0.723229	-0.079069	-0.679264	-0.096378
51732		9.196962	-0.446348	2.122196	-0.090723	-0.379069	-0.227358	-0.631592	0.182617	-0.102539	0.720858	-0.078629	-0.681598	-0.098011
51733		8.953696	-0.342973	2.294950	-0.139783	-0.350111	-0.188716	-0.640625	0.187012	-0.093994	0.718646	-0.078681	-0.683678	-0.099707
51734		9.031642	-0.384947	2.313257	-0.175320	-0.323462	-0.143566	-0.645508	0.185791	-0.081299	0.716597	-0.079181	-0.685527	-0.101350
51735		9.228586	-0.665950	2.179073	-0.145943	-0.263261	-0.129587	-0.641113	0.183350	-0.090576	0.714924	-0.079535	-0.687019	-0.102779
51736		9.560205	-0.569851	1.999810	-0.075687	-0.174608	-0.132190	-0.656738	0.183350	-0.080322	0.713803	-0.079382	-0.688035	-0.103878
51737		9.728026	-0.193634	1.717973	-0.069085	-0.077624	-0.089465	-0.650635	0.192627	-0.077393	0.713284	-0.079353	-0.688446	-0.104747
51738		9.454597	-0.005884	1.419317	-0.086803	-0.035957	-0.039946	-0.654297	0.190918	-0.076660	0.713037	-0.079678	-0.688556	-0.105450
51739		9.279251	-0.066858	1.111846	-0.048656	-0.038397	-0.044772	-0.658447	0.188232	-0.079590	0.712801	-0.079751	-0.688714	-0.105960
51740		9.470766	0.002697	0.964816	-0.005117	-0.056834	-0.082736	-0.656494	0.176025	-0.075195	0.712455	-0.079365	-0.689044	-0.106433
51741		9.579433	0.111106	0.894420	-0.029113	-0.060903	-0.098627	-0.658936	0.189453	-0.071533	0.712057	-0.079034	-0.689385	-0.107135
51742		9.217649	0.241897	1.037410	-0.100104	-0.091858	-0.075370	-0.655518	0.188721	-0.065430	0.711454	-0.079286	-0.689829	-0.108086
51743		9.090095	0.198897	1.229679	-0.168039	-0.157120	-0.017590	-0.662109	0.190674	-0.069824	0.710483	-0.080331	-0.690558	-0.109041
51744		9.256922	0.032510	1.407876	-0.156127	-0.198121	0.019053	-0.660400	0.195801	-0.063721	0.709317	-0.081554	-0.691511	-0.109683
51745		9.067446	0.142141	1.833918	-0.108262	-0.206504	0.028624	-0.664307	0.192383	-0.058594	0.708144	-0.082556	-0.692546	-0.109985
51746		8.348896	0.188293	2.542451	-0.099177	-0.204798	0.034889	-0.660156	0.188477	-0.067139	0.706994	-0.083539	-0.693568	-0.110199
51747		8.280717	-0.185427	3.106454	-0.087119	-0.195629	0.043870	-0.673340	0.187988	-0.057373	0.705919	-0.084494	-0.694532	-0.110296
51748		9.097534	-0.481809	3.266136	-0.030872	-0.099546	0.053850	-0.664062	0.189453	-0.049072	0.705456	-0.085086	-0.694964	-0.110075
51749		9.495844	-0.301050	3.186002	0.003024	0.071799	0.099355	-0.670166	0.189697	-0.051025	0.706060	-0.085586	-0.694378	-0.109511
51750		8.889548	-0.065183	3.053766	0.013821	0.197170	0.141024	-0.666992	0.189453	-0.055420	0.707442	-0.086149	-0.693024	-0.108728
51751		8.399404	0.011371	2.870539	0.038797	0.228623	0.114906	-0.671875	0.201172	-0.065186	0.709005	-0.086384	-0.691513	-0.107976
51752		8.650007	0.032038	2.830222	0.037542	0.240510	0.058302	-0.664551	0.197998	-0.067871	0.710589	-0.086288	-0.689961	-0.107574
51753		8.850643	-0.306731	2.825814	0.016286	0.273417	0.016491	-0.664551	0.200195	-0.068115	0.712312	-0.086047	-0.688213	-0.107566
51754		8.726331	-0.556924	2.951215	0.013522	0.303907	0.019860	-0.662354	0.193848	-0.070312	0.714213	-0.085814	-0.686268	-0.107574
51755		8.489377	-0.735900	3.115462	0.032938	0.302413	0.063751	-0.651611	0.192383	-0.080811	0.716160	-0.085718	-0.684305	-0.107206
51756		8.459804	-0.851603	3.315656	0.055167	0.294149	0.145362	-0.654053	0.199463	-0.089600	0.718151	-0.085962	-0.682340	-0.106217
51757		8.633773	-1.128994	3.459482	0.110299	0.315064	0.213421	-0.649414	0.198730	-0.089844	0.720362	-0.086246	-0.680233	-0.104519
51758		9.065367	-1.105799	3.456495	0.188708	0.378229	0.254052	-0.650635	0.207520	-0.108398	0.723019	-0.086234	-0.677767	-0.102173
51759		9.168385	-0.839287	3.414582	0.219352	0.467977	0.306183	-0.636475	0.199463	-0.102295	0.726242	-0.086255	-0.674724	-0.099400
51760		8.936323	-0.692340	3.311518	0.225493	0.523059	0.328923	-0.627686	0.197021	-0.120361	0.729783	-0.086318	-0.671309	-0.096491
51761		8.947480	-0.605075	3.177631	0.221105	0.552517	0.326983	-0.610107	0.203369	-0.135010	0.733466	-0.086370	-0.667683	-0.093634
51762		9.237493	-0.722000	3.059012	0.216945	0.586493	0.304780	-0.606689	0.192383	-0.141357	0.737298	-0.086293	-0.663831	-0.090957
51763		9.212462	-0.720056	2.966127	0.210949	0.637476	0.282635	-0.602051	0.192627	-0.149902	0.741368	-0.086088	-0.659647	-0.088482
51764		8.849602	-0.711252	3.102479	0.174997	0.637265	0.290185	-0.581543	0.193115	-0.164551	0.745390	-0.086143	-0.655401	-0.086153
51765		9.151418	-0.909639	3.178670	0.161798	0.634425	0.318122	-0.571045	0.193848	-0.174316	0.749383	-0.086431	-0.651111	-0.083717
51766		9.648573	-1.160186	3.084726	0.186269	0.683930	0.345057	-0.548584	0.189453	-0.185791	0.753652	-0.086673	-0.646477	-0.081010
51767		9.545042	-1.127716	3.157600	0.234235	0.757394	0.345911	-0.538818	0.188721	-0.190674	0.758317	-0.086566	-0.641376	-0.078087
51768		9.015321	-1.047002	3.352698	0.240442	0.782899	0.351938	-0.522705	0.176514	-0.211426	0.763086	-0.086429	-0.636073	-0.075106
51769		8.966760	-0.936425	3.605734	0.189810	0.774966	0.368821	-0.502197	0.185059	-0.211914	0.767745	-0.086704	-0.630734	-0.072274
51770		9.541084	-0.964817	3.700487	0.117919	0.814295	0.402406	-0.482666	0.170898	-0.224121	0.772537	-0.087586	-0.625034	-0.069628
51771		9.826060	-0.917630	3.654623	0.076140	0.890423	0.413246	-0.460693	0.180176	-0.229736	0.777652	-0.088742	-0.618765	-0.067180
51772		9.871224	-0.578884	3.654744	0.043382	0.954206	0.415777	-0.454834	0.167236	-0.235596	0.783015	-0.090081	-0.612011	-0.064926
51773		9.533986	-0.503382	3.654022	0.001662	0.977033	0.387134	-0.427246	0.156250	-0.249756	0.788385	-0.091524	-0.605056	-0.063083
51774		9.713966	-0.417821	3.728108	-0.039211	0.978114	0.316108	-0.407471	0.159668	-0.257812	0.793630	-0.092867	-0.598076	-0.061908
51775		10.162671	-0.423051	3.667400	-0.110564	1.014936	0.260665	-0.384766	0.152832	-0.250977	0.798910	-0.094379	-0.590809	-0.061480
51776		10.167446	-0.533929	3.527162	-0.156242	1.054869	0.240824	-0.374023	0.156250	-0.258301	0.804273	-0.096066	-0.583218	-0.061435
51777		10.146184	-0.636328	3.323437	-0.141384	1.045656	0.244263	-0.347656	0.154297	-0.262207	0.809531	-0.097667	-0.575643	-0.061283
51778		10.362255	-0.685694	3.154650	-0.086749	1.017721	0.243341	-0.339355	0.149414	-0.268066	0.814629	-0.098899	-0.568240	-0.060846
51779		10.447622	-0.677526	2.970642	-0.038069	1.001381	0.208110	-0.322754	0.154541	-0.275391	0.819603	-0.099634	-0.560960	-0.060401
51780		10.230539	-0.568041	2.929240	-0.046970	0.965665	0.181257	-0.294434	0.139893	-0.273193	0.824323	-0.100315	-0.553905	-0.060148
51781		10.005099	-0.709675	2.899222	-0.079893	0.887765	0.195540	-0.298828	0.144531	-0.286377	0.828603	-0.101319	-0.547327	-0.059880
51782		9.988860	-0.865570	3.001267	-0.074972	0.794345	0.234974	-0.285645	0.132568	-0.280762	0.832428	-0.102509	-0.541338	-0.059236
51783		10.099437	-1.055001	3.098625	-0.014518	0.722319	0.280661	-0.277100	0.135742	-0.288086	0.835957	-0.103516	-0.535820	-0.057938
51784		9.920837	-1.014672	3.264007	0.073973	0.677620	0.317726	-0.264648	0.122803	-0.293701	0.839340	-0.104089	-0.530607	-0.055947
51785		9.717595	-0.960315	3.442059	0.150551	0.632979	0.345588	-0.259277	0.114258	-0.285889	0.842565	-0.104265	-0.525703	-0.053381
51786		9.723511	-0.886686	3.497912	0.211649	0.606454	0.367799	-0.259521	0.108398	-0.290283	0.845698	-0.104115	-0.520978	-0.050368
51787		9.616225	-0.768596	3.507567	0.265469	0.581405	0.385174	-0.248779	0.102783	-0.277832	0.848738	-0.103665	-0.516422	-0.046976
51788		9.375387	-0.553458	3.597196	0.278438	0.552813	0.384562	-0.240723	0.097900	-0.286133	0.851626	-0.103125	-0.512059	-0.043508
51789		9.012349	-0.494305	3.851249	0.261439	0.499998	0.359541	-0.236572	0.098145	-0.281250	0.854231	-0.102611	-0.508075	-0.040246
51790		8.702991	-0.546961	4.194026	0.229486	0.434863	0.325619	-0.235107	0.080811	-0.292969	0.856493	-0.102195	-0.504563	-0.037306
51791		8.794897	-0.788833	4.441232	0.215376	0.384027	0.308563	-0.229492	0.091064	-0.287109	0.858502	-0.101818	-0.501415	-0.034505
51792		9.272833	-0.986684	4.496528	0.233417	0.398213	0.294283	-0.231689	0.079590	-0.274902	0.860559	-0.101243	-0.498176	-0.031743
51793		9.451253	-1.037495	4.434933	0.258881	0.455985	0.256773	-0.232178	0.076172	-0.276367	0.862845	-0.100309	-0.494554	-0.029195
51794		9.217136	-0.886236	4.404897	0.239550	0.499631	0.212769	-0.229248	0.066162	-0.274902	0.865259	-0.099317	-0.490642	-0.027080
51795		8.723056	-0.862138	4.379162	0.184589	0.475283	0.169404	-0.230713	0.067139	-0.274170	0.867494	-0.098546	-0.486923	-0.025484
51796		8.563518	-1.028351	4.435216	0.120108	0.419361	0.136517	-0.231445	0.066895	-0.265137	0.869423	-0.098115	-0.483617	-0.024342
51797		8.705519	-1.266489	4.477654	0.082308	0.384551	0.102206	-0.222656	0.059326	-0.269287	0.871159	-0.097824	-0.480580	-0.023573
51798		8.754510	-1.364833	4.627180	0.045425	0.388089	0.082154	-0.229736	0.052002	-0.261230	0.872861	-0.097718	-0.477526	-0.023101
51799		8.822623	-1.313849	4.806128	-0.023255	0.385240	0.075255	-0.237061	0.049805	-0.263428	0.874482	-0.098084	-0.474483	-0.022950
51800		8.706883	-1.267690	4.783627	-0.106046	0.376180	0.069953	-0.221436	0.058350	-0.260742	0.875985	-0.099033	-0.471494	-0.023158
51801		8.447762	-1.384709	4.683170	-0.144241	0.353356	0.042457	-0.228516	0.060547	-0.253418	0.877349	-0.100155	-0.468685	-0.023698
51802		8.163747	-1.692706	4.674145	-0.112003	0.316048	-0.017722	-0.230957	0.060303	-0.242676	0.878572	-0.100814	-0.466205	-0.024521
51803		7.971078	-1.967849	4.845420	-0.053516	0.276436	-0.063746	-0.231689	0.060791	-0.238770	0.879671	-0.100875	-0.464066	-0.025419
51804		7.928366	-2.304626	4.991722	0.004179	0.243875	-0.069559	-0.240479	0.061768	-0.244873	0.880685	-0.100498	-0.462182	-0.026109
51805		7.858725	-2.303417	5.129288	0.042481	0.222639	-0.019701	-0.244629	0.048828	-0.244141	0.881655	-0.100041	-0.460421	-0.026267
51806		7.671852	-2.373863	5.276071	0.042491	0.193963	0.094141	-0.244141	0.049072	-0.245117	0.882534	-0.100029	-0.458775	-0.025562
51807		7.820936	-2.400361	5.258033	0.057434	0.174241	0.199205	-0.250732	0.060547	-0.237793	0.883368	-0.100315	-0.457188	-0.024010
51808		8.140407	-2.157922	5.175802	0.075012	0.193614	0.262519	-0.248535	0.051514	-0.239258	0.884296	-0.100712	-0.455408	-0.021939
51809		8.373824	-1.701447	5.002472	0.059807	0.227177	0.291263	-0.259033	0.054443	-0.239990	0.885334	-0.101324	-0.453352	-0.019740
51810		8.276525	-1.431898	4.739551	0.028992	0.231301	0.291544	-0.248779	0.052246	-0.237793	0.886350	-0.102163	-0.451259	-0.017660
51811		8.146718	-1.277777	4.628623	0.022778	0.185553	0.250842	-0.259277	0.054932	-0.244141	0.887172	-0.102900	-0.449539	-0.015864
51812		8.256358	-1.137736	4.701615	0.014052	0.131276	0.204622	-0.260498	0.044678	-0.234863	0.887770	-0.103534	-0.448262	-0.014398
51813		8.587191	-1.036552	4.772460	-0.018679	0.111398	0.184808	-0.264648	0.053711	-0.236572	0.888256	-0.104337	-0.447148	-0.013184
51814		8.775388	-1.148914	4.670307	-0.028271	0.115866	0.188202	-0.272705	0.051758	-0.238770	0.888745	-0.105220	-0.446001	-0.011986
51815		8.554505	-0.956415	4.553048	0.008706	0.113244	0.182191	-0.265381	0.058105	-0.231689	0.889250	-0.105805	-0.444888	-0.010694
51816		8.363091	-0.591242	4.645452	0.014673	0.063878	0.185530	-0.271240	0.059082	-0.232910	0.889571	-0.106360	-0.444144	-0.009313
51817		8.501339	-0.467575	4.678335	-0.019842	0.006356	0.193192	-0.266846	0.060791	-0.228516	0.889645	-0.107200	-0.443821	-0.007955
51818		8.560746	-0.629657	4.640048	-0.013828	-0.024008	0.149486	-0.277832	0.063232	-0.239014	0.889604	-0.107831	-0.443769	-0.006874
51819		8.417467	-0.699040	4.663090	0.038394	-0.049557	0.059650	-0.267822	0.062256	-0.229004	0.889506	-0.107741	-0.443995	-0.006246
51820		8.174596	-0.780181	4.847724	0.075920	-0.081970	-0.006108	-0.271973	0.058105	-0.232910	0.889316	-0.107128	-0.444529	-0.005940
51821		8.144356	-0.968793	5.053190	0.089529	-0.113669	-0.029764	-0.273193	0.056885	-0.230225	0.889016	-0.106324	-0.445324	-0.005733
51822		8.261892	-1.070938	5.224317	0.079149	-0.123887	-0.025118	-0.270020	0.059570	-0.235596	0.888666	-0.105613	-0.446193	-0.005522
51823		8.157511	-1.085642	5.399957	0.038602	-0.118235	-0.023439	-0.267090	0.059814	-0.234375	0.888299	-0.105206	-0.447019	-0.005457
51824		7.929706	-1.091319	5.558298	-0.020696	-0.123039	-0.029112	-0.263428	0.048340	-0.220215	0.887860	-0.105215	-0.447886	-0.005652
51825		7.781171	-1.137002	5.792818	-0.074397	-0.139410	-0.046075	-0.273926	0.054932	-0.238037	0.887311	-0.105557	-0.448887	-0.006160
51826		7.786775	-1.348695	6.005502	-0.095579	-0.150773	-0.067994	-0.267090	0.060791	-0.232178	0.886697	-0.105971	-0.449990	-0.006900
51827		7.749830	-1.611156	6.117956	-0.071039	-0.131679	-0.115076	-0.269043	0.048584	-0.226074	0.886172	-0.106025	-0.450993	-0.007914
51828		7.555127	-1.761995	6.241555	-0.037291	-0.098740	-0.159977	-0.270264	0.052734	-0.230713	0.885797	-0.105659	-0.451792	-0.009162
51829		7.346117	-1.948756	6.400944	-0.014640	-0.067872	-0.170101	-0.269043	0.057129	-0.229248	0.885556	-0.105085	-0.452371	-0.010427
51830		7.265560	-2.050824	6.524094	-0.007245	-0.040873	-0.141689	-0.266602	0.053955	-0.224365	0.885425	-0.104561	-0.452722	-0.011477
51831		7.285985	-2.107740	6.566920	-0.023305	-0.014536	-0.079535	-0.268066	0.052734	-0.219971	0.885387	-0.104389	-0.452820	-0.012151
51832		7.295329	-2.152875	6.524794	-0.036019	0.014518	-0.026036	-0.265381	0.053467	-0.229736	0.885454	-0.104511	-0.452651	-0.012503
51833		7.232768	-2.044388	6.468776	-0.040321	0.039751	0.001015	-0.269287	0.056152	-0.217529	0.885617	-0.104766	-0.452268	-0.012692
51834		7.110275	-2.026855	6.410255	-0.032508	0.048148	0.001148	-0.268311	0.054932	-0.218262	0.885819	-0.104963	-0.451820	-0.012858
51835		7.099109	-2.027616	6.427571	-0.024780	0.041458	-0.019333	-0.265625	0.050049	-0.223633	0.886003	-0.105028	-0.451437	-0.013138
51836		7.285165	-2.037795	6.448382	-0.031746	0.050258	-0.038114	-0.263672	0.043457	-0.218750	0.886213	-0.105074	-0.451001	-0.013590
51837		7.220981	-2.092369	6.511622	-0.066021	0.074615	-0.038910	-0.266357	0.050781	-0.219238	0.886485	-0.105368	-0.450378	-0.014198
51838		7.176246	-2.230002	6.511641	-0.085716	0.088200	-0.032998	-0.265625	0.050537	-0.221924	0.886792	-0.105830	-0.449644	-0.014846
51839		7.167066	-2.251376	6.521063	-0.088485	0.100046	-0.011550	-0.273926	0.049316	-0.222656	0.887144	-0.106392	-0.448798	-0.015356
51840		7.122320	-2.258667	6.562305	-0.082055	0.106918	0.021724	-0.272949	0.058594	-0.215576	0.887532	-0.107032	-0.447870	-0.015600
51841		7.114003	-2.222216	6.620626	-0.064495	0.111143	0.050522	-0.279541	0.054199	-0.219727	0.887956	-0.107650	-0.446882	-0.015568
51842		7.189055	-2.145547	6.639170	-0.045945	0.124569	0.071831	-0.269287	0.055176	-0.222168	0.888449	-0.108210	-0.445774	-0.015320
51843		7.217301	-2.145982	6.627928	-0.019625	0.149275	0.087902	-0.277832	0.060059	-0.217529	0.889059	-0.108633	-0.444468	-0.014876
51844		7.110432	-2.070213	6.643138	0.006386	0.168915	0.089468	-0.274170	0.060547	-0.219727	0.889765	-0.108866	-0.443013	-0.014341
51845		7.087093	-2.003965	6.689298	0.014575	0.168765	0.094188	-0.289307	0.060547	-0.207275	0.890477	-0.109057	-0.441552	-0.013740
51846		7.168291	-1.938733	6.725931	0.003867	0.177614	0.099107	-0.294189	0.051270	-0.214355	0.891211	-0.109344	-0.440016	-0.013150
51847		7.190867	-1.952808	6.723555	-0.016099	0.197733	0.089785	-0.286865	0.056152	-0.217773	0.891998	-0.109742	-0.438331	-0.012719
51848		7.111058	-1.976855	6.786105	-0.035540	0.217591	0.075891	-0.294189	0.062744	-0.214111	0.892836	-0.110232	-0.436505	-0.012480
51849		7.064558	-2.080459	6.792489	-0.050124	0.232430	0.072131	-0.294678	0.059326	-0.219482	0.893711	-0.110815	-0.434566	-0.012336
51850		7.060715	-2.093685	6.832739	-0.047025	0.239864	0.080618	-0.297363	0.064209	-0.215088	0.894614	-0.111405	-0.432559	-0.012123
51851		6.963701	-2.123895	6.858567	-0.039013	0.257184	0.100662	-0.305908	0.064453	-0.223633	0.895585	-0.112006	-0.430400	-0.011747
51852		6.844366	-2.037810	7.031538	-0.029088	0.257610	0.101236	-0.310059	0.062988	-0.223877	0.896563	-0.112534	-0.428232	-0.011330
51853		6.934323	-1.911891	7.186090	-0.056274	0.268762	0.104911	-0.320312	0.058838	-0.220703	0.897551	-0.113276	-0.425969	-0.010993
51854		6.983781	-2.037776	7.191418	-0.077635	0.292089	0.101487	-0.321777	0.075439	-0.219727	0.898597	-0.114163	-0.423526	-0.010779
51855		6.893417	-2.207366	7.175528	-0.054835	0.325130	0.086017	-0.320068	0.071045	-0.224121	0.899773	-0.114821	-0.420846	-0.010631
51856		6.827316	-2.275253	7.255163	-0.011039	0.341696	0.073043	-0.327393	0.069580	-0.219238	0.901041	-0.115102	-0.418051	-0.010442
51857		6.791412	-2.310571	7.337334	0.006806	0.357989	0.088659	-0.338623	0.077393	-0.229004	0.902377	-0.115302	-0.415113	-0.010088
51858		6.829808	-2.318850	7.432252	-0.003476	0.379709	0.115750	-0.341553	0.080566	-0.226807	0.903772	-0.115671	-0.411977	-0.009586
51859		6.787544	-2.309071	7.428863	-0.015423	0.403113	0.134201	-0.348877	0.082031	-0.229736	0.905227	-0.116190	-0.408636	-0.009007
51860		6.615870	-2.290769	7.519184	-0.018658	0.411004	0.141000	-0.352051	0.083740	-0.236816	0.906694	-0.116754	-0.405221	-0.008395
51861		6.553108	-2.326874	7.683305	-0.012426	0.403396	0.133710	-0.357422	0.089355	-0.238770	0.908130	-0.117246	-0.401862	-0.007809
51862		6.641062	-2.412248	7.828626	-0.011730	0.412016	0.136219	-0.369385	0.101562	-0.250488	0.909584	-0.117740	-0.398426	-0.007209
51863		6.511259	-2.563829	7.984905	0.005826	0.433712	0.145837	-0.378906	0.100342	-0.256348	0.911115	-0.118129	-0.394807	-0.006498
51864		6.338313	-2.633592	8.196951	0.040258	0.440410	0.166719	-0.388428	0.110352	-0.262939	0.912690	-0.118324	-0.391109	-0.005521
51865		6.286830	-2.658018	8.455426	0.065283	0.455019	0.200762	-0.394287	0.118164	-0.281494	0.914324	-0.118437	-0.387255	-0.004216
51866		6.366012	-2.606665	8.642512	0.079361	0.479194	0.235149	-0.404297	0.106689	-0.273682	0.916034	-0.118552	-0.383170	-0.002627
51867		6.447531	-2.534325	8.768442	0.083011	0.526891	0.255660	-0.401123	0.127197	-0.288574	0.917881	-0.118700	-0.378687	-0.000916
51868		6.318506	-2.474491	8.831167	0.078427	0.579328	0.261739	-0.406250	0.128906	-0.299072	0.919864	-0.118898	-0.373782	0.000776
51869		6.176324	-2.459149	8.880798	0.086012	0.625418	0.259758	-0.409424	0.139893	-0.312744	0.921970	-0.119027	-0.368508	0.002431
51870		6.206009	-2.348185	8.962368	0.083641	0.675885	0.261761	-0.413818	0.148926	-0.326172	0.924195	-0.119177	-0.362827	0.004045
51871		6.414767	-2.266664	8.901530	0.062182	0.740542	0.272933	-0.416992	0.149170	-0.350830	0.926557	-0.119522	-0.356617	0.005616
51872		6.502844	-2.293475	8.760826	0.056198	0.807582	0.273345	-0.409424	0.168457	-0.365479	0.929066	-0.119910	-0.349869	0.007106
51873		6.365559	-2.229669	8.626441	0.075281	0.848117	0.271612	-0.418457	0.168701	-0.378662	0.931660	-0.120139	-0.342786	0.008596
51874		6.338584	-2.154177	8.523875	0.096924	0.855632	0.266668	-0.417480	0.176025	-0.401855	0.934243	-0.120179	-0.335626	0.010102
51875		6.470289	-2.090465	8.422944	0.110590	0.871475	0.254305	-0.403320	0.177734	-0.418701	0.936828	-0.120070	-0.328334	0.011533
51876		6.533772	-1.980871	8.278096	0.097394	0.887981	0.240242	-0.396973	0.186035	-0.445557	0.939388	-0.120018	-0.320908	0.012801
51877		6.349090	-2.011181	8.130580	0.081872	0.874886	0.240946	-0.387451	0.190674	-0.462891	0.941838	-0.120078	-0.313567	0.014044
51878		6.240285	-2.204616	8.030673	0.117861	0.835161	0.235543	-0.381592	0.198486	-0.478027	0.944165	-0.119829	-0.306524	0.015377
51879		6.178183	-2.170725	8.125775	0.178833	0.799066	0.241527	-0.374512	0.207764	-0.512207	0.946407	-0.119103	-0.299736	0.016947
51880		6.192577	-2.212900	8.225866	0.226293	0.770428	0.264420	-0.363281	0.217285	-0.530029	0.948569	-0.118049	-0.293132	0.018843
51881		6.163232	-2.193452	8.249271	0.278137	0.753283	0.284526	-0.345947	0.208740	-0.541016	0.950686	-0.116623	-0.286623	0.021040
51882		6.020265	-2.191727	8.181356	0.345234	0.740455	0.295671	-0.332275	0.212158	-0.561523	0.952782	-0.114683	-0.280181	0.023495
51883		5.886221	-1.967342	8.193253	0.395924	0.730676	0.302889	-0.311035	0.217041	-0.573730	0.954848	-0.112347	-0.273788	0.026133
51884		5.632938	-1.845399	8.291520	0.406178	0.709761	0.315792	-0.310059	0.218018	-0.588623	0.956818	-0.109947	-0.267535	0.028914
51885		5.495927	-1.869344	8.395258	0.413770	0.694419	0.303042	-0.297363	0.214111	-0.606934	0.958710	-0.107445	-0.261403	0.031621
51886		5.565941	-1.965481	8.508880	0.416728	0.709772	0.280435	-0.281494	0.212891	-0.620361	0.960590	-0.104867	-0.255157	0.034137
51887		5.669493	-2.138141	8.518144	0.418671	0.760348	0.223783	-0.265381	0.207275	-0.633545	0.962539	-0.102160	-0.248544	0.036156
51888		5.627463	-1.665972	8.506484	0.322860	0.825344	0.180869	-0.234863	0.208496	-0.654053	0.964497	-0.100146	-0.241464	0.037574
51889		5.302205	-1.744556	8.281538	0.165660	0.855913	0.190759	-0.221191	0.206055	-0.655518	0.966323	-0.099417	-0.234171	0.038726
51890		5.248853	-1.977377	8.024301	0.125833	0.844782	0.174561	-0.205811	0.205566	-0.663086	0.968044	-0.098966	-0.226985	0.039677
51891		5.053036	-1.897971	7.995366	0.140291	0.828426	0.147523	-0.176514	0.204834	-0.674072	0.969701	-0.098338	-0.219941	0.040448
51892		4.904978	-1.963131	8.147680	0.139942	0.785759	0.119660	-0.170166	0.202881	-0.678223	0.971238	-0.097641	-0.213259	0.041026
51893		4.966584	-1.865691	8.235996	0.105583	0.766624	0.118576	-0.148438	0.205322	-0.696533	0.972668	-0.097210	-0.206740	0.041548
51894		4.918665	-1.945132	8.239652	0.080056	0.764847	0.168991	-0.128174	0.204346	-0.700439	0.974011	-0.097067	-0.200199	0.042433
51895		4.699254	-1.908403	8.184192	0.144820	0.755666	0.199898	-0.100098	0.200928	-0.697266	0.975335	-0.096442	-0.193682	0.043683
51896		4.683929	-1.422136	8.258309	0.170235	0.743922	0.189296	-0.092773	0.201172	-0.710449	0.976618	-0.095585	-0.187256	0.044895
51897		4.539614	-1.082908	8.275172	0.088304	0.744114	0.143150	-0.067871	0.191406	-0.711670	0.977810	-0.095317	-0.180893	0.045600
51898		4.424944	-0.867148	8.269521	-0.035747	0.744472	0.082896	-0.052246	0.198975	-0.719971	0.978886	-0.095963	-0.174620	0.045625
51899		4.244097	-1.090042	8.093390	-0.112861	0.736110	0.044354	-0.031738	0.195312	-0.707520	0.979862	-0.097171	-0.168474	0.045227
51900		4.043901	-1.419070	7.978135	-0.066454	0.711209	0.022184	-0.022461	0.198486	-0.704346	0.980810	-0.097954	-0.162531	0.044731
51901		3.735780	-1.929805	8.025915	0.060546	0.670653	-0.037533	-0.007080	0.194336	-0.710449	0.981794	-0.097599	-0.156920	0.043950
51902		4.076090	-1.677837	8.183237	0.112273	0.656810	-0.095318	0.010010	0.200195	-0.714111	0.982790	-0.096737	-0.151450	0.042774
51903		3.758613	-1.670004	8.004375	0.026087	0.656161	-0.023784	0.019043	0.201904	-0.718750	0.983657	-0.096668	-0.145958	0.042074
51904		3.240871	-2.247585	7.642693	0.067166	0.608726	0.021784	0.032227	0.192627	-0.713867	0.984454	-0.096298	-0.140806	0.041834
51905		3.380195	-2.201046	7.582509	0.176448	0.559033	0.011552	0.046387	0.191895	-0.713379	0.985258	-0.095002	-0.136031	0.041678
51906		3.529965	-1.885291	7.589084	0.155983	0.557182	-0.017233	0.055664	0.197266	-0.717285	0.986028	-0.093841	-0.131304	0.041262
51907		3.733738	-1.676856	7.388034	-0.010739	0.580049	-0.016621	0.070557	0.191895	-0.708740	0.986667	-0.094057	-0.126447	0.040650
51908		3.129509	-1.808050	6.981535	-0.114604	0.537791	-0.001178	0.081299	0.195068	-0.717773	0.987152	-0.095127	-0.121965	0.040088
51909		2.942824	-2.044460	6.756539	-0.081870	0.413015	0.064134	0.087402	0.187500	-0.715576	0.987496	-0.095952	-0.118449	0.040195
51910		3.439235	-2.469577	6.648846	0.115518	0.332262	0.056873	0.102783	0.187012	-0.703125	0.987908	-0.095120	-0.115541	0.040501
51911		3.854495	-1.823732	6.624470	0.192544	0.330781	0.017212	0.104736	0.182129	-0.706787	0.988382	-0.093617	-0.112657	0.040555
51912		3.506810	-1.048182	6.338812	0.047698	0.332093	0.032127	0.111572	0.181641	-0.714355	0.988729	-0.093322	-0.109806	0.040595
51913		2.787856	-0.985226	6.215873	-0.127528	0.198333	0.072099	0.113770	0.196289	-0.719238	0.988797	-0.094461	-0.108092	0.040906
51914		2.996035	-1.385832	6.359844	-0.139409	0.036813	0.014861	0.116211	0.186768	-0.709961	0.988727	-0.095590	-0.107762	0.040862
51915		3.395233	-1.663750	6.707247	-0.067158	-0.039933	-0.082683	0.115479	0.196045	-0.710449	0.988676	-0.096010	-0.108124	0.040139
51916		3.539348	-1.957127	6.786123	-0.007654	-0.022335	-0.136510	0.115234	0.187988	-0.712158	0.988705	-0.095898	-0.108370	0.039012
51917		3.169474	-1.420556	6.874813	-0.036790	-0.027258	-0.063091	0.115234	0.198730	-0.706299	0.988681	-0.096092	-0.108614	0.038467
51918		3.057689	-1.466590	6.811203	-0.089033	-0.117615	0.065614	0.107910	0.194824	-0.708740	0.988490	-0.096804	-0.109522	0.039007
51919		3.207550	-1.681999	6.852671	-0.010634	-0.213419	0.059499	0.105713	0.187012	-0.702148	0.988274	-0.096833	-0.111203	0.039645
51920		3.436907	-2.021341	6.875717	0.105899	-0.241666	-0.073837	0.102051	0.193359	-0.715576	0.988165	-0.095770	-0.113191	0.039314
51921		3.410487	-1.657617	6.860632	0.111598	-0.231441	-0.156519	0.101318	0.190186	-0.709961	0.988091	-0.094586	-0.115164	0.038300
51922		2.959201	-1.764013	6.702806	-0.017849	-0.291527	-0.059814	0.087646	0.193848	-0.713379	0.987819	-0.094543	-0.117602	0.038004
51923		3.171327	-1.985601	6.683389	-0.025714	-0.400897	0.027362	0.079346	0.191895	-0.719971	0.987398	-0.094615	-0.120878	0.038503
51924		3.971757	-1.644745	6.667310	-0.006677	-0.462866	0.073180	0.066895	0.193848	-0.712158	0.986900	-0.094557	-0.124624	0.039447
51925		3.954665	-1.569233	6.522662	0.036704	-0.492710	0.059422	0.066650	0.191406	-0.718262	0.986393	-0.094118	-0.128618	0.040344
51926		3.815748	-1.385440	6.473854	0.102329	-0.556597	-0.014681	0.048340	0.187500	-0.716797	0.985874	-0.093037	-0.133177	0.040752
51927		3.841567	-0.919071	6.638821	0.064861	-0.633688	-0.056052	0.037842	0.188477	-0.722656	0.985228	-0.092189	-0.138417	0.040836
51928		4.047030	-0.899160	6.957620	-0.048781	-0.724609	-0.067329	0.019043	0.192871	-0.723633	0.984361	-0.092226	-0.144452	0.040764
51929		4.562747	-1.054442	7.070618	-0.150374	-0.771312	-0.063235	-0.006348	0.196533	-0.715088	0.983318	-0.093080	-0.150901	0.040636
51930		4.563316	-1.674527	7.027299	-0.101495	-0.793042	-0.096571	-0.013916	0.197754	-0.714355	0.982252	-0.093479	-0.157538	0.040310
51931		4.525115	-1.663507	7.145708	0.040207	-0.836576	-0.129593	-0.034424	0.196045	-0.715088	0.981202	-0.092655	-0.164508	0.039931
51932		4.920685	-1.635935	7.266010	0.117617	-0.887165	-0.112099	-0.048340	0.194824	-0.716309	0.980083	-0.091202	-0.171850	0.039837
51933		5.046720	-1.295078	7.355850	0.104044	-0.918595	-0.069886	-0.068604	0.190430	-0.717773	0.978836	-0.089903	-0.179417	0.040089
51934		5.014693	-1.261329	7.425614	0.046036	-0.982774	-0.036209	-0.101074	0.179932	-0.709961	0.977374	-0.089101	-0.187496	0.040574
51935		5.093622	-1.324916	7.407979	0.034140	-1.063746	-0.032262	-0.115967	0.192627	-0.711182	0.975702	-0.088367	-0.196228	0.041128
51936		5.218710	-1.394883	7.466306	0.079695	-1.125974	-0.071598	-0.160645	0.183105	-0.696045	0.973891	-0.087168	-0.205467	0.041479
51937		5.212696	-1.247837	7.928195	0.102147	-1.175989	-0.099519	-0.173584	0.186523	-0.699951	0.971928	-0.085714	-0.215110	0.041672
51938		5.635812	-1.288875	8.324027	0.066135	-1.209945	-0.104086	-0.195312	0.180420	-0.682617	0.969780	-0.084522	-0.225026	0.041783
51939		6.010697	-1.420762	8.553751	0.008312	-1.201127	-0.115476	-0.232178	0.184570	-0.676514	0.967511	-0.083769	-0.234879	0.041682
51940		5.960673	-1.588707	8.467622	-0.001424	-1.184174	-0.144735	-0.251221	0.175781	-0.660645	0.965179	-0.083034	-0.244599	0.041309
51941		5.735035	-1.572032	8.302507	0.033405	-1.184191	-0.174690	-0.274414	0.183838	-0.656006	0.962783	-0.081949	-0.254306	0.040761
51942		5.676927	-1.336295	8.424174	0.049984	-1.201133	-0.187501	-0.292236	0.176758	-0.631592	0.960267	-0.080689	-0.264128	0.040152
51943		6.305474	-1.107862	8.797992	-0.050402	-1.211484	-0.185308	-0.320557	0.175049	-0.616943	0.957559	-0.080224	-0.274038	0.039341
51944		6.397574	-1.223824	8.857161	-0.200801	-1.178509	-0.225182	-0.342041	0.164795	-0.595459	0.954738	-0.080869	-0.283733	0.037841
51945		6.256117	-1.322595	8.986731	-0.329029	-1.158670	-0.338736	-0.369873	0.164795	-0.576416	0.951810	-0.082261	-0.293357	0.035116
51946		6.126019	-1.324880	9.052951	-0.442742	-1.141219	-0.451362	-0.377686	0.165283	-0.549561	0.948770	-0.084274	-0.302919	0.031201
51947		5.888658	-1.807875	9.091929	-0.496965	-1.116611	-0.496119	-0.404541	0.161865	-0.519043	0.945652	-0.086597	-0.312293	0.026773
51948		6.379607	-2.336504	9.256100	-0.430118	-1.071897	-0.521855	-0.422363	0.163818	-0.505371	0.942594	-0.088324	-0.321278	0.022279
51949		7.231786	-2.464654	9.135969	-0.360669	-0.963064	-0.501658	-0.429932	0.157959	-0.477295	0.939778	-0.089572	-0.329344	0.018048
51950		6.963528	-2.443341	8.651617	-0.294678	-0.848015	-0.460659	-0.435791	0.157227	-0.460205	0.937245	-0.090426	-0.336441	0.014230
51951		6.310966	-2.124727	8.385927	-0.237751	-0.848109	-0.444205	-0.447266	0.149658	-0.431396	0.934687	-0.090876	-0.343493	0.010700
51952		6.075541	-2.007417	8.325581	-0.243952	-0.921230	-0.428526	-0.457764	0.142822	-0.413330	0.931846	-0.091407	-0.351076	0.007329
51953		6.529086	-2.027924	8.371277	-0.282028	-0.956109	-0.392091	-0.454834	0.128662	-0.388672	0.928799	-0.092331	-0.358873	0.004156
51954		7.216393	-2.032292	8.333631	-0.328487	-0.915025	-0.320389	-0.458740	0.128418	-0.369873	0.925767	-0.093824	-0.366266	0.001366
51955		7.518277	-2.084166	8.055713	-0.326999	-0.830950	-0.268626	-0.464355	0.121582	-0.338135	0.922930	-0.095458	-0.372944	-0.001086
51956		7.633139	-2.012022	7.607406	-0.254068	-0.769341	-0.276154	-0.459473	0.118408	-0.325928	0.920291	-0.096502	-0.379131	-0.003419
51957		7.633175	-1.838904	7.228178	-0.182276	-0.755880	-0.328719	-0.456543	0.112305	-0.308594	0.917704	-0.096825	-0.385240	-0.005939
51958		7.515883	-1.793998	6.870580	-0.142009	-0.765874	-0.383644	-0.458740	0.090088	-0.290039	0.915067	-0.096659	-0.391450	-0.008741
51959		7.363262	-1.591931	6.792968	-0.152864	-0.796896	-0.417546	-0.443848	0.087891	-0.269531	0.912267	-0.096462	-0.397901	-0.011812
51960		7.367402	-1.365775	6.879004	-0.260784	-0.848379	-0.398144	-0.439941	0.078369	-0.257080	0.909154	-0.097148	-0.404692	-0.015052
51961		7.580386	-1.433698	6.853884	-0.375951	-0.894482	-0.356338	-0.437744	0.080566	-0.237061	0.905734	-0.098846	-0.411753	-0.018326
51962		8.022400	-1.702055	6.659976	-0.401387	-0.917820	-0.334098	-0.418213	0.074707	-0.224121	0.902147	-0.100808	-0.418934	-0.021499
51963		8.287021	-2.129769	6.398444	-0.289695	-0.907302	-0.354476	-0.408936	0.067871	-0.222656	0.898620	-0.101849	-0.426042	-0.024444
51964		8.423206	-2.267240	6.177370	-0.096197	-0.894011	-0.395292	-0.401123	0.060547	-0.195801	0.895233	-0.101288	-0.433093	-0.027016
51965		8.643236	-1.986094	6.111902	0.032709	-0.885175	-0.373345	-0.388184	0.057373	-0.195557	0.891931	-0.099837	-0.440060	-0.028965
51966		8.687148	-1.809327	5.913038	0.063488	-0.902606	-0.291269	-0.381592	0.049805	-0.189697	0.888553	-0.098458	-0.447067	-0.030174
51967		8.622393	-1.674883	5.727571	0.068231	-0.935560	-0.221135	-0.367188	0.035400	-0.182861	0.885016	-0.097308	-0.454234	-0.030817
51968		8.567797	-1.313367	5.707947	0.040955	-0.987086	-0.185713	-0.355713	0.033936	-0.181152	0.881210	-0.096500	-0.461713	-0.031258
51969		8.570980	-1.020914	5.791350	-0.038185	-1.044843	-0.185928	-0.352295	0.027832	-0.172607	0.877052	-0.096281	-0.469561	-0.031956
51970		8.661022	-0.936865	5.880999	-0.131595	-1.101221	-0.195928	-0.333740	0.046875	-0.180420	0.872523	-0.096712	-0.477764	-0.033046
51971		8.863683	-1.166834	5.864177	-0.172103	-1.122270	-0.238158	-0.325439	0.032471	-0.180176	0.867786	-0.097264	-0.486097	-0.034586
51972		9.012850	-1.360774	5.863345	-0.135996	-1.101937	-0.308299	-0.313232	0.035156	-0.185791	0.863060	-0.097257	-0.494304	-0.036500
51973		8.924368	-1.391108	5.923654	-0.086776	-1.060560	-0.387451	-0.310547	0.030762	-0.185303	0.858442	-0.096547	-0.502244	-0.038811
51974		8.869934	-1.189097	6.012354	-0.110591	-1.016585	-0.419744	-0.309814	0.036621	-0.192383	0.853905	-0.095851	-0.509841	-0.041486
51975		8.759380	-1.198926	5.976257	-0.182490	-0.979200	-0.408217	-0.309082	0.034424	-0.196289	0.849404	-0.095693	-0.517092	-0.044410
51976		8.591763	-1.355289	5.982117	-0.228636	-0.948876	-0.395099	-0.293701	0.040527	-0.206787	0.844936	-0.095900	-0.524055	-0.047461
51977		8.552136	-1.342172	6.014443	-0.241924	-0.925838	-0.388295	-0.296631	0.045898	-0.204590	0.840500	-0.096213	-0.530801	-0.050537
51978		8.780420	-1.038827	6.048543	-0.286347	-0.869112	-0.366092	-0.301025	0.054199	-0.210205	0.836231	-0.096905	-0.537070	-0.053697
51979		8.912465	-0.909103	5.931709	-0.344912	-0.785406	-0.339181	-0.294678	0.056641	-0.214355	0.832251	-0.098082	-0.542669	-0.056995
51980		8.933383	-0.918877	5.694987	-0.348003	-0.706411	-0.344964	-0.306152	0.061768	-0.221436	0.828581	-0.099211	-0.547687	-0.060409
51981		9.028551	-0.941146	5.384509	-0.295837	-0.642948	-0.395146	-0.298096	0.066650	-0.217041	0.825181	-0.099712	-0.552304	-0.063982
51982		9.163230	-0.803604	5.170415	-0.236736	-0.581665	-0.462821	-0.310059	0.072510	-0.233398	0.822043	-0.099459	-0.556559	-0.067796
51983		9.189926	-0.666665	4.942241	-0.229382	-0.530244	-0.516113	-0.304688	0.083740	-0.234863	0.819086	-0.098874	-0.560482	-0.071982
51984		9.259870	-0.781295	4.682637	-0.248442	-0.494723	-0.553212	-0.306641	0.087402	-0.230225	0.816226	-0.098219	-0.564155	-0.076536
51985		9.425808	-0.932869	4.279873	-0.232788	-0.475570	-0.574825	-0.319092	0.093506	-0.224854	0.813422	-0.097340	-0.567698	-0.081177
51986		9.431406	-1.043316	3.950408	-0.176632	-0.472709	-0.577461	-0.329590	0.096924	-0.225830	0.810642	-0.096063	-0.571235	-0.085568
51987		9.391429	-1.261588	3.726370	-0.082638	-0.505943	-0.558645	-0.326660	0.101562	-0.239746	0.807761	-0.094261	-0.575024	-0.089354
51988		9.405852	-1.437413	3.509033	0.043424	-0.555026	-0.528334	-0.337646	0.108887	-0.231934	0.804735	-0.091790	-0.579188	-0.092288
51989		9.502918	-1.342165	3.370148	0.127173	-0.597080	-0.481408	-0.350830	0.109863	-0.233643	0.801573	-0.089015	-0.583638	-0.094467
51990		9.526347	-1.015604	3.250789	0.122643	-0.638202	-0.389924	-0.357666	0.110107	-0.230957	0.798247	-0.086746	-0.588266	-0.096020
51991		9.465162	-0.860094	3.076138	0.069690	-0.688400	-0.276090	-0.365723	0.114502	-0.227539	0.794698	-0.085427	-0.593078	-0.097035
51992		9.495605	-0.791080	2.874289	0.052897	-0.750634	-0.200033	-0.365723	0.124268	-0.221680	0.790859	-0.084643	-0.598211	-0.097580
51993		9.522679	-0.730253	2.795855	0.090220	-0.802137	-0.183052	-0.381836	0.125732	-0.217773	0.786768	-0.083738	-0.603674	-0.097786
51994		9.485942	-0.488818	2.915949	0.111992	-0.834093	-0.203674	-0.390137	0.138184	-0.206055	0.782476	-0.082609	-0.609348	-0.097989
51995		9.597161	-0.166531	3.078311	0.067902	-0.844674	-0.211974	-0.399414	0.136719	-0.198975	0.778053	-0.081732	-0.615028	-0.098458
51996		9.711164	-0.101040	3.083292	-0.016353	-0.824963	-0.205100	-0.421143	0.131836	-0.188965	0.773641	-0.081416	-0.620473	-0.099322
51997		9.650717	-0.289663	3.012686	-0.049036	-0.786204	-0.224841	-0.424072	0.140625	-0.174561	0.769355	-0.081172	-0.625622	-0.100505
51998		9.484831	-0.365355	2.992486	-0.025365	-0.745725	-0.266040	-0.440186	0.136475	-0.175049	0.765228	-0.080525	-0.630530	-0.101850
51999		9.483251	-0.199732	3.041394	-0.017606	-0.703784	-0.291364	-0.455078	0.132568	-0.165527	0.761276	-0.079658	-0.635165	-0.103340
52000		9.492718	-0.177961	2.947383	-0.048782	-0.649868	-0.281943	-0.463379	0.135498	-0.150635	0.757570	-0.078989	-0.639399	-0.104967
52001		9.594111	-0.220949	2.715455	-0.062768	-0.589013	-0.262747	-0.463135	0.125977	-0.154785	0.754173	-0.078456	-0.643200	-0.106584
52002		9.469714	-0.293180	2.518253	-0.043301	-0.527957	-0.269834	-0.476562	0.123535	-0.143799	0.751093	-0.077707	-0.646621	-0.108178
52003		9.377572	-0.220346	2.409749	-0.030253	-0.488429	-0.283834	-0.488525	0.137207	-0.145996	0.748206	-0.076764	-0.649798	-0.109812
52004		9.320049	0.043488	2.300662	-0.066080	-0.455573	-0.257416	-0.502930	0.135010	-0.137695	0.745484	-0.076158	-0.652704	-0.111494
52005		9.297024	0.053417	2.158009	-0.119707	-0.435207	-0.213959	-0.508789	0.133301	-0.137451	0.742867	-0.076100	-0.655394	-0.113208
52006		9.343310	-0.030183	2.057011	-0.116671	-0.423571	-0.198982	-0.521484	0.133545	-0.125732	0.740320	-0.076095	-0.657992	-0.114817
52007		9.452760	0.039142	2.020260	-0.093548	-0.407506	-0.206338	-0.525635	0.131348	-0.125000	0.737858	-0.075890	-0.660505	-0.116354
52008		9.599674	0.288437	1.978211	-0.113838	-0.369379	-0.191645	-0.535400	0.135010	-0.124268	0.735599	-0.075854	-0.662745	-0.117934
52009		9.639145	0.368799	1.909751	-0.151890	-0.326085	-0.176363	-0.551758	0.138916	-0.112793	0.733563	-0.076093	-0.664663	-0.119657
52010		9.801564	0.418777	1.679087	-0.167030	-0.285336	-0.177774	-0.550537	0.140381	-0.105225	0.731736	-0.076374	-0.666310	-0.121496
52011		9.997268	0.442151	1.377007	-0.146109	-0.242604	-0.190281	-0.562500	0.141846	-0.109863	0.730141	-0.076416	-0.667718	-0.123322
52012		10.209206	0.403474	1.044794	-0.094924	-0.216385	-0.213795	-0.567871	0.140869	-0.103516	0.728695	-0.075987	-0.669028	-0.125022
52013		10.054717	0.619591	0.822687	-0.054427	-0.208305	-0.221272	-0.572510	0.144287	-0.099854	0.727308	-0.075263	-0.670332	-0.126545
52014		9.657435	0.689000	0.724527	-0.045428	-0.251624	-0.204010	-0.583984	0.139648	-0.101074	0.725697	-0.074626	-0.671893	-0.127886
52015		9.656106	0.617255	0.600231	-0.034016	-0.317924	-0.183694	-0.589355	0.141113	-0.094971	0.723737	-0.074103	-0.673850	-0.128997
52016		9.878128	0.729297	0.562257	-0.015053	-0.369476	-0.167836	-0.602539	0.140137	-0.082764	0.721508	-0.073610	-0.676122	-0.129874
52017		9.807012	0.999585	0.606773	-0.030329	-0.402784	-0.133862	-0.608398	0.142822	-0.081787	0.719110	-0.073436	-0.678549	-0.130610
52018		9.723321	1.073583	0.666706	-0.028359	-0.443226	-0.110641	-0.617920	0.139893	-0.067871	0.716500	-0.073424	-0.681198	-0.131169
52019		9.815326	1.044945	0.743467	0.004125	-0.473642	-0.106819	-0.624268	0.143311	-0.059326	0.713731	-0.073271	-0.684052	-0.131502
52020		9.945252	0.746168	0.723437	0.081625	-0.467642	-0.140745	-0.637451	0.143311	-0.058105	0.710994	-0.072455	-0.686965	-0.131596
52021		10.018330	0.739963	0.770400	0.154501	-0.432661	-0.184911	-0.634033	0.140381	-0.044678	0.708441	-0.070916	-0.689765	-0.131554
52022		9.521486	0.827298	0.849417	0.153157	-0.417887	-0.188591	-0.650146	0.141602	-0.036377	0.705957	-0.069346	-0.692467	-0.131548
52023		9.280738	0.932878	0.918394	0.115523	-0.434704	-0.147174	-0.655762	0.136230	-0.038574	0.703390	-0.068253	-0.695191	-0.131504
52024		9.201801	0.756134	1.013090	0.090434	-0.457913	-0.103295	-0.660156	0.134277	-0.038330	0.700712	-0.067586	-0.697988	-0.131334
52025		9.210134	0.678291	1.306801	0.112356	-0.467648	-0.093550	-0.664307	0.135498	-0.035156	0.697990	-0.066858	-0.700847	-0.130972
52026		9.374659	0.653486	1.580654	0.124653	-0.445423	-0.090053	-0.675049	0.137207	-0.026123	0.695400	-0.066053	-0.703575	-0.130527
52027		9.495207	0.461626	1.667817	0.133321	-0.371653	-0.091203	-0.676758	0.131348	-0.008057	0.693239	-0.065110	-0.705875	-0.130078
52028		9.658082	0.539273	1.532298	0.141414	-0.280947	-0.088474	-0.682861	0.137695	-0.013916	0.691616	-0.064039	-0.707649	-0.129614
52029		9.535462	0.798045	1.224003	0.124640	-0.211189	-0.044903	-0.679932	0.134521	-0.015625	0.690441	-0.063245	-0.708972	-0.129033
52030		9.236289	0.801805	0.959157	0.144324	-0.199192	-0.021206	-0.686035	0.131836	-0.012939	0.689372	-0.062465	-0.710231	-0.128206
52031		9.395864	0.717052	0.821507	0.196725	-0.200115	-0.050115	-0.687744	0.130371	-0.009521	0.688292	-0.061214	-0.711560	-0.127235
52032		9.531361	1.081579	1.013053	0.153772	-0.174623	-0.078104	-0.692871	0.127686	-0.010986	0.687310	-0.060016	-0.712708	-0.126690
52033		9.384315	1.357239	1.123747	-0.000874	-0.145138	-0.055906	-0.701416	0.134277	0.000000	0.686449	-0.059804	-0.713508	-0.126952
52034		8.975760	1.290596	1.219962	-0.107339	-0.158210	-0.032332	-0.689209	0.133301	0.010254	0.685483	-0.060354	-0.714256	-0.127707
52035		9.038581	0.851266	1.352621	-0.073481	-0.182422	-0.053263	-0.697510	0.132080	0.004150	0.684367	-0.060611	-0.715185	-0.128368
52036		9.578017	0.648899	1.430827	0.035557	-0.125170	-0.103193	-0.705811	0.131104	0.007568	0.683596	-0.059887	-0.715925	-0.128692
52037		9.781804	0.807827	1.340119	0.093106	0.003896	-0.120030	-0.698730	0.134277	0.002686	0.683606	-0.058596	-0.715996	-0.128834
52038		9.102709	0.937732	1.150233	0.081515	0.095119	-0.104572	-0.702881	0.122314	0.001953	0.684173	-0.057367	-0.715524	-0.129001
52039		8.425015	0.753131	1.135689	0.070471	0.068146	-0.102995	-0.691406	0.133301	-0.004395	0.684576	-0.056238	-0.715190	-0.129212
52040		8.702904	0.453258	1.261655	0.085481	0.030731	-0.117921	-0.694824	0.123291	-0.000244	0.684748	-0.054975	-0.715089	-0.129402
52041		9.349682	0.202519	1.246786	0.087007	0.076266	-0.093838	-0.693848	0.118652	-0.010254	0.685219	-0.053798	-0.714716	-0.129465
52042		9.205465	0.144670	1.125445	0.085523	0.150931	-0.039113	-0.697510	0.120361	-0.006592	0.686194	-0.052876	-0.713886	-0.129258
52043		8.869780	0.270567	1.048501	0.090378	0.168656	0.034735	-0.698486	0.116943	-0.008301	0.687357	-0.052349	-0.712925	-0.128605
52044		8.698535	0.178606	1.011519	0.130380	0.150031	0.069639	-0.693359	0.124268	-0.017334	0.688463	-0.051820	-0.712093	-0.127506
52045		8.828483	0.235763	1.202830	0.158888	0.141079	0.076118	-0.692383	0.121338	-0.017578	0.689534	-0.051176	-0.711336	-0.126195
52046		9.126409	0.342742	1.292972	0.133066	0.176225	0.092163	-0.694824	0.119141	-0.014648	0.690818	-0.050740	-0.710339	-0.124959
52047		9.115164	0.329901	1.279750	0.090287	0.227779	0.112498	-0.703613	0.119873	-0.029053	0.692410	-0.050617	-0.708986	-0.123880
52048		8.796181	0.111137	1.352474	0.099677	0.255045	0.099553	-0.687744	0.116943	-0.028076	0.694150	-0.050335	-0.707485	-0.122830
52049		8.683954	-0.211261	1.599473	0.145088	0.264837	0.062936	-0.694824	0.113281	-0.029297	0.695928	-0.049566	-0.705982	-0.121726
52050		8.802991	-0.446413	1.827663	0.158402	0.292718	0.058189	-0.684814	0.118896	-0.036133	0.697867	-0.048664	-0.704325	-0.120582
52051		8.914541	-0.691861	1.916134	0.162493	0.338566	0.092532	-0.676514	0.121094	-0.056641	0.700107	-0.047896	-0.702382	-0.119230
52052		8.985408	-0.860020	1.961551	0.166190	0.405598	0.134893	-0.679932	0.112549	-0.052734	0.702776	-0.047288	-0.700023	-0.117632
52053		8.941455	-1.009550	1.958526	0.161170	0.449451	0.195213	-0.669678	0.116455	-0.067139	0.705749	-0.047021	-0.697363	-0.115724
52054		8.787804	-0.900032	2.075039	0.141428	0.461986	0.264652	-0.660889	0.109131	-0.075684	0.708842	-0.047263	-0.694566	-0.113523
52055		9.173093	-0.867906	2.108902	0.091477	0.469662	0.356183	-0.651855	0.121094	-0.085938	0.712032	-0.048323	-0.691621	-0.111068
52056		9.410559	-0.741443	2.005828	0.067623	0.512751	0.401960	-0.650391	0.123535	-0.094727	0.715485	-0.049750	-0.688357	-0.108491
52057		9.332141	-0.344744	2.076583	0.014485	0.554941	0.414998	-0.636963	0.119385	-0.097900	0.719149	-0.051530	-0.684764	-0.106153
52058		9.181510	-0.005377	2.143973	-0.074078	0.579635	0.424229	-0.630859	0.129639	-0.105469	0.722899	-0.053871	-0.680913	-0.104271
52059		9.355907	0.107928	2.127561	-0.161427	0.598370	0.438141	-0.615234	0.132812	-0.112061	0.726702	-0.056799	-0.676837	-0.102804
52060		9.661789	0.146519	2.139737	-0.195833	0.635420	0.433728	-0.605713	0.131836	-0.128906	0.730664	-0.059877	-0.672479	-0.101570
52061		10.014427	0.424227	2.074680	-0.207041	0.676265	0.429620	-0.587891	0.140625	-0.133057	0.734812	-0.062962	-0.667831	-0.100439
52062		10.165114	0.597098	1.891435	-0.221558	0.723613	0.426883	-0.578125	0.153564	-0.144775	0.739177	-0.066078	-0.662847	-0.099425
52063		10.138092	0.556942	1.695551	-0.190652	0.743318	0.382988	-0.560303	0.139648	-0.150391	0.743591	-0.068740	-0.657755	-0.098515
52064		10.053587	0.507965	1.765364	-0.133654	0.736776	0.306758	-0.552246	0.141113	-0.157959	0.747902	-0.070632	-0.652761	-0.097758
52065		10.126092	0.571516	1.945813	-0.129649	0.705429	0.245087	-0.539307	0.145020	-0.172852	0.751961	-0.072186	-0.647973	-0.097340
52066		10.138249	0.280151	2.060901	-0.171714	0.695720	0.204136	-0.522705	0.138672	-0.177734	0.755878	-0.073786	-0.643209	-0.097397
52067		9.955054	0.094289	2.175413	-0.211228	0.698489	0.186554	-0.513184	0.133057	-0.174316	0.759740	-0.075535	-0.638381	-0.097774
52068		9.671585	0.106069	2.418209	-0.273331	0.676596	0.210718	-0.498291	0.129395	-0.189453	0.763434	-0.077820	-0.633599	-0.098311
52069		9.801120	-0.086078	2.496742	-0.313607	0.652957	0.263444	-0.478516	0.135010	-0.188721	0.766988	-0.080656	-0.628873	-0.098705
52070		10.247869	0.106764	2.426068	-0.317020	0.664707	0.330094	-0.469727	0.135010	-0.196289	0.770622	-0.083850	-0.623996	-0.098694
52071		10.646358	0.188822	2.116540	-0.282674	0.706273	0.400700	-0.457031	0.143555	-0.197998	0.774515	-0.087152	-0.618799	-0.098075
52072		10.178853	0.149384	1.995465	-0.132494	0.709067	0.421717	-0.452637	0.144043	-0.199707	0.778507	-0.089585	-0.613662	-0.096543
52073		9.680626	0.241688	2.153780	0.066524	0.634445	0.407709	-0.433594	0.148193	-0.209961	0.782218	-0.090710	-0.609152	-0.094024
52074		10.056464	0.072431	2.280506	0.220963	0.574390	0.389367	-0.426758	0.138916	-0.213379	0.785694	-0.090778	-0.605146	-0.090792
52075		10.433481	-0.181244	2.408963	0.324039	0.586608	0.358741	-0.411621	0.140869	-0.224854	0.789254	-0.090001	-0.601138	-0.087247
52076		10.164422	-0.053689	2.492762	0.332509	0.606592	0.343906	-0.401367	0.138916	-0.229980	0.792874	-0.089075	-0.596991	-0.083769
52077		9.662003	0.057324	2.673314	0.261548	0.567036	0.388005	-0.395752	0.126709	-0.227783	0.796243	-0.088860	-0.593001	-0.080321
52078		9.577643	-0.441345	2.714345	0.247243	0.502072	0.435310	-0.379395	0.128418	-0.232178	0.799280	-0.089012	-0.589376	-0.076579
52079		9.963109	-0.839018	2.772000	0.339350	0.478577	0.424607	-0.373291	0.124268	-0.235840	0.802234	-0.088508	-0.585953	-0.072436
52080		10.012662	-0.844487	2.885669	0.426347	0.510198	0.388441	-0.360352	0.120361	-0.245117	0.805350	-0.087223	-0.582375	-0.068131
52081		9.636364	-0.525685	3.161264	0.411849	0.522372	0.394702	-0.359619	0.104248	-0.255859	0.808484	-0.086055	-0.578680	-0.063860
52082		9.230990	-0.480689	3.333121	0.320686	0.487604	0.431955	-0.352295	0.105713	-0.257568	0.811371	-0.085694	-0.575120	-0.059751
52083		9.128815	-0.760385	3.518568	0.272532	0.453629	0.449040	-0.339844	0.105957	-0.259033	0.814040	-0.085754	-0.571734	-0.055731
52084		9.419211	-0.876268	3.694716	0.278883	0.464283	0.411311	-0.334473	0.096191	-0.256836	0.816718	-0.085581	-0.568286	-0.051942
52085		9.411980	-0.743382	3.970023	0.248779	0.522801	0.365549	-0.335938	0.096436	-0.260498	0.819605	-0.085368	-0.564441	-0.048648
52086		9.115686	-0.540866	4.269410	0.138547	0.570415	0.345606	-0.327148	0.087646	-0.256104	0.822602	-0.085792	-0.560220	-0.046041
52087		8.812016	-0.598639	4.455481	0.016240	0.589158	0.337633	-0.319824	0.075684	-0.267822	0.825568	-0.087005	-0.555811	-0.044072
52088		8.993409	-0.801286	4.478336	-0.048350	0.616876	0.308620	-0.309814	0.073730	-0.264404	0.828578	-0.088513	-0.551188	-0.042620
52089		9.253544	-0.892249	4.481664	-0.061198	0.687197	0.261546	-0.314941	0.070068	-0.256348	0.831854	-0.089866	-0.546088	-0.041603
52090		9.234022	-0.905695	4.538998	-0.071980	0.750902	0.244114	-0.307129	0.066895	-0.264160	0.835371	-0.091187	-0.540533	-0.040803
52091		9.340157	-1.107941	4.416843	-0.061936	0.786490	0.242816	-0.300781	0.061768	-0.240723	0.839015	-0.092415	-0.534709	-0.039991
52092		9.594363	-1.233033	4.113001	-0.020491	0.825002	0.246088	-0.296143	0.062500	-0.256104	0.842821	-0.093351	-0.528599	-0.038999
52093		9.559375	-1.011315	3.925415	0.002438	0.858113	0.253841	-0.291748	0.056641	-0.256348	0.846745	-0.094144	-0.522231	-0.037875
52094		9.267540	-0.783948	3.752704	-0.029191	0.844922	0.261224	-0.278076	0.059082	-0.249268	0.850540	-0.095190	-0.515911	-0.036824
52095		9.356909	-0.683630	3.656660	-0.096141	0.798143	0.264789	-0.286377	0.051270	-0.239014	0.854034	-0.096734	-0.509875	-0.035997
52096		9.662310	-0.728040	3.384331	-0.123113	0.770868	0.248645	-0.279785	0.046875	-0.234131	0.857341	-0.098404	-0.504015	-0.035376
52097		9.688905	-0.693572	3.263759	-0.116270	0.751320	0.211945	-0.272461	0.051270	-0.235840	0.860519	-0.099872	-0.498307	-0.034972
52098		9.496005	-0.485231	3.255242	-0.129984	0.703087	0.180471	-0.278564	0.055420	-0.239014	0.863437	-0.101316	-0.492950	-0.034809
52099		9.366058	-0.502991	3.262741	-0.158780	0.627301	0.166709	-0.277100	0.048340	-0.231445	0.865982	-0.102928	-0.488129	-0.034798
52100		9.526497	-0.605070	3.225269	-0.157667	0.555748	0.146125	-0.273682	0.043945	-0.226562	0.868203	-0.104465	-0.483833	-0.034870
52101		9.720779	-0.642466	3.174543	-0.133248	0.504614	0.112812	-0.278564	0.045898	-0.229248	0.870207	-0.105702	-0.479937	-0.035041
52102		9.565519	-0.617411	3.166733	-0.104321	0.448496	0.077879	-0.274414	0.049072	-0.223145	0.871983	-0.106603	-0.476483	-0.035299
52103		9.214431	-0.549911	3.206090	-0.101540	0.359874	0.051265	-0.283691	0.046875	-0.223633	0.873387	-0.107401	-0.473696	-0.035662
52104		9.026883	-0.537284	3.355851	-0.110044	0.251533	0.041970	-0.275635	0.054443	-0.221924	0.874344	-0.108255	-0.471705	-0.036029
52105		9.041877	-0.806819	3.483438	-0.083403	0.158643	0.039166	-0.277344	0.047852	-0.219238	0.874952	-0.108930	-0.470404	-0.036229
52106		9.025490	-0.995155	3.709677	-0.004520	0.095806	0.024290	-0.280029	0.043945	-0.209717	0.875378	-0.108990	-0.469602	-0.036172
52107		8.961746	-1.016181	3.982691	0.059474	0.048891	0.022061	-0.285156	0.049072	-0.208496	0.875675	-0.108588	-0.469167	-0.035838
52108		8.786039	-1.072239	4.187600	0.088006	0.007347	0.024612	-0.286377	0.048828	-0.212402	0.875833	-0.107999	-0.469045	-0.035338
52109		8.553047	-1.085034	4.409064	0.093411	-0.024279	0.032296	-0.278564	0.042480	-0.218262	0.875874	-0.107410	-0.469151	-0.034732
52110		8.416489	-1.227729	4.575256	0.097567	-0.047193	0.038243	-0.289062	0.047607	-0.216064	0.875828	-0.106820	-0.469421	-0.034047
52111		8.321234	-1.305030	4.786063	0.116081	-0.056508	0.026270	-0.290527	0.041260	-0.215576	0.875756	-0.106049	-0.469777	-0.033369
52112		8.218971	-1.335287	5.007986	0.104277	-0.052757	0.015259	-0.289307	0.041748	-0.209717	0.875685	-0.105321	-0.470113	-0.032820
52113		8.088097	-1.384216	5.187653	0.074892	-0.046477	0.012609	-0.285400	0.037842	-0.219482	0.875610	-0.104795	-0.470397	-0.032412
52114		8.011069	-1.527483	5.251765	0.047887	-0.033352	0.013565	-0.297852	0.044189	-0.216797	0.875564	-0.104466	-0.470578	-0.032115
52115		8.004419	-1.637837	5.330289	0.044557	-0.012718	0.007099	-0.283936	0.039062	-0.214600	0.875593	-0.104131	-0.470613	-0.031895
52116		7.934660	-1.560133	5.410635	0.018631	0.016314	-0.006671	-0.282471	0.039795	-0.217285	0.875710	-0.103923	-0.470441	-0.031903
52117		7.977678	-1.496892	5.446524	-0.039061	0.046802	-0.010222	-0.283936	0.041016	-0.212402	0.875895	-0.104115	-0.470034	-0.032189
52118		8.011859	-1.630999	5.458293	-0.092045	0.071594	-0.016675	-0.280762	0.044434	-0.211426	0.876130	-0.104662	-0.469436	-0.032752
52119		7.962100	-1.733919	5.356916	-0.103361	0.086486	-0.025232	-0.289795	0.039062	-0.209717	0.876409	-0.105253	-0.468733	-0.033434
52120		7.958289	-1.742153	5.319520	-0.100134	0.089702	-0.025335	-0.286621	0.044678	-0.212402	0.876703	-0.105821	-0.468007	-0.034106
52121		7.974221	-1.673620	5.335450	-0.106200	0.088941	-0.014640	-0.289795	0.045166	-0.206055	0.876990	-0.106475	-0.467275	-0.034723
52122		8.026793	-1.668724	5.273335	-0.118318	0.086099	0.000173	-0.291016	0.047607	-0.213623	0.877258	-0.107276	-0.466546	-0.035276
52123		7.999825	-1.639478	5.207557	-0.110857	0.072746	-0.002012	-0.282227	0.041016	-0.208984	0.877480	-0.108019	-0.465918	-0.035803
52124		8.007656	-1.601492	5.249386	-0.104880	0.058075	-0.009761	-0.286133	0.044434	-0.206299	0.877646	-0.108693	-0.465406	-0.036351
52125		7.973885	-1.502406	5.380965	-0.120029	0.044595	-0.011235	-0.289551	0.046143	-0.207764	0.877744	-0.109475	-0.464988	-0.036955
52126		7.923762	-1.425669	5.440742	-0.150132	0.038242	0.004599	-0.291016	0.050781	-0.204590	0.877795	-0.110542	-0.464593	-0.037555
52127		7.861986	-1.545113	5.483465	-0.147831	0.035694	0.026254	-0.295410	0.044922	-0.205322	0.877842	-0.111675	-0.464197	-0.037985
52128		7.854604	-1.603578	5.500124	-0.088291	0.031155	0.036426	-0.293213	0.044189	-0.205078	0.877930	-0.112414	-0.463842	-0.038106
52129		7.911253	-1.549213	5.575094	-0.027152	0.034167	0.040874	-0.297607	0.048096	-0.204346	0.878088	-0.112722	-0.463480	-0.037961
52130		7.967977	-1.434947	5.603741	0.003548	0.044739	0.050924	-0.292480	0.041992	-0.204346	0.878319	-0.112841	-0.463040	-0.037634
52131		7.914956	-1.384705	5.637029	0.005527	0.055151	0.065706	-0.295166	0.041992	-0.201416	0.878597	-0.112998	-0.462510	-0.037201
52132		7.735626	-1.352715	5.744302	0.002930	0.047316	0.063314	-0.300781	0.050293	-0.202148	0.878840	-0.113168	-0.462038	-0.036788
52133		7.679358	-1.341868	5.903168	-0.008323	0.041376	0.054491	-0.302979	0.041260	-0.204590	0.879048	-0.113387	-0.461614	-0.036479
52134		7.661752	-1.375333	6.015224	-0.031725	0.046076	0.039036	-0.300293	0.046387	-0.205322	0.879247	-0.113716	-0.461162	-0.036377
52135		7.640864	-1.481212	6.144417	-0.046661	0.060484	0.016561	-0.297607	0.038330	-0.195312	0.879480	-0.114064	-0.460620	-0.036512
52136		7.615305	-1.603637	6.210573	-0.059235	0.081723	0.001075	-0.304199	0.043701	-0.197266	0.879779	-0.114437	-0.459931	-0.036829
52137		7.588895	-1.799859	6.249408	-0.060265	0.107680	-0.006805	-0.301025	0.042969	-0.191406	0.880174	-0.114780	-0.459057	-0.037232
52138		7.622852	-1.933564	6.285261	-0.040148	0.127585	-0.004241	-0.302002	0.046875	-0.197998	0.880664	-0.114979	-0.458039	-0.037559
52139		7.567660	-1.910470	6.316270	-0.036752	0.160039	0.019821	-0.306885	0.043945	-0.180908	0.881289	-0.115234	-0.456758	-0.037727
52140		7.343377	-1.984916	6.374739	-0.036893	0.176171	0.050003	-0.298828	0.048828	-0.187988	0.881983	-0.115601	-0.455327	-0.037689
52141		7.206253	-2.023930	6.552430	-0.017575	0.174769	0.074628	-0.310059	0.046387	-0.181152	0.882696	-0.115920	-0.453885	-0.037395
52142		7.224262	-1.942263	6.686222	-0.017016	0.183962	0.095803	-0.319092	0.048828	-0.188721	0.883450	-0.116311	-0.452352	-0.036951
52143		7.259506	-1.922633	6.784470	-0.029947	0.213359	0.106516	-0.314209	0.043701	-0.188232	0.884303	-0.116830	-0.450584	-0.036506
52144		7.207568	-1.996217	6.866929	-0.035645	0.253007	0.098092	-0.310791	0.039062	-0.184570	0.885294	-0.117346	-0.448526	-0.036182
52145		7.126785	-2.051310	7.038881	-0.030861	0.289011	0.078739	-0.327637	0.046631	-0.189453	0.886414	-0.117743	-0.446217	-0.036018
52146		7.098758	-1.999134	7.286675	-0.061311	0.311956	0.070336	-0.330566	0.053467	-0.189941	0.887582	-0.118326	-0.443732	-0.036051
52147		7.139909	-2.129712	7.397209	-0.105880	0.349006	0.070444	-0.331543	0.060059	-0.195801	0.888836	-0.119227	-0.440952	-0.036285
52148		7.029165	-2.240836	7.473666	-0.132003	0.397494	0.058550	-0.333252	0.050537	-0.180176	0.890230	-0.120263	-0.437809	-0.036750
52149		6.997425	-2.349495	7.578908	-0.146660	0.443441	0.040638	-0.335449	0.058350	-0.189453	0.891760	-0.121326	-0.434329	-0.037446
52150		7.050800	-2.456877	7.668690	-0.164061	0.488206	0.032045	-0.346191	0.053955	-0.180908	0.893417	-0.122472	-0.430509	-0.038314
52151		6.928206	-2.573027	7.677057	-0.178036	0.531694	0.028913	-0.348389	0.057617	-0.185059	0.895198	-0.123695	-0.426351	-0.039297
52152		6.716164	-2.748337	7.791235	-0.178022	0.554651	0.027348	-0.361572	0.070312	-0.184326	0.897040	-0.124903	-0.422011	-0.040314
52153		6.694592	-2.902989	7.973426	-0.170131	0.555454	0.043936	-0.373535	0.064697	-0.187012	0.898878	-0.126108	-0.417636	-0.041179
52154		6.602635	-3.061500	8.153724	-0.154627	0.564027	0.077164	-0.388672	0.076660	-0.191650	0.900752	-0.127308	-0.413153	-0.041747
52155		6.555530	-3.265085	8.245817	-0.113914	0.571802	0.121050	-0.389160	0.075928	-0.203125	0.902690	-0.128348	-0.408566	-0.041851
52156		6.620817	-3.375963	8.393604	-0.063317	0.607989	0.160988	-0.391357	0.092041	-0.201172	0.904796	-0.129130	-0.403666	-0.041519
52157		6.576113	-3.182444	8.559230	-0.051224	0.656274	0.213625	-0.400879	0.090576	-0.213379	0.907068	-0.129978	-0.398333	-0.040798
52158		6.434618	-3.115236	8.678287	-0.072766	0.694412	0.275994	-0.417725	0.101318	-0.223877	0.909432	-0.131179	-0.392618	-0.039716
52159		6.509119	-3.258964	8.663271	-0.059931	0.719461	0.332592	-0.416748	0.111816	-0.235352	0.911872	-0.132455	-0.386635	-0.038187
52160		6.606477	-3.327720	8.745323	0.024218	0.758477	0.367377	-0.426758	0.127441	-0.243164	0.914499	-0.133186	-0.380322	-0.036163
52161		6.589794	-3.185398	8.838336	0.097676	0.793601	0.404327	-0.442871	0.131348	-0.270752	0.917281	-0.133457	-0.373699	-0.033661
52162		6.797952	-3.043818	8.831019	0.133907	0.839555	0.446036	-0.435791	0.137695	-0.279541	0.920203	-0.133560	-0.366663	-0.030775
52163		6.788602	-2.962909	8.655667	0.164717	0.883662	0.470092	-0.457275	0.145996	-0.312988	0.923236	-0.133479	-0.359241	-0.027657
52164		6.713796	-2.821202	8.507543	0.198400	0.898211	0.488831	-0.446045	0.153564	-0.331299	0.926284	-0.133182	-0.351666	-0.024308
52165		6.567484	-2.835168	8.364728	0.245122	0.890577	0.498142	-0.448975	0.174072	-0.346924	0.929292	-0.132543	-0.344121	-0.020740
52166		6.487248	-2.811789	8.410626	0.306926	0.862930	0.514651	-0.441650	0.182861	-0.374023	0.932218	-0.131466	-0.336754	-0.016835
52167		6.600036	-2.646388	8.503129	0.344703	0.856191	0.552538	-0.447998	0.183105	-0.404297	0.935096	-0.130192	-0.329375	-0.012520
52168		6.818242	-2.480628	8.516434	0.353328	0.876573	0.602596	-0.437500	0.196289	-0.420654	0.937965	-0.128973	-0.321756	-0.007814
52169		6.799519	-2.266121	8.414026	0.370890	0.911256	0.612913	-0.430664	0.210693	-0.449219	0.940858	-0.127630	-0.313827	-0.003017
52170		6.629819	-1.949903	8.321958	0.376339	0.925913	0.581606	-0.409180	0.213867	-0.475830	0.943705	-0.126148	-0.305788	0.001533
52171		6.566042	-1.665894	8.313191	0.335899	0.938160	0.533078	-0.401367	0.216553	-0.495361	0.946452	-0.124846	-0.297676	0.005583
52172		6.558891	-1.557552	8.193830	0.276951	0.955022	0.481586	-0.388672	0.229492	-0.519287	0.949097	-0.123869	-0.289463	0.009062
52173		6.459340	-1.712340	8.227856	0.239373	0.970902	0.406505	-0.363525	0.229980	-0.535645	0.951666	-0.122996	-0.281183	0.011837
52174		6.734200	-1.677881	8.185210	0.198358	0.999321	0.335787	-0.348633	0.236328	-0.553467	0.954187	-0.122274	-0.272733	0.013924
52175		6.701956	-1.617537	8.028850	0.124522	1.035342	0.285566	-0.328613	0.245605	-0.576660	0.956640	-0.122017	-0.264037	0.015404
52176		6.341190	-1.765999	7.672998	0.074151	1.046012	0.242324	-0.303467	0.251221	-0.595459	0.958990	-0.122055	-0.255288	0.016416
52177		5.905658	-1.812504	7.534912	0.064402	1.010419	0.189731	-0.283936	0.249268	-0.613281	0.961184	-0.122044	-0.246862	0.017020
52178		5.776270	-1.750626	7.617224	0.033868	0.958427	0.169787	-0.260498	0.243408	-0.624756	0.963173	-0.122219	-0.238862	0.017453
52179		5.987603	-1.757852	7.708396	-0.033280	0.924700	0.204559	-0.245850	0.254639	-0.635742	0.964957	-0.122989	-0.231096	0.018064
52180		5.923564	-2.159633	7.567314	-0.019059	0.918790	0.231250	-0.224121	0.253174	-0.643799	0.966677	-0.123685	-0.223337	0.018921
52181		5.727491	-2.160577	7.472103	0.097743	0.900432	0.234742	-0.201660	0.251465	-0.650879	0.968420	-0.123436	-0.215694	0.020041
52182		5.546069	-1.907905	7.442403	0.180962	0.870363	0.215799	-0.174072	0.256836	-0.664307	0.970138	-0.122468	-0.208291	0.021188
52183		5.467643	-1.380185	7.482833	0.136118	0.846807	0.201593	-0.161133	0.256348	-0.665039	0.971714	-0.121826	-0.201093	0.022164
52184		5.118736	-1.412447	7.443167	0.026573	0.806236	0.186382	-0.136719	0.254883	-0.678955	0.973063	-0.122030	-0.194253	0.022872
52185		4.719635	-1.642736	7.489780	-0.005847	0.754460	0.137341	-0.119141	0.254639	-0.681885	0.974259	-0.122401	-0.187884	0.023181
52186		4.671594	-1.915565	7.816214	0.011093	0.708159	0.101239	-0.097900	0.260986	-0.683838	0.975367	-0.122563	-0.181921	0.023269
52187		4.934697	-2.067785	7.988903	0.021318	0.714610	0.085939	-0.078125	0.268066	-0.684814	0.976463	-0.122615	-0.175916	0.023240
52188		4.673029	-2.019703	7.930630	0.017516	0.764413	0.102262	-0.063965	0.258301	-0.688965	0.977584	-0.122726	-0.169486	0.023287
52189		4.110376	-2.204817	7.730295	0.052946	0.755623	0.120820	-0.057861	0.255615	-0.697510	0.978684	-0.122567	-0.163099	0.023543
52190		4.073112	-2.368384	7.576267	0.139099	0.712600	0.105250	-0.031250	0.256348	-0.698486	0.979776	-0.121671	-0.157058	0.023832
52191		4.258769	-2.335718	7.478777	0.190781	0.687505	0.063882	-0.015381	0.247559	-0.704102	0.980859	-0.120290	-0.151251	0.023875
52192		4.196105	-2.078472	7.347181	0.141828	0.667158	0.076950	-0.007080	0.253418	-0.692139	0.981828	-0.119318	-0.145605	0.023984
52193		3.680392	-2.042659	7.207764	0.085841	0.597888	0.140945	0.007812	0.250000	-0.700195	0.982615	-0.118864	-0.140474	0.024617
52194		3.305677	-2.222340	7.201918	0.120350	0.469664	0.185519	0.018311	0.251953	-0.688721	0.983253	-0.118150	-0.136341	0.025782
52195		3.423618	-2.079652	7.696193	0.181863	0.381124	0.178473	0.030029	0.247803	-0.706299	0.983835	-0.116904	-0.132927	0.027046
52196		3.916494	-1.992203	8.114436	0.173399	0.356093	0.134142	0.054688	0.241455	-0.702637	0.984378	-0.115672	-0.129765	0.027961
52197		3.711299	-1.705336	8.309229	0.079123	0.369513	0.091197	0.054443	0.240723	-0.695068	0.984841	-0.115168	-0.126558	0.028409
52198		2.350171	-1.818308	8.592818	-0.001052	0.292169	0.099127	0.063477	0.242920	-0.702393	0.985136	-0.115310	-0.123999	0.028911
52199		1.586906	-2.630838	9.136055	0.095735	0.153740	0.078026	0.058350	0.239502	-0.700439	0.985380	-0.114601	-0.122574	0.029472
52200		2.235093	-2.807620	9.725243	0.238066	0.157640	0.015819	0.068604	0.238525	-0.697754	0.985775	-0.112661	-0.121138	0.029664
52201		2.939990	-1.895401	10.183005	0.098828	0.325969	0.050880	0.082275	0.240479	-0.698486	0.986194	-0.111943	-0.118321	0.029847
52202		2.923904	-1.861190	9.845048	-0.182901	0.524484	0.148190	0.090332	0.234131	-0.700928	0.986505	-0.113682	-0.113850	0.030365
52203		2.644492	-1.952990	9.149051	-0.223157	0.636002	0.151099	0.107910	0.246826	-0.694580	0.986855	-0.115779	-0.108468	0.030761
52204		2.606660	-2.058850	8.237500	-0.099107	0.674247	0.042012	0.117432	0.239258	-0.694580	0.987355	-0.116762	-0.102843	0.030335
52205		2.806804	-1.982821	7.532029	0.026332	0.692214	-0.139414	0.133057	0.237549	-0.686279	0.988004	-0.116559	-0.097213	0.028505
52206		2.298001	-1.164685	7.248244	-0.086951	0.651086	-0.191235	0.134277	0.235107	-0.681641	0.988487	-0.117232	-0.091997	0.026196
52207		1.900315	-1.955548	7.056460	-0.278527	0.483337	-0.107079	0.145508	0.246338	-0.678223	0.988609	-0.119507	-0.088123	0.024596
52208		2.228137	-3.014903	7.032351	-0.211957	0.338721	-0.125630	0.158203	0.247803	-0.683594	0.988677	-0.121189	-0.085444	0.023036
52209		2.763414	-3.246747	7.158569	-0.116765	0.291261	-0.141618	0.166016	0.243896	-0.677002	0.988799	-0.122067	-0.083155	0.021461
52210		2.912102	-3.082741	6.975251	-0.082879	0.310246	-0.078791	0.170654	0.247803	-0.671143	0.988950	-0.122714	-0.080642	0.020409
52211		2.031257	-3.114651	6.911915	-0.059751	0.221183	0.057973	0.169678	0.247803	-0.670166	0.989034	-0.123249	-0.078722	0.020593
52212		2.055343	-2.769497	7.225058	-0.002736	0.051232	0.162928	0.166992	0.253906	-0.670166	0.989044	-0.123356	-0.078087	0.021854
52213		2.653936	-2.595633	7.526380	0.040276	-0.030203	0.161294	0.170654	0.250732	-0.671875	0.989043	-0.123094	-0.078119	0.023215
52214		2.296081	-2.073032	7.907065	-0.006390	-0.047542	0.134905	0.178467	0.252441	-0.674805	0.988986	-0.123197	-0.078333	0.024346
52215		1.856991	-2.462421	7.934225	0.010973	-0.097667	0.098595	0.173828	0.253906	-0.675293	0.988920	-0.123123	-0.078995	0.025241
52216		2.353896	-2.039308	8.125667	0.035159	-0.109585	0.094372	0.169678	0.250000	-0.677490	0.988871	-0.122845	-0.079756	0.026130
52217		2.630243	-1.694659	8.147865	-0.008847	-0.085091	0.146210	0.176025	0.252197	-0.681152	0.988779	-0.122969	-0.080273	0.027391
52218		2.137336	-1.876978	8.088778	0.017967	-0.157047	0.167716	0.174805	0.253906	-0.682861	0.988660	-0.122869	-0.081357	0.028920
52219		2.041543	-2.127855	7.987440	0.192237	-0.246513	0.094110	0.174805	0.247314	-0.677002	0.988670	-0.121261	-0.083213	0.030052
52220		1.952465	-1.514047	8.116162	0.278067	-0.244348	-0.008594	0.157959	0.243652	-0.680664	0.988786	-0.118874	-0.085133	0.030395
52221		1.803469	-0.870708	8.558493	0.063926	-0.214244	-0.003936	0.164307	0.246338	-0.682617	0.988703	-0.118261	-0.086856	0.030594
52222		2.745688	-1.547969	8.368964	-0.166065	-0.167212	0.001806	0.161377	0.243408	-0.678223	0.988424	-0.119556	-0.088244	0.030626
52223		2.691671	-2.085229	7.918056	-0.131343	-0.131783	-0.056111	0.157471	0.243652	-0.680664	0.988216	-0.120530	-0.089391	0.030171
52224		2.821513	-2.306260	7.264369	0.037747	-0.126762	-0.065517	0.152100	0.245361	-0.673584	0.988183	-0.120106	-0.090466	0.029758
52225		2.471312	-2.112734	6.814609	0.220687	-0.138114	-0.089639	0.146484	0.236572	-0.672607	0.988326	-0.118155	-0.091615	0.029297
52226		2.403736	-1.288779	6.766527	0.184813	-0.189956	-0.089778	0.139648	0.245117	-0.687256	0.988388	-0.116486	-0.093202	0.028858
52227		3.075968	-0.894429	6.714243	-0.072344	-0.249214	-0.046512	0.136719	0.232178	-0.685547	0.988140	-0.116954	-0.095298	0.028633
52228		3.384129	-1.293293	6.346820	-0.252589	-0.321478	-0.036951	0.117676	0.241211	-0.682373	0.987648	-0.118894	-0.098025	0.028413
52229		3.673604	-2.033246	5.938148	-0.166205	-0.407976	-0.089401	0.127930	0.245850	-0.680664	0.987170	-0.120057	-0.101498	0.027916
52230		3.655827	-2.227137	5.796136	0.092305	-0.498300	-0.180025	0.103516	0.248047	-0.689209	0.986879	-0.118995	-0.105748	0.026982
52231		3.740512	-1.748497	6.082521	0.195491	-0.579658	-0.199085	0.093750	0.250000	-0.690186	0.986597	-0.117047	-0.110663	0.026064
52232		4.345973	-1.163609	6.453910	0.021271	-0.646953	-0.142357	0.071777	0.245605	-0.696045	0.986042	-0.116566	-0.116116	0.025516
52233		4.265753	-1.170651	6.615419	-0.208364	-0.744834	-0.102355	0.053955	0.248779	-0.693604	0.985124	-0.117984	-0.122383	0.025167
52234		4.031838	-2.031116	6.600920	-0.213375	-0.896595	-0.120587	0.039795	0.243408	-0.698486	0.983999	-0.119387	-0.129914	0.024811
52235		3.848261	-2.779326	6.896152	0.057222	-1.039491	-0.208429	0.020020	0.249512	-0.696289	0.982938	-0.118438	-0.138642	0.024168
52236		4.474048	-2.429897	7.689142	0.282847	-1.094222	-0.223751	-0.013428	0.247070	-0.695801	0.981955	-0.115603	-0.147779	0.023712
52237		5.164571	-1.634086	8.345001	0.175505	-1.055354	-0.084804	-0.030518	0.235596	-0.698242	0.980803	-0.113817	-0.156477	0.024223
52238		5.055083	-1.899067	8.261465	0.013170	-1.018976	0.013609	-0.050293	0.235107	-0.700439	0.979449	-0.113483	-0.164808	0.025289
52239		4.144249	-1.969278	8.177596	0.047202	-1.075005	-0.033943	-0.080566	0.244873	-0.694336	0.977985	-0.112786	-0.173626	0.026065
52240		3.811751	-1.688307	8.540424	0.123403	-1.179319	-0.093583	-0.107178	0.237549	-0.694336	0.976366	-0.111349	-0.183319	0.026560
52241		4.787241	-1.556026	8.853638	0.134877	-1.201729	-0.111377	-0.130371	0.236328	-0.686523	0.974629	-0.109774	-0.193190	0.026945
52242		5.700234	-1.318334	9.008750	0.036253	-1.102645	-0.096909	-0.150146	0.231445	-0.686279	0.972865	-0.109035	-0.202249	0.027195
52243		5.600837	-1.387320	8.862105	-0.057029	-1.026987	-0.119354	-0.170898	0.231201	-0.675781	0.971072	-0.109021	-0.210722	0.027034
52244		5.183312	-1.271407	8.758215	-0.079518	-1.038529	-0.208860	-0.202637	0.237549	-0.669922	0.969182	-0.109019	-0.219361	0.026116
52245		4.927998	-1.464443	8.616141	-0.070864	-1.108326	-0.297204	-0.228516	0.238281	-0.655273	0.967109	-0.108760	-0.228624	0.024560
52246		5.236238	-2.089240	8.465190	0.031245	-1.142716	-0.389205	-0.258057	0.222412	-0.640137	0.964987	-0.107484	-0.238205	0.022485
52247		6.247452	-2.068867	8.637343	0.107434	-1.101361	-0.413644	-0.281250	0.220459	-0.626953	0.962924	-0.105543	-0.247437	0.020326
52248		6.766726	-1.690018	8.630572	0.009714	-1.032411	-0.323533	-0.296631	0.211914	-0.621338	0.960814	-0.104574	-0.256034	0.018625
52249		6.527605	-1.767803	8.237206	-0.082200	-1.017691	-0.277396	-0.323242	0.208740	-0.602051	0.958571	-0.104433	-0.264468	0.017083
52250		5.798438	-1.876429	8.083366	-0.083466	-1.100069	-0.325044	-0.346191	0.199707	-0.579834	0.956070	-0.104175	-0.273581	0.015226
52251		5.632997	-2.285890	8.068684	0.021300	-1.225607	-0.396305	-0.358643	0.198730	-0.562012	0.953282	-0.102893	-0.283714	0.013148
52252		6.157006	-2.348872	8.249297	0.125737	-1.270304	-0.418248	-0.385742	0.192139	-0.539551	0.950365	-0.100713	-0.294176	0.011179
52253		6.933824	-2.196916	8.649230	0.089483	-1.221653	-0.339135	-0.406982	0.182617	-0.516113	0.947415	-0.099006	-0.304153	0.009707
52254		6.865169	-1.904559	8.758833	-0.030737	-1.146604	-0.217063	-0.416504	0.168945	-0.500732	0.944447	-0.098554	-0.313416	0.008830
52255		7.217421	-2.049163	8.402851	-0.105254	-1.101735	-0.175772	-0.434814	0.165771	-0.468750	0.941445	-0.098791	-0.322269	0.008046
52256		7.242390	-2.305265	7.964461	-0.036006	-1.067738	-0.246937	-0.434570	0.171631	-0.442383	0.938515	-0.098287	-0.330881	0.006860
52257		6.869473	-2.304900	7.775528	0.107577	-1.073251	-0.350078	-0.441162	0.159180	-0.421143	0.935611	-0.096367	-0.339584	0.005268
52258		6.428831	-1.903144	7.987800	0.150686	-1.100478	-0.392548	-0.460205	0.145996	-0.393066	0.932579	-0.093981	-0.348499	0.003489
52259		6.762314	-1.331379	8.419266	-0.026283	-1.126803	-0.341493	-0.463867	0.135742	-0.366455	0.929240	-0.093109	-0.357549	0.001613
52260		7.625553	-1.482771	8.329617	-0.286761	-1.074781	-0.273991	-0.465332	0.125000	-0.343262	0.925766	-0.094446	-0.366112	-0.000558
52261		7.940513	-1.898890	7.896233	-0.372694	-0.971461	-0.292052	-0.463379	0.120850	-0.328613	0.922459	-0.096381	-0.373858	-0.003213
52262		7.429007	-2.208830	7.615336	-0.259792	-0.922342	-0.392693	-0.454102	0.112549	-0.304688	0.919321	-0.097126	-0.381281	-0.006330
52263		7.277274	-1.978201	7.639348	-0.122880	-0.938624	-0.494879	-0.454590	0.095947	-0.285889	0.916166	-0.096491	-0.388887	-0.009780
52264		7.930690	-1.636084	7.660061	-0.159491	-0.928749	-0.516346	-0.441650	0.089355	-0.270020	0.912939	-0.096057	-0.396400	-0.013520
52265		8.330207	-1.383839	7.364791	-0.324330	-0.861858	-0.467497	-0.437012	0.079102	-0.244873	0.909735	-0.097023	-0.403314	-0.017485
52266		8.042614	-1.510132	7.096175	-0.438394	-0.810270	-0.456957	-0.422607	0.081055	-0.232178	0.906547	-0.098873	-0.409782	-0.021796
52267		7.853757	-1.864694	6.974992	-0.441351	-0.825489	-0.537459	-0.417969	0.067139	-0.214844	0.903220	-0.100465	-0.416397	-0.026711
52268		8.022651	-1.988427	6.955190	-0.396337	-0.851586	-0.640342	-0.402100	0.063965	-0.200195	0.899740	-0.101359	-0.423267	-0.032221
52269		8.385004	-2.007182	6.905723	-0.408913	-0.829224	-0.668938	-0.391357	0.056885	-0.195312	0.896240	-0.102230	-0.429951	-0.038005
52270		8.756256	-2.062615	6.664171	-0.435951	-0.772161	-0.621112	-0.371826	0.044922	-0.181885	0.892859	-0.103447	-0.436121	-0.043574
52271		8.440710	-2.144870	6.343726	-0.416732	-0.738363	-0.534011	-0.356689	0.049561	-0.174561	0.889582	-0.104818	-0.441938	-0.048451
52272		8.335127	-2.289660	6.133703	-0.316097	-0.769087	-0.479702	-0.339844	0.043701	-0.176514	0.886242	-0.105649	-0.447945	-0.052524
52273		8.624040	-2.090949	5.985330	-0.199829	-0.808746	-0.455225	-0.329346	0.041504	-0.173828	0.882811	-0.105724	-0.454244	-0.055943
52274		8.981788	-1.850901	5.766385	-0.150702	-0.820757	-0.421393	-0.314941	0.038818	-0.179932	0.879339	-0.105565	-0.460596	-0.058913
52275		8.939493	-1.832334	5.504705	-0.126879	-0.822838	-0.401056	-0.306641	0.037354	-0.173340	0.875836	-0.105305	-0.466929	-0.061636
52276		8.720891	-1.754121	5.303328	-0.087220	-0.848172	-0.394913	-0.306885	0.040039	-0.181641	0.872220	-0.104787	-0.473433	-0.064134
52277		8.733048	-1.505195	5.272449	-0.077472	-0.907050	-0.360316	-0.288574	0.044434	-0.177979	0.868342	-0.104359	-0.480309	-0.066285
52278		8.979346	-1.447353	5.127574	-0.078741	-0.969179	-0.297653	-0.284424	0.044434	-0.185547	0.864189	-0.104219	-0.487546	-0.067930
52279		9.108704	-1.595860	5.063138	-0.026574	-1.026196	-0.257023	-0.277832	0.052246	-0.196289	0.859808	-0.103894	-0.495150	-0.069015
52280		9.268131	-1.338804	5.145366	0.045654	-1.060551	-0.244620	-0.273438	0.055664	-0.210205	0.855285	-0.103114	-0.502991	-0.069677
52281		9.283099	-0.905970	5.286478	0.052283	-1.071467	-0.210759	-0.270020	0.060303	-0.210693	0.850671	-0.102427	-0.510842	-0.070055
52282		9.241508	-0.724812	5.374475	0.003380	-1.065847	-0.173813	-0.282227	0.068115	-0.229492	0.845991	-0.102232	-0.518550	-0.070378
52283		9.383493	-0.736268	5.282997	-0.005566	-1.046634	-0.165099	-0.281250	0.073486	-0.223633	0.841325	-0.102118	-0.526067	-0.070691
52284		9.521819	-0.685807	5.104188	0.034698	-1.000690	-0.197097	-0.287109	0.087646	-0.234863	0.836813	-0.101547	-0.533271	-0.071085
52285		9.490922	-0.526767	4.985485	0.075082	-0.954641	-0.261350	-0.282471	0.097168	-0.250488	0.832444	-0.100373	-0.540194	-0.071783
52286		9.422626	-0.359923	4.958056	0.060064	-0.923233	-0.341096	-0.292969	0.093262	-0.239990	0.828100	-0.098919	-0.546918	-0.073123
52287		9.525428	-0.220615	4.926465	-0.013726	-0.893771	-0.406413	-0.299561	0.109375	-0.249756	0.823734	-0.097650	-0.553409	-0.075271
52288		9.543271	-0.372944	4.771053	-0.107714	-0.862364	-0.451507	-0.304932	0.113037	-0.248047	0.819354	-0.096792	-0.559622	-0.078184
52289		9.323903	-0.635009	4.696304	-0.154876	-0.838194	-0.508842	-0.322510	0.125000	-0.246338	0.814958	-0.095966	-0.565647	-0.081722
52290		9.090851	-0.839619	4.777972	-0.163088	-0.815663	-0.560797	-0.332275	0.130859	-0.230957	0.810570	-0.094927	-0.571512	-0.085665
52291		9.161253	-0.858209	4.872955	-0.190573	-0.777426	-0.587841	-0.346191	0.137695	-0.229492	0.806269	-0.093912	-0.577079	-0.089946
52292		9.482448	-0.831323	4.829856	-0.272866	-0.707572	-0.564386	-0.346191	0.144531	-0.221436	0.802206	-0.093505	-0.582056	-0.094514
52293		9.440477	-1.039316	4.637342	-0.327222	-0.616069	-0.544649	-0.368652	0.149658	-0.208740	0.798516	-0.093479	-0.586326	-0.099279
52294		9.174173	-1.114518	4.426311	-0.339611	-0.544738	-0.569283	-0.381104	0.150635	-0.207031	0.795104	-0.093352	-0.590096	-0.104319
52295		9.064754	-1.034430	4.238298	-0.355832	-0.493691	-0.613869	-0.389404	0.150635	-0.201660	0.791852	-0.093064	-0.593515	-0.109768
52296		9.150978	-0.965629	4.031320	-0.411729	-0.452318	-0.634334	-0.396729	0.159424	-0.190674	0.788704	-0.093002	-0.596592	-0.115654
52297		9.266438	-1.122233	3.695863	-0.447669	-0.424642	-0.605743	-0.422363	0.151123	-0.182373	0.785652	-0.093288	-0.599395	-0.121545
52298		9.334921	-1.494208	3.264044	-0.395435	-0.418861	-0.563624	-0.432129	0.152588	-0.173828	0.782676	-0.093433	-0.602150	-0.126897
52299		9.477873	-1.636730	2.897520	-0.259225	-0.429958	-0.506000	-0.441650	0.145264	-0.166992	0.779782	-0.092988	-0.605051	-0.131175
52300		9.555275	-1.434770	2.572220	-0.131479	-0.457025	-0.417685	-0.466309	0.145264	-0.168701	0.776923	-0.092188	-0.608178	-0.134208
52301		9.398088	-1.162622	2.358637	-0.059920	-0.509474	-0.290773	-0.474365	0.146484	-0.163574	0.773975	-0.091625	-0.611612	-0.136011
52302		9.210898	-0.958508	2.265403	-0.006794	-0.602259	-0.152782	-0.490479	0.148926	-0.168213	0.770732	-0.091529	-0.615582	-0.136577
52303		9.666698	-0.526601	2.231145	0.055934	-0.692013	-0.018785	-0.498779	0.158691	-0.158936	0.767207	-0.091817	-0.620079	-0.135886
52304		10.042753	0.180214	2.217523	0.074933	-0.737255	0.108939	-0.516113	0.159668	-0.155273	0.763580	-0.092693	-0.624767	-0.134241
52305		10.264011	0.852163	2.068847	0.065598	-0.757642	0.188977	-0.531494	0.168945	-0.144531	0.759898	-0.094065	-0.629486	-0.132113
52306		10.190719	1.436682	1.907154	0.046781	-0.775584	0.191322	-0.545654	0.173828	-0.143066	0.756078	-0.095583	-0.634269	-0.130051
52307		10.153709	1.835218	1.945919	0.030373	-0.794991	0.100900	-0.561523	0.180176	-0.126221	0.752010	-0.096742	-0.639201	-0.128625
52308		10.287993	2.413611	2.022619	-0.021365	-0.796792	-0.030660	-0.574463	0.187012	-0.116455	0.747716	-0.097520	-0.644167	-0.128295
52309		10.150036	2.669595	2.230203	-0.118296	-0.784687	-0.165015	-0.591309	0.175293	-0.106934	0.743232	-0.098161	-0.649033	-0.129329
52310		10.217584	2.385535	2.367305	-0.190290	-0.757082	-0.336540	-0.607422	0.171631	-0.087646	0.738619	-0.098283	-0.653760	-0.131834
52311		10.375668	2.175250	2.465275	-0.211506	-0.675945	-0.524064	-0.612061	0.187012	-0.087646	0.734186	-0.097416	-0.658083	-0.135672
52312		10.646126	2.040750	2.439208	-0.260307	-0.547338	-0.639769	-0.631348	0.177734	-0.064941	0.730250	-0.096061	-0.661621	-0.140585
52313		10.469408	1.824376	2.226786	-0.280591	-0.426651	-0.695054	-0.633057	0.166260	-0.056152	0.726861	-0.094376	-0.664408	-0.146038
52314		10.115698	1.596172	1.869415	-0.234725	-0.367519	-0.699571	-0.641113	0.165771	-0.055908	0.723795	-0.092311	-0.666862	-0.151306
52315		9.727261	1.412498	1.645950	-0.129672	-0.361738	-0.702363	-0.667725	0.161865	-0.048584	0.720806	-0.089583	-0.669384	-0.156005
52316		9.668757	1.213868	1.574918	-0.038470	-0.375786	-0.704764	-0.666504	0.156494	-0.039551	0.717772	-0.086308	-0.672080	-0.160194
52317		9.716303	1.020082	1.592963	0.011374	-0.375733	-0.701735	-0.669922	0.148438	-0.039795	0.714748	-0.082747	-0.674809	-0.164079
52318		9.483224	0.640600	1.658788	0.043374	-0.378709	-0.686860	-0.688965	0.133301	-0.033447	0.711718	-0.079080	-0.677558	-0.167686
52319		9.033581	0.321777	1.885483	0.079392	-0.396241	-0.693113	-0.691650	0.130859	-0.022217	0.708574	-0.075186	-0.680435	-0.171108
52320		8.845448	0.062637	2.174524	0.083108	-0.409653	-0.698520	-0.704346	0.121094	-0.021973	0.705318	-0.071256	-0.683367	-0.174524
52321		8.714479	-0.400423	2.440983	0.067121	-0.377170	-0.693017	-0.704102	0.105713	-0.008789	0.702217	-0.067402	-0.686048	-0.178009
52322		8.623868	-0.985808	2.537504	0.080257	-0.308858	-0.690546	-0.720703	0.102783	-0.000977	0.699489	-0.063384	-0.688316	-0.181435
52323		8.388410	-1.261880	2.599917	0.097190	-0.223591	-0.676682	-0.721680	0.095947	-0.017090	0.697258	-0.059219	-0.690075	-0.184718
52324		7.883357	-1.167144	2.757940	0.040957	-0.169693	-0.564033	-0.721191	0.089355	-0.009521	0.695464	-0.055946	-0.691356	-0.187690
52325		7.632921	-1.699446	2.717293	0.002781	-0.168940	-0.389881	-0.734863	0.086182	-0.004150	0.693920	-0.053900	-0.692475	-0.189866
52326		7.890828	-2.093565	2.644668	0.070736	-0.159275	-0.232748	-0.738770	0.087402	-0.005859	0.692708	-0.052355	-0.693565	-0.190742
52327		8.230907	-1.839620	2.603379	0.147112	-0.106587	-0.058901	-0.718750	0.079834	-0.001221	0.692111	-0.051294	-0.694391	-0.190192
52328		7.912597	-1.371227	2.650938	0.164781	-0.058060	0.108256	-0.735352	0.083008	-0.008057	0.692069	-0.051025	-0.694888	-0.188592
52329		7.788207	-0.455524	2.834315	0.098131	-0.058904	0.245566	-0.719727	0.086182	-0.006836	0.692211	-0.051941	-0.695222	-0.186584
52330		8.314517	-0.073678	2.731921	-0.016813	-0.035389	0.344479	-0.729980	0.091797	-0.000244	0.692592	-0.054058	-0.695190	-0.184678
52331		9.177345	0.228769	2.314111	-0.078392	0.059036	0.337933	-0.729980	0.095215	-0.006836	0.693479	-0.056348	-0.694512	-0.183206
52332		9.505162	0.354014	1.718393	-0.099506	0.198363	0.256287	-0.726562	0.098145	-0.004639	0.695035	-0.058075	-0.693027	-0.182391
52333		9.068793	0.480349	1.266164	-0.063625	0.277481	0.115862	-0.717773	0.097656	-0.013672	0.696849	-0.058665	-0.691199	-0.182219
52334		8.421404	0.607467	1.178758	-0.054194	0.239299	0.038271	-0.715820	0.093506	-0.004883	0.698326	-0.058812	-0.689641	-0.182422
52335		8.472165	0.231637	1.254248	-0.050207	0.156075	0.034755	-0.713867	0.093506	-0.011230	0.699320	-0.059042	-0.688571	-0.182581
52336		9.037638	-0.146957	1.442505	-0.031008	0.138418	0.082577	-0.720459	0.098389	-0.021973	0.700295	-0.059463	-0.687607	-0.182340
52337		9.317395	-0.297266	1.496366	-0.013155	0.182616	0.199980	-0.713867	0.099854	-0.026123	0.701709	-0.060387	-0.686350	-0.181332
52338		8.599619	-0.393002	1.668788	0.054731	0.196965	0.332264	-0.714600	0.103760	-0.023193	0.703435	-0.061650	-0.685039	-0.179166
52339		8.077179	-0.146946	2.146403	0.135559	0.134102	0.436260	-0.706543	0.116943	-0.026367	0.704991	-0.063128	-0.684153	-0.175893
52340		8.602151	0.410692	2.700516	0.110965	0.125332	0.515203	-0.704590	0.117920	-0.024658	0.706589	-0.065213	-0.683226	-0.172287
52341		9.396609	0.714691	2.843754	-0.017273	0.228774	0.572089	-0.715576	0.125488	-0.038818	0.708773	-0.068227	-0.681456	-0.169128
52342		9.546531	0.875131	2.638027	-0.119046	0.366483	0.569934	-0.696777	0.132324	-0.040039	0.711659	-0.071634	-0.678707	-0.166633
52343		9.438416	1.216348	2.284933	-0.138788	0.452946	0.539312	-0.682373	0.135254	-0.040527	0.714958	-0.074862	-0.675410	-0.164477
52344		9.318341	1.209640	1.981192	-0.081869	0.466723	0.487876	-0.680176	0.139648	-0.047363	0.718275	-0.077439	-0.672116	-0.162311
52345		9.686306	1.289729	1.784638	0.019183	0.457060	0.418471	-0.676758	0.143066	-0.057129	0.721488	-0.079033	-0.669040	-0.159984
52346		10.070825	1.630138	1.690237	0.061194	0.463204	0.388494	-0.668457	0.148438	-0.063232	0.724704	-0.080196	-0.665983	-0.157603
52347		10.090897	1.727401	1.557370	0.059029	0.457952	0.383838	-0.656494	0.145508	-0.074951	0.727865	-0.081349	-0.662941	-0.155256
52348		10.010198	1.588438	1.437165	0.080336	0.420786	0.361236	-0.643311	0.149902	-0.081299	0.730787	-0.082294	-0.660151	-0.152900
52349		10.056960	1.431094	1.471698	0.138684	0.380668	0.300405	-0.635254	0.156494	-0.088379	0.733437	-0.082596	-0.657707	-0.150565
52350		9.893520	1.299440	1.727743	0.158557	0.364219	0.238048	-0.639648	0.153320	-0.094727	0.735918	-0.082453	-0.655421	-0.148488
52351		9.719604	1.052489	1.984407	0.129841	0.362891	0.200621	-0.633545	0.148682	-0.101807	0.738316	-0.082281	-0.653124	-0.146796
52352		9.715880	0.376698	2.071051	0.134824	0.381546	0.180852	-0.619873	0.152588	-0.104248	0.740784	-0.081946	-0.650721	-0.145210
52353		9.623929	0.011647	2.094561	0.196369	0.416578	0.158991	-0.615234	0.147949	-0.119873	0.743446	-0.081069	-0.648181	-0.143447
52354		9.225071	-0.298510	2.219324	0.251233	0.436290	0.168764	-0.593262	0.149414	-0.132080	0.746250	-0.079879	-0.645565	-0.141338
52355		8.790590	-0.531284	2.570262	0.279698	0.424477	0.197412	-0.583252	0.143311	-0.140137	0.749028	-0.078680	-0.643022	-0.138886
52356		8.718697	-1.014693	3.012060	0.288012	0.403884	0.242523	-0.572998	0.145996	-0.144775	0.751738	-0.077693	-0.640573	-0.136091
52357		9.109604	-1.413748	3.170021	0.286890	0.460832	0.291536	-0.550049	0.141357	-0.151611	0.754789	-0.076909	-0.637716	-0.133027
52358		9.421909	-1.542595	3.209072	0.257989	0.565601	0.346242	-0.550293	0.140869	-0.158936	0.758418	-0.076481	-0.634110	-0.129834
52359		9.270943	-1.262900	3.185843	0.166695	0.650350	0.428865	-0.528564	0.135010	-0.163086	0.762496	-0.076973	-0.629790	-0.126649
52360		8.980194	-1.205110	3.121869	0.032780	0.658757	0.525935	-0.507568	0.132324	-0.178467	0.766599	-0.078814	-0.625181	-0.123547
52361		9.181192	-1.285151	3.029340	-0.023278	0.635448	0.562073	-0.490723	0.136963	-0.183594	0.770543	-0.081223	-0.620605	-0.120483
52362		9.848373	-1.057322	2.939350	-0.048590	0.659275	0.550018	-0.472412	0.143066	-0.180908	0.774541	-0.083704	-0.615826	-0.117636
52363		10.045913	-0.667338	2.764839	-0.110980	0.708871	0.547130	-0.454346	0.143066	-0.188232	0.778705	-0.086521	-0.610632	-0.115154
52364		9.747384	-0.376785	2.646463	-0.179568	0.707703	0.548056	-0.437500	0.141357	-0.182617	0.782769	-0.089784	-0.605343	-0.113007
52365		9.542434	-0.106154	2.712274	-0.219464	0.646170	0.563190	-0.421631	0.148682	-0.188721	0.786461	-0.093436	-0.600373	-0.110909
52366		9.996513	-0.127143	2.744123	-0.217568	0.591491	0.582330	-0.418457	0.150635	-0.192871	0.789856	-0.097217	-0.595715	-0.108628
52367		10.536441	-0.224177	2.665594	-0.136787	0.600522	0.604021	-0.401367	0.161865	-0.194336	0.793339	-0.100560	-0.591022	-0.105804
52368		10.344816	-0.233967	2.543427	0.045199	0.604687	0.629809	-0.380615	0.167236	-0.201416	0.796973	-0.102817	-0.586410	-0.101911
52369		9.856185	0.347309	2.691614	0.231237	0.546411	0.663844	-0.384766	0.156006	-0.206299	0.800466	-0.104047	-0.582282	-0.096827
52370		9.879493	0.839691	2.936288	0.293936	0.480101	0.742777	-0.363770	0.150879	-0.219971	0.803708	-0.105287	-0.578545	-0.090850
52371		10.336644	0.867448	3.014216	0.327558	0.477176	0.770054	-0.356689	0.160645	-0.222412	0.806933	-0.106427	-0.574794	-0.084522
52372		10.608146	0.896205	2.916390	0.380862	0.520324	0.713871	-0.349854	0.145996	-0.226074	0.810319	-0.106899	-0.570803	-0.078352
52373		10.606709	0.928720	2.658647	0.440142	0.558804	0.609330	-0.332275	0.153076	-0.231934	0.813820	-0.106438	-0.566650	-0.072637
52374		10.200282	0.586879	2.490435	0.539174	0.534921	0.461959	-0.329834	0.137207	-0.241699	0.817157	-0.104615	-0.562817	-0.067430
52375		9.734813	0.930320	3.029614	0.550948	0.459142	0.289344	-0.325928	0.123291	-0.250732	0.820010	-0.101937	-0.559633	-0.063277
52376		9.546232	0.968088	3.734744	0.321535	0.410515	0.199391	-0.317139	0.120850	-0.256836	0.822366	-0.100427	-0.556719	-0.060767
52377		9.552242	0.369885	4.213655	0.052572	0.449848	0.133182	-0.309082	0.117188	-0.247314	0.824630	-0.100429	-0.553445	-0.059994
52378		9.620364	-0.372136	4.450657	-0.105176	0.548482	0.067644	-0.308105	0.108398	-0.239990	0.827167	-0.101160	-0.549458	-0.060482
52379		9.746736	-0.914130	4.438222	-0.127826	0.676949	0.018735	-0.299072	0.105957	-0.244873	0.830225	-0.101754	-0.544599	-0.061518
52380		9.403376	-1.222732	4.222763	-0.069662	0.770808	-0.020053	-0.290527	0.101074	-0.253418	0.833706	-0.101718	-0.539133	-0.062636
52381		9.254308	-1.323592	3.993272	-0.005574	0.795676	-0.030045	-0.293213	0.088379	-0.248291	0.837311	-0.101175	-0.533512	-0.063554
52382		9.291877	-1.342395	3.729714	0.012088	0.788511	-0.014748	-0.284912	0.085693	-0.247559	0.840869	-0.100576	-0.527914	-0.064277
52383		9.195423	-1.263636	3.628527	-0.030314	0.763528	0.031590	-0.271973	0.069092	-0.235596	0.844268	-0.100487	-0.522408	-0.064838
52384		8.876659	-1.400775	3.608726	-0.091951	0.712551	0.127596	-0.270996	0.071045	-0.239746	0.847411	-0.101274	-0.517126	-0.064947
52385		8.614314	-1.824410	3.717205	-0.053549	0.631902	0.231492	-0.263428	0.062744	-0.233887	0.850264	-0.102278	-0.512331	-0.064085
52386		8.955457	-2.024590	4.015119	0.085864	0.582338	0.315197	-0.265137	0.064941	-0.232178	0.853041	-0.102675	-0.507874	-0.061989
52387		9.385004	-1.825080	4.157289	0.227658	0.591358	0.384319	-0.264404	0.057617	-0.222168	0.855982	-0.102349	-0.503350	-0.058806
52388		9.309345	-1.416979	4.226956	0.290878	0.630210	0.432315	-0.264648	0.051758	-0.223877	0.859125	-0.101750	-0.498519	-0.055045
52389		9.051377	-1.070414	4.268644	0.280670	0.631155	0.425950	-0.268066	0.052734	-0.216309	0.862219	-0.101193	-0.493659	-0.051370
52390		8.911890	-0.765993	4.397806	0.191966	0.612888	0.364405	-0.261719	0.053711	-0.220459	0.865099	-0.101023	-0.488925	-0.048485
52391		9.068155	-0.568932	4.508888	0.032230	0.604157	0.277970	-0.274414	0.048828	-0.217041	0.867742	-0.101651	-0.484245	-0.046865
52392		9.306021	-0.580406	4.436144	-0.142315	0.629186	0.203642	-0.265137	0.052002	-0.209473	0.870281	-0.103228	-0.479366	-0.046508
52393		9.460177	-0.854575	4.141497	-0.230264	0.654248	0.135776	-0.260742	0.046631	-0.218018	0.872787	-0.105157	-0.474315	-0.047014
52394		9.341891	-0.974911	3.856358	-0.219743	0.652143	0.061208	-0.265869	0.046387	-0.216309	0.875233	-0.106711	-0.469334	-0.048019
52395		9.037432	-1.003441	3.693093	-0.177174	0.589178	0.027141	-0.276611	0.050049	-0.206543	0.877428	-0.107844	-0.464849	-0.049048
52396		8.925716	-1.070845	3.616347	-0.136784	0.498640	0.039104	-0.276367	0.040039	-0.202393	0.879291	-0.108762	-0.461023	-0.049750
52397		8.949746	-1.187961	3.606915	-0.074136	0.395195	0.088460	-0.280029	0.049316	-0.197266	0.880819	-0.109451	-0.457932	-0.049756
52398		9.109773	-1.183487	3.592032	0.010282	0.321899	0.148680	-0.281738	0.043457	-0.214111	0.882158	-0.109780	-0.455358	-0.048930
52399		8.999584	-1.077652	3.679567	0.097103	0.259160	0.187165	-0.285645	0.044922	-0.200439	0.883345	-0.109641	-0.453245	-0.047433
52400		8.815010	-0.754253	3.835141	0.141677	0.192059	0.218897	-0.285889	0.038330	-0.189941	0.884323	-0.109319	-0.451614	-0.045473
52401		8.876650	-0.494039	3.906441	0.142987	0.141121	0.226176	-0.291748	0.044189	-0.202637	0.885105	-0.109032	-0.450352	-0.043408
52402		8.901884	-0.351538	3.970989	0.116534	0.112654	0.184135	-0.286133	0.041992	-0.202637	0.885735	-0.108792	-0.449329	-0.041727
52403		8.606724	-0.288125	4.054111	0.080556	0.081898	0.097924	-0.287598	0.050049	-0.201660	0.886183	-0.108503	-0.448601	-0.040791
52404		8.428476	-0.291204	4.323452	0.020479	0.039016	0.011600	-0.291748	0.043701	-0.193359	0.886385	-0.108349	-0.448249	-0.040679
52405		8.539508	-0.572800	4.474810	-0.044344	0.014379	-0.053462	-0.290527	0.044678	-0.195068	0.886413	-0.108438	-0.448118	-0.041269
52406		8.579368	-0.894958	4.689207	-0.068923	0.018164	-0.098816	-0.295654	0.040039	-0.197021	0.886416	-0.108536	-0.447994	-0.042290
52407		8.323761	-0.992592	4.932893	-0.089573	0.012873	-0.116839	-0.295898	0.039062	-0.201660	0.886372	-0.108721	-0.447918	-0.043517
52408		8.256428	-1.145884	5.079060	-0.115103	-0.004835	-0.105995	-0.295410	0.039307	-0.195557	0.886240	-0.109141	-0.447955	-0.044743
52409		8.406492	-1.279373	5.123711	-0.115562	-0.007095	-0.103430	-0.294434	0.044189	-0.193359	0.886099	-0.109575	-0.448007	-0.045951
52410		8.210501	-1.342611	5.147858	-0.097334	-0.005590	-0.095772	-0.291748	0.046631	-0.190674	0.885981	-0.109901	-0.448048	-0.047035
52411		7.842318	-1.397836	5.240254	-0.064103	-0.033561	-0.092779	-0.295410	0.036621	-0.188721	0.885789	-0.110004	-0.448306	-0.047947
52412		7.795377	-1.503419	5.527093	-0.032660	-0.079148	-0.091386	-0.294922	0.039307	-0.199707	0.885455	-0.109898	-0.448911	-0.048690
52413		7.859304	-1.603536	5.744506	-0.029530	-0.091286	-0.092005	-0.293213	0.040771	-0.190186	0.885077	-0.109772	-0.449608	-0.049415
52414		7.823692	-1.740875	5.903252	-0.038712	-0.081431	-0.084005	-0.297363	0.036621	-0.191895	0.884730	-0.109740	-0.450220	-0.050124
52415		7.806719	-1.911244	5.945441	-0.030057	-0.056441	-0.061915	-0.297607	0.035156	-0.193359	0.884493	-0.109716	-0.450630	-0.050660
52416		7.740044	-2.013174	5.940216	0.006608	-0.033904	-0.034187	-0.296631	0.044189	-0.188477	0.884386	-0.109517	-0.450864	-0.050874
52417		7.625030	-1.824739	5.999542	0.022735	-0.021339	0.005315	-0.299072	0.043457	-0.189209	0.884358	-0.109343	-0.450976	-0.050747
52418		7.667464	-1.779528	5.967647	0.017683	-0.013917	0.035974	-0.295654	0.040527	-0.187744	0.884367	-0.109319	-0.451001	-0.050419
