// Start Time: Unknown
// Update Rate: 60.0Hz
// Filter Profile: human (46.1)
// Firmware Version: 4.6.0
PacketCounter	SampleTimeFine	Acc_X	Acc_Y	Acc_Z	Gyr_X	Gyr_Y	Gyr_Z	Mag_X	Mag_Y	Mag_Z	Quat_q0	Quat_q1	Quat_q2	Quat_q3
52889		0.429497	0.223813	9.700151	-0.023618	-0.007254	0.008296	-0.437256	-0.269043	-0.734619	-0.278075	-0.024560	-0.008485	-0.960208
52890		0.424216	0.194353	9.724415	-0.022726	-0.008204	0.014333	-0.440918	-0.273926	-0.727051	-0.277966	-0.024568	-0.008281	-0.960241
52891		0.481376	0.171959	9.772795	-0.020555	-0.009476	0.013095	-0.444092	-0.271240	-0.731201	-0.277866	-0.024597	-0.008090	-0.960271
52892		0.476980	0.200698	9.778334	-0.015218	-0.005178	0.020069	-0.436279	-0.267090	-0.727539	-0.277709	-0.024605	-0.007948	-0.960317
52893		0.502016	0.160139	9.788905	-0.012952	-0.004310	0.028392	-0.444336	-0.263672	-0.734863	-0.277484	-0.024613	-0.007820	-0.960383
52894		0.505481	0.144512	9.793101	-0.008222	0.003394	0.032235	-0.443604	-0.267578	-0.730713	-0.277228	-0.024573	-0.007741	-0.960459
52895		0.467749	0.155827	9.760919	-0.004134	0.005331	0.037658	-0.445557	-0.270264	-0.733887	-0.276926	-0.024529	-0.007690	-0.960547
52896		0.464400	0.173185	9.770718	-0.001858	0.009073	0.038941	-0.437988	-0.270508	-0.730957	-0.276613	-0.024461	-0.007658	-0.960639
52897		0.439051	0.263652	9.727695	-0.002035	0.008857	0.037663	-0.440430	-0.274902	-0.736572	-0.276311	-0.024395	-0.007617	-0.960728
52898		0.454055	0.327597	9.721101	-0.004516	0.010448	0.036888	-0.431641	-0.271484	-0.733398	-0.276015	-0.024313	-0.007559	-0.960816
52899		0.428692	0.364628	9.710643	-0.006234	0.008201	0.032046	-0.439453	-0.270020	-0.736328	-0.275758	-0.024248	-0.007489	-0.960892
52900		0.409709	0.342166	9.657055	-0.012324	0.002209	0.027348	-0.445068	-0.270752	-0.740479	-0.275541	-0.024220	-0.007365	-0.960956
52901		0.386848	0.302757	9.655436	-0.010479	-0.002269	0.022661	-0.446533	-0.265625	-0.736328	-0.275360	-0.024234	-0.007254	-0.961008
52902		0.421561	0.274969	9.645976	-0.007297	-0.005676	0.019717	-0.438232	-0.267822	-0.730469	-0.275204	-0.024280	-0.007166	-0.961053
52903		0.426909	0.291648	9.701593	-0.006499	-0.008768	0.016191	-0.445557	-0.270020	-0.722900	-0.275077	-0.024351	-0.007082	-0.961088
52904		0.481881	0.342100	9.727185	-0.010099	-0.007281	0.015494	-0.439697	-0.266846	-0.725830	-0.274955	-0.024406	-0.006978	-0.961122
52905		0.478054	0.398785	9.770352	-0.015732	-0.013373	0.014085	-0.432129	-0.268555	-0.742676	-0.274847	-0.024502	-0.006819	-0.961152
52906		0.498641	0.362569	9.748891	-0.016454	-0.009424	0.010222	-0.440186	-0.266602	-0.736328	-0.274770	-0.024567	-0.006676	-0.961173
52907		0.530749	0.294244	9.767682	-0.016204	-0.010493	0.011690	-0.440918	-0.267090	-0.731934	-0.274680	-0.024659	-0.006541	-0.961197
52908		0.542486	0.227913	9.756458	-0.016056	0.000181	0.008078	-0.436279	-0.274658	-0.736572	-0.274619	-0.024676	-0.006433	-0.961215
52909		0.537270	0.234775	9.738511	-0.012020	0.011818	0.008069	-0.446289	-0.272705	-0.731934	-0.274556	-0.024616	-0.006389	-0.961235
52910		0.490833	0.247132	9.768241	-0.010904	0.019616	0.002208	-0.430664	-0.272705	-0.736816	-0.274540	-0.024522	-0.006361	-0.961242
52911		0.453905	0.324895	9.745570	-0.007606	0.021221	0.001789	-0.433594	-0.265625	-0.736572	-0.274524	-0.024390	-0.006368	-0.961250
52912		0.416941	0.269872	9.750056	-0.007220	0.014072	0.002196	-0.445801	-0.272461	-0.731201	-0.274507	-0.024317	-0.006351	-0.961257
52913		0.399428	0.234391	9.700589	-0.007932	0.015251	-0.002561	-0.437256	-0.261719	-0.734375	-0.274529	-0.024271	-0.006344	-0.961252
52914		0.408616	0.249817	9.694621	-0.004867	0.007461	0.000440	-0.436768	-0.262451	-0.729248	-0.274528	-0.024246	-0.006314	-0.961253
52915		0.395226	0.303724	9.678130	-0.005346	-0.001492	-0.006086	-0.443604	-0.268066	-0.736328	-0.274581	-0.024279	-0.006264	-0.961237
52916		0.374319	0.322920	9.657877	-0.007042	-0.009273	-0.012728	-0.437256	-0.261475	-0.736328	-0.274684	-0.024413	-0.006206	-0.961205
52917		0.378306	0.330751	9.685677	-0.007238	-0.015777	-0.016346	-0.441650	-0.271240	-0.736816	-0.274819	-0.024552	-0.006119	-0.961163
52918		0.442322	0.331204	9.695905	-0.012253	-0.019620	-0.020774	-0.441162	-0.268799	-0.734131	-0.274988	-0.024741	-0.006030	-0.961110
52919		0.461409	0.340662	9.721752	-0.017036	-0.016216	-0.021040	-0.445312	-0.261475	-0.735107	-0.275161	-0.024882	-0.005905	-0.961058
52920		0.500630	0.298349	9.716278	-0.015088	-0.010130	-0.021406	-0.440674	-0.277832	-0.732910	-0.275337	-0.024991	-0.005778	-0.961006
52921		0.528952	0.270905	9.768455	-0.017777	-0.006095	-0.014623	-0.438965	-0.264404	-0.725098	-0.275460	-0.025070	-0.005723	-0.960968
52922		0.515008	0.212874	9.802746	-0.010093	-0.000740	-0.015179	-0.445557	-0.266357	-0.737305	-0.275581	-0.025086	-0.005664	-0.960934
52923		0.530141	0.192260	9.777094	-0.002449	0.003870	-0.016279	-0.436523	-0.270996	-0.737305	-0.275715	-0.025139	-0.005681	-0.960894
52924		0.546563	0.181432	9.779315	0.001348	0.008886	-0.011963	-0.439697	-0.262939	-0.723633	-0.275810	-0.025114	-0.005768	-0.960867
52925		0.503095	0.230731	9.766865	0.000202	0.014321	-0.010087	-0.440674	-0.266602	-0.730225	-0.275883	-0.025047	-0.005783	-0.960847
52926		0.501038	0.256803	9.697019	-0.001851	0.015057	-0.008113	-0.439941	-0.265381	-0.737549	-0.275945	-0.024992	-0.005806	-0.960831
52927		0.469705	0.303628	9.668759	-0.006772	0.021764	-0.008210	-0.444092	-0.264893	-0.734863	-0.276010	-0.024862	-0.005800	-0.960816
52928		0.418974	0.303178	9.656727	-0.009379	0.023893	-0.009715	-0.436768	-0.271729	-0.732178	-0.276085	-0.024744	-0.005770	-0.960797
52929		0.375884	0.252337	9.629148	-0.013235	0.023673	-0.012779	-0.443115	-0.262207	-0.733154	-0.276191	-0.024577	-0.005776	-0.960771
52930		0.353732	0.203615	9.645489	-0.013180	0.018874	-0.014036	-0.437500	-0.269531	-0.737549	-0.276298	-0.024471	-0.005687	-0.960744
52931		0.389087	0.192989	9.691809	-0.015088	0.013530	-0.013132	-0.435791	-0.268311	-0.723633	-0.276407	-0.024365	-0.005637	-0.960715
52932		0.450283	0.201388	9.730203	-0.017006	0.010958	-0.011328	-0.440430	-0.265869	-0.742188	-0.276501	-0.024269	-0.005557	-0.960691
52933		0.462377	0.175079	9.798368	-0.019849	0.009230	-0.007626	-0.442139	-0.269287	-0.734375	-0.276563	-0.024191	-0.005413	-0.960676
52934		0.466324	0.166798	9.830454	-0.022436	0.006431	-0.002459	-0.447021	-0.269043	-0.728027	-0.276586	-0.024168	-0.005265	-0.960671
52935		0.495713	0.119601	9.765237	-0.020578	0.002585	0.001320	-0.435303	-0.273193	-0.735107	-0.276571	-0.024240	-0.005108	-0.960674
52936		0.478089	0.078496	9.809249	-0.018012	0.008769	0.005534	-0.439209	-0.277832	-0.730713	-0.276540	-0.024154	-0.005042	-0.960685
52937		0.484327	0.079716	9.761557	-0.007187	0.013379	0.010883	-0.442139	-0.269531	-0.736816	-0.276471	-0.024121	-0.005101	-0.960706
52938		0.430765	0.141869	9.699162	-0.005325	0.017978	0.009440	-0.438232	-0.270752	-0.735352	-0.276398	-0.024044	-0.005088	-0.960729
52939		0.377261	0.235721	9.688452	-0.001949	0.021081	0.010122	-0.435791	-0.270996	-0.730713	-0.276323	-0.023916	-0.005129	-0.960753
52940		0.381376	0.265816	9.678548	0.001425	0.024183	0.010804	-0.436279	-0.262207	-0.732178	-0.276247	-0.023759	-0.005222	-0.960779
52941		0.385517	0.295817	9.668652	-0.003087	0.020969	0.010194	-0.436035	-0.269287	-0.741943	-0.276159	-0.023592	-0.005184	-0.960809
52942		0.385109	0.276837	9.658928	-0.007367	0.013169	0.009600	-0.435791	-0.268799	-0.738281	-0.276090	-0.023464	-0.005165	-0.960831
52943		0.379514	0.236278	9.687099	-0.004980	0.012854	0.010187	-0.438477	-0.267090	-0.741943	-0.276018	-0.023355	-0.005169	-0.960855
52944		0.363791	0.205855	9.651306	-0.003507	0.010613	0.011767	-0.441895	-0.259033	-0.731689	-0.275922	-0.023275	-0.005151	-0.960884
52945		0.366911	0.227425	9.721096	0.000011	0.010408	0.012281	-0.437988	-0.269287	-0.731201	-0.275793	-0.023259	-0.005079	-0.960922
52946		0.407075	0.258109	9.739374	-0.001857	0.005810	0.013721	-0.435791	-0.260498	-0.736572	-0.275695	-0.023269	-0.005112	-0.960950
52947		0.400681	0.289646	9.745195	0.000076	0.005612	0.011018	-0.440918	-0.265869	-0.739746	-0.275591	-0.023202	-0.005062	-0.960982
52948		0.408143	0.270878	9.781293	-0.001019	0.006247	0.011637	-0.431885	-0.266846	-0.747559	-0.275483	-0.023192	-0.005050	-0.961013
52949		0.406960	0.270502	9.781353	-0.002783	0.008815	0.008044	-0.440430	-0.259766	-0.736084	-0.275434	-0.023012	-0.005059	-0.961031
52950		0.411461	0.291213	9.743521	-0.005499	0.008713	0.004899	-0.436523	-0.269775	-0.734863	-0.275356	-0.022968	-0.004962	-0.961055
52951		0.424984	0.297354	9.755719	-0.007062	0.012236	0.003131	-0.427246	-0.270020	-0.739746	-0.275356	-0.022890	-0.004997	-0.961057
52952		0.433571	0.259481	9.782033	-0.007027	0.012980	0.003677	-0.434814	-0.270020	-0.738037	-0.275388	-0.022668	-0.005062	-0.961053
52953		0.424526	0.232500	9.806111	-0.006828	0.013933	0.005501	-0.433105	-0.267334	-0.735107	-0.275380	-0.022548	-0.005108	-0.961058
52954		0.388473	0.231117	9.777937	-0.001552	0.016090	0.002942	-0.440674	-0.264648	-0.733887	-0.275384	-0.022414	-0.005181	-0.961059
52955		0.383181	0.217799	9.736195	-0.000658	0.014502	0.000500	-0.440186	-0.267822	-0.738770	-0.275362	-0.022392	-0.005200	-0.961066
52956		0.386647	0.239236	9.698400	0.000707	0.016309	0.002798	-0.433838	-0.260986	-0.737793	-0.275341	-0.022332	-0.005266	-0.961073
52957		0.360022	0.277599	9.688087	0.000454	0.017380	0.001332	-0.436523	-0.268799	-0.732178	-0.275307	-0.022164	-0.005271	-0.961086
52958		0.329097	0.271800	9.691832	-0.002709	0.012465	0.001562	-0.440918	-0.263184	-0.738281	-0.275322	-0.022136	-0.005342	-0.961082
52959		0.309175	0.277805	9.675688	-0.003519	0.006490	0.001836	-0.441406	-0.269775	-0.735352	-0.275273	-0.022146	-0.005293	-0.961097
52960		0.317167	0.258438	9.711781	-0.005315	-0.002901	0.002009	-0.441406	-0.255371	-0.732666	-0.275268	-0.022278	-0.005301	-0.961095
52961		0.385226	0.258608	9.768451	-0.008639	-0.008024	0.000960	-0.437744	-0.266602	-0.739014	-0.275177	-0.022405	-0.005088	-0.961119
52962		0.402207	0.237828	9.742780	-0.005444	-0.008648	-0.001079	-0.433838	-0.264160	-0.738525	-0.275189	-0.022488	-0.005054	-0.961114
52963		0.400920	0.254807	9.752640	-0.008065	-0.003745	-0.001684	-0.432373	-0.263672	-0.738281	-0.275209	-0.022465	-0.004995	-0.961109
52964		0.356709	0.236656	9.730224	-0.004274	-0.001511	0.001752	-0.430176	-0.259521	-0.737061	-0.275205	-0.022414	-0.004971	-0.961111
52965		0.363337	0.208639	9.738379	-0.003269	-0.000865	0.000947	-0.435791	-0.266357	-0.736816	-0.275186	-0.022324	-0.004914	-0.961119
52966		0.406201	0.216691	9.732905	-0.001132	-0.000110	0.000071	-0.437500	-0.259766	-0.735840	-0.275202	-0.022339	-0.004947	-0.961114
52967		0.410130	0.207262	9.750941	-0.000017	0.002769	0.000906	-0.442139	-0.268555	-0.729492	-0.275143	-0.022340	-0.004901	-0.961131
52968		0.362532	0.207913	9.738424	-0.003104	0.005625	0.004583	-0.432373	-0.264648	-0.731934	-0.275106	-0.022464	-0.004953	-0.961139
52969		0.351588	0.243856	9.712287	-0.006340	-0.000778	0.003719	-0.439453	-0.256104	-0.735596	-0.275100	-0.022456	-0.004943	-0.961141
52970		0.335554	0.257831	9.724008	-0.009179	-0.005277	0.006504	-0.429199	-0.269775	-0.732910	-0.274950	-0.022512	-0.004744	-0.961183
52971		0.361949	0.195558	9.710547	-0.009650	-0.008670	0.001762	-0.428711	-0.265137	-0.743408	-0.275041	-0.022525	-0.004781	-0.961157
52972		0.368325	0.189168	9.742499	-0.007639	-0.007378	0.000153	-0.436523	-0.264404	-0.739502	-0.275099	-0.022413	-0.004748	-0.961143
52973		0.358976	0.224786	9.716332	-0.006219	-0.007597	0.002093	-0.432617	-0.260986	-0.735840	-0.275086	-0.022451	-0.004692	-0.961146
52974		0.320981	0.201874	9.725845	-0.003563	-0.011756	0.003241	-0.434570	-0.262695	-0.740479	-0.275048	-0.022488	-0.004625	-0.961156
52975		0.373229	0.239763	9.710355	-0.005126	-0.008232	0.001476	-0.443115	-0.271484	-0.742676	-0.275035	-0.022485	-0.004561	-0.961160
52976		0.400232	0.209405	9.748578	-0.004083	-0.006842	0.001218	-0.434814	-0.262695	-0.737793	-0.275077	-0.022609	-0.004595	-0.961145
52977		0.427306	0.152385	9.748993	-0.003648	-0.004195	0.005415	-0.430664	-0.263428	-0.738770	-0.275032	-0.022601	-0.004557	-0.961159
52978		0.379131	0.144178	9.708558	-0.001672	-0.003646	0.003260	-0.431152	-0.270996	-0.731445	-0.275038	-0.022529	-0.004562	-0.961159
52979		0.382129	0.205988	9.704429	0.000199	-0.003988	0.008489	-0.441162	-0.262451	-0.736816	-0.275099	-0.022570	-0.004699	-0.961139
52980		0.391676	0.240421	9.708408	-0.001133	-0.005049	0.006736	-0.440430	-0.261719	-0.741455	-0.275003	-0.022671	-0.004649	-0.961165
52981		0.374875	0.250900	9.706176	-0.003738	-0.002914	0.005229	-0.432861	-0.266602	-0.735840	-0.274917	-0.022691	-0.004568	-0.961189
52982		0.375780	0.249996	9.706164	-0.007069	-0.008035	0.004177	-0.440674	-0.266113	-0.737793	-0.274947	-0.022708	-0.004563	-0.961180
52983		0.381501	0.212885	9.686334	-0.005056	-0.006743	0.002568	-0.442627	-0.263916	-0.730957	-0.274942	-0.022808	-0.004536	-0.961180
52984		0.340006	0.203664	9.691831	-0.005332	-0.009182	-0.000350	-0.438232	-0.259521	-0.739014	-0.274922	-0.023005	-0.004479	-0.961181
52985		0.394285	0.249716	9.704232	-0.009848	-0.012388	-0.000969	-0.449219	-0.269043	-0.733154	-0.274878	-0.023058	-0.004318	-0.961193
52986		0.415003	0.241467	9.720335	-0.011007	-0.016010	-0.002351	-0.432617	-0.268555	-0.744629	-0.274906	-0.023381	-0.004246	-0.961177
52987		0.369612	0.236314	9.693869	-0.011587	-0.015351	-0.006373	-0.439697	-0.266113	-0.731934	-0.275044	-0.023352	-0.004206	-0.961139
52988		0.412110	0.207612	9.730143	-0.011716	-0.014814	-0.007106	-0.442383	-0.267822	-0.732422	-0.275128	-0.023522	-0.004133	-0.961111
52989		0.463338	0.187177	9.732586	-0.006319	-0.010424	-0.008025	-0.444336	-0.261230	-0.740234	-0.275230	-0.023705	-0.004125	-0.961077
52990		0.475363	0.229501	9.764493	-0.005578	-0.005934	-0.009385	-0.442627	-0.260498	-0.743408	-0.275264	-0.023779	-0.004017	-0.961066
52991		0.425204	0.239304	9.734055	-0.001929	-0.006680	-0.008139	-0.439453	-0.257324	-0.736816	-0.275290	-0.023812	-0.003927	-0.961058
52992		0.446654	0.241260	9.778060	-0.000342	-0.006694	-0.004923	-0.440918	-0.263916	-0.739990	-0.275264	-0.023851	-0.003835	-0.961065
52993		0.457306	0.227138	9.720339	0.004867	0.003029	-0.005303	-0.443115	-0.257080	-0.744629	-0.275306	-0.023841	-0.003886	-0.961053
52994		0.450440	0.206221	9.758215	0.002614	0.009089	-0.002793	-0.442139	-0.263184	-0.732910	-0.275257	-0.023740	-0.003819	-0.961070
52995		0.461377	0.200986	9.728489	0.004803	0.007822	-0.004033	-0.438232	-0.270264	-0.723145	-0.275266	-0.023772	-0.003881	-0.961066
52996		0.419067	0.250809	9.716093	0.002146	0.002932	-0.008447	-0.440186	-0.264404	-0.731689	-0.275388	-0.023899	-0.004042	-0.961028
52997		0.388460	0.316500	9.697785	-0.003213	-0.000717	-0.006981	-0.432373	-0.260254	-0.740479	-0.275440	-0.023968	-0.004042	-0.961011
52998		0.380260	0.334182	9.661826	-0.010665	-0.002205	-0.011660	-0.440186	-0.265869	-0.738770	-0.275535	-0.023831	-0.003934	-0.960988
52999		0.377269	0.292745	9.689776	-0.013121	-0.006145	-0.014250	-0.441650	-0.260010	-0.732422	-0.275670	-0.023865	-0.003850	-0.960948
53000		0.400537	0.243740	9.672090	-0.013478	-0.010071	-0.018264	-0.443848	-0.255859	-0.732910	-0.275763	-0.023982	-0.003686	-0.960919
53001		0.424921	0.226052	9.706172	-0.009740	-0.012095	-0.016835	-0.439697	-0.263916	-0.742920	-0.275792	-0.024131	-0.003485	-0.960908
53002		0.430777	0.215452	9.724112	-0.006981	-0.009077	-0.020713	-0.441650	-0.269287	-0.732910	-0.275972	-0.024146	-0.003417	-0.960856
53003		0.483497	0.204442	9.754427	-0.003879	-0.010592	-0.015374	-0.443604	-0.257324	-0.734863	-0.276131	-0.024314	-0.003454	-0.960806
53004		0.466495	0.210165	9.738259	-0.007917	-0.008240	-0.018813	-0.437988	-0.258789	-0.733887	-0.276201	-0.024414	-0.003293	-0.960784
53005		0.436967	0.221669	9.751901	-0.004062	-0.008030	-0.015744	-0.439697	-0.272705	-0.739014	-0.276289	-0.024460	-0.003206	-0.960758
53006		0.473767	0.203804	9.770128	-0.003125	-0.002589	-0.015275	-0.438721	-0.261475	-0.738770	-0.276496	-0.024494	-0.003303	-0.960697
53007		0.481617	0.233584	9.760232	-0.004107	0.000274	-0.013012	-0.439209	-0.261475	-0.733643	-0.276588	-0.024451	-0.003253	-0.960672
53008		0.478753	0.251219	9.770219	-0.001871	0.006034	-0.011338	-0.438721	-0.267578	-0.740479	-0.276653	-0.024419	-0.003243	-0.960654
53009		0.445727	0.258873	9.770012	-0.003481	0.008814	-0.013644	-0.434082	-0.255615	-0.736572	-0.276808	-0.024321	-0.003291	-0.960612
53010		0.427239	0.242871	9.730052	-0.000031	0.007125	-0.014227	-0.442383	-0.272461	-0.736328	-0.276869	-0.024177	-0.003234	-0.960598
53011		0.416408	0.204329	9.712062	0.003200	0.007255	-0.015725	-0.441162	-0.266846	-0.739502	-0.277054	-0.024214	-0.003388	-0.960543
53012		0.393196	0.224953	9.691983	0.000455	0.009922	-0.017959	-0.439697	-0.267822	-0.735107	-0.277215	-0.024158	-0.003449	-0.960498
53013		0.354740	0.237897	9.659806	-0.002725	0.007766	-0.016824	-0.439453	-0.259766	-0.727539	-0.277373	-0.024137	-0.003503	-0.960453
53014		0.317022	0.250140	9.627613	-0.007933	0.000799	-0.015538	-0.436035	-0.267334	-0.730225	-0.277431	-0.024192	-0.003412	-0.960435
53015		0.304337	0.250254	9.643451	-0.009595	-0.009136	-0.014651	-0.439941	-0.264893	-0.732422	-0.277576	-0.024283	-0.003388	-0.960391
53016		0.317031	0.265195	9.637568	-0.011755	-0.013411	-0.015233	-0.444336	-0.262695	-0.732422	-0.277688	-0.024421	-0.003287	-0.960355
53017		0.359724	0.263106	9.711642	-0.014514	-0.022717	-0.013727	-0.435791	-0.273682	-0.730469	-0.277748	-0.024670	-0.003099	-0.960332
53018		0.414688	0.250447	9.741897	-0.018123	-0.024008	-0.015334	-0.438232	-0.270020	-0.741943	-0.277960	-0.024866	-0.003054	-0.960266
53019		0.451243	0.244543	9.756006	-0.011667	-0.023741	-0.018334	-0.436035	-0.270752	-0.735840	-0.278172	-0.024991	-0.002982	-0.960201
53020		0.476564	0.222773	9.775956	-0.009385	-0.020003	-0.017021	-0.434814	-0.263184	-0.732910	-0.278377	-0.025116	-0.002965	-0.960139
53021		0.479344	0.221646	9.775846	-0.006060	-0.014870	-0.015965	-0.437256	-0.270020	-0.742676	-0.278498	-0.025187	-0.002903	-0.960102
53022		0.494668	0.166465	9.791705	-0.000206	-0.010583	-0.013595	-0.438965	-0.277344	-0.732178	-0.278675	-0.025210	-0.002950	-0.960050
53023		0.464255	0.174517	9.791422	0.001117	-0.006751	-0.010929	-0.436523	-0.273438	-0.733643	-0.278882	-0.025338	-0.003114	-0.959986
53024		0.480283	0.182391	9.803449	0.006101	-0.003651	-0.007023	-0.440430	-0.263916	-0.728271	-0.279019	-0.025395	-0.003279	-0.959944
53025		0.493064	0.177463	9.773585	0.002608	-0.002713	-0.006983	-0.435791	-0.271484	-0.733154	-0.279044	-0.025491	-0.003296	-0.959934
53026		0.465487	0.230167	9.759502	0.007070	0.002537	-0.006003	-0.454102	-0.261963	-0.727783	-0.279151	-0.025486	-0.003457	-0.959903
53027		0.419270	0.262626	9.691459	0.001650	0.003659	-0.003257	-0.440430	-0.267090	-0.739990	-0.279115	-0.025685	-0.003405	-0.959908
53028		0.373127	0.241149	9.655245	0.000478	0.002801	-0.003730	-0.438721	-0.264893	-0.734131	-0.279159	-0.025644	-0.003429	-0.959896
53029		0.362785	0.282144	9.643286	-0.001864	0.001084	-0.004678	-0.442627	-0.261719	-0.740234	-0.279183	-0.025630	-0.003422	-0.959890
53030		0.387554	0.296488	9.621552	-0.009483	-0.009096	-0.005435	-0.437256	-0.264893	-0.733887	-0.279193	-0.025666	-0.003269	-0.959886
53031		0.418038	0.247213	9.649549	-0.012381	-0.015101	-0.003748	-0.437988	-0.263916	-0.733887	-0.279216	-0.025742	-0.003149	-0.959878
53032		0.418475	0.209647	9.691268	-0.014973	-0.018512	-0.007072	-0.435059	-0.262939	-0.735107	-0.279257	-0.025842	-0.002990	-0.959864
53033		0.436506	0.210889	9.689239	-0.006511	-0.028907	-0.007958	-0.428467	-0.264648	-0.732910	-0.279303	-0.025996	-0.002872	-0.959847
53034		0.492382	0.199847	9.719225	-0.007082	-0.027502	-0.011430	-0.441895	-0.264404	-0.733643	-0.279410	-0.026083	-0.002801	-0.959814
53035		0.512706	0.210704	9.745055	-0.002057	-0.023657	-0.006979	-0.440674	-0.275635	-0.730713	-0.279446	-0.026293	-0.002729	-0.959798
53036		0.511756	0.246579	9.764853	-0.000096	-0.023096	-0.009140	-0.448486	-0.263916	-0.729736	-0.279623	-0.026546	-0.002808	-0.959739
53037		0.471615	0.233557	9.756467	0.000189	-0.020660	-0.006216	-0.444336	-0.267090	-0.729980	-0.279629	-0.026830	-0.002738	-0.959729
53038		0.491242	0.244818	9.782317	-0.003872	-0.021246	-0.002625	-0.444092	-0.276611	-0.730225	-0.279650	-0.027064	-0.002682	-0.959717
53039		0.509501	0.251031	9.794226	-0.008909	-0.016045	-0.003782	-0.443359	-0.261475	-0.734619	-0.279780	-0.027267	-0.002703	-0.959673
53040		0.534979	0.260501	9.758366	-0.009925	-0.013930	-0.002061	-0.447754	-0.276367	-0.730469	-0.279751	-0.027355	-0.002549	-0.959680
53041		0.525746	0.215658	9.726288	-0.010585	-0.002193	-0.002422	-0.442383	-0.267578	-0.729980	-0.279863	-0.027474	-0.002574	-0.959643
53042		0.493219	0.217663	9.712251	-0.008623	-0.001631	-0.004584	-0.441650	-0.265869	-0.731934	-0.279909	-0.027507	-0.002539	-0.959629
53043		0.432207	0.187558	9.664145	-0.006806	0.002238	-0.006561	-0.440186	-0.270996	-0.730957	-0.279957	-0.027485	-0.002508	-0.959616
53044		0.405889	0.189395	9.695972	-0.004382	-0.003605	-0.007814	-0.450195	-0.259277	-0.724121	-0.280063	-0.027524	-0.002545	-0.959583
53045		0.435098	0.194759	9.692075	-0.002587	-0.006179	-0.004237	-0.441162	-0.259766	-0.734131	-0.280011	-0.027707	-0.002443	-0.959594
53046		0.458242	0.174415	9.711965	0.000038	-0.008305	-0.002746	-0.436523	-0.268066	-0.737061	-0.279975	-0.027741	-0.002375	-0.959603
53047		0.511073	0.217923	9.710184	0.000447	-0.012687	-0.001470	-0.443115	-0.262695	-0.727783	-0.280020	-0.027764	-0.002397	-0.959590
53048		0.500856	0.223532	9.739967	-0.000780	-0.011521	-0.001576	-0.442871	-0.264648	-0.730713	-0.279986	-0.027896	-0.002351	-0.959596
53049		0.521988	0.274209	9.738113	-0.006541	-0.010818	-0.001376	-0.444824	-0.268555	-0.733154	-0.279978	-0.027988	-0.002278	-0.959596
53050		0.534119	0.315654	9.770147	-0.015142	-0.008939	-0.004493	-0.439209	-0.271973	-0.736572	-0.280040	-0.028057	-0.002172	-0.959576
53051		0.527744	0.309621	9.710337	-0.017515	-0.005121	-0.003605	-0.443848	-0.271729	-0.728516	-0.280143	-0.028017	-0.002104	-0.959547
53052		0.450271	0.261078	9.729965	-0.025577	-0.008163	-0.004716	-0.437744	-0.266113	-0.734619	-0.280236	-0.028090	-0.001962	-0.959518
53053		0.464871	0.255565	9.714085	-0.026624	-0.009561	-0.004459	-0.447754	-0.261719	-0.731689	-0.280287	-0.028046	-0.001762	-0.959505
53054		0.534254	0.226238	9.732079	-0.026987	-0.007204	-0.006100	-0.444336	-0.268555	-0.729492	-0.280296	-0.028094	-0.001498	-0.959501
53055		0.542938	0.198961	9.753943	-0.024386	-0.003796	-0.002777	-0.449463	-0.271240	-0.720215	-0.280350	-0.028121	-0.001348	-0.959485
53056		0.484946	0.175213	9.733806	-0.017825	-0.007729	0.001399	-0.444824	-0.261230	-0.722900	-0.280377	-0.028321	-0.001269	-0.959471
53057		0.472494	0.143588	9.697691	-0.009433	-0.010556	0.002681	-0.443604	-0.267822	-0.723145	-0.280299	-0.028463	-0.001161	-0.959490
53058		0.498036	0.184502	9.713852	-0.001439	-0.011768	0.001773	-0.443115	-0.269043	-0.731445	-0.280296	-0.028637	-0.001186	-0.959486
53059		0.527209	0.212675	9.733883	0.002671	-0.013371	0.005740	-0.433350	-0.259277	-0.722900	-0.280287	-0.028769	-0.001237	-0.959484
53060		0.524989	0.222710	9.715861	0.005073	-0.013677	0.006315	-0.449219	-0.270752	-0.732422	-0.280164	-0.028840	-0.001254	-0.959518
53061		0.505128	0.243397	9.695903	0.001401	-0.012948	0.005087	-0.441895	-0.264893	-0.734375	-0.280177	-0.029019	-0.001292	-0.959509
53062		0.494271	0.244521	9.711735	-0.002915	-0.015233	0.006306	-0.440186	-0.267822	-0.726318	-0.280132	-0.029100	-0.001252	-0.959520
53063		0.533566	0.284003	9.711896	-0.009298	-0.013862	0.002496	-0.437744	-0.266113	-0.730469	-0.280137	-0.029201	-0.001212	-0.959515
53064		0.515978	0.310317	9.719992	-0.020172	-0.014979	-0.001373	-0.442383	-0.263184	-0.737061	-0.280169	-0.029225	-0.001069	-0.959505
53065		0.541538	0.264528	9.715705	-0.021844	-0.012939	-0.004213	-0.440918	-0.268066	-0.724121	-0.280200	-0.029221	-0.000868	-0.959497
53066		0.547013	0.246934	9.719582	-0.026699	-0.013069	-0.005911	-0.447998	-0.257568	-0.729248	-0.280286	-0.029296	-0.000702	-0.959469
53067		0.532222	0.173724	9.711077	-0.023558	-0.014410	-0.008525	-0.441895	-0.268555	-0.724365	-0.280269	-0.029390	-0.000434	-0.959471
53068		0.536559	0.152645	9.700913	-0.015919	-0.010673	-0.002224	-0.449951	-0.265381	-0.735596	-0.280336	-0.029477	-0.000364	-0.959449
53069		0.518877	0.098929	9.702461	-0.014391	-0.009409	0.000806	-0.452393	-0.261963	-0.719482	-0.280350	-0.029548	-0.000240	-0.959443
53070		0.509752	0.080807	9.708241	-0.003193	-0.011397	0.005756	-0.442871	-0.258789	-0.715088	-0.280249	-0.029782	-0.000187	-0.959465
53071		0.526963	0.087905	9.720139	0.003061	-0.012232	0.008830	-0.442871	-0.258301	-0.727295	-0.280090	-0.029961	-0.000187	-0.959506
53072		0.588789	0.113559	9.754026	0.012935	-0.009006	0.014421	-0.451904	-0.265381	-0.726807	-0.279907	-0.030051	-0.000249	-0.959557
53073		0.576182	0.170353	9.738453	0.012655	-0.002393	0.014808	-0.444092	-0.266113	-0.723145	-0.279779	-0.030193	-0.000364	-0.959590
53074		0.555126	0.249994	9.701166	0.008857	-0.001304	0.020789	-0.445557	-0.270264	-0.735596	-0.279627	-0.030268	-0.000483	-0.959631
53075		0.473197	0.272473	9.685503	-0.003110	-0.001970	0.025490	-0.453857	-0.272461	-0.727783	-0.279508	-0.030261	-0.000517	-0.959666
53076		0.440182	0.297083	9.695713	-0.009221	-0.009973	0.020380	-0.447510	-0.259033	-0.723633	-0.279426	-0.030438	-0.000495	-0.959684
53077		0.539760	0.279797	9.723279	-0.015737	-0.013588	0.014005	-0.441895	-0.263916	-0.729980	-0.279250	-0.030555	-0.000320	-0.959732
53078		0.601581	0.217091	9.736560	-0.018540	-0.014426	0.010325	-0.446777	-0.267090	-0.725830	-0.279186	-0.030591	-0.000176	-0.959750
53079		0.629214	0.180294	9.760053	-0.014398	-0.012346	0.007823	-0.453857	-0.270264	-0.724365	-0.279164	-0.030700	-0.000092	-0.959752
53080		0.592953	0.133764	9.745726	-0.008157	-0.010237	0.003885	-0.447754	-0.263916	-0.733154	-0.279199	-0.030887	-0.000076	-0.959736
53081		0.560748	0.132268	9.717812	-0.003083	-0.011937	0.006483	-0.443848	-0.264648	-0.732910	-0.279161	-0.030966	-0.000045	-0.959745
53082		0.562582	0.131826	9.717712	-0.001375	-0.010475	0.010792	-0.447998	-0.264893	-0.733398	-0.279100	-0.031005	-0.000048	-0.959761
53083		0.553005	0.168610	9.692068	0.000642	-0.009351	0.017108	-0.445801	-0.261719	-0.727783	-0.278989	-0.031073	-0.000058	-0.959791
53084		0.567596	0.193050	9.714100	-0.006090	-0.008556	0.018685	-0.446533	-0.266113	-0.726807	-0.278823	-0.031125	-0.000004	-0.959838
53085		0.562474	0.219356	9.706326	-0.005873	-0.010380	0.019591	-0.455322	-0.263428	-0.725586	-0.278704	-0.031215	0.000015	-0.959870
53086		0.567787	0.204505	9.710088	-0.005701	-0.012946	0.019946	-0.449219	-0.260742	-0.726074	-0.278545	-0.031402	0.000082	-0.959910
53087		0.573329	0.189645	9.713831	-0.006057	-0.013349	0.017387	-0.451660	-0.261719	-0.733154	-0.278380	-0.031523	0.000155	-0.959953
53088		0.577903	0.196785	9.741697	-0.007418	-0.014407	0.015637	-0.448242	-0.254883	-0.730957	-0.278255	-0.031627	0.000248	-0.959986
53089		0.610007	0.205781	9.751498	-0.003010	-0.016178	0.013665	-0.456055	-0.267578	-0.720947	-0.278064	-0.031719	0.000349	-0.960039
53090		0.612746	0.151928	9.782740	0.001659	-0.013306	0.007066	-0.450439	-0.263672	-0.727051	-0.278051	-0.031960	0.000307	-0.960035
53091		0.643233	0.131695	9.740407	0.002971	-0.012992	0.008265	-0.448486	-0.256104	-0.719238	-0.277998	-0.032100	0.000280	-0.960045
53092		0.650307	0.180721	9.740704	0.007126	-0.008147	0.006684	-0.444092	-0.261230	-0.728760	-0.277857	-0.032220	0.000253	-0.960082
53093		0.623668	0.233301	9.727298	0.000492	-0.003095	0.010293	-0.459473	-0.260986	-0.728027	-0.277775	-0.032200	0.000229	-0.960106
53094		0.630401	0.232303	9.665454	-0.009293	-0.002232	0.014676	-0.449951	-0.270752	-0.730713	-0.277634	-0.032284	0.000322	-0.960144
53095		0.584536	0.235253	9.667777	-0.015545	0.001389	0.012538	-0.455078	-0.266357	-0.714844	-0.277642	-0.032252	0.000357	-0.960143
53096		0.576155	0.224283	9.701685	-0.016958	-0.003176	0.009313	-0.455078	-0.264404	-0.730469	-0.277600	-0.032382	0.000439	-0.960151
53097		0.621528	0.211954	9.685446	-0.019719	-0.003263	0.006187	-0.451172	-0.255615	-0.737061	-0.277589	-0.032405	0.000575	-0.960153
53098		0.626682	0.199110	9.703293	-0.020475	-0.004807	0.000520	-0.458252	-0.266602	-0.725342	-0.277541	-0.032343	0.000783	-0.960169
53099		0.659024	0.188377	9.703057	-0.013208	-0.002243	0.003698	-0.455566	-0.262207	-0.730225	-0.277567	-0.032435	0.000845	-0.960158
53100		0.645231	0.183415	9.705107	-0.012118	-0.002872	0.003067	-0.447754	-0.256836	-0.724854	-0.277562	-0.032472	0.000931	-0.960158
53101		0.633208	0.129518	9.752419	-0.005867	-0.006496	0.005200	-0.449463	-0.262451	-0.718262	-0.277470	-0.032505	0.000989	-0.960184
53102		0.696381	0.108833	9.737849	0.000311	-0.003306	0.009011	-0.443359	-0.261963	-0.725830	-0.277399	-0.032594	0.000945	-0.960201
53103		0.694482	0.126781	9.748008	0.001501	0.000315	0.010409	-0.459961	-0.258545	-0.729736	-0.277327	-0.032560	0.000882	-0.960223
53104		0.663120	0.192844	9.731000	0.002521	0.006502	0.011454	-0.450928	-0.262695	-0.725098	-0.277210	-0.032582	0.000867	-0.960256
53105		0.645266	0.261367	9.712005	-0.003776	0.009386	0.008769	-0.456787	-0.259033	-0.722168	-0.277158	-0.032530	0.000837	-0.960273
53106		0.600883	0.252037	9.718245	-0.004255	0.012294	0.006410	-0.452393	-0.250244	-0.725342	-0.277078	-0.032510	0.000841	-0.960297
53107		0.589315	0.212371	9.700046	-0.007420	0.008304	-0.000752	-0.460205	-0.261475	-0.728271	-0.276968	-0.032439	0.000932	-0.960331
53108		0.616608	0.163128	9.727380	-0.008382	0.008391	0.000607	-0.447754	-0.262939	-0.720947	-0.276965	-0.032440	0.000971	-0.960332
53109		0.628284	0.160716	9.711461	-0.005629	0.008673	-0.004198	-0.452148	-0.259521	-0.717041	-0.277018	-0.032392	0.000936	-0.960318
53110		0.630295	0.172670	9.753557	-0.001739	0.009068	-0.009082	-0.447510	-0.258545	-0.730225	-0.277059	-0.032400	0.000900	-0.960306
53111		0.658277	0.156347	9.725422	0.000667	0.008752	-0.008515	-0.453369	-0.264648	-0.723389	-0.277117	-0.032302	0.000857	-0.960293
53112		0.670863	0.185726	9.761695	0.001547	0.012714	-0.009122	-0.448486	-0.260986	-0.725586	-0.277220	-0.032275	0.000762	-0.960264
53113		0.634319	0.185631	9.734085	-0.000112	0.017533	-0.011026	-0.459229	-0.258545	-0.725830	-0.277309	-0.032148	0.000688	-0.960242
53114		0.633827	0.167776	9.724076	-0.000245	0.015110	-0.004750	-0.449951	-0.263184	-0.720947	-0.277307	-0.032118	0.000665	-0.960244
53115		0.619091	0.147003	9.716079	-0.000068	0.018075	-0.002543	-0.446045	-0.262939	-0.729248	-0.277338	-0.032032	0.000575	-0.960238
53116		0.613847	0.165106	9.726451	0.002119	0.019584	-0.002878	-0.452637	-0.261475	-0.724854	-0.277388	-0.031864	0.000468	-0.960229
53117		0.618388	0.195486	9.717003	-0.002347	0.017847	-0.002386	-0.446777	-0.258545	-0.724854	-0.277402	-0.031773	0.000423	-0.960228
53118		0.607978	0.218452	9.695539	-0.002702	0.014682	-0.005872	-0.448486	-0.261230	-0.733154	-0.277420	-0.031657	0.000394	-0.960227
53119		0.620842	0.224925	9.707714	-0.005065	0.015738	-0.005891	-0.453613	-0.259277	-0.727783	-0.277479	-0.031503	0.000376	-0.960215
53120		0.623551	0.192318	9.701553	-0.007473	0.018817	-0.005535	-0.440674	-0.266113	-0.729004	-0.277496	-0.031384	0.000390	-0.960214
53121		0.595510	0.171634	9.709550	-0.007912	0.016935	-0.009197	-0.445557	-0.265869	-0.727295	-0.277641	-0.031195	0.000338	-0.960178
53122		0.594745	0.152914	9.699562	-0.003233	0.019613	-0.007854	-0.446045	-0.260742	-0.733154	-0.277759	-0.031044	0.000255	-0.960149
53123		0.578675	0.153377	9.715733	-0.007612	0.016592	-0.007191	-0.443115	-0.264160	-0.724609	-0.277819	-0.030869	0.000256	-0.960137
53124		0.577218	0.156674	9.729903	-0.003677	0.014766	-0.004514	-0.446289	-0.263428	-0.730713	-0.277889	-0.030753	0.000193	-0.960121
53125		0.594345	0.207113	9.728678	-0.005911	0.015279	-0.003807	-0.449707	-0.258301	-0.728516	-0.277948	-0.030620	0.000167	-0.960108
53126		0.622755	0.220378	9.752915	-0.004816	0.011887	-0.005364	-0.458496	-0.260498	-0.729736	-0.277951	-0.030542	0.000178	-0.960110
53127		0.614163	0.193694	9.776658	-0.001317	0.013711	-0.004492	-0.451416	-0.248779	-0.725342	-0.277964	-0.030523	0.000163	-0.960106
53128		0.628300	0.178417	9.764664	-0.002719	0.014680	-0.005871	-0.447266	-0.260498	-0.723389	-0.277854	-0.030437	0.000211	-0.960141
53129		0.585787	0.156212	9.774538	0.004756	0.023915	-0.006913	-0.444824	-0.263672	-0.721436	-0.277890	-0.030304	0.000092	-0.960135
53130		0.537847	0.172035	9.697165	0.008812	0.027077	-0.001648	-0.447754	-0.269043	-0.729248	-0.277918	-0.030157	-0.000091	-0.960131
53131		0.445395	0.169703	9.705176	0.007411	0.019551	0.002120	-0.449219	-0.261230	-0.732178	-0.277979	-0.030062	-0.000262	-0.960117
53132		0.447888	0.139441	9.698942	0.009946	0.018696	0.003422	-0.459229	-0.270508	-0.727539	-0.277941	-0.029958	-0.000394	-0.960131
53133		0.496326	0.184199	9.697662	0.009542	0.017356	0.008242	-0.448730	-0.256836	-0.719482	-0.277939	-0.029983	-0.000558	-0.960131
53134		0.482280	0.221482	9.779908	0.009409	0.017897	0.007514	-0.442383	-0.259521	-0.735352	-0.277800	-0.029936	-0.000668	-0.960172
53135		0.500175	0.251977	9.754487	0.008440	0.017982	0.008869	-0.445557	-0.261719	-0.726318	-0.277713	-0.029766	-0.000784	-0.960202
53136		0.500530	0.239154	9.758453	0.003798	0.018808	0.008996	-0.439453	-0.257812	-0.729492	-0.277629	-0.029655	-0.000879	-0.960230
53137		0.473648	0.198004	9.742101	0.002446	0.017753	0.007240	-0.444092	-0.265869	-0.731934	-0.277535	-0.029483	-0.000948	-0.960263
53138		0.459452	0.181891	9.748005	0.004662	0.022768	0.008390	-0.441650	-0.267822	-0.724121	-0.277513	-0.029316	-0.001082	-0.960274
53139		0.438432	0.167037	9.708060	0.002725	0.022939	0.011100	-0.450439	-0.256592	-0.728027	-0.277484	-0.029173	-0.001224	-0.960286
53140		0.466485	0.159603	9.708259	0.005166	0.023365	0.012230	-0.446289	-0.261719	-0.725098	-0.277305	-0.029050	-0.001296	-0.960342
53141		0.472256	0.172713	9.688694	0.004306	0.028437	0.016165	-0.447021	-0.268066	-0.724609	-0.277156	-0.028884	-0.001415	-0.960390
53142		0.423925	0.160407	9.680573	0.003202	0.029063	0.016790	-0.442139	-0.257812	-0.732422	-0.277069	-0.028734	-0.001562	-0.960419
53143		0.375815	0.201096	9.641113	-0.004509	0.027189	0.018767	-0.448242	-0.268555	-0.732666	-0.276877	-0.028486	-0.001584	-0.960482
53144		0.362674	0.241183	9.629706	-0.008431	0.014998	0.019376	-0.444092	-0.259521	-0.725586	-0.276787	-0.028396	-0.001597	-0.960510
53145		0.372892	0.260526	9.638089	-0.007861	0.008045	0.020988	-0.437500	-0.260254	-0.730957	-0.276584	-0.028350	-0.001563	-0.960570
53146		0.426654	0.234569	9.672110	-0.010418	0.002635	0.017275	-0.443848	-0.264160	-0.730469	-0.276445	-0.028271	-0.001510	-0.960613
53147		0.450335	0.220832	9.720004	-0.007669	-0.000588	0.011007	-0.450195	-0.267578	-0.731201	-0.276388	-0.028280	-0.001485	-0.960629
53148		0.453858	0.259563	9.692607	-0.006325	0.000463	0.012765	-0.441162	-0.261230	-0.730469	-0.276344	-0.028330	-0.001480	-0.960640
53149		0.439436	0.281644	9.732698	-0.008474	-0.000303	0.013640	-0.439209	-0.267090	-0.732422	-0.276237	-0.028309	-0.001439	-0.960671
53150		0.454913	0.287171	9.744869	-0.008388	-0.001585	0.013817	-0.437988	-0.259277	-0.726318	-0.276204	-0.028289	-0.001431	-0.960682
53151		0.481800	0.179975	9.789653	-0.006002	0.003623	0.016252	-0.438477	-0.260986	-0.737061	-0.276052	-0.028237	-0.001420	-0.960727
53152		0.524452	0.165640	9.759942	-0.002067	0.013045	0.014723	-0.444824	-0.255859	-0.735840	-0.275947	-0.028074	-0.001462	-0.960762
53153		0.523184	0.223325	9.742851	0.001496	0.019104	0.017637	-0.439697	-0.268311	-0.736328	-0.275743	-0.027910	-0.001506	-0.960825
53154		0.467882	0.309737	9.705833	-0.001000	0.020704	0.016878	-0.446777	-0.258545	-0.734863	-0.275714	-0.027721	-0.001612	-0.960839
53155		0.443039	0.329642	9.686161	-0.005303	0.019174	0.018627	-0.446777	-0.260986	-0.732910	-0.275534	-0.027569	-0.001615	-0.960894
53156		0.437705	0.292902	9.727724	-0.004659	0.015927	0.013786	-0.440674	-0.268066	-0.728516	-0.275425	-0.027461	-0.001632	-0.960929
53157		0.406001	0.256213	9.679335	-0.003089	0.014616	0.007968	-0.441895	-0.259033	-0.731934	-0.275456	-0.027365	-0.001715	-0.960923
53158		0.421532	0.244980	9.681423	0.000051	0.009768	0.003886	-0.445068	-0.266113	-0.734375	-0.275403	-0.027287	-0.001759	-0.960940
53159		0.408351	0.250457	9.711335	0.000244	0.001678	0.002384	-0.441650	-0.263428	-0.727783	-0.275453	-0.027301	-0.001815	-0.960925
53160		0.420637	0.271330	9.719648	0.001820	-0.004622	0.003193	-0.445557	-0.257812	-0.733887	-0.275458	-0.027372	-0.001867	-0.960922
53161		0.469671	0.248535	9.707739	0.003725	-0.005537	-0.000064	-0.446045	-0.258301	-0.732666	-0.275416	-0.027437	-0.001891	-0.960932
53162		0.450581	0.277586	9.715876	-0.001548	-0.001987	-0.003591	-0.442627	-0.265381	-0.727051	-0.275408	-0.027470	-0.001884	-0.960933
53163		0.466029	0.284494	9.728037	0.000475	-0.000682	-0.005193	-0.443848	-0.264404	-0.728271	-0.275502	-0.027517	-0.001945	-0.960905
53164		0.468476	0.292367	9.756056	-0.006093	-0.005194	-0.004228	-0.446533	-0.259277	-0.727783	-0.275576	-0.027584	-0.001933	-0.960882
53165		0.449438	0.320048	9.764239	-0.008877	-0.003247	-0.006995	-0.440918	-0.264160	-0.727295	-0.275603	-0.027636	-0.001873	-0.960872
53166		0.489155	0.260831	9.747903	-0.010524	-0.001190	-0.009835	-0.446777	-0.260498	-0.730713	-0.275718	-0.027645	-0.001842	-0.960839
53167		0.496939	0.209882	9.731413	-0.007569	-0.000711	-0.013342	-0.447510	-0.267090	-0.727783	-0.275814	-0.027670	-0.001804	-0.960811
53168		0.481567	0.202072	9.719268	-0.004204	0.001645	-0.013185	-0.444336	-0.266846	-0.732666	-0.275991	-0.027716	-0.001832	-0.960759
53169		0.436516	0.238767	9.665608	-0.000427	0.005878	-0.009362	-0.442383	-0.257812	-0.733398	-0.276134	-0.027693	-0.001899	-0.960718
53170		0.406367	0.228673	9.655318	-0.004205	0.001645	-0.013185	-0.446533	-0.264404	-0.731689	-0.276186	-0.027661	-0.001885	-0.960704
53171		0.403061	0.268065	9.689706	-0.003599	-0.004569	-0.011025	-0.441162	-0.256592	-0.732422	-0.276309	-0.027729	-0.001886	-0.960667
53172		0.446847	0.221872	9.715328	-0.009223	-0.012675	-0.012895	-0.448242	-0.261230	-0.728271	-0.276340	-0.027794	-0.001796	-0.960656
53173		0.528405	0.215515	9.741721	-0.008136	-0.010541	-0.012592	-0.446045	-0.259277	-0.738281	-0.276432	-0.027916	-0.001731	-0.960627
53174		0.500199	0.204641	9.731358	-0.006254	-0.005928	-0.013993	-0.441650	-0.268311	-0.730225	-0.276515	-0.027941	-0.001680	-0.960602
53175		0.529436	0.235581	9.765851	-0.006630	-0.007064	-0.017106	-0.447510	-0.266113	-0.726074	-0.276732	-0.028003	-0.001681	-0.960538
53176		0.528277	0.226194	9.737796	-0.009048	-0.003985	-0.016758	-0.444824	-0.263184	-0.730957	-0.276917	-0.028084	-0.001651	-0.960482
53177		0.507568	0.195566	9.763182	-0.011427	-0.000166	-0.015858	-0.447266	-0.260498	-0.732910	-0.277056	-0.028083	-0.001597	-0.960442
53178		0.519619	0.188369	9.733336	-0.012283	0.002139	-0.012848	-0.437012	-0.262939	-0.717773	-0.277141	-0.028063	-0.001522	-0.960418
53179		0.489332	0.177112	9.723086	-0.006188	0.007339	-0.008617	-0.444092	-0.259521	-0.724365	-0.277203	-0.028026	-0.001548	-0.960401
53180		0.464978	0.139158	9.720474	-0.001852	0.009616	-0.009811	-0.448975	-0.270020	-0.730225	-0.277238	-0.027987	-0.001580	-0.960392
53181		0.482316	0.132746	9.736515	0.005300	0.004425	-0.010100	-0.447510	-0.263672	-0.730713	-0.277415	-0.028034	-0.001692	-0.960340
53182		0.478523	0.147577	9.732708	0.007082	0.001826	-0.006534	-0.443848	-0.250488	-0.727783	-0.277480	-0.028080	-0.001783	-0.960319
53183		0.478549	0.202396	9.701556	0.005191	-0.000027	-0.004205	-0.440430	-0.259033	-0.726074	-0.277347	-0.028099	-0.001801	-0.960357
53184		0.479872	0.207256	9.715544	0.003647	-0.004247	-0.000245	-0.447754	-0.261230	-0.733398	-0.277293	-0.028152	-0.001843	-0.960371
53185		0.485900	0.229594	9.677996	-0.001100	0.000627	0.000625	-0.437988	-0.263428	-0.734131	-0.277267	-0.028172	-0.001850	-0.960378
53186		0.458696	0.227537	9.695707	-0.004285	-0.004299	0.000817	-0.443604	-0.267578	-0.726074	-0.277272	-0.028166	-0.001846	-0.960377
53187		0.445335	0.223661	9.697538	-0.008283	-0.006712	-0.003911	-0.449463	-0.262939	-0.731934	-0.277358	-0.028247	-0.001821	-0.960350
53188		0.492717	0.217148	9.695770	-0.008985	-0.010474	-0.002032	-0.448975	-0.261230	-0.740234	-0.277375	-0.028356	-0.001745	-0.960342
53189		0.503098	0.170375	9.693140	-0.008402	-0.008932	-0.005569	-0.448242	-0.262695	-0.734131	-0.277408	-0.028410	-0.001666	-0.960331
53190		0.474659	0.185505	9.721031	-0.005918	-0.007768	-0.003882	-0.456787	-0.257812	-0.720703	-0.277440	-0.028485	-0.001623	-0.960319
53191		0.496740	0.186095	9.764990	-0.005183	-0.011763	-0.000069	-0.444824	-0.263428	-0.738281	-0.277368	-0.028689	-0.001548	-0.960334
53192		0.519197	0.187211	9.808914	0.000937	-0.012083	0.002301	-0.442627	-0.267334	-0.724609	-0.277364	-0.028775	-0.001554	-0.960333
53193		0.545383	0.122748	9.780118	0.000213	-0.010322	0.006041	-0.446777	-0.264160	-0.730713	-0.277359	-0.028897	-0.001590	-0.960331
53194		0.554472	0.127554	9.732312	0.007065	-0.003379	0.008014	-0.442383	-0.265137	-0.728760	-0.277306	-0.028969	-0.001669	-0.960343
53195		0.504440	0.143047	9.716241	0.002746	0.000608	0.011625	-0.445557	-0.270996	-0.728760	-0.277232	-0.028984	-0.001735	-0.960364
53196		0.464110	0.250462	9.687622	0.001022	-0.001049	0.015235	-0.447021	-0.264893	-0.727051	-0.277201	-0.029037	-0.001802	-0.960371
53197		0.460809	0.290025	9.722065	-0.003496	-0.000761	0.016081	-0.443848	-0.261719	-0.723877	-0.277091	-0.029080	-0.001806	-0.960402
53198		0.482646	0.268470	9.741866	-0.007597	0.000873	0.012111	-0.448242	-0.261230	-0.739746	-0.276970	-0.029088	-0.001776	-0.960436
53199		0.507609	0.206578	9.727239	-0.009380	0.003473	0.008546	-0.451416	-0.259521	-0.721680	-0.276894	-0.029029	-0.001719	-0.960460
53200		0.484400	0.167822	9.724590	-0.007005	-0.000346	0.007643	-0.454590	-0.264648	-0.734619	-0.276790	-0.029096	-0.001674	-0.960488
53201		0.494501	0.178849	9.704922	-0.010591	-0.000881	0.006583	-0.445801	-0.259766	-0.723389	-0.276773	-0.029133	-0.001606	-0.960492
53202		0.492733	0.195271	9.715149	-0.006612	-0.004737	0.008894	-0.445801	-0.258545	-0.732666	-0.276662	-0.029196	-0.001564	-0.960522
53203		0.500839	0.224759	9.705688	-0.003717	0.000534	0.006696	-0.442139	-0.267090	-0.733887	-0.276566	-0.029183	-0.001547	-0.960550
53204		0.486729	0.221356	9.707556	-0.002401	-0.001919	0.006971	-0.446045	-0.264404	-0.728271	-0.276564	-0.029184	-0.001576	-0.960551
53205		0.515361	0.226713	9.703832	-0.000974	0.000609	0.009837	-0.447510	-0.263428	-0.730225	-0.276505	-0.029207	-0.001608	-0.960567
53206		0.520542	0.195005	9.697420	0.001296	0.003595	0.010622	-0.443115	-0.258545	-0.736572	-0.276431	-0.029209	-0.001657	-0.960588
53207		0.530806	0.237557	9.730069	-0.001956	0.003455	0.012122	-0.445801	-0.256592	-0.732910	-0.276292	-0.029145	-0.001663	-0.960630
53208		0.493391	0.276596	9.736451	-0.005407	-0.000383	0.010858	-0.444580	-0.258789	-0.732422	-0.276142	-0.029131	-0.001623	-0.960674
53209		0.473262	0.274161	9.692451	-0.006579	-0.003996	0.009446	-0.445312	-0.267090	-0.729492	-0.276031	-0.029142	-0.001578	-0.960706
53210		0.481563	0.275468	9.752335	-0.009060	-0.007917	0.006827	-0.447021	-0.250000	-0.733887	-0.276036	-0.029211	-0.001539	-0.960702
53211		0.527557	0.264718	9.736500	-0.007547	-0.004435	0.002317	-0.448730	-0.256592	-0.728760	-0.275883	-0.029212	-0.001449	-0.960746
53212		0.555306	0.265015	9.718768	-0.008026	0.001239	0.000894	-0.448486	-0.260254	-0.720703	-0.275814	-0.029210	-0.001397	-0.960766
53213		0.527412	0.262295	9.736573	-0.006089	0.003832	-0.000882	-0.445068	-0.261475	-0.730957	-0.275788	-0.029229	-0.001387	-0.960773
53214		0.500792	0.237858	9.730098	-0.005150	0.000247	-0.003721	-0.440674	-0.257568	-0.722656	-0.275820	-0.029222	-0.001381	-0.960764
53215		0.475756	0.271447	9.706596	-0.005151	0.000247	-0.003721	-0.441895	-0.264160	-0.729492	-0.275800	-0.029217	-0.001371	-0.960770
53216		0.460538	0.263927	9.694443	-0.002320	-0.000963	-0.000407	-0.445557	-0.265869	-0.727539	-0.275839	-0.029220	-0.001399	-0.960759
53217		0.470522	0.222403	9.705789	-0.000288	-0.002414	-0.002940	-0.447510	-0.258789	-0.737061	-0.275908	-0.029271	-0.001443	-0.960737
53218		0.491630	0.198139	9.711468	0.005539	-0.002397	-0.002581	-0.447021	-0.263184	-0.733398	-0.275900	-0.029293	-0.001497	-0.960739
53219		0.539242	0.197726	9.723646	0.003434	-0.005186	-0.002086	-0.442627	-0.259521	-0.732910	-0.275934	-0.029352	-0.001548	-0.960727
53220		0.560118	0.253824	9.736591	0.007379	0.004240	-0.003597	-0.443848	-0.258057	-0.733643	-0.275940	-0.029316	-0.001644	-0.960726
53221		0.525426	0.280908	9.746779	0.005943	0.004475	-0.005531	-0.448242	-0.261230	-0.729004	-0.275941	-0.029276	-0.001722	-0.960727
53222		0.492411	0.285540	9.732683	0.001231	-0.001692	-0.008383	-0.450195	-0.263916	-0.734131	-0.275990	-0.029322	-0.001757	-0.960711
53223		0.493240	0.259532	9.694359	-0.001625	-0.006745	-0.014116	-0.447998	-0.265381	-0.734131	-0.276121	-0.029397	-0.001762	-0.960672
53224		0.472547	0.225819	9.705612	-0.006008	-0.010282	-0.021957	-0.448975	-0.250244	-0.722412	-0.276335	-0.029480	-0.001734	-0.960607
53225		0.441231	0.229043	9.691480	-0.005427	-0.008737	-0.025493	-0.458008	-0.264893	-0.728027	-0.276374	-0.029572	-0.001667	-0.960594
53226		0.487674	0.245245	9.713862	-0.004067	-0.013213	-0.025599	-0.447266	-0.266602	-0.733887	-0.276575	-0.029756	-0.001638	-0.960530
53227		0.482161	0.214436	9.723201	-0.003218	-0.014993	-0.020130	-0.449219	-0.260254	-0.727783	-0.276781	-0.029879	-0.001625	-0.960467
53228		0.508268	0.176013	9.732569	0.001370	-0.011040	-0.018940	-0.448975	-0.263184	-0.730713	-0.276891	-0.030001	-0.001636	-0.960431
53229		0.517396	0.206927	9.723042	0.003177	-0.007380	-0.012959	-0.448242	-0.258545	-0.718750	-0.276989	-0.030090	-0.001677	-0.960400
53230		0.497950	0.232219	9.717272	0.003354	-0.009946	-0.012612	-0.441895	-0.275635	-0.731445	-0.277010	-0.030232	-0.001705	-0.960390
53231		0.499480	0.258663	9.755469	0.000152	-0.012112	-0.011488	-0.455322	-0.265869	-0.728516	-0.277244	-0.030335	-0.001762	-0.960319
53232		0.494676	0.259578	9.709545	-0.008183	-0.007779	-0.011663	-0.445557	-0.263184	-0.722900	-0.277347	-0.030442	-0.001711	-0.960286
53233		0.498354	0.240209	9.699264	-0.011726	-0.010339	-0.013100	-0.450439	-0.258301	-0.735840	-0.277436	-0.030528	-0.001633	-0.960258
53234		0.505402	0.206517	9.692760	-0.015197	-0.008660	-0.012497	-0.446045	-0.255859	-0.728760	-0.277483	-0.030558	-0.001500	-0.960243
53235		0.517495	0.166680	9.718093	-0.018627	-0.006241	-0.011340	-0.443115	-0.262695	-0.720947	-0.277490	-0.030560	-0.001348	-0.960241
53236		0.517595	0.159983	9.704048	-0.014689	-0.008072	-0.008656	-0.452393	-0.261719	-0.727539	-0.277545	-0.030614	-0.001255	-0.960224
53237		0.524069	0.152554	9.735841	-0.008738	-0.005825	-0.006642	-0.447754	-0.269531	-0.728271	-0.277563	-0.030683	-0.001195	-0.960216
53238		0.567813	0.160107	9.730125	-0.006068	-0.007227	-0.004611	-0.450684	-0.265869	-0.729248	-0.277662	-0.030758	-0.001184	-0.960186
53239		0.550191	0.192374	9.752502	-0.000561	-0.007072	0.001665	-0.451904	-0.260498	-0.730713	-0.277665	-0.030848	-0.001199	-0.960182
53240		0.567665	0.177712	9.740275	0.004424	-0.004743	0.005035	-0.444092	-0.261475	-0.728271	-0.277583	-0.030920	-0.001239	-0.960203
53241		0.550873	0.189620	9.738349	0.008983	-0.004285	0.004735	-0.449707	-0.261230	-0.728760	-0.277524	-0.030970	-0.001330	-0.960218
53242		0.551574	0.165203	9.699965	0.011385	-0.001838	0.006247	-0.438721	-0.261475	-0.728271	-0.277438	-0.031031	-0.001437	-0.960241
53243		0.557156	0.215167	9.700756	0.010155	-0.000670	0.006149	-0.446533	-0.258057	-0.729492	-0.277380	-0.031027	-0.001550	-0.960258
53244		0.530720	0.272446	9.701595	0.003308	0.001406	0.007532	-0.447754	-0.270264	-0.724854	-0.277257	-0.031018	-0.001593	-0.960294
53245		0.511916	0.305367	9.724016	-0.001163	-0.000334	0.008005	-0.447998	-0.273193	-0.722412	-0.277256	-0.031058	-0.001635	-0.960293
53246		0.508972	0.318384	9.720255	-0.007500	-0.003712	0.002878	-0.453369	-0.262695	-0.724854	-0.277326	-0.031126	-0.001631	-0.960270
53247		0.498252	0.216203	9.704545	-0.011551	-0.009622	-0.003333	-0.451416	-0.264648	-0.729248	-0.277321	-0.031228	-0.001542	-0.960268
53248		0.525422	0.234001	9.696914	-0.010743	-0.015423	-0.007838	-0.451660	-0.267334	-0.721680	-0.277387	-0.031355	-0.001454	-0.960245
53249		0.529790	0.240348	9.724894	-0.012881	-0.013213	-0.013957	-0.447510	-0.258545	-0.731201	-0.277520	-0.031493	-0.001368	-0.960203
53250		0.560238	0.244471	9.721010	-0.009250	-0.011935	-0.012349	-0.447510	-0.258545	-0.723389	-0.277564	-0.031556	-0.001286	-0.960188
53251		0.560148	0.207132	9.762146	-0.008107	-0.014582	-0.013360	-0.450195	-0.265869	-0.731689	-0.277603	-0.031670	-0.001212	-0.960173
53252		0.563510	0.184666	9.737721	-0.000217	-0.012497	-0.014061	-0.450439	-0.261719	-0.724609	-0.277738	-0.031782	-0.001220	-0.960130
53253		0.594760	0.195226	9.747804	0.006920	-0.009395	-0.011573	-0.450928	-0.261963	-0.730469	-0.277789	-0.031903	-0.001283	-0.960111
53254		0.603754	0.147398	9.730896	0.011861	-0.005042	-0.007826	-0.451660	-0.260986	-0.719971	-0.277820	-0.031981	-0.001391	-0.960100
53255		0.572383	0.211587	9.699949	0.016414	-0.001821	-0.007194	-0.452393	-0.262207	-0.729248	-0.277809	-0.032082	-0.001545	-0.960099
53256		0.569132	0.253697	9.734452	0.011417	-0.001391	-0.009624	-0.442627	-0.268555	-0.727051	-0.277847	-0.032139	-0.001657	-0.960086
53257		0.561229	0.358469	9.720199	0.004976	-0.000730	-0.013985	-0.449951	-0.276855	-0.726318	-0.278014	-0.032150	-0.001748	-0.960037
53258		0.555907	0.390355	9.726680	-0.003303	-0.003952	-0.016396	-0.442383	-0.265137	-0.726074	-0.278267	-0.032219	-0.001782	-0.959962
53259		0.550602	0.394658	9.694912	-0.014707	0.000637	-0.021698	-0.447021	-0.265381	-0.729004	-0.278449	-0.032168	-0.001711	-0.959911
53260		0.542727	0.335386	9.666149	-0.023129	0.003699	-0.030897	-0.452637	-0.262451	-0.718262	-0.278703	-0.032086	-0.001576	-0.959840
53261		0.513850	0.272217	9.701083	-0.022736	0.002288	-0.036649	-0.445312	-0.275635	-0.733887	-0.278936	-0.032074	-0.001437	-0.959773
53262		0.513989	0.243170	9.662821	-0.019178	-0.003431	-0.038023	-0.457520	-0.261719	-0.719727	-0.279375	-0.032054	-0.001346	-0.959646
53263		0.603463	0.190883	9.685986	-0.014230	-0.004597	-0.036148	-0.448242	-0.263428	-0.720703	-0.279587	-0.032135	-0.001250	-0.959582
53264		0.569135	0.157009	9.713246	-0.008804	-0.003150	-0.030049	-0.449219	-0.261475	-0.724854	-0.279785	-0.032173	-0.001212	-0.959523
53265		0.577881	0.190977	9.717886	-0.001886	-0.000968	-0.029395	-0.453613	-0.262695	-0.734863	-0.279957	-0.032196	-0.001226	-0.959472
53266		0.569045	0.178589	9.737513	0.002407	-0.011645	-0.019591	-0.447510	-0.262939	-0.735352	-0.280069	-0.032302	-0.001238	-0.959435
53267		0.611425	0.205925	9.741907	0.001888	-0.014996	-0.024370	-0.452393	-0.260010	-0.717773	-0.280240	-0.032404	-0.001245	-0.959382
53268		0.606580	0.234355	9.734295	0.006692	-0.010087	-0.021348	-0.446533	-0.272217	-0.727295	-0.280298	-0.032553	-0.001300	-0.959360
53269		0.610978	0.275519	9.707014	0.002688	-0.009010	-0.024580	-0.449951	-0.262207	-0.729736	-0.280557	-0.032648	-0.001356	-0.959281
53270		0.559903	0.312074	9.715583	-0.002924	-0.001639	-0.028594	-0.456543	-0.263428	-0.724121	-0.280729	-0.032657	-0.001354	-0.959230
53271		0.544648	0.304284	9.703504	-0.009346	-0.000258	-0.032398	-0.448486	-0.269775	-0.725586	-0.280909	-0.032691	-0.001308	-0.959177
53272		0.531513	0.277857	9.681161	-0.013315	0.001556	-0.035075	-0.455566	-0.266113	-0.735596	-0.281211	-0.032672	-0.001255	-0.959089
53273		0.514233	0.260242	9.641054	-0.020277	-0.004144	-0.037219	-0.452637	-0.259766	-0.734131	-0.281487	-0.032673	-0.001112	-0.959008
53274		0.526322	0.220100	9.666296	-0.020393	-0.006588	-0.030951	-0.451904	-0.265869	-0.731934	-0.281654	-0.032674	-0.000948	-0.958959
53275		0.530957	0.203340	9.670016	-0.020567	-0.009548	-0.033171	-0.457275	-0.272461	-0.728271	-0.281900	-0.032714	-0.000794	-0.958886
53276		0.548407	0.154231	9.712903	-0.010906	-0.010758	-0.030879	-0.450195	-0.268555	-0.724854	-0.282158	-0.032835	-0.000730	-0.958806
53277		0.588649	0.144158	9.758480	-0.003030	-0.012358	-0.025147	-0.448242	-0.270508	-0.722900	-0.282349	-0.032959	-0.000720	-0.958745
53278		0.652450	0.151135	9.782422	0.004769	-0.006411	-0.017153	-0.445557	-0.266846	-0.729492	-0.282495	-0.033055	-0.000790	-0.958699
53279		0.663771	0.169015	9.776716	0.006512	-0.001461	-0.011338	-0.457764	-0.269043	-0.724365	-0.282582	-0.033075	-0.000871	-0.958672
53280		0.618428	0.236674	9.776091	0.005094	0.008528	-0.009341	-0.448730	-0.270508	-0.725098	-0.282615	-0.033084	-0.000966	-0.958662
53281		0.614728	0.255222	9.786476	0.003047	0.006459	-0.008291	-0.447754	-0.270752	-0.729980	-0.282688	-0.033067	-0.001046	-0.958641
53282		0.596154	0.240407	9.746368	0.000860	0.008659	-0.014406	-0.445557	-0.265137	-0.718750	-0.282826	-0.033007	-0.001113	-0.958602
53283		0.594638	0.240302	9.746463	-0.003977	0.009259	-0.015553	-0.451416	-0.275879	-0.725342	-0.282897	-0.032948	-0.001139	-0.958584
53284		0.577067	0.285949	9.703659	-0.012594	0.009098	-0.019032	-0.446533	-0.269531	-0.724609	-0.283097	-0.032895	-0.001113	-0.958527
53285		0.543097	0.287618	9.689882	-0.012427	0.003032	-0.020185	-0.454346	-0.263672	-0.721680	-0.283258	-0.032861	-0.001063	-0.958480
53286		0.553954	0.276536	9.645910	-0.015093	-0.001107	-0.024089	-0.455322	-0.270752	-0.718994	-0.283357	-0.032885	-0.000967	-0.958450
53287		0.525797	0.268147	9.649813	-0.014862	-0.002934	-0.023193	-0.446777	-0.270020	-0.718994	-0.283503	-0.032950	-0.000888	-0.958405
53288		0.544297	0.255262	9.651605	-0.015793	-0.008384	-0.023717	-0.453369	-0.270752	-0.727051	-0.283681	-0.033020	-0.000790	-0.958350
53289		0.523203	0.215785	9.648788	-0.008498	-0.008537	-0.021442	-0.444580	-0.269531	-0.730713	-0.283839	-0.033110	-0.000743	-0.958300
53290		0.563340	0.205780	9.694374	-0.005185	-0.013147	-0.024279	-0.452148	-0.270020	-0.725830	-0.284053	-0.033193	-0.000709	-0.958234
53291		0.608656	0.160859	9.719224	-0.000786	-0.010318	-0.016992	-0.446777	-0.259766	-0.723633	-0.284167	-0.033312	-0.000717	-0.958196
53292		0.646144	0.144207	9.736709	0.005279	-0.003046	-0.012375	-0.440674	-0.264893	-0.727295	-0.284162	-0.033351	-0.000769	-0.958196
53293		0.635109	0.154309	9.780750	0.007023	0.001906	-0.006556	-0.452881	-0.271729	-0.724365	-0.284199	-0.033328	-0.000855	-0.958186
53294		0.629718	0.249034	9.784728	0.006463	0.003111	-0.002081	-0.453125	-0.270752	-0.729248	-0.284194	-0.033366	-0.000951	-0.958186
53295		0.635985	0.280382	9.775433	0.002604	0.007130	-0.003088	-0.453613	-0.270020	-0.733887	-0.284201	-0.033345	-0.001020	-0.958184
53296		0.612171	0.242857	9.772744	-0.000295	0.011076	-0.005453	-0.446045	-0.272949	-0.717041	-0.284232	-0.033273	-0.001071	-0.958177
53297		0.605457	0.252414	9.755141	-0.002055	0.015145	-0.007894	-0.440186	-0.274658	-0.727295	-0.284293	-0.033192	-0.001139	-0.958162
53298		0.581824	0.250097	9.711438	-0.008658	0.019805	-0.011483	-0.449707	-0.268799	-0.722656	-0.284456	-0.033007	-0.001164	-0.958120
53299		0.520871	0.232115	9.705301	-0.009982	0.019483	-0.012688	-0.445068	-0.271973	-0.733398	-0.284516	-0.032864	-0.001166	-0.958107
53300		0.506724	0.241921	9.641929	-0.009565	0.017854	-0.010511	-0.446777	-0.273438	-0.718994	-0.284636	-0.032691	-0.001166	-0.958077
53301		0.487312	0.197165	9.671055	-0.008087	0.014870	-0.009521	-0.443604	-0.266357	-0.721191	-0.284714	-0.032601	-0.001185	-0.958057
53302		0.504951	0.193499	9.701062	-0.006968	0.010526	-0.003716	-0.447510	-0.279053	-0.728027	-0.284695	-0.032517	-0.001185	-0.958066
53303		0.560410	0.147177	9.710206	-0.003825	0.004756	-0.000454	-0.450439	-0.261475	-0.714844	-0.284770	-0.032505	-0.001216	-0.958044
53304		0.522076	0.186011	9.717000	0.002920	-0.000445	0.003863	-0.448486	-0.273438	-0.729004	-0.284593	-0.032570	-0.001261	-0.958094
53305		0.534944	0.269465	9.722789	0.003340	-0.002074	0.006040	-0.445557	-0.275146	-0.720215	-0.284559	-0.032619	-0.001318	-0.958102
53306		0.525598	0.257122	9.742405	0.003378	-0.001335	0.006596	-0.455566	-0.273926	-0.723877	-0.284527	-0.032681	-0.001388	-0.958110
53307		0.543581	0.246841	9.744173	0.001097	-0.001583	0.006747	-0.445801	-0.269531	-0.719971	-0.284447	-0.032764	-0.001433	-0.958131
53308		0.604750	0.249329	9.754307	-0.005008	0.002925	0.006444	-0.442139	-0.272217	-0.716064	-0.284364	-0.032761	-0.001435	-0.958155
53309		0.600530	0.262094	9.750680	-0.005813	0.005953	0.010023	-0.448730	-0.272705	-0.730469	-0.284285	-0.032735	-0.001446	-0.958180
53310		0.553163	0.264879	9.752813	-0.011919	0.010462	0.009720	-0.439697	-0.266357	-0.730957	-0.284223	-0.032641	-0.001407	-0.958201
53311		0.506432	0.299224	9.699837	-0.014438	0.005779	0.006535	-0.454102	-0.266846	-0.725586	-0.284171	-0.032531	-0.001326	-0.958220
53312		0.545780	0.265828	9.721261	-0.015955	0.001764	0.002549	-0.447998	-0.271973	-0.725098	-0.284078	-0.032524	-0.001229	-0.958249
53313		0.582308	0.220529	9.700508	-0.012276	0.003809	0.004717	-0.451660	-0.265137	-0.735840	-0.284041	-0.032496	-0.001178	-0.958260
53314		0.531467	0.174883	9.701448	-0.007351	-0.001564	0.004539	-0.451660	-0.281250	-0.725586	-0.283958	-0.032493	-0.001131	-0.958285
53315		0.527598	0.183852	9.683694	-0.001424	-0.006269	0.003560	-0.442627	-0.280518	-0.729736	-0.283995	-0.032602	-0.001161	-0.958271
53316		0.511032	0.194439	9.681850	0.001952	-0.007610	0.010155	-0.445801	-0.269775	-0.727295	-0.284025	-0.032680	-0.001208	-0.958259
53317		0.539171	0.222880	9.702395	0.004193	-0.008101	0.009449	-0.445068	-0.274414	-0.723633	-0.283943	-0.032766	-0.001253	-0.958280
53318		0.561362	0.282829	9.729613	0.002407	-0.008502	0.012888	-0.452881	-0.264648	-0.729248	-0.283872	-0.032867	-0.001293	-0.958298
53319		0.577960	0.289962	9.741678	-0.000979	-0.008134	0.013669	-0.451416	-0.269043	-0.730469	-0.283691	-0.032951	-0.001283	-0.958349
53320		0.602785	0.247258	9.736713	-0.004702	-0.004657	0.013387	-0.443848	-0.271729	-0.721191	-0.283564	-0.032996	-0.001260	-0.958385
53321		0.582120	0.270413	9.731260	-0.008603	-0.001375	0.011824	-0.451172	-0.266846	-0.731201	-0.283482	-0.033009	-0.001227	-0.958409
53322		0.522180	0.270377	9.735224	-0.006362	-0.001868	0.011117	-0.442139	-0.273926	-0.720459	-0.283359	-0.033021	-0.001193	-0.958445
53323		0.567782	0.260603	9.719137	-0.009439	-0.004371	0.005030	-0.454834	-0.276611	-0.722412	-0.283360	-0.033056	-0.001153	-0.958443
53324		0.589246	0.234965	9.724594	-0.005945	0.001211	-0.000517	-0.449951	-0.271729	-0.724121	-0.283389	-0.033101	-0.001159	-0.958433
53325		0.536522	0.240029	9.680844	-0.007126	0.000349	-0.000998	-0.449707	-0.271240	-0.719727	-0.283398	-0.033117	-0.001143	-0.958430
53326		0.501199	0.259971	9.677345	-0.009311	-0.001180	-0.000678	-0.450928	-0.268555	-0.732178	-0.283391	-0.033151	-0.001109	-0.958431
53327		0.537051	0.237430	9.680879	-0.006553	-0.004587	0.000959	-0.452148	-0.274902	-0.725098	-0.283372	-0.033182	-0.001073	-0.958435
53328		0.574732	0.193725	9.659928	-0.001888	-0.005377	0.000826	-0.449951	-0.271973	-0.727051	-0.283390	-0.033267	-0.001090	-0.958427
53329		0.599972	0.181165	9.707455	-0.000509	-0.007080	0.001644	-0.446777	-0.270020	-0.725098	-0.283387	-0.033349	-0.001107	-0.958425
53330		0.593373	0.234297	9.738571	-0.000666	-0.003777	0.001863	-0.443604	-0.268799	-0.725342	-0.283368	-0.033393	-0.001128	-0.958429
53331		0.576615	0.302341	9.720224	-0.007239	-0.005604	0.003766	-0.449219	-0.267822	-0.716553	-0.283334	-0.033422	-0.001090	-0.958438
53332		0.568177	0.288101	9.739820	-0.009545	-0.009348	0.002417	-0.455078	-0.278076	-0.713135	-0.283267	-0.033519	-0.001031	-0.958455
53333		0.595255	0.252282	9.762907	-0.011243	-0.007295	-0.000407	-0.449463	-0.270752	-0.724365	-0.283296	-0.033645	-0.000983	-0.958442
53334		0.614075	0.214335	9.726138	-0.008172	-0.001056	-0.000751	-0.446533	-0.270508	-0.721924	-0.283301	-0.033661	-0.000954	-0.958440
53335		0.599706	0.210048	9.728088	-0.006682	0.003194	-0.004695	-0.442627	-0.265869	-0.725098	-0.283338	-0.033643	-0.000949	-0.958429
53336		0.587443	0.246693	9.703129	-0.001389	0.005443	-0.007248	-0.453613	-0.269287	-0.729736	-0.283367	-0.033588	-0.000983	-0.958423
53337		0.566593	0.274762	9.711838	-0.002979	0.002475	-0.003473	-0.443848	-0.265381	-0.719238	-0.283378	-0.033585	-0.000997	-0.958420
53338		0.531057	0.269611	9.669888	-0.006137	0.004756	-0.008227	-0.444824	-0.274658	-0.729492	-0.283395	-0.033545	-0.000995	-0.958416
53339		0.526902	0.224373	9.682801	-0.005662	0.001102	-0.006441	-0.446533	-0.265869	-0.730225	-0.283507	-0.033526	-0.000994	-0.958384
53340		0.548830	0.228785	9.740785	-0.006548	-0.003608	-0.006419	-0.449463	-0.271729	-0.727295	-0.283528	-0.033531	-0.000961	-0.958377
53341		0.566474	0.213382	9.728430	-0.003868	-0.008492	-0.005898	-0.447998	-0.269775	-0.722656	-0.283587	-0.033611	-0.000948	-0.958357
53342		0.545097	0.229495	9.694829	-0.000307	-0.014922	-0.007849	-0.454346	-0.270020	-0.721191	-0.283636	-0.033755	-0.000950	-0.958337
53343		0.537800	0.274714	9.697823	-0.000727	-0.013290	-0.010023	-0.450684	-0.265381	-0.722656	-0.283682	-0.033910	-0.000956	-0.958318
53344		0.591968	0.296949	9.672340	-0.000647	-0.011813	-0.008910	-0.446045	-0.272949	-0.724121	-0.283688	-0.034027	-0.000956	-0.958312
53345		0.644658	0.312150	9.740431	-0.005113	-0.007335	-0.005989	-0.457520	-0.268311	-0.722168	-0.283763	-0.034089	-0.000940	-0.958288
53346		0.627278	0.263565	9.755205	-0.009194	0.002011	-0.006378	-0.452881	-0.262939	-0.713867	-0.283756	-0.034104	-0.000909	-0.958289
53347		0.599964	0.176322	9.751103	-0.005948	0.002189	-0.007888	-0.450195	-0.259766	-0.724365	-0.283703	-0.034123	-0.000905	-0.958304
53348		0.583259	0.164913	9.724939	0.001445	0.003515	-0.004499	-0.445557	-0.271973	-0.724365	-0.283628	-0.034104	-0.000947	-0.958327
53349		0.579098	0.178841	9.721334	0.000343	0.004129	-0.003866	-0.453125	-0.270752	-0.720215	-0.283682	-0.034084	-0.000999	-0.958312
53350		0.589072	0.253825	9.699341	-0.000759	0.004743	-0.003234	-0.447266	-0.269531	-0.730225	-0.283673	-0.034091	-0.001046	-0.958314
53351		0.560014	0.305205	9.686753	-0.005147	0.004440	-0.001648	-0.444580	-0.272217	-0.727051	-0.283694	-0.034041	-0.001045	-0.958310
53352		0.523949	0.292556	9.738366	-0.013005	-0.003231	-0.002843	-0.448242	-0.271973	-0.720459	-0.283754	-0.034037	-0.000970	-0.958292
53353		0.555755	0.253339	9.685603	-0.012966	-0.002493	-0.002286	-0.448975	-0.265137	-0.719971	-0.283775	-0.034059	-0.000903	-0.958285
53354		0.575426	0.186551	9.717819	-0.012690	-0.009839	-0.003288	-0.449219	-0.270752	-0.720459	-0.283735	-0.034131	-0.000813	-0.958295
53355		0.597690	0.160691	9.723130	-0.006515	-0.002872	-0.005861	-0.453857	-0.272217	-0.724609	-0.283770	-0.034171	-0.000796	-0.958283
53356		0.578662	0.162615	9.693263	-0.003471	-0.006382	-0.010157	-0.444824	-0.266357	-0.722412	-0.283841	-0.034253	-0.000797	-0.958259
53357		0.575084	0.197801	9.714050	-0.000829	-0.012003	-0.010199	-0.449707	-0.267822	-0.724121	-0.283893	-0.034351	-0.000796	-0.958240
53358		0.577187	0.197493	9.713932	-0.004199	-0.014398	-0.010361	-0.453369	-0.263184	-0.715820	-0.283942	-0.034473	-0.000764	-0.958221
53359		0.577950	0.218331	9.738316	-0.007407	-0.013841	-0.008293	-0.457031	-0.270020	-0.721191	-0.283891	-0.034609	-0.000710	-0.958231
53360		0.613130	0.213842	9.752031	-0.006126	-0.014262	-0.007646	-0.457275	-0.274170	-0.725098	-0.283895	-0.034760	-0.000671	-0.958225
53361		0.608339	0.240224	9.744673	-0.008413	-0.014512	-0.007493	-0.453369	-0.265381	-0.721924	-0.283945	-0.034904	-0.000615	-0.958205
53362		0.603547	0.266724	9.737321	-0.004482	-0.014296	-0.004436	-0.447754	-0.275879	-0.725342	-0.283906	-0.035035	-0.000579	-0.958212
53363		0.619418	0.269139	9.735299	-0.005446	-0.006985	-0.007998	-0.457764	-0.270996	-0.725342	-0.284029	-0.035095	-0.000562	-0.958173
53364		0.622009	0.188387	9.727131	-0.006821	-0.006269	-0.001436	-0.449707	-0.269043	-0.722168	-0.284003	-0.035170	-0.000532	-0.958178
53365		0.611460	0.166529	9.718566	-0.005579	-0.007427	-0.001347	-0.444824	-0.271973	-0.720215	-0.283995	-0.035235	-0.000505	-0.958178
53366		0.603775	0.185045	9.683144	-0.007384	-0.011334	0.000587	-0.451660	-0.272705	-0.718994	-0.284019	-0.035320	-0.000457	-0.958168
53367		0.631426	0.207912	9.689623	-0.006514	-0.011107	0.006438	-0.446777	-0.278809	-0.723877	-0.283965	-0.035433	-0.000420	-0.958180
53368		0.635171	0.214534	9.717672	-0.008494	-0.008951	0.009547	-0.457764	-0.278564	-0.726562	-0.283980	-0.035505	-0.000371	-0.958172
53369		0.620412	0.202350	9.691415	-0.004148	-0.009382	0.007398	-0.452148	-0.278076	-0.722168	-0.283966	-0.035618	-0.000359	-0.958173
53370		0.605268	0.215951	9.703751	-0.006758	-0.009279	0.005547	-0.446533	-0.266602	-0.718994	-0.283979	-0.035715	-0.000327	-0.958165
53371		0.629105	0.227473	9.668062	-0.000381	-0.004872	0.003304	-0.455078	-0.269775	-0.718018	-0.283919	-0.035762	-0.000344	-0.958181
53372		0.595580	0.252513	9.678780	-0.000606	-0.005803	0.001465	-0.456543	-0.276611	-0.719971	-0.283867	-0.035851	-0.000366	-0.958193
53373		0.614592	0.271451	9.733049	0.000423	-0.001636	0.002171	-0.449219	-0.275879	-0.727051	-0.283871	-0.035921	-0.000412	-0.958189
53374		0.622194	0.243923	9.740215	-0.000522	-0.004327	0.002580	-0.459473	-0.268311	-0.728271	-0.283910	-0.035965	-0.000434	-0.958176
53375		0.683243	0.242855	9.735940	0.001680	-0.005553	0.001310	-0.456055	-0.279541	-0.723145	-0.283854	-0.036040	-0.000466	-0.958190
53376		0.681400	0.202644	9.762706	0.001200	-0.001896	-0.000470	-0.456787	-0.277100	-0.718262	-0.283916	-0.036107	-0.000517	-0.958169
53377		0.658885	0.223329	9.743407	0.002680	0.004132	0.003916	-0.448486	-0.268066	-0.719971	-0.283909	-0.036139	-0.000595	-0.958170
53378		0.625040	0.285123	9.713355	-0.000494	0.006416	-0.000830	-0.438965	-0.266113	-0.718262	-0.283885	-0.036098	-0.000640	-0.958178
53379		0.631286	0.315187	9.704275	-0.006424	0.003870	0.005093	-0.459961	-0.276367	-0.711426	-0.283824	-0.036034	-0.000627	-0.958199
53380		0.620293	0.296815	9.709896	-0.011306	0.000964	0.002448	-0.464600	-0.276367	-0.716797	-0.283805	-0.036086	-0.000591	-0.958203
53381		0.609723	0.278084	9.715493	-0.010926	-0.001410	0.004061	-0.457275	-0.269775	-0.718018	-0.283770	-0.036158	-0.000550	-0.958210
53382		0.624450	0.254091	9.674967	-0.007820	-0.000682	0.001823	-0.451416	-0.266357	-0.716064	-0.283716	-0.036193	-0.000526	-0.958225
53383		0.603369	0.219104	9.686070	-0.006719	-0.001295	0.001188	-0.455322	-0.271484	-0.729004	-0.283650	-0.036215	-0.000506	-0.958244
53384		0.612776	0.257189	9.705071	0.001059	-0.001350	-0.001194	-0.451660	-0.266113	-0.715088	-0.283660	-0.036244	-0.000544	-0.958239
53385		0.580738	0.260737	9.691261	-0.000677	-0.010037	-0.000604	-0.457520	-0.264160	-0.717773	-0.283602	-0.036352	-0.000553	-0.958253
53386		0.614846	0.253795	9.690792	0.007097	-0.017341	0.001929	-0.453857	-0.271240	-0.722412	-0.283491	-0.036545	-0.000604	-0.958278
53387		0.665168	0.196239	9.718657	0.004921	-0.021633	0.001299	-0.451172	-0.270752	-0.718018	-0.283469	-0.036754	-0.000630	-0.958277
53388		0.693209	0.159562	9.727212	0.012907	-0.018001	0.001704	-0.451660	-0.256836	-0.722412	-0.283440	-0.036953	-0.000728	-0.958278
53389		0.668517	0.217070	9.728665	0.008588	-0.014074	0.005363	-0.447998	-0.267578	-0.723633	-0.283269	-0.037075	-0.000784	-0.958323
53390		0.635477	0.239534	9.725235	0.007725	-0.015290	0.006889	-0.459961	-0.263672	-0.723145	-0.283203	-0.037208	-0.000835	-0.958338
53391		0.690485	0.292170	9.752167	0.001940	-0.011133	0.008622	-0.455078	-0.275879	-0.718018	-0.283035	-0.037324	-0.000854	-0.958383
53392		0.726193	0.292604	9.779808	-0.001051	-0.008655	0.005161	-0.453369	-0.262939	-0.719482	-0.283012	-0.037432	-0.000867	-0.958385
53393		0.710759	0.280812	9.753618	-0.007396	-0.002316	0.004002	-0.463623	-0.272217	-0.723145	-0.282903	-0.037442	-0.000832	-0.958417
53394		0.689458	0.245738	9.764799	-0.008111	0.003171	0.001334	-0.453125	-0.278809	-0.715332	-0.282853	-0.037444	-0.000815	-0.958432
53395		0.654669	0.243877	9.737129	-0.009266	0.005805	0.002363	-0.455322	-0.270996	-0.720703	-0.282884	-0.037422	-0.000801	-0.958423
53396		0.612261	0.269032	9.702328	-0.014274	0.009703	0.001457	-0.444092	-0.267822	-0.714355	-0.282862	-0.037337	-0.000747	-0.958433
53397		0.582983	0.235058	9.667798	-0.011555	0.005556	0.002520	-0.457520	-0.264160	-0.724854	-0.282844	-0.037269	-0.000700	-0.958441
53398		0.590840	0.184240	9.650485	-0.008793	0.002146	0.004140	-0.449707	-0.264160	-0.722900	-0.282739	-0.037242	-0.000664	-0.958473
53399		0.609585	0.176321	9.666186	-0.006030	-0.001263	0.005761	-0.458008	-0.268799	-0.721924	-0.282659	-0.037231	-0.000638	-0.958498
53400		0.671068	0.178051	9.675951	-0.005296	-0.000497	0.010887	-0.457275	-0.267090	-0.723389	-0.282531	-0.037251	-0.000629	-0.958534
53401		0.668419	0.220911	9.725067	0.001890	-0.000105	0.012422	-0.458496	-0.277344	-0.716797	-0.282383	-0.037276	-0.000674	-0.958577
53402		0.685332	0.232011	9.751187	0.000907	-0.006292	0.011320	-0.450684	-0.270996	-0.719727	-0.282309	-0.037385	-0.000711	-0.958594
53403		0.723953	0.251578	9.727561	0.005007	-0.002137	0.009230	-0.453125	-0.268799	-0.725586	-0.282249	-0.037429	-0.000777	-0.958610
53404		0.708181	0.270367	9.754101	-0.000291	0.005614	0.007830	-0.454346	-0.261230	-0.715088	-0.282184	-0.037387	-0.000816	-0.958631
53405		0.672827	0.269834	9.726430	-0.000679	0.010748	0.007170	-0.449951	-0.264160	-0.723633	-0.282024	-0.037319	-0.000868	-0.958681
53406		0.638492	0.272667	9.712838	-0.007575	0.006508	0.006129	-0.455078	-0.274170	-0.717041	-0.281949	-0.037241	-0.000848	-0.958706
53407		0.611522	0.247421	9.706388	-0.007899	0.006862	0.004124	-0.451904	-0.264404	-0.711914	-0.281932	-0.037208	-0.000841	-0.958712
53408		0.631492	0.279920	9.695422	-0.007456	0.009716	0.000430	-0.458740	-0.274902	-0.723877	-0.281863	-0.037140	-0.000843	-0.958735
53409		0.672034	0.255295	9.744575	-0.009336	0.010588	0.003707	-0.458740	-0.266846	-0.717285	-0.281851	-0.037070	-0.000832	-0.958741
53410		0.658611	0.233212	9.736188	-0.005765	0.010413	0.004197	-0.451660	-0.270752	-0.716309	-0.281747	-0.037013	-0.000851	-0.958774
53411		0.655085	0.224487	9.708160	-0.004331	0.006686	0.004613	-0.451660	-0.268066	-0.716797	-0.281714	-0.036978	-0.000869	-0.958785
53412		0.631542	0.244604	9.688991	0.000695	0.009038	0.007983	-0.454102	-0.275635	-0.717773	-0.281630	-0.036930	-0.000930	-0.958812
53413		0.633779	0.230798	9.692649	-0.000031	0.007276	0.010230	-0.456299	-0.267578	-0.721191	-0.281583	-0.036913	-0.000985	-0.958826
53414		0.611356	0.255286	9.687530	0.002299	0.008260	0.010633	-0.458984	-0.264893	-0.721436	-0.281455	-0.036877	-0.001057	-0.958865
53415		0.606726	0.269143	9.684023	0.000246	0.006183	0.011676	-0.455811	-0.275635	-0.718262	-0.281279	-0.036855	-0.001107	-0.958917
53416		0.595043	0.277483	9.728240	-0.002813	0.003436	0.013519	-0.444580	-0.273926	-0.723145	-0.281197	-0.036866	-0.001132	-0.958941
53417		0.619407	0.296450	9.720830	-0.008396	0.003272	0.007255	-0.456055	-0.271973	-0.716309	-0.281232	-0.036817	-0.001098	-0.958933
53418		0.632128	0.294077	9.704883	-0.010128	0.001839	0.002929	-0.451904	-0.265381	-0.726562	-0.281203	-0.036823	-0.001064	-0.958941
53419		0.658827	0.262121	9.741849	-0.009614	-0.000084	-0.002110	-0.455322	-0.270264	-0.733154	-0.281198	-0.036796	-0.001016	-0.958943
53420		0.660807	0.242890	9.731415	-0.009456	0.005622	0.001077	-0.446777	-0.271973	-0.726562	-0.281210	-0.036727	-0.000981	-0.958943
53421		0.674106	0.244558	9.729568	-0.007992	0.005389	0.003005	-0.453613	-0.262207	-0.722656	-0.281254	-0.036658	-0.000956	-0.958933
53422		0.642235	0.254690	9.744068	-0.008186	0.007956	0.002676	-0.452148	-0.265381	-0.722656	-0.281159	-0.036581	-0.000942	-0.958963
53423		0.637984	0.241714	9.701943	-0.006528	0.005156	0.004932	-0.449707	-0.267334	-0.727783	-0.281087	-0.036532	-0.000933	-0.958986
53424		0.652027	0.189714	9.730356	-0.002968	0.007736	0.006378	-0.452148	-0.273682	-0.720215	-0.281046	-0.036455	-0.000953	-0.959001
53425		0.663580	0.188169	9.714464	-0.005005	0.011910	0.009884	-0.447510	-0.269531	-0.724609	-0.281013	-0.036377	-0.000974	-0.959014
53426		0.626606	0.241841	9.656505	0.001988	0.014858	0.011100	-0.455566	-0.270508	-0.726807	-0.280958	-0.036262	-0.001050	-0.959034
53427		0.569917	0.295115	9.676348	-0.004882	0.014120	0.011559	-0.456299	-0.269775	-0.717529	-0.280873	-0.036156	-0.001075	-0.959063
53428		0.553083	0.286955	9.664324	-0.008239	0.006217	0.009487	-0.454834	-0.263672	-0.722656	-0.280778	-0.036129	-0.001062	-0.959092
53429		0.581764	0.295780	9.674636	-0.006798	0.003493	0.002530	-0.455078	-0.266602	-0.723633	-0.280691	-0.036100	-0.001052	-0.959119
53430		0.599249	0.255061	9.745266	-0.008358	0.005011	0.000438	-0.447266	-0.274902	-0.717773	-0.280653	-0.036059	-0.001033	-0.959131
53431		0.638906	0.254954	9.711436	-0.011328	0.004744	-0.003978	-0.452393	-0.269531	-0.722412	-0.280769	-0.036020	-0.000989	-0.959099
53432		0.612045	0.254500	9.743528	-0.014710	0.002355	-0.004145	-0.465332	-0.265381	-0.719482	-0.280812	-0.035987	-0.000914	-0.959087
53433		0.647037	0.230923	9.746875	-0.012748	0.001951	0.001070	-0.455566	-0.269043	-0.727295	-0.280702	-0.035997	-0.000864	-0.959119
53434		0.623126	0.187323	9.729716	-0.012347	0.003066	0.004193	-0.449707	-0.270020	-0.724365	-0.280667	-0.035960	-0.000806	-0.959131
53435		0.629593	0.157990	9.736875	-0.009092	0.003246	0.002683	-0.453613	-0.259521	-0.718018	-0.280679	-0.035923	-0.000772	-0.959129
53436		0.604264	0.195114	9.728216	-0.004247	0.005399	0.004779	-0.455078	-0.264648	-0.726318	-0.280532	-0.035887	-0.000788	-0.959173
53437		0.607553	0.213443	9.677025	-0.003504	0.004407	0.001580	-0.456543	-0.270752	-0.723145	-0.280474	-0.035854	-0.000805	-0.959191
53438		0.609755	0.220289	9.705208	-0.007950	-0.005636	-0.000820	-0.452393	-0.273682	-0.718018	-0.280485	-0.035913	-0.000766	-0.959186
53439		0.600102	0.260230	9.694567	-0.009692	-0.004306	-0.004194	-0.453125	-0.265137	-0.725830	-0.280568	-0.035964	-0.000718	-0.959160
53440		0.590893	0.245503	9.714123	-0.012315	-0.001437	-0.005091	-0.454102	-0.263428	-0.723145	-0.280581	-0.035954	-0.000651	-0.959157
53441		0.594369	0.204602	9.678999	-0.009363	0.005350	-0.006133	-0.452148	-0.268799	-0.717529	-0.280574	-0.035902	-0.000627	-0.959161
53442		0.615089	0.207881	9.737074	-0.010481	0.008718	-0.004541	-0.461426	-0.268555	-0.722656	-0.280611	-0.035839	-0.000603	-0.959152
53443		0.645393	0.198304	9.736932	-0.014262	0.010451	0.002010	-0.451416	-0.263672	-0.721680	-0.280555	-0.035766	-0.000556	-0.959171
53444		0.646805	0.182257	9.740644	-0.013367	0.015161	0.002007	-0.456543	-0.272949	-0.718994	-0.280500	-0.035625	-0.000519	-0.959192
53445		0.592636	0.216126	9.750035	-0.011393	0.011997	0.006265	-0.453125	-0.269287	-0.726074	-0.280474	-0.035551	-0.000496	-0.959203
53446		0.590408	0.210429	9.736057	-0.010038	0.003028	0.011969	-0.451660	-0.262695	-0.719727	-0.280395	-0.035521	-0.000453	-0.959227
53447		0.614897	0.170734	9.744769	-0.005993	-0.000814	0.014234	-0.452393	-0.269531	-0.713135	-0.280228	-0.035530	-0.000436	-0.959276
53448		0.640001	0.106193	9.714693	-0.002846	-0.000366	0.019934	-0.452637	-0.260254	-0.729248	-0.280072	-0.035572	-0.000448	-0.959320
53449		0.629526	0.147384	9.704132	0.003641	0.001733	0.025246	-0.445801	-0.266357	-0.718994	-0.279804	-0.035559	-0.000505	-0.959398
53450		0.581338	0.202610	9.662149	0.001826	0.004070	0.029641	-0.449219	-0.266846	-0.721680	-0.279588	-0.035540	-0.000551	-0.959462
53451		0.557611	0.244611	9.667582	-0.000363	-0.000215	0.028996	-0.454834	-0.266602	-0.726562	-0.279369	-0.035553	-0.000572	-0.959525
53452		0.577650	0.240911	9.697392	-0.004859	-0.001987	0.029459	-0.447510	-0.254883	-0.721924	-0.279126	-0.035574	-0.000554	-0.959595
53453		0.594492	0.250204	9.723685	-0.010343	-0.003411	0.023349	-0.458008	-0.261719	-0.720947	-0.278841	-0.035563	-0.000488	-0.959678
53454		0.573374	0.268885	9.704443	-0.011744	-0.007946	0.020063	-0.455322	-0.265625	-0.715820	-0.278602	-0.035628	-0.000412	-0.959745
53455		0.595000	0.238001	9.695453	-0.016817	-0.011013	0.016120	-0.455811	-0.270264	-0.719727	-0.278449	-0.035717	-0.000288	-0.959787
53456		0.604801	0.211468	9.716519	-0.015538	-0.011441	0.016766	-0.455566	-0.263184	-0.722656	-0.278348	-0.035812	-0.000171	-0.959812
53457		0.645744	0.177456	9.737311	-0.013592	-0.002574	0.017488	-0.453369	-0.264160	-0.721680	-0.278176	-0.035821	-0.000088	-0.959862
53458		0.642855	0.135286	9.763849	-0.003154	0.003474	0.019449	-0.453369	-0.272217	-0.714600	-0.278011	-0.035804	-0.000100	-0.959910
53459		0.687290	0.184082	9.731731	-0.005385	0.010211	0.022640	-0.443115	-0.266602	-0.723389	-0.277897	-0.035758	-0.000112	-0.959945
53460		0.637530	0.209499	9.758787	-0.001057	0.020787	0.024334	-0.464355	-0.265869	-0.721191	-0.277780	-0.035581	-0.000168	-0.959986
53461		0.568488	0.245743	9.662568	-0.004496	0.017671	0.023599	-0.453857	-0.260010	-0.713623	-0.277547	-0.035482	-0.000211	-0.960057
53462		0.570539	0.234732	9.680337	-0.005723	0.013326	0.021593	-0.453369	-0.266113	-0.719971	-0.277310	-0.035395	-0.000231	-0.960128
53463		0.558511	0.195276	9.661203	-0.005924	0.018647	0.022230	-0.459229	-0.262451	-0.725342	-0.277148	-0.035260	-0.000256	-0.960180
53464		0.580397	0.239166	9.692934	-0.007077	0.018527	0.022305	-0.453369	-0.263916	-0.723877	-0.276924	-0.035121	-0.000275	-0.960250
53465		0.557012	0.262151	9.687988	-0.010858	0.012289	0.018043	-0.455566	-0.265625	-0.720703	-0.276781	-0.035015	-0.000245	-0.960295
53466		0.572852	0.249597	9.689765	-0.008691	0.010323	0.016212	-0.453369	-0.254395	-0.710693	-0.276657	-0.034946	-0.000233	-0.960333
53467		0.567332	0.228485	9.741053	-0.013886	0.005068	0.010581	-0.451660	-0.262695	-0.728516	-0.276455	-0.034905	-0.000175	-0.960393
53468		0.603697	0.212686	9.772613	-0.006959	0.006517	0.010696	-0.456543	-0.260986	-0.721924	-0.276379	-0.034838	-0.000162	-0.960417
53469		0.662339	0.209467	9.768784	-0.008529	0.013552	0.010527	-0.454346	-0.252930	-0.724365	-0.276250	-0.034736	-0.000162	-0.960458
53470		0.627645	0.186940	9.716257	-0.005308	0.012695	0.016391	-0.457520	-0.266602	-0.725586	-0.276003	-0.034624	-0.000182	-0.960533
53471		0.690730	0.210984	9.811371	-0.002537	0.042338	0.014405	-0.456787	-0.266113	-0.728760	-0.275904	-0.034312	-0.000292	-0.960573
53472		0.462479	0.196745	9.603320	-0.009711	0.054467	0.017807	-0.452393	-0.260742	-0.721924	-0.275781	-0.033878	-0.000370	-0.960623
53473		0.543499	0.234975	9.738898	-0.000928	-0.008050	0.014890	-0.448242	-0.266113	-0.728271	-0.275635	-0.033961	-0.000377	-0.960662
53474		0.503703	0.241018	9.679191	-0.002551	0.015797	0.012560	-0.454346	-0.264160	-0.726562	-0.275601	-0.033834	-0.000418	-0.960676
53475		0.533970	0.229179	9.664944	0.001952	-0.008982	0.010262	-0.442871	-0.252686	-0.725342	-0.275526	-0.033932	-0.000446	-0.960695
53476		0.546941	0.195176	9.703596	-0.003046	-0.002004	0.002383	-0.455811	-0.267822	-0.714844	-0.275446	-0.033915	-0.000447	-0.960718
53477		0.580801	0.190906	9.717470	0.000869	-0.010822	0.002006	-0.447998	-0.262451	-0.720703	-0.275459	-0.034062	-0.000469	-0.960709
53478		0.596171	0.218761	9.754381	-0.005414	-0.006461	0.000446	-0.453857	-0.263428	-0.719482	-0.275474	-0.034115	-0.000445	-0.960703
53479		0.581759	0.265391	9.712163	-0.007497	-0.005779	0.002436	-0.456787	-0.266846	-0.721680	-0.275454	-0.034178	-0.000409	-0.960706
53480		0.590146	0.240167	9.733246	-0.009443	-0.002597	-0.001819	-0.453857	-0.257324	-0.717529	-0.275496	-0.034219	-0.000366	-0.960693
53481		0.631712	0.243921	9.713659	-0.007473	0.003509	-0.002046	-0.451172	-0.257568	-0.726562	-0.275441	-0.034200	-0.000356	-0.960709
53482		0.621057	0.229607	9.733176	-0.009287	0.006142	-0.005579	-0.456787	-0.258789	-0.724365	-0.275441	-0.034130	-0.000333	-0.960712
53483		0.638534	0.220918	9.749043	-0.011503	0.007373	-0.004311	-0.456299	-0.261963	-0.728027	-0.275415	-0.034066	-0.000299	-0.960722
53484		0.599156	0.175298	9.733408	-0.006522	0.008947	-0.001476	-0.452881	-0.266357	-0.725342	-0.275407	-0.033998	-0.000305	-0.960726
53485		0.575160	0.191549	9.700134	-0.004029	0.003864	-0.002265	-0.449707	-0.260498	-0.728516	-0.275470	-0.033982	-0.000316	-0.960709
53486		0.561255	0.191835	9.716127	-0.002840	0.004716	-0.001777	-0.446777	-0.258789	-0.717529	-0.275480	-0.033936	-0.000337	-0.960708
53487		0.576953	0.202156	9.742557	-0.000532	0.002201	-0.002885	-0.454346	-0.259766	-0.717529	-0.275483	-0.033930	-0.000375	-0.960707
53488		0.604564	0.207760	9.738958	-0.003960	0.008083	-0.000180	-0.452637	-0.267578	-0.718994	-0.275436	-0.033890	-0.000403	-0.960722
53489		0.648808	0.198263	9.722911	-0.005969	0.001242	-0.000518	-0.450684	-0.258789	-0.730957	-0.275495	-0.033906	-0.000394	-0.960704
53490		0.609534	0.232729	9.716201	-0.007194	0.008645	0.001883	-0.455566	-0.261230	-0.722656	-0.275450	-0.033813	-0.000389	-0.960720
53491		0.580364	0.225600	9.719921	-0.007332	0.000206	-0.002290	-0.449707	-0.263428	-0.719727	-0.275437	-0.033824	-0.000371	-0.960724
53492		0.604540	0.185901	9.728556	-0.007639	0.000573	-0.004294	-0.453369	-0.256104	-0.718018	-0.275495	-0.033826	-0.000347	-0.960707
53493		0.604175	0.184950	9.728597	-0.004858	0.003681	-0.008117	-0.446045	-0.269775	-0.725586	-0.275475	-0.033810	-0.000361	-0.960714
53494		0.575972	0.236489	9.716578	-0.006181	0.003379	-0.009327	-0.450928	-0.262451	-0.722412	-0.275671	-0.033781	-0.000349	-0.960658
53495		0.556979	0.242635	9.700859	-0.006303	0.001178	-0.011012	-0.452637	-0.261963	-0.720215	-0.275763	-0.033777	-0.000340	-0.960632
53496		0.565594	0.196237	9.697207	-0.008788	0.003508	-0.011186	-0.447021	-0.263672	-0.726562	-0.275841	-0.033757	-0.000319	-0.960610
53497		0.584945	0.166008	9.688278	-0.014362	0.003096	-0.009542	-0.462158	-0.251709	-0.720215	-0.275957	-0.033702	-0.000245	-0.960579
53498		0.559170	0.169554	9.734312	-0.008925	0.001002	-0.004943	-0.457520	-0.259766	-0.728516	-0.275814	-0.033709	-0.000227	-0.960620
53499		0.599230	0.195237	9.739547	-0.002659	0.002147	-0.001456	-0.443604	-0.260254	-0.718994	-0.275768	-0.033704	-0.000250	-0.960633
53500		0.632198	0.165321	9.714631	-0.005880	-0.000045	-0.000360	-0.446289	-0.264404	-0.729736	-0.275786	-0.033697	-0.000236	-0.960628
53501		0.596870	0.186315	9.711361	-0.002659	0.002147	-0.001456	-0.456055	-0.264648	-0.723633	-0.275855	-0.033669	-0.000249	-0.960609
53502		0.596449	0.185993	9.711393	-0.001470	0.003000	-0.000967	-0.455566	-0.260498	-0.728760	-0.275868	-0.033677	-0.000282	-0.960605
53503		0.601218	0.179392	9.743132	-0.002539	0.004347	0.000230	-0.453369	-0.266113	-0.718506	-0.275825	-0.033651	-0.000309	-0.960619
53504		0.635054	0.157463	9.746518	-0.000495	0.011922	0.001136	-0.451660	-0.257568	-0.724609	-0.275849	-0.033596	-0.000369	-0.960614
53505		0.602391	0.168629	9.760921	-0.004787	0.011077	0.003428	-0.448975	-0.264648	-0.720703	-0.275759	-0.033506	-0.000393	-0.960642
53506		0.572113	0.191182	9.696007	-0.005628	0.013648	-0.001460	-0.447266	-0.264160	-0.716797	-0.275809	-0.033408	-0.000413	-0.960632
53507		0.540779	0.180451	9.685624	-0.006497	0.009676	-0.000912	-0.446777	-0.267334	-0.723877	-0.275854	-0.033344	-0.000418	-0.960621
53508		0.554527	0.186277	9.698043	-0.005255	0.008511	-0.000825	-0.452637	-0.259033	-0.721924	-0.275942	-0.033281	-0.000426	-0.960598
53509		0.584878	0.177391	9.698008	-0.007822	0.009374	-0.002123	-0.459961	-0.256104	-0.718994	-0.275907	-0.033210	-0.000424	-0.960610
53510		0.564054	0.179386	9.668205	-0.008478	0.006318	0.000269	-0.451172	-0.258545	-0.728271	-0.275785	-0.033182	-0.000417	-0.960646
53511		0.535582	0.200577	9.724893	-0.012662	0.001438	0.001752	-0.451660	-0.262695	-0.721924	-0.275726	-0.033146	-0.000355	-0.960664
53512		0.570133	0.173202	9.714105	-0.010949	-0.006147	0.002631	-0.454590	-0.262939	-0.722168	-0.275709	-0.033197	-0.000289	-0.960668
53513		0.601280	0.130796	9.768469	-0.005097	-0.000601	0.004927	-0.445068	-0.265869	-0.722900	-0.275663	-0.033225	-0.000283	-0.960680
53514		0.629509	0.081742	9.794626	-0.000203	0.005318	0.000650	-0.455811	-0.263184	-0.729492	-0.275732	-0.033195	-0.000323	-0.960661
53515		0.592392	0.100223	9.777245	0.007386	0.006762	0.005354	-0.451660	-0.259033	-0.720703	-0.275680	-0.033180	-0.000432	-0.960677
53516		0.585792	0.132832	9.784505	0.007746	0.004376	0.006954	-0.445801	-0.257080	-0.722412	-0.275577	-0.033186	-0.000540	-0.960706
53517		0.589577	0.153213	9.733472	0.005524	0.005604	0.008221	-0.458740	-0.269775	-0.726807	-0.275464	-0.033155	-0.000631	-0.960739
53518		0.563495	0.188499	9.710816	0.001902	0.005064	0.007152	-0.447510	-0.272949	-0.726074	-0.275466	-0.033164	-0.000690	-0.960738
53519		0.547448	0.181677	9.698532	-0.002158	0.005445	0.003357	-0.449707	-0.260498	-0.731934	-0.275586	-0.033140	-0.000710	-0.960705
53520		0.516334	0.167617	9.673911	-0.004403	0.003190	0.003096	-0.450195	-0.265137	-0.721924	-0.275536	-0.033100	-0.000716	-0.960720
53521		0.508321	0.190684	9.652913	-0.005976	0.001240	-0.000524	-0.442627	-0.261475	-0.717773	-0.275578	-0.033104	-0.000705	-0.960708
53522		0.511571	0.201104	9.695284	-0.005006	-0.005056	-0.004373	-0.452637	-0.258301	-0.726318	-0.275627	-0.033144	-0.000687	-0.960693
53523		0.498533	0.197305	9.697026	-0.005265	-0.009765	0.000181	-0.453125	-0.260986	-0.732422	-0.275562	-0.033222	-0.000661	-0.960709
53524		0.550737	0.181680	9.712595	-0.003163	-0.013192	-0.002773	-0.455078	-0.259277	-0.729980	-0.275554	-0.033324	-0.000642	-0.960708
53525		0.590561	0.170475	9.758193	-0.006643	-0.008050	-0.000626	-0.456299	-0.262695	-0.726074	-0.275502	-0.033383	-0.000609	-0.960720
53526		0.649150	0.185101	9.765120	-0.006555	-0.000351	0.002995	-0.448730	-0.261963	-0.726807	-0.275464	-0.033399	-0.000591	-0.960731
53527		0.639747	0.204047	9.730054	-0.007976	0.009616	0.005088	-0.446777	-0.264160	-0.721924	-0.275427	-0.033309	-0.000581	-0.960744
53528		0.586503	0.213801	9.700439	-0.009369	0.014082	0.005248	-0.447021	-0.266357	-0.723145	-0.275428	-0.033191	-0.000569	-0.960748
53529		0.510723	0.190242	9.681296	-0.004034	0.019080	0.003697	-0.455322	-0.263428	-0.727539	-0.275468	-0.033047	-0.000610	-0.960742
53530		0.513019	0.238090	9.683473	-0.000875	0.017056	0.000513	-0.449219	-0.257080	-0.724365	-0.275465	-0.032934	-0.000677	-0.960747
53531		0.491726	0.244966	9.667830	-0.001856	0.017118	0.001867	-0.447998	-0.258301	-0.718506	-0.275381	-0.032799	-0.000739	-0.960775
53532		0.513146	0.286467	9.685757	0.006188	0.011718	-0.001125	-0.459473	-0.264648	-0.725098	-0.275343	-0.032738	-0.000854	-0.960788
53533		0.544983	0.286983	9.713991	0.004390	0.011606	-0.005625	-0.454590	-0.263184	-0.727051	-0.275387	-0.032700	-0.000954	-0.960777
53534		0.584869	0.238621	9.724328	0.007496	0.011599	-0.008403	-0.450439	-0.268066	-0.730713	-0.275444	-0.032649	-0.001080	-0.960762
53535		0.628434	0.206267	9.791187	0.015781	0.013659	-0.014978	-0.454102	-0.264893	-0.728271	-0.275625	-0.032592	-0.001272	-0.960712
53536		0.610572	0.202290	9.778937	0.016034	0.018367	-0.019531	-0.452393	-0.264404	-0.735352	-0.275785	-0.032506	-0.001484	-0.960668
53537		0.600473	0.233127	9.772159	0.020340	0.022695	-0.020288	-0.454102	-0.256836	-0.718750	-0.275936	-0.032375	-0.001739	-0.960629
53538		0.528992	0.262260	9.754785	0.018898	0.020192	-0.023189	-0.454834	-0.270264	-0.731445	-0.276008	-0.032288	-0.001986	-0.960611
53539		0.500753	0.354270	9.702315	0.012378	0.014339	-0.022135	-0.450684	-0.264404	-0.722900	-0.276237	-0.032230	-0.002156	-0.960547
53540		0.475847	0.373366	9.668902	0.010021	0.009882	-0.024085	-0.447510	-0.273438	-0.725586	-0.276415	-0.032201	-0.002303	-0.960496
53541		0.468766	0.405966	9.676087	0.002054	0.004274	-0.024965	-0.454590	-0.263672	-0.722412	-0.276722	-0.032200	-0.002365	-0.960407
53542		0.450181	0.358620	9.690018	-0.002271	-0.003542	-0.025736	-0.440186	-0.269775	-0.726807	-0.276890	-0.032259	-0.002385	-0.960357
53543		0.466922	0.285464	9.693251	-0.003342	-0.008430	-0.027034	-0.449463	-0.273926	-0.729492	-0.277170	-0.032319	-0.002378	-0.960274
53544		0.500101	0.222827	9.722955	-0.003445	-0.007148	-0.027194	-0.447266	-0.269043	-0.726562	-0.277486	-0.032393	-0.002372	-0.960181
53545		0.558642	0.234642	9.715868	-0.003498	-0.014421	-0.022319	-0.455811	-0.272949	-0.725830	-0.277697	-0.032516	-0.002351	-0.960115
53546		0.574492	0.237234	9.714031	-0.004414	-0.006659	-0.017350	-0.448242	-0.264648	-0.728516	-0.277914	-0.032604	-0.002338	-0.960050
53547		0.528110	0.237019	9.701695	-0.011013	-0.001521	-0.012434	-0.453613	-0.267578	-0.715332	-0.277975	-0.032597	-0.002288	-0.960032
53548		0.568404	0.262129	9.707120	-0.010461	-0.000238	-0.008022	-0.457275	-0.263916	-0.728027	-0.278058	-0.032627	-0.002243	-0.960007
53549		0.527276	0.258583	9.740701	-0.014167	0.003981	-0.007727	-0.448730	-0.259277	-0.723145	-0.278071	-0.032591	-0.002182	-0.960005
53550		0.569157	0.236268	9.804163	-0.011846	0.001474	-0.008832	-0.450195	-0.262695	-0.733398	-0.278036	-0.032562	-0.002136	-0.960016
53551		0.631914	0.164945	9.833906	-0.005701	0.013206	-0.009958	-0.445801	-0.265869	-0.726074	-0.278048	-0.032441	-0.002163	-0.960017
53552		0.628969	0.114118	9.756351	-0.003156	0.037896	-0.014533	-0.445068	-0.264648	-0.726807	-0.278150	-0.032139	-0.002266	-0.959997
53553		0.582132	0.142199	9.721581	0.004779	0.040032	-0.015178	-0.452148	-0.264160	-0.728760	-0.278238	-0.031835	-0.002438	-0.959981
53554		0.447515	0.191856	9.610806	0.003467	0.020412	-0.008019	-0.450439	-0.269775	-0.724609	-0.278249	-0.031699	-0.002555	-0.959982
53555		0.431538	0.221543	9.679829	-0.002690	0.014911	-0.004404	-0.447021	-0.269531	-0.722900	-0.278313	-0.031607	-0.002604	-0.959967
53556		0.412594	0.206440	9.639273	-0.006681	0.010205	-0.001649	-0.444580	-0.273926	-0.719482	-0.278358	-0.031539	-0.002610	-0.959956
53557		0.490026	0.221743	9.690711	-0.009744	-0.002261	-0.003866	-0.452393	-0.265381	-0.718994	-0.278487	-0.031572	-0.002559	-0.959917
53558		0.533999	0.232744	9.699706	-0.015014	-0.003057	-0.000235	-0.447021	-0.266113	-0.720947	-0.278467	-0.031605	-0.002471	-0.959922
53559		0.620792	0.194212	9.719061	-0.014452	-0.011491	0.000153	-0.445557	-0.269775	-0.730225	-0.278457	-0.031691	-0.002366	-0.959923
53560		0.396950	0.157790	9.681483	-0.021551	0.013560	0.001902	-0.441650	-0.259277	-0.729004	-0.278476	-0.031543	-0.002259	-0.959922
53561		0.546675	0.128917	9.739777	-0.008386	-0.027503	0.003214	-0.451660	-0.262207	-0.724121	-0.278343	-0.031731	-0.002168	-0.959955
53562		0.558709	0.086286	9.750035	-0.005462	0.005250	0.004846	-0.455811	-0.269531	-0.728516	-0.278238	-0.031702	-0.002175	-0.959986
53563		0.582848	0.101955	9.729015	-0.000429	-0.005205	0.011197	-0.440186	-0.260742	-0.717773	-0.278172	-0.031782	-0.002193	-0.960003
53564		0.547811	0.093833	9.794126	0.001035	-0.001970	0.014664	-0.444336	-0.257324	-0.729736	-0.277987	-0.031808	-0.002231	-0.960055
53565		0.532526	0.142092	9.752057	0.006562	0.000894	0.021934	-0.450439	-0.263672	-0.729980	-0.277684	-0.031805	-0.002320	-0.960143
53566		0.544586	0.163839	9.760980	0.009732	-0.004183	0.025716	-0.450439	-0.262939	-0.725342	-0.277430	-0.031873	-0.002419	-0.960214
53567		0.557913	0.164479	9.745102	0.009854	0.004978	0.030465	-0.451172	-0.275879	-0.715576	-0.277132	-0.031877	-0.002540	-0.960300
53568		0.574314	0.155193	9.746877	0.012264	0.010899	0.033546	-0.443604	-0.265137	-0.721924	-0.276985	-0.031882	-0.002685	-0.960341
53569		0.566193	0.188258	9.754197	0.012140	0.018412	0.035883	-0.444824	-0.263672	-0.728516	-0.276687	-0.031777	-0.002850	-0.960430
53570		0.527785	0.207024	9.736695	0.003287	0.011578	0.036501	-0.448975	-0.265381	-0.731445	-0.276360	-0.031694	-0.002929	-0.960527
53571		0.474209	0.213932	9.692615	-0.004745	0.007985	0.036012	-0.447754	-0.266846	-0.719727	-0.276056	-0.031629	-0.002935	-0.960616
53572		0.480243	0.239734	9.669903	-0.005756	0.001082	0.034305	-0.457275	-0.261475	-0.725098	-0.275803	-0.031640	-0.002917	-0.960689
53573		0.478926	0.259608	9.694731	-0.009020	-0.001846	0.034826	-0.446533	-0.266846	-0.717041	-0.275458	-0.031670	-0.002872	-0.960787
53574		0.517724	0.222331	9.701707	-0.009125	-0.000564	0.034667	-0.446533	-0.274414	-0.727783	-0.275216	-0.031689	-0.002823	-0.960856
53575		0.564582	0.219692	9.714196	-0.005670	0.003273	0.035991	-0.448242	-0.262939	-0.725830	-0.275055	-0.031676	-0.002803	-0.960902
53576		0.578611	0.221404	9.712525	-0.005955	0.000893	0.033019	-0.455566	-0.262207	-0.729980	-0.274767	-0.031670	-0.002785	-0.960985
53577		0.583983	0.213867	9.744256	-0.004658	-0.002290	0.032704	-0.446289	-0.261963	-0.729004	-0.274464	-0.031701	-0.002772	-0.961071
53578		0.583270	0.209396	9.730127	-0.000552	0.001120	0.030110	-0.445312	-0.265869	-0.728760	-0.274191	-0.031694	-0.002798	-0.961149
53579		0.563839	0.212325	9.700134	-0.001876	0.000820	0.028894	-0.444336	-0.256348	-0.729004	-0.273986	-0.031690	-0.002809	-0.961207
53580		0.574155	0.225010	9.680830	0.000535	-0.002978	0.027948	-0.440430	-0.265869	-0.726562	-0.273661	-0.031705	-0.002838	-0.961299
53581		0.507330	0.254384	9.677330	-0.002501	0.004309	0.025853	-0.445312	-0.263916	-0.719971	-0.273497	-0.031665	-0.002852	-0.961347
53582		0.499569	0.302644	9.695253	-0.004654	-0.005454	0.023244	-0.452637	-0.262451	-0.729492	-0.273331	-0.031720	-0.002830	-0.961393
53583		0.485249	0.294965	9.682819	-0.005845	-0.003969	0.015227	-0.462158	-0.264893	-0.733154	-0.273191	-0.031755	-0.002806	-0.961431
53584		0.515093	0.248852	9.723164	-0.006144	-0.003598	0.013223	-0.445801	-0.254883	-0.723389	-0.273088	-0.031806	-0.002781	-0.961459
53585		0.599440	0.232268	9.767334	-0.002952	-0.002145	0.011577	-0.449707	-0.255859	-0.726318	-0.272890	-0.031817	-0.002790	-0.961515
53586		0.586856	0.236276	9.797339	-0.002229	0.005124	0.011283	-0.446533	-0.264648	-0.723633	-0.272704	-0.031777	-0.002820	-0.961569
53587		0.578492	0.260238	9.776367	0.003099	0.006629	0.008217	-0.446045	-0.260498	-0.720215	-0.272671	-0.031748	-0.002891	-0.961579
53588		0.561248	0.224542	9.832594	0.004397	0.009673	0.010400	-0.453857	-0.269287	-0.723633	-0.272568	-0.031698	-0.002981	-0.961610
53589		0.563184	0.265915	9.806484	0.004137	0.010777	0.008959	-0.441650	-0.258789	-0.734375	-0.272578	-0.031663	-0.003068	-0.961608
53590		0.559165	0.258899	9.778329	0.002319	0.016168	0.006391	-0.442871	-0.260010	-0.720947	-0.272467	-0.031514	-0.003157	-0.961644
53591		0.535529	0.283809	9.773286	-0.000429	0.019608	0.004769	-0.446045	-0.255615	-0.726807	-0.272405	-0.031364	-0.003233	-0.961666
53592		0.493678	0.290060	9.713428	-0.007926	0.019655	0.001166	-0.443604	-0.256836	-0.722412	-0.272301	-0.031186	-0.003253	-0.961701
53593		0.450484	0.317027	9.678382	-0.008591	0.018934	-0.003968	-0.451416	-0.260742	-0.726318	-0.272269	-0.031018	-0.003266	-0.961716
53594		0.436962	0.299021	9.683675	-0.007015	0.011899	-0.003810	-0.449707	-0.252197	-0.720703	-0.272268	-0.030928	-0.003275	-0.961719
53595		0.470726	0.250752	9.648366	-0.010052	0.009483	-0.009936	-0.443359	-0.258789	-0.717773	-0.272210	-0.030844	-0.003262	-0.961738
53596		0.434105	0.271268	9.644946	-0.008046	0.010087	-0.012074	-0.442871	-0.258301	-0.727295	-0.272283	-0.030762	-0.003260	-0.961720
53597		0.420196	0.324977	9.631255	-0.014761	0.000595	-0.013858	-0.449463	-0.260986	-0.731445	-0.272357	-0.030720	-0.003182	-0.961700
53598		0.437596	0.336458	9.672063	-0.018937	-0.007023	-0.013367	-0.444092	-0.266113	-0.723389	-0.272441	-0.030741	-0.003055	-0.961677
53599		0.481057	0.233250	9.726187	-0.015537	-0.010884	-0.015663	-0.458496	-0.261963	-0.729736	-0.272638	-0.030813	-0.002941	-0.961619
53600		0.546334	0.164457	9.770013	-0.008805	-0.004137	-0.014846	-0.445068	-0.262207	-0.721924	-0.272718	-0.030859	-0.002905	-0.961595
53601		0.565767	0.159923	9.800057	-0.005526	0.002260	-0.013828	-0.451172	-0.264893	-0.722900	-0.272841	-0.030846	-0.002904	-0.961560
53602		0.547801	0.225125	9.768809	-0.000742	0.006386	-0.011279	-0.437012	-0.263428	-0.726074	-0.272957	-0.030828	-0.002951	-0.961528
53603		0.512438	0.304872	9.749997	-0.006047	0.011832	-0.005153	-0.452393	-0.262695	-0.724609	-0.273042	-0.030713	-0.002962	-0.961507
53604		0.496339	0.300870	9.751801	-0.007734	0.010445	-0.009501	-0.443604	-0.258545	-0.722656	-0.273109	-0.030643	-0.002964	-0.961490
53605		0.454808	0.248079	9.707231	-0.010501	0.010404	-0.012656	-0.454834	-0.259766	-0.727051	-0.273169	-0.030544	-0.002944	-0.961477
53606		0.427960	0.198198	9.660946	-0.008614	0.005339	-0.018019	-0.443604	-0.255127	-0.724854	-0.273251	-0.030510	-0.002932	-0.961454
53607		0.446752	0.193735	9.691034	-0.005113	0.000198	-0.020160	-0.447021	-0.264893	-0.728027	-0.273322	-0.030496	-0.002937	-0.961435
53608		0.453689	0.220243	9.668376	-0.002491	-0.002686	-0.019260	-0.450195	-0.258789	-0.729004	-0.273504	-0.030529	-0.002949	-0.961382
53609		0.456446	0.231256	9.710807	-0.000679	0.000490	-0.021710	-0.441162	-0.252197	-0.732422	-0.273607	-0.030535	-0.002990	-0.961352
53610		0.490731	0.205508	9.700174	-0.004466	-0.002566	-0.016559	-0.445801	-0.264648	-0.727783	-0.273607	-0.030520	-0.002993	-0.961353
53611		0.489790	0.226012	9.725029	-0.006580	-0.005371	-0.016113	-0.447266	-0.255371	-0.729492	-0.273762	-0.030562	-0.002966	-0.961307
53612		0.481097	0.211645	9.744224	-0.009910	-0.012100	-0.009209	-0.441162	-0.268799	-0.730957	-0.273728	-0.030636	-0.002902	-0.961315
53613		0.518059	0.188272	9.747652	-0.010861	-0.011309	-0.007294	-0.443604	-0.260986	-0.733643	-0.273888	-0.030705	-0.002819	-0.961267
53614		0.532167	0.182333	9.717626	-0.008787	-0.009235	-0.008304	-0.442627	-0.262939	-0.729980	-0.273934	-0.030750	-0.002764	-0.961253
53615		0.544111	0.198140	9.712503	-0.005200	-0.003609	-0.013768	-0.442627	-0.259033	-0.722656	-0.274058	-0.030766	-0.002751	-0.961217
53616		0.484470	0.253757	9.686329	-0.008789	-0.003414	-0.014288	-0.447754	-0.264648	-0.728760	-0.274138	-0.030780	-0.002713	-0.961194
53617		0.470765	0.273959	9.727030	-0.014140	-0.011892	-0.014302	-0.449707	-0.265137	-0.728027	-0.274271	-0.030858	-0.002611	-0.961154
53618		0.500379	0.219380	9.738918	-0.013650	-0.014834	-0.011987	-0.444580	-0.260742	-0.728271	-0.274386	-0.030966	-0.002506	-0.961118
53619		0.561095	0.153514	9.736639	-0.010676	-0.013881	-0.006985	-0.445312	-0.267822	-0.725830	-0.274417	-0.031055	-0.002426	-0.961106
53620		0.604267	0.102957	9.746793	-0.003936	-0.003641	-0.004624	-0.443604	-0.264648	-0.727783	-0.274530	-0.031095	-0.002419	-0.961073
53621		0.596673	0.126950	9.725853	0.003166	0.004211	-0.000668	-0.448730	-0.263672	-0.728027	-0.274565	-0.031075	-0.002486	-0.961063
53622		0.552017	0.194564	9.726402	0.004981	0.001567	0.002864	-0.454346	-0.259521	-0.724121	-0.274538	-0.031090	-0.002564	-0.961070
53623		0.519708	0.257367	9.696973	-0.002018	0.005610	0.004649	-0.448975	-0.260254	-0.735840	-0.274423	-0.031070	-0.002600	-0.961103
53624		0.560352	0.286877	9.716875	-0.006169	0.001459	0.006668	-0.448730	-0.260010	-0.728516	-0.274309	-0.031041	-0.002590	-0.961137
53625		0.531533	0.254766	9.681275	-0.008131	0.010879	0.004927	-0.443115	-0.261230	-0.723145	-0.274217	-0.030944	-0.002586	-0.961166
53626		0.520830	0.243744	9.714774	-0.010208	0.008803	0.005936	-0.461914	-0.256836	-0.727295	-0.274165	-0.030861	-0.002558	-0.961184
53627		0.506081	0.188068	9.760110	-0.008960	0.007638	0.006024	-0.451904	-0.268066	-0.729004	-0.273972	-0.030816	-0.002548	-0.961240
53628		0.478904	0.163692	9.752772	-0.001000	0.006281	0.003863	-0.443604	-0.258057	-0.721680	-0.273990	-0.030793	-0.002586	-0.961236
53629		0.533225	0.138573	9.786236	0.002859	-0.004719	0.001771	-0.451660	-0.269287	-0.726562	-0.273928	-0.030847	-0.002635	-0.961252
53630		0.523369	0.176949	9.761846	0.003219	-0.007108	0.003366	-0.448486	-0.264648	-0.729492	-0.273969	-0.030946	-0.002676	-0.961237
53631		0.526586	0.210830	9.707445	0.001467	-0.012305	0.005404	-0.448486	-0.258057	-0.720703	-0.273939	-0.031063	-0.002693	-0.961241
53632		0.508554	0.210701	9.663160	-0.000311	-0.014755	0.008417	-0.451172	-0.263672	-0.730957	-0.273804	-0.031201	-0.002694	-0.961275
53633		0.478245	0.214331	9.648874	-0.005871	-0.014442	0.010601	-0.452148	-0.247803	-0.730957	-0.273711	-0.031319	-0.002646	-0.961298
53634		0.490198	0.251546	9.668604	-0.003677	-0.016398	0.008773	-0.454590	-0.260742	-0.723633	-0.273413	-0.031434	-0.002623	-0.961379
53635		0.489498	0.264543	9.665107	-0.006248	-0.015530	0.007468	-0.447021	-0.254883	-0.727783	-0.273301	-0.031575	-0.002576	-0.961407
53636		0.512358	0.263588	9.709150	-0.006755	-0.016064	0.003616	-0.446289	-0.260498	-0.724609	-0.273180	-0.031685	-0.002523	-0.961438
53637		0.518041	0.248180	9.712447	-0.012159	-0.013222	-0.000430	-0.447266	-0.262207	-0.724609	-0.273177	-0.031773	-0.002430	-0.961436
53638		0.552772	0.241860	9.726523	-0.013879	-0.011859	-0.003805	-0.454834	-0.258789	-0.725342	-0.273221	-0.031850	-0.002327	-0.961421
53639		0.605582	0.228104	9.756436	-0.014849	-0.008324	-0.000913	-0.452881	-0.262451	-0.725098	-0.273157	-0.031906	-0.002229	-0.961438
53640		0.619818	0.170235	9.769910	-0.014630	-0.003940	0.002476	-0.445557	-0.263428	-0.719482	-0.273127	-0.031928	-0.002139	-0.961446
53641		0.624443	0.133148	9.748380	-0.009708	0.005859	0.008264	-0.452881	-0.266602	-0.725830	-0.273109	-0.031880	-0.002105	-0.961452
53642		0.555553	0.157406	9.731020	-0.010921	0.007754	0.008743	-0.447998	-0.251221	-0.729248	-0.273086	-0.031823	-0.002066	-0.961461
53643		0.525895	0.204430	9.705210	-0.010248	0.008462	0.013879	-0.451904	-0.262207	-0.724609	-0.272842	-0.031723	-0.002040	-0.961533
53644		0.501834	0.245135	9.711056	-0.007937	0.002478	0.011226	-0.453125	-0.261230	-0.729736	-0.272752	-0.031710	-0.002014	-0.961560
53645		0.558671	0.255660	9.704320	-0.007917	-0.000267	0.010249	-0.457031	-0.261475	-0.727051	-0.272648	-0.031710	-0.001984	-0.961589
53646		0.583604	0.219530	9.726895	-0.005152	0.002128	0.005886	-0.451416	-0.258789	-0.723145	-0.272564	-0.031712	-0.001984	-0.961613
53647		0.562049	0.243549	9.721933	-0.003729	0.006972	0.001284	-0.454590	-0.260742	-0.732910	-0.272516	-0.031668	-0.002007	-0.961628
53648		0.576875	0.253468	9.748639	-0.000364	0.008613	0.000928	-0.451172	-0.262451	-0.727295	-0.272471	-0.031612	-0.002060	-0.961642
53649		0.567822	0.222769	9.757125	0.000621	0.008555	-0.000424	-0.455322	-0.258301	-0.725342	-0.272480	-0.031563	-0.002119	-0.961641
53650		0.548929	0.233876	9.755527	0.001906	0.008119	0.000227	-0.459717	-0.258789	-0.730957	-0.272408	-0.031528	-0.002193	-0.961663
53651		0.580460	0.229523	9.769742	-0.002782	0.006184	-0.000634	-0.452393	-0.257812	-0.729492	-0.272322	-0.031497	-0.002226	-0.961688
53652		0.571884	0.253099	9.748943	-0.003563	0.007149	0.002567	-0.447754	-0.254395	-0.726074	-0.272240	-0.031442	-0.002251	-0.961713
53653		0.552579	0.259276	9.733186	-0.009645	0.003457	-0.000643	-0.452881	-0.260254	-0.728516	-0.272176	-0.031396	-0.002219	-0.961733
53654		0.517569	0.254507	9.690788	-0.012625	0.002515	-0.005645	-0.453857	-0.261230	-0.724121	-0.272191	-0.031365	-0.002162	-0.961729
53655		0.535555	0.245410	9.706695	-0.010953	0.002777	-0.010351	-0.448975	-0.259277	-0.724609	-0.272252	-0.031347	-0.002121	-0.961713
53656		0.525517	0.205882	9.686820	-0.009414	0.003594	-0.015776	-0.450195	-0.253662	-0.725830	-0.272363	-0.031313	-0.002094	-0.961683
53657		0.502584	0.221943	9.653523	-0.009984	-0.000756	-0.013247	-0.441162	-0.258057	-0.722900	-0.272378	-0.031304	-0.002055	-0.961679
53658		0.473343	0.235841	9.681848	-0.007141	-0.008953	-0.013028	-0.448730	-0.267822	-0.723877	-0.272507	-0.031361	-0.002012	-0.961641
53659		0.495402	0.234756	9.725938	-0.007409	-0.013682	-0.008496	-0.448486	-0.265625	-0.726074	-0.272663	-0.031483	-0.001955	-0.961593
53660		0.528862	0.167440	9.740846	-0.005263	-0.019839	-0.012437	-0.449707	-0.260254	-0.721191	-0.272823	-0.031650	-0.001903	-0.961541
53661		0.573099	0.142600	9.789810	0.002679	-0.018448	-0.013628	-0.450928	-0.260742	-0.725830	-0.272921	-0.031828	-0.001923	-0.961508
53662		0.635701	0.141729	9.786232	0.008174	-0.010523	-0.012880	-0.445801	-0.261719	-0.732666	-0.273005	-0.031948	-0.002003	-0.961480
53663		0.607573	0.188410	9.746135	0.008296	-0.004858	-0.009638	-0.453613	-0.267578	-0.722412	-0.273098	-0.032001	-0.002093	-0.961451
53664		0.563365	0.227683	9.693639	-0.000604	0.000756	-0.004006	-0.457031	-0.259033	-0.721924	-0.273182	-0.032031	-0.002124	-0.961427
53665		0.507126	0.273614	9.685382	-0.006602	0.001994	-0.004539	-0.446289	-0.252686	-0.729736	-0.273145	-0.032033	-0.002118	-0.961437
53666		0.493222	0.298545	9.618793	-0.020753	0.000933	-0.005730	-0.450684	-0.261719	-0.728027	-0.273096	-0.031966	-0.001993	-0.961454
53667		0.486052	0.264494	9.627233	-0.021463	-0.006721	-0.013958	-0.451416	-0.258789	-0.725098	-0.273205	-0.031984	-0.001844	-0.961422
53668		0.500230	0.230183	9.679735	-0.024676	-0.012046	-0.022356	-0.454102	-0.260742	-0.722656	-0.273345	-0.032041	-0.001663	-0.961381
53669		0.547002	0.188346	9.732090	-0.017846	-0.016259	-0.025442	-0.444580	-0.262207	-0.724121	-0.273519	-0.032159	-0.001528	-0.961328
53670		0.591878	0.165246	9.795196	-0.009409	-0.017808	-0.024329	-0.450684	-0.258789	-0.724365	-0.273758	-0.032288	-0.001450	-0.961255
53671		0.656095	0.111590	9.834829	-0.001103	-0.018801	-0.023935	-0.450439	-0.259521	-0.729736	-0.273910	-0.032451	-0.001442	-0.961207
53672		0.685925	0.114800	9.817086	0.007553	-0.009748	-0.016899	-0.453613	-0.262695	-0.723389	-0.274009	-0.032551	-0.001520	-0.961175
53673		0.667078	0.120105	9.787085	0.011438	0.002120	-0.009328	-0.449707	-0.266113	-0.721191	-0.274068	-0.032587	-0.001655	-0.961157
53674		0.633341	0.180840	9.743901	0.008136	0.008150	-0.005312	-0.454102	-0.268066	-0.728027	-0.274161	-0.032567	-0.001773	-0.961131
53675		0.578826	0.268740	9.709992	-0.001859	0.011613	-0.000016	-0.452637	-0.261475	-0.728516	-0.274204	-0.032497	-0.001817	-0.961121
53676		0.528129	0.316654	9.640262	-0.008993	0.009978	-0.001458	-0.447510	-0.264160	-0.730225	-0.274185	-0.032410	-0.001804	-0.961129
53677		0.489826	0.274052	9.637980	-0.018139	0.007342	-0.009255	-0.450684	-0.264160	-0.728760	-0.274291	-0.032314	-0.001709	-0.961102
53678		0.479974	0.233024	9.618083	-0.020893	-0.001661	-0.015916	-0.455078	-0.261963	-0.724121	-0.274435	-0.032294	-0.001576	-0.961062
53679		0.493894	0.199224	9.670534	-0.018491	-0.012395	-0.019978	-0.459473	-0.255859	-0.722168	-0.274565	-0.032379	-0.001443	-0.961022
53680		0.544017	0.170861	9.643621	-0.015772	-0.020033	-0.020490	-0.450439	-0.265625	-0.725342	-0.274601	-0.032535	-0.001321	-0.961007
53681		0.570127	0.151157	9.676706	-0.014047	-0.021400	-0.017121	-0.450195	-0.264160	-0.714600	-0.274779	-0.032695	-0.001197	-0.960951
53682		0.621523	0.180480	9.756431	-0.005684	-0.018179	-0.014614	-0.453125	-0.254150	-0.722900	-0.274927	-0.032865	-0.001148	-0.960902
53683		0.667379	0.162290	9.833582	-0.004827	-0.014204	-0.015136	-0.456055	-0.253906	-0.727051	-0.274931	-0.032980	-0.001123	-0.960898
53684		0.743426	0.162926	9.828202	-0.007655	-0.005284	-0.014770	-0.447021	-0.263916	-0.725586	-0.274911	-0.033016	-0.001095	-0.960902
53685		0.733042	0.203333	9.818367	-0.008485	0.007378	-0.007067	-0.460449	-0.259277	-0.721191	-0.275009	-0.032947	-0.001077	-0.960876
53686		0.653544	0.189616	9.781317	-0.009836	0.019514	-0.003216	-0.456543	-0.260254	-0.724365	-0.274940	-0.032806	-0.001086	-0.960901
53687		0.605531	0.171833	9.758351	-0.007344	0.023408	-0.000518	-0.449707	-0.257568	-0.721436	-0.274881	-0.032629	-0.001120	-0.960924
53688		0.561414	0.144441	9.752823	-0.001363	0.024927	0.000993	-0.448975	-0.267090	-0.722656	-0.274822	-0.032442	-0.001203	-0.960947
53689		0.546194	0.182675	9.729013	0.004100	0.025922	-0.001349	-0.449707	-0.258057	-0.725830	-0.274894	-0.032269	-0.001327	-0.960932
53690		0.549067	0.185914	9.667569	0.003516	0.027410	-0.004788	-0.453369	-0.269043	-0.713867	-0.274877	-0.032068	-0.001455	-0.960943
53691		0.505477	0.163508	9.676140	0.004422	0.025898	-0.007274	-0.444580	-0.259521	-0.727783	-0.274991	-0.031924	-0.001587	-0.960915
53692		0.461447	0.137162	9.670487	-0.000715	0.021779	-0.003917	-0.452393	-0.255127	-0.727539	-0.275007	-0.031748	-0.001664	-0.960916
53693		0.470878	0.133026	9.640611	-0.000046	0.015533	-0.001877	-0.455811	-0.260986	-0.729004	-0.274905	-0.031634	-0.001740	-0.960949
53694		0.498293	0.142643	9.651542	-0.001720	0.008311	-0.000272	-0.443359	-0.260986	-0.730713	-0.274836	-0.031586	-0.001784	-0.960971
53695		0.494697	0.159462	9.662485	-0.006140	0.005250	0.000297	-0.447021	-0.262451	-0.725098	-0.274845	-0.031526	-0.001777	-0.960970
53696		0.501763	0.217333	9.707677	-0.007979	0.001326	0.002168	-0.446289	-0.258057	-0.720947	-0.274835	-0.031512	-0.001749	-0.960973
53697		0.507150	0.209169	9.739343	-0.009889	-0.004057	0.002904	-0.448975	-0.262695	-0.730957	-0.274777	-0.031537	-0.001695	-0.960989
53698		0.521121	0.206936	9.723505	-0.011181	-0.003626	0.002253	-0.451904	-0.262695	-0.725342	-0.274755	-0.031550	-0.001630	-0.960995
53699		0.546785	0.170320	9.745896	-0.009413	-0.001160	-0.000752	-0.449707	-0.260742	-0.721680	-0.274744	-0.031562	-0.001588	-0.960998
53700		0.589514	0.123540	9.769918	-0.003460	0.003102	0.001751	-0.448486	-0.264404	-0.724854	-0.274706	-0.031553	-0.001602	-0.961009
53701		0.576895	0.102516	9.760752	-0.002399	0.007982	0.003086	-0.450195	-0.257568	-0.723633	-0.274706	-0.031505	-0.001633	-0.961011
53702		0.586853	0.122619	9.770090	-0.002117	0.013816	0.007624	-0.444336	-0.259766	-0.725586	-0.274578	-0.031407	-0.001683	-0.961050
53703		0.585217	0.125980	9.784421	0.000674	0.017327	0.012331	-0.448730	-0.258057	-0.720703	-0.274476	-0.031276	-0.001757	-0.961084
53704		0.562836	0.129520	9.754611	-0.000345	0.020120	0.014666	-0.443604	-0.265137	-0.727539	-0.274309	-0.031136	-0.001833	-0.961136
53705		0.506683	0.162199	9.749875	0.005463	0.021463	0.014903	-0.442139	-0.269043	-0.723633	-0.274252	-0.030986	-0.001950	-0.961156
53706		0.486323	0.149267	9.709151	0.006818	0.022488	0.016689	-0.452393	-0.264893	-0.720459	-0.274238	-0.030842	-0.002078	-0.961165
53707		0.448206	0.171695	9.705973	0.004765	0.014189	0.015153	-0.444824	-0.266846	-0.729736	-0.274125	-0.030779	-0.002180	-0.961199
53708		0.454435	0.178483	9.658588	0.004144	0.011847	0.018090	-0.449219	-0.265869	-0.718994	-0.274046	-0.030706	-0.002265	-0.961224
53709		0.478169	0.198547	9.652083	-0.001404	0.005925	0.017735	-0.450439	-0.261230	-0.728516	-0.273947	-0.030694	-0.002295	-0.961252
53710		0.489876	0.221963	9.675568	-0.005175	0.005939	0.015928	-0.449219	-0.251709	-0.724121	-0.273788	-0.030652	-0.002298	-0.961299
53711		0.506686	0.210160	9.677294	-0.005414	0.004306	0.013508	-0.455322	-0.260498	-0.729980	-0.273541	-0.030615	-0.002302	-0.961370
53712		0.508200	0.216422	9.705683	-0.004367	-0.001230	0.010190	-0.450439	-0.258789	-0.728271	-0.273395	-0.030640	-0.002299	-0.961411
53713		0.522591	0.218647	9.704062	-0.004803	-0.000294	0.007469	-0.445801	-0.270752	-0.724854	-0.273281	-0.030646	-0.002294	-0.961443
53714		0.494689	0.211653	9.707315	-0.005765	-0.006455	0.006284	-0.446289	-0.261230	-0.736084	-0.273353	-0.030713	-0.002259	-0.961421
53715		0.504467	0.190171	9.742207	-0.004313	-0.010186	0.006671	-0.451904	-0.264160	-0.718506	-0.273290	-0.030781	-0.002231	-0.961436
53716		0.541654	0.171768	9.759644	0.001573	-0.003921	0.009597	-0.443359	-0.261230	-0.718018	-0.273231	-0.030858	-0.002267	-0.961451
53717		0.556335	0.174964	9.757981	0.001543	-0.001179	0.010581	-0.447021	-0.261475	-0.723389	-0.273173	-0.030892	-0.002307	-0.961466
53718		0.547175	0.220602	9.762279	0.004980	0.001927	0.011369	-0.447266	-0.255615	-0.728027	-0.273086	-0.030907	-0.002381	-0.961490
53719		0.550961	0.265773	9.750779	0.002471	0.004253	0.011199	-0.453125	-0.269287	-0.728516	-0.272918	-0.030882	-0.002444	-0.961538
53720		0.535088	0.313938	9.709299	-0.003974	0.006423	0.007937	-0.449219	-0.258301	-0.729736	-0.272921	-0.030855	-0.002456	-0.961538
53721		0.519695	0.310145	9.711020	-0.005011	0.008124	0.001211	-0.458496	-0.263184	-0.730469	-0.272857	-0.030786	-0.002469	-0.961559
53722		0.474014	0.292750	9.687652	-0.009334	0.007258	0.003474	-0.447021	-0.260498	-0.730469	-0.272792	-0.030739	-0.002447	-0.961579
53723		0.482060	0.245936	9.683439	-0.010676	0.005870	-0.006806	-0.447998	-0.259521	-0.721924	-0.272834	-0.030674	-0.002410	-0.961569
53724		0.500255	0.186109	9.742503	-0.003909	0.006423	-0.008482	-0.447266	-0.264893	-0.724365	-0.272882	-0.030635	-0.002431	-0.961557
53725		0.511757	0.181751	9.712572	-0.000008	0.005849	-0.005957	-0.446045	-0.262695	-0.731201	-0.272974	-0.030611	-0.002478	-0.961531
53726		0.519758	0.220101	9.732795	0.004786	0.009977	-0.003379	-0.448975	-0.255127	-0.720459	-0.273012	-0.030549	-0.002571	-0.961522
53727		0.517473	0.217534	9.718667	0.007127	0.007478	-0.004494	-0.444092	-0.259766	-0.717529	-0.272961	-0.030525	-0.002685	-0.961537
53728		0.506366	0.205595	9.737786	0.009804	0.005326	-0.003037	-0.442139	-0.264893	-0.729492	-0.272983	-0.030527	-0.002811	-0.961530
53729		0.499695	0.238619	9.745384	0.010624	0.005100	-0.005673	-0.452148	-0.268311	-0.729004	-0.273080	-0.030515	-0.002938	-0.961503
53730		0.503185	0.284597	9.733879	0.004978	0.003938	-0.004631	-0.453613	-0.259521	-0.725586	-0.273163	-0.030524	-0.003021	-0.961479
53731		0.508314	0.308202	9.697345	-0.006123	0.004892	-0.008205	-0.448486	-0.269043	-0.729492	-0.273162	-0.030497	-0.003023	-0.961480
53732		0.482664	0.341625	9.674973	-0.014817	0.001333	-0.013310	-0.443848	-0.260498	-0.727051	-0.273341	-0.030474	-0.002942	-0.961430
53733		0.463413	0.287494	9.673993	-0.021924	-0.003041	-0.015759	-0.449707	-0.259277	-0.723633	-0.273455	-0.030454	-0.002797	-0.961399
53734		0.480771	0.214687	9.690492	-0.022065	-0.005957	-0.018030	-0.448242	-0.262451	-0.730225	-0.273553	-0.030473	-0.002649	-0.961370
53735		0.491613	0.170008	9.700363	-0.017412	-0.004741	-0.017721	-0.439697	-0.255859	-0.727539	-0.273686	-0.030484	-0.002538	-0.961332
53736		0.505519	0.167504	9.684570	-0.009087	-0.002256	-0.015753	-0.449707	-0.258301	-0.723877	-0.273759	-0.030473	-0.002498	-0.961312
53737		0.510410	0.155993	9.702016	-0.007027	-0.006751	-0.011363	-0.447021	-0.262939	-0.724121	-0.273789	-0.030531	-0.002467	-0.961302
53738		0.509522	0.176022	9.727089	-0.005871	-0.003159	-0.009874	-0.447998	-0.260010	-0.724121	-0.273878	-0.030563	-0.002449	-0.961276
53739		0.527795	0.192640	9.782194	-0.003021	-0.005136	-0.007134	-0.452393	-0.266846	-0.722168	-0.273902	-0.030616	-0.002451	-0.961267
53740		0.547063	0.184981	9.797996	-0.002382	-0.005172	-0.002561	-0.444336	-0.262939	-0.729248	-0.273958	-0.030691	-0.002455	-0.961249
53741		0.551164	0.171204	9.801224	0.003264	-0.004003	-0.003602	-0.450684	-0.264404	-0.726318	-0.273997	-0.030737	-0.002505	-0.961236
53742		0.569611	0.136581	9.763576	0.005108	0.003391	-0.003911	-0.451172	-0.259766	-0.725098	-0.274031	-0.030746	-0.002590	-0.961226
53743		0.550305	0.144675	9.747775	0.004637	0.007071	-0.005646	-0.448975	-0.257812	-0.730469	-0.274017	-0.030722	-0.002682	-0.961230
53744		0.504768	0.183816	9.695408	0.000146	0.006024	-0.004669	-0.452393	-0.267090	-0.726562	-0.273971	-0.030680	-0.002734	-0.961245
53745		0.461348	0.229820	9.671385	0.001908	0.001912	-0.002282	-0.453369	-0.264893	-0.724121	-0.274013	-0.030700	-0.002789	-0.961232
53746		0.416998	0.213605	9.647862	-0.000617	-0.002345	0.002935	-0.447021	-0.262451	-0.726807	-0.273984	-0.030752	-0.002813	-0.961238
53747		0.436994	0.209630	9.677865	-0.002459	-0.006269	0.004798	-0.443604	-0.265381	-0.726074	-0.273935	-0.030811	-0.002812	-0.961250
53748		0.440742	0.191701	9.666908	-0.003245	-0.008787	0.006448	-0.450195	-0.264648	-0.729004	-0.273927	-0.030886	-0.002795	-0.961250
53749		0.488614	0.268821	9.689835	-0.012363	-0.013795	0.006130	-0.445068	-0.261475	-0.729980	-0.273882	-0.030987	-0.002697	-0.961260
53750		0.476678	0.263335	9.691410	-0.016991	-0.014287	0.006390	-0.449951	-0.265137	-0.725342	-0.273817	-0.031066	-0.002560	-0.961277
53751		0.459996	0.208675	9.690226	-0.023868	-0.017036	0.006361	-0.450684	-0.263672	-0.727051	-0.273792	-0.031172	-0.002362	-0.961281
53752		0.473286	0.163532	9.699915	-0.018882	-0.022412	0.006127	-0.450928	-0.263672	-0.729248	-0.273747	-0.031330	-0.002192	-0.961289
53753		0.544178	0.159516	9.756490	-0.013208	-0.023985	0.004095	-0.449219	-0.259766	-0.725586	-0.273716	-0.031509	-0.002065	-0.961292
53754		0.601409	0.128439	9.775333	-0.012998	-0.019970	-0.000990	-0.459473	-0.252686	-0.734863	-0.273692	-0.031653	-0.001951	-0.961295
53755		0.643812	0.150058	9.766987	-0.005002	-0.017827	-0.001599	-0.453369	-0.263428	-0.720703	-0.273525	-0.031793	-0.001913	-0.961338
53756		0.576165	0.192802	9.760441	-0.001937	-0.015791	-0.003947	-0.452393	-0.260010	-0.731934	-0.273562	-0.031949	-0.001898	-0.961322
53757		0.538515	0.220897	9.725494	-0.003167	-0.017370	-0.005018	-0.450684	-0.266113	-0.724854	-0.273552	-0.032089	-0.001869	-0.961320
53758		0.500208	0.189912	9.705183	-0.007932	-0.017306	-0.005470	-0.447510	-0.261230	-0.726807	-0.273642	-0.032233	-0.001800	-0.961290
53759		0.514882	0.209259	9.714349	-0.006544	-0.019024	-0.004672	-0.458740	-0.260254	-0.727539	-0.273677	-0.032379	-0.001738	-0.961275
53760		0.554685	0.189604	9.731509	-0.013031	-0.026913	-0.004102	-0.457031	-0.260986	-0.725342	-0.273646	-0.032590	-0.001612	-0.961277
53761		0.559987	0.166680	9.706180	-0.011995	-0.019297	-0.001768	-0.450195	-0.261963	-0.713623	-0.273618	-0.032743	-0.001509	-0.961280
53762		0.583850	0.139494	9.710828	-0.018760	-0.016395	0.001477	-0.459229	-0.258057	-0.722656	-0.273630	-0.032865	-0.001356	-0.961272
53763		0.537130	0.155309	9.709296	-0.014849	-0.016968	0.003993	-0.458740	-0.259033	-0.720459	-0.273521	-0.032997	-0.001236	-0.961299
53764		0.556452	0.080794	9.711014	-0.003562	-0.024336	0.014198	-0.458740	-0.262695	-0.718750	-0.273347	-0.033218	-0.001187	-0.961341
53765		0.598092	0.041738	9.702860	0.005286	-0.024804	0.018444	-0.452881	-0.265381	-0.717773	-0.273185	-0.033469	-0.001205	-0.961378
53766		0.598136	0.056963	9.699429	0.013891	-0.017223	0.024376	-0.455566	-0.260254	-0.718994	-0.273037	-0.033671	-0.001303	-0.961413
53767		0.581708	0.145930	9.694132	0.015520	-0.017316	0.027594	-0.455322	-0.261719	-0.721680	-0.272790	-0.033874	-0.001415	-0.961476
53768		0.582649	0.248150	9.729661	0.009611	-0.020113	0.026227	-0.452148	-0.263184	-0.713623	-0.272570	-0.034082	-0.001474	-0.961531
53769		0.562690	0.290906	9.735681	0.000716	-0.020368	0.021417	-0.453125	-0.260742	-0.722656	-0.272438	-0.034279	-0.001460	-0.961561
53770		0.596534	0.303224	9.760456	-0.008217	-0.021350	0.016041	-0.461426	-0.265869	-0.720703	-0.272305	-0.034447	-0.001374	-0.961593
53771		0.653395	0.326647	9.750262	-0.022203	-0.018405	0.009782	-0.462891	-0.253662	-0.714111	-0.272258	-0.034584	-0.001186	-0.961602
53772		0.662490	0.239759	9.785383	-0.025981	-0.009051	0.003603	-0.455566	-0.257080	-0.717773	-0.272126	-0.034635	-0.000998	-0.961638
53773		0.625399	0.191796	9.768595	-0.023911	-0.001102	-0.003340	-0.455811	-0.261230	-0.718018	-0.272118	-0.034612	-0.000841	-0.961641
53774		0.630655	0.129306	9.707279	-0.017579	0.000402	-0.007755	-0.459961	-0.256104	-0.719238	-0.272195	-0.034597	-0.000738	-0.961620
53775		0.640237	0.140558	9.688229	-0.010342	0.003486	-0.005175	-0.455811	-0.258057	-0.719971	-0.272169	-0.034573	-0.000702	-0.961628
53776		0.597885	0.188779	9.678949	-0.006118	0.002519	-0.000664	-0.456055	-0.253418	-0.719482	-0.272148	-0.034560	-0.000694	-0.961634
53777		0.591985	0.219410	9.686788	-0.001836	-0.000461	0.003423	-0.447266	-0.260498	-0.714111	-0.272038	-0.034576	-0.000715	-0.961665
53778		0.551516	0.189370	9.666685	0.001977	-0.009092	0.010164	-0.456055	-0.256592	-0.719482	-0.272008	-0.034672	-0.000738	-0.961670
53779		0.591170	0.178605	9.712109	0.005200	-0.010352	0.007534	-0.459473	-0.251465	-0.712402	-0.271901	-0.034787	-0.000790	-0.961696
53780		0.664443	0.277250	9.728309	0.001724	-0.010717	0.007741	-0.459473	-0.260254	-0.718262	-0.271728	-0.034907	-0.000818	-0.961741
53781		0.690413	0.321154	9.760993	-0.006184	-0.004803	0.004138	-0.452393	-0.260986	-0.729004	-0.271679	-0.034963	-0.000793	-0.961752
53782		0.715897	0.314960	9.715031	-0.015497	0.005574	0.000737	-0.463867	-0.254883	-0.717285	-0.271692	-0.034886	-0.000712	-0.961752
53783		0.654783	0.179458	9.736803	-0.017553	0.013212	-0.010565	-0.449219	-0.254150	-0.726562	-0.271684	-0.034775	-0.000645	-0.961758
53784		0.644575	0.170847	9.784473	-0.010446	0.013772	-0.018188	-0.454590	-0.262207	-0.722168	-0.271793	-0.034634	-0.000630	-0.961732
53785		0.616593	0.229056	9.802034	-0.007998	0.013458	-0.017610	-0.453613	-0.257568	-0.714111	-0.271964	-0.034529	-0.000634	-0.961688
53786		0.603403	0.266123	9.778467	-0.008734	0.012051	-0.023321	-0.454346	-0.259766	-0.724121	-0.272142	-0.034438	-0.000633	-0.961640
53787		0.606870	0.230154	9.756539	-0.008876	0.003271	-0.019663	-0.451660	-0.259521	-0.724609	-0.272295	-0.034407	-0.000608	-0.961598
53788		0.573999	0.209030	9.703215	-0.007064	0.003344	-0.015161	-0.450195	-0.258789	-0.711426	-0.272421	-0.034373	-0.000596	-0.961564
53789		0.559025	0.177138	9.651335	-0.007414	-0.000126	-0.010801	-0.447510	-0.252441	-0.719238	-0.272530	-0.034383	-0.000573	-0.961533
53790		0.545953	0.148648	9.613594	-0.007510	-0.008179	-0.006575	-0.457520	-0.260010	-0.726562	-0.272529	-0.034433	-0.000530	-0.961531
