// Start Time: Unknown
// Update Rate: 60.0Hz
// Filter Profile: human (46.1)
// Firmware Version: 4.6.0
PacketCounter	SampleTimeFine	Acc_X	Acc_Y	Acc_Z	Gyr_X	Gyr_Y	Gyr_Z	Mag_X	Mag_Y	Mag_Z	Quat_q0	Quat_q1	Quat_q2	Quat_q3
52889		8.810708	-4.316122	0.216071	0.024035	-0.036717	-0.021277	-0.469727	0.545898	-0.116455	0.660221	-0.525182	-0.463095	-0.271725
52890		8.767249	-4.385459	0.102486	0.026907	-0.031033	-0.023447	-0.478516	0.535889	-0.109863	0.660171	-0.525017	-0.463422	-0.271609
52891		8.829127	-4.285181	0.040538	0.044892	-0.040222	-0.022516	-0.478760	0.540771	-0.118652	0.660160	-0.524775	-0.463844	-0.271383
52892		8.869964	-4.160686	-0.027267	0.030130	-0.029433	-0.017121	-0.471436	0.546387	-0.111572	0.660136	-0.524612	-0.464151	-0.271231
52893		8.849234	-4.271531	0.009758	0.019937	-0.021526	-0.014328	-0.479736	0.547852	-0.117920	0.660098	-0.524499	-0.464387	-0.271140
52894		8.825513	-4.296177	-0.016599	0.023995	-0.020516	-0.011995	-0.479492	0.541504	-0.111816	0.660081	-0.524373	-0.464621	-0.271024
52895		8.818059	-4.303466	-0.025721	0.025297	-0.015102	-0.009566	-0.479980	0.540527	-0.116455	0.660089	-0.524241	-0.464823	-0.270912
52896		8.811244	-4.302782	0.034212	0.032520	-0.013165	-0.007525	-0.471924	0.542480	-0.112061	0.660132	-0.524080	-0.465029	-0.270766
52897		8.826367	-4.282844	0.025781	0.029642	-0.012542	-0.007437	-0.476807	0.536133	-0.117676	0.660158	-0.523938	-0.465229	-0.270632
52898		8.830349	-4.337423	0.108469	0.024416	-0.008490	-0.005368	-0.469238	0.539551	-0.116211	0.660175	-0.523828	-0.465392	-0.270523
52899		8.799759	-4.301864	0.180498	0.017035	-0.006449	-0.006073	-0.475586	0.538574	-0.117920	0.660163	-0.523754	-0.465532	-0.270454
52900		8.816426	-4.336641	0.228561	-0.000480	-0.004267	-0.005301	-0.477295	0.537842	-0.121094	0.660087	-0.523774	-0.465617	-0.270459
52901		8.781596	-4.329920	0.230409	0.002248	-0.010416	-0.006538	-0.480225	0.543945	-0.119385	0.660001	-0.523784	-0.465742	-0.270433
52902		8.796256	-4.340850	0.201815	0.000089	-0.012426	-0.009315	-0.471436	0.541748	-0.114014	0.659895	-0.523799	-0.465880	-0.270423
52903		8.775318	-4.376441	0.157459	0.004811	-0.017537	-0.012137	-0.477783	0.538574	-0.104492	0.659793	-0.523786	-0.466061	-0.270387
52904		8.845390	-4.407595	0.173905	0.010203	-0.023818	-0.014418	-0.470459	0.542236	-0.110840	0.659684	-0.523754	-0.466296	-0.270308
52905		8.754716	-4.400000	0.152977	0.024722	-0.029152	-0.015113	-0.470215	0.541504	-0.124268	0.659624	-0.523653	-0.466587	-0.270150
52906		8.812788	-4.308154	-0.002988	0.032390	-0.032846	-0.019187	-0.473389	0.542480	-0.117920	0.659581	-0.523501	-0.466926	-0.269962
52907		8.881712	-4.253450	-0.025491	0.023295	-0.027092	-0.013940	-0.476318	0.541992	-0.114502	0.659517	-0.523421	-0.467200	-0.269800
52908		8.843452	-4.297039	-0.043023	0.007394	-0.011660	-0.012991	-0.469482	0.535889	-0.119629	0.659428	-0.523404	-0.467366	-0.269762
52909		8.784367	-4.316163	-0.065331	0.002385	-0.001799	-0.012046	-0.477539	0.535889	-0.113525	0.659359	-0.523390	-0.467469	-0.269781
52910		8.770776	-4.386485	-0.024351	0.005633	0.001163	-0.013487	-0.466064	0.538574	-0.117920	0.659286	-0.523367	-0.467587	-0.269797
52911		8.784466	-4.346446	0.053397	0.015262	-0.000029	-0.015727	-0.470215	0.541260	-0.117188	0.659261	-0.523289	-0.467723	-0.269777
52912		8.873624	-4.275877	0.101284	-0.000604	0.007635	-0.016112	-0.479980	0.535156	-0.112305	0.659183	-0.523295	-0.467783	-0.269849
52913		8.815217	-4.317130	0.130751	-0.012025	0.013599	-0.013427	-0.469482	0.547363	-0.118164	0.659068	-0.523357	-0.467806	-0.269972
52914		8.788718	-4.384658	0.156505	-0.001658	0.005227	-0.015320	-0.475342	0.547852	-0.109375	0.658979	-0.523387	-0.467854	-0.270047
52915		8.777821	-4.317673	0.177544	0.008123	0.000059	-0.018897	-0.477295	0.541504	-0.116943	0.658888	-0.523387	-0.467971	-0.270067
52916		8.827491	-4.323297	0.190512	-0.004696	-0.001434	-0.017502	-0.471436	0.545166	-0.119873	0.658760	-0.523427	-0.468072	-0.270124
52917		8.787594	-4.312158	0.116915	-0.010230	-0.000688	-0.016359	-0.476318	0.537354	-0.119385	0.658638	-0.523496	-0.468115	-0.270217
52918		8.839940	-4.275230	0.079338	-0.014827	-0.001312	-0.016011	-0.475342	0.542236	-0.114990	0.658498	-0.523562	-0.468183	-0.270309
52919		8.832945	-4.335290	0.101794	-0.017673	0.001051	-0.014772	-0.479980	0.546143	-0.119629	0.658344	-0.523672	-0.468212	-0.270420
52920		8.802691	-4.347278	0.043422	-0.010622	0.002034	-0.017109	-0.474854	0.532227	-0.114502	0.658206	-0.523753	-0.468256	-0.270526
52921		8.821330	-4.336346	0.016582	-0.015315	0.005674	-0.017704	-0.472656	0.539307	-0.105713	0.658103	-0.523769	-0.468309	-0.270651
52922		8.773092	-4.400175	0.060030	-0.004067	0.001958	-0.020192	-0.478271	0.541016	-0.118408	0.658000	-0.523788	-0.468392	-0.270723
52923		8.828460	-4.301589	0.085341	0.008352	-0.001864	-0.021390	-0.471680	0.537109	-0.118896	0.657937	-0.523739	-0.468522	-0.270747
52924		8.839213	-4.298903	0.051342	-0.001217	0.007645	-0.022379	-0.474365	0.548096	-0.106689	0.657904	-0.523676	-0.468573	-0.270858
52925		8.841723	-4.305288	0.009767	0.003811	0.009050	-0.019702	-0.474365	0.539062	-0.113281	0.657840	-0.523704	-0.468592	-0.270929
52926		8.850316	-4.283896	0.062571	0.010020	0.007143	-0.020302	-0.474121	0.541260	-0.119873	0.657827	-0.523622	-0.468674	-0.270975
52927		8.821918	-4.309151	0.124817	0.014975	0.003310	-0.021051	-0.479492	0.544189	-0.115479	0.657833	-0.523516	-0.468766	-0.271007
52928		8.777517	-4.321382	0.188420	0.016509	-0.001262	-0.020161	-0.471436	0.533447	-0.116211	0.657794	-0.523456	-0.468892	-0.271001
52929		8.830978	-4.275030	0.220852	0.005288	0.000981	-0.021105	-0.476562	0.538818	-0.112305	0.657782	-0.523347	-0.469004	-0.271047
52930		8.822616	-4.249097	0.205851	-0.010478	0.006083	-0.019415	-0.470215	0.539062	-0.119141	0.657683	-0.523378	-0.469037	-0.271170
52931		8.789925	-4.303753	0.197199	-0.018597	0.000927	-0.017429	-0.473877	0.534424	-0.108643	0.657589	-0.523438	-0.469021	-0.271309
52932		8.784112	-4.319611	0.145049	-0.000719	-0.005643	-0.018626	-0.478027	0.539307	-0.120361	0.657505	-0.523413	-0.469153	-0.271332
52933		8.816849	-4.320618	0.090507	0.008412	-0.012706	-0.016097	-0.479736	0.536621	-0.112793	0.657464	-0.523362	-0.469284	-0.271306
52934		8.833772	-4.277733	0.055859	0.018720	-0.015032	-0.017793	-0.485107	0.536377	-0.109619	0.657422	-0.523263	-0.469501	-0.271221
52935		8.862621	-4.227996	0.080169	0.012472	-0.011672	-0.013769	-0.468994	0.530029	-0.115723	0.657338	-0.523221	-0.469704	-0.271154
52936		8.875075	-4.280928	0.101929	0.010587	-0.008937	-0.012180	-0.477539	0.533203	-0.111328	0.657364	-0.523105	-0.469832	-0.271094
52937		8.821056	-4.312084	0.087492	0.012515	-0.008177	-0.011488	-0.480225	0.533936	-0.120361	0.657337	-0.523031	-0.469987	-0.271032
52938		8.810774	-4.308853	0.096446	0.007243	-0.007647	-0.011683	-0.476318	0.537354	-0.114990	0.657327	-0.522945	-0.470108	-0.271015
52939		8.797490	-4.295193	0.122742	0.003145	-0.007222	-0.010587	-0.473389	0.535156	-0.109375	0.657285	-0.522944	-0.470180	-0.270990
52940		8.792537	-4.356913	0.170555	-0.008830	-0.005861	-0.010922	-0.473877	0.543701	-0.114258	0.657179	-0.523022	-0.470234	-0.271006
52941		8.784053	-4.385547	0.185216	0.003652	-0.017411	-0.013472	-0.476318	0.537842	-0.121826	0.657099	-0.523090	-0.470308	-0.270940
52942		8.792873	-4.320994	0.158901	0.009997	-0.025032	-0.016566	-0.473389	0.538086	-0.119385	0.657061	-0.523030	-0.470477	-0.270853
52943		8.794158	-4.318494	0.155717	-0.006681	-0.020050	-0.017489	-0.474609	0.540283	-0.120361	0.656968	-0.523066	-0.470572	-0.270844
52944		8.787656	-4.409194	0.157494	-0.007280	-0.024894	-0.018239	-0.480469	0.546875	-0.108154	0.656856	-0.523124	-0.470676	-0.270822
52945		8.790701	-4.353747	0.146174	0.001880	-0.036609	-0.023737	-0.478516	0.536377	-0.111328	0.656621	-0.523259	-0.470912	-0.270721
52946		8.852659	-4.284765	0.088109	0.014388	-0.036607	-0.024968	-0.476807	0.545166	-0.114258	0.656481	-0.523211	-0.471235	-0.270592
52947		8.867800	-4.239858	0.024879	-0.006734	-0.025007	-0.023225	-0.481445	0.537842	-0.115967	0.656320	-0.523325	-0.471341	-0.270580
52948		8.810101	-4.342382	0.013248	-0.004056	-0.023377	-0.023137	-0.470459	0.538818	-0.122314	0.656176	-0.523334	-0.471521	-0.270596
52949		8.825839	-4.350897	-0.017104	0.022915	-0.030642	-0.023977	-0.479736	0.545654	-0.117188	0.656210	-0.523203	-0.471699	-0.270457
52950		8.861785	-4.184231	-0.050079	0.026184	-0.024166	-0.023146	-0.476318	0.534424	-0.114014	0.656207	-0.523123	-0.471866	-0.270328
52951		8.933828	-4.192058	-0.057501	0.009877	-0.009211	-0.016215	-0.466309	0.533447	-0.115967	0.656198	-0.523050	-0.471982	-0.270289
52952		8.851763	-4.273807	0.039325	-0.003353	0.001448	-0.013023	-0.474854	0.533447	-0.115479	0.656233	-0.523040	-0.471938	-0.270301
52953		8.788856	-4.335183	0.042450	0.019801	-0.007044	-0.017548	-0.476074	0.538086	-0.112549	0.656285	-0.522890	-0.472065	-0.270242
52954		8.831423	-4.284536	-0.051814	0.021312	-0.002101	-0.014170	-0.480957	0.538574	-0.108643	0.656342	-0.522798	-0.472136	-0.270158
52955		8.838706	-4.285155	0.025544	0.002928	0.011387	-0.014589	-0.481689	0.537354	-0.120605	0.656314	-0.522797	-0.472145	-0.270210
52956		8.803308	-4.342818	0.130027	0.002856	0.009354	-0.013446	-0.472900	0.542725	-0.117676	0.656376	-0.522716	-0.472095	-0.270305
52957		8.754876	-4.354191	0.143410	0.012322	0.000952	-0.018018	-0.478271	0.536621	-0.111084	0.656451	-0.522677	-0.472049	-0.270277
52958		8.767576	-4.321714	0.152850	0.020846	-0.006085	-0.021791	-0.481934	0.541260	-0.114014	0.656451	-0.522565	-0.472208	-0.270218
52959		8.853093	-4.256903	0.106099	0.018869	-0.007136	-0.020194	-0.479980	0.536133	-0.109131	0.656452	-0.522490	-0.472316	-0.270171
52960		8.865588	-4.255438	0.096955	0.004150	0.000312	-0.019238	-0.479492	0.548096	-0.112305	0.656389	-0.522469	-0.472416	-0.270190
52961		8.865839	-4.304913	0.103905	0.000784	-0.000158	-0.019873	-0.481689	0.537354	-0.115967	0.656337	-0.522566	-0.472373	-0.270204
52962		8.829790	-4.295903	0.082044	0.007978	0.000101	-0.019010	-0.474854	0.540283	-0.121094	0.656344	-0.522488	-0.472424	-0.270248
52963		8.831241	-4.292911	0.082495	0.008206	-0.001846	-0.021504	-0.474365	0.539307	-0.117920	0.656412	-0.522425	-0.472380	-0.270281
52964		8.817489	-4.286603	0.041546	0.003151	-0.001820	-0.020737	-0.470215	0.541504	-0.116699	0.656436	-0.522405	-0.472354	-0.270309
52965		8.832123	-4.316758	0.039521	0.003965	0.001080	-0.022487	-0.480713	0.538574	-0.114746	0.656478	-0.522412	-0.472283	-0.270315
52966		8.839754	-4.272665	0.040895	0.010341	-0.001556	-0.019877	-0.478027	0.542725	-0.115479	0.656479	-0.522350	-0.472346	-0.270324
52967		8.827029	-4.257891	0.068396	0.005312	0.000215	-0.017963	-0.486816	0.534424	-0.110352	0.656487	-0.522369	-0.472314	-0.270324
52968		8.822104	-4.296454	0.068115	0.009596	0.000791	-0.014696	-0.474854	0.538818	-0.108643	0.656440	-0.522287	-0.472465	-0.270331
52969		8.849632	-4.298637	0.100469	0.014597	-0.002727	-0.017760	-0.481689	0.546387	-0.113037	0.656435	-0.522274	-0.472548	-0.270224
52970		8.859953	-4.265559	0.084679	0.014682	0.001054	-0.017765	-0.471436	0.532715	-0.111572	0.656452	-0.522284	-0.472538	-0.270182
52971		8.855465	-4.316259	0.177740	0.005367	0.002244	-0.019120	-0.470215	0.538818	-0.123779	0.656466	-0.522236	-0.472584	-0.270161
52972		8.806221	-4.305105	0.140228	0.020962	-0.008568	-0.019738	-0.476074	0.538086	-0.116455	0.656616	-0.522129	-0.472525	-0.270105
52973		8.867082	-4.236470	0.086718	0.015971	-0.006518	-0.020118	-0.474609	0.541992	-0.117188	0.656660	-0.522056	-0.472575	-0.270053
52974		8.882351	-4.214957	0.077959	-0.000709	0.003057	-0.012964	-0.474609	0.543945	-0.118408	0.656698	-0.522125	-0.472447	-0.270051
52975		8.843101	-4.333064	0.094525	-0.001011	-0.000242	-0.013908	-0.485596	0.532959	-0.119141	0.656729	-0.522214	-0.472308	-0.270046
52976		8.833171	-4.298193	0.122013	0.019266	-0.008066	-0.018344	-0.474365	0.541260	-0.118896	0.656758	-0.522029	-0.472459	-0.270069
52977		8.833170	-4.273588	0.072232	0.022114	-0.007188	-0.015022	-0.473877	0.540039	-0.119629	0.656866	-0.521974	-0.472434	-0.269956
52978		8.843261	-4.240837	0.055961	0.010018	-0.001639	-0.016264	-0.475586	0.534912	-0.112549	0.656946	-0.521955	-0.472359	-0.269928
52979		8.816237	-4.307748	0.056726	0.008136	0.001087	-0.014662	-0.480957	0.537842	-0.115479	0.656963	-0.521916	-0.472412	-0.269869
52980		8.801047	-4.261738	0.077002	0.022793	-0.008346	-0.014483	-0.481445	0.543213	-0.123535	0.657006	-0.521819	-0.472521	-0.269763
52981		8.867664	-4.227371	0.081359	0.016117	-0.005807	-0.013455	-0.472168	0.536377	-0.115479	0.657096	-0.521779	-0.472447	-0.269752
52982		8.836647	-4.274184	0.142200	0.004240	-0.000746	-0.013745	-0.482178	0.536377	-0.117676	0.657130	-0.521788	-0.472424	-0.269689
52983		8.837653	-4.272105	0.142201	0.004903	-0.003658	-0.014344	-0.482910	0.539795	-0.113037	0.657123	-0.521750	-0.472467	-0.269707
52984		8.863761	-4.252453	0.123535	0.005612	-0.003070	-0.012654	-0.479736	0.546387	-0.121582	0.657086	-0.521764	-0.472532	-0.269654
52985		8.877920	-4.252665	0.139039	0.001759	-0.004621	-0.014027	-0.489502	0.535400	-0.112305	0.657111	-0.521845	-0.472403	-0.269662
52986		8.834530	-4.276172	0.158686	0.006790	-0.003162	-0.011365	-0.473145	0.533691	-0.123535	0.657044	-0.521785	-0.472570	-0.269651
52987		8.876675	-4.238398	0.156147	0.000347	-0.002579	-0.012826	-0.478516	0.533447	-0.113281	0.657120	-0.521759	-0.472466	-0.269697
52988		8.849008	-4.262722	0.080844	-0.009227	0.000259	-0.009379	-0.484619	0.532715	-0.115479	0.657063	-0.521808	-0.472491	-0.269698
52989		8.827706	-4.320587	0.063218	-0.006385	-0.002076	-0.010641	-0.486084	0.538330	-0.118652	0.656993	-0.521802	-0.472560	-0.269758
52990		8.831419	-4.298493	0.063045	-0.001811	-0.001404	-0.011020	-0.480225	0.541748	-0.127441	0.656967	-0.521809	-0.472551	-0.269825
52991		8.862414	-4.259350	0.070048	0.002545	-0.000250	-0.012347	-0.478760	0.541260	-0.120117	0.657066	-0.521805	-0.472362	-0.269921
52992		8.883214	-4.228577	0.043849	-0.005562	0.002573	-0.011254	-0.481201	0.535156	-0.120605	0.657089	-0.521875	-0.472229	-0.269965
52993		8.850750	-4.285252	0.036692	-0.010519	0.009579	-0.005894	-0.481934	0.544434	-0.125244	0.657116	-0.521904	-0.472091	-0.270083
52994		8.804067	-4.298872	0.075191	-0.003699	0.011393	-0.011531	-0.481689	0.544434	-0.114990	0.657203	-0.521944	-0.471843	-0.270227
52995		8.826231	-4.321341	0.082379	0.005730	0.004219	-0.010376	-0.476807	0.534180	-0.106445	0.657227	-0.521986	-0.471796	-0.270171
52996		8.810838	-4.306841	0.085323	0.014834	0.002070	-0.013423	-0.477295	0.541016	-0.112549	0.657230	-0.521913	-0.471973	-0.269995
52997		8.857948	-4.249195	0.109913	0.008376	0.004116	-0.011443	-0.469727	0.540771	-0.122559	0.657265	-0.521929	-0.471967	-0.269890
52998		8.805475	-4.272410	0.165599	-0.000696	0.006545	-0.010696	-0.478516	0.535645	-0.122803	0.657387	-0.521984	-0.471735	-0.269891
52999		8.828981	-4.316848	0.222257	-0.000794	0.001015	-0.011835	-0.481201	0.544434	-0.112061	0.657433	-0.521966	-0.471644	-0.269972
53000		8.796201	-4.298636	0.157778	0.000420	0.001204	-0.012842	-0.481689	0.542236	-0.114502	0.657398	-0.522038	-0.471657	-0.269894
53001		8.837551	-4.281874	0.180110	-0.012033	0.001393	-0.013872	-0.481934	0.537354	-0.125977	0.657322	-0.522144	-0.471631	-0.269919
53002		8.805678	-4.337684	0.171470	-0.009284	-0.006469	-0.016273	-0.477295	0.535156	-0.112549	0.657300	-0.522168	-0.471538	-0.270092
53003		8.845380	-4.255077	0.067374	-0.000684	-0.008212	-0.016621	-0.480713	0.544678	-0.117432	0.657236	-0.522175	-0.471659	-0.270022
53004		8.860876	-4.295714	0.021100	-0.001900	-0.008402	-0.015616	-0.477783	0.540283	-0.113037	0.657194	-0.522258	-0.471641	-0.269993
53005		8.870782	-4.262956	0.003372	-0.002027	-0.002391	-0.015426	-0.477051	0.530518	-0.119141	0.657158	-0.522308	-0.471672	-0.269933
53006		8.844399	-4.246823	0.014461	0.005402	-0.000822	-0.012474	-0.476318	0.544678	-0.124268	0.657203	-0.522225	-0.471684	-0.269961
53007		8.852853	-4.287992	0.030198	0.009336	0.003050	-0.014554	-0.481201	0.541504	-0.114990	0.657329	-0.522224	-0.471497	-0.269985
53008		8.850796	-4.275331	0.049213	0.013927	0.005481	-0.013787	-0.480469	0.536865	-0.118408	0.657389	-0.522170	-0.471505	-0.269929
53009		8.836915	-4.282501	0.103041	0.014447	0.006833	-0.015344	-0.469238	0.545654	-0.115479	0.657475	-0.522059	-0.471496	-0.269949
53010		8.870702	-4.222430	0.112787	0.007337	0.013530	-0.011619	-0.478271	0.534180	-0.116943	0.657613	-0.522109	-0.471320	-0.269824
53011		8.851537	-4.249986	0.141350	-0.011754	0.019720	-0.009323	-0.478271	0.536377	-0.124023	0.657645	-0.522121	-0.471193	-0.269944
53012		8.812398	-4.306871	0.195736	-0.009431	0.016041	-0.009031	-0.482178	0.537598	-0.117188	0.657722	-0.522137	-0.470965	-0.270124
53013		8.826301	-4.307482	0.212885	-0.000936	0.007026	-0.011660	-0.478027	0.547852	-0.111572	0.657729	-0.522124	-0.470940	-0.270174
53014		8.781333	-4.278311	0.201032	-0.006270	0.003721	-0.011825	-0.474854	0.540283	-0.116943	0.657698	-0.522258	-0.470899	-0.270063
53015		8.806532	-4.279972	0.206981	-0.010188	-0.001623	-0.013194	-0.477539	0.538574	-0.114014	0.657669	-0.522356	-0.470840	-0.270047
53016		8.832918	-4.291107	0.169464	-0.012083	-0.002123	-0.016186	-0.482666	0.541748	-0.112061	0.657590	-0.522432	-0.470867	-0.270044
53017		8.822205	-4.308782	0.202374	-0.005502	-0.008697	-0.014909	-0.477295	0.531982	-0.113770	0.657484	-0.522503	-0.470975	-0.269979
53018		8.851592	-4.299009	0.164709	-0.005915	-0.007454	-0.019112	-0.475342	0.537354	-0.123047	0.657399	-0.522492	-0.471101	-0.269985
53019		8.885604	-4.256934	0.059795	-0.004262	-0.008222	-0.018222	-0.471680	0.535400	-0.118408	0.657399	-0.522514	-0.471034	-0.270058
53020		8.803538	-4.285976	0.123208	-0.027438	-0.003137	-0.018261	-0.472900	0.542480	-0.114258	0.657305	-0.522656	-0.470949	-0.270162
53021		8.837293	-4.327587	0.006975	-0.006878	-0.004626	-0.014867	-0.475098	0.534668	-0.121582	0.657280	-0.522762	-0.470916	-0.270076
53022		8.846956	-4.263338	0.006847	0.005044	-0.012567	-0.021476	-0.474121	0.526367	-0.117676	0.657285	-0.522712	-0.470945	-0.270111
53023		8.873912	-4.221472	-0.037378	0.001319	-0.001890	-0.014817	-0.474121	0.532471	-0.115723	0.657299	-0.522628	-0.470993	-0.270154
53024		8.856788	-4.237099	-0.078171	0.004353	0.008596	-0.012647	-0.479736	0.545654	-0.113281	0.657368	-0.522567	-0.470964	-0.270155
53025		8.885901	-4.209057	-0.001422	0.009664	0.010160	-0.013630	-0.474854	0.532471	-0.111572	0.657434	-0.522561	-0.470920	-0.270084
53026		8.866009	-4.226572	0.070350	0.013574	0.015509	-0.012260	-0.491943	0.543701	-0.108887	0.657535	-0.522444	-0.470939	-0.270031
53027		8.862317	-4.256907	0.141125	0.003608	0.023045	-0.010722	-0.478271	0.535156	-0.121338	0.657533	-0.522407	-0.470955	-0.270077
53028		8.824069	-4.292609	0.172000	0.002080	0.019268	-0.008358	-0.476807	0.537598	-0.118408	0.657657	-0.522349	-0.470778	-0.270198
53029		8.814315	-4.333180	0.259049	0.004159	0.012575	-0.011310	-0.478760	0.540039	-0.124756	0.657747	-0.522314	-0.470672	-0.270232
53030		8.809567	-4.288913	0.271091	0.014108	0.003292	-0.013994	-0.477783	0.538818	-0.116455	0.657871	-0.522231	-0.470562	-0.270280
53031		8.849367	-4.249799	0.244461	0.001356	0.001605	-0.012527	-0.477051	0.540771	-0.118408	0.657886	-0.522240	-0.470546	-0.270255
53032		8.836936	-4.297988	0.235525	-0.013201	0.003476	-0.016368	-0.472656	0.541016	-0.118164	0.657854	-0.522322	-0.470459	-0.270325
53033		8.806291	-4.332479	0.202438	-0.005142	-0.003090	-0.017446	-0.467041	0.539307	-0.117676	0.657852	-0.522386	-0.470404	-0.270303
53034		8.849630	-4.303165	0.156176	-0.000440	-0.010155	-0.019158	-0.481689	0.537842	-0.116455	0.657863	-0.522439	-0.470388	-0.270201
53035		8.862539	-4.267905	0.027567	0.007721	-0.010905	-0.021403	-0.479248	0.530029	-0.113770	0.657817	-0.522383	-0.470523	-0.270188
53036		8.825150	-4.283202	0.164385	-0.019073	-0.006169	-0.020732	-0.487061	0.542236	-0.112305	0.657658	-0.522424	-0.470641	-0.270288
53037		8.827309	-4.277761	0.027007	0.007955	-0.009631	-0.019309	-0.481445	0.537598	-0.113525	0.657579	-0.522398	-0.470812	-0.270233
53038		8.885022	-4.207754	-0.052680	0.012272	-0.008734	-0.018334	-0.483154	0.528564	-0.113770	0.657555	-0.522334	-0.470960	-0.270160
53039		8.888299	-4.205996	-0.026988	0.017414	0.000317	-0.015675	-0.480957	0.545654	-0.119629	0.657573	-0.522163	-0.471123	-0.270159
53040		8.874412	-4.213328	0.026567	0.010324	0.009017	-0.013103	-0.480469	0.531250	-0.115479	0.657675	-0.522138	-0.471009	-0.270161
53041		8.859728	-4.242301	0.105801	0.008707	0.015030	-0.010554	-0.479004	0.538086	-0.114014	0.657750	-0.522029	-0.470996	-0.270210
53042		8.863115	-4.220215	0.109109	0.005626	0.017827	-0.010247	-0.475830	0.540771	-0.116943	0.657831	-0.521989	-0.470924	-0.270214
53043		8.810659	-4.296425	0.173476	0.000832	0.017606	-0.010826	-0.473877	0.536133	-0.114502	0.657926	-0.521996	-0.470774	-0.270234
53044		8.802867	-4.325305	0.192909	-0.000829	0.018370	-0.011724	-0.483887	0.546387	-0.111572	0.658000	-0.521987	-0.470670	-0.270252
53045		8.832716	-4.307049	0.227212	-0.004715	0.014761	-0.011949	-0.475342	0.544434	-0.119629	0.657990	-0.522049	-0.470614	-0.270253
53046		8.815118	-4.291957	0.204960	-0.003610	0.007395	-0.012938	-0.470703	0.539062	-0.120117	0.658043	-0.522113	-0.470461	-0.270267
53047		8.823734	-4.268480	0.120929	0.003552	0.004230	-0.014366	-0.477051	0.541504	-0.115234	0.658127	-0.522117	-0.470348	-0.270251
53048		8.840324	-4.235625	0.045252	0.006209	0.005894	-0.014284	-0.479492	0.543945	-0.117188	0.658173	-0.522107	-0.470322	-0.270203
53049		8.903524	-4.221272	0.050844	-0.000683	0.015577	-0.007313	-0.479004	0.533691	-0.119629	0.658246	-0.522143	-0.470173	-0.270214
53050		8.874679	-4.217804	0.132087	-0.002557	0.018570	-0.008018	-0.473145	0.533691	-0.120605	0.658319	-0.522110	-0.470038	-0.270334
53051		8.848112	-4.234159	0.128029	-0.003748	0.021872	-0.004716	-0.478027	0.537354	-0.116943	0.658440	-0.522107	-0.469822	-0.270424
53052		8.879186	-4.257843	0.102459	0.002215	0.020263	-0.003985	-0.476318	0.538086	-0.123291	0.658541	-0.522091	-0.469684	-0.270448
53053		8.880818	-4.226925	0.148914	-0.000872	0.023058	-0.003685	-0.478027	0.541504	-0.117676	0.658684	-0.522085	-0.469429	-0.270554
53054		8.796213	-4.341356	0.181107	-0.000875	0.023058	-0.003687	-0.477051	0.534180	-0.119629	0.658790	-0.522105	-0.469241	-0.270584
53055		8.811617	-4.291103	0.218546	0.011035	0.016340	-0.004510	-0.481445	0.532959	-0.110107	0.658923	-0.522022	-0.469137	-0.270600
53056		8.831052	-4.334457	0.227320	0.006046	0.016877	-0.008359	-0.478271	0.539551	-0.110596	0.658950	-0.521946	-0.469194	-0.270582
53057		8.794870	-4.358912	0.189408	0.000500	0.012276	-0.010632	-0.474854	0.539307	-0.111084	0.658954	-0.521958	-0.469203	-0.270532
53058		8.800288	-4.337359	0.216931	0.000526	0.012558	-0.012941	-0.469971	0.539307	-0.120850	0.658972	-0.521970	-0.469191	-0.270484
53059		8.798765	-4.355569	0.218536	0.012756	0.007960	-0.018581	-0.467529	0.543457	-0.113770	0.659092	-0.521899	-0.469108	-0.270475
53060		8.838240	-4.284242	0.210700	0.020094	-0.001210	-0.020174	-0.481445	0.533936	-0.124023	0.659178	-0.521853	-0.469145	-0.270291
53061		8.844866	-4.228106	0.119689	0.014356	0.001666	-0.018817	-0.472168	0.539062	-0.124023	0.659237	-0.521706	-0.469171	-0.270385
53062		8.856524	-4.195751	0.129557	0.006941	0.006772	-0.014905	-0.472900	0.537354	-0.117920	0.659340	-0.521669	-0.469048	-0.270419
53063		8.906730	-4.178858	0.119344	0.004083	0.010835	-0.012507	-0.469482	0.538574	-0.115967	0.659410	-0.521648	-0.468977	-0.270413
53064		8.890244	-4.133766	0.140931	-0.009768	0.019969	-0.007791	-0.474121	0.541992	-0.124268	0.659469	-0.521724	-0.468800	-0.270428
53065		8.862879	-4.171880	0.161345	-0.015807	0.024230	0.000684	-0.471680	0.539551	-0.114502	0.659568	-0.521844	-0.468461	-0.270542
53066		8.897509	-4.197899	0.185952	-0.029424	0.031415	0.002888	-0.477295	0.547119	-0.118652	0.659592	-0.522041	-0.468164	-0.270620
53067		8.823803	-4.314683	0.207824	-0.040856	0.037729	0.000964	-0.470459	0.532471	-0.115723	0.659595	-0.522294	-0.467758	-0.270825
53068		8.749498	-4.400068	0.247240	-0.026554	0.027639	-0.001838	-0.479736	0.539307	-0.125488	0.659605	-0.522418	-0.467531	-0.270953
53069		8.738644	-4.450523	0.265463	-0.005032	0.014678	-0.008338	-0.482910	0.536865	-0.107178	0.659667	-0.522418	-0.467353	-0.271108
53070		8.738141	-4.374549	0.209759	0.011675	0.001204	-0.013118	-0.469971	0.541016	-0.105225	0.659625	-0.522342	-0.467567	-0.270989
53071		8.825794	-4.310270	0.214748	0.008385	0.004758	-0.016093	-0.470947	0.543701	-0.116699	0.659619	-0.522350	-0.467669	-0.270811
53072		8.833662	-4.328917	0.180996	0.002895	0.007433	-0.016100	-0.479980	0.537598	-0.117432	0.659664	-0.522370	-0.467601	-0.270781
53073		8.812483	-4.323912	0.200945	0.020569	-0.002138	-0.018238	-0.472412	0.536133	-0.111816	0.659704	-0.522231	-0.467723	-0.270739
53074		8.851739	-4.252676	0.192591	0.033423	-0.010473	-0.017518	-0.473877	0.531982	-0.125488	0.659765	-0.522079	-0.467937	-0.270514
53075		8.877063	-4.201002	0.193424	0.032722	-0.004065	-0.014645	-0.479736	0.529785	-0.116455	0.659919	-0.521868	-0.467983	-0.270470
53076		8.855189	-4.205622	0.145724	0.021714	0.000997	-0.012348	-0.475342	0.543701	-0.114502	0.659972	-0.521700	-0.468121	-0.270423
53077		8.846784	-4.255795	0.189235	0.023121	0.002187	-0.008946	-0.470459	0.536133	-0.122559	0.660065	-0.521645	-0.468150	-0.270253
53078		8.840799	-4.285672	0.233437	0.026469	0.002704	-0.008306	-0.473389	0.533936	-0.117188	0.660231	-0.521525	-0.468108	-0.270153
53079		8.817200	-4.280978	0.228974	0.023619	0.001791	-0.011663	-0.479736	0.533203	-0.115967	0.660326	-0.521399	-0.468171	-0.270052
53080		8.799795	-4.318496	0.214153	0.018100	0.002430	-0.010503	-0.476807	0.536865	-0.128174	0.660370	-0.521281	-0.468276	-0.269991
53081		8.822154	-4.288155	0.214521	0.012577	-0.000436	-0.011629	-0.468994	0.538330	-0.130371	0.660464	-0.521194	-0.468225	-0.270019
53082		8.820475	-4.306892	0.215300	0.010947	0.004104	-0.012560	-0.471191	0.538574	-0.125000	0.660607	-0.521136	-0.468068	-0.270050
53083		8.810240	-4.303586	0.226282	0.024590	0.000721	-0.014784	-0.474365	0.541016	-0.119385	0.660750	-0.521012	-0.468040	-0.269989
53084		8.821631	-4.271439	0.236320	0.028126	-0.004772	-0.014309	-0.471191	0.536621	-0.118652	0.660845	-0.520902	-0.468115	-0.269840
53085		8.828030	-4.280280	0.245367	0.038382	-0.010701	-0.016012	-0.476074	0.533203	-0.119141	0.660959	-0.520731	-0.468264	-0.269632
53086		8.848785	-4.248623	0.220264	0.040257	-0.011931	-0.014160	-0.474365	0.540283	-0.121582	0.661060	-0.520519	-0.468467	-0.269440
53087		8.865906	-4.206824	0.212642	0.025916	-0.003893	-0.010210	-0.474854	0.538330	-0.125732	0.661167	-0.520428	-0.468499	-0.269299
53088		8.842514	-4.254668	0.214577	0.014923	0.001158	-0.007901	-0.473389	0.545654	-0.124268	0.661269	-0.520369	-0.468446	-0.269255
53089		8.827013	-4.292983	0.224918	0.019050	0.003107	-0.012507	-0.484619	0.535400	-0.117188	0.661389	-0.520319	-0.468375	-0.269178
53090		8.853295	-4.252120	0.183238	0.020681	0.002078	-0.009291	-0.470703	0.535889	-0.123047	0.661431	-0.520185	-0.468511	-0.269099
53091		8.867607	-4.231471	0.175733	0.013737	0.002989	-0.008068	-0.468750	0.542480	-0.114502	0.661527	-0.520141	-0.468462	-0.269035
53092		8.859314	-4.208689	0.187667	0.006884	0.018754	-0.004656	-0.468750	0.540771	-0.124268	0.661626	-0.520183	-0.468328	-0.268942
53093		8.894000	-4.181444	0.205939	-0.007224	0.026312	0.000255	-0.480225	0.535156	-0.122803	0.661755	-0.520267	-0.468017	-0.269001
53094		8.825251	-4.278275	0.254652	-0.006073	0.024207	0.002728	-0.472656	0.529785	-0.125244	0.661835	-0.520278	-0.467844	-0.269086
53095		8.802552	-4.276134	0.276513	0.009667	0.017376	0.002180	-0.477783	0.536621	-0.112305	0.661986	-0.520210	-0.467702	-0.269094
53096		8.818805	-4.288886	0.278152	0.007501	0.016778	0.002844	-0.476807	0.538086	-0.125977	0.662042	-0.520212	-0.467677	-0.268994
53097		8.823244	-4.321408	0.313707	-0.002283	0.016763	0.000711	-0.473389	0.542480	-0.132568	0.662133	-0.520232	-0.467499	-0.269043
53098		8.772659	-4.378574	0.377443	-0.002057	0.011025	-0.001753	-0.476318	0.535400	-0.120850	0.662247	-0.520273	-0.467257	-0.269102
53099		8.782550	-4.369126	0.411692	0.008658	-0.002868	-0.006080	-0.475342	0.535889	-0.124756	0.662261	-0.520249	-0.467306	-0.269028
53100		8.827682	-4.320786	0.366696	0.004809	-0.008250	-0.007428	-0.467041	0.542236	-0.119873	0.662260	-0.520250	-0.467336	-0.268979
53101		8.810590	-4.285527	0.316817	-0.004243	-0.005637	-0.009034	-0.472900	0.532227	-0.114258	0.662229	-0.520377	-0.467284	-0.268899
53102		8.819964	-4.306123	0.305828	-0.013576	-0.004851	-0.008110	-0.461182	0.535156	-0.122314	0.662106	-0.520488	-0.467352	-0.268869
53103		8.820362	-4.314407	0.236343	-0.007338	-0.004606	-0.009891	-0.478271	0.541504	-0.122803	0.662090	-0.520603	-0.467262	-0.268841
53104		8.798859	-4.372045	0.193061	0.002951	-0.010252	-0.013895	-0.468750	0.537842	-0.123779	0.662046	-0.520614	-0.467331	-0.268808
53105		8.779941	-4.346949	0.210892	0.015122	-0.013616	-0.013753	-0.473877	0.537109	-0.118896	0.662073	-0.520585	-0.467386	-0.268703
53106		8.815701	-4.317598	0.225045	0.020175	-0.015048	-0.017985	-0.471191	0.547119	-0.123779	0.662063	-0.520503	-0.467562	-0.268578
53107		8.829041	-4.285701	0.257934	0.015845	-0.012739	-0.014374	-0.480957	0.535156	-0.124756	0.662095	-0.520511	-0.467579	-0.268455
53108		8.824837	-4.272286	0.249419	0.013000	-0.010158	-0.015446	-0.468018	0.537598	-0.120361	0.662092	-0.520405	-0.467716	-0.268431
53109		8.803989	-4.319742	0.274631	0.018931	-0.017273	-0.015810	-0.474854	0.537598	-0.116455	0.662098	-0.520371	-0.467831	-0.268282
53110		8.837472	-4.237461	0.255397	0.018675	-0.020580	-0.016740	-0.466309	0.540039	-0.125732	0.662048	-0.520322	-0.468050	-0.268117
53111		8.874643	-4.218389	0.226126	0.000068	-0.007954	-0.012654	-0.473145	0.533936	-0.120850	0.662052	-0.520391	-0.467983	-0.268091
53112		8.838484	-4.264315	0.210044	-0.008280	-0.001240	-0.010266	-0.469238	0.539062	-0.122070	0.662002	-0.520445	-0.467979	-0.268115
53113		8.788576	-4.329823	0.203415	-0.000888	-0.003090	-0.009577	-0.476562	0.543213	-0.122314	0.661999	-0.520511	-0.467927	-0.268085
53114		8.814627	-4.300404	0.252397	0.005571	-0.006822	-0.012692	-0.469238	0.538330	-0.118408	0.661988	-0.520524	-0.467954	-0.268040
53115		8.810258	-4.287295	0.243989	0.006775	-0.006622	-0.013707	-0.466309	0.532715	-0.127686	0.661974	-0.520546	-0.467990	-0.267968
53116		8.814598	-4.296128	0.225769	-0.000663	-0.007075	-0.010903	-0.471924	0.539551	-0.119385	0.661988	-0.520572	-0.467937	-0.267976
53117		8.821637	-4.274979	0.275519	-0.006624	-0.003748	-0.010504	-0.469482	0.540527	-0.122314	0.661934	-0.520664	-0.467920	-0.267961
53118		8.809779	-4.335286	0.358891	-0.000188	-0.009505	-0.012446	-0.471680	0.537354	-0.122803	0.661905	-0.520734	-0.467907	-0.267920
53119		8.816079	-4.271235	0.332342	0.002632	-0.017619	-0.012489	-0.476074	0.542725	-0.121338	0.661852	-0.520774	-0.467978	-0.267850
53120		8.825859	-4.291174	0.320267	-0.005241	-0.015097	-0.012778	-0.464600	0.536865	-0.122314	0.661759	-0.520864	-0.468031	-0.267810
53121		8.837658	-4.311480	0.332972	-0.003357	-0.021583	-0.014345	-0.470703	0.533691	-0.122314	0.661676	-0.520972	-0.468067	-0.267744
53122		8.811480	-4.274810	0.315273	-0.004087	-0.022460	-0.013733	-0.471680	0.538086	-0.122070	0.661573	-0.521037	-0.468169	-0.267693
53123		8.830971	-4.274384	0.242298	-0.009116	-0.020762	-0.011812	-0.467529	0.535889	-0.120605	0.661459	-0.521155	-0.468223	-0.267650
53124		8.774329	-4.401304	0.231764	-0.005074	-0.026643	-0.014055	-0.472412	0.536133	-0.122803	0.661336	-0.521267	-0.468318	-0.267569
53125		8.809487	-4.319585	0.235055	0.019030	-0.036349	-0.017090	-0.473389	0.538330	-0.124023	0.661276	-0.521225	-0.468552	-0.267391
53126		8.847102	-4.217039	0.238454	0.010422	-0.034710	-0.016760	-0.484131	0.539307	-0.119141	0.661192	-0.521233	-0.468739	-0.267257
53127		8.843205	-4.276953	0.258565	0.003233	-0.033618	-0.014162	-0.477051	0.547852	-0.119873	0.661039	-0.521253	-0.469006	-0.267126
53128		8.811561	-4.385439	0.229090	0.013731	-0.036201	-0.014976	-0.474365	0.539307	-0.113281	0.660944	-0.521303	-0.469197	-0.266926
53129		8.823520	-4.331602	0.207620	0.029455	-0.047968	-0.021357	-0.469971	0.536865	-0.114014	0.660826	-0.521251	-0.469594	-0.266623
53130		8.840169	-4.236542	0.186523	0.009430	-0.033356	-0.015991	-0.476074	0.535400	-0.120850	0.660703	-0.521306	-0.469812	-0.266438
53131		8.812893	-4.345540	0.208039	0.002767	-0.030371	-0.019596	-0.471436	0.540283	-0.119385	0.660579	-0.521314	-0.470019	-0.266364
53132		8.801228	-4.340903	0.188098	0.028264	-0.040595	-0.020445	-0.484375	0.528564	-0.119141	0.660529	-0.521260	-0.470283	-0.266128
53133		8.805741	-4.274976	0.134074	0.038256	-0.046003	-0.023182	-0.476562	0.544922	-0.110107	0.660464	-0.521014	-0.470786	-0.265879
53134		8.861827	-4.267447	0.125676	0.039663	-0.044787	-0.019799	-0.470459	0.540039	-0.129395	0.660391	-0.520945	-0.471164	-0.265527
53135		8.883708	-4.162775	0.088318	0.021580	-0.029381	-0.013704	-0.472900	0.536621	-0.116211	0.660428	-0.520905	-0.471238	-0.265382
53136		8.831751	-4.290550	0.130318	0.013235	-0.026203	-0.013550	-0.474121	0.544922	-0.119385	0.660365	-0.520914	-0.471407	-0.265221
53137		8.859720	-4.228924	0.084016	0.030875	-0.028639	-0.011254	-0.471680	0.535400	-0.122070	0.660391	-0.520873	-0.471554	-0.264974
53138		8.898693	-4.147940	0.004189	0.019265	-0.013173	-0.008329	-0.468750	0.532959	-0.114014	0.660449	-0.520822	-0.471598	-0.264851
53139		8.857571	-4.215810	0.099870	-0.007366	0.004118	-0.004135	-0.477051	0.544434	-0.118896	0.660431	-0.520923	-0.471519	-0.264842
53140		8.798309	-4.323749	0.180613	-0.002783	0.012153	-0.002281	-0.471924	0.538818	-0.112793	0.660482	-0.520994	-0.471360	-0.264856
53141		8.814902	-4.377370	0.230522	0.015748	-0.002434	-0.005347	-0.479980	0.530273	-0.114014	0.660524	-0.520995	-0.471374	-0.264723
53142		8.803393	-4.302207	0.208186	0.038129	-0.010130	-0.003623	-0.469971	0.545410	-0.119385	0.660628	-0.520796	-0.471584	-0.264482
53143		8.798303	-4.249007	0.286521	0.023094	-0.009794	-0.005831	-0.474609	0.534912	-0.123779	0.660710	-0.520802	-0.471555	-0.264317
53144		8.797439	-4.300032	0.268727	0.023052	-0.015599	-0.004627	-0.474121	0.541748	-0.114014	0.660784	-0.520723	-0.471627	-0.264159
53145		8.815627	-4.280587	0.308716	0.017055	-0.019852	-0.004122	-0.469727	0.539551	-0.123291	0.660767	-0.520762	-0.471729	-0.263944
53146		8.792619	-4.329184	0.308077	0.020114	-0.026134	-0.006733	-0.475830	0.534180	-0.117432	0.660788	-0.520769	-0.471797	-0.263755
53147		8.810084	-4.277736	0.228005	0.011034	-0.027619	-0.005908	-0.480957	0.533203	-0.116211	0.660724	-0.520784	-0.471975	-0.263567
53148		8.866090	-4.262176	0.152114	-0.012984	-0.015943	-0.003889	-0.470703	0.538818	-0.118896	0.660593	-0.520882	-0.472081	-0.263512
53149		8.815151	-4.297741	0.161480	-0.014405	-0.013916	-0.002680	-0.468750	0.533691	-0.116943	0.660499	-0.521070	-0.472028	-0.263471
53150		8.804198	-4.358147	0.107846	0.000353	-0.018778	-0.007219	-0.469482	0.540039	-0.113281	0.660432	-0.521155	-0.472082	-0.263374
53151		8.819213	-4.368846	0.078658	0.020599	-0.022756	-0.009521	-0.469482	0.537842	-0.127197	0.660414	-0.521174	-0.472200	-0.263171
53152		8.832434	-4.253998	0.009755	0.016608	-0.012833	-0.009602	-0.471924	0.540527	-0.123779	0.660490	-0.521132	-0.472183	-0.263092
53153		8.868563	-4.256667	0.006302	0.004764	-0.000685	-0.007574	-0.469727	0.531738	-0.121826	0.660545	-0.521151	-0.472091	-0.263083
53154		8.845776	-4.284612	0.119001	0.000041	0.006336	-0.005852	-0.476562	0.541260	-0.125488	0.660602	-0.521152	-0.471994	-0.263111
53155		8.797203	-4.341050	0.182995	0.009783	0.000876	-0.004931	-0.474854	0.538574	-0.121826	0.660692	-0.521121	-0.471919	-0.263081
53156		8.783371	-4.327954	0.210957	0.018359	-0.000206	-0.009982	-0.472412	0.532715	-0.118652	0.660785	-0.521031	-0.471919	-0.263025
53157		8.791924	-4.337689	0.245013	0.014281	-0.003384	-0.011113	-0.471924	0.540771	-0.119873	0.660832	-0.520955	-0.471969	-0.262968
53158		8.781739	-4.355486	0.279812	0.017089	-0.011217	-0.013510	-0.476074	0.534180	-0.124023	0.660862	-0.520919	-0.472018	-0.262876
53159		8.844022	-4.266295	0.249254	0.019210	-0.014389	-0.014172	-0.469238	0.536133	-0.112549	0.660902	-0.520799	-0.472142	-0.262790
53160		8.839285	-4.315616	0.180224	0.004921	-0.011704	-0.013493	-0.475098	0.543945	-0.121582	0.660842	-0.520846	-0.472215	-0.262718
53161		8.826944	-4.312113	0.163300	0.003987	-0.008331	-0.013863	-0.476074	0.542236	-0.120605	0.660831	-0.520869	-0.472216	-0.262697
53162		8.817913	-4.319292	0.129475	0.002344	-0.003812	-0.014788	-0.473145	0.537842	-0.112793	0.660822	-0.520876	-0.472216	-0.262705
53163		8.842188	-4.329961	0.067354	0.003287	-0.005162	-0.015599	-0.476807	0.534424	-0.116699	0.660774	-0.520894	-0.472279	-0.262679
53164		8.804484	-4.292145	0.062917	0.005007	0.003684	-0.015953	-0.474609	0.538330	-0.113770	0.660782	-0.520828	-0.472324	-0.262707
53165		8.842179	-4.242007	0.078227	0.001465	0.008616	-0.011756	-0.471436	0.537842	-0.116943	0.660791	-0.520835	-0.472289	-0.262733
53166		8.850833	-4.251537	0.113244	-0.004918	0.018391	-0.012105	-0.471436	0.537842	-0.118408	0.660830	-0.520858	-0.472148	-0.262843
53167		8.829487	-4.310118	0.210347	-0.004919	0.018127	-0.009783	-0.476562	0.533447	-0.118896	0.660881	-0.520886	-0.471990	-0.262944
53168		8.801333	-4.347061	0.206089	0.000526	0.011990	-0.012129	-0.471191	0.534180	-0.119629	0.660921	-0.520830	-0.471958	-0.263012
53169		8.798907	-4.355339	0.250413	0.007649	0.006874	-0.012437	-0.472168	0.543457	-0.120850	0.660982	-0.520778	-0.471917	-0.263035
53170		8.801946	-4.291165	0.201315	0.007875	0.004647	-0.012624	-0.475098	0.536377	-0.120850	0.661039	-0.520773	-0.471835	-0.263047
53171		8.851849	-4.315152	0.240763	0.003613	0.011515	-0.015961	-0.467773	0.542236	-0.120117	0.661094	-0.520706	-0.471789	-0.263127
53172		8.807388	-4.318342	0.212711	0.005750	0.010104	-0.015475	-0.476318	0.539551	-0.119873	0.661157	-0.520711	-0.471662	-0.263186
53173		8.817393	-4.337786	0.204929	0.006449	0.007201	-0.016066	-0.476562	0.539062	-0.125244	0.661198	-0.520653	-0.471643	-0.263231
53174		8.820657	-4.273095	0.156019	0.010733	0.006403	-0.016271	-0.471436	0.533203	-0.123047	0.661282	-0.520549	-0.471616	-0.263274
53175		8.857167	-4.253882	0.129421	0.001229	0.012865	-0.012769	-0.473145	0.534912	-0.117188	0.661351	-0.520502	-0.471524	-0.263359
53176		8.812563	-4.278407	0.126760	0.000043	0.014685	-0.012923	-0.472900	0.534180	-0.121826	0.661388	-0.520478	-0.471453	-0.263439
53177		8.877613	-4.221111	0.107157	0.000776	0.018816	-0.008933	-0.473389	0.540527	-0.123779	0.661478	-0.520437	-0.471324	-0.263525
53178		8.874847	-4.250814	0.178010	-0.011592	0.026071	-0.007630	-0.466797	0.540039	-0.110107	0.661554	-0.520480	-0.471081	-0.263685
53179		8.787789	-4.375917	0.230300	-0.011815	0.032080	-0.007490	-0.472656	0.541748	-0.113037	0.661588	-0.520598	-0.470817	-0.263838
53180		8.760578	-4.382057	0.270051	0.001012	0.020636	-0.011486	-0.476562	0.532471	-0.118164	0.661633	-0.520618	-0.470688	-0.263918
53181		8.810195	-4.343780	0.235066	0.008375	0.013302	-0.011963	-0.476807	0.538574	-0.125977	0.661703	-0.520514	-0.470685	-0.263952
53182		8.839842	-4.303189	0.244061	0.004328	0.015915	-0.014316	-0.470459	0.552002	-0.119873	0.661799	-0.520424	-0.470597	-0.264045
53183		8.831800	-4.300237	0.281106	-0.002351	0.014543	-0.013211	-0.471436	0.542725	-0.116211	0.661836	-0.520516	-0.470391	-0.264139
53184		8.800583	-4.346965	0.319046	0.010492	0.004598	-0.013723	-0.477051	0.541748	-0.122314	0.661869	-0.520511	-0.470352	-0.264133
53185		8.828169	-4.285051	0.276261	0.018819	-0.000302	-0.015040	-0.467041	0.535400	-0.123291	0.661941	-0.520405	-0.470390	-0.264094
53186		8.827823	-4.230844	0.269503	0.003818	0.004981	-0.011475	-0.473633	0.533691	-0.121338	0.661991	-0.520404	-0.470300	-0.264130
53187		8.829095	-4.333214	0.260859	0.002859	0.002813	-0.012957	-0.476074	0.540039	-0.121094	0.662010	-0.520364	-0.470304	-0.264155
53188		8.796719	-4.327630	0.289635	0.011183	-0.003843	-0.015417	-0.479004	0.541016	-0.131104	0.662028	-0.520308	-0.470355	-0.264130
53189		8.808953	-4.326541	0.280287	0.016653	-0.008474	-0.014275	-0.477295	0.537354	-0.125000	0.662101	-0.520190	-0.470410	-0.264081
53190		8.828791	-4.274287	0.227836	0.011169	-0.009647	-0.014196	-0.482910	0.543701	-0.112061	0.662117	-0.520117	-0.470495	-0.264033
53191		8.828959	-4.324269	0.209856	0.004026	-0.006569	-0.012724	-0.470703	0.538086	-0.132324	0.662048	-0.520133	-0.470606	-0.263978
53192		8.797802	-4.329415	0.194967	0.010690	-0.008971	-0.013796	-0.468506	0.536621	-0.117676	0.662108	-0.520078	-0.470594	-0.263957
53193		8.825389	-4.309209	0.200769	0.012592	-0.009908	-0.014268	-0.473145	0.539551	-0.120117	0.662100	-0.520071	-0.470647	-0.263894
53194		8.832885	-4.265946	0.225462	0.008779	-0.007771	-0.015661	-0.470947	0.538818	-0.120117	0.662090	-0.520057	-0.470696	-0.263863
53195		8.823957	-4.273430	0.191982	0.010932	-0.005920	-0.010551	-0.473145	0.532227	-0.121338	0.662109	-0.520055	-0.470703	-0.263807
53196		8.845661	-4.242715	0.190724	0.012604	-0.000848	-0.010885	-0.472656	0.533936	-0.119141	0.662159	-0.519977	-0.470740	-0.263768
53197		8.846386	-4.262136	0.216761	0.010942	-0.000641	-0.007122	-0.472168	0.542725	-0.119141	0.662199	-0.519945	-0.470750	-0.263713
53198		8.790461	-4.286408	0.222456	0.018083	0.000067	-0.008644	-0.476807	0.539062	-0.133301	0.662269	-0.519917	-0.470722	-0.263642
53199		8.848705	-4.270428	0.176406	0.016182	0.000743	-0.005845	-0.477539	0.540771	-0.118652	0.662406	-0.519809	-0.470679	-0.263589
53200		8.840071	-4.268724	0.212563	0.006431	0.007653	-0.003314	-0.479736	0.535645	-0.127197	0.662458	-0.519810	-0.470621	-0.263558
53201		8.834770	-4.278010	0.231314	-0.005235	0.010219	-0.003742	-0.472900	0.538818	-0.112793	0.662510	-0.519795	-0.470541	-0.263601
53202		8.818383	-4.307001	0.284655	-0.004043	0.010164	-0.002443	-0.476318	0.541260	-0.126709	0.662502	-0.519890	-0.470438	-0.263615
53203		8.789901	-4.345442	0.279399	-0.001665	0.006532	-0.002129	-0.467773	0.537354	-0.125732	0.662559	-0.519919	-0.470324	-0.263621
53204		8.797165	-4.387151	0.270872	0.006420	0.002374	-0.006743	-0.471680	0.533936	-0.121826	0.662625	-0.519925	-0.470229	-0.263611
53205		8.799775	-4.365449	0.271362	0.010223	-0.003279	-0.007638	-0.474609	0.538574	-0.125732	0.662662	-0.519893	-0.470244	-0.263556
53206		8.798921	-4.312060	0.263383	0.010933	-0.006181	-0.008222	-0.469238	0.544189	-0.127930	0.662705	-0.519854	-0.470262	-0.263491
53207		8.825311	-4.323786	0.226850	0.002360	-0.004348	-0.010153	-0.465576	0.542969	-0.126953	0.662729	-0.519902	-0.470178	-0.263486
53208		8.807969	-4.278706	0.245201	0.011164	-0.008147	-0.010735	-0.472168	0.543213	-0.120605	0.662772	-0.519926	-0.470118	-0.263438
53209		8.847643	-4.291754	0.224399	0.006886	-0.005862	-0.007060	-0.468018	0.529541	-0.122070	0.662777	-0.519970	-0.470096	-0.263377
53210		8.808406	-4.307476	0.201987	0.005931	-0.004253	-0.008586	-0.471191	0.551025	-0.131836	0.662793	-0.519954	-0.470110	-0.263344
53211		8.865562	-4.301476	0.222218	0.004504	-0.006012	-0.007330	-0.473389	0.542969	-0.124268	0.662840	-0.520016	-0.469991	-0.263316
53212		8.815229	-4.336992	0.234652	0.000225	0.000313	-0.006031	-0.472168	0.538818	-0.119141	0.662858	-0.520065	-0.469915	-0.263308
53213		8.787814	-4.322802	0.245706	-0.000016	0.000781	-0.006995	-0.470215	0.535156	-0.125488	0.662853	-0.520111	-0.469876	-0.263299
53214		8.846095	-4.327712	0.224033	-0.006677	0.006954	-0.005965	-0.469971	0.541504	-0.119141	0.662877	-0.520154	-0.469765	-0.263353
53215		8.802095	-4.343066	0.287510	-0.014771	0.007848	-0.005966	-0.467529	0.538086	-0.123779	0.662839	-0.520296	-0.469618	-0.263431
53216		8.788708	-4.392659	0.254429	-0.001452	-0.000456	-0.010404	-0.469727	0.532959	-0.123047	0.662841	-0.520343	-0.469547	-0.263459
53217		8.755992	-4.387917	0.282453	0.002362	-0.004607	-0.007825	-0.468262	0.540283	-0.128662	0.662844	-0.520351	-0.469549	-0.263432
53218		8.778202	-4.399038	0.195109	0.013057	-0.010574	-0.014688	-0.470459	0.538574	-0.126953	0.662882	-0.520313	-0.469561	-0.263391
53219		8.809099	-4.347660	0.132947	0.009473	-0.006630	-0.018638	-0.465332	0.543457	-0.126465	0.662901	-0.520256	-0.469595	-0.263395
53220		8.837483	-4.274766	0.156568	-0.001952	0.004776	-0.017047	-0.468750	0.543945	-0.129150	0.662918	-0.520300	-0.469467	-0.263491
53221		8.825652	-4.312547	0.192160	-0.004095	0.007938	-0.016399	-0.473389	0.539795	-0.119629	0.662949	-0.520328	-0.469327	-0.263609
53222		8.833146	-4.289872	0.243565	0.002573	0.005290	-0.015144	-0.475342	0.534668	-0.127686	0.662957	-0.520310	-0.469312	-0.263652
53223		8.819537	-4.275827	0.271543	0.008527	0.005544	-0.013306	-0.472656	0.531250	-0.129150	0.663030	-0.520204	-0.469312	-0.263677
53224		8.826084	-4.284818	0.280852	0.003766	0.006997	-0.012702	-0.471191	0.549316	-0.118896	0.663098	-0.520116	-0.469285	-0.263728
53225		8.815290	-4.333852	0.274232	0.002576	0.005029	-0.012815	-0.479248	0.536621	-0.122559	0.663105	-0.520174	-0.469192	-0.263761
53226		8.795330	-4.340228	0.251152	-0.002429	0.003427	-0.015463	-0.470947	0.536377	-0.128662	0.663091	-0.520131	-0.469229	-0.263815
53227		8.799844	-4.348930	0.234091	-0.007425	0.005085	-0.013491	-0.472168	0.543213	-0.119385	0.663099	-0.520144	-0.469151	-0.263908
53228		8.793257	-4.356453	0.226584	-0.009345	0.008298	-0.016547	-0.469238	0.541260	-0.123047	0.663061	-0.520208	-0.469068	-0.264023
53229		8.785479	-4.353028	0.261834	0.002087	0.002446	-0.017037	-0.471924	0.541992	-0.115723	0.663068	-0.520214	-0.469020	-0.264081
53230		8.873246	-4.244489	0.238680	0.006847	0.002757	-0.016499	-0.461914	0.529297	-0.121094	0.663063	-0.520208	-0.469021	-0.264103
53231		8.845672	-4.260500	0.208115	0.000898	0.007518	-0.012576	-0.474121	0.532959	-0.123535	0.663092	-0.520212	-0.468938	-0.264169
53232		8.825695	-4.266919	0.185833	0.001357	0.010887	-0.015363	-0.469482	0.540771	-0.118408	0.663132	-0.520138	-0.468919	-0.264247
53233		8.838123	-4.235235	0.220836	0.001144	0.013833	-0.004702	-0.475830	0.542236	-0.131348	0.663184	-0.520187	-0.468771	-0.264286
53234		8.819777	-4.336236	0.258076	-0.002690	0.016476	-0.010770	-0.466797	0.547119	-0.121826	0.663270	-0.520152	-0.468629	-0.264390
53235		8.801541	-4.343622	0.261699	0.002571	0.011815	-0.005914	-0.469238	0.541260	-0.115967	0.663332	-0.520226	-0.468435	-0.264431
53236		8.800383	-4.311251	0.280956	-0.000296	0.014352	-0.006975	-0.475586	0.539307	-0.121094	0.663363	-0.520281	-0.468299	-0.264485
53237		8.776741	-4.349378	0.327100	-0.001006	0.011710	-0.007491	-0.471436	0.532959	-0.122803	0.663399	-0.520280	-0.468225	-0.264528
53238		8.825959	-4.332095	0.315995	0.002339	0.006741	-0.007977	-0.473145	0.535156	-0.123291	0.663440	-0.520254	-0.468187	-0.264545
53239		8.805677	-4.339275	0.293238	-0.000759	0.005962	-0.009957	-0.472900	0.542480	-0.123779	0.663461	-0.520239	-0.468154	-0.264581
53240		8.783845	-4.408488	0.320841	0.002351	0.001200	-0.009073	-0.464600	0.540527	-0.123779	0.663478	-0.520259	-0.468104	-0.264586
53241		8.778884	-4.375070	0.287674	0.007588	-0.004178	-0.014700	-0.472412	0.541260	-0.124268	0.663490	-0.520276	-0.468066	-0.264592
53242		8.839326	-4.316589	0.215207	0.005919	-0.000194	-0.010979	-0.457275	0.541504	-0.125732	0.663515	-0.520266	-0.468042	-0.264588
53243		8.817831	-4.312725	0.234396	0.006872	-0.001539	-0.011786	-0.465820	0.541748	-0.123047	0.663551	-0.520332	-0.467905	-0.264611
53244		8.835505	-4.322962	0.233436	0.018542	-0.004061	-0.011347	-0.468018	0.533203	-0.121338	0.663613	-0.520304	-0.467881	-0.264556
53245		8.853724	-4.301753	0.275411	0.025438	-0.004879	-0.012647	-0.470703	0.529297	-0.119873	0.663693	-0.520180	-0.467958	-0.264462
53246		8.821093	-4.296696	0.304810	0.021390	-0.002813	-0.010343	-0.475342	0.540771	-0.121338	0.663762	-0.520053	-0.468055	-0.264367
53247		8.840298	-4.265947	0.278807	0.008774	0.000791	-0.007638	-0.469971	0.541260	-0.124756	0.663795	-0.520030	-0.468055	-0.264328
53248		8.850033	-4.286567	0.270456	-0.005537	0.010919	-0.007078	-0.471191	0.537598	-0.119141	0.663823	-0.520088	-0.467909	-0.264401
53249		8.773683	-4.361603	0.303220	-0.006003	0.009571	-0.005482	-0.466309	0.543457	-0.127686	0.663824	-0.520151	-0.467811	-0.264451
53250		8.794727	-4.331522	0.302400	-0.000275	0.004765	-0.005695	-0.464844	0.541748	-0.123779	0.663868	-0.520219	-0.467655	-0.264482
53251		8.774121	-4.318405	0.253749	-0.008377	0.005889	-0.008040	-0.469482	0.537109	-0.126465	0.663859	-0.520333	-0.467496	-0.264563
53252		8.840274	-4.333949	0.265645	-0.022687	0.015755	-0.005150	-0.468750	0.539795	-0.122559	0.663845	-0.520452	-0.467299	-0.264709
53253		8.745515	-4.438194	0.324670	-0.016742	0.011262	-0.011410	-0.470215	0.541992	-0.126465	0.663808	-0.520556	-0.467156	-0.264850
53254		8.753393	-4.437243	0.264956	0.008061	-0.003085	-0.013966	-0.472412	0.543945	-0.116455	0.663834	-0.520532	-0.467147	-0.264849
53255		8.808670	-4.336144	0.227198	0.016866	-0.004826	-0.015731	-0.468994	0.542725	-0.131104	0.663841	-0.520491	-0.467206	-0.264806
53256		8.827609	-4.242474	0.125059	0.013272	0.002106	-0.012737	-0.462646	0.537842	-0.124512	0.663931	-0.520428	-0.467147	-0.264808
53257		8.867792	-4.202787	0.123557	0.002045	0.013008	-0.010208	-0.470459	0.531982	-0.124268	0.663995	-0.520447	-0.466988	-0.264891
53258		8.874541	-4.201974	0.201851	0.000131	0.018960	-0.003974	-0.459961	0.543701	-0.125732	0.664088	-0.520409	-0.466870	-0.264941
53259		8.860316	-4.231052	0.282444	-0.009667	0.027844	-0.002659	-0.467773	0.540039	-0.126465	0.664177	-0.520532	-0.466511	-0.265109
53260		8.826455	-4.280019	0.297194	-0.018977	0.035538	0.002924	-0.471680	0.543457	-0.118164	0.664271	-0.520641	-0.466153	-0.265289
53261		8.807567	-4.330885	0.352975	-0.029933	0.036650	0.005363	-0.460449	0.532959	-0.132812	0.664288	-0.520840	-0.465791	-0.265491
53262		8.798255	-4.372155	0.441106	-0.041853	0.036106	0.001634	-0.472412	0.544922	-0.118896	0.664314	-0.521046	-0.465361	-0.265778
53263		8.747060	-4.440846	0.412646	-0.040638	0.028756	0.000693	-0.468750	0.543457	-0.119629	0.664246	-0.521299	-0.465039	-0.266013
53264		8.683205	-4.528385	0.392648	-0.017945	0.012554	-0.006942	-0.465088	0.542236	-0.122803	0.664203	-0.521441	-0.464868	-0.266141
53265		8.732312	-4.448184	0.304454	-0.005267	0.000165	-0.015331	-0.472656	0.545166	-0.129395	0.664163	-0.521511	-0.464799	-0.266223
53266		8.778647	-4.366762	0.326421	-0.009094	0.002281	-0.016744	-0.466797	0.541992	-0.128418	0.664137	-0.521541	-0.464746	-0.266323
53267		8.796585	-4.355512	0.299360	-0.009096	0.002281	-0.016746	-0.468994	0.548584	-0.115723	0.664109	-0.521591	-0.464666	-0.266434
53268		8.825604	-4.272547	0.255155	0.000199	0.001373	-0.015407	-0.464111	0.537354	-0.125732	0.664065	-0.521663	-0.464613	-0.266498
53269		8.884537	-4.202939	0.225910	-0.008176	0.007975	-0.012977	-0.466797	0.547363	-0.129395	0.664064	-0.521707	-0.464501	-0.266606
53270		8.855371	-4.281937	0.245672	-0.022296	0.019114	-0.008014	-0.474609	0.546387	-0.122559	0.664063	-0.521855	-0.464221	-0.266808
53271		8.779334	-4.377900	0.303555	-0.013969	0.019814	-0.008210	-0.467041	0.539551	-0.122070	0.664074	-0.521921	-0.464051	-0.266947
53272		8.817290	-4.307450	0.319732	-0.007734	0.014080	-0.006467	-0.472168	0.542236	-0.133545	0.664098	-0.521978	-0.463902	-0.267036
53273		8.825344	-4.317611	0.354518	-0.015389	0.018046	-0.006961	-0.467285	0.549561	-0.133301	0.664145	-0.522016	-0.463714	-0.267172
53274		8.762285	-4.394160	0.402638	-0.025175	0.019622	-0.007914	-0.469971	0.541992	-0.126953	0.664147	-0.522171	-0.463410	-0.267390
53275		8.702902	-4.460499	0.407348	-0.012934	0.007128	-0.008873	-0.477295	0.536133	-0.124756	0.664132	-0.522242	-0.463299	-0.267481
53276		8.761658	-4.391262	0.377554	-0.008113	-0.001338	-0.014036	-0.467285	0.540283	-0.123779	0.664091	-0.522215	-0.463374	-0.267506
53277		8.781189	-4.390877	0.307034	-0.013812	-0.004105	-0.013749	-0.466797	0.540527	-0.120850	0.664008	-0.522313	-0.463339	-0.267581
53278		8.793423	-4.368815	0.270879	-0.007130	-0.006195	-0.017134	-0.462402	0.547363	-0.125000	0.663927	-0.522378	-0.463347	-0.267641
53279		8.811299	-4.336534	0.217753	-0.003092	-0.004729	-0.017138	-0.475830	0.540283	-0.120850	0.663883	-0.522466	-0.463264	-0.267721
53280		8.829478	-4.314917	0.258340	-0.001204	-0.002136	-0.015309	-0.463379	0.539307	-0.122559	0.663849	-0.522441	-0.463332	-0.267736
53281		8.845186	-4.303825	0.206459	0.008320	0.000013	-0.010693	-0.467285	0.539551	-0.126465	0.663883	-0.522439	-0.463285	-0.267737
53282		8.845772	-4.250402	0.225099	0.002986	0.011435	-0.008663	-0.463379	0.545410	-0.116699	0.663957	-0.522415	-0.463179	-0.267785
53283		8.855552	-4.271138	0.217685	-0.006107	0.016874	-0.003271	-0.469482	0.532959	-0.125732	0.663982	-0.522536	-0.462948	-0.267887
53284		8.829741	-4.268878	0.349451	-0.010701	0.025133	0.000518	-0.465088	0.538818	-0.121094	0.664072	-0.522543	-0.462763	-0.267972
53285		8.848329	-4.250253	0.418729	-0.030304	0.031520	0.003227	-0.471680	0.548340	-0.121094	0.664083	-0.522727	-0.462420	-0.268174
53286		8.803129	-4.320072	0.465951	-0.048214	0.033670	0.004540	-0.471436	0.538818	-0.117432	0.664021	-0.523023	-0.462016	-0.268449
53287		8.739283	-4.450716	0.495962	-0.051777	0.029777	0.002969	-0.462402	0.538086	-0.117432	0.663918	-0.523299	-0.461701	-0.268707
53288		8.757606	-4.421686	0.469115	-0.053374	0.019423	-0.000161	-0.465088	0.540283	-0.123779	0.663762	-0.523641	-0.461382	-0.268974
53289		8.755617	-4.390689	0.484715	-0.066961	0.015547	-0.002493	-0.463379	0.543213	-0.124756	0.663553	-0.524028	-0.461065	-0.269278
53290		8.781943	-4.403392	0.445436	-0.070269	0.009161	-0.001919	-0.471680	0.541016	-0.120850	0.663309	-0.524469	-0.460741	-0.269576
53291		8.722369	-4.459579	0.351802	-0.049394	-0.004296	-0.007890	-0.464844	0.550537	-0.115723	0.663081	-0.524750	-0.460655	-0.269736
53292		8.771575	-4.399933	0.285069	-0.029931	-0.018045	-0.009116	-0.459473	0.545410	-0.121826	0.662855	-0.525059	-0.460579	-0.269820
53293		8.803943	-4.358997	0.177351	-0.024266	-0.011490	-0.009422	-0.466797	0.541504	-0.117432	0.662708	-0.525300	-0.460463	-0.269911
53294		8.815756	-4.368524	0.097192	-0.029632	-0.000074	-0.007384	-0.469971	0.545166	-0.120850	0.662575	-0.525500	-0.460357	-0.270029
53295		8.797786	-4.418344	0.147235	-0.018927	0.004582	-0.007280	-0.466553	0.545166	-0.126953	0.662518	-0.525619	-0.460249	-0.270120
53296		8.766380	-4.372708	0.150416	0.010741	0.000221	-0.010370	-0.463867	0.540039	-0.114746	0.662593	-0.525569	-0.460211	-0.270099
53297		8.839976	-4.304928	0.164279	0.014512	0.005669	-0.009020	-0.454102	0.536377	-0.121338	0.662662	-0.525522	-0.460171	-0.270090
53298		8.790169	-4.352349	0.271242	0.002953	0.014978	-0.006318	-0.467529	0.546631	-0.116211	0.662750	-0.525542	-0.459977	-0.270166
53299		8.770218	-4.422991	0.325107	0.012057	0.012521	-0.004708	-0.460449	0.541016	-0.125977	0.662843	-0.525520	-0.459861	-0.270175
53300		8.755619	-4.400656	0.422629	0.015646	0.011426	-0.008934	-0.465088	0.541504	-0.114502	0.662982	-0.525438	-0.459749	-0.270186
53301		8.765464	-4.368925	0.433140	0.015720	0.003860	-0.008857	-0.461426	0.546143	-0.117188	0.663045	-0.525391	-0.459725	-0.270163
53302		8.788513	-4.338433	0.458370	0.000688	0.001984	-0.009991	-0.463867	0.534668	-0.123047	0.663037	-0.525466	-0.459617	-0.270220
53303		8.748133	-4.374859	0.435306	-0.002367	-0.002852	-0.009621	-0.466064	0.551270	-0.107910	0.663035	-0.525466	-0.459625	-0.270211
53304		8.807115	-4.378133	0.412771	-0.003731	-0.009891	-0.011828	-0.463623	0.539062	-0.123047	0.662917	-0.525622	-0.459589	-0.270260
53305		8.748281	-4.423045	0.389318	0.004922	-0.015184	-0.012118	-0.462891	0.538574	-0.113770	0.662890	-0.525626	-0.459660	-0.270197
53306		8.771459	-4.390853	0.250402	0.012382	-0.020695	-0.011385	-0.474854	0.540283	-0.119385	0.662839	-0.525641	-0.459776	-0.270097
53307		8.789421	-4.410527	0.178987	0.008749	-0.016750	-0.015380	-0.462158	0.546875	-0.113037	0.662805	-0.525567	-0.459969	-0.269997
53308		8.794070	-4.367034	0.177877	0.022378	-0.018395	-0.014165	-0.457031	0.544189	-0.111572	0.662787	-0.525569	-0.460037	-0.269920
53309		8.809900	-4.314718	0.236411	0.024442	-0.010465	-0.012588	-0.468262	0.544922	-0.126221	0.662806	-0.525572	-0.460031	-0.269876
53310		8.831410	-4.304397	0.261032	0.027981	-0.006568	-0.011027	-0.455078	0.548340	-0.124756	0.662926	-0.525426	-0.460099	-0.269752
53311		8.830499	-4.313483	0.330039	0.020524	-0.001334	-0.009417	-0.471436	0.548584	-0.117676	0.663019	-0.525425	-0.459971	-0.269741
53312		8.799367	-4.340853	0.341835	0.014775	0.001152	-0.005698	-0.461426	0.542236	-0.118652	0.663083	-0.525393	-0.459947	-0.269689
53313		8.789031	-4.380753	0.402512	0.003525	0.003229	-0.008963	-0.468506	0.550049	-0.131348	0.663104	-0.525425	-0.459859	-0.269725
53314		8.761429	-4.366835	0.413564	-0.003362	0.000228	-0.007667	-0.466309	0.530029	-0.122559	0.663131	-0.525462	-0.459766	-0.269744
53315		8.732528	-4.446668	0.431125	-0.005215	-0.004662	-0.005972	-0.460205	0.535400	-0.125244	0.663124	-0.525451	-0.459824	-0.269684
53316		8.748520	-4.487563	0.360192	0.004170	-0.013780	-0.015037	-0.461670	0.544922	-0.124512	0.663105	-0.525433	-0.459899	-0.269640
53317		8.722930	-4.441057	0.276169	0.017146	-0.021839	-0.014317	-0.462402	0.540771	-0.118164	0.663100	-0.525414	-0.459988	-0.269536
53318		8.785778	-4.402047	0.253256	0.021409	-0.020290	-0.018033	-0.466309	0.548828	-0.120361	0.663089	-0.525352	-0.460129	-0.269443
53319		8.798083	-4.348227	0.260521	0.024934	-0.016118	-0.018823	-0.467285	0.546143	-0.126465	0.663109	-0.525274	-0.460233	-0.269367
53320		8.843836	-4.297422	0.240538	0.027278	-0.010950	-0.012745	-0.459717	0.544678	-0.116211	0.663202	-0.525150	-0.460315	-0.269243
53321		8.789154	-4.342656	0.270420	0.026021	-0.006847	-0.016455	-0.466064	0.545410	-0.127197	0.663251	-0.525088	-0.460331	-0.269213
53322		8.834952	-4.313107	0.276448	0.027017	-0.008992	-0.010230	-0.459473	0.540527	-0.116455	0.663357	-0.524972	-0.460384	-0.269087
53323		8.783415	-4.348843	0.264149	0.008979	0.004453	-0.009034	-0.468750	0.534912	-0.117920	0.663396	-0.524985	-0.460295	-0.269118
53324		8.791785	-4.358602	0.298629	0.003946	0.006336	-0.009426	-0.463623	0.537354	-0.120117	0.663437	-0.524924	-0.460308	-0.269114
53325		8.794659	-4.378404	0.350258	-0.002272	0.007999	-0.008789	-0.465576	0.543213	-0.113281	0.663461	-0.524934	-0.460232	-0.269165
53326		8.763935	-4.426707	0.386950	0.002320	0.003003	-0.007949	-0.464111	0.545166	-0.125244	0.663452	-0.524986	-0.460161	-0.269208
53327		8.766669	-4.425404	0.412534	0.005470	-0.002964	-0.012892	-0.468018	0.541992	-0.121338	0.663472	-0.524982	-0.460132	-0.269215
53328		8.765715	-4.423183	0.386926	0.003832	-0.006029	-0.013760	-0.467285	0.541992	-0.121582	0.663460	-0.524966	-0.460175	-0.269204
53329		8.753280	-4.399143	0.344897	0.003875	-0.009811	-0.013716	-0.461182	0.546387	-0.121582	0.663434	-0.524962	-0.460232	-0.269180
53330		8.802937	-4.380143	0.331417	0.005104	-0.013372	-0.014703	-0.457275	0.547119	-0.116455	0.663390	-0.525017	-0.460231	-0.269181
53331		8.792241	-4.335250	0.289059	0.013921	-0.013302	-0.015286	-0.461670	0.544678	-0.113037	0.663359	-0.525072	-0.460209	-0.269189
53332		8.849268	-4.306457	0.284213	0.011971	-0.008872	-0.012524	-0.469482	0.535889	-0.112549	0.663333	-0.525112	-0.460199	-0.269192
53333		8.829507	-4.313331	0.260144	0.011689	-0.004890	-0.011197	-0.462891	0.545410	-0.120850	0.663339	-0.525048	-0.460296	-0.269135
53334		8.782233	-4.380643	0.255099	0.009756	-0.002217	-0.009584	-0.463135	0.541504	-0.117432	0.663368	-0.525060	-0.460241	-0.269134
53335		8.788357	-4.369229	0.238535	0.006578	0.004284	-0.009333	-0.458008	0.547607	-0.118652	0.663399	-0.525066	-0.460170	-0.269166
53336		8.809990	-4.380035	0.288675	-0.003237	0.007571	-0.009140	-0.468018	0.547119	-0.126221	0.663394	-0.525184	-0.459968	-0.269296
53337		8.770157	-4.427705	0.360355	0.001778	0.007451	-0.007601	-0.458496	0.547607	-0.116211	0.663452	-0.525181	-0.459871	-0.269323
53338		8.764736	-4.394482	0.328235	0.010176	0.001166	-0.012384	-0.460693	0.540039	-0.124512	0.663463	-0.525233	-0.459752	-0.269397
53339		8.787859	-4.363331	0.353088	0.006342	0.002996	-0.011459	-0.459473	0.547119	-0.125732	0.663514	-0.525208	-0.459698	-0.269414
53340		8.805321	-4.352540	0.327102	-0.002258	0.004476	-0.011101	-0.466553	0.543213	-0.124023	0.663526	-0.525278	-0.459547	-0.269506
53341		8.819697	-4.372771	0.368887	-0.003724	0.006747	-0.012240	-0.461914	0.541748	-0.118164	0.663542	-0.525281	-0.459481	-0.269572
53342		8.818112	-4.350131	0.319182	-0.009493	0.011247	-0.009702	-0.471924	0.543213	-0.120117	0.663531	-0.525360	-0.459333	-0.269698
53343		8.801572	-4.347329	0.253934	-0.011945	0.016611	-0.008886	-0.461426	0.549072	-0.118164	0.663545	-0.525380	-0.459227	-0.269805
53344		8.769116	-4.385316	0.333792	-0.036622	0.025045	-0.008909	-0.456787	0.543945	-0.121582	0.663458	-0.525630	-0.458875	-0.270130
53345		8.762504	-4.435048	0.216865	-0.022377	0.028393	-0.010750	-0.470215	0.545166	-0.117676	0.663461	-0.525767	-0.458548	-0.270411
53346		8.821358	-4.417860	0.333209	-0.029470	0.023816	-0.009223	-0.465332	0.549072	-0.110352	0.663413	-0.525895	-0.458337	-0.270639
53347		8.772737	-4.381787	0.364264	-0.031917	0.027423	-0.009567	-0.463135	0.553711	-0.117432	0.663327	-0.526113	-0.458019	-0.270964
53348		8.715625	-4.416910	0.277123	-0.005842	0.021047	-0.013128	-0.457031	0.542480	-0.121338	0.663342	-0.526202	-0.457758	-0.271195
53349		8.826728	-4.381917	0.271607	0.008127	0.011694	-0.013202	-0.467041	0.544189	-0.115723	0.663411	-0.526184	-0.457622	-0.271289
53350		8.767388	-4.365386	0.337941	0.002615	0.013964	-0.010852	-0.462402	0.541016	-0.124268	0.663456	-0.526166	-0.457529	-0.271372
53351		8.808554	-4.304494	0.338088	0.007347	0.016343	-0.011474	-0.455811	0.541260	-0.125000	0.663563	-0.526091	-0.457425	-0.271432
53352		8.822581	-4.325109	0.381986	-0.011103	0.022574	-0.007470	-0.462158	0.545898	-0.117920	0.663617	-0.526161	-0.457164	-0.271603
53353		8.756512	-4.402181	0.379999	-0.003375	0.016629	-0.005756	-0.458984	0.548340	-0.116943	0.663655	-0.526226	-0.456962	-0.271724
53354		8.751821	-4.432008	0.424238	-0.000902	0.009782	-0.010070	-0.461426	0.539795	-0.116943	0.663657	-0.526317	-0.456770	-0.271866
53355		8.759846	-4.420809	0.433271	-0.001545	0.005109	-0.009395	-0.465576	0.541504	-0.123779	0.663660	-0.526347	-0.456702	-0.271917
53356		8.756804	-4.418838	0.383225	-0.004179	0.005400	-0.010661	-0.457031	0.545654	-0.121094	0.663677	-0.526342	-0.456661	-0.271951
53357		8.746057	-4.395436	0.367773	0.000635	0.002244	-0.012381	-0.459473	0.543213	-0.123535	0.663671	-0.526410	-0.456535	-0.272047
53358		8.793634	-4.376137	0.330877	0.005698	-0.001381	-0.013127	-0.465332	0.550537	-0.117432	0.663689	-0.526411	-0.456492	-0.272074
53359		8.812311	-4.313487	0.347559	0.006387	0.000996	-0.010254	-0.469238	0.543457	-0.117432	0.663693	-0.526450	-0.456410	-0.272126
53360		8.842448	-4.283188	0.312535	-0.004217	0.008640	-0.006012	-0.468994	0.540771	-0.122314	0.663709	-0.526467	-0.456347	-0.272159
53361		8.821105	-4.332616	0.314676	-0.018669	0.016890	-0.006711	-0.463379	0.552002	-0.119629	0.663715	-0.526507	-0.456234	-0.272255
53362		8.742592	-4.450742	0.345933	-0.015576	0.017690	-0.004698	-0.456299	0.540283	-0.125000	0.663703	-0.526663	-0.455959	-0.272444
53363		8.744700	-4.450408	0.372527	-0.002072	0.009018	-0.004344	-0.467285	0.545898	-0.124512	0.663756	-0.526707	-0.455806	-0.272488
53364		8.777752	-4.379176	0.338131	-0.003521	0.009533	-0.006642	-0.455322	0.544922	-0.120117	0.663798	-0.526715	-0.455713	-0.272525
53365		8.770186	-4.357270	0.373876	-0.017442	0.014817	-0.004200	-0.457275	0.542969	-0.120117	0.663775	-0.526888	-0.455439	-0.272703
53366		8.780404	-4.399205	0.390437	-0.018144	0.013926	-0.003576	-0.464600	0.543701	-0.116699	0.663755	-0.527041	-0.455204	-0.272851
53367		8.768216	-4.439236	0.425644	0.003471	0.005003	-0.007838	-0.458252	0.539551	-0.125977	0.663780	-0.527045	-0.455147	-0.272875
53368		8.764519	-4.406559	0.418573	0.020379	-0.006848	-0.006784	-0.464355	0.536865	-0.126709	0.663875	-0.526961	-0.455181	-0.272750
53369		8.807875	-4.377190	0.399047	0.014896	-0.007826	-0.009099	-0.459961	0.537109	-0.120850	0.663951	-0.526839	-0.455301	-0.272599
53370		8.800797	-4.364936	0.365986	-0.000551	0.003236	-0.005503	-0.456787	0.546875	-0.118164	0.663980	-0.526849	-0.455253	-0.272591
53371		8.769795	-4.392923	0.376761	-0.012327	0.007679	-0.007248	-0.462646	0.546143	-0.119873	0.663936	-0.527006	-0.455043	-0.272744
53372		8.746500	-4.421013	0.327333	-0.015662	0.007077	-0.007892	-0.462158	0.540771	-0.116943	0.663889	-0.527127	-0.454897	-0.272866
53373		8.756703	-4.452536	0.410537	-0.019894	0.003752	-0.005331	-0.457764	0.541504	-0.120605	0.663816	-0.527268	-0.454787	-0.272957
53374		8.787135	-4.328884	0.366700	-0.003346	-0.001541	-0.008852	-0.465576	0.545898	-0.127930	0.663797	-0.527331	-0.454721	-0.272992
53375		8.812679	-4.360631	0.330144	-0.023086	0.008489	-0.006251	-0.464600	0.535645	-0.121094	0.663767	-0.527434	-0.454595	-0.273076
53376		8.769497	-4.439510	0.306654	-0.014470	0.007031	-0.006574	-0.462891	0.539307	-0.116699	0.663758	-0.527460	-0.454563	-0.273101
53377		8.761384	-4.375576	0.291350	-0.005390	0.006663	-0.006143	-0.455322	0.546143	-0.121582	0.663760	-0.527496	-0.454491	-0.273146
53378		8.782166	-4.366094	0.316139	-0.015054	0.013235	-0.005071	-0.447998	0.549316	-0.119141	0.663749	-0.527641	-0.454247	-0.273298
53379		8.816333	-4.367705	0.289641	-0.015191	0.020801	-0.005169	-0.466064	0.540039	-0.107666	0.663743	-0.527847	-0.453863	-0.273554
53380		8.777230	-4.407286	0.454680	-0.034632	0.026574	-0.001565	-0.471191	0.540527	-0.115479	0.663668	-0.528037	-0.453602	-0.273801
53381		8.731031	-4.434426	0.425239	-0.014223	0.019472	-0.005979	-0.467529	0.546143	-0.115967	0.663685	-0.528044	-0.453512	-0.273893
53382		8.766373	-4.405367	0.466664	-0.015986	0.011060	-0.006588	-0.456543	0.551025	-0.111572	0.663648	-0.528139	-0.453385	-0.274014
53383		8.721118	-4.473935	0.485773	-0.017788	0.004678	-0.008398	-0.462402	0.545654	-0.125732	0.663534	-0.528375	-0.453140	-0.274239
53384		8.754050	-4.474368	0.431497	-0.016237	-0.002580	-0.013064	-0.456543	0.550781	-0.111816	0.663471	-0.528451	-0.453110	-0.274293
53385		8.724357	-4.450263	0.482500	-0.050057	0.004133	-0.012476	-0.461426	0.548828	-0.112549	0.663207	-0.528846	-0.452817	-0.274655
53386		8.713858	-4.508860	0.377350	-0.033390	-0.006680	-0.017088	-0.461670	0.547119	-0.121582	0.662980	-0.529103	-0.452711	-0.274882
53387		8.749851	-4.468479	0.481541	-0.032011	-0.017521	-0.020347	-0.456787	0.544189	-0.115234	0.662757	-0.529302	-0.452731	-0.275003
53388		8.754980	-4.433873	0.409642	-0.009248	-0.020919	-0.022139	-0.456299	0.559570	-0.118408	0.662591	-0.529420	-0.452789	-0.275080
53389		8.786431	-4.401028	0.370359	0.000876	-0.026114	-0.024813	-0.456055	0.546875	-0.122314	0.662425	-0.529578	-0.452777	-0.275196
53390		8.795663	-4.376284	0.282117	0.020538	-0.029105	-0.022780	-0.466309	0.552979	-0.119385	0.662384	-0.529536	-0.452940	-0.275107
53391		8.810495	-4.374086	0.295738	0.026227	-0.026563	-0.020683	-0.459961	0.543213	-0.117432	0.662370	-0.529455	-0.453125	-0.274994
53392		8.825392	-4.288490	0.235190	0.028034	-0.020457	-0.016520	-0.460449	0.552979	-0.117432	0.662401	-0.529348	-0.453285	-0.274861
53393		8.849128	-4.287521	0.215987	0.010318	-0.006028	-0.014638	-0.468262	0.547852	-0.120850	0.662390	-0.529382	-0.453228	-0.274916
53394		8.824756	-4.347070	0.259392	-0.001753	0.003017	-0.004477	-0.458252	0.538086	-0.115479	0.662421	-0.529393	-0.453182	-0.274896
53395		8.777440	-4.405986	0.321825	-0.004214	0.006616	-0.004816	-0.458008	0.546143	-0.117920	0.662440	-0.529430	-0.453093	-0.274925
53396		8.718933	-4.464004	0.393881	0.013354	-0.000243	-0.006786	-0.449951	0.546631	-0.114502	0.662497	-0.529427	-0.453021	-0.274912
53397		8.743216	-4.433744	0.444222	0.018464	-0.005604	-0.008686	-0.464111	0.551270	-0.122314	0.662525	-0.529474	-0.452907	-0.274940
53398		8.756701	-4.412251	0.435266	0.008659	-0.005871	-0.010854	-0.453857	0.550537	-0.123535	0.662546	-0.529469	-0.452898	-0.274917
53399		8.706349	-4.469335	0.446001	0.001523	-0.008178	-0.012904	-0.460449	0.545654	-0.117432	0.662513	-0.529559	-0.452806	-0.274974
53400		8.701610	-4.456449	0.436612	0.011761	-0.019174	-0.014351	-0.463379	0.546875	-0.117432	0.662478	-0.529559	-0.452898	-0.274908
53401		8.761732	-4.395190	0.363101	0.013737	-0.023584	-0.017127	-0.461426	0.536865	-0.115967	0.662429	-0.529536	-0.453048	-0.274821
53402		8.783760	-4.393738	0.316805	0.012267	-0.021590	-0.015921	-0.456299	0.545898	-0.115967	0.662401	-0.529468	-0.453250	-0.274688
53403		8.791779	-4.360654	0.297593	0.004767	-0.016418	-0.014316	-0.457520	0.544678	-0.122803	0.662332	-0.529539	-0.453260	-0.274699
53404		8.807397	-4.339005	0.311938	-0.001086	-0.009926	-0.012984	-0.459473	0.556152	-0.113037	0.662299	-0.529582	-0.453261	-0.274695
53405		8.788376	-4.367016	0.311685	-0.000164	-0.007747	-0.011479	-0.454834	0.549805	-0.115967	0.662217	-0.529737	-0.453125	-0.274819
53406		8.789384	-4.375282	0.243090	0.007177	-0.003874	-0.009660	-0.463135	0.544434	-0.115479	0.662206	-0.529821	-0.453000	-0.274888
53407		8.771854	-4.394132	0.337458	-0.004654	0.002286	-0.010241	-0.459961	0.553467	-0.107178	0.662190	-0.529856	-0.452953	-0.274936
53408		8.779871	-4.382801	0.345832	0.006359	0.001043	-0.010275	-0.463379	0.543701	-0.121582	0.662157	-0.529962	-0.452793	-0.275078
53409		8.760438	-4.401328	0.415226	0.001144	-0.000696	-0.009261	-0.461914	0.547607	-0.112549	0.662186	-0.529938	-0.452800	-0.275042
53410		8.766361	-4.462265	0.380460	0.015031	-0.002414	-0.009406	-0.460205	0.546143	-0.116699	0.662220	-0.529923	-0.452769	-0.275041
53411		8.761314	-4.449744	0.372837	0.018521	-0.010844	-0.012197	-0.457275	0.547363	-0.112793	0.662248	-0.529880	-0.452814	-0.274980
53412		8.719409	-4.455152	0.367158	0.014672	-0.010519	-0.014797	-0.459473	0.539307	-0.114014	0.662231	-0.529895	-0.452807	-0.275003
53413		8.721963	-4.432222	0.366628	0.008458	-0.010658	-0.015331	-0.460693	0.547607	-0.116211	0.662216	-0.529859	-0.452896	-0.274963
53414		8.776081	-4.443682	0.361543	0.008688	-0.010852	-0.016715	-0.462158	0.548584	-0.121094	0.662186	-0.529864	-0.452925	-0.274978
53415		8.774239	-4.388942	0.352818	0.007275	-0.012369	-0.017820	-0.460693	0.537598	-0.114014	0.662160	-0.529852	-0.452984	-0.274967
53416		8.771616	-4.375787	0.368811	0.007066	-0.013927	-0.017599	-0.449219	0.542969	-0.119873	0.662127	-0.529802	-0.453124	-0.274911
53417		8.783562	-4.353050	0.333227	0.008166	-0.008433	-0.015161	-0.461182	0.543701	-0.114014	0.662115	-0.529840	-0.453074	-0.274948
53418		8.809704	-4.373460	0.364168	-0.000946	-0.006349	-0.014419	-0.458496	0.548584	-0.119873	0.662067	-0.529875	-0.453081	-0.274987
53419		8.763227	-4.419967	0.332252	0.001722	-0.008381	-0.014310	-0.462646	0.543701	-0.127930	0.662029	-0.529930	-0.453047	-0.275027
53420		8.738554	-4.436888	0.324741	0.012729	-0.009608	-0.014360	-0.452393	0.543701	-0.121582	0.662088	-0.529821	-0.453164	-0.274902
53421		8.776734	-4.416259	0.321626	0.015138	-0.011171	-0.015230	-0.459473	0.550293	-0.118164	0.662108	-0.529801	-0.453178	-0.274872
53422		8.746840	-4.443140	0.331641	0.011517	-0.009567	-0.015691	-0.458984	0.547852	-0.117676	0.662095	-0.529813	-0.453167	-0.274896
53423		8.741518	-4.471432	0.348166	0.016825	-0.013356	-0.017836	-0.455322	0.548096	-0.123047	0.662091	-0.529785	-0.453215	-0.274882
53424		8.758138	-4.407285	0.338723	0.024694	-0.013637	-0.018760	-0.460205	0.542236	-0.115234	0.662132	-0.529713	-0.453267	-0.274835
53425		8.778132	-4.395136	0.336934	0.018968	-0.014450	-0.019692	-0.452881	0.540039	-0.121338	0.662135	-0.529629	-0.453393	-0.274782
53426		8.764471	-4.380812	0.363202	0.015495	-0.009262	-0.021580	-0.461426	0.541992	-0.122070	0.662157	-0.529552	-0.453460	-0.274767
53427		8.775896	-4.389043	0.421377	0.014829	-0.010429	-0.018592	-0.460205	0.541992	-0.118408	0.662188	-0.529447	-0.453582	-0.274692
53428		8.735144	-4.424873	0.372712	0.016829	-0.015108	-0.019017	-0.464111	0.549316	-0.116211	0.662192	-0.529367	-0.453711	-0.274624
53429		8.763719	-4.382074	0.378225	0.018569	-0.019320	-0.020421	-0.462158	0.543457	-0.121582	0.662162	-0.529324	-0.453828	-0.274589
53430		8.821985	-4.340871	0.304628	0.006566	-0.015028	-0.018386	-0.454346	0.542480	-0.116455	0.662133	-0.529288	-0.453941	-0.274538
53431		8.764616	-4.386481	0.281893	-0.000723	-0.008321	-0.016976	-0.459229	0.544434	-0.116211	0.662071	-0.529353	-0.453912	-0.274612
53432		8.802823	-4.365532	0.278216	0.003760	-0.005707	-0.016223	-0.475586	0.547119	-0.114502	0.662042	-0.529373	-0.453900	-0.274662
53433		8.789650	-4.372611	0.329659	0.001544	-0.004073	-0.019100	-0.461426	0.540527	-0.124512	0.662013	-0.529310	-0.454007	-0.274677
53434		8.764095	-4.409681	0.322547	0.006596	-0.005903	-0.018710	-0.456055	0.541504	-0.120850	0.662037	-0.529222	-0.454102	-0.274630
53435		8.768712	-4.386499	0.347541	0.008289	-0.006602	-0.017795	-0.461670	0.553955	-0.111816	0.662043	-0.529192	-0.454128	-0.274634
53436		8.787226	-4.395368	0.345760	-0.000150	-0.001890	-0.016501	-0.462891	0.545898	-0.123535	0.661971	-0.529301	-0.453999	-0.274807
53437		8.750400	-4.431973	0.348235	0.007278	-0.005005	-0.019350	-0.463867	0.541748	-0.119385	0.661984	-0.529242	-0.454051	-0.274806
53438		8.785198	-4.358431	0.337590	0.018820	-0.008889	-0.018632	-0.462402	0.538818	-0.114014	0.662029	-0.529115	-0.454176	-0.274733
53439		8.810232	-4.336281	0.318865	0.012100	-0.006635	-0.017580	-0.461914	0.546387	-0.118896	0.662037	-0.529042	-0.454258	-0.274719
53440		8.791845	-4.363663	0.320251	0.013994	-0.005774	-0.016891	-0.462646	0.548584	-0.118896	0.662059	-0.528993	-0.454283	-0.274721
53441		8.782963	-4.340028	0.329864	0.003894	-0.000639	-0.014146	-0.461426	0.542725	-0.112305	0.662058	-0.529010	-0.454229	-0.274780
53442		8.812495	-4.349888	0.319304	0.004580	0.000258	-0.014781	-0.466797	0.543457	-0.118652	0.662046	-0.529018	-0.454189	-0.274859
53443		8.789879	-4.367182	0.338459	0.003605	0.001583	-0.013968	-0.462891	0.547852	-0.115967	0.662069	-0.528971	-0.454203	-0.274871
53444		8.765996	-4.405356	0.357384	0.007084	-0.003592	-0.012087	-0.465088	0.540283	-0.115234	0.662064	-0.528994	-0.454159	-0.274911
53445		8.753378	-4.444162	0.366514	0.011702	-0.008263	-0.013613	-0.458984	0.543945	-0.118164	0.662077	-0.528933	-0.454242	-0.274861
53446		8.745364	-4.441407	0.400538	0.012724	-0.013100	-0.016750	-0.459717	0.550781	-0.115967	0.662064	-0.528915	-0.454294	-0.274841
53447		8.760005	-4.439542	0.415452	0.017051	-0.015548	-0.018099	-0.461670	0.540039	-0.114014	0.662033	-0.528928	-0.454310	-0.274863
53448		8.747416	-4.415019	0.373025	0.017097	-0.019060	-0.020424	-0.461914	0.551270	-0.121582	0.662003	-0.528864	-0.454460	-0.274810
53449		8.805472	-4.363289	0.366984	0.016206	-0.021516	-0.019569	-0.455566	0.541260	-0.114746	0.661968	-0.528853	-0.454550	-0.274768
53450		8.762998	-4.388906	0.359793	0.014790	-0.023042	-0.020673	-0.458008	0.545654	-0.116455	0.661904	-0.528855	-0.454654	-0.274747
53451		8.771999	-4.375557	0.365329	0.018873	-0.026779	-0.024171	-0.463379	0.543945	-0.122070	0.661836	-0.528837	-0.454790	-0.274719
53452		8.754219	-4.402258	0.364134	0.026204	-0.032240	-0.019719	-0.457764	0.554688	-0.117676	0.661825	-0.528734	-0.455040	-0.274530
53453		8.849375	-4.248836	0.303416	0.018448	-0.026650	-0.019046	-0.468750	0.546387	-0.111084	0.661749	-0.528800	-0.455069	-0.274537
53454		8.835984	-4.349120	0.336074	0.003392	-0.012623	-0.015768	-0.465820	0.540527	-0.116455	0.661677	-0.528832	-0.455118	-0.274568
53455		8.756270	-4.435610	0.357898	0.022406	-0.021598	-0.016751	-0.468018	0.539795	-0.112061	0.661686	-0.528725	-0.455315	-0.274426
53456		8.782310	-4.392802	0.337166	0.033098	-0.031420	-0.017534	-0.466553	0.544678	-0.118164	0.661688	-0.528584	-0.455599	-0.274222
53457		8.791788	-4.328607	0.249769	0.030173	-0.027447	-0.015093	-0.460693	0.544434	-0.117676	0.661708	-0.528475	-0.455808	-0.274035
53458		8.806992	-4.358306	0.221381	0.017838	-0.018957	-0.014026	-0.462646	0.535889	-0.111084	0.661699	-0.528458	-0.455885	-0.273963
53459		8.786792	-4.375608	0.264250	0.008131	-0.012221	-0.015226	-0.450439	0.540527	-0.119873	0.661665	-0.528436	-0.455973	-0.273941
53460		8.759382	-4.402932	0.299810	0.021268	-0.012976	-0.013693	-0.473389	0.542236	-0.118164	0.661699	-0.528413	-0.455980	-0.273891
53461		8.774950	-4.380653	0.315107	0.027303	-0.017865	-0.015311	-0.463867	0.544678	-0.109863	0.661757	-0.528239	-0.456210	-0.273703
53462		8.801781	-4.317399	0.295499	0.025311	-0.014954	-0.016049	-0.462402	0.541504	-0.117432	0.661760	-0.528191	-0.456274	-0.273683
53463		8.792821	-4.335229	0.329728	0.012659	-0.011611	-0.013299	-0.466553	0.546631	-0.120605	0.661764	-0.528162	-0.456332	-0.273633
53464		8.797113	-4.353911	0.379826	0.011134	-0.007604	-0.013282	-0.464600	0.544678	-0.118652	0.661783	-0.528126	-0.456367	-0.273596
53465		8.797006	-4.372707	0.379362	0.014619	-0.012761	-0.011412	-0.467285	0.540771	-0.116699	0.661796	-0.528099	-0.456422	-0.273526
53466		8.768027	-4.390270	0.321805	0.027328	-0.018120	-0.012969	-0.461914	0.551758	-0.105957	0.661845	-0.527975	-0.456590	-0.273367
53467		8.796335	-4.338129	0.259329	0.013594	-0.011177	-0.012970	-0.459473	0.542969	-0.121582	0.661779	-0.528082	-0.456488	-0.273490
53468		8.783990	-4.377025	0.268517	0.005374	-0.004940	-0.011853	-0.463135	0.545166	-0.118652	0.661789	-0.528092	-0.456465	-0.273485
53469		8.776628	-4.405979	0.260557	0.009668	-0.005619	-0.012064	-0.464111	0.552246	-0.117920	0.661802	-0.528087	-0.456454	-0.273482
53470		8.791998	-4.383963	0.276309	0.015126	-0.006063	-0.013325	-0.469238	0.540039	-0.119873	0.661815	-0.528096	-0.456403	-0.273517
53471		8.759628	-4.379831	0.304937	0.018904	-0.007578	-0.016660	-0.467285	0.541016	-0.123779	0.661877	-0.527945	-0.456551	-0.273411
53472		8.754104	-4.376625	0.365357	0.020795	-0.006706	-0.015985	-0.465088	0.545166	-0.115723	0.661963	-0.527785	-0.456685	-0.273289
53473		8.795229	-4.334659	0.387368	0.007231	-0.005572	-0.014712	-0.458008	0.539307	-0.121338	0.661947	-0.527791	-0.456678	-0.273327
53474		8.782198	-4.393713	0.396770	0.002420	-0.005734	-0.017625	-0.466797	0.543945	-0.121338	0.661932	-0.527785	-0.456694	-0.273349
53475		8.761944	-4.421320	0.372459	0.010419	-0.011762	-0.017359	-0.452881	0.552002	-0.120361	0.661930	-0.527728	-0.456792	-0.273299
53476		8.777075	-4.367986	0.293477	0.010725	-0.015743	-0.018703	-0.466309	0.537354	-0.108887	0.661872	-0.527817	-0.456729	-0.273374
53477		8.806761	-4.335791	0.255645	-0.002345	-0.006160	-0.018168	-0.459961	0.541016	-0.114502	0.661795	-0.527839	-0.456764	-0.273459
53478		8.824602	-4.313138	0.295410	-0.007071	-0.005084	-0.015172	-0.464355	0.541260	-0.114746	0.661716	-0.527930	-0.456709	-0.273566
53479		8.771896	-4.360004	0.324778	0.000547	-0.005107	-0.014780	-0.467529	0.537354	-0.116943	0.661678	-0.527954	-0.456707	-0.273616
53480		8.775728	-4.347879	0.281495	0.013984	-0.009805	-0.014623	-0.464600	0.548340	-0.112793	0.661705	-0.527856	-0.456833	-0.273529
53481		8.823288	-4.306949	0.243082	0.008680	-0.004290	-0.011266	-0.460693	0.548584	-0.123047	0.661688	-0.527907	-0.456756	-0.273600
53482		8.801131	-4.365994	0.287726	-0.006266	0.002649	-0.012564	-0.467773	0.543945	-0.118164	0.661668	-0.527988	-0.456631	-0.273701
53483		8.748316	-4.413176	0.318215	-0.004911	0.004445	-0.013849	-0.466064	0.542236	-0.121582	0.661657	-0.528003	-0.456582	-0.273781
53484		8.765957	-4.390850	0.359116	0.001683	-0.003111	-0.014677	-0.462158	0.541748	-0.121094	0.661661	-0.527975	-0.456611	-0.273775
53485		8.769829	-4.378610	0.316146	0.002574	-0.002414	-0.016713	-0.462158	0.542969	-0.121582	0.661661	-0.527957	-0.456617	-0.273802
53486		8.783159	-4.356087	0.306299	0.003326	-0.003535	-0.016144	-0.456787	0.544922	-0.113037	0.661661	-0.527945	-0.456619	-0.273822
53487		8.808880	-4.354816	0.312510	-0.001067	0.000914	-0.015982	-0.466797	0.548340	-0.109375	0.661610	-0.528040	-0.456481	-0.273991
53488		8.800126	-4.372572	0.347667	0.001773	0.002228	-0.014964	-0.461914	0.537598	-0.116211	0.661569	-0.528102	-0.456371	-0.274153
53489		8.770862	-4.399829	0.359503	0.020012	-0.005545	-0.016600	-0.461670	0.544922	-0.124512	0.661623	-0.527994	-0.456443	-0.274111
53490		8.811923	-4.306542	0.288092	0.019680	-0.008921	-0.013765	-0.465088	0.543701	-0.117432	0.661686	-0.527916	-0.456494	-0.274026
53491		8.795017	-4.355232	0.315395	0.001382	-0.000894	-0.014506	-0.465576	0.538086	-0.112549	0.661674	-0.527927	-0.456463	-0.274084
53492		8.756277	-4.392944	0.293610	0.006912	-0.003342	-0.014565	-0.465576	0.548584	-0.110352	0.661670	-0.527898	-0.456487	-0.274110
53493		8.812454	-4.309867	0.331016	0.004646	0.000019	-0.016279	-0.455566	0.532959	-0.119385	0.661630	-0.527952	-0.456390	-0.274263
53494		8.837150	-4.329414	0.337661	-0.006553	0.003095	-0.013557	-0.462646	0.542725	-0.117920	0.661622	-0.527974	-0.456342	-0.274321
53495		8.768840	-4.376387	0.327020	-0.004852	0.002414	-0.012649	-0.466064	0.542480	-0.114502	0.661600	-0.528025	-0.456262	-0.274409
53496		8.746634	-4.393938	0.345908	0.000723	-0.003552	-0.015032	-0.457275	0.541016	-0.120117	0.661566	-0.528045	-0.456250	-0.274472
53497		8.770954	-4.372212	0.326167	0.006819	-0.008676	-0.014288	-0.473633	0.550781	-0.114746	0.661557	-0.528058	-0.456248	-0.274472
53498		8.784621	-4.391065	0.341568	-0.003925	-0.000412	-0.017014	-0.468750	0.548828	-0.125488	0.661501	-0.528099	-0.456207	-0.274595
53499		8.756389	-4.397662	0.352285	0.003119	-0.005094	-0.015932	-0.457764	0.545654	-0.113281	0.661506	-0.528073	-0.456238	-0.274582
53500		8.754536	-4.415967	0.326468	0.008210	-0.010397	-0.017906	-0.458252	0.536377	-0.124512	0.661449	-0.528135	-0.456191	-0.274679
53501		8.772052	-4.403653	0.298461	0.012544	-0.014579	-0.020454	-0.469971	0.536865	-0.117676	0.661460	-0.528045	-0.456333	-0.274589
53502		8.822485	-4.299512	0.258649	0.006963	-0.008617	-0.018072	-0.469482	0.544189	-0.121582	0.661459	-0.527955	-0.456471	-0.274537
53503		8.819428	-4.348181	0.301144	0.008369	-0.007076	-0.016984	-0.465332	0.539551	-0.113525	0.661471	-0.527889	-0.456551	-0.274502
53504		8.838456	-4.294734	0.273491	0.022294	-0.012393	-0.017257	-0.466064	0.543945	-0.117188	0.661492	-0.527798	-0.456653	-0.274455
53505		8.835525	-4.281814	0.290917	0.014566	-0.003590	-0.011828	-0.458496	0.538574	-0.114258	0.661533	-0.527754	-0.456653	-0.274440
53506		8.806724	-4.350903	0.328486	0.010673	-0.001574	-0.013237	-0.462402	0.540771	-0.112793	0.661550	-0.527749	-0.456608	-0.274485
53507		8.780503	-4.357903	0.365311	0.009325	-0.003372	-0.011948	-0.456787	0.538818	-0.114990	0.661550	-0.527760	-0.456568	-0.274530
53508		8.784531	-4.387580	0.348086	0.008272	-0.007390	-0.010839	-0.465576	0.545166	-0.115479	0.661540	-0.527797	-0.456527	-0.274550
53509		8.752677	-4.425280	0.401611	0.010902	-0.010893	-0.014299	-0.468994	0.544678	-0.114014	0.661520	-0.527803	-0.456546	-0.274558
53510		8.788877	-4.383415	0.371736	0.023288	-0.019557	-0.013057	-0.463379	0.545654	-0.123779	0.661523	-0.527749	-0.456658	-0.274466
53511		8.809907	-4.330311	0.368148	0.013483	-0.018229	-0.013935	-0.464355	0.544434	-0.114014	0.661519	-0.527728	-0.456746	-0.274370
53512		8.807765	-4.358530	0.409053	0.013333	-0.023311	-0.016033	-0.465576	0.540283	-0.116211	0.661452	-0.527753	-0.456833	-0.274339
53513		8.802992	-4.335909	0.330528	0.017911	-0.026185	-0.016446	-0.457031	0.539795	-0.116455	0.661414	-0.527711	-0.457005	-0.274225
53514		8.816229	-4.365699	0.276445	0.015676	-0.021325	-0.014620	-0.468994	0.541504	-0.124512	0.661380	-0.527723	-0.457074	-0.274170
53515		8.813470	-4.343313	0.223806	0.013739	-0.018685	-0.012972	-0.465332	0.548096	-0.115723	0.661398	-0.527641	-0.457243	-0.274002
53516		8.814565	-4.331842	0.154523	0.010181	-0.010032	-0.012515	-0.459717	0.546631	-0.115479	0.661376	-0.527676	-0.457219	-0.274026
53517		8.829580	-4.319284	0.237509	0.001477	-0.003185	-0.010945	-0.472412	0.534668	-0.120361	0.661341	-0.527773	-0.457098	-0.274126
53518		8.822224	-4.305888	0.339933	0.006019	-0.002532	-0.009029	-0.461670	0.532471	-0.117188	0.661398	-0.527669	-0.457206	-0.274007
53519		8.810003	-4.293289	0.391864	0.010272	-0.007013	-0.005429	-0.467529	0.540283	-0.125000	0.661441	-0.527635	-0.457245	-0.273906
53520		8.823905	-4.292763	0.407052	0.006279	-0.008580	-0.005378	-0.461426	0.540771	-0.114502	0.661485	-0.527597	-0.457310	-0.273763
53521		8.767924	-4.362514	0.411786	-0.000987	-0.009306	-0.002376	-0.456299	0.545166	-0.113037	0.661445	-0.527713	-0.457236	-0.273760
53522		8.749210	-4.392394	0.411954	0.003721	-0.017717	-0.003900	-0.461670	0.545654	-0.119385	0.661371	-0.527877	-0.457146	-0.273772
53523		8.770343	-4.424685	0.323115	0.004873	-0.017478	-0.004964	-0.466553	0.543457	-0.121582	0.661334	-0.527965	-0.457138	-0.273704
53524		8.790619	-4.363435	0.250155	0.002878	-0.021938	-0.004188	-0.471924	0.544678	-0.125000	0.661295	-0.528022	-0.457216	-0.273561
53525		8.837763	-4.302910	0.208763	0.000751	-0.013504	-0.003803	-0.468750	0.542480	-0.120361	0.661298	-0.528030	-0.457293	-0.273410
53526		8.858580	-4.292708	0.230667	-0.007020	-0.004456	-0.000720	-0.460938	0.543457	-0.119385	0.661289	-0.528102	-0.457256	-0.273356
53527		8.800721	-4.352138	0.278070	-0.000752	-0.006237	0.000933	-0.460693	0.541748	-0.115234	0.661291	-0.528201	-0.457168	-0.273306
53528		8.806227	-4.383507	0.285730	0.009231	-0.005994	0.001547	-0.459229	0.536133	-0.113770	0.661324	-0.528261	-0.457087	-0.273246
53529		8.761034	-4.402055	0.323932	0.007732	-0.005524	-0.000756	-0.466797	0.540771	-0.121826	0.661349	-0.528302	-0.457034	-0.273193
53530		8.739789	-4.441904	0.368355	0.008990	-0.009062	-0.001767	-0.459961	0.550537	-0.119141	0.661401	-0.528278	-0.457078	-0.273041
53531		8.740075	-4.431834	0.299293	0.002758	-0.010807	-0.005748	-0.459473	0.546387	-0.112061	0.661372	-0.528384	-0.457000	-0.273034
53532		8.797620	-4.401891	0.317534	-0.002681	-0.010396	-0.004449	-0.470703	0.540771	-0.117188	0.661300	-0.528545	-0.456885	-0.273091
53533		8.778314	-4.390088	0.292184	-0.001394	-0.010107	-0.009292	-0.465332	0.543945	-0.121826	0.661269	-0.528555	-0.456949	-0.273040
53534		8.825021	-4.349367	0.252307	-0.003776	-0.002981	-0.011050	-0.462891	0.541016	-0.122803	0.661260	-0.528574	-0.456942	-0.273034
53535		8.772663	-4.387745	0.214764	0.000973	-0.002528	-0.010539	-0.467773	0.539307	-0.120850	0.661283	-0.528558	-0.456953	-0.272992
53536		8.766599	-4.457880	0.233163	0.011777	-0.003095	-0.015526	-0.465576	0.544189	-0.125488	0.661338	-0.528442	-0.457046	-0.272928
53537		8.739911	-4.413725	0.176591	0.014542	-0.001512	-0.016905	-0.469238	0.551270	-0.113770	0.661419	-0.528312	-0.457123	-0.272854
53538		8.780611	-4.371245	0.198850	-0.001039	0.007714	-0.012767	-0.467529	0.537598	-0.121094	0.661413	-0.528357	-0.456994	-0.272999
53539		8.807589	-4.328831	0.205944	-0.015168	0.020549	-0.012545	-0.465332	0.542480	-0.114990	0.661447	-0.528342	-0.456889	-0.273120
53540		8.784062	-4.407186	0.363683	-0.020611	0.020957	-0.011249	-0.458252	0.534180	-0.115234	0.661424	-0.528437	-0.456675	-0.273350
53541		8.758056	-4.414151	0.401750	0.002897	0.007780	-0.016374	-0.469727	0.543701	-0.113281	0.661451	-0.528401	-0.456623	-0.273443
53542		8.771106	-4.391473	0.392987	0.009500	0.000261	-0.017236	-0.451904	0.540283	-0.120361	0.661461	-0.528351	-0.456625	-0.273512
53543		8.777112	-4.378891	0.375973	-0.002970	0.003556	-0.018161	-0.463623	0.535156	-0.116699	0.661453	-0.528377	-0.456546	-0.273611
53544		8.758017	-4.438509	0.310548	-0.016389	0.006404	-0.019423	-0.461182	0.540039	-0.118164	0.661391	-0.528411	-0.456505	-0.273763
53545		8.761700	-4.426121	0.267503	-0.008876	0.002858	-0.017617	-0.467041	0.538574	-0.116943	0.661352	-0.528445	-0.456457	-0.273874
53546		8.775041	-4.402925	0.257345	0.003303	-0.005008	-0.023561	-0.460205	0.547119	-0.117676	0.661322	-0.528382	-0.456542	-0.273926
53547		8.801085	-4.338395	0.237133	0.005192	-0.004119	-0.022892	-0.466309	0.541016	-0.107910	0.661295	-0.528375	-0.456534	-0.274017
53548		8.791623	-4.334556	0.246886	0.008396	0.000335	-0.022353	-0.471436	0.545410	-0.119385	0.661263	-0.528354	-0.456508	-0.274179
53549		8.819316	-4.343239	0.211290	0.010638	0.000516	-0.018314	-0.466309	0.550781	-0.113770	0.661304	-0.528257	-0.456555	-0.274189
53550		8.841185	-4.330571	0.235852	0.016331	0.001424	-0.017466	-0.464844	0.543213	-0.125488	0.661337	-0.528217	-0.456500	-0.274276
53551		8.813712	-4.316679	0.248794	0.009209	0.011355	-0.015029	-0.460693	0.540527	-0.121094	0.661448	-0.528096	-0.456485	-0.274267
53552		8.815784	-4.355567	0.276980	-0.001192	0.017081	-0.015518	-0.460693	0.542236	-0.119873	0.661513	-0.528053	-0.456376	-0.274376
53553		8.760487	-4.371820	0.327207	-0.007320	0.018340	-0.012406	-0.466064	0.546631	-0.120850	0.661553	-0.528070	-0.456212	-0.274518
53554		8.751977	-4.389801	0.364526	0.000995	0.015755	-0.015031	-0.467773	0.541016	-0.117676	0.661617	-0.528028	-0.456105	-0.274624
53555		8.753713	-4.366767	0.366409	0.008280	0.009151	-0.016536	-0.460205	0.537354	-0.114258	0.661675	-0.527944	-0.456075	-0.274694
53556		8.791168	-4.344878	0.364680	0.009320	0.007582	-0.014981	-0.460205	0.536377	-0.114502	0.661718	-0.527905	-0.456001	-0.274789
53557		8.801672	-4.332026	0.399099	-0.000942	0.007761	-0.016588	-0.463623	0.538574	-0.109619	0.661715	-0.527910	-0.455917	-0.274928
53558		8.766386	-4.358793	0.471294	-0.003304	0.001937	-0.014169	-0.463623	0.541992	-0.114014	0.661659	-0.527980	-0.455817	-0.275092
53559		8.758519	-4.419552	0.396054	-0.000302	-0.004028	-0.015437	-0.459473	0.536865	-0.120850	0.661609	-0.528027	-0.455777	-0.275188
53560		8.775656	-4.407495	0.368163	0.001377	-0.007968	-0.019250	-0.457764	0.548828	-0.121582	0.661582	-0.528006	-0.455838	-0.275193
53561		8.791860	-4.363442	0.381896	-0.008606	-0.008250	-0.019872	-0.468750	0.544678	-0.115234	0.661497	-0.528095	-0.455804	-0.275282
53562		8.776841	-4.381506	0.339209	0.005036	-0.016855	-0.017330	-0.470459	0.535889	-0.117676	0.661424	-0.528117	-0.455878	-0.275293
53563		8.799320	-4.319501	0.156545	0.022590	-0.019794	-0.021081	-0.457764	0.547119	-0.109863	0.661433	-0.527969	-0.456105	-0.275178
53564		8.794437	-4.407573	0.309552	-0.003769	-0.009799	-0.018139	-0.459473	0.551270	-0.120850	0.661312	-0.528115	-0.456005	-0.275356
53565		8.726839	-4.402352	0.340292	0.012612	-0.011214	-0.019662	-0.470459	0.542725	-0.121582	0.661303	-0.528106	-0.456023	-0.275364
53566		8.869388	-4.227718	0.315754	0.000389	-0.006655	-0.018435	-0.469971	0.541992	-0.117432	0.661282	-0.528066	-0.456103	-0.275359
53567		8.780465	-4.336294	0.349895	-0.001830	-0.007395	-0.013915	-0.470215	0.531494	-0.109619	0.661239	-0.528085	-0.456132	-0.275379
53568		8.775753	-4.385581	0.366725	0.026918	-0.022726	-0.013942	-0.460205	0.542480	-0.114990	0.661238	-0.527984	-0.456316	-0.275269
53569		8.851633	-4.251793	0.288761	0.042084	-0.029714	-0.014128	-0.462402	0.542236	-0.119629	0.661285	-0.527872	-0.456491	-0.275080
53570		8.784760	-4.288840	0.344918	0.004363	-0.016548	-0.006956	-0.467773	0.540527	-0.121094	0.661256	-0.527924	-0.456524	-0.274996
53571		8.761967	-4.401425	0.321484	0.020534	-0.017748	-0.007097	-0.463867	0.539062	-0.113770	0.661306	-0.527847	-0.456653	-0.274808
53572		8.789511	-4.317972	0.324542	0.027096	-0.030577	-0.007680	-0.472656	0.544922	-0.114746	0.661297	-0.527823	-0.456801	-0.274630
53573		8.799076	-4.326924	0.355242	0.023547	-0.029295	-0.005706	-0.464111	0.540039	-0.110596	0.661285	-0.527806	-0.456947	-0.274450
53574		8.791563	-4.377532	0.345441	0.018995	-0.029977	-0.007621	-0.461670	0.532715	-0.116699	0.661227	-0.527850	-0.457044	-0.274344
53575		8.751393	-4.406069	0.363593	0.010706	-0.029174	-0.006144	-0.464111	0.544678	-0.117432	0.661177	-0.527876	-0.457189	-0.274171
53576		8.736103	-4.405153	0.319183	0.015201	-0.031771	-0.008972	-0.472412	0.543213	-0.119141	0.661122	-0.527911	-0.457321	-0.274015
53577		8.790929	-4.394580	0.310074	0.002078	-0.027380	-0.014228	-0.465332	0.541992	-0.122070	0.661030	-0.527935	-0.457491	-0.273910
53578		8.739776	-4.412506	0.269504	0.009190	-0.026660	-0.013487	-0.461914	0.539795	-0.121826	0.660986	-0.527922	-0.457662	-0.273753
53579		8.768260	-4.440052	0.365321	0.006618	-0.035271	-0.020572	-0.460938	0.550049	-0.121582	0.660883	-0.527922	-0.457898	-0.273610
53580		8.721739	-4.394596	0.348307	0.039254	-0.045446	-0.018464	-0.455322	0.537842	-0.117188	0.660878	-0.527821	-0.458193	-0.273322
53581		8.831570	-4.323048	0.264305	0.029553	-0.044151	-0.023084	-0.461670	0.538086	-0.109131	0.660812	-0.527756	-0.458480	-0.273126
53582		8.793651	-4.411107	0.307540	0.024040	-0.047340	-0.020311	-0.470703	0.543945	-0.117676	0.660677	-0.527773	-0.458726	-0.273004
53583		8.785012	-4.313549	0.352535	0.017193	-0.048517	-0.020074	-0.479980	0.539062	-0.121338	0.660550	-0.527759	-0.459046	-0.272800
53584		8.801804	-4.344610	0.210056	0.030472	-0.049277	-0.020140	-0.462646	0.548584	-0.111572	0.660506	-0.527590	-0.459505	-0.272462
53585		8.826764	-4.330823	0.253071	0.029911	-0.053954	-0.019455	-0.467285	0.546631	-0.114990	0.660379	-0.527615	-0.459766	-0.272282
53586		8.811446	-4.245755	0.180433	0.034478	-0.044110	-0.021731	-0.462891	0.541748	-0.116943	0.660325	-0.527533	-0.460055	-0.272084
53587		8.917095	-4.246433	0.139813	0.010094	-0.033561	-0.011717	-0.465576	0.543945	-0.111328	0.660241	-0.527583	-0.460203	-0.271941
53588		8.798383	-4.326603	0.048305	0.005468	-0.023378	-0.012774	-0.469727	0.532227	-0.113770	0.660144	-0.527669	-0.460249	-0.271931
53589		8.823358	-4.346201	0.052364	0.013488	-0.016893	-0.008224	-0.461426	0.546143	-0.123047	0.660144	-0.527628	-0.460364	-0.271815
53590		8.830596	-4.355264	0.059896	0.021675	-0.006804	-0.008934	-0.462891	0.545898	-0.111084	0.660247	-0.527542	-0.460400	-0.271671
53591		8.811214	-4.320461	0.147507	0.028195	-0.003401	-0.009031	-0.464844	0.547363	-0.119873	0.660332	-0.527491	-0.460348	-0.271653
53592		8.858982	-4.226627	0.176620	0.017112	0.008437	-0.004085	-0.463379	0.541992	-0.112061	0.660466	-0.527432	-0.460252	-0.271604
53593		8.832741	-4.285558	0.285255	-0.013537	0.024514	0.000513	-0.465332	0.540527	-0.116211	0.660502	-0.527560	-0.459939	-0.271796
53594		8.766908	-4.386056	0.373009	-0.017406	0.020907	0.001825	-0.469238	0.554199	-0.110840	0.660534	-0.527680	-0.459681	-0.271922
53595		8.741308	-4.426929	0.369281	-0.015266	0.012767	-0.004779	-0.461914	0.544678	-0.108154	0.660491	-0.527858	-0.459412	-0.272137
53596		8.749511	-4.447891	0.335278	-0.008669	0.005291	-0.005698	-0.459473	0.547119	-0.115479	0.660440	-0.528019	-0.459197	-0.272312
53597		8.734118	-4.426780	0.293796	-0.012918	0.002376	-0.007766	-0.467773	0.545654	-0.120605	0.660386	-0.528172	-0.459025	-0.272435
53598		8.751221	-4.424808	0.333688	-0.016128	-0.000053	-0.013307	-0.464111	0.541748	-0.112305	0.660327	-0.528252	-0.458975	-0.272508
53599		8.813428	-4.332456	0.264831	-0.006992	-0.003955	-0.013054	-0.473389	0.543457	-0.120605	0.660258	-0.528342	-0.458911	-0.272609
53600		8.812055	-4.383825	0.197065	-0.007006	-0.002189	-0.011884	-0.459717	0.541504	-0.114990	0.660240	-0.528347	-0.458933	-0.272604
53601		8.781248	-4.341489	0.113845	0.003940	-0.006709	-0.014538	-0.466064	0.539795	-0.114014	0.660218	-0.528375	-0.458913	-0.272638
53602		8.846036	-4.299025	0.140507	0.006613	0.003722	-0.010087	-0.455566	0.543945	-0.117676	0.660257	-0.528355	-0.458860	-0.272671
53603		8.801861	-4.337189	0.181291	-0.006748	0.013573	-0.010357	-0.471191	0.543701	-0.114746	0.660282	-0.528421	-0.458671	-0.272800
53604		8.768301	-4.396412	0.213157	-0.000090	0.011438	-0.011565	-0.462158	0.545898	-0.113281	0.660319	-0.528406	-0.458578	-0.272896
53605		8.788523	-4.372972	0.280647	0.004361	0.012382	-0.012076	-0.469727	0.542236	-0.113281	0.660364	-0.528418	-0.458422	-0.273027
53606		8.808180	-4.319964	0.279683	-0.001533	0.013409	-0.010306	-0.460938	0.548340	-0.111084	0.660399	-0.528421	-0.458298	-0.273145
53607		8.813659	-4.338353	0.332290	-0.015144	0.018126	-0.008888	-0.463379	0.539795	-0.118652	0.660373	-0.528569	-0.458015	-0.273394
53608		8.745591	-4.408419	0.325121	-0.015789	0.015457	-0.009406	-0.467773	0.548096	-0.118652	0.660379	-0.528628	-0.457864	-0.273519
53609		8.724437	-4.479373	0.304098	0.001776	0.003477	-0.012963	-0.459961	0.547852	-0.117920	0.660402	-0.528622	-0.457811	-0.273563
53610		8.771261	-4.396009	0.264206	0.011622	-0.004812	-0.016873	-0.461426	0.539307	-0.114502	0.660420	-0.528601	-0.457799	-0.273580
53611		8.813632	-4.322571	0.241932	0.003967	0.002165	-0.012489	-0.463867	0.547607	-0.119629	0.660436	-0.528602	-0.457742	-0.273635
53612		8.843654	-4.311003	0.231044	-0.010932	0.012452	-0.015080	-0.457764	0.537109	-0.119141	0.660435	-0.528646	-0.457608	-0.273778
53613		8.818142	-4.318141	0.269149	-0.008947	0.013114	-0.012025	-0.464111	0.545410	-0.124756	0.660458	-0.528670	-0.457484	-0.273881
53614		8.788694	-4.388157	0.283308	0.002219	0.006355	-0.011045	-0.460449	0.540527	-0.116699	0.660527	-0.528627	-0.457446	-0.273862
53615		8.780246	-4.376645	0.251179	0.011847	0.001810	-0.011201	-0.462891	0.545410	-0.112793	0.660587	-0.528586	-0.457407	-0.273863
53616		8.811209	-4.303358	0.239428	-0.005523	0.011804	-0.010233	-0.465332	0.539795	-0.114014	0.660588	-0.528657	-0.457228	-0.274022
53617		8.781635	-4.373698	0.253924	-0.016424	0.019877	-0.009060	-0.464111	0.537354	-0.114746	0.660587	-0.528734	-0.457024	-0.274215
53618		8.798070	-4.392622	0.296573	-0.013618	0.014134	-0.008950	-0.460693	0.547607	-0.115967	0.660582	-0.528799	-0.456871	-0.274359
53619		8.815276	-4.370079	0.338249	-0.002386	0.010949	-0.009427	-0.460205	0.537598	-0.114990	0.660607	-0.528853	-0.456703	-0.274474
53620		8.772586	-4.419583	0.336417	0.006031	0.004639	-0.012067	-0.462158	0.538330	-0.117432	0.660645	-0.528832	-0.456642	-0.274523
53621		8.778967	-4.345732	0.318324	0.008841	-0.001103	-0.011954	-0.460938	0.545898	-0.116699	0.660684	-0.528790	-0.456642	-0.274509
53622		8.812889	-4.345202	0.289916	0.000922	0.002784	-0.010908	-0.469482	0.548340	-0.113770	0.660694	-0.528827	-0.456547	-0.274572
53623		8.795898	-4.333101	0.292021	0.000537	0.003196	-0.008090	-0.466064	0.546387	-0.125977	0.660698	-0.528872	-0.456446	-0.274645
53624		8.789174	-4.362911	0.285302	0.003407	0.001025	-0.009440	-0.465332	0.545898	-0.118652	0.660759	-0.528829	-0.456448	-0.274578
53625		8.781360	-4.360764	0.320440	0.007145	-0.002496	-0.007823	-0.460693	0.545898	-0.115234	0.660794	-0.528826	-0.456418	-0.274548
53626		8.789583	-4.307858	0.327377	0.008379	-0.002492	-0.006503	-0.473389	0.546875	-0.116455	0.660820	-0.528860	-0.456340	-0.274550
53627		8.843327	-4.318448	0.322050	-0.020583	0.007545	-0.004598	-0.468994	0.539307	-0.120605	0.660769	-0.528988	-0.456196	-0.274666
53628		8.738550	-4.450817	0.317868	-0.018196	0.006031	-0.005530	-0.460449	0.547363	-0.112305	0.660746	-0.529062	-0.456117	-0.274711
53629		8.744616	-4.471787	0.257756	0.007474	-0.006475	-0.009178	-0.466309	0.536133	-0.117432	0.660733	-0.529121	-0.456046	-0.274745
53630		8.770700	-4.429215	0.262634	0.013659	-0.007939	-0.009954	-0.462646	0.543457	-0.117188	0.660776	-0.529051	-0.456118	-0.274660
53631		8.771903	-4.406797	0.262147	0.016410	-0.008099	-0.012534	-0.462646	0.550781	-0.111816	0.660815	-0.528998	-0.456154	-0.274606
53632		8.782835	-4.373146	0.294733	0.011895	-0.003474	-0.014723	-0.467285	0.545654	-0.118652	0.660816	-0.529013	-0.456092	-0.274678
53633		8.766213	-4.360318	0.296717	0.013609	-0.004125	-0.013825	-0.467041	0.554932	-0.118164	0.660860	-0.528946	-0.456126	-0.274644
53634		8.756254	-4.357776	0.306524	0.014879	-0.007653	-0.014851	-0.470215	0.545166	-0.113037	0.660884	-0.528914	-0.456139	-0.274627
53635		8.782459	-4.334846	0.312068	0.018109	-0.008468	-0.017855	-0.461426	0.552246	-0.116455	0.660897	-0.528842	-0.456199	-0.274634
53636		8.798658	-4.343774	0.285001	0.006422	-0.006689	-0.011918	-0.460693	0.544922	-0.114258	0.660887	-0.528887	-0.456147	-0.274658
53637		8.778931	-4.352581	0.261475	0.002006	-0.002310	-0.011705	-0.460449	0.541748	-0.115967	0.660870	-0.528937	-0.456076	-0.274721
53638		8.815180	-4.372153	0.258134	0.004856	-0.002712	-0.011886	-0.466797	0.544922	-0.116699	0.660874	-0.528949	-0.456040	-0.274746
53639		8.795477	-4.380900	0.235191	0.010728	-0.001954	-0.012487	-0.470215	0.544434	-0.115723	0.660908	-0.528911	-0.456036	-0.274747
53640		8.795429	-4.326499	0.277273	0.007666	0.000421	-0.009725	-0.458496	0.543213	-0.112305	0.660940	-0.528887	-0.456010	-0.274758
53641		8.781689	-4.387188	0.263407	0.005797	-0.002257	-0.011559	-0.464600	0.538086	-0.119385	0.660932	-0.528930	-0.455931	-0.274826
53642		8.732903	-4.405797	0.252405	0.010223	0.000470	-0.010898	-0.465332	0.548340	-0.117432	0.660993	-0.528860	-0.455946	-0.274788
53643		8.752204	-4.423783	0.319573	0.018843	-0.006308	-0.008744	-0.467773	0.543701	-0.114258	0.661054	-0.528815	-0.455949	-0.274724
53644		8.751953	-4.389863	0.362001	0.027034	-0.010353	-0.015028	-0.463623	0.543457	-0.121826	0.661111	-0.528705	-0.456031	-0.274662
53645		8.800344	-4.347107	0.347969	0.022103	-0.010658	-0.014100	-0.466797	0.543701	-0.118408	0.661179	-0.528594	-0.456133	-0.274543
53646		8.814340	-4.315438	0.295091	0.014165	-0.005020	-0.011874	-0.464355	0.545654	-0.113770	0.661223	-0.528534	-0.456163	-0.274500
53647		8.811747	-4.376414	0.271623	0.006249	-0.001150	-0.010817	-0.467529	0.541748	-0.124023	0.661227	-0.528559	-0.456097	-0.274555
53648		8.751996	-4.394645	0.270253	0.014813	-0.004115	-0.012539	-0.466553	0.541016	-0.121826	0.661302	-0.528448	-0.456177	-0.274454
53649		8.806995	-4.342005	0.264101	0.014122	-0.001483	-0.009537	-0.468994	0.545654	-0.119629	0.661381	-0.528361	-0.456210	-0.274374
53650		8.820643	-4.310970	0.211985	0.000076	0.007405	-0.009162	-0.472656	0.544922	-0.125000	0.661420	-0.528356	-0.456135	-0.274417
53651		8.819136	-4.339967	0.256782	-0.010265	0.016319	-0.004828	-0.465576	0.544434	-0.120117	0.661481	-0.528357	-0.456023	-0.274454
53652		8.767478	-4.430884	0.291446	-0.000257	0.011389	-0.007812	-0.458740	0.547363	-0.117188	0.661539	-0.528353	-0.455913	-0.274505
53653		8.761634	-4.398619	0.284769	0.020308	0.004174	-0.009451	-0.466309	0.544189	-0.120117	0.661640	-0.528294	-0.455839	-0.274497
53654		8.770536	-4.418700	0.252642	0.028388	0.001868	-0.010754	-0.467041	0.541016	-0.120117	0.661780	-0.528141	-0.455863	-0.274415
53655		8.751922	-4.415561	0.299385	0.010275	0.009369	-0.012696	-0.460693	0.544678	-0.117188	0.661863	-0.528054	-0.455825	-0.274443
53656		8.714960	-4.463722	0.349259	0.006527	0.012876	-0.014319	-0.462891	0.549072	-0.121582	0.661925	-0.528022	-0.455707	-0.274553
53657		8.742347	-4.407892	0.423965	0.007887	0.009378	-0.019158	-0.455811	0.544434	-0.115479	0.661985	-0.527952	-0.455655	-0.274628
53658		8.759319	-4.374814	0.397490	0.008659	0.001172	-0.019453	-0.462158	0.535889	-0.118164	0.661991	-0.527941	-0.455597	-0.274731
53659		8.796868	-4.330987	0.393127	0.003589	-0.002468	-0.019447	-0.463623	0.536621	-0.121582	0.661977	-0.527907	-0.455622	-0.274791
53660		8.810992	-4.319375	0.340189	-0.006087	-0.001531	-0.017817	-0.463379	0.544189	-0.113281	0.661942	-0.527907	-0.455639	-0.274847
53661		8.792962	-4.359905	0.274519	-0.014195	0.002537	-0.015351	-0.464111	0.542480	-0.119141	0.661851	-0.528028	-0.455514	-0.275040
53662		8.724511	-4.438992	0.308420	-0.009128	-0.000926	-0.016226	-0.459717	0.541992	-0.122803	0.661796	-0.528080	-0.455477	-0.275134
53663		8.802402	-4.409455	0.172155	0.023481	-0.008787	-0.019258	-0.469482	0.536377	-0.114990	0.661865	-0.527945	-0.455584	-0.275048
53664		8.810652	-4.331139	0.288932	0.005946	-0.002203	-0.019220	-0.470703	0.544434	-0.114990	0.661847	-0.527901	-0.455612	-0.275130
53665		8.793739	-4.359496	0.292273	0.000491	0.008780	-0.014656	-0.456055	0.552979	-0.120850	0.661853	-0.527900	-0.455521	-0.275268
53666		8.773565	-4.365298	0.380831	-0.004724	0.008911	-0.014713	-0.465088	0.541260	-0.121094	0.661862	-0.527953	-0.455377	-0.275383
53667		8.753316	-4.391633	0.469461	0.003533	0.001075	-0.017120	-0.464600	0.544434	-0.121094	0.661877	-0.527910	-0.455383	-0.275421
53668		8.815659	-4.306570	0.469610	0.014602	-0.010719	-0.018233	-0.467773	0.543457	-0.114258	0.661892	-0.527840	-0.455469	-0.275377
53669		8.826817	-4.337101	0.391810	-0.006761	-0.007781	-0.016861	-0.455566	0.539062	-0.116211	0.661795	-0.527919	-0.455448	-0.275492
53670		8.766174	-4.408618	0.321486	-0.017379	-0.007316	-0.015559	-0.465332	0.546631	-0.115234	0.661669	-0.528068	-0.455382	-0.275619
53671		8.774595	-4.460551	0.217626	-0.014136	-0.009893	-0.019747	-0.465332	0.544678	-0.121094	0.661530	-0.528189	-0.455358	-0.275759
53672		8.824990	-4.366376	0.157345	-0.008323	-0.005576	-0.018014	-0.467041	0.536621	-0.115479	0.661467	-0.528230	-0.455367	-0.275818
53673		8.830899	-4.312347	0.137711	-0.018088	0.006253	-0.019399	-0.464844	0.541992	-0.115967	0.661380	-0.528300	-0.455291	-0.276019
53674		8.806955	-4.306812	0.242856	-0.008453	0.014208	-0.018996	-0.469727	0.535889	-0.119629	0.661367	-0.528318	-0.455168	-0.276219
53675		8.808978	-4.333577	0.313168	0.010624	0.007219	-0.016722	-0.466064	0.546143	-0.122559	0.661436	-0.528201	-0.455184	-0.276251
53676		8.768499	-4.349927	0.379261	0.026579	-0.000701	-0.016432	-0.458740	0.540527	-0.124756	0.661555	-0.528036	-0.455250	-0.276173
53677		8.779034	-4.356975	0.414005	0.018348	-0.001751	-0.016067	-0.467773	0.540283	-0.122803	0.661647	-0.527911	-0.455309	-0.276093
53678		8.752189	-4.373060	0.494731	0.003970	0.002196	-0.016389	-0.468262	0.548340	-0.113770	0.661678	-0.527846	-0.455330	-0.276108
53679		8.748288	-4.371748	0.444379	-0.006249	0.000460	-0.019089	-0.471924	0.547852	-0.119385	0.661606	-0.527911	-0.455254	-0.276279
53680		8.792194	-4.379403	0.447678	-0.019185	-0.002895	-0.020371	-0.461670	0.539795	-0.119385	0.661488	-0.528003	-0.455230	-0.276428
53681		8.769062	-4.397139	0.440122	-0.008713	-0.012007	-0.022305	-0.465332	0.540771	-0.108154	0.661383	-0.528054	-0.455281	-0.276498
53682		8.782634	-4.376083	0.316722	0.009982	-0.025395	-0.024308	-0.467041	0.548340	-0.114990	0.661250	-0.528093	-0.455382	-0.276574
53683		8.838816	-4.323803	0.196734	0.017716	-0.023684	-0.024267	-0.468262	0.553223	-0.119629	0.661190	-0.528054	-0.455525	-0.276557
53684		8.847859	-4.312813	0.091868	0.013824	-0.016685	-0.019722	-0.460693	0.542480	-0.119629	0.661169	-0.528018	-0.455623	-0.276515
53685		8.825502	-4.339479	0.153994	0.012970	-0.004943	-0.017081	-0.475830	0.544678	-0.112793	0.661200	-0.527960	-0.455653	-0.276502
53686		8.803065	-4.345693	0.216920	0.023370	-0.003404	-0.015809	-0.469482	0.541504	-0.119629	0.661250	-0.527859	-0.455685	-0.276522
53687		8.816400	-4.289973	0.275514	0.027154	0.002010	-0.015979	-0.463379	0.544189	-0.119141	0.661370	-0.527688	-0.455736	-0.276477
53688		8.802063	-4.338822	0.306431	0.019958	0.008277	-0.011995	-0.458984	0.533936	-0.117188	0.661488	-0.527585	-0.455683	-0.276478
53689		8.797120	-4.355932	0.369622	0.019979	0.006508	-0.013172	-0.461182	0.545166	-0.117920	0.661590	-0.527481	-0.455648	-0.276492
53690		8.809190	-4.333257	0.361660	0.012448	0.008144	-0.016116	-0.468018	0.536865	-0.106689	0.661658	-0.527422	-0.455573	-0.276564
53691		8.741404	-4.392142	0.397526	0.005147	0.003975	-0.013922	-0.460449	0.543213	-0.122314	0.661631	-0.527458	-0.455460	-0.276746
53692		8.796036	-4.400430	0.392980	0.021154	-0.007446	-0.015993	-0.466797	0.547852	-0.117188	0.661697	-0.527359	-0.455525	-0.276669
53693		8.783742	-4.274048	0.374058	0.009651	-0.005685	-0.017660	-0.470459	0.543945	-0.127197	0.661690	-0.527342	-0.455528	-0.276714
53694		8.776459	-4.394945	0.412201	0.003106	-0.003849	-0.014028	-0.459717	0.544189	-0.119385	0.661715	-0.527288	-0.455589	-0.276657
53695		8.764015	-4.372340	0.395411	0.009653	-0.011019	-0.017352	-0.465576	0.541016	-0.118164	0.661701	-0.527279	-0.455625	-0.276650
53696		8.801027	-4.328456	0.389307	0.004282	-0.012472	-0.017156	-0.460449	0.543701	-0.116943	0.661651	-0.527289	-0.455676	-0.276664
53697		8.795547	-4.336469	0.380053	0.009978	-0.018567	-0.017225	-0.465088	0.540527	-0.125732	0.661599	-0.527309	-0.455739	-0.276648
53698		8.824635	-4.315486	0.297915	0.012020	-0.021414	-0.016506	-0.467773	0.540771	-0.115967	0.661587	-0.527251	-0.455910	-0.276507
53699		8.808040	-4.323445	0.297641	0.002514	-0.018969	-0.015094	-0.466309	0.545654	-0.116211	0.661500	-0.527302	-0.455975	-0.276509
53700		8.799851	-4.373836	0.263836	0.003950	-0.015594	-0.016679	-0.464111	0.541748	-0.116943	0.661430	-0.527344	-0.456014	-0.276531
53701		8.799753	-4.321855	0.192624	0.009092	-0.015721	-0.012807	-0.465576	0.541748	-0.112305	0.661396	-0.527364	-0.456061	-0.276499
53702		8.870347	-4.267306	0.225073	0.007271	-0.008006	-0.009012	-0.460205	0.547363	-0.115723	0.661371	-0.527415	-0.456015	-0.276534
53703		8.842286	-4.317404	0.237640	0.008851	-0.006635	-0.009354	-0.464355	0.546875	-0.112305	0.661372	-0.527460	-0.455956	-0.276544
53704		8.790764	-4.396866	0.313475	0.020190	-0.009940	-0.007465	-0.460938	0.535645	-0.122559	0.661399	-0.527467	-0.455924	-0.276519
53705		8.770864	-4.365150	0.289532	0.035854	-0.013789	-0.009707	-0.457764	0.535889	-0.113770	0.661526	-0.527300	-0.456061	-0.276308
53706		8.800301	-4.312192	0.276696	0.023989	-0.011624	-0.008515	-0.471924	0.536621	-0.114990	0.661571	-0.527265	-0.456076	-0.276242
53707		8.804797	-4.318508	0.370240	0.018252	-0.007326	-0.005783	-0.461426	0.537598	-0.123779	0.661618	-0.527219	-0.456099	-0.276181
53708		8.802748	-4.359622	0.346417	0.012443	-0.006341	-0.007811	-0.468018	0.537109	-0.111084	0.661677	-0.527170	-0.456134	-0.276074
53709		8.792190	-4.316858	0.354347	0.010848	-0.011275	-0.005980	-0.466797	0.541992	-0.121826	0.661657	-0.527212	-0.456116	-0.276073
53710		8.791292	-4.345739	0.396795	0.005786	-0.013177	-0.004771	-0.464355	0.553955	-0.117188	0.661657	-0.527237	-0.456149	-0.275970
53711		8.786405	-4.346444	0.344641	0.003144	-0.014783	-0.007171	-0.471436	0.543701	-0.122559	0.661608	-0.527341	-0.456111	-0.275951
53712		8.793754	-4.334925	0.349880	-0.002880	-0.015378	-0.005113	-0.469727	0.545654	-0.119873	0.661564	-0.527405	-0.456154	-0.275864
53713		8.780594	-4.355397	0.332497	-0.010133	-0.012434	-0.005864	-0.460938	0.532959	-0.119873	0.661485	-0.527525	-0.456137	-0.275852
53714		8.767600	-4.396395	0.315445	-0.007886	-0.017262	-0.007742	-0.462158	0.540283	-0.126221	0.661400	-0.527624	-0.456175	-0.275804
53715		8.772575	-4.426722	0.295897	-0.000279	-0.020628	-0.009838	-0.468506	0.540771	-0.109619	0.661357	-0.527654	-0.456286	-0.275665
53716		8.770617	-4.405329	0.266779	0.003207	-0.025431	-0.010398	-0.458008	0.543457	-0.109863	0.661234	-0.527766	-0.456332	-0.275668
53717		8.797467	-4.373688	0.225959	0.001630	-0.017906	-0.011855	-0.463379	0.542725	-0.116943	0.661133	-0.527893	-0.456300	-0.275721
53718		8.837686	-4.279468	0.199816	-0.000324	-0.008187	-0.009291	-0.460693	0.548828	-0.122070	0.661098	-0.527957	-0.456272	-0.275728
53719		8.854728	-4.277024	0.239511	-0.005591	-0.002774	-0.005790	-0.469482	0.533203	-0.121338	0.661090	-0.528041	-0.456194	-0.275717
53720		8.814148	-4.315884	0.304317	0.001798	-0.002382	-0.004118	-0.464844	0.545898	-0.121826	0.661122	-0.528028	-0.456204	-0.275648
53721		8.791344	-4.368626	0.257097	0.006228	-0.006719	-0.004353	-0.473633	0.540771	-0.118652	0.661155	-0.528042	-0.456193	-0.275559
53722		8.765834	-4.418771	0.295069	0.010156	-0.008630	-0.002987	-0.461426	0.541992	-0.122559	0.661186	-0.528030	-0.456219	-0.275464
53723		8.762184	-4.427830	0.312264	0.011471	-0.010360	-0.006681	-0.468018	0.543945	-0.110107	0.661228	-0.528008	-0.456260	-0.275340
53724		8.753122	-4.417370	0.278432	0.013706	-0.009851	-0.008875	-0.463867	0.539551	-0.115967	0.661218	-0.528033	-0.456235	-0.275356
53725		8.781444	-4.414621	0.308686	0.012500	-0.013420	-0.012551	-0.462646	0.541016	-0.121826	0.661209	-0.528020	-0.456288	-0.275314
53726		8.778274	-4.401855	0.324943	0.015799	-0.012675	-0.012005	-0.464844	0.548828	-0.110596	0.661245	-0.527958	-0.456377	-0.275199
53727		8.779238	-4.358147	0.322769	0.011937	-0.012522	-0.018387	-0.463135	0.544678	-0.108154	0.661198	-0.527979	-0.456384	-0.275263
53728		8.837671	-4.294128	0.296439	0.004919	-0.008271	-0.013114	-0.457031	0.540527	-0.120117	0.661138	-0.528059	-0.456317	-0.275365
53729		8.830169	-4.294885	0.220181	-0.008378	0.001169	-0.010911	-0.468262	0.538574	-0.120605	0.661116	-0.528126	-0.456239	-0.275417
53730		8.788914	-4.386949	0.218999	-0.004449	-0.000739	-0.009548	-0.467285	0.544434	-0.117920	0.661109	-0.528145	-0.456223	-0.275424
53731		8.769013	-4.375896	0.195564	0.011030	-0.000788	-0.011906	-0.465088	0.532959	-0.122070	0.661151	-0.528103	-0.456212	-0.275421
53732		8.799979	-4.351512	0.251867	0.009108	0.001824	-0.010204	-0.461914	0.543945	-0.118164	0.661221	-0.528024	-0.456234	-0.275370
53733		8.802088	-4.337484	0.320487	-0.005436	0.011233	-0.009321	-0.468018	0.542236	-0.113770	0.661244	-0.528066	-0.456093	-0.275468
53734		8.758233	-4.426857	0.406002	-0.006513	0.007433	-0.010578	-0.461914	0.542236	-0.120605	0.661223	-0.528128	-0.455967	-0.275605
53735		8.758967	-4.404394	0.405633	0.006328	-0.003120	-0.013531	-0.460693	0.545166	-0.120605	0.661245	-0.528103	-0.455974	-0.275590
53736		8.775020	-4.392682	0.378069	0.013295	-0.007382	-0.014971	-0.466309	0.548096	-0.116699	0.661278	-0.528052	-0.456014	-0.275542
53737		8.750173	-4.403153	0.304207	0.010512	-0.012328	-0.018300	-0.465576	0.539062	-0.109863	0.661252	-0.528036	-0.456068	-0.275545
53738		8.783887	-4.339199	0.272104	0.008108	-0.009065	-0.016173	-0.467285	0.543457	-0.113770	0.661204	-0.528059	-0.456064	-0.275624
53739		8.800220	-4.347900	0.244808	0.005729	-0.004013	-0.016710	-0.468994	0.539795	-0.116699	0.661180	-0.528062	-0.456050	-0.275699
53740		8.808067	-4.314070	0.251171	0.008259	-0.007504	-0.016423	-0.458252	0.541504	-0.122314	0.661169	-0.528028	-0.456098	-0.275711
53741		8.817722	-4.354228	0.217591	0.013112	-0.003604	-0.015051	-0.463623	0.536865	-0.118896	0.661224	-0.527957	-0.456132	-0.275659
53742		8.787668	-4.404486	0.206677	0.018924	-0.001009	-0.014534	-0.467529	0.545898	-0.119629	0.661299	-0.527849	-0.456168	-0.275625
53743		8.808893	-4.349571	0.229657	0.022374	0.001303	-0.014239	-0.467041	0.551025	-0.121094	0.661399	-0.527727	-0.456186	-0.275589
53744		8.782890	-4.365505	0.311943	0.019532	0.005232	-0.015529	-0.467285	0.535156	-0.118164	0.661504	-0.527611	-0.456175	-0.275578
53745		8.781476	-4.360100	0.399287	0.018130	0.003642	-0.016607	-0.467285	0.541016	-0.118652	0.661581	-0.527487	-0.456197	-0.275593
53746		8.775753	-4.368531	0.393409	0.019524	-0.001887	-0.012551	-0.461914	0.544189	-0.118408	0.661654	-0.527395	-0.456220	-0.275557
53747		8.756771	-4.418965	0.372860	0.022597	-0.007791	-0.017712	-0.456543	0.539062	-0.119141	0.661706	-0.527301	-0.456278	-0.275518
53748		8.809442	-4.356270	0.297313	0.028903	-0.011177	-0.017312	-0.467773	0.541748	-0.123535	0.661778	-0.527177	-0.456370	-0.275428
53749		8.819833	-4.300680	0.328518	0.011540	-0.006762	-0.015896	-0.459717	0.545654	-0.123047	0.661809	-0.527100	-0.456447	-0.275373
53750		8.778382	-4.309625	0.325119	0.003267	-0.000777	-0.010750	-0.465576	0.538330	-0.117920	0.661839	-0.527102	-0.456413	-0.275355
53751		8.821743	-4.317931	0.329184	0.000102	-0.001756	-0.008870	-0.467041	0.543213	-0.117188	0.661830	-0.527138	-0.456365	-0.275386
53752		8.766684	-4.369662	0.311651	-0.000685	-0.000665	-0.009442	-0.465820	0.539062	-0.123291	0.661816	-0.527185	-0.456299	-0.275440
53753		8.786516	-4.369622	0.266495	-0.003174	-0.004287	-0.010588	-0.459961	0.541504	-0.118652	0.661803	-0.527204	-0.456305	-0.275424
53754		8.826341	-4.316834	0.242922	-0.008767	0.006887	-0.008390	-0.472900	0.547607	-0.126953	0.661795	-0.527282	-0.456171	-0.275515
53755		8.824202	-4.337565	0.219158	-0.023510	0.018250	-0.004896	-0.468506	0.542480	-0.112793	0.661806	-0.527362	-0.456006	-0.275610
53756		8.794890	-4.376751	0.276094	-0.021157	0.018537	-0.004682	-0.464844	0.543945	-0.121826	0.661766	-0.527519	-0.455740	-0.275846
53757		8.806150	-4.376271	0.267787	-0.010742	0.016607	-0.005833	-0.465820	0.541016	-0.121338	0.661805	-0.527568	-0.455570	-0.275939
53758		8.795097	-4.333754	0.277838	-0.010900	0.018606	-0.007083	-0.462402	0.543213	-0.121338	0.661845	-0.527604	-0.455401	-0.276054
53759		8.802655	-4.363660	0.288795	-0.013790	0.022519	-0.004529	-0.472900	0.544922	-0.121826	0.661895	-0.527666	-0.455178	-0.276181
53760		8.805567	-4.362277	0.316547	-0.019678	0.028795	-0.003022	-0.471680	0.541992	-0.118408	0.661943	-0.527734	-0.454926	-0.276352
53761		8.797671	-4.377762	0.465312	-0.028996	0.030980	-0.002995	-0.460693	0.542236	-0.105469	0.661941	-0.527869	-0.454617	-0.276606
53762		8.686599	-4.479447	0.543595	-0.019812	0.034370	-0.009629	-0.470215	0.541016	-0.117188	0.661924	-0.528024	-0.454216	-0.277012
53763		8.725037	-4.439347	0.455957	0.001414	0.015849	-0.008757	-0.466309	0.545166	-0.114502	0.661982	-0.528010	-0.454078	-0.277126
53764		8.764897	-4.386299	0.434491	0.004215	0.003271	-0.011919	-0.468262	0.540527	-0.115479	0.661986	-0.528031	-0.453989	-0.277222
53765		8.737745	-4.435976	0.447932	0.003537	-0.006292	-0.015703	-0.463135	0.541992	-0.111572	0.661946	-0.528044	-0.453992	-0.277287
53766		8.732135	-4.427319	0.328011	0.009461	-0.017899	-0.016892	-0.466797	0.545898	-0.116699	0.661869	-0.528085	-0.454031	-0.277327
53767		8.770516	-4.415374	0.278721	0.015224	-0.027505	-0.019333	-0.464600	0.544922	-0.119385	0.661799	-0.528074	-0.454187	-0.277262
53768		8.765474	-4.331458	0.222494	0.026131	-0.033638	-0.019406	-0.461914	0.541992	-0.108643	0.661768	-0.528000	-0.454420	-0.277096
53769		8.868201	-4.238294	0.112064	0.029276	-0.025795	-0.010312	-0.460205	0.543457	-0.116211	0.661752	-0.527995	-0.454495	-0.277018
53770		8.948737	-4.137608	0.243641	0.017957	-0.006786	-0.010711	-0.468506	0.539795	-0.116699	0.661794	-0.527964	-0.454490	-0.276987
53771		8.893076	-4.169670	0.227161	-0.002735	0.023021	0.004946	-0.467041	0.547119	-0.114014	0.661893	-0.528010	-0.454242	-0.277070
53772		8.822377	-4.345590	0.287491	-0.000565	0.027084	0.005092	-0.461670	0.545166	-0.116943	0.662003	-0.528071	-0.453930	-0.277199
53773		8.765985	-4.379017	0.273006	-0.000102	0.024647	0.007337	-0.459473	0.542969	-0.117432	0.662126	-0.528133	-0.453635	-0.277272
53774		8.788945	-4.409302	0.326443	-0.008382	0.032403	0.009792	-0.467285	0.544189	-0.117432	0.662250	-0.528227	-0.453271	-0.277392
53775		8.737538	-4.420429	0.361988	-0.017359	0.037713	0.005464	-0.459473	0.546631	-0.118164	0.662342	-0.528329	-0.452895	-0.277593
53776		8.709080	-4.489503	0.490297	-0.026730	0.034794	-0.000472	-0.462646	0.546387	-0.121582	0.662371	-0.528484	-0.452515	-0.277847
53777		8.690610	-4.550034	0.539603	-0.015075	0.022477	-0.005904	-0.453369	0.543213	-0.111328	0.662408	-0.528553	-0.452291	-0.277995
53778		8.694808	-4.501558	0.411399	0.010817	0.001229	-0.009322	-0.459229	0.544922	-0.116211	0.662427	-0.528592	-0.452165	-0.278080
53779		8.785878	-4.350573	0.201583	0.023816	-0.005947	-0.011319	-0.466064	0.549805	-0.107666	0.662491	-0.528530	-0.452165	-0.278044
53780		8.907302	-4.251576	0.270856	0.000109	0.001811	-0.010379	-0.465576	0.541504	-0.118408	0.662441	-0.528635	-0.452007	-0.278221
53781		8.826655	-4.333738	0.291746	-0.006478	0.010719	-0.005856	-0.457031	0.545654	-0.128174	0.662458	-0.528684	-0.451870	-0.278309
53782		8.818152	-4.386094	0.262176	0.011942	0.008358	-0.003299	-0.468506	0.549316	-0.115967	0.662595	-0.528617	-0.451806	-0.278216
53783		8.796114	-4.347587	0.171877	0.018253	0.008544	-0.004374	-0.452393	0.546143	-0.125732	0.662700	-0.528570	-0.451696	-0.278233
53784		8.795969	-4.343164	0.285431	0.011049	0.018329	-0.001858	-0.458740	0.538818	-0.118164	0.662862	-0.528519	-0.451533	-0.278210
53785		8.821487	-4.404559	0.296864	0.007399	0.017995	0.000439	-0.457275	0.545166	-0.111328	0.662979	-0.528511	-0.451343	-0.278252
53786		8.810432	-4.312981	0.264313	0.006180	0.026620	0.003553	-0.458984	0.542480	-0.121826	0.663098	-0.528564	-0.451014	-0.278403
53787		8.767819	-4.474467	0.423599	-0.015964	0.035753	0.004120	-0.457520	0.542480	-0.125244	0.663201	-0.528645	-0.450670	-0.278561
53788		8.707523	-4.496101	0.426915	0.007308	0.034007	-0.004414	-0.454346	0.546387	-0.111572	0.663394	-0.528551	-0.450447	-0.278638
53789		8.701258	-4.489403	0.602217	-0.004775	0.029434	-0.005055	-0.449219	0.547607	-0.115967	0.663453	-0.528635	-0.450102	-0.278896
53790		8.673136	-4.519311	0.618808	-0.006131	0.031412	-0.011495	-0.460693	0.543213	-0.123047	0.663517	-0.528687	-0.449779	-0.279166
53791		8.679096	-4.515470	0.672602	-0.000273	0.018260	-0.016243	-0.457031	0.548096	-0.118164	0.663578	-0.528637	-0.449668	-0.279296
53792		8.709268	-4.464827	0.550200	0.000764	0.001191	-0.022367	-0.465332	0.546631	-0.120850	0.663540	-0.528652	-0.449614	-0.279444
53793		8.746699	-4.423746	0.434169	0.008270	-0.010814	-0.021181	-0.453857	0.537598	-0.123047	0.663506	-0.528617	-0.449690	-0.279468
53794		8.785259	-4.390493	0.385579	0.005153	-0.011791	-0.023166	-0.460693	0.539062	-0.128906	0.663465	-0.528584	-0.449784	-0.279479
53795		8.805159	-4.343110	0.448177	-0.013772	-0.010581	-0.022657	-0.458496	0.542969	-0.122803	0.663370	-0.528607	-0.449882	-0.279502
53796		8.806372	-4.373357	0.379672	-0.000282	-0.006174	-0.022118	-0.460938	0.540283	-0.108643	0.663325	-0.528600	-0.449921	-0.279560
