// Start Time: Unknown
// Update Rate: 60.0Hz
// Filter Profile: human (46.1)
// Firmware Version: 4.6.0
PacketCounter	SampleTimeFine	Acc_X	Acc_Y	Acc_Z	Gyr_X	Gyr_Y	Gyr_Z	Mag_X	Mag_Y	Mag_Z	Quat_q0	Quat_q1	Quat_q2	Quat_q3
17325		5.493630	8.176557	-0.530630	-0.019465	-0.003453	0.001906	-0.914062	-0.736328	-0.531982	0.495984	0.154054	-0.709381	-0.476494
17326		5.480721	8.043934	-0.502723	-0.006093	0.001703	0.000078	-0.916260	-0.749023	-0.528320	0.496002	0.154035	-0.709350	-0.476527
17327		5.416526	8.027937	-0.534850	0.008049	-0.000276	-0.005846	-0.914062	-0.744385	-0.517822	0.495957	0.154111	-0.709381	-0.476503
17328		5.462633	8.112167	-0.530353	-0.006222	-0.000458	-0.006834	-0.920166	-0.745361	-0.534668	0.495935	0.154124	-0.709349	-0.476568
17329		5.446487	8.080444	-0.529700	-0.015606	-0.004757	-0.010796	-0.911621	-0.738770	-0.525879	0.495885	0.154104	-0.709293	-0.476711
17330		5.457164	8.043903	-0.574456	-0.000881	-0.002267	-0.013160	-0.915527	-0.737549	-0.527100	0.495820	0.154168	-0.709283	-0.476773
17331		5.489460	8.258526	-0.517162	0.013507	-0.003720	-0.009100	-0.916260	-0.739014	-0.529297	0.495745	0.154261	-0.709342	-0.476732
17332		5.424270	8.464457	-0.426287	-0.021410	-0.002181	-0.003396	-0.911377	-0.738770	-0.535156	0.495746	0.154184	-0.709263	-0.476874
17333		5.381133	8.183503	-0.505740	-0.070035	-0.006678	0.008304	-0.920410	-0.744629	-0.531738	0.495826	0.153826	-0.709018	-0.477271
17334		5.369219	7.960054	-0.548268	-0.038049	-0.002671	-0.000185	-0.920898	-0.743652	-0.526611	0.495853	0.153671	-0.708870	-0.477513
17335		5.420571	8.055555	-0.563284	-0.004229	-0.008254	-0.005746	-0.919678	-0.739746	-0.533936	0.495780	0.153664	-0.708875	-0.477582
17336		5.428116	8.175896	-0.501094	0.009466	-0.008732	-0.004496	-0.923340	-0.741943	-0.525879	0.495691	0.153705	-0.708943	-0.477562
17337		5.499527	8.227727	-0.450110	-0.007217	-0.009586	0.001371	-0.913574	-0.743652	-0.530029	0.495640	0.153641	-0.708953	-0.477621
17338		5.501519	8.173561	-0.418503	-0.015274	-0.006242	0.004946	-0.914795	-0.744873	-0.530273	0.495636	0.153535	-0.708917	-0.477711
17339		5.520706	8.139040	-0.449824	-0.014743	-0.005936	0.007335	-0.913818	-0.739014	-0.531250	0.495650	0.153416	-0.708879	-0.477792
17340		5.491723	8.073287	-0.449700	-0.009502	0.001498	0.005610	-0.916992	-0.740967	-0.531250	0.495700	0.153351	-0.708826	-0.477839
17341		5.458270	7.990131	-0.460146	-0.000319	0.002566	-0.000808	-0.917480	-0.739746	-0.535156	0.495727	0.153362	-0.708795	-0.477855
17342		5.424446	7.991897	-0.428228	0.005747	0.000150	-0.007022	-0.925781	-0.743164	-0.529541	0.495715	0.153417	-0.708786	-0.477862
17343		5.475925	8.081374	-0.478733	0.003402	-0.010466	-0.010918	-0.918701	-0.740723	-0.527832	0.495635	0.153436	-0.708806	-0.477910
17344		5.437017	8.152101	-0.481646	0.005725	-0.007441	-0.014701	-0.917236	-0.733643	-0.532959	0.495552	0.153499	-0.708821	-0.477953
17345		5.506495	8.252323	-0.494108	0.010538	-0.001599	-0.006956	-0.917969	-0.736084	-0.531494	0.495533	0.153556	-0.708837	-0.477931
17346		5.496464	8.269789	-0.479664	0.015701	-0.001759	-0.004908	-0.908447	-0.746338	-0.526855	0.495512	0.153625	-0.708877	-0.477872
17347		5.502197	8.233383	-0.440524	0.008769	0.003275	0.006895	-0.921875	-0.726807	-0.525391	0.495552	0.153642	-0.708884	-0.477814
17348		5.460893	8.206451	-0.462789	-0.011469	0.003141	0.009090	-0.924072	-0.738281	-0.530762	0.495653	0.153518	-0.708825	-0.477836
17349		5.401472	8.037065	-0.502058	-0.025730	-0.003924	0.006573	-0.916748	-0.745361	-0.530029	0.495731	0.153333	-0.708710	-0.477985
17350		5.406105	7.878012	-0.541827	-0.013161	-0.006091	-0.000412	-0.911377	-0.740479	-0.526367	0.495731	0.153259	-0.708645	-0.478106
17351		5.420920	7.950835	-0.569163	0.010112	-0.000469	-0.008556	-0.916016	-0.732178	-0.533691	0.495683	0.153351	-0.708663	-0.478098
17352		5.491752	8.173633	-0.500447	0.032581	-0.001825	-0.013045	-0.923096	-0.744141	-0.529541	0.495620	0.153520	-0.708763	-0.477962
17353		5.513001	8.373129	-0.435899	0.015531	-0.004273	-0.009149	-0.913086	-0.745361	-0.533447	0.495573	0.153596	-0.708811	-0.477914
17354		5.448769	8.271141	-0.444760	-0.010179	-0.000606	0.005097	-0.921875	-0.745361	-0.538086	0.495626	0.153530	-0.708737	-0.477991
17355		5.431497	8.082245	-0.466433	-0.013946	-0.002758	-0.000153	-0.918213	-0.738281	-0.530762	0.495687	0.153450	-0.708627	-0.478116
17356		5.404403	8.042559	-0.492060	0.000320	-0.002566	0.000810	-0.917969	-0.739014	-0.534668	0.495703	0.153421	-0.708615	-0.478127
17357		5.409021	8.054080	-0.514236	-0.005888	-0.006100	-0.003726	-0.927002	-0.739258	-0.539551	0.495704	0.153378	-0.708569	-0.478208
17358		5.459612	8.109757	-0.504646	0.014970	-0.001141	-0.005035	-0.923584	-0.742188	-0.528564	0.495753	0.153420	-0.708561	-0.478155
17359		5.484650	8.202358	-0.444126	0.015951	0.001475	-0.005997	-0.915771	-0.732910	-0.531494	0.495745	0.153508	-0.708600	-0.478077
17360		5.487954	8.221651	-0.502461	0.000586	-0.002412	0.002003	-0.922607	-0.740967	-0.533447	0.495765	0.153463	-0.708600	-0.478071
17361		5.471552	8.156960	-0.509373	-0.016692	-0.004655	0.002036	-0.914551	-0.748291	-0.525391	0.495816	0.153339	-0.708518	-0.478180
17362		5.441000	8.053349	-0.549311	0.005932	-0.000415	-0.000495	-0.916748	-0.742676	-0.523438	0.495759	0.153406	-0.708547	-0.478174
17363		5.422206	8.132238	-0.446746	0.014561	-0.003091	-0.004348	-0.918457	-0.739746	-0.528320	0.495667	0.153490	-0.708641	-0.478103
17364		5.448870	8.127555	-0.492647	-0.009469	-0.008818	-0.002449	-0.920898	-0.742188	-0.535400	0.495625	0.153417	-0.708634	-0.478181
17365		5.444004	8.070394	-0.474217	-0.007758	-0.006818	-0.003288	-0.922607	-0.741943	-0.523193	0.495634	0.153364	-0.708578	-0.478272
17366		5.439523	8.137723	-0.441307	0.004811	-0.008982	-0.010273	-0.925781	-0.737061	-0.525879	0.495514	0.153387	-0.708658	-0.478271
17367		5.514438	8.203011	-0.481039	0.018148	-0.007247	-0.007177	-0.919434	-0.739502	-0.528809	0.495440	0.153403	-0.708773	-0.478171
17368		5.488534	8.240128	-0.431167	0.006985	-0.003596	0.000441	-0.914795	-0.733154	-0.526123	0.495431	0.153390	-0.708805	-0.478137
17369		5.444919	8.135763	-0.464292	-0.019830	0.001809	0.001517	-0.918457	-0.738770	-0.533936	0.495485	0.153269	-0.708720	-0.478247
17370		5.418054	8.010065	-0.465012	-0.004262	0.002055	0.002321	-0.919434	-0.740967	-0.526611	0.495568	0.153221	-0.708640	-0.478294
17371		5.441098	8.032131	-0.449079	0.012883	0.002146	-0.004623	-0.918457	-0.739014	-0.528320	0.495545	0.153298	-0.708682	-0.478232
17372		5.440083	8.164459	-0.470111	0.011583	0.002096	-0.004467	-0.917480	-0.742676	-0.525391	0.495544	0.153355	-0.708701	-0.478185
17373		5.497030	8.223531	-0.448119	0.008534	-0.000313	-0.000805	-0.927734	-0.743408	-0.524902	0.495511	0.153407	-0.708744	-0.478139
17374		5.448859	8.147580	-0.488641	0.003332	-0.000515	-0.000184	-0.916016	-0.740967	-0.529053	0.495502	0.153360	-0.708793	-0.478091
17375		5.443864	8.005706	-0.514911	0.008895	-0.002520	-0.002658	-0.924072	-0.740234	-0.526855	0.495482	0.153413	-0.708805	-0.478077
17376		5.433634	8.069145	-0.496477	0.020745	-0.000271	-0.005928	-0.917725	-0.739990	-0.528320	0.495448	0.153467	-0.708893	-0.477964
17377		5.446523	8.108788	-0.466280	0.017596	0.002395	-0.010286	-0.926758	-0.745117	-0.534180	0.495421	0.153592	-0.708920	-0.477912
17378		5.477013	8.161869	-0.530620	0.004655	0.002970	-0.005288	-0.928711	-0.737061	-0.524414	0.495481	0.153602	-0.708869	-0.477922
17379		5.425464	8.191446	-0.498519	0.008614	0.000402	-0.006130	-0.912598	-0.741699	-0.527344	0.495472	0.153540	-0.708941	-0.477844
17380		5.431694	8.189037	-0.518913	0.006905	-0.001598	-0.005289	-0.918213	-0.736572	-0.531738	0.495431	0.153639	-0.708942	-0.477854
17381		5.446104	8.221950	-0.518967	0.000466	-0.000771	-0.001066	-0.915771	-0.740723	-0.533936	0.495484	0.153579	-0.708894	-0.477889
17382		5.430495	8.195663	-0.486856	-0.011120	-0.002866	0.003394	-0.921387	-0.742920	-0.540039	0.495553	0.153502	-0.708786	-0.478002
17383		5.481214	8.126672	-0.490538	-0.010654	-0.003637	0.002328	-0.914062	-0.737305	-0.533936	0.495661	0.153401	-0.708643	-0.478134
17384		5.469038	8.033681	-0.492244	0.001472	-0.008108	-0.001294	-0.916992	-0.741943	-0.527832	0.495667	0.153366	-0.708604	-0.478199
17385		5.452889	8.093458	-0.485927	0.012638	-0.001085	-0.003524	-0.924561	-0.742920	-0.541748	0.495626	0.153448	-0.708646	-0.478151
17386		5.440558	8.171091	-0.469216	-0.003750	-0.005235	-0.002960	-0.915527	-0.738525	-0.526367	0.495724	0.153376	-0.708525	-0.478253
17387		5.470638	8.104544	-0.447923	-0.009457	-0.005024	0.001390	-0.919434	-0.741211	-0.539307	0.495705	0.153299	-0.708515	-0.478312
17388		5.470387	8.104717	-0.447874	0.003732	-0.002365	-0.004701	-0.916748	-0.742676	-0.529541	0.495774	0.153307	-0.708418	-0.478381
17389		5.509383	8.061240	-0.472378	0.005290	-0.005960	-0.007493	-0.913574	-0.738770	-0.533203	0.495706	0.153366	-0.708432	-0.478412
17390		5.467295	7.982901	-0.533686	0.024034	-0.004938	-0.007272	-0.918213	-0.739990	-0.528564	0.495671	0.153483	-0.708468	-0.478358
17391		5.496028	8.133311	-0.494702	0.049058	-0.003461	-0.011668	-0.919189	-0.750732	-0.533203	0.495565	0.153712	-0.708654	-0.478118
17392		5.466637	8.315954	-0.404315	0.033593	-0.002280	-0.011685	-0.926270	-0.742188	-0.533203	0.495480	0.153969	-0.708725	-0.478019
17393		5.443233	8.116561	-0.407137	-0.002779	-0.006428	-0.007750	-0.925293	-0.746582	-0.530029	0.495516	0.153905	-0.708686	-0.478060
17394		5.415219	7.987511	-0.576224	0.001042	-0.010787	-0.006707	-0.920898	-0.736572	-0.526855	0.495467	0.153883	-0.708710	-0.478081
17395		5.403835	8.052597	-0.624926	0.019852	-0.002173	-0.010269	-0.920166	-0.739746	-0.527832	0.495446	0.153933	-0.708788	-0.477972
17396		5.405131	8.031715	-0.594129	0.078423	-0.010556	-0.022522	-0.913574	-0.738037	-0.525879	0.495238	0.154294	-0.709107	-0.477598
17397		5.463554	8.062866	-0.513416	0.137735	-0.005805	-0.031477	-0.927979	-0.736328	-0.530273	0.494928	0.154988	-0.709621	-0.476931
17398		5.554720	8.394114	-0.404377	0.143803	-0.001331	-0.024542	-0.925781	-0.749023	-0.530029	0.494794	0.155547	-0.710127	-0.476134
17399		5.477423	8.414474	-0.270589	0.057579	0.002409	-0.005422	-0.916260	-0.751465	-0.525146	0.494801	0.155769	-0.710283	-0.475821
17400		5.438994	8.144366	-0.445607	-0.013657	0.001545	0.002148	-0.921143	-0.744629	-0.530518	0.494838	0.155730	-0.710183	-0.475944
17401		5.396390	7.948028	-0.550303	-0.020519	0.006917	-0.000223	-0.924561	-0.745605	-0.521729	0.495015	0.155604	-0.709988	-0.476093
17402		5.412064	7.882979	-0.655583	0.012650	0.005389	-0.010729	-0.913574	-0.743652	-0.522705	0.495036	0.155691	-0.710018	-0.475998
17403		5.421524	7.892323	-0.701504	0.062739	0.007593	-0.025461	-0.919678	-0.749023	-0.521729	0.494914	0.156109	-0.710182	-0.475743
17404		5.426345	8.138471	-0.569653	0.110054	0.000332	-0.034115	-0.916016	-0.745850	-0.529297	0.494651	0.156749	-0.710579	-0.475213
17405		5.457431	8.340296	-0.457651	0.093737	-0.002744	-0.030082	-0.917236	-0.754150	-0.517578	0.494489	0.157242	-0.710831	-0.474843
17406		5.468877	8.374628	-0.467096	0.039291	-0.003986	-0.016558	-0.911865	-0.744141	-0.523438	0.494322	0.157505	-0.711000	-0.474674
17407		5.432863	8.214192	-0.556595	-0.007884	-0.001415	-0.002554	-0.911377	-0.752441	-0.522461	0.494387	0.157425	-0.710904	-0.474778
17408		5.444087	8.091760	-0.710794	0.001978	-0.005494	-0.007244	-0.916748	-0.751465	-0.517334	0.494329	0.157476	-0.710874	-0.474867
17409		5.425723	8.244287	-0.698328	0.021884	0.011002	-0.007163	-0.911133	-0.747070	-0.524658	0.494332	0.157646	-0.710921	-0.474736
17410		5.381843	8.185202	-0.661420	0.008328	0.003699	-0.000804	-0.920410	-0.751709	-0.525146	0.494403	0.157671	-0.710862	-0.474742
17411		5.391509	8.161380	-0.710148	0.000611	-0.002825	-0.006737	-0.910889	-0.752441	-0.520752	0.494427	0.157661	-0.710822	-0.474781
17412		5.396293	8.087192	-0.707616	0.001974	0.002161	0.000346	-0.912598	-0.754150	-0.518066	0.494428	0.157703	-0.710794	-0.474808
17413		5.408893	8.133813	-0.644311	0.008560	-0.004131	-0.004539	-0.914551	-0.748047	-0.518066	0.494337	0.157786	-0.710846	-0.474797
17414		5.431339	8.281044	-0.616407	0.007461	-0.005125	-0.006637	-0.919434	-0.754395	-0.523438	0.494283	0.157805	-0.710895	-0.474774
17415		5.415217	8.216100	-0.556003	-0.011974	-0.003691	0.002434	-0.916992	-0.751953	-0.530762	0.494319	0.157716	-0.710840	-0.474848
17416		5.423587	8.166481	-0.577130	-0.018506	-0.007348	0.008135	-0.912109	-0.746094	-0.527344	0.494429	0.157539	-0.710704	-0.474995
17417		5.419858	8.109162	-0.556525	-0.016312	-0.006560	-0.002520	-0.913086	-0.749756	-0.528809	0.494488	0.157426	-0.710576	-0.475164
17418		5.378661	8.035785	-0.515097	0.008178	-0.005307	0.002251	-0.913086	-0.756836	-0.521484	0.494527	0.157414	-0.710541	-0.475178
17419		5.427809	8.099014	-0.541785	0.003218	-0.002721	-0.007031	-0.906738	-0.753906	-0.520020	0.494442	0.157509	-0.710541	-0.475236
17420		5.494803	8.173969	-0.529247	-0.003770	-0.002203	-0.005239	-0.915771	-0.750244	-0.516357	0.494368	0.157581	-0.710504	-0.475344
17421		5.534737	8.084207	-0.555644	0.001849	-0.000050	-0.006525	-0.919189	-0.760010	-0.524414	0.494319	0.157608	-0.710538	-0.475335
17422		5.458427	8.098931	-0.575754	0.019863	-0.002545	-0.007472	-0.914551	-0.755615	-0.521729	0.494246	0.157760	-0.710596	-0.475274
17423		5.455093	8.198686	-0.539577	0.017826	-0.001984	-0.007456	-0.921875	-0.748779	-0.521973	0.494177	0.157894	-0.710648	-0.475224
17424		5.443699	8.223547	-0.560069	-0.001539	-0.007105	-0.002530	-0.920898	-0.757812	-0.519043	0.494196	0.157800	-0.710662	-0.475215
17425		5.410851	8.048486	-0.644184	-0.000997	-0.003380	-0.005115	-0.914307	-0.753906	-0.520264	0.494137	0.157817	-0.710691	-0.475228
17426		5.426400	8.028538	-0.680819	0.016888	-0.000427	-0.005345	-0.914551	-0.744629	-0.529785	0.494090	0.157926	-0.710743	-0.475162
17427		5.387382	8.059134	-0.657482	0.026735	0.005780	-0.013504	-0.920654	-0.749512	-0.526123	0.494180	0.158074	-0.710702	-0.475080
17428		5.361805	8.168923	-0.631549	0.032954	0.005540	-0.012758	-0.917236	-0.752686	-0.521729	0.494218	0.158245	-0.710747	-0.474917
17429		5.379907	8.213293	-0.590513	0.022623	-0.004493	-0.013418	-0.918701	-0.753662	-0.527588	0.494143	0.158377	-0.710822	-0.474839
17430		5.422209	8.187992	-0.606169	0.004963	-0.007620	-0.009346	-0.908203	-0.751221	-0.528564	0.494136	0.158394	-0.710797	-0.474877
17431		5.431164	8.203762	-0.685165	0.014758	-0.012367	-0.008696	-0.910645	-0.746582	-0.521484	0.494080	0.158458	-0.710793	-0.474921
17432		5.436869	8.247057	-0.636927	0.012947	-0.011975	-0.004834	-0.911133	-0.749512	-0.520020	0.494035	0.158459	-0.710845	-0.474889
17433		5.444127	8.283072	-0.619416	-0.001974	-0.009387	0.000840	-0.914551	-0.748291	-0.514648	0.494018	0.158391	-0.710852	-0.474920
17434		5.447119	8.183395	-0.657446	-0.020778	-0.010014	0.009263	-0.911621	-0.750488	-0.522949	0.494031	0.158171	-0.710851	-0.474980
17435		5.396252	8.133951	-0.634256	0.000696	-0.008172	0.003979	-0.918213	-0.751709	-0.518555	0.494043	0.158111	-0.710845	-0.474998
17436		5.357374	8.092252	-0.586384	-0.005892	-0.005712	0.005066	-0.921143	-0.756104	-0.522949	0.494055	0.158002	-0.710862	-0.474994
17437		5.424538	8.049083	-0.554900	-0.003276	-0.002215	-0.000195	-0.919434	-0.749756	-0.519043	0.494075	0.157965	-0.710845	-0.475013
17438		5.414323	8.112686	-0.534908	-0.009526	-0.006145	-0.002056	-0.910645	-0.759033	-0.525391	0.494080	0.157867	-0.710836	-0.475053
17439		5.429510	8.138781	-0.565920	-0.013438	-0.006303	-0.001614	-0.917969	-0.752441	-0.519043	0.494049	0.157849	-0.710748	-0.475222
17440		5.440495	8.068502	-0.549919	0.002848	-0.000503	-0.005197	-0.920166	-0.756348	-0.515625	0.494035	0.157868	-0.710762	-0.475211
17441		5.453443	8.148049	-0.546969	0.004591	0.001829	-0.008704	-0.914062	-0.751953	-0.523926	0.493973	0.157936	-0.710807	-0.475185
17442		5.440258	8.226132	-0.531233	0.007694	0.001930	-0.003960	-0.912598	-0.750488	-0.518799	0.494005	0.157990	-0.710778	-0.475177
17443		5.416737	8.203985	-0.547126	-0.004209	0.002734	-0.003055	-0.919189	-0.746094	-0.514648	0.494030	0.157990	-0.710736	-0.475214
17444		5.414900	8.087028	-0.595091	-0.004309	-0.005936	-0.002643	-0.915771	-0.749023	-0.523926	0.494013	0.157887	-0.710778	-0.475203
17445		5.459775	8.093290	-0.602176	0.001779	-0.004558	-0.004984	-0.917236	-0.752441	-0.518311	0.494030	0.157869	-0.710753	-0.475228
17446		5.420672	8.078128	-0.714536	0.005092	-0.002007	-0.007449	-0.923828	-0.747803	-0.518066	0.493989	0.157904	-0.710781	-0.475217
17447		5.408487	8.109952	-0.635554	0.011581	0.001316	-0.010490	-0.920166	-0.749512	-0.518311	0.493987	0.157929	-0.710833	-0.475133
17448		5.359244	8.119068	-0.632958	0.004696	-0.000560	-0.011713	-0.921387	-0.749512	-0.523926	0.493964	0.157957	-0.710852	-0.475120
17449		5.411095	8.161658	-0.620966	0.001279	-0.000722	-0.006235	-0.919189	-0.751953	-0.520020	0.494004	0.157927	-0.710826	-0.475127
17450		5.383991	8.285132	-0.596035	0.014520	-0.004526	-0.004978	-0.918213	-0.751221	-0.516357	0.493967	0.157963	-0.710895	-0.475050
17451		5.451239	8.235492	-0.598751	0.008364	-0.003182	-0.002285	-0.914795	-0.742920	-0.521973	0.493937	0.157967	-0.710960	-0.474982
17452		5.374115	8.178169	-0.596008	0.000404	-0.005280	0.000485	-0.910889	-0.753906	-0.517578	0.493990	0.157866	-0.710944	-0.474985
17453		5.388927	8.086402	-0.609497	-0.007585	-0.011546	0.002134	-0.917725	-0.753906	-0.519775	0.493929	0.157804	-0.710957	-0.475049
17454		5.348498	8.006246	-0.600737	0.008840	-0.007795	-0.007118	-0.912109	-0.744873	-0.524170	0.493855	0.157839	-0.711011	-0.475034
17455		5.414857	7.957081	-0.605356	0.039443	-0.005568	-0.013433	-0.916748	-0.755371	-0.518799	0.493797	0.158010	-0.711110	-0.474889
17456		5.515587	8.187281	-0.545726	0.061121	-0.000828	-0.017162	-0.914062	-0.753906	-0.519775	0.493648	0.158358	-0.711330	-0.474598
17457		5.591137	8.369885	-0.476078	0.036433	0.003437	-0.009822	-0.911133	-0.748535	-0.520508	0.493605	0.158574	-0.711423	-0.474432
17458		5.503522	8.290954	-0.497821	0.013783	-0.000078	-0.001319	-0.923096	-0.756836	-0.524902	0.493639	0.158608	-0.711429	-0.474376
17459		5.441141	8.141581	-0.574643	-0.003222	0.002736	0.007006	-0.918701	-0.753906	-0.518799	0.493745	0.158519	-0.711378	-0.474372
17460		5.462239	8.131581	-0.699174	0.002299	0.003448	0.004954	-0.917969	-0.757812	-0.518311	0.493811	0.158481	-0.711372	-0.474325
17461		5.371144	8.080232	-0.724598	0.014478	0.006201	0.000283	-0.914307	-0.754639	-0.529053	0.493832	0.158562	-0.711404	-0.474229
17462		5.376993	7.959729	-0.726795	0.025195	0.006340	-0.008432	-0.915527	-0.750488	-0.525635	0.493874	0.158721	-0.711380	-0.474168
17463		5.374823	8.091722	-0.685618	0.034002	0.002045	-0.009083	-0.922607	-0.754639	-0.522461	0.493885	0.158875	-0.711431	-0.474029
17464		5.393837	8.253605	-0.663400	0.012531	-0.000263	-0.012564	-0.913574	-0.760010	-0.517334	0.493874	0.158950	-0.711444	-0.473994
17465		5.373876	8.203723	-0.674549	0.006350	-0.010309	-0.009797	-0.913086	-0.757324	-0.522217	0.493747	0.159014	-0.711496	-0.474027
17466		5.384587	8.297641	-0.608757	0.001654	-0.002963	-0.008043	-0.917725	-0.753418	-0.525879	0.493717	0.159055	-0.711465	-0.474092
17467		5.363486	8.261281	-0.620590	-0.018431	-0.006696	0.002806	-0.912109	-0.754883	-0.514160	0.493785	0.158889	-0.711367	-0.474223
17468		5.431193	8.211302	-0.686373	-0.014293	0.000527	0.005019	-0.913818	-0.754150	-0.516846	0.493818	0.158810	-0.711324	-0.474280
17469		5.400174	8.120472	-0.659744	0.001242	-0.004445	0.001400	-0.911865	-0.756348	-0.514648	0.493805	0.158782	-0.711345	-0.474271
17470		5.392473	8.091420	-0.581309	0.015197	-0.005799	0.000510	-0.917969	-0.756348	-0.517090	0.493735	0.158835	-0.711437	-0.474188
17471		5.420101	8.085749	-0.560126	-0.009827	-0.006657	-0.000580	-0.912842	-0.755127	-0.523193	0.493715	0.158758	-0.711430	-0.474246
17472		5.437699	8.012309	-0.629598	-0.014540	-0.007323	-0.003706	-0.916260	-0.746094	-0.518799	0.493713	0.158685	-0.711350	-0.474392
17473		5.490663	8.047825	-0.648961	0.003357	-0.000963	-0.008893	-0.919434	-0.756836	-0.513672	0.493734	0.158686	-0.711336	-0.474392
17474		5.472900	8.193479	-0.602841	0.025336	0.000899	-0.009123	-0.921631	-0.751221	-0.518555	0.493660	0.158836	-0.711452	-0.474244
17475		5.451937	8.275057	-0.570347	0.015308	-0.001430	-0.012432	-0.909424	-0.757080	-0.519775	0.493632	0.158905	-0.711500	-0.474177
17476		5.416470	8.120982	-0.557686	-0.008991	-0.002445	-0.004645	-0.914307	-0.753906	-0.517334	0.493620	0.158906	-0.711435	-0.474288
17477		5.385844	8.055950	-0.623712	-0.005040	-0.001955	-0.007737	-0.913574	-0.748779	-0.515625	0.493604	0.158908	-0.711403	-0.474351
17478		5.403769	8.100411	-0.647356	0.018450	-0.000982	-0.010346	-0.909912	-0.754639	-0.509521	0.493569	0.159002	-0.711461	-0.474269
17479		5.395821	8.182660	-0.621930	0.027660	-0.003328	-0.011699	-0.916748	-0.758057	-0.511230	0.493441	0.159189	-0.711596	-0.474137
17480		5.432649	8.231760	-0.641373	0.009462	-0.006811	-0.010013	-0.915283	-0.753174	-0.517822	0.493327	0.159255	-0.711682	-0.474104
17481		5.419737	8.185268	-0.638884	-0.002537	-0.002833	-0.000054	-0.920166	-0.761963	-0.515869	0.493348	0.159199	-0.711668	-0.474122
17482		5.395194	8.169611	-0.690267	0.006297	-0.002949	0.000404	-0.917969	-0.751953	-0.518066	0.493312	0.159207	-0.711723	-0.474075
17483		5.422711	8.203047	-0.698688	0.016400	0.000039	-0.001596	-0.910400	-0.757080	-0.515625	0.493326	0.159228	-0.711774	-0.473977
17484		5.386495	8.225805	-0.640009	0.016402	-0.003338	0.003377	-0.916504	-0.762451	-0.518555	0.493304	0.159283	-0.711843	-0.473878
17485		5.385537	8.154299	-0.618292	-0.007396	-0.001433	0.002476	-0.922607	-0.758057	-0.517334	0.493316	0.159249	-0.711811	-0.473925
17486		5.405406	8.034327	-0.623306	-0.015590	-0.003374	0.001393	-0.915771	-0.753906	-0.519043	0.493338	0.159122	-0.711773	-0.474001
17487		5.382108	8.011984	-0.637959	-0.003772	-0.002233	-0.005223	-0.916504	-0.747314	-0.511475	0.493345	0.159099	-0.711738	-0.474054
17488		5.396697	8.116802	-0.661159	0.005980	-0.004705	-0.012939	-0.914062	-0.748291	-0.529297	0.493284	0.159114	-0.711783	-0.474045
17489		5.440214	8.209184	-0.628090	0.008822	-0.004754	-0.009384	-0.910156	-0.761963	-0.519043	0.493310	0.159119	-0.711736	-0.474086
17490		5.419125	8.251287	-0.632439	0.005330	-0.002180	-0.003577	-0.908203	-0.754150	-0.518555	0.493276	0.159198	-0.711733	-0.474101
17491		5.424589	8.255599	-0.620304	0.000712	-0.001406	-0.005938	-0.907959	-0.755859	-0.510986	0.493274	0.159242	-0.711695	-0.474144
17492		5.419974	8.159503	-0.639316	-0.001703	-0.001998	0.000851	-0.916748	-0.756348	-0.521973	0.493255	0.159249	-0.711704	-0.474147
17493		5.427083	8.117117	-0.630667	0.012257	-0.003341	-0.000035	-0.921143	-0.752930	-0.520264	0.493261	0.159262	-0.711733	-0.474093
17494		5.413183	8.201373	-0.651833	0.013152	-0.001385	0.004290	-0.918457	-0.753418	-0.520508	0.493301	0.159218	-0.711782	-0.473994
17495		5.441392	8.195439	-0.630493	-0.005750	-0.003934	0.003177	-0.924561	-0.752930	-0.519531	0.493345	0.159111	-0.711756	-0.474024
17496		5.389356	8.067655	-0.682383	-0.020653	-0.001027	0.006159	-0.920410	-0.747314	-0.520020	0.493437	0.158908	-0.711683	-0.474105
17497		5.405235	8.015106	-0.655237	-0.005583	-0.001834	-0.001371	-0.918945	-0.753662	-0.513184	0.493494	0.158800	-0.711648	-0.474135
17498		5.382921	8.063979	-0.694608	0.019324	-0.003198	-0.007121	-0.915527	-0.755371	-0.513428	0.493433	0.158880	-0.711747	-0.474022
17499		5.410450	8.137604	-0.599107	0.021910	-0.003884	-0.013483	-0.910645	-0.755859	-0.518555	0.493334	0.159029	-0.711841	-0.473935
17500		5.409312	8.216766	-0.592788	0.015690	-0.007038	-0.009254	-0.923340	-0.754883	-0.521240	0.493258	0.159129	-0.711889	-0.473908
17501		5.407259	8.224626	-0.562370	-0.003986	-0.009304	-0.007848	-0.920166	-0.758057	-0.524414	0.493222	0.159057	-0.711885	-0.473975
17502		5.418825	8.225657	-0.635700	-0.008461	-0.002116	-0.002267	-0.918945	-0.760254	-0.515381	0.493253	0.158987	-0.711820	-0.474064
17503		5.387178	8.174403	-0.637057	-0.011316	0.001776	-0.002060	-0.916016	-0.757080	-0.516846	0.493271	0.158958	-0.711774	-0.474125
17504		5.389361	8.114195	-0.703747	0.006068	-0.002791	-0.003436	-0.915527	-0.757568	-0.516357	0.493247	0.158984	-0.711797	-0.474106
17505		5.365022	8.184187	-0.646967	0.006718	0.003169	0.000803	-0.910156	-0.753906	-0.520020	0.493271	0.159016	-0.711805	-0.474058
17506		5.420126	8.133667	-0.641675	0.001516	-0.004272	0.002594	-0.915283	-0.756592	-0.512939	0.493287	0.158984	-0.711793	-0.474070
17507		5.443938	8.110182	-0.629559	0.003514	0.001597	-0.004699	-0.920410	-0.758789	-0.516846	0.493276	0.159032	-0.711804	-0.474049
17508		5.382575	8.117767	-0.620367	0.009191	-0.006513	-0.002455	-0.911621	-0.758545	-0.527344	0.493227	0.159039	-0.711867	-0.474003
17509		5.433493	8.128046	-0.616232	0.005782	-0.007134	-0.005723	-0.917969	-0.750977	-0.519775	0.493196	0.159064	-0.711844	-0.474062
17510		5.447087	8.161425	-0.617064	-0.003471	-0.001744	-0.006687	-0.907959	-0.763916	-0.512451	0.493215	0.159028	-0.711805	-0.474112
17511		5.485521	8.164099	-0.636801	0.000486	-0.004628	-0.004804	-0.918457	-0.757324	-0.513916	0.493138	0.159106	-0.711820	-0.474144
17512		5.460688	8.266086	-0.706997	-0.003957	0.002885	-0.001882	-0.918457	-0.752686	-0.526855	0.493160	0.159095	-0.711801	-0.474153
17513		5.365694	8.157644	-0.711546	0.000266	0.000170	0.001186	-0.915039	-0.750732	-0.515625	0.493233	0.159028	-0.711750	-0.474176
17514		5.332155	8.042138	-0.660304	0.009076	-0.000737	-0.004431	-0.913818	-0.755127	-0.515869	0.493234	0.159055	-0.711775	-0.474129
17515		5.345105	8.082472	-0.630328	0.015337	-0.000633	-0.006339	-0.916992	-0.755127	-0.521240	0.493203	0.159144	-0.711820	-0.474063
17516		5.425964	8.190864	-0.619816	-0.004967	-0.004696	-0.008065	-0.914062	-0.759521	-0.515625	0.493189	0.159119	-0.711782	-0.474144
17517		5.404370	8.193709	-0.660488	-0.010428	-0.004289	-0.002599	-0.906494	-0.752930	-0.525635	0.493169	0.159084	-0.711751	-0.474223
17518		5.436238	8.160465	-0.631885	0.002831	-0.004689	-0.006278	-0.917480	-0.751953	-0.524170	0.493169	0.159111	-0.711701	-0.474289
17519		5.443009	8.235890	-0.642367	0.001777	-0.000726	-0.001191	-0.916504	-0.750488	-0.517334	0.493218	0.159068	-0.711668	-0.474301
17520		5.419382	8.181416	-0.596264	-0.015364	-0.000168	0.000269	-0.912842	-0.752441	-0.513916	0.493281	0.158960	-0.711596	-0.474380
17521		5.354716	8.007098	-0.643877	-0.021436	-0.005398	-0.001152	-0.925537	-0.753906	-0.519775	0.493293	0.158845	-0.711530	-0.474505
17522		5.364283	7.983062	-0.691325	0.005046	-0.006520	-0.005862	-0.912598	-0.756592	-0.515869	0.493264	0.158810	-0.711570	-0.474488
17523		5.429770	8.183252	-0.668991	0.015651	-0.003978	-0.011570	-0.913574	-0.752686	-0.515625	0.493183	0.158933	-0.711625	-0.474447
17524		5.459034	8.242640	-0.636568	0.010930	-0.004184	-0.005962	-0.922363	-0.753418	-0.513916	0.493146	0.158978	-0.711670	-0.474404
17525		5.446027	8.242526	-0.564362	0.005804	-0.002959	-0.004619	-0.919434	-0.754639	-0.517822	0.493125	0.158970	-0.711716	-0.474358
17526		5.439655	8.199782	-0.549046	-0.001736	-0.010343	-0.001346	-0.917236	-0.752930	-0.523682	0.493090	0.158891	-0.711744	-0.474379
17527		5.399811	8.111993	-0.638367	-0.000413	-0.006116	-0.000391	-0.917725	-0.762451	-0.510498	0.493102	0.158818	-0.711730	-0.474413
17528		5.378294	8.082396	-0.619705	0.007909	-0.002391	-0.001209	-0.914795	-0.757080	-0.521729	0.493055	0.158872	-0.711796	-0.474345
17529		5.425380	8.074741	-0.625328	0.016847	-0.001523	-0.008718	-0.923828	-0.759033	-0.508789	0.493018	0.158971	-0.711825	-0.474306
17530		5.448832	8.130056	-0.604959	0.007350	0.004489	-0.004796	-0.907471	-0.756836	-0.519775	0.493011	0.159032	-0.711872	-0.474224
17531		5.416539	8.156866	-0.665304	-0.006588	-0.001402	-0.002691	-0.912598	-0.750977	-0.513428	0.493025	0.159031	-0.711807	-0.474305
17532		5.421282	8.122037	-0.691205	0.010055	-0.001972	-0.009175	-0.912842	-0.759277	-0.522949	0.492991	0.159098	-0.711838	-0.474273
17533		5.446031	8.163074	-0.735583	0.025532	0.003823	-0.007582	-0.918213	-0.753662	-0.518311	0.492979	0.159262	-0.711873	-0.474178
17534		5.392776	8.206945	-0.641826	0.017667	0.003164	-0.004056	-0.920898	-0.753174	-0.509521	0.492995	0.159327	-0.711911	-0.474082
17535		5.388515	8.189098	-0.653057	0.008118	-0.003343	-0.003432	-0.912109	-0.759033	-0.519775	0.492965	0.159326	-0.711980	-0.474009
17536		5.311390	8.131607	-0.649372	0.000506	-0.000459	-0.003699	-0.910645	-0.755859	-0.519775	0.492970	0.159351	-0.711949	-0.474042
17537		5.379981	8.153598	-0.673124	0.002062	-0.004405	-0.003754	-0.917969	-0.750488	-0.513672	0.492959	0.159359	-0.711936	-0.474071
17538		5.440104	8.193166	-0.614634	0.010902	-0.004508	-0.003295	-0.914795	-0.757080	-0.523926	0.492938	0.159354	-0.711996	-0.474004
17539		5.453268	8.194595	-0.556074	0.010181	-0.007748	-0.007183	-0.918945	-0.751709	-0.519287	0.492890	0.159382	-0.712016	-0.474014
17540		5.381310	8.140823	-0.606641	-0.009422	-0.004738	-0.001269	-0.918945	-0.757324	-0.516357	0.492917	0.159273	-0.711977	-0.474082
17541		5.416555	8.125229	-0.634224	-0.017773	-0.001245	-0.001675	-0.913818	-0.750488	-0.520264	0.492948	0.159178	-0.711906	-0.474188
17542		5.391570	8.109700	-0.683937	0.003605	0.003044	-0.003937	-0.916992	-0.756836	-0.527832	0.492994	0.159185	-0.711870	-0.474192
17543		5.418785	8.065718	-0.634706	0.021021	-0.005355	-0.009048	-0.914795	-0.757568	-0.515381	0.492945	0.159256	-0.711912	-0.474156
17544		5.458951	8.171849	-0.674150	0.017484	-0.007754	-0.010415	-0.909668	-0.758057	-0.521484	0.492851	0.159353	-0.711993	-0.474100
17545		5.418873	8.287351	-0.676232	0.003037	-0.005165	0.000228	-0.920410	-0.760498	-0.525391	0.492844	0.159340	-0.711985	-0.474123
17546		5.400442	8.236612	-0.685459	-0.007909	-0.005638	-0.003639	-0.917725	-0.760254	-0.515137	0.492839	0.159262	-0.711939	-0.474224
17547		5.351319	8.056364	-0.638929	-0.003379	-0.007850	-0.002037	-0.916992	-0.756592	-0.526123	0.492799	0.159223	-0.711956	-0.474253
17548		5.409113	8.102535	-0.680686	-0.018087	-0.005917	-0.001295	-0.919922	-0.756104	-0.507812	0.492824	0.159083	-0.711863	-0.474413
17549		5.439250	8.161765	-0.644239	-0.014203	0.001473	-0.002953	-0.915283	-0.760010	-0.514404	0.492854	0.159046	-0.711826	-0.474450
17550		5.380826	8.187034	-0.690184	-0.005283	-0.001352	-0.002833	-0.923340	-0.758545	-0.520020	0.492848	0.159042	-0.711807	-0.474486
17551		5.474308	8.224772	-0.663158	0.008007	-0.000938	-0.000445	-0.924316	-0.754883	-0.520508	0.492857	0.159032	-0.711836	-0.474437
17552		5.394261	8.305618	-0.650632	0.003730	-0.002727	-0.001953	-0.914062	-0.754150	-0.509766	0.492869	0.158990	-0.711849	-0.474418
17553		5.375332	8.151392	-0.575828	-0.010841	-0.001915	0.010588	-0.920166	-0.758057	-0.514404	0.492933	0.158881	-0.711838	-0.474406
17554		5.383239	8.101112	-0.664869	0.002658	-0.002935	0.002029	-0.918457	-0.758301	-0.518799	0.492935	0.158855	-0.711870	-0.474364
17555		5.425750	8.174753	-0.573343	-0.000804	-0.000036	0.005167	-0.912842	-0.750244	-0.511963	0.492976	0.158800	-0.711862	-0.474351
17556		5.413165	8.048842	-0.645275	-0.013181	-0.002335	0.003346	-0.915283	-0.751953	-0.527344	0.493024	0.158706	-0.711821	-0.474395
17557		5.413435	8.009883	-0.616187	0.008511	-0.001397	-0.004144	-0.916992	-0.755127	-0.522705	0.493039	0.158704	-0.711804	-0.474407
17558		5.385867	8.094462	-0.563371	0.009567	-0.005363	-0.009220	-0.918701	-0.749756	-0.509033	0.492991	0.158739	-0.711822	-0.474416
17559		5.456750	8.095745	-0.616560	-0.000185	-0.003377	-0.010237	-0.912842	-0.757812	-0.526123	0.492965	0.158767	-0.711838	-0.474410
17560		5.409209	8.214863	-0.598887	0.019068	-0.003347	-0.008290	-0.913574	-0.756348	-0.517578	0.492914	0.158853	-0.711870	-0.474386
17561		5.404064	8.314757	-0.631013	0.018236	-0.004186	-0.009185	-0.911621	-0.755127	-0.517334	0.492851	0.158956	-0.711930	-0.474328
17562		5.407238	8.294276	-0.594668	0.010304	0.002051	-0.004237	-0.914795	-0.751465	-0.515869	0.492858	0.159023	-0.711934	-0.474291
17563		5.360472	8.131077	-0.672923	-0.009519	0.001834	0.002815	-0.916016	-0.755859	-0.518555	0.492930	0.158947	-0.711879	-0.474325
17564		5.360606	8.131137	-0.671129	-0.013278	0.003757	-0.001296	-0.917725	-0.757812	-0.520264	0.492992	0.158892	-0.711792	-0.474410
17565		5.387223	8.125696	-0.714782	-0.006589	-0.001410	-0.002687	-0.916260	-0.743652	-0.522461	0.493004	0.158851	-0.711751	-0.474472
17566		5.409024	8.109462	-0.738032	0.008754	-0.009571	-0.005141	-0.921143	-0.758545	-0.516357	0.492985	0.158804	-0.711781	-0.474462
17567		5.419444	8.163972	-0.711708	0.009979	-0.006789	-0.004952	-0.913818	-0.759033	-0.518555	0.492930	0.158829	-0.711844	-0.474417
17568		5.438003	8.215478	-0.636963	0.003905	-0.004003	-0.001526	-0.921143	-0.757324	-0.515869	0.492909	0.158834	-0.711856	-0.474418
17569		5.446996	8.198453	-0.652139	-0.021877	-0.004324	-0.002745	-0.914307	-0.751709	-0.525391	0.492924	0.158721	-0.711786	-0.474547
17570		5.412530	8.089880	-0.632769	-0.017097	-0.002511	0.003784	-0.919434	-0.753174	-0.513428	0.492991	0.158566	-0.711690	-0.474673
17571		5.401721	7.996784	-0.631260	0.001244	-0.001069	-0.003556	-0.915039	-0.755859	-0.510498	0.492999	0.158571	-0.711700	-0.474648
17572		5.392540	8.132031	-0.569783	0.024526	-0.003264	-0.005036	-0.917236	-0.752441	-0.520264	0.492942	0.158702	-0.711813	-0.474494
17573		5.451289	8.218020	-0.510165	0.014854	-0.004008	-0.006383	-0.915527	-0.748047	-0.517334	0.492911	0.158745	-0.711858	-0.474444
17574		5.434142	8.231358	-0.575084	-0.001933	-0.001851	-0.002980	-0.914795	-0.753906	-0.521240	0.492938	0.158705	-0.711835	-0.474463
17575		5.427619	8.149150	-0.597031	0.001480	-0.001219	0.000280	-0.917236	-0.758301	-0.512207	0.492963	0.158672	-0.711818	-0.474473
17576		5.404269	8.165261	-0.642519	0.014548	0.003525	-0.000081	-0.910889	-0.754395	-0.516113	0.492977	0.158753	-0.711868	-0.474358
17577		5.376327	8.170604	-0.665663	0.007312	0.004171	-0.002147	-0.912109	-0.753418	-0.521973	0.493007	0.158810	-0.711859	-0.474321
17578		5.359239	8.151911	-0.669505	0.010745	0.000950	-0.002627	-0.906494	-0.760010	-0.515869	0.493024	0.158847	-0.711858	-0.474292
17579		5.358461	8.112592	-0.708602	0.002127	-0.003278	-0.000336	-0.913086	-0.758545	-0.519043	0.493007	0.158877	-0.711859	-0.474299
17580		5.390602	8.079333	-0.681694	0.018426	-0.001286	-0.007661	-0.925537	-0.761230	-0.515381	0.492962	0.158990	-0.711905	-0.474237
17581		5.433416	8.171166	-0.717365	0.014292	-0.004676	-0.006087	-0.912354	-0.760742	-0.522461	0.492902	0.159041	-0.711985	-0.474162
17582		5.429336	8.310111	-0.709909	-0.001584	-0.004405	-0.002126	-0.912354	-0.765137	-0.515625	0.492888	0.159024	-0.711961	-0.474219
17583		5.437811	8.221809	-0.701534	-0.026600	-0.004534	0.002850	-0.915283	-0.752441	-0.517334	0.492902	0.158906	-0.711871	-0.474380
17584		5.403994	8.074137	-0.653483	-0.008802	-0.007127	0.000779	-0.913818	-0.754639	-0.518799	0.492909	0.158810	-0.711850	-0.474436
17585		5.384319	8.069717	-0.659324	-0.003784	-0.006429	-0.006288	-0.912842	-0.759766	-0.519531	0.492881	0.158789	-0.711832	-0.474499
17586		5.427426	8.090934	-0.602902	-0.003650	-0.012201	-0.004297	-0.913574	-0.756836	-0.514648	0.492812	0.158752	-0.711840	-0.474571
17587		5.454612	8.117862	-0.643056	0.009839	-0.005190	-0.008025	-0.916016	-0.754883	-0.515625	0.492752	0.158819	-0.711883	-0.474546
17588		5.437690	8.178480	-0.572124	0.019452	-0.005571	-0.010082	-0.922119	-0.755859	-0.518799	0.492679	0.158919	-0.711962	-0.474472
17589		5.413925	8.234449	-0.581020	0.009214	-0.006499	-0.002432	-0.914795	-0.756592	-0.517334	0.492649	0.158902	-0.712013	-0.474431
17590		5.459192	8.240654	-0.589401	0.002664	-0.002931	0.002032	-0.913330	-0.757568	-0.512207	0.492660	0.158876	-0.712022	-0.474414
17591		5.401739	8.264960	-0.635872	-0.014239	0.001627	0.008413	-0.916016	-0.750732	-0.513672	0.492735	0.158780	-0.711968	-0.474450
17592		5.421970	8.190769	-0.636917	-0.011237	0.003685	0.007412	-0.915771	-0.758057	-0.523682	0.492833	0.158675	-0.711913	-0.474466
17593		5.338128	8.025055	-0.627166	-0.000143	0.002084	0.005634	-0.920898	-0.749756	-0.518555	0.492898	0.158629	-0.711879	-0.474465
17594		5.375808	7.995248	-0.653626	0.006877	-0.002753	-0.008586	-0.915283	-0.761230	-0.516846	0.492881	0.158643	-0.711893	-0.474456
17595		5.435795	8.067102	-0.655891	-0.000165	-0.006753	-0.005251	-0.916260	-0.756104	-0.513916	0.492829	0.158652	-0.711904	-0.474491
17596		5.420679	8.113089	-0.647358	0.005531	-0.007306	-0.006874	-0.920410	-0.756104	-0.521973	0.492769	0.158678	-0.711945	-0.474484
17597		5.458676	8.194421	-0.659571	0.011482	-0.000145	-0.011201	-0.911621	-0.749268	-0.521484	0.492741	0.158751	-0.711955	-0.474473
17598		5.420112	8.264409	-0.597227	0.014990	0.001939	-0.007186	-0.921631	-0.755615	-0.513916	0.492755	0.158830	-0.711959	-0.474426
17599		5.434916	8.251428	-0.602269	0.010087	-0.001163	-0.003099	-0.916260	-0.757568	-0.518799	0.492744	0.158855	-0.712005	-0.474360
17600		5.374205	8.258357	-0.592405	-0.003895	-0.003537	0.005409	-0.917725	-0.753906	-0.518799	0.492774	0.158775	-0.711994	-0.474372
17601		5.371289	8.114765	-0.680525	-0.005108	-0.002145	0.006310	-0.920166	-0.754150	-0.512207	0.492826	0.158676	-0.711974	-0.474382
17602		5.348199	8.098825	-0.664079	0.003887	-0.000148	0.002216	-0.912598	-0.758057	-0.519531	0.492851	0.158655	-0.711999	-0.474324
17603		5.360526	8.106792	-0.639576	0.006910	-0.001945	-0.002523	-0.916504	-0.756592	-0.520264	0.492842	0.158687	-0.712006	-0.474312
17604		5.420067	8.145943	-0.648090	0.004926	-0.000264	0.000888	-0.910645	-0.756836	-0.513184	0.492865	0.158679	-0.712006	-0.474291
17605		5.497364	8.196535	-0.684806	-0.007485	-0.002896	0.001725	-0.918701	-0.760986	-0.521240	0.492880	0.158640	-0.711981	-0.474326
17606		5.434418	8.170917	-0.746704	-0.009921	-0.004287	0.002443	-0.913574	-0.753418	-0.511719	0.492895	0.158551	-0.711944	-0.474396
17607		5.411292	8.116385	-0.701077	0.002037	-0.004727	-0.001089	-0.917236	-0.753906	-0.524658	0.492881	0.158545	-0.711968	-0.474377
17608		5.398649	8.038011	-0.637656	0.009542	-0.005686	-0.006550	-0.911865	-0.757080	-0.517090	0.492850	0.158562	-0.711986	-0.474376
17609		5.412078	8.071469	-0.638578	-0.012841	-0.009562	-0.005589	-0.923340	-0.754150	-0.522217	0.492809	0.158508	-0.711948	-0.474494
17610		5.412299	8.104374	-0.631711	-0.010199	-0.009127	-0.008529	-0.918701	-0.752197	-0.526367	0.492772	0.158428	-0.711916	-0.474606
17611		5.462590	8.193928	-0.616432	-0.008198	-0.002458	-0.009772	-0.916016	-0.757812	-0.520264	0.492778	0.158390	-0.711843	-0.474723
17612		5.442527	8.268128	-0.613303	0.002900	-0.003566	-0.002844	-0.915039	-0.751709	-0.514893	0.492763	0.158389	-0.711846	-0.474734
17613		5.390134	8.311848	-0.516399	-0.014102	-0.004638	0.001704	-0.916504	-0.754395	-0.517822	0.492793	0.158287	-0.711802	-0.474804
17614		5.384591	8.182610	-0.605855	-0.026651	-0.005190	0.008183	-0.917236	-0.755615	-0.515625	0.492857	0.158089	-0.711714	-0.474934
17615		5.359024	8.024118	-0.608466	-0.017101	-0.006696	0.002714	-0.913818	-0.751709	-0.519043	0.492870	0.157965	-0.711673	-0.475024
17616		5.399641	8.011844	-0.692238	0.010407	-0.004034	0.000394	-0.914551	-0.751465	-0.520996	0.492868	0.157972	-0.711709	-0.474970
17617		5.416092	8.155570	-0.613818	0.040380	0.000341	-0.005291	-0.913330	-0.755859	-0.522461	0.492834	0.158146	-0.711834	-0.474761
17618		5.437360	8.303019	-0.590929	0.027984	0.001879	-0.003352	-0.913086	-0.751221	-0.523682	0.492824	0.158274	-0.711901	-0.474627
17619		5.458412	8.254242	-0.620990	-0.004558	0.006061	0.002134	-0.917969	-0.760986	-0.522461	0.492920	0.158238	-0.711822	-0.474658
17620		5.391077	8.061012	-0.677475	-0.017355	0.001482	0.003694	-0.916748	-0.760986	-0.526367	0.492981	0.158134	-0.711732	-0.474764
17621		5.429899	8.102168	-0.725512	0.008880	0.004406	-0.001120	-0.928223	-0.762939	-0.515869	0.493008	0.158172	-0.711717	-0.474746
17622		5.379456	8.124096	-0.725644	0.006826	0.000782	-0.002198	-0.915283	-0.756592	-0.512939	0.492998	0.158193	-0.711752	-0.474697
17623		5.419782	8.166476	-0.641354	0.008809	-0.000899	-0.005609	-0.913574	-0.760742	-0.519043	0.492973	0.158263	-0.711783	-0.474652
17624		5.395385	8.151384	-0.625145	-0.008349	-0.004549	-0.005224	-0.910400	-0.752441	-0.515381	0.492946	0.158244	-0.711746	-0.474743
17625		5.385324	8.090829	-0.617747	-0.007080	-0.008987	-0.003800	-0.914551	-0.761719	-0.512451	0.492916	0.158204	-0.711733	-0.474806
17626		5.395179	8.106093	-0.628203	0.002709	-0.010640	-0.005435	-0.914307	-0.751709	-0.519531	0.492826	0.158222	-0.711785	-0.474817
17627		5.407259	8.232404	-0.557083	0.008449	-0.002521	-0.007546	-0.909424	-0.755371	-0.519775	0.492808	0.158271	-0.711795	-0.474804
17628		5.456548	8.211117	-0.558975	0.003579	-0.005305	-0.006107	-0.919189	-0.759033	-0.512695	0.492777	0.158304	-0.711794	-0.474826
17629		5.424916	8.159719	-0.561732	-0.001665	-0.001681	-0.001790	-0.911865	-0.762207	-0.519043	0.492767	0.158293	-0.711800	-0.474832
17630		5.421078	8.141712	-0.571203	-0.001609	-0.004727	0.000533	-0.920410	-0.759766	-0.519531	0.492753	0.158277	-0.711795	-0.474859
17631		5.394803	8.093656	-0.628355	-0.001587	-0.008583	-0.003198	-0.916504	-0.750977	-0.510986	0.492707	0.158234	-0.711810	-0.474898
17632		5.421893	8.042209	-0.677349	0.005089	-0.006203	-0.008475	-0.914307	-0.755127	-0.517334	0.492653	0.158263	-0.711847	-0.474889
17633		5.414696	8.078488	-0.654281	0.020039	-0.008752	-0.014099	-0.913818	-0.745361	-0.517334	0.492545	0.158385	-0.711928	-0.474839
17634		5.442589	8.177469	-0.652489	0.023137	-0.001067	-0.013268	-0.916748	-0.753174	-0.520264	0.492509	0.158520	-0.711983	-0.474750
17635		5.407086	8.257819	-0.679994	0.004447	0.000029	-0.006778	-0.916260	-0.749023	-0.510986	0.492516	0.158549	-0.711968	-0.474755
17636		5.402708	8.240160	-0.689439	-0.002197	0.002145	-0.003073	-0.916260	-0.761475	-0.520508	0.492550	0.158539	-0.711946	-0.474756
17637		5.392433	8.186637	-0.650255	0.001425	0.001827	-0.002042	-0.915039	-0.753174	-0.514893	0.492568	0.158558	-0.711922	-0.474765
17638		5.359124	8.141926	-0.687833	0.000975	-0.001247	-0.004730	-0.916748	-0.751709	-0.523926	0.492569	0.158567	-0.711915	-0.474772
17639		5.367259	8.132202	-0.672513	0.001861	-0.007626	-0.002589	-0.915527	-0.750244	-0.514893	0.492560	0.158523	-0.711917	-0.474793
17640		5.410323	8.223881	-0.706400	-0.001101	-0.001016	-0.002076	-0.915039	-0.750488	-0.523193	0.492583	0.158501	-0.711903	-0.474799
17641		5.440240	8.290105	-0.640358	0.003598	0.003540	0.004758	-0.914795	-0.753906	-0.515869	0.492668	0.158469	-0.711875	-0.474763
17642		5.464250	8.195415	-0.604985	0.000832	0.000842	0.000894	-0.922119	-0.761719	-0.511719	0.492703	0.158456	-0.711864	-0.474748
17643		5.399945	8.065929	-0.651059	0.004461	0.001019	0.010628	-0.915527	-0.759521	-0.522949	0.492742	0.158401	-0.711906	-0.474662
17644		5.394676	8.107903	-0.594782	0.011697	-0.000111	0.003988	-0.907959	-0.758545	-0.519775	0.492767	0.158415	-0.711932	-0.474593
17645		5.403656	8.129251	-0.640752	0.001306	0.000058	-0.000146	-0.915039	-0.751709	-0.515869	0.492792	0.158438	-0.711906	-0.474598
17646		5.456202	8.015171	-0.647051	-0.003417	-0.000640	-0.003253	-0.920898	-0.754150	-0.512939	0.492811	0.158422	-0.711878	-0.474625
17647		5.385093	7.961782	-0.629227	-0.002328	-0.004296	-0.010957	-0.910889	-0.755371	-0.518555	0.492762	0.158429	-0.711877	-0.474675
17648		5.433972	8.090678	-0.645013	0.013400	-0.002958	-0.018004	-0.914062	-0.754883	-0.513184	0.492687	0.158581	-0.711895	-0.474676
17649		5.433711	8.273440	-0.655145	0.018664	0.002267	-0.011454	-0.919922	-0.752930	-0.516113	0.492651	0.158726	-0.711939	-0.474599
17650		5.415817	8.216631	-0.631552	0.020351	-0.004085	-0.014464	-0.924561	-0.754639	-0.521729	0.492570	0.158841	-0.712011	-0.474536
17651		5.452165	8.312579	-0.582776	0.034522	-0.001980	-0.005136	-0.921143	-0.757812	-0.509033	0.492527	0.158949	-0.712135	-0.474358
17652		5.396627	8.205796	-0.608744	-0.001574	-0.000234	-0.001036	-0.911133	-0.755371	-0.518066	0.492530	0.158925	-0.712143	-0.474352
17653		5.373591	8.104650	-0.632535	-0.007544	-0.004038	-0.001672	-0.913574	-0.758057	-0.518066	0.492544	0.158884	-0.712103	-0.474412
17654		5.366389	8.061438	-0.682634	-0.003121	-0.000152	-0.004720	-0.923096	-0.754150	-0.519043	0.492555	0.158893	-0.712065	-0.474453
17655		5.374936	8.122883	-0.690398	0.013386	0.001397	-0.005568	-0.917480	-0.767090	-0.521240	0.492554	0.158936	-0.712095	-0.474394
17656		5.408911	8.232997	-0.642457	0.010472	0.000285	-0.012506	-0.911133	-0.748535	-0.510010	0.492501	0.159051	-0.712103	-0.474400
17657		5.401636	8.151312	-0.664402	-0.005081	-0.002331	-0.005039	-0.910400	-0.750732	-0.521240	0.492509	0.159038	-0.712078	-0.474433
17658		5.370923	8.054019	-0.669032	-0.004194	-0.005033	-0.010515	-0.923828	-0.757812	-0.515625	0.492495	0.159046	-0.712032	-0.474514
17659		5.352472	8.036234	-0.672336	0.004503	-0.007696	-0.014212	-0.916748	-0.755859	-0.525391	0.492404	0.159076	-0.712065	-0.474549
17660		5.425914	8.181409	-0.637888	0.004415	-0.004970	-0.013889	-0.909912	-0.755127	-0.516357	0.492357	0.159123	-0.712050	-0.474604
17661		5.429374	8.272379	-0.585692	0.004773	-0.007521	-0.013028	-0.925537	-0.751221	-0.518799	0.492287	0.159188	-0.712062	-0.474638
17662		5.416245	8.226338	-0.581767	-0.013542	-0.004495	-0.007275	-0.920410	-0.756836	-0.517090	0.492289	0.159090	-0.712008	-0.474748
17663		5.423306	8.169374	-0.700870	-0.017042	0.002265	-0.000436	-0.915039	-0.758789	-0.525635	0.492348	0.158997	-0.711924	-0.474845
17664		5.415645	8.101917	-0.657949	0.006470	-0.005013	-0.005198	-0.912842	-0.751465	-0.519287	0.492323	0.159009	-0.711930	-0.474858
17665		5.380374	8.181751	-0.686393	0.030456	-0.000542	-0.007777	-0.918213	-0.760986	-0.513916	0.492293	0.159153	-0.712017	-0.474711
17666		5.370633	8.238888	-0.636199	0.022504	-0.002668	-0.005004	-0.920654	-0.760254	-0.512451	0.492240	0.159252	-0.712110	-0.474593
17667		5.406022	8.262837	-0.629746	0.006918	-0.001936	-0.002512	-0.916016	-0.743652	-0.517334	0.492222	0.159268	-0.712147	-0.474551
17668		5.393110	8.183744	-0.631795	-0.012230	-0.003933	0.001272	-0.914551	-0.758545	-0.519531	0.492278	0.159141	-0.712093	-0.474616
17669		5.388332	8.086631	-0.716718	0.000656	-0.006237	-0.001678	-0.914795	-0.760742	-0.508789	0.492260	0.159112	-0.712098	-0.474636
17670		5.401024	8.087515	-0.724781	0.016151	-0.000065	-0.002778	-0.923828	-0.758789	-0.514893	0.492237	0.159203	-0.712165	-0.474530
17671		5.406348	8.217039	-0.636006	0.018587	-0.002848	-0.004565	-0.908447	-0.761719	-0.514404	0.492195	0.159257	-0.712246	-0.474433
17672		5.394579	8.209876	-0.595910	0.003206	-0.003076	-0.004293	-0.913330	-0.757812	-0.516602	0.492175	0.159303	-0.712249	-0.474434
17673		5.375804	8.119526	-0.642354	-0.013239	-0.007681	-0.001118	-0.914551	-0.753174	-0.514404	0.492170	0.159215	-0.712210	-0.474528
17674		5.367384	8.091010	-0.628312	-0.005644	-0.003005	-0.004745	-0.912842	-0.755859	-0.518311	0.492174	0.159187	-0.712181	-0.474577
17675		5.368296	8.116299	-0.655102	0.014043	-0.004831	-0.007240	-0.920166	-0.759033	-0.511475	0.492132	0.159253	-0.712224	-0.474534
17676		5.390421	8.179462	-0.605013	0.028351	-0.001129	-0.011159	-0.914062	-0.760010	-0.525879	0.492057	0.159409	-0.712330	-0.474399
17677		5.408052	8.263385	-0.593338	0.013123	-0.002949	-0.007807	-0.913574	-0.761230	-0.510986	0.492028	0.159474	-0.712346	-0.474383
17678		5.447962	8.219848	-0.616783	-0.007093	-0.005147	-0.000055	-0.913330	-0.760498	-0.518311	0.492021	0.159428	-0.712336	-0.474421
17679		5.425222	8.149797	-0.702248	0.005383	-0.005526	0.001432	-0.913574	-0.755127	-0.522461	0.492013	0.159411	-0.712361	-0.474398
17680		5.403394	8.158888	-0.712799	0.009058	-0.001030	-0.001762	-0.916992	-0.760254	-0.510010	0.492031	0.159428	-0.712365	-0.474367
17681		5.376971	8.157440	-0.700902	0.011223	0.000188	-0.003661	-0.911133	-0.758301	-0.515137	0.492015	0.159487	-0.712407	-0.474300
17682		5.355834	8.049640	-0.690166	-0.001640	0.002802	-0.003364	-0.910400	-0.753418	-0.517334	0.492049	0.159510	-0.712367	-0.474319
17683		5.374296	8.054970	-0.684986	0.013687	-0.002283	-0.008091	-0.911133	-0.758789	-0.514893	0.492027	0.159592	-0.712393	-0.474274
17684		5.396834	8.189233	-0.656598	0.006143	-0.002155	-0.008690	-0.922363	-0.759033	-0.515137	0.491999	0.159659	-0.712397	-0.474274
17685		5.419087	8.205599	-0.674149	0.003442	-0.003728	-0.009148	-0.915283	-0.757080	-0.513184	0.491956	0.159673	-0.712412	-0.474292
17686		5.384476	8.246696	-0.671362	0.000032	-0.003867	-0.003710	-0.916504	-0.758057	-0.520996	0.491944	0.159662	-0.712414	-0.474305
17687		5.386480	8.233024	-0.667901	-0.006119	-0.002227	-0.003706	-0.912842	-0.758545	-0.518066	0.491960	0.159621	-0.712369	-0.474370
17688		5.375387	8.100563	-0.703619	-0.008081	-0.000229	-0.002957	-0.916260	-0.750977	-0.523926	0.491989	0.159592	-0.712312	-0.474435
17689		5.384782	8.123153	-0.681299	0.001809	-0.000411	-0.003826	-0.920166	-0.752686	-0.520752	0.492023	0.159574	-0.712281	-0.474452
17690		5.366334	8.190525	-0.643921	0.003147	-0.004217	-0.007680	-0.921875	-0.757080	-0.516113	0.492008	0.159565	-0.712279	-0.474475
17691		5.355531	8.137555	-0.606087	0.009774	-0.006640	-0.008719	-0.907227	-0.758789	-0.516357	0.491948	0.159591	-0.712327	-0.474455
17692		5.356222	8.162873	-0.633467	0.004991	-0.003801	-0.005466	-0.916504	-0.750488	-0.515869	0.491927	0.159635	-0.712330	-0.474457
17693		5.425600	8.186260	-0.590704	-0.005462	-0.004288	-0.004308	-0.914307	-0.761230	-0.509033	0.491936	0.159584	-0.712304	-0.474505
17694		5.450989	8.219558	-0.664428	-0.008939	-0.001389	-0.001201	-0.912109	-0.758789	-0.512451	0.491947	0.159551	-0.712275	-0.474548
17695		5.438243	8.140433	-0.666294	0.005407	-0.001031	-0.000148	-0.907471	-0.755371	-0.514648	0.491956	0.159567	-0.712291	-0.474509
17696		5.413812	8.132306	-0.619555	0.018594	-0.002836	-0.004555	-0.911865	-0.757324	-0.521484	0.491931	0.159662	-0.712348	-0.474417
17697		5.374797	8.122689	-0.633620	0.008885	-0.003930	-0.003253	-0.918701	-0.757080	-0.507080	0.491923	0.159686	-0.712363	-0.474395
17698		5.393025	8.088222	-0.666816	0.004134	-0.004959	-0.003709	-0.921387	-0.759766	-0.517822	0.491888	0.159683	-0.712405	-0.474370
17699		5.374629	8.108521	-0.699932	0.008375	-0.003975	-0.008254	-0.919189	-0.756104	-0.510986	0.491846	0.159713	-0.712433	-0.474361
17700		5.354642	8.143835	-0.670601	0.023676	-0.005184	-0.009265	-0.921143	-0.758057	-0.511963	0.491770	0.159815	-0.712536	-0.474251
17701		5.382558	8.242624	-0.669302	0.018650	-0.002213	-0.009836	-0.921387	-0.753174	-0.517334	0.491715	0.159907	-0.712606	-0.474172
17702		5.435859	8.310629	-0.686177	0.007018	-0.004659	-0.002814	-0.916016	-0.759033	-0.514404	0.491704	0.159878	-0.712635	-0.474149
17703		5.392285	8.179589	-0.690274	-0.008396	-0.005215	0.000095	-0.914062	-0.761230	-0.511963	0.491711	0.159803	-0.712611	-0.474203
17704		5.344607	8.108838	-0.694981	0.004318	-0.006234	-0.003272	-0.907959	-0.765381	-0.507568	0.491676	0.159811	-0.712642	-0.474191
17705		5.359443	8.095982	-0.699721	0.009390	-0.004405	-0.006926	-0.909180	-0.762451	-0.518555	0.491621	0.159906	-0.712684	-0.474153
17706		5.412041	8.100525	-0.660878	0.006664	-0.006290	-0.004737	-0.909424	-0.758545	-0.512207	0.491587	0.159941	-0.712701	-0.474150
17707		5.418576	8.059119	-0.652274	0.005054	-0.007364	-0.011803	-0.918945	-0.760498	-0.510254	0.491518	0.160005	-0.712719	-0.474172
17708		5.358456	8.052905	-0.639500	0.005642	-0.006386	-0.014734	-0.915527	-0.753662	-0.509766	0.491430	0.160066	-0.712750	-0.474197
17709		5.305068	7.887023	-0.664963	0.033091	-0.009797	-0.027492	-0.909180	-0.756592	-0.519775	0.491249	0.160296	-0.712878	-0.474114
17710		5.446609	8.113144	-0.681532	0.056629	-0.013394	-0.039792	-0.917480	-0.761230	-0.508545	0.490985	0.160697	-0.713067	-0.473968
17711		5.333814	8.280264	-0.621956	0.040891	-0.001907	-0.032239	-0.907959	-0.766113	-0.509766	0.490809	0.161024	-0.713194	-0.473848
17712		5.389408	8.243820	-0.643855	0.031074	-0.004774	-0.029029	-0.916748	-0.760986	-0.505615	0.490646	0.161321	-0.713283	-0.473782
17713		5.362360	8.301061	-0.654882	0.026906	-0.000120	-0.022690	-0.913330	-0.765625	-0.510742	0.490536	0.161536	-0.713364	-0.473701
17714		5.394446	8.247089	-0.725876	0.033323	0.002616	-0.020446	-0.915771	-0.764893	-0.507324	0.490447	0.161793	-0.713447	-0.473580
17715		5.369897	8.257344	-0.740757	0.048720	-0.001604	-0.019081	-0.908936	-0.764648	-0.513916	0.490313	0.162078	-0.713619	-0.473361
17716		5.393183	8.267456	-0.728231	0.035679	-0.001388	-0.011622	-0.911865	-0.770996	-0.513184	0.490246	0.162282	-0.713724	-0.473203
17717		5.367235	8.250855	-0.783200	0.027028	-0.006254	-0.004032	-0.914307	-0.768555	-0.508057	0.490179	0.162390	-0.713832	-0.473073
17718		5.360058	8.183482	-0.743695	0.017771	-0.003968	-0.002734	-0.908447	-0.764648	-0.507568	0.490138	0.162449	-0.713909	-0.472979
17719		5.327556	8.130183	-0.814610	0.010132	-0.005318	-0.004087	-0.915771	-0.768066	-0.505615	0.490105	0.162491	-0.713950	-0.472936
17720		5.399497	8.140061	-0.770972	0.022285	-0.002810	-0.006084	-0.921875	-0.766113	-0.514160	0.490047	0.162588	-0.714042	-0.472824
17721		5.350068	8.155483	-0.737555	0.011660	-0.001742	-0.008029	-0.905762	-0.765869	-0.506836	0.490016	0.162625	-0.714072	-0.472798
17722		5.346904	8.162419	-0.773937	0.001671	-0.003035	-0.007927	-0.922119	-0.769775	-0.515137	0.489994	0.162677	-0.714063	-0.472817
17723		5.318864	8.169358	-0.729494	0.004710	-0.004852	-0.012614	-0.911133	-0.769775	-0.517334	0.489933	0.162707	-0.714071	-0.472858
17724		5.328348	8.146818	-0.711374	0.004379	-0.010676	-0.015565	-0.917969	-0.767578	-0.510010	0.489835	0.162762	-0.714079	-0.472928
17725		5.301353	8.131083	-0.763027	0.002593	-0.009952	-0.014394	-0.917480	-0.768799	-0.513672	0.489739	0.162786	-0.714102	-0.472984
17726		5.409305	8.301403	-0.723225	0.016132	-0.010403	-0.014191	-0.916504	-0.764404	-0.519043	0.489626	0.162861	-0.714173	-0.472970
17727		5.326954	8.311413	-0.688321	0.005040	0.000971	-0.009658	-0.916748	-0.771973	-0.499268	0.489627	0.162892	-0.714144	-0.473000
17728		5.325164	8.209178	-0.669850	-0.009728	-0.001672	-0.007377	-0.912842	-0.765381	-0.513184	0.489609	0.162887	-0.714117	-0.473062
17729		5.356134	8.135728	-0.744244	-0.016133	-0.003865	-0.000953	-0.913574	-0.766602	-0.514893	0.489638	0.162781	-0.714045	-0.473177
17730		5.351039	8.156305	-0.782320	0.003868	-0.000964	-0.003801	-0.914551	-0.766602	-0.508789	0.489643	0.162784	-0.714035	-0.473186
17731		5.353266	8.182532	-0.743629	0.022685	-0.009523	-0.006240	-0.918701	-0.770020	-0.518066	0.489558	0.162853	-0.714145	-0.473085
17732		5.371193	8.235626	-0.672194	0.019801	-0.009836	-0.007128	-0.912109	-0.771240	-0.501221	0.489470	0.162889	-0.714230	-0.473034
17733		5.376405	8.270795	-0.722717	-0.004406	-0.003888	0.003054	-0.913086	-0.763428	-0.503906	0.489481	0.162845	-0.714235	-0.473030
17734		5.371736	8.227869	-0.704749	-0.014020	-0.003250	0.002432	-0.920654	-0.767090	-0.511230	0.489522	0.162745	-0.714191	-0.473089
17735		5.329530	8.048779	-0.775729	-0.003446	-0.000981	-0.000602	-0.912109	-0.762939	-0.516357	0.489545	0.162686	-0.714171	-0.473115
17736		5.322233	8.052444	-0.757702	0.018844	-0.003775	-0.006681	-0.915527	-0.756348	-0.502441	0.489508	0.162747	-0.714221	-0.473057
17737		5.383860	8.221720	-0.745542	0.006427	-0.001993	-0.007458	-0.911621	-0.763916	-0.512939	0.489504	0.162781	-0.714241	-0.473020
17738		5.337980	8.215402	-0.738085	-0.007722	-0.002815	-0.002088	-0.917480	-0.763428	-0.516113	0.489523	0.162718	-0.714195	-0.473091
17739		5.343105	8.180286	-0.762263	-0.004308	0.001793	-0.009105	-0.915283	-0.765137	-0.515137	0.489539	0.162707	-0.714135	-0.473170
17740		5.329427	8.220142	-0.717163	-0.012160	-0.007562	-0.005046	-0.917236	-0.769531	-0.502441	0.489520	0.162612	-0.714088	-0.473292
17741		5.365071	8.237116	-0.740090	-0.004064	-0.002806	-0.003686	-0.911621	-0.766602	-0.503174	0.489519	0.162604	-0.714083	-0.473304
17742		5.318004	8.206104	-0.706224	-0.002300	-0.003830	-0.002215	-0.912842	-0.767578	-0.507324	0.489519	0.162596	-0.714082	-0.473307
17743		5.410210	8.236616	-0.779161	-0.005689	-0.003655	0.000559	-0.917236	-0.768311	-0.514893	0.489533	0.162543	-0.714066	-0.473336
17744		5.359391	8.295907	-0.806151	-0.021239	0.003224	0.013423	-0.913330	-0.767578	-0.506348	0.489658	0.162348	-0.713969	-0.473420
17745		5.377000	8.211193	-0.782909	-0.016518	-0.001071	0.009474	-0.909424	-0.766113	-0.514160	0.489736	0.162214	-0.713915	-0.473467
17746		5.308177	8.045544	-0.776995	0.001787	-0.000723	-0.001169	-0.914062	-0.767090	-0.508545	0.489750	0.162203	-0.713898	-0.473481
17747		5.278152	8.073284	-0.704660	0.015161	-0.004080	-0.002452	-0.912109	-0.770264	-0.504639	0.489721	0.162250	-0.713962	-0.473399
17748		5.327336	8.241409	-0.685084	-0.003399	-0.009350	-0.002671	-0.908691	-0.768555	-0.502441	0.489679	0.162222	-0.713979	-0.473425
17749		5.389267	8.259859	-0.721417	-0.019658	-0.010792	-0.000671	-0.912109	-0.765869	-0.512207	0.489662	0.162121	-0.713941	-0.473536
17750		5.376300	8.259154	-0.713017	-0.013455	-0.002586	0.002154	-0.919922	-0.763916	-0.507080	0.489700	0.162022	-0.713882	-0.473619
17751		5.367514	8.205675	-0.672192	-0.006085	-0.001411	0.002326	-0.908936	-0.764893	-0.509521	0.489740	0.161950	-0.713865	-0.473629
17752		5.391137	8.181050	-0.726071	-0.002312	0.000908	0.007475	-0.914551	-0.772217	-0.510986	0.489806	0.161893	-0.713844	-0.473611
17753		5.394632	8.166558	-0.722129	-0.005547	-0.001044	0.004675	-0.911865	-0.762207	-0.512695	0.489839	0.161828	-0.713823	-0.473632
17754		5.333531	8.140360	-0.716281	-0.006108	-0.001712	0.004965	-0.915527	-0.764648	-0.511719	0.489889	0.161742	-0.713791	-0.473657
17755		5.329932	8.058879	-0.669705	0.002826	-0.000842	-0.002488	-0.911133	-0.770752	-0.507812	0.489898	0.161739	-0.713788	-0.473652
17756		5.321438	8.101095	-0.681041	0.007625	-0.008165	-0.004105	-0.917725	-0.767822	-0.511963	0.489839	0.161767	-0.713838	-0.473630
17757		5.397674	8.185052	-0.714009	-0.005993	-0.004690	-0.006626	-0.919678	-0.772705	-0.510498	0.489815	0.161737	-0.713814	-0.473701
17758		5.419811	8.161379	-0.768212	-0.001075	-0.000734	-0.004697	-0.917236	-0.768555	-0.515869	0.489805	0.161738	-0.713803	-0.473727
17759		5.384773	8.209642	-0.733653	0.009821	0.002877	-0.003193	-0.913574	-0.761475	-0.515137	0.489816	0.161773	-0.713808	-0.473695
17760		5.337708	8.249062	-0.724856	0.011457	0.004280	0.001214	-0.912598	-0.764404	-0.514404	0.489864	0.161793	-0.713814	-0.473630
17761		5.293447	8.211170	-0.657098	0.009694	0.000819	0.001349	-0.910400	-0.760254	-0.514160	0.489889	0.161799	-0.713829	-0.473580
17762		5.328767	8.195359	-0.687949	0.008725	-0.007130	-0.002042	-0.911621	-0.767334	-0.515869	0.489862	0.161788	-0.713864	-0.473559
17763		5.312741	8.168517	-0.723208	0.001285	-0.000236	0.002496	-0.910889	-0.760986	-0.508301	0.489888	0.161749	-0.713850	-0.473567
17764		5.347698	8.160377	-0.720935	0.001787	-0.000723	-0.001169	-0.915771	-0.762451	-0.516357	0.489913	0.161751	-0.713843	-0.473551
17765		5.365221	8.141029	-0.689753	0.010570	0.002272	-0.003044	-0.911133	-0.764160	-0.506348	0.489930	0.161776	-0.713848	-0.473516
17766		5.374368	8.163872	-0.669140	0.005945	-0.001201	-0.006436	-0.915527	-0.767822	-0.516602	0.489921	0.161834	-0.713858	-0.473491
17767		5.369882	8.216738	-0.702442	-0.003527	-0.002438	-0.001335	-0.911621	-0.766602	-0.515381	0.489924	0.161780	-0.713832	-0.473546
17768		5.337283	8.123480	-0.807644	-0.009882	0.000453	-0.001788	-0.905762	-0.761230	-0.509521	0.489954	0.161723	-0.713766	-0.473634
17769		5.337251	8.163636	-0.770332	0.013852	0.000342	-0.003917	-0.914062	-0.761230	-0.507080	0.489957	0.161802	-0.713792	-0.473565
17770		5.362047	8.213408	-0.716331	0.015499	0.001492	-0.010799	-0.912842	-0.767090	-0.513184	0.489940	0.161925	-0.713823	-0.473493
17771		5.370861	8.236380	-0.696755	0.012466	-0.005663	-0.002902	-0.913818	-0.766602	-0.514404	0.489900	0.161947	-0.713874	-0.473450
17772		5.347642	8.213273	-0.712171	-0.013677	-0.006657	-0.002692	-0.912109	-0.769043	-0.508545	0.489891	0.161851	-0.713824	-0.473568
17773		5.362934	8.200448	-0.714535	-0.009296	-0.007551	-0.001506	-0.912842	-0.764404	-0.512207	0.489873	0.161789	-0.713806	-0.473634
17774		5.404010	8.149221	-0.768388	-0.005208	-0.004444	-0.000462	-0.911133	-0.762695	-0.509033	0.489880	0.161730	-0.713786	-0.473678
17775		5.373781	8.137014	-0.733216	0.015244	-0.002620	-0.001719	-0.910400	-0.761719	-0.511963	0.489870	0.161783	-0.713839	-0.473589
17776		5.374491	8.209335	-0.692269	0.014438	-0.003173	-0.005239	-0.911621	-0.759766	-0.517090	0.489845	0.161841	-0.713881	-0.473533
17777		5.318921	8.180346	-0.707084	-0.007242	-0.003606	-0.003105	-0.907715	-0.770264	-0.507568	0.489856	0.161773	-0.713834	-0.473616
17778		5.307285	8.133627	-0.702089	-0.002863	-0.000014	-0.003527	-0.918457	-0.761230	-0.513184	0.489863	0.161792	-0.713805	-0.473645
17779		5.338991	8.139879	-0.703273	0.005362	-0.002169	-0.003505	-0.914551	-0.755859	-0.518311	0.489865	0.161787	-0.713816	-0.473629
17780		5.396947	8.250809	-0.737353	0.013131	-0.003236	-0.005096	-0.911377	-0.765381	-0.505371	0.489851	0.161801	-0.713844	-0.473596
17781		5.408563	8.219629	-0.750950	0.000398	-0.002245	-0.001760	-0.911133	-0.760986	-0.510986	0.489862	0.161810	-0.713844	-0.473581
17782		5.338193	8.132718	-0.738651	0.011215	-0.000084	-0.000992	-0.921387	-0.770264	-0.510742	0.489878	0.161843	-0.713868	-0.473517
17783		5.330725	8.206896	-0.745420	0.017223	-0.004613	-0.002443	-0.912598	-0.765137	-0.502441	0.489837	0.161882	-0.713948	-0.473425
17784		5.330671	8.246931	-0.710154	0.008544	-0.005856	-0.002470	-0.911133	-0.767090	-0.511963	0.489816	0.161921	-0.714000	-0.473357
17785		5.330448	8.136413	-0.723823	-0.012395	-0.002411	-0.001799	-0.918701	-0.765869	-0.510498	0.489833	0.161854	-0.713940	-0.473453
17786		5.348250	8.109763	-0.722460	-0.008716	-0.002102	-0.006037	-0.916016	-0.756348	-0.505859	0.489836	0.161819	-0.713897	-0.473525
17787		5.369174	8.101586	-0.712847	-0.002148	-0.005962	-0.007780	-0.919434	-0.770264	-0.506348	0.489824	0.161816	-0.713894	-0.473544
17788		5.355828	8.196662	-0.758146	0.024289	-0.004475	-0.009457	-0.913086	-0.765137	-0.509766	0.489748	0.161945	-0.713996	-0.473424
17789		5.381205	8.326358	-0.631903	0.036584	-0.003817	-0.005748	-0.910156	-0.763916	-0.507080	0.489682	0.162097	-0.714134	-0.473232
17790		5.370451	8.311559	-0.625473	0.011702	-0.005354	-0.000403	-0.917236	-0.761963	-0.514648	0.489665	0.162120	-0.714187	-0.473161
17791		5.360659	8.138163	-0.697715	-0.020108	-0.000189	0.003158	-0.914307	-0.766602	-0.512695	0.489738	0.161974	-0.714092	-0.473280
17792		5.350509	8.035613	-0.791840	-0.016450	-0.000179	0.001561	-0.911133	-0.765137	-0.514893	0.489788	0.161869	-0.714013	-0.473383
17793		5.357253	8.072387	-0.773588	0.018254	0.004238	-0.006974	-0.909424	-0.765869	-0.520996	0.489785	0.161971	-0.714034	-0.473320
17794		5.368909	8.184428	-0.769961	0.030540	-0.000150	-0.010302	-0.913086	-0.760010	-0.513672	0.489718	0.162107	-0.714107	-0.473232
17795		5.350130	8.292013	-0.698058	0.006701	-0.006291	-0.004666	-0.913818	-0.769531	-0.507080	0.489690	0.162100	-0.714130	-0.473229
17796		5.309816	8.209913	-0.752729	-0.010695	-0.000114	-0.005311	-0.920898	-0.760254	-0.507324	0.489706	0.162082	-0.714073	-0.473305
17797		5.329833	8.129348	-0.785942	-0.000408	-0.002803	-0.005276	-0.916504	-0.761963	-0.510986	0.489715	0.162076	-0.714070	-0.473302
17798		5.361911	8.168107	-0.782368	0.016038	0.001863	-0.008442	-0.915527	-0.770020	-0.512207	0.489708	0.162169	-0.714099	-0.473233
17799		5.334163	8.222506	-0.670062	0.018285	0.000053	-0.007993	-0.909424	-0.765869	-0.512695	0.489669	0.162263	-0.714147	-0.473168
17800		5.350106	8.234449	-0.700779	-0.002814	-0.003911	-0.007187	-0.911621	-0.763428	-0.511719	0.489644	0.162255	-0.714120	-0.473238
17801		5.353218	8.205442	-0.759566	-0.026384	-0.009872	-0.000382	-0.920166	-0.771729	-0.514404	0.489650	0.162084	-0.714036	-0.473417
17802		5.363074	8.180512	-0.805040	-0.017432	-0.008438	0.000823	-0.910889	-0.762939	-0.513428	0.489639	0.161932	-0.713993	-0.473546
17803		5.313798	8.163118	-0.775401	0.019746	-0.006227	-0.000817	-0.907471	-0.762451	-0.517822	0.489600	0.161963	-0.714073	-0.473455
17804		5.341958	8.238685	-0.683231	0.040620	-0.001853	-0.008068	-0.913574	-0.770996	-0.502930	0.489523	0.162123	-0.714198	-0.473292
17805		5.376564	8.270881	-0.646798	0.008602	-0.000209	-0.000702	-0.913086	-0.761963	-0.505615	0.489535	0.162177	-0.714229	-0.473214
17806		5.370977	8.155648	-0.671584	-0.025367	-0.000755	0.006359	-0.909424	-0.758301	-0.505615	0.489633	0.162028	-0.714129	-0.473314
17807		5.356940	8.042404	-0.742940	-0.010179	-0.000043	-0.000326	-0.918457	-0.766113	-0.512939	0.489694	0.161988	-0.714072	-0.473351
17808		5.368997	8.114134	-0.774253	0.016024	-0.002916	-0.004194	-0.912109	-0.771729	-0.513184	0.489665	0.162030	-0.714128	-0.473282
17809		5.381173	8.225864	-0.769913	0.014236	-0.002192	-0.003027	-0.917236	-0.764160	-0.512451	0.489629	0.162071	-0.714173	-0.473238
17810		5.351600	8.246087	-0.729379	0.003947	0.000493	-0.003063	-0.910156	-0.768311	-0.508545	0.489644	0.162071	-0.714167	-0.473230
17811		5.325180	8.204433	-0.753398	-0.000669	0.002060	0.000582	-0.909668	-0.758301	-0.506836	0.489682	0.162066	-0.714142	-0.473230
17812		5.320892	8.083520	-0.744222	0.004659	-0.000975	-0.008917	-0.908691	-0.764404	-0.509033	0.489683	0.162130	-0.714134	-0.473219
17813		5.347804	8.079727	-0.723997	0.016069	-0.002323	-0.009461	-0.907715	-0.765869	-0.519531	0.489641	0.162234	-0.714176	-0.473165
17814		5.383290	8.239941	-0.730087	-0.000945	-0.003180	-0.007616	-0.914062	-0.760986	-0.505615	0.489606	0.162213	-0.714142	-0.473259
17815		5.394651	8.271902	-0.797902	-0.010149	-0.004233	-0.001350	-0.911621	-0.767578	-0.510254	0.489637	0.162158	-0.714107	-0.473300
17816		5.364639	8.259749	-0.761596	0.003936	-0.004284	0.001188	-0.910889	-0.767822	-0.507080	0.489634	0.162134	-0.714126	-0.473282
17817		5.344886	8.262291	-0.736846	0.010581	-0.002201	-0.001426	-0.907471	-0.765137	-0.517090	0.489627	0.162175	-0.714163	-0.473218
17818		5.289796	8.177530	-0.663820	0.000248	-0.000109	0.003808	-0.910645	-0.769287	-0.509521	0.489659	0.162114	-0.714139	-0.473242
17819		5.288580	8.112819	-0.674202	-0.011140	0.001533	0.001717	-0.906982	-0.773926	-0.508301	0.489710	0.162053	-0.714077	-0.473304
17820		5.362791	8.099769	-0.722775	-0.003985	-0.001360	-0.002941	-0.918213	-0.762451	-0.513428	0.489704	0.162053	-0.714050	-0.473352
17821		5.397896	8.187316	-0.770263	-0.002117	-0.000625	-0.003375	-0.916260	-0.757324	-0.512695	0.489724	0.162021	-0.714024	-0.473381
17822		5.359732	8.146775	-0.720374	0.000632	-0.002927	-0.006585	-0.916504	-0.761719	-0.508789	0.489726	0.162014	-0.714010	-0.473402
17823		5.373158	8.172587	-0.753900	0.004907	-0.001084	-0.005108	-0.915283	-0.768555	-0.517822	0.489734	0.162042	-0.714016	-0.473376
17824		5.334447	8.202610	-0.728788	0.004058	-0.002235	-0.003352	-0.909912	-0.766357	-0.504639	0.489714	0.162018	-0.714016	-0.473404
17825		5.314204	8.205520	-0.703480	0.003230	-0.003090	-0.004232	-0.913574	-0.755859	-0.504395	0.489709	0.162057	-0.714026	-0.473382
17826		5.325475	8.174661	-0.716300	0.001292	-0.000505	-0.008780	-0.921143	-0.769043	-0.512695	0.489729	0.162113	-0.714009	-0.473367
17827		5.353239	8.162965	-0.726684	-0.001145	-0.006687	-0.003804	-0.911377	-0.763916	-0.512451	0.489698	0.162067	-0.714019	-0.473400
17828		5.371498	8.176139	-0.690539	0.014620	-0.004729	-0.002142	-0.920654	-0.762939	-0.513916	0.489670	0.162095	-0.714073	-0.473337
17829		5.389617	8.252111	-0.710875	0.008366	-0.004578	-0.002894	-0.906250	-0.767578	-0.504150	0.489654	0.162083	-0.714107	-0.473307
17830		5.396336	8.248553	-0.731093	0.000360	-0.002837	0.003518	-0.921143	-0.766113	-0.514893	0.489680	0.162070	-0.714112	-0.473277
17831		5.360463	8.128808	-0.688888	-0.000211	0.000976	0.002194	-0.917969	-0.769531	-0.508301	0.489720	0.162012	-0.714097	-0.473278
17832		5.366968	8.085131	-0.746175	0.009912	-0.000139	-0.000844	-0.910889	-0.763916	-0.510986	0.489727	0.162042	-0.714130	-0.473211
17833		5.400381	8.115512	-0.774765	0.009622	-0.000620	0.000620	-0.913086	-0.764648	-0.514648	0.489742	0.162055	-0.714152	-0.473157
17834		5.418889	8.191267	-0.794425	0.008604	-0.000205	-0.000701	-0.915039	-0.761230	-0.506592	0.489750	0.162055	-0.714165	-0.473129
17835		5.382440	8.174774	-0.772328	0.014801	-0.001519	-0.003311	-0.911621	-0.768555	-0.512451	0.489754	0.162122	-0.714214	-0.473028
17836		5.338827	8.162023	-0.731511	0.013545	-0.005479	-0.006821	-0.917969	-0.770264	-0.509033	0.489693	0.162170	-0.714263	-0.473001
17837		5.268190	8.130413	-0.806940	0.001192	-0.002263	-0.006872	-0.920166	-0.766357	-0.505859	0.489672	0.162187	-0.714261	-0.473020
17838		5.314760	8.171949	-0.743202	0.007883	-0.008849	-0.008883	-0.911621	-0.762451	-0.508301	0.489612	0.162228	-0.714313	-0.472990
17839		5.339888	8.317272	-0.740006	0.008613	-0.009744	-0.006096	-0.907227	-0.759521	-0.511719	0.489557	0.162248	-0.714362	-0.472966
17840		5.385729	8.348905	-0.774533	-0.012945	-0.007582	0.000115	-0.914062	-0.767334	-0.510498	0.489567	0.162142	-0.714315	-0.473063
17841		5.374078	8.277180	-0.741806	-0.019214	-0.002668	0.009014	-0.912842	-0.770264	-0.508057	0.489636	0.161976	-0.714248	-0.473149
17842		5.308115	8.215912	-0.684178	-0.026850	0.000731	0.003424	-0.904053	-0.773193	-0.510010	0.489709	0.161840	-0.714133	-0.473293
17843		5.279494	8.107757	-0.780702	-0.056875	-0.004117	0.011695	-0.914795	-0.770020	-0.509766	0.489811	0.161519	-0.713923	-0.473614
17844		5.363886	8.084766	-0.808915	-0.031682	-0.006561	0.006513	-0.914307	-0.766113	-0.515137	0.489858	0.161311	-0.713825	-0.473785
17845		5.395976	8.201527	-0.794970	0.001341	-0.004120	-0.001164	-0.914062	-0.767822	-0.518311	0.489845	0.161273	-0.713828	-0.473807
17846		5.360258	8.162190	-0.677725	-0.008200	-0.002043	-0.001042	-0.918701	-0.765869	-0.509521	0.489848	0.161189	-0.713782	-0.473901
17847		5.395013	8.154541	-0.673210	-0.027425	-0.005287	-0.000642	-0.913330	-0.765869	-0.510498	0.489881	0.161044	-0.713688	-0.474058
17848		5.337376	8.139264	-0.687223	-0.026883	-0.004916	0.001707	-0.920166	-0.764404	-0.505859	0.489920	0.160894	-0.713592	-0.474214
17849		5.385499	8.124805	-0.720917	-0.017863	-0.007067	-0.003395	-0.916016	-0.763672	-0.505371	0.489928	0.160814	-0.713544	-0.474304
17850		5.393894	8.155808	-0.666794	0.000010	-0.004749	-0.009659	-0.908203	-0.759521	-0.519043	0.489901	0.160862	-0.713546	-0.474312
17851		5.389399	8.138165	-0.675996	-0.005259	-0.005612	-0.003811	-0.911621	-0.761963	-0.519043	0.489885	0.160802	-0.713513	-0.474399
17852		5.359503	8.221474	-0.689673	-0.004240	-0.006029	-0.002492	-0.909912	-0.766846	-0.513672	0.489866	0.160733	-0.713492	-0.474474
17853		5.333269	8.219874	-0.676782	0.006765	-0.005123	-0.001304	-0.909668	-0.755615	-0.516846	0.489838	0.160731	-0.713520	-0.474462
17854		5.339104	8.224268	-0.666559	0.023198	-0.000439	-0.004501	-0.912354	-0.765381	-0.507568	0.489824	0.160817	-0.713579	-0.474358
17855		5.353524	8.226756	-0.608447	0.007771	-0.001056	-0.001596	-0.915039	-0.767090	-0.513428	0.489832	0.160859	-0.713602	-0.474301
17856		5.405667	8.182396	-0.704358	-0.016197	-0.000312	0.005390	-0.912354	-0.771729	-0.510986	0.489891	0.160735	-0.713533	-0.474385
17857		5.350141	8.080519	-0.758710	-0.019926	0.002998	0.002017	-0.912109	-0.761230	-0.508301	0.489953	0.160645	-0.713436	-0.474498
17858		5.303909	8.041537	-0.756641	0.023217	-0.000141	-0.007136	-0.922852	-0.768799	-0.510986	0.489932	0.160785	-0.713506	-0.474367
17859		5.353873	8.163799	-0.742595	0.034372	-0.006150	-0.007253	-0.914062	-0.768311	-0.516602	0.489841	0.160919	-0.713656	-0.474190
17860		5.361961	8.257364	-0.749021	0.015499	-0.007757	-0.004938	-0.916748	-0.762695	-0.502441	0.489765	0.160944	-0.713725	-0.474155
17861		5.398028	8.251342	-0.681484	0.009274	0.002520	-0.005547	-0.912354	-0.770508	-0.517822	0.489793	0.161042	-0.713742	-0.474069
17862		5.345636	8.200385	-0.724690	0.007790	-0.000759	-0.004228	-0.913086	-0.765869	-0.506348	0.489764	0.161056	-0.713751	-0.474079
17863		5.373793	8.236153	-0.666631	0.007022	-0.000454	-0.001741	-0.914062	-0.767578	-0.507324	0.489777	0.161099	-0.713770	-0.474023
17864		5.330422	8.135369	-0.730237	-0.007353	-0.000894	-0.002794	-0.921875	-0.756836	-0.506348	0.489797	0.161082	-0.713734	-0.474063
17865		5.328160	8.078838	-0.709526	0.004964	0.000082	-0.001746	-0.916748	-0.761963	-0.510254	0.489837	0.161100	-0.713745	-0.473998
17866		5.377933	8.161246	-0.730191	0.014370	0.000168	-0.010214	-0.921143	-0.771240	-0.507812	0.489814	0.161202	-0.713776	-0.473941
17867		5.380240	8.180172	-0.722949	0.009982	-0.003728	-0.007142	-0.919434	-0.759521	-0.501221	0.489769	0.161256	-0.713822	-0.473900
17868		5.386142	8.177070	-0.744060	0.012101	-0.003100	-0.003772	-0.914551	-0.766357	-0.520264	0.489772	0.161325	-0.713877	-0.473790
17869		5.359154	8.183424	-0.700087	0.009083	0.003790	-0.005985	-0.911865	-0.768066	-0.514160	0.489773	0.161362	-0.713866	-0.473794
17870		5.349850	8.130558	-0.660774	0.003482	0.001581	-0.004677	-0.915527	-0.761230	-0.503418	0.489775	0.161384	-0.713849	-0.473809
17871		5.381860	8.129119	-0.694982	0.017223	-0.000101	-0.004054	-0.910889	-0.772705	-0.506348	0.489782	0.161486	-0.713907	-0.473681
17872		5.355180	8.127634	-0.684330	0.025846	-0.000005	-0.007394	-0.911377	-0.760986	-0.507324	0.489732	0.161640	-0.713993	-0.473550
17873		5.331095	8.159480	-0.792740	0.057974	-0.004639	-0.012402	-0.919189	-0.767090	-0.506348	0.489618	0.161929	-0.714209	-0.473243
17874		5.434906	8.415247	-0.598393	0.041448	-0.001245	-0.004544	-0.908936	-0.763672	-0.501221	0.489566	0.162105	-0.714367	-0.472997
17875		5.321320	8.146566	-0.724216	-0.013111	0.003808	-0.000202	-0.915771	-0.768311	-0.515381	0.489646	0.162084	-0.714290	-0.473038
17876		5.316636	8.048424	-0.806819	0.000537	0.000087	-0.008921	-0.913330	-0.761230	-0.510498	0.489629	0.162101	-0.714262	-0.473092
17877		5.332827	8.092853	-0.831882	0.015785	0.001978	-0.012239	-0.910156	-0.768066	-0.510498	0.489610	0.162225	-0.714281	-0.473040
17878		5.361054	8.146071	-0.834555	0.038083	-0.001064	-0.015655	-0.922852	-0.766113	-0.516846	0.489513	0.162454	-0.714398	-0.472886
17879		5.424650	8.374605	-0.779798	0.022067	-0.002647	-0.009851	-0.916016	-0.770508	-0.509033	0.489455	0.162536	-0.714467	-0.472815
17880		5.326527	8.324442	-0.783117	-0.012362	-0.006636	-0.002801	-0.905029	-0.769287	-0.515625	0.489442	0.162453	-0.714432	-0.472909
17881		5.330074	8.192060	-0.823660	-0.006391	-0.007257	-0.000582	-0.911621	-0.771240	-0.508789	0.489419	0.162375	-0.714408	-0.472995
17882		5.306971	8.176318	-0.806966	0.003026	-0.006885	0.002229	-0.910400	-0.769775	-0.515137	0.489401	0.162333	-0.714439	-0.472981
17883		5.358649	8.227763	-0.766244	0.007414	-0.002993	-0.000840	-0.910156	-0.767822	-0.511963	0.489384	0.162323	-0.714458	-0.472974
17884		5.370891	8.244377	-0.709151	-0.015249	-0.001894	0.003316	-0.916992	-0.765381	-0.511230	0.489429	0.162210	-0.714391	-0.473068
17885		5.341046	8.151692	-0.745025	-0.022718	-0.004841	0.005059	-0.914307	-0.773682	-0.514893	0.489480	0.162037	-0.714314	-0.473190
17886		5.320420	8.089623	-0.728392	-0.005967	-0.004150	0.002042	-0.912842	-0.755859	-0.503174	0.489475	0.161945	-0.714296	-0.473254
17887		5.361992	8.221403	-0.727248	0.007624	-0.003972	-0.003033	-0.920410	-0.767090	-0.504395	0.489490	0.161987	-0.714324	-0.473181
17888		5.370837	8.211919	-0.711722	-0.006237	-0.004339	0.000873	-0.915527	-0.766113	-0.507568	0.489510	0.161930	-0.714317	-0.473191
17889		5.328290	8.150810	-0.736955	-0.006546	-0.000339	0.000712	-0.918701	-0.769531	-0.505859	0.489550	0.161885	-0.714284	-0.473215
17890		5.336090	8.116961	-0.694155	-0.001291	0.000224	-0.002491	-0.915771	-0.766357	-0.510254	0.489569	0.161884	-0.714271	-0.473215
17891		5.387583	8.223406	-0.740174	0.001214	-0.001683	0.001764	-0.912354	-0.766602	-0.516602	0.489591	0.161848	-0.714273	-0.473202
17892		5.406669	8.236397	-0.702153	-0.010761	-0.001022	0.002603	-0.912598	-0.769775	-0.506836	0.489627	0.161745	-0.714216	-0.473286
17893		5.380135	8.162088	-0.729977	-0.011877	-0.002361	0.003191	-0.913818	-0.769287	-0.511719	0.489664	0.161665	-0.714174	-0.473338
17894		5.355491	8.041617	-0.760406	-0.004369	-0.003602	0.000438	-0.912598	-0.764648	-0.510254	0.489668	0.161607	-0.714159	-0.473376
17895		5.341245	8.111623	-0.777859	0.002653	0.000720	-0.005552	-0.911621	-0.768066	-0.511719	0.489676	0.161638	-0.714144	-0.473380
17896		5.309347	8.178441	-0.733657	-0.003720	0.003592	-0.006018	-0.917236	-0.759277	-0.507812	0.489699	0.161654	-0.714091	-0.473431
17897		5.341816	8.154711	-0.672878	-0.000389	-0.002522	-0.007889	-0.915527	-0.768555	-0.508545	0.489700	0.161676	-0.714077	-0.473444
17898		5.320190	8.125842	-0.652961	0.006368	-0.003161	-0.010791	-0.911377	-0.768799	-0.510742	0.489653	0.161740	-0.714093	-0.473447
17899		5.397150	8.266991	-0.707974	0.003715	-0.003881	-0.005240	-0.912109	-0.769043	-0.510498	0.489625	0.161756	-0.714102	-0.473456
17900		5.371736	8.337910	-0.652516	0.005277	-0.003917	-0.001580	-0.911621	-0.757812	-0.513672	0.489608	0.161756	-0.714124	-0.473441
17901		5.348821	8.274024	-0.705719	0.007109	-0.003763	0.003250	-0.911621	-0.762207	-0.510254	0.489631	0.161725	-0.714147	-0.473393
17902		5.388489	8.173328	-0.708058	-0.000035	-0.000584	0.005265	-0.913818	-0.761719	-0.510498	0.489684	0.161677	-0.714138	-0.473367
17903		5.382286	8.136231	-0.725268	-0.012010	0.000075	0.006107	-0.914062	-0.767090	-0.508301	0.489762	0.161573	-0.714082	-0.473407
17904		5.367315	7.998222	-0.771037	-0.005065	0.002939	-0.000609	-0.914307	-0.773193	-0.505615	0.489810	0.161558	-0.714039	-0.473427
17905		5.345948	8.031618	-0.806805	0.010624	-0.001602	-0.006691	-0.916992	-0.764648	-0.506592	0.489774	0.161634	-0.714076	-0.473382
17906		5.398611	8.180560	-0.750275	0.014763	-0.002376	-0.009307	-0.910889	-0.767090	-0.517578	0.489738	0.161731	-0.714125	-0.473314
17907		5.372064	8.211765	-0.733452	0.014687	-0.003836	-0.010030	-0.910400	-0.761719	-0.510254	0.489673	0.161799	-0.714161	-0.473302
17908		5.377597	8.249165	-0.717743	0.013937	-0.003235	-0.010178	-0.909424	-0.770508	-0.507324	0.489633	0.161892	-0.714197	-0.473259
17909		5.388659	8.321171	-0.749542	-0.008278	-0.003517	-0.001765	-0.907471	-0.766357	-0.510498	0.489637	0.161855	-0.714165	-0.473316
17910		5.342804	8.241677	-0.782908	-0.017958	-0.003788	0.005518	-0.910645	-0.767090	-0.507812	0.489688	0.161727	-0.714097	-0.473408
17911		5.334475	8.148102	-0.779730	0.009070	-0.001273	0.000908	-0.918213	-0.765625	-0.509277	0.489699	0.161750	-0.714127	-0.473344
17912		5.255855	8.158528	-0.677216	0.016867	-0.002032	-0.003305	-0.917725	-0.768555	-0.519043	0.489680	0.161808	-0.714189	-0.473251
17913		5.326303	8.167587	-0.699732	-0.007316	-0.005098	-0.003802	-0.913330	-0.762207	-0.512207	0.489658	0.161728	-0.714157	-0.473348
17914		5.346903	8.086916	-0.731267	-0.030322	-0.005658	-0.001522	-0.916504	-0.766846	-0.503662	0.489693	0.161568	-0.714040	-0.473543
17915		5.366309	8.077076	-0.786451	-0.015540	-0.002675	-0.006461	-0.917236	-0.770264	-0.512695	0.489705	0.161534	-0.713978	-0.473636
17916		5.414623	8.175686	-0.742754	0.016164	-0.000551	-0.011358	-0.913086	-0.760254	-0.512695	0.489650	0.161635	-0.714020	-0.473596
17917		5.418092	8.259213	-0.725708	0.026334	-0.000776	-0.008404	-0.919434	-0.764404	-0.507080	0.489615	0.161767	-0.714096	-0.473473
17918		5.369220	8.314519	-0.654688	0.008548	-0.001358	-0.004063	-0.912598	-0.766357	-0.509766	0.489614	0.161804	-0.714123	-0.473419
17919		5.342937	8.224674	-0.747167	-0.014477	-0.002214	0.000846	-0.905762	-0.764648	-0.506592	0.489651	0.161717	-0.714063	-0.473501
17920		5.300894	8.100995	-0.715387	-0.019584	-0.015057	-0.001598	-0.914551	-0.765381	-0.515625	0.489617	0.161598	-0.714028	-0.473630
17921		5.320680	7.987997	-0.754542	0.002282	-0.011348	-0.004918	-0.917725	-0.776611	-0.511475	0.489551	0.161557	-0.714058	-0.473667
17922		5.366027	8.100480	-0.716591	0.019619	-0.009391	-0.013504	-0.909668	-0.761230	-0.509766	0.489417	0.161652	-0.714152	-0.473632
17923		5.382204	8.225521	-0.667765	-0.003532	-0.002751	-0.012563	-0.910156	-0.761719	-0.516602	0.489396	0.161694	-0.714112	-0.473699
17924		5.341431	8.040934	-0.701712	-0.018499	0.000593	-0.014947	-0.915527	-0.768311	-0.509766	0.489398	0.161678	-0.713990	-0.473886
17925		5.378437	8.037238	-0.753647	0.016363	0.003250	-0.017798	-0.915527	-0.765869	-0.513428	0.489348	0.161845	-0.714008	-0.473853
17926		5.444514	8.379755	-0.738634	0.022607	0.002824	-0.014417	-0.906006	-0.770996	-0.505127	0.489304	0.162003	-0.714052	-0.473779
17927		5.390727	8.384787	-0.683390	0.032252	-0.002542	-0.009542	-0.911621	-0.772217	-0.506836	0.489233	0.162195	-0.714165	-0.473616
17928		5.326045	8.269762	-0.666087	0.021357	-0.001139	-0.004023	-0.900879	-0.759521	-0.517578	0.489202	0.162296	-0.714240	-0.473500
17929		5.306969	8.216202	-0.742168	-0.004110	-0.003708	0.004242	-0.918945	-0.770996	-0.510986	0.489244	0.162223	-0.714207	-0.473532
17930		5.334455	8.106880	-0.767351	-0.016888	0.001728	0.005933	-0.912842	-0.762451	-0.510010	0.489318	0.162093	-0.714134	-0.473610
17931		5.327814	8.022099	-0.853114	0.000860	0.001440	-0.004386	-0.924316	-0.771729	-0.508057	0.489347	0.162112	-0.714109	-0.473611
17932		5.355237	8.153476	-0.846931	0.029442	-0.001413	-0.009694	-0.915771	-0.772217	-0.515381	0.489278	0.162252	-0.714220	-0.473467
17933		5.351910	8.288521	-0.742313	0.021105	-0.001040	-0.007817	-0.909424	-0.766357	-0.509277	0.489223	0.162338	-0.714283	-0.473399
17934		5.345676	8.316598	-0.751227	0.002936	-0.003861	-0.000117	-0.920410	-0.763916	-0.513672	0.489228	0.162327	-0.714294	-0.473382
17935		5.299859	8.284920	-0.717314	-0.002605	-0.004907	0.004545	-0.916016	-0.766602	-0.508789	0.489250	0.162224	-0.714296	-0.473390
17936		5.325555	8.254144	-0.736321	-0.003823	-0.003227	0.002780	-0.907471	-0.765625	-0.510742	0.489277	0.162160	-0.714288	-0.473398
17937		5.322963	8.140446	-0.694273	-0.003495	-0.001866	0.007301	-0.917480	-0.772705	-0.507812	0.489331	0.162085	-0.714271	-0.473393
17938		5.364500	8.096568	-0.716542	0.000827	0.000860	0.000874	-0.911133	-0.769531	-0.513184	0.489355	0.162067	-0.714268	-0.473379
17939		5.382932	8.172261	-0.734567	-0.006730	0.006284	0.004621	-0.909668	-0.761230	-0.512207	0.489438	0.162010	-0.714205	-0.473407
17940		5.403047	8.169397	-0.759555	-0.004893	0.001373	0.002462	-0.918945	-0.765625	-0.502197	0.489501	0.161964	-0.714161	-0.473424
17941		5.382681	8.099481	-0.775577	-0.004635	-0.003798	-0.000725	-0.912354	-0.765869	-0.501709	0.489521	0.161936	-0.714156	-0.473421
17942		5.350343	8.093392	-0.774471	0.001160	-0.002851	-0.001589	-0.914062	-0.770264	-0.511230	0.489536	0.161954	-0.714164	-0.473387
17943		5.360166	8.148694	-0.748790	0.011772	-0.004737	-0.005638	-0.907715	-0.762207	-0.508301	0.489488	0.161995	-0.714210	-0.473352
17944		5.363969	8.232110	-0.730214	0.002502	-0.002203	-0.006991	-0.914307	-0.768066	-0.502441	0.489486	0.162039	-0.714200	-0.473355
17945		5.342798	8.202981	-0.710472	0.006822	-0.004535	-0.006528	-0.917725	-0.764404	-0.509033	0.489455	0.162092	-0.714233	-0.473318
17946		5.397062	8.233135	-0.698183	0.004802	-0.003122	-0.000553	-0.909912	-0.765869	-0.509521	0.489461	0.162080	-0.714254	-0.473285
17947		5.358390	8.222590	-0.710220	0.001643	-0.003642	-0.002604	-0.909424	-0.763184	-0.505615	0.489458	0.162078	-0.714255	-0.473287
17948		5.374118	8.209512	-0.714263	0.003116	-0.005419	0.002959	-0.911865	-0.765625	-0.513184	0.489474	0.162056	-0.714279	-0.473242
17949		5.338247	8.152419	-0.727403	-0.008700	-0.001566	0.002612	-0.912598	-0.757080	-0.508057	0.489515	0.161976	-0.714236	-0.473293
17950		5.322661	8.124922	-0.761451	0.007947	-0.002891	0.004127	-0.920898	-0.769287	-0.511719	0.489554	0.161963	-0.714266	-0.473211
17951		5.336354	8.198246	-0.727728	0.020893	-0.000061	-0.005634	-0.906982	-0.765625	-0.507080	0.489523	0.162046	-0.714334	-0.473113
17952		5.332316	8.187825	-0.706710	0.002364	-0.004819	0.002809	-0.920166	-0.764160	-0.510498	0.489535	0.162023	-0.714350	-0.473084
17953		5.374315	8.168601	-0.755553	-0.004470	-0.000590	-0.001908	-0.910889	-0.768066	-0.503662	0.489562	0.161982	-0.714321	-0.473113
17954		5.385690	8.105186	-0.772413	-0.009226	-0.001658	-0.002354	-0.916016	-0.760254	-0.502197	0.489584	0.161956	-0.714281	-0.473161
17955		5.341741	8.155120	-0.784302	-0.005960	0.000899	-0.004841	-0.916992	-0.770752	-0.510010	0.489622	0.161962	-0.714240	-0.473179
17956		5.391333	8.142862	-0.753240	0.000078	-0.003613	-0.006259	-0.911377	-0.764404	-0.509277	0.489593	0.161961	-0.714239	-0.473211
17957		5.348733	8.154672	-0.736997	0.005242	-0.004795	-0.007551	-0.915527	-0.762939	-0.510254	0.489561	0.161998	-0.714254	-0.473210
17958		5.332757	8.240830	-0.692429	0.008058	-0.005926	-0.007390	-0.918945	-0.766602	-0.511719	0.489521	0.162030	-0.714285	-0.473193
17959		5.334888	8.219525	-0.721923	0.000323	-0.009075	-0.006808	-0.908203	-0.765869	-0.507568	0.489466	0.162004	-0.714303	-0.473232
17960		5.326278	8.158893	-0.714112	0.002004	-0.001702	-0.003342	-0.919189	-0.765625	-0.509033	0.489472	0.162024	-0.714298	-0.473228
17961		5.334141	8.117496	-0.703886	0.001266	-0.000814	-0.006123	-0.912354	-0.770020	-0.513916	0.489470	0.162036	-0.714289	-0.473238
17962		5.362868	8.130369	-0.739889	-0.008008	0.001715	-0.007477	-0.912842	-0.756348	-0.506348	0.489480	0.162029	-0.714224	-0.473329
17963		5.353706	8.172617	-0.750068	-0.000581	-0.006321	-0.001424	-0.916504	-0.774658	-0.514160	0.489490	0.162005	-0.714229	-0.473319
17964		5.337653	8.178013	-0.779474	0.005637	-0.007334	-0.006657	-0.914551	-0.762939	-0.516357	0.489420	0.162003	-0.714262	-0.473343
17965		5.350746	8.243963	-0.777761	0.019003	-0.006442	-0.006917	-0.914062	-0.771240	-0.508789	0.489361	0.162061	-0.714331	-0.473278
17966		5.375515	8.302164	-0.693141	0.010600	-0.002169	-0.001417	-0.910889	-0.764404	-0.509277	0.489347	0.162087	-0.714371	-0.473224
17967		5.383185	8.187821	-0.725297	-0.010476	-0.000561	0.001143	-0.906006	-0.773926	-0.510010	0.489396	0.162024	-0.714317	-0.473277
17968		5.392029	8.097745	-0.782820	-0.003461	-0.001289	0.002042	-0.909424	-0.759766	-0.509033	0.489415	0.161987	-0.714296	-0.473301
17969		5.336427	8.083733	-0.733236	0.010058	-0.002551	-0.003753	-0.915283	-0.764648	-0.514160	0.489417	0.162035	-0.714321	-0.473246
17970		5.314594	8.157347	-0.733667	0.016203	-0.005026	-0.009703	-0.909912	-0.770996	-0.504150	0.489357	0.162108	-0.714374	-0.473203
17971		5.345876	8.204460	-0.699291	0.004514	0.001455	-0.005981	-0.916504	-0.764404	-0.506836	0.489359	0.162170	-0.714370	-0.473185
17972		5.363394	8.272903	-0.749209	-0.013264	0.001141	-0.004276	-0.908936	-0.770264	-0.506104	0.489401	0.162130	-0.714298	-0.473265
17973		5.310629	8.189238	-0.794726	-0.009013	-0.002648	-0.004531	-0.920898	-0.767334	-0.506348	0.489403	0.162109	-0.714256	-0.473333
17974		5.317875	8.163704	-0.721715	0.023228	-0.000385	-0.004459	-0.915283	-0.764160	-0.513672	0.489377	0.162204	-0.714340	-0.473200
17975		5.366854	8.302186	-0.644683	0.027627	-0.001252	-0.003268	-0.915283	-0.768799	-0.504395	0.489351	0.162301	-0.714432	-0.473055
17976		5.367251	8.294001	-0.678453	-0.002598	-0.004905	0.004549	-0.912598	-0.755615	-0.512207	0.489369	0.162234	-0.714443	-0.473043
17977		5.384357	8.137393	-0.699047	-0.014041	-0.003886	0.007721	-0.916016	-0.763184	-0.511475	0.489447	0.162095	-0.714388	-0.473092
17978		5.409142	8.128759	-0.810469	-0.004982	-0.000377	0.004367	-0.917480	-0.760254	-0.510254	0.489502	0.162021	-0.714360	-0.473103
17979		5.338662	8.119514	-0.788500	0.003520	0.002463	0.001307	-0.916016	-0.764404	-0.506348	0.489558	0.162012	-0.714351	-0.473063
17980		5.366221	8.042786	-0.809375	-0.000592	0.003808	-0.001340	-0.910645	-0.765869	-0.512695	0.489609	0.162020	-0.714322	-0.473051
17981		5.347701	8.102313	-0.804557	0.009197	0.001065	-0.006256	-0.907715	-0.770264	-0.517822	0.489607	0.162081	-0.714326	-0.473026
17982		5.335252	8.206819	-0.750708	0.004368	-0.001468	-0.007420	-0.902100	-0.766846	-0.512939	0.489582	0.162111	-0.714315	-0.473058
17983		5.307999	8.165393	-0.774979	0.002283	-0.006591	-0.009142	-0.918945	-0.755127	-0.508301	0.489534	0.162146	-0.714312	-0.473100
17984		5.313288	8.210810	-0.726838	0.008941	-0.009256	-0.007499	-0.920166	-0.766602	-0.509521	0.489490	0.162170	-0.714360	-0.473065
17985		5.351154	8.254436	-0.711839	0.005246	-0.004798	-0.007539	-0.914795	-0.765869	-0.514160	0.489452	0.162188	-0.714382	-0.473065
17986		5.353344	8.289078	-0.640760	0.007823	-0.005515	0.000061	-0.913574	-0.769775	-0.510986	0.489437	0.162168	-0.714417	-0.473034
17987		5.353688	8.281037	-0.672905	-0.008289	-0.003824	0.000879	-0.915527	-0.769043	-0.506836	0.489449	0.162091	-0.714388	-0.473091
17988		5.311472	8.179157	-0.733989	-0.020375	-0.005224	0.006256	-0.913086	-0.769775	-0.510986	0.489494	0.161935	-0.714330	-0.473186
17989		5.325347	7.996356	-0.794669	-0.002004	0.001703	0.003339	-0.910889	-0.769531	-0.511475	0.489540	0.161893	-0.714307	-0.473188
17990		5.364497	8.079601	-0.742457	0.025849	-0.000242	-0.004744	-0.915283	-0.774658	-0.514404	0.489505	0.162009	-0.714389	-0.473061
17991		5.405028	8.252114	-0.707020	0.012767	-0.000662	-0.005942	-0.911865	-0.767578	-0.511719	0.489468	0.162058	-0.714422	-0.473032
17992		5.412667	8.170469	-0.733900	-0.007830	0.000148	-0.004400	-0.912842	-0.762695	-0.511475	0.489487	0.162033	-0.714368	-0.473102
17993		5.375967	8.106138	-0.778179	-0.004265	-0.006946	-0.008424	-0.914795	-0.767822	-0.507324	0.489454	0.162019	-0.714350	-0.473168
17994		5.362908	8.130128	-0.798497	0.008964	-0.003603	-0.005785	-0.912842	-0.764648	-0.499512	0.489425	0.162063	-0.714383	-0.473134
17995		5.359670	8.217214	-0.761821	0.019939	-0.003542	-0.010567	-0.911621	-0.769043	-0.507568	0.489375	0.162205	-0.714457	-0.473026
17996		5.348459	8.243359	-0.717109	0.016838	-0.002893	-0.009265	-0.913574	-0.761719	-0.512695	0.489324	0.162308	-0.714511	-0.472961
17997		5.369882	8.227275	-0.741597	0.008912	0.000589	-0.004791	-0.909180	-0.762695	-0.513916	0.489335	0.162350	-0.714516	-0.472927
17998		5.304424	8.182742	-0.744918	-0.003022	-0.002973	-0.004945	-0.908936	-0.768799	-0.507812	0.489340	0.162337	-0.714485	-0.472974
17999		5.338999	8.167577	-0.774504	0.000908	-0.002760	-0.005373	-0.904785	-0.767090	-0.510742	0.489328	0.162355	-0.714478	-0.472990
18000		5.333004	8.228188	-0.776707	0.002218	-0.002689	-0.005515	-0.914062	-0.768311	-0.512207	0.489319	0.162383	-0.714469	-0.473005
18001		5.326796	8.256260	-0.784380	0.002746	-0.002588	-0.000555	-0.920410	-0.765137	-0.507080	0.489323	0.162361	-0.714474	-0.473000
18002		5.277898	8.238672	-0.754201	0.003627	-0.005918	-0.000672	-0.907471	-0.766602	-0.509277	0.489311	0.162332	-0.714505	-0.472976
18003		5.294874	8.155320	-0.733400	-0.003663	-0.005390	-0.002739	-0.921143	-0.770752	-0.512939	0.489305	0.162306	-0.714490	-0.473013
18004		5.374015	8.122836	-0.745061	0.003984	-0.003979	-0.001416	-0.909668	-0.775635	-0.509521	0.489287	0.162273	-0.714511	-0.473011
18005		5.404237	8.207704	-0.739715	-0.000357	-0.001939	0.000744	-0.913086	-0.759766	-0.503174	0.489290	0.162245	-0.714508	-0.473023
18006		5.423741	8.205117	-0.765469	-0.009313	-0.003421	-0.000436	-0.922852	-0.772461	-0.513184	0.489328	0.162197	-0.714472	-0.473055
18007		5.360686	8.081740	-0.774895	-0.001382	-0.001533	-0.000575	-0.914307	-0.770996	-0.509521	0.489330	0.162142	-0.714465	-0.473081
18008		5.320111	8.149642	-0.779635	0.008126	-0.004749	-0.004023	-0.914307	-0.768799	-0.500488	0.489294	0.162160	-0.714501	-0.473058
18009		5.306787	8.197134	-0.705949	0.014022	-0.007095	0.000096	-0.910889	-0.772949	-0.513916	0.489263	0.162192	-0.714583	-0.472956
18010		5.335049	8.185180	-0.718005	0.006346	-0.003745	-0.005493	-0.920410	-0.770508	-0.514893	0.489225	0.162210	-0.714599	-0.472964
18011		5.375214	8.150087	-0.709394	-0.002153	-0.006589	-0.002431	-0.909668	-0.767334	-0.506592	0.489194	0.162142	-0.714603	-0.473014
18012		5.437010	8.201136	-0.742373	0.000539	-0.004984	-0.001999	-0.913086	-0.763672	-0.509521	0.489187	0.162134	-0.714608	-0.473016
18013		5.477052	8.260453	-0.784641	0.002179	-0.003543	0.002369	-0.912842	-0.761719	-0.506836	0.489208	0.162098	-0.714618	-0.472992
18014		5.407247	8.283286	-0.758137	0.005414	-0.001552	0.005132	-0.910400	-0.767578	-0.505371	0.489253	0.162076	-0.714637	-0.472924
18015		5.366852	8.158745	-0.727997	0.006241	-0.000690	0.006002	-0.910645	-0.769531	-0.513916	0.489295	0.162061	-0.714660	-0.472850
18016		5.272431	8.020579	-0.768922	0.001437	-0.002660	-0.000411	-0.911621	-0.763672	-0.506592	0.489298	0.162036	-0.714657	-0.472861
18017		5.297028	7.998285	-0.757503	0.010318	-0.008010	-0.004278	-0.916504	-0.765381	-0.506836	0.489257	0.162066	-0.714709	-0.472814
18018		5.333407	8.104456	-0.800238	0.023058	-0.003910	-0.014483	-0.912598	-0.762207	-0.500488	0.489177	0.162214	-0.714786	-0.472730
18019		5.372590	8.277745	-0.766265	0.026223	-0.003381	-0.012432	-0.914062	-0.763184	-0.511475	0.489116	0.162387	-0.714876	-0.472597
18020		5.385034	8.351932	-0.733452	0.010222	0.000659	-0.004932	-0.911377	-0.771973	-0.508057	0.489124	0.162437	-0.714888	-0.472555
18021		5.345142	8.276690	-0.755601	-0.004829	-0.002540	-0.001158	-0.912598	-0.773682	-0.514160	0.489131	0.162400	-0.714865	-0.472594
18022		5.295792	8.186327	-0.766620	-0.001123	-0.001622	0.003219	-0.914795	-0.764648	-0.507080	0.489149	0.162339	-0.714856	-0.472610
18023		5.322224	8.228254	-0.744001	0.007693	-0.003062	0.002968	-0.909180	-0.766113	-0.507080	0.489167	0.162325	-0.714889	-0.472546
18024		5.327501	8.168002	-0.743286	0.005653	-0.001970	-0.002297	-0.914307	-0.768799	-0.509521	0.489173	0.162349	-0.714899	-0.472517
18025		5.348365	8.094970	-0.745045	-0.006295	-0.005819	0.000181	-0.920654	-0.766846	-0.503174	0.489172	0.162278	-0.714885	-0.472564
18026		5.347858	8.062719	-0.749459	-0.012418	-0.002774	0.000864	-0.907227	-0.766602	-0.505859	0.489203	0.162191	-0.714845	-0.472621
18027		5.341158	8.050743	-0.791929	-0.018864	-0.006194	-0.009910	-0.915039	-0.769043	-0.508301	0.489187	0.162151	-0.714766	-0.472771
18028		5.345260	8.102517	-0.898812	0.006598	0.001489	-0.011221	-0.920898	-0.774170	-0.502930	0.489167	0.162231	-0.714760	-0.472774
18029		5.404645	8.323976	-0.632009	0.024798	-0.000433	-0.014648	-0.912842	-0.768311	-0.509277	0.489085	0.162395	-0.714842	-0.472679
18030		5.401138	8.433364	-0.809703	-0.009644	-0.004801	-0.004939	-0.913330	-0.768799	-0.511230	0.489077	0.162348	-0.714802	-0.472763
18031		5.369825	8.173095	-0.714163	-0.028691	0.001063	0.007200	-0.913574	-0.764404	-0.513428	0.489176	0.162169	-0.714679	-0.472908
18032		5.353707	8.072801	-0.787588	-0.010208	-0.000380	0.002309	-0.916992	-0.770996	-0.508545	0.489229	0.162086	-0.714623	-0.472965
18033		5.345910	8.179213	-0.787888	0.013867	0.000402	-0.003903	-0.905518	-0.768066	-0.504395	0.489216	0.162143	-0.714664	-0.472899
18034		5.310622	8.235223	-0.722965	0.007906	-0.004046	0.000787	-0.913574	-0.768311	-0.498291	0.489218	0.162166	-0.714697	-0.472838
18035		5.319085	8.201490	-0.681205	-0.003046	-0.003545	0.000316	-0.921631	-0.757812	-0.507080	0.489231	0.162143	-0.714698	-0.472831
18036		5.353359	8.121278	-0.720701	-0.012287	-0.005509	0.000602	-0.918213	-0.771484	-0.510742	0.489260	0.162038	-0.714661	-0.472893
18037		5.331198	8.129845	-0.729229	-0.003117	-0.005007	-0.000399	-0.910400	-0.771240	-0.514404	0.489248	0.161976	-0.714660	-0.472928
18038		5.422767	8.192870	-0.798954	0.007448	0.002685	0.000868	-0.911377	-0.769287	-0.507812	0.489278	0.161990	-0.714661	-0.472891
18039		5.391316	8.259178	-0.756326	0.010763	0.001050	-0.002606	-0.915527	-0.765381	-0.507080	0.489285	0.162044	-0.714683	-0.472832
18040		5.372076	8.086309	-0.754127	0.005512	0.000481	0.000593	-0.916748	-0.766357	-0.507568	0.489313	0.162048	-0.714692	-0.472787
18041		5.378691	8.123136	-0.737824	0.015378	-0.000796	-0.003595	-0.927002	-0.760986	-0.516602	0.489302	0.162108	-0.714741	-0.472705
18042		5.321533	8.171722	-0.745158	-0.001111	-0.006714	-0.003729	-0.915283	-0.770020	-0.513916	0.489278	0.162038	-0.714745	-0.472748
18043		5.279881	8.167104	-0.791172	-0.010883	-0.003410	-0.004078	-0.911621	-0.768311	-0.514160	0.489275	0.161971	-0.714695	-0.472849
18044		5.307102	8.131361	-0.774013	-0.007224	-0.003389	-0.005671	-0.910156	-0.765869	-0.511475	0.489266	0.161935	-0.714654	-0.472933
18045		5.329678	8.220507	-0.749149	0.004223	-0.004398	-0.008839	-0.912354	-0.769531	-0.513916	0.489230	0.161973	-0.714658	-0.472951
18046		5.366904	8.280491	-0.670642	0.010562	-0.003052	-0.007377	-0.914795	-0.766113	-0.510254	0.489190	0.162020	-0.714685	-0.472936
18047		5.380017	8.297941	-0.737538	0.006799	-0.010758	-0.002940	-0.912109	-0.767090	-0.515869	0.489133	0.162000	-0.714737	-0.472922
18048		5.376433	8.287397	-0.716526	0.006282	-0.010813	0.005950	-0.904785	-0.762939	-0.511475	0.489108	0.161915	-0.714793	-0.472892
18049		5.343289	8.151024	-0.737508	-0.001164	-0.008126	0.009405	-0.907471	-0.762207	-0.508789	0.489139	0.161819	-0.714809	-0.472870
18050		5.362762	8.082938	-0.775586	0.012090	-0.004199	0.006775	-0.913574	-0.768799	-0.508545	0.489167	0.161811	-0.714860	-0.472766
18051		5.389500	8.124518	-0.754774	0.021769	0.001449	0.003830	-0.917480	-0.775391	-0.512939	0.489186	0.161866	-0.714933	-0.472618
18052		5.366170	8.043558	-0.750013	0.012196	0.003484	0.003932	-0.914795	-0.764160	-0.505615	0.489211	0.161865	-0.714963	-0.472547
18053		5.382196	8.222176	-0.791812	0.038174	0.005846	-0.010591	-0.910645	-0.769043	-0.505859	0.489188	0.162098	-0.715062	-0.472340
18054		5.367257	8.078908	-0.683811	0.010302	-0.002975	-0.011159	-0.916260	-0.770020	-0.510986	0.489141	0.162190	-0.715087	-0.472320
18055		5.300452	7.945982	-0.792300	-0.013276	-0.009364	-0.015534	-0.906494	-0.767334	-0.504883	0.489062	0.162160	-0.715039	-0.472484
18056		5.340842	8.200838	-0.802938	0.004044	-0.007953	-0.018846	-0.908691	-0.770996	-0.510010	0.488972	0.162267	-0.715045	-0.472532
18057		5.333421	8.294816	-0.800881	0.006877	-0.003420	-0.016990	-0.913330	-0.765137	-0.506348	0.488900	0.162370	-0.715046	-0.472570
18058		5.357123	8.338360	-0.780494	0.029418	-0.002276	-0.015620	-0.909668	-0.760498	-0.502930	0.488821	0.162563	-0.715135	-0.472450
18059		5.381356	8.397621	-0.696089	0.002500	0.003156	-0.002649	-0.914551	-0.771484	-0.507080	0.488876	0.162608	-0.715111	-0.472414
18060		5.344814	8.267722	-0.749293	-0.024073	-0.000511	0.003574	-0.917480	-0.765137	-0.507080	0.488941	0.162466	-0.715013	-0.472544
18061		5.321950	8.130398	-0.840016	-0.015041	0.002447	0.005465	-0.909912	-0.770752	-0.505127	0.489030	0.162359	-0.714939	-0.472600
18062		5.347995	8.140132	-0.821405	0.006541	0.000082	0.001912	-0.912842	-0.767578	-0.510254	0.489055	0.162371	-0.714956	-0.472545
18063		5.308175	8.072692	-0.812481	0.011110	-0.002665	-0.005037	-0.914795	-0.774902	-0.506592	0.489033	0.162416	-0.714987	-0.472505
18064		5.356444	8.179649	-0.739172	0.001100	-0.004317	-0.002281	-0.915527	-0.761475	-0.510498	0.489010	0.162397	-0.715000	-0.472516
18065		5.359455	8.198381	-0.729815	-0.016277	-0.006918	-0.002302	-0.921143	-0.759521	-0.509033	0.489022	0.162293	-0.714942	-0.472627
18066		5.364959	8.162868	-0.754072	0.000266	-0.010840	-0.004834	-0.912354	-0.765381	-0.510986	0.488977	0.162247	-0.714967	-0.472651
18067		5.346199	8.214179	-0.782995	0.019226	-0.007971	-0.003793	-0.908691	-0.773438	-0.508789	0.488922	0.162297	-0.715052	-0.472563
18068		5.331973	8.237804	-0.684220	0.017293	-0.010177	-0.004062	-0.910645	-0.770508	-0.508057	0.488842	0.162340	-0.715141	-0.472496
18069		5.354052	8.221312	-0.708179	-0.007528	-0.004435	0.001049	-0.919922	-0.766602	-0.503174	0.488855	0.162273	-0.715116	-0.472543
18070		5.321221	8.142274	-0.747215	-0.021783	-0.001748	-0.001203	-0.917969	-0.766846	-0.510742	0.488898	0.162165	-0.715030	-0.472666
18071		5.336781	8.081110	-0.816714	-0.016743	-0.000189	-0.002224	-0.912109	-0.769287	-0.510742	0.488936	0.162076	-0.714949	-0.472780
18072		5.368974	8.160837	-0.774515	-0.003076	0.001488	-0.006578	-0.915283	-0.761963	-0.511475	0.488948	0.162088	-0.714906	-0.472829
18073		5.409962	8.182749	-0.786753	0.007470	-0.002124	-0.008697	-0.910156	-0.763428	-0.510986	0.488928	0.162136	-0.714914	-0.472821
18074		5.382856	8.189602	-0.742624	0.012297	0.000424	-0.007547	-0.914551	-0.772217	-0.506592	0.488922	0.162219	-0.714929	-0.472775
18075		5.389757	8.250909	-0.752717	0.005998	-0.000306	-0.000418	-0.911865	-0.768066	-0.506348	0.488930	0.162227	-0.714945	-0.472740
18076		5.351015	8.248171	-0.731732	-0.008539	0.001903	-0.001208	-0.915527	-0.766113	-0.505371	0.488979	0.162198	-0.714889	-0.472785
18077		5.292154	8.167362	-0.757879	-0.003506	-0.002195	-0.003916	-0.907715	-0.769287	-0.504639	0.488987	0.162185	-0.714868	-0.472812
18078		5.290424	8.111241	-0.736621	0.001532	-0.000635	-0.004940	-0.919434	-0.763184	-0.503906	0.488993	0.162223	-0.714856	-0.472811
18079		5.312481	8.168027	-0.718170	0.010428	-0.005977	-0.008790	-0.910645	-0.763672	-0.509521	0.488944	0.162276	-0.714902	-0.472775
18080		5.354210	8.254647	-0.720428	-0.004322	-0.002782	-0.007405	-0.913330	-0.762939	-0.511475	0.488942	0.162281	-0.714866	-0.472828
18081		5.360552	8.243280	-0.770551	-0.014077	-0.004805	0.001767	-0.911865	-0.764893	-0.506348	0.488977	0.162173	-0.714813	-0.472910
18082		5.408112	8.204467	-0.779723	-0.000757	0.000597	-0.000154	-0.908447	-0.769531	-0.514893	0.489017	0.162166	-0.714793	-0.472902
18083		5.379140	8.216575	-0.770160	0.011802	0.000939	-0.003914	-0.913330	-0.770020	-0.511963	0.489017	0.162220	-0.714809	-0.472859
18084		5.336311	8.171110	-0.732754	0.002542	-0.001597	0.001626	-0.917725	-0.758545	-0.501709	0.489033	0.162189	-0.714812	-0.472848
18085		5.343637	8.151014	-0.815628	-0.006022	-0.005913	0.003983	-0.914795	-0.773193	-0.501465	0.489068	0.162111	-0.714808	-0.472845
18086		5.358504	8.130065	-0.728939	-0.003733	-0.007146	-0.000802	-0.913818	-0.776123	-0.514404	0.489045	0.162064	-0.714819	-0.472868
18087		5.346358	8.137270	-0.812038	-0.002547	-0.004061	-0.003309	-0.913574	-0.771484	-0.509521	0.489019	0.162023	-0.714808	-0.472925
18088		5.352489	8.182556	-0.762573	-0.001301	0.000207	-0.002480	-0.907471	-0.760010	-0.503906	0.489032	0.162012	-0.714788	-0.472947
18089		5.345208	8.153978	-0.748899	0.007589	0.000244	-0.002024	-0.917725	-0.767822	-0.511719	0.489065	0.162069	-0.714795	-0.472882
18090		5.320087	8.249322	-0.721335	0.020564	-0.001670	-0.007504	-0.913818	-0.770020	-0.512695	0.489022	0.162158	-0.714860	-0.472798
18091		5.367296	8.251148	-0.695931	-0.000350	-0.001939	0.000749	-0.911865	-0.766602	-0.509033	0.489035	0.162116	-0.714852	-0.472810
18092		5.342069	8.240957	-0.713187	-0.011045	-0.001537	0.004069	-0.909668	-0.760986	-0.508545	0.489089	0.162027	-0.714804	-0.472858
18093		5.399682	8.176361	-0.769083	-0.015317	-0.003416	0.002626	-0.921143	-0.765625	-0.504150	0.489144	0.161932	-0.714740	-0.472930
18094		5.351263	8.110081	-0.805424	-0.004553	-0.002354	0.000017	-0.911621	-0.763916	-0.507324	0.489163	0.161881	-0.714727	-0.472947
18095		5.331568	8.112911	-0.779085	0.004087	0.003707	-0.004255	-0.908447	-0.766602	-0.508301	0.489199	0.161931	-0.714707	-0.472923
18096		5.308759	8.170231	-0.720614	0.014284	-0.001840	-0.005626	-0.904541	-0.767822	-0.505371	0.489180	0.162012	-0.714746	-0.472856
18097		5.388183	8.211025	-0.691491	0.008083	-0.000268	-0.005656	-0.916992	-0.771973	-0.502441	0.489180	0.162088	-0.714754	-0.472818
18098		5.374895	8.202278	-0.717025	-0.001033	-0.005257	-0.002999	-0.905273	-0.769287	-0.504150	0.489154	0.162064	-0.714766	-0.472835
18099		5.392864	8.135375	-0.753672	-0.004535	-0.001795	-0.005230	-0.909180	-0.772461	-0.503662	0.489160	0.162079	-0.714734	-0.472872
18100		5.348663	8.176692	-0.798163	0.002698	0.001890	-0.002199	-0.913330	-0.760742	-0.504395	0.489180	0.162110	-0.714726	-0.472854
18101		5.348455	8.217359	-0.762029	0.009316	-0.001937	-0.003887	-0.918457	-0.761230	-0.504639	0.489181	0.162156	-0.714752	-0.472797
18102		5.341359	8.221194	-0.744038	0.010289	0.002136	-0.004222	-0.920410	-0.767822	-0.509766	0.489198	0.162212	-0.714768	-0.472735
18103		5.286045	8.199170	-0.725781	-0.002273	-0.003867	-0.002144	-0.913818	-0.762695	-0.503906	0.489192	0.162165	-0.714763	-0.472766
18104		5.334344	8.209078	-0.788118	-0.012747	-0.004177	-0.003619	-0.910889	-0.761719	-0.516357	0.489206	0.162110	-0.714714	-0.472845
18105		5.350971	8.093973	-0.770836	-0.005564	-0.001395	-0.006546	-0.911621	-0.767578	-0.507324	0.489222	0.162102	-0.714662	-0.472908
18106		5.358224	8.179676	-0.806512	0.008006	-0.002009	-0.003744	-0.915039	-0.768555	-0.504883	0.489213	0.162139	-0.714684	-0.472872
18107		5.341848	8.282037	-0.699174	0.010422	-0.006252	-0.006162	-0.910400	-0.765137	-0.508301	0.489161	0.162178	-0.714735	-0.472836
18108		5.365641	8.227897	-0.693521	0.001103	-0.015635	-0.005634	-0.914795	-0.766602	-0.510986	0.489079	0.162146	-0.714779	-0.472865
18109		5.362042	8.201474	-0.735280	-0.000776	-0.011279	0.001734	-0.907227	-0.756592	-0.512695	0.489049	0.162066	-0.714808	-0.472879
18110		5.333156	8.180941	-0.730509	-0.006841	-0.006783	0.003124	-0.913574	-0.768799	-0.508789	0.489087	0.161991	-0.714784	-0.472903
18111		5.335732	8.093992	-0.770085	0.014745	-0.003467	0.001234	-0.909180	-0.765381	-0.505615	0.489076	0.162012	-0.714845	-0.472815
18112		5.349430	8.207989	-0.701120	0.029510	-0.000716	-0.001095	-0.908447	-0.766846	-0.509277	0.489062	0.162134	-0.714947	-0.472633
18113		5.393314	8.350172	-0.726852	0.009021	-0.002968	0.002822	-0.910645	-0.759277	-0.498291	0.489077	0.162137	-0.714980	-0.472567
18114		5.376281	8.233522	-0.743806	-0.017452	0.001299	0.003585	-0.911377	-0.766113	-0.506348	0.489164	0.162052	-0.714900	-0.472627
18115		5.347649	8.013465	-0.733191	-0.009592	-0.009578	-0.000629	-0.916260	-0.769531	-0.510986	0.489148	0.161970	-0.714886	-0.472692
18116		5.334494	7.996576	-0.790098	0.008847	-0.000586	-0.008125	-0.908447	-0.770264	-0.508057	0.489123	0.162027	-0.714899	-0.472678
18117		5.373864	8.161768	-0.786798	0.019058	-0.000192	-0.010436	-0.911865	-0.772217	-0.505371	0.489081	0.162160	-0.714946	-0.472605
18118		5.380790	8.288123	-0.787097	0.009333	0.004280	-0.007455	-0.919922	-0.767334	-0.515381	0.489083	0.162247	-0.714946	-0.472573
18119		5.380206	8.288455	-0.787599	0.003318	0.004025	-0.001789	-0.911865	-0.762695	-0.508545	0.489124	0.162250	-0.714924	-0.472564
18120		5.350029	8.211620	-0.761607	0.007174	0.002505	-0.000306	-0.914551	-0.765625	-0.505859	0.489167	0.162281	-0.714923	-0.472509
18121		5.350695	8.243704	-0.757273	0.007643	0.001156	0.003933	-0.916992	-0.769287	-0.504639	0.489209	0.162277	-0.714942	-0.472439
18122		5.314839	8.161909	-0.743249	-0.008773	-0.003330	0.004532	-0.918701	-0.768066	-0.510986	0.489238	0.162178	-0.714922	-0.472474
18123		5.337633	8.145075	-0.765961	0.001983	-0.008203	0.002873	-0.916016	-0.769531	-0.493652	0.489222	0.162106	-0.714955	-0.472465
18124		5.377147	8.220606	-0.744674	-0.008144	-0.000917	0.002322	-0.915039	-0.766113	-0.509033	0.489250	0.162046	-0.714934	-0.472488
18125		5.347420	8.135524	-0.749144	-0.006970	-0.003771	0.000760	-0.917480	-0.758057	-0.506836	0.489269	0.161978	-0.714909	-0.472529
18126		5.298251	8.085642	-0.723244	0.008355	-0.000072	-0.004492	-0.916748	-0.763916	-0.505371	0.489280	0.162018	-0.714922	-0.472486
18127		5.310356	8.135705	-0.663022	0.013053	-0.000170	-0.007390	-0.908936	-0.766846	-0.507812	0.489261	0.162095	-0.714953	-0.472430
18128		5.375332	8.221640	-0.746359	-0.002674	-0.001057	-0.005668	-0.916748	-0.777588	-0.509277	0.489269	0.162109	-0.714923	-0.472464
18129		5.375573	8.278686	-0.766824	-0.011848	-0.001574	-0.004662	-0.915771	-0.761963	-0.501953	0.489264	0.162054	-0.714870	-0.472568
18130		5.355669	8.233126	-0.807341	-0.013711	0.003340	-0.002545	-0.913574	-0.760742	-0.510986	0.489323	0.162012	-0.714791	-0.472640
18131		5.339346	8.213846	-0.808453	0.004962	-0.000178	0.000886	-0.911377	-0.766846	-0.510498	0.489360	0.162010	-0.714793	-0.472601
18132		5.358387	8.227395	-0.772834	0.013302	-0.006465	-0.000035	-0.916992	-0.764160	-0.509521	0.489334	0.162027	-0.714854	-0.472528
18133		5.308715	8.153149	-0.722202	0.006342	-0.009960	-0.001896	-0.915039	-0.764648	-0.508057	0.489289	0.162000	-0.714903	-0.472510
18134		5.361515	8.095013	-0.694574	-0.003240	-0.013603	-0.003469	-0.914062	-0.763184	-0.506592	0.489229	0.161936	-0.714927	-0.472557
18135		5.354613	8.082687	-0.739170	-0.004059	-0.008533	-0.005281	-0.911377	-0.764648	-0.508789	0.489197	0.161903	-0.714925	-0.472606
18136		5.389759	8.132384	-0.758045	-0.008190	-0.001550	-0.006251	-0.923828	-0.765625	-0.498047	0.489209	0.161891	-0.714873	-0.472676
18137		5.386627	8.211540	-0.751383	0.011398	0.003759	-0.007447	-0.910400	-0.764404	-0.511963	0.489201	0.161964	-0.714897	-0.472624
18138		5.404894	8.266358	-0.678234	0.007815	0.005475	-0.007766	-0.916016	-0.766846	-0.502197	0.489230	0.162054	-0.714873	-0.472598
18139		5.337401	8.218740	-0.747359	-0.006627	-0.002114	0.002633	-0.912354	-0.760010	-0.509766	0.489259	0.161986	-0.714854	-0.472621
18140		5.340055	8.172479	-0.749034	0.004001	-0.003973	-0.001395	-0.913330	-0.768799	-0.506104	0.489266	0.161982	-0.714864	-0.472599
18141		5.294541	8.173264	-0.711263	0.025108	-0.005515	-0.003950	-0.911133	-0.764160	-0.507080	0.489207	0.162072	-0.714969	-0.472470
18142		5.319800	8.207752	-0.723626	0.020912	-0.005659	-0.007298	-0.910645	-0.767822	-0.510254	0.489152	0.162170	-0.715048	-0.472374
18143		5.393472	8.219489	-0.801995	-0.008066	-0.004840	-0.001261	-0.904785	-0.765625	-0.504883	0.489160	0.162115	-0.715016	-0.472432
18144		5.348558	8.220226	-0.760664	-0.010630	0.001860	0.004026	-0.911133	-0.759766	-0.510986	0.489239	0.162063	-0.714954	-0.472463
18145		5.391400	8.216766	-0.867012	0.000340	0.001661	0.001870	-0.909668	-0.759277	-0.512695	0.489301	0.162051	-0.714928	-0.472442
18146		5.358000	8.137629	-0.786252	0.006546	0.000095	0.001903	-0.910400	-0.777588	-0.507568	0.489350	0.162061	-0.714930	-0.472386
18147		5.338568	8.107644	-0.766185	0.004679	-0.006588	0.003299	-0.914795	-0.761963	-0.509033	0.489328	0.162022	-0.714971	-0.472359
18148		5.333103	8.167590	-0.768987	0.000690	-0.002061	-0.000553	-0.912842	-0.763672	-0.506348	0.489349	0.162003	-0.714964	-0.472354
18149		5.367864	8.168513	-0.735200	-0.004067	-0.003152	-0.000984	-0.910889	-0.760742	-0.514893	0.489365	0.161967	-0.714946	-0.472378
18150		5.364084	8.150335	-0.743834	-0.002817	-0.004265	-0.004457	-0.918701	-0.766602	-0.513916	0.489374	0.161957	-0.714919	-0.472413
18151		5.360583	8.213312	-0.679357	0.003662	-0.005635	-0.003262	-0.911865	-0.767578	-0.510498	0.489352	0.161941	-0.714935	-0.472416
18152		5.395647	8.238536	-0.671956	-0.012203	-0.003796	-0.001281	-0.914795	-0.766602	-0.509766	0.489371	0.161872	-0.714884	-0.472498
18153		5.366411	8.169573	-0.734030	-0.011862	-0.002134	0.000590	-0.912598	-0.770508	-0.501953	0.489405	0.161793	-0.714832	-0.472568
18154		5.353290	8.136314	-0.730932	-0.009726	-0.001192	0.001309	-0.906738	-0.764648	-0.502686	0.489431	0.161727	-0.714796	-0.472619
18155		5.353701	8.111748	-0.826118	0.008553	-0.001614	-0.001419	-0.916504	-0.770020	-0.507568	0.489436	0.161767	-0.714821	-0.472562
18156		5.351052	8.198447	-0.790010	0.025106	0.000147	-0.002285	-0.913086	-0.768555	-0.499268	0.489411	0.161860	-0.714908	-0.472424
18157		5.379876	8.267551	-0.729373	0.010899	-0.007600	-0.001912	-0.910889	-0.767822	-0.496338	0.489359	0.161873	-0.714977	-0.472370
18158		5.345913	8.139993	-0.717418	-0.009929	-0.005586	-0.000814	-0.918701	-0.767334	-0.500977	0.489352	0.161808	-0.714957	-0.472428
18159		5.371364	8.093375	-0.798743	-0.014618	-0.005213	-0.000535	-0.916260	-0.763184	-0.499512	0.489352	0.161704	-0.714919	-0.472522
18160		5.333317	8.155423	-0.766456	-0.006408	-0.002827	-0.002153	-0.913330	-0.765869	-0.513428	0.489356	0.161659	-0.714899	-0.472564
18161		5.355086	8.139269	-0.789122	0.002771	-0.002028	-0.005786	-0.910645	-0.768555	-0.503662	0.489353	0.161683	-0.714890	-0.472573
18162		5.390055	8.196993	-0.778203	0.019185	0.002466	-0.006402	-0.917480	-0.760498	-0.510010	0.489340	0.161803	-0.714937	-0.472474
18163		5.358667	8.336459	-0.694145	0.002140	-0.004718	-0.000949	-0.916016	-0.760498	-0.509521	0.489340	0.161774	-0.714947	-0.472468
18164		5.358402	8.263414	-0.735440	-0.020150	-0.006540	0.006748	-0.910400	-0.772217	-0.505127	0.489391	0.161605	-0.714887	-0.472564
18165		5.330862	8.075467	-0.718926	-0.014829	-0.004224	0.001637	-0.914551	-0.763184	-0.502930	0.489412	0.161512	-0.714838	-0.472648
18166		5.365985	8.059998	-0.748085	0.003038	-0.002108	-0.002003	-0.920410	-0.769043	-0.509766	0.489412	0.161512	-0.714848	-0.472633
18167		5.331451	8.172861	-0.703052	-0.002404	-0.000862	-0.004500	-0.913330	-0.768311	-0.515869	0.489410	0.161494	-0.714827	-0.472673
18168		5.388354	8.141241	-0.754901	-0.003507	0.003734	-0.004855	-0.913330	-0.758301	-0.501709	0.489451	0.161509	-0.714771	-0.472711
18169		5.404193	8.201572	-0.716604	0.011180	-0.001185	-0.004331	-0.916992	-0.763672	-0.505615	0.489444	0.161563	-0.714803	-0.472650
18170		5.391844	8.249085	-0.764095	0.006970	-0.001884	-0.002436	-0.909668	-0.770996	-0.507324	0.489439	0.161575	-0.714826	-0.472618
18171		5.406564	8.187874	-0.715665	0.007929	-0.004025	0.000794	-0.901367	-0.762695	-0.511719	0.489432	0.161585	-0.714861	-0.472567
18172		5.325856	8.114856	-0.752129	-0.000201	-0.004394	-0.002121	-0.909668	-0.763672	-0.504395	0.489451	0.161600	-0.714846	-0.472565
18173		5.294614	8.156708	-0.803663	-0.002621	-0.000150	0.000289	-0.914795	-0.770020	-0.502197	0.489487	0.161583	-0.714823	-0.472569
18174		5.315880	8.124565	-0.767932	0.001394	0.002370	-0.007302	-0.914062	-0.761719	-0.511719	0.489482	0.161622	-0.714806	-0.472586
18175		5.324451	8.148245	-0.748144	0.018709	-0.002121	-0.009685	-0.913086	-0.767578	-0.503174	0.489445	0.161733	-0.714856	-0.472512
18176		5.336887	8.255173	-0.709718	0.004573	-0.002471	-0.009555	-0.914062	-0.771729	-0.506104	0.489406	0.161784	-0.714864	-0.472522
18177		5.342486	8.252146	-0.728845	-0.013646	-0.006806	-0.002542	-0.906738	-0.766846	-0.502441	0.489391	0.161701	-0.714826	-0.472623
18178		5.348094	8.216592	-0.752652	-0.006401	-0.008492	-0.003815	-0.921875	-0.767090	-0.514160	0.489362	0.161668	-0.714819	-0.472675
18179		5.347147	8.184614	-0.758111	0.002699	-0.003770	-0.003869	-0.921143	-0.764648	-0.501465	0.489345	0.161651	-0.714826	-0.472688
18180		5.343873	8.198585	-0.762543	0.005104	-0.002905	0.000629	-0.909668	-0.767334	-0.513184	0.489334	0.161618	-0.714858	-0.472662
18181		5.370154	8.232642	-0.772173	0.005510	0.000221	0.003203	-0.918945	-0.766602	-0.511230	0.489379	0.161621	-0.714861	-0.472610
18182		5.423890	8.182289	-0.712447	0.005444	-0.001244	0.002497	-0.918213	-0.759521	-0.505371	0.489399	0.161595	-0.714878	-0.472573
18183		5.410802	8.108138	-0.748051	-0.000969	-0.004351	0.002969	-0.907471	-0.774902	-0.501465	0.489413	0.161527	-0.714886	-0.472569
18184		5.384340	8.049765	-0.711881	-0.015236	-0.001417	-0.001889	-0.920898	-0.762695	-0.503418	0.489435	0.161477	-0.714823	-0.472660
18185		5.319286	7.996718	-0.744296	-0.007223	-0.003146	-0.008251	-0.908691	-0.765137	-0.506836	0.489409	0.161447	-0.714792	-0.472743
18186		5.358113	8.162305	-0.739403	0.002095	-0.005075	-0.012138	-0.912354	-0.765869	-0.514893	0.489363	0.161510	-0.714788	-0.472775
18187		5.386454	8.272635	-0.762045	0.013335	0.000870	-0.014097	-0.912354	-0.770020	-0.506104	0.489334	0.161643	-0.714796	-0.472748
18188		5.388033	8.316466	-0.660552	0.021392	-0.000775	-0.006648	-0.916748	-0.761963	-0.502197	0.489296	0.161756	-0.714864	-0.472645
18189		5.367302	8.205898	-0.714966	0.002423	-0.004244	-0.002406	-0.913086	-0.761963	-0.509277	0.489280	0.161737	-0.714881	-0.472643
18190		5.346065	8.030609	-0.778748	0.001880	-0.010577	-0.003768	-0.905762	-0.769043	-0.501465	0.489235	0.161711	-0.714909	-0.472655
18191		5.356510	8.166944	-0.802449	0.015330	-0.007883	-0.005969	-0.917725	-0.774170	-0.503906	0.489173	0.161788	-0.714982	-0.472584
18192		5.361509	8.196719	-0.697385	0.012366	-0.003760	-0.008503	-0.911865	-0.761963	-0.503906	0.489107	0.161848	-0.715033	-0.472554
18193		5.341715	8.207614	-0.762276	0.000019	-0.005112	-0.006899	-0.910889	-0.767822	-0.509277	0.489081	0.161857	-0.715031	-0.472580
18194		5.347647	8.204353	-0.781455	-0.003796	0.002978	-0.000776	-0.909180	-0.763916	-0.509033	0.489135	0.161853	-0.714985	-0.472595
18195		5.376211	8.192552	-0.791712	0.006689	0.003584	-0.001934	-0.912842	-0.770508	-0.513184	0.489181	0.161905	-0.714974	-0.472547
18196		5.404150	8.140324	-0.839941	0.012357	0.001903	-0.006840	-0.917236	-0.758301	-0.510742	0.489182	0.161996	-0.714987	-0.472496
18197		5.345013	8.116330	-0.767918	0.015946	0.000192	-0.006517	-0.917969	-0.767090	-0.510742	0.489174	0.162073	-0.715022	-0.472424
18198		5.319596	8.244288	-0.734637	-0.001498	-0.003923	-0.007208	-0.913818	-0.760010	-0.510742	0.489151	0.162068	-0.715009	-0.472470
18199		5.308950	8.221901	-0.754549	-0.022535	-0.006602	-0.005600	-0.915771	-0.764648	-0.514404	0.489161	0.161967	-0.714919	-0.472630
18200		5.317343	8.172790	-0.773185	-0.017777	-0.005505	-0.005171	-0.909180	-0.762451	-0.510986	0.489169	0.161884	-0.714844	-0.472763
18201		5.326361	8.204576	-0.719519	-0.000404	-0.003128	-0.002569	-0.907715	-0.762451	-0.515625	0.489185	0.161883	-0.714830	-0.472769
18202		5.329093	8.223366	-0.711686	0.006712	-0.007738	-0.005252	-0.911621	-0.767090	-0.514648	0.489162	0.161916	-0.714852	-0.472748
18203		5.386095	8.240508	-0.696499	0.000147	-0.002457	-0.002868	-0.910156	-0.770752	-0.508545	0.489176	0.161918	-0.714836	-0.472757
18204		5.382510	8.189714	-0.709649	-0.017306	-0.007402	0.004306	-0.913086	-0.770264	-0.512451	0.489200	0.161787	-0.714789	-0.472848
18205		5.376388	8.144372	-0.757263	-0.014892	-0.005983	0.003563	-0.913818	-0.765381	-0.509766	0.489228	0.161671	-0.714743	-0.472929
18206		5.351164	8.133963	-0.774593	0.004687	-0.000643	0.002338	-0.907959	-0.766357	-0.512207	0.489258	0.161659	-0.714751	-0.472888
18207		5.337637	8.125211	-0.679559	0.022699	-0.000964	-0.004179	-0.915283	-0.769531	-0.514648	0.489247	0.161775	-0.714817	-0.472761
18208		5.382230	8.157116	-0.717532	0.015808	-0.003008	-0.005314	-0.911621	-0.764160	-0.515381	0.489220	0.161846	-0.714866	-0.472691
18209		5.378523	8.171270	-0.722872	0.004773	-0.004289	-0.003852	-0.911621	-0.759277	-0.507568	0.489219	0.161868	-0.714872	-0.472675
18210		5.371700	8.158742	-0.767125	-0.006680	-0.003037	-0.003302	-0.905762	-0.768799	-0.503662	0.489238	0.161838	-0.714835	-0.472722
18211		5.361570	8.127732	-0.819908	0.003870	-0.000961	-0.003758	-0.912109	-0.765625	-0.503174	0.489236	0.161871	-0.714837	-0.472709
18212		5.332744	8.212802	-0.769185	0.020765	0.002762	-0.005395	-0.917725	-0.761719	-0.509033	0.489225	0.161981	-0.714892	-0.472600
18213		5.370434	8.224288	-0.760781	0.015459	0.000991	-0.005516	-0.910889	-0.767334	-0.513428	0.489221	0.162056	-0.714927	-0.472526
18214		5.327454	8.179082	-0.723727	0.008984	-0.003588	-0.005742	-0.909912	-0.761475	-0.501221	0.489206	0.162110	-0.714947	-0.472493
18215		5.379503	8.263752	-0.800007	-0.010068	-0.003144	0.002070	-0.914307	-0.770752	-0.510498	0.489236	0.162030	-0.714912	-0.472541
18216		5.388223	8.157415	-0.798829	-0.002820	-0.004823	0.000798	-0.920166	-0.765869	-0.512695	0.489240	0.161980	-0.714908	-0.472560
18217		5.336072	8.097002	-0.750605	0.015808	-0.003282	-0.002689	-0.907959	-0.763672	-0.507324	0.489219	0.162021	-0.714965	-0.472482
18218		5.317172	8.188558	-0.743221	0.016230	-0.005542	-0.004394	-0.920654	-0.771973	-0.507324	0.489186	0.162090	-0.715027	-0.472399
18219		5.310695	8.216420	-0.751639	-0.003446	-0.001023	-0.000569	-0.920654	-0.755615	-0.508545	0.489194	0.162042	-0.715011	-0.472431
18220		5.341571	8.126251	-0.767835	-0.008409	-0.000582	-0.004068	-0.909668	-0.769531	-0.509766	0.489224	0.161997	-0.714959	-0.472494
18221		5.334616	8.162796	-0.742960	0.000979	-0.001040	-0.007244	-0.919922	-0.775879	-0.512695	0.489220	0.162037	-0.714940	-0.472513
18222		5.331235	8.241902	-0.736768	0.001671	-0.003375	-0.005173	-0.916504	-0.768555	-0.502930	0.489193	0.162034	-0.714943	-0.472537
18223		5.385288	8.272968	-0.724501	-0.002409	-0.001146	-0.001873	-0.911133	-0.766602	-0.503662	0.489195	0.162003	-0.714931	-0.472563
18224		5.356000	8.211933	-0.755972	0.000209	-0.001267	0.000456	-0.909912	-0.769043	-0.509521	0.489213	0.161983	-0.714928	-0.472557
18225		5.365506	8.202677	-0.739767	-0.002766	0.002579	0.000537	-0.922607	-0.761230	-0.505127	0.489266	0.161974	-0.714890	-0.472562
18226		5.375262	8.176871	-0.786380	-0.007040	0.000411	0.001728	-0.910889	-0.770020	-0.508545	0.489304	0.161895	-0.714857	-0.472600
18227		5.413321	8.123372	-0.785080	-0.003317	0.001908	0.000837	-0.913818	-0.770996	-0.517090	0.489350	0.161877	-0.714823	-0.472610
18228		5.384329	8.135419	-0.774776	0.004908	-0.001084	-0.005060	-0.911865	-0.765625	-0.500732	0.489354	0.161914	-0.714819	-0.472601
18229		5.344722	8.108763	-0.728133	0.004437	-0.005954	-0.005709	-0.920166	-0.764648	-0.503418	0.489308	0.161925	-0.714847	-0.472602
18230		5.343842	8.101077	-0.760349	-0.004734	-0.006217	-0.007312	-0.914307	-0.768799	-0.508301	0.489262	0.161888	-0.714840	-0.472672
18231		5.320344	8.110118	-0.769295	-0.003971	-0.006538	-0.009774	-0.908936	-0.765137	-0.508545	0.489215	0.161887	-0.714825	-0.472743
