// Start Time: Unknown
// Update Rate: 60.0Hz
// Filter Profile: human (46.1)
// Firmware Version: 4.6.0
PacketCounter	SampleTimeFine	Acc_X	Acc_Y	Acc_Z	Gyr_X	Gyr_Y	Gyr_Z	Mag_X	Mag_Y	Mag_Z	Quat_q0	Quat_q1	Quat_q2	Quat_q3
14215		9.005434	-1.621613	-3.506420	-0.020122	-0.020499	0.005396	-0.677734	0.404297	0.526367	0.282410	-0.775778	-0.277473	-0.491347
14216		8.994051	-1.750030	-3.499406	-0.020570	-0.028202	0.009172	-0.672607	0.403809	0.520508	0.282249	-0.775963	-0.277395	-0.491190
14217		8.958611	-1.718217	-3.547040	-0.023243	-0.017286	0.012710	-0.675781	0.400391	0.520996	0.282159	-0.776098	-0.277250	-0.491111
14218		9.042605	-1.664963	-3.527728	-0.032171	-0.018375	0.017637	-0.670898	0.402100	0.525146	0.282001	-0.776282	-0.277043	-0.491027
14219		8.985026	-1.858582	-3.527761	-0.023456	-0.028708	0.020556	-0.675049	0.398193	0.523682	0.281861	-0.776506	-0.276882	-0.490845
14220		8.969498	-1.867862	-3.556539	-0.007318	-0.018767	0.011898	-0.667480	0.405273	0.523193	0.281812	-0.776636	-0.276816	-0.490705
14221		8.965774	-1.886097	-3.604998	0.000092	-0.020314	0.006440	-0.670166	0.405273	0.527832	0.281839	-0.776724	-0.276807	-0.490555
14222		8.962524	-1.732793	-3.583925	0.000401	0.001035	0.003473	-0.674072	0.404541	0.514160	0.281879	-0.776736	-0.276767	-0.490537
14223		8.997570	-1.781556	-3.552746	-0.015426	0.009126	0.006274	-0.678223	0.407227	0.522461	0.281954	-0.776715	-0.276605	-0.490617
14224		8.964189	-1.873159	-3.539768	-0.000702	0.001099	0.001348	-0.670166	0.404053	0.520264	0.282050	-0.776702	-0.276557	-0.490611
14225		8.997304	-1.887056	-3.535600	0.026969	0.001286	-0.011971	-0.671143	0.407471	0.520996	0.282257	-0.776604	-0.276704	-0.490563
14226		8.975784	-1.760934	-3.562044	0.030341	0.001024	-0.009416	-0.676270	0.399414	0.520996	0.282522	-0.776503	-0.276838	-0.490496
14227		8.990726	-1.645728	-3.604856	0.002926	0.010519	-0.002694	-0.677002	0.403076	0.519043	0.282609	-0.776463	-0.276800	-0.490529
14228		8.965343	-1.753793	-3.485870	-0.002890	0.007889	0.002892	-0.670410	0.409180	0.528809	0.282708	-0.776452	-0.276704	-0.490543
14229		8.991645	-1.823584	-3.511516	0.005944	0.010803	0.000535	-0.669922	0.405762	0.518311	0.282840	-0.776440	-0.276645	-0.490519
14230		8.983325	-1.793594	-3.549397	0.022696	0.004638	-0.002953	-0.669189	0.405518	0.521240	0.283081	-0.776357	-0.276694	-0.490486
14231		8.988070	-1.809724	-3.528379	0.019975	0.003884	-0.003032	-0.670410	0.400391	0.517090	0.283287	-0.776306	-0.276730	-0.490426
14232		8.990188	-1.720746	-3.556349	0.003916	0.005617	-0.003791	-0.672852	0.408447	0.518066	0.283373	-0.776267	-0.276707	-0.490451
14233		8.988723	-1.809745	-3.526704	-0.001201	0.001886	0.000446	-0.673340	0.406006	0.520020	0.283499	-0.776276	-0.276620	-0.490413
14234		8.965964	-1.840513	-3.556331	-0.003573	0.000579	-0.000308	-0.668945	0.394043	0.516846	0.283578	-0.776304	-0.276536	-0.490371
14235		8.971843	-1.768224	-3.513332	0.000939	-0.006492	-0.005241	-0.671387	0.401123	0.516113	0.283556	-0.776329	-0.276548	-0.490337
14236		9.002832	-1.695441	-3.519126	0.001055	-0.001649	-0.002020	-0.676514	0.400635	0.516357	0.283635	-0.776344	-0.276499	-0.490294
14237		8.983159	-1.725130	-3.516861	-0.006472	-0.004943	0.000213	-0.662354	0.398193	0.526367	0.283671	-0.776389	-0.276410	-0.490254
14238		8.982278	-1.828191	-3.554583	-0.003113	-0.008540	-0.000128	-0.669434	0.397705	0.515381	0.283633	-0.776510	-0.276380	-0.490101
14239		8.957060	-1.774783	-3.541644	0.002082	-0.008298	-0.001866	-0.673096	0.398926	0.521240	0.283676	-0.776548	-0.276357	-0.490028
14240		8.974902	-1.779718	-3.551060	-0.011958	-0.004711	-0.001195	-0.668701	0.404785	0.522949	0.283643	-0.776633	-0.276258	-0.489969
14241		8.977850	-1.829835	-3.537476	-0.003328	-0.001480	-0.001305	-0.671387	0.402344	0.516113	0.283706	-0.776708	-0.276174	-0.489861
14242		8.989281	-1.789171	-3.487403	0.000450	-0.002372	-0.003246	-0.663574	0.400879	0.517334	0.283791	-0.776732	-0.276110	-0.489809
14243		8.965919	-1.646555	-3.503068	-0.006391	-0.008432	0.002714	-0.673340	0.405762	0.516357	0.283806	-0.776827	-0.276015	-0.489704
14244		8.999316	-1.675209	-3.566545	-0.008626	-0.008311	0.011503	-0.668945	0.398193	0.517334	0.283909	-0.776931	-0.275816	-0.489591
14245		8.994834	-1.731222	-3.565900	-0.014657	-0.003883	0.015914	-0.669678	0.401367	0.516113	0.283911	-0.777039	-0.275604	-0.489539
14246		8.978067	-1.761852	-3.531277	-0.024257	0.001129	0.020021	-0.665283	0.401611	0.519775	0.283910	-0.777158	-0.275297	-0.489523
14247		8.979053	-1.849459	-3.523674	-0.026096	-0.006032	0.018520	-0.675049	0.404541	0.524170	0.283855	-0.777331	-0.275028	-0.489431
14248		8.964271	-1.910034	-3.568237	-0.007703	-0.006387	0.010804	-0.669678	0.411133	0.521729	0.283938	-0.777451	-0.274858	-0.489288
14249		8.963062	-1.843295	-3.537629	0.000238	-0.000398	0.006970	-0.662109	0.406494	0.521973	0.284123	-0.777529	-0.274702	-0.489143
14250		8.967671	-1.805663	-3.552483	-0.002280	-0.001464	0.004643	-0.676025	0.405273	0.522705	0.284211	-0.777616	-0.274597	-0.489013
14251		8.975890	-1.886675	-3.584701	0.002179	-0.005128	0.006422	-0.669678	0.400879	0.524170	0.284356	-0.777690	-0.274475	-0.488880
14252		8.941262	-1.910802	-3.541447	0.007090	-0.002751	-0.003539	-0.669434	0.405273	0.516357	0.284433	-0.777728	-0.274481	-0.488772
14253		8.976059	-1.832853	-3.619781	0.000151	-0.001898	-0.006396	-0.672852	0.399414	0.521240	0.284509	-0.777746	-0.274409	-0.488739
14254		8.956577	-1.863959	-3.564325	-0.008745	0.002017	-0.003633	-0.673096	0.401123	0.516357	0.284493	-0.777782	-0.274321	-0.488739
14255		8.992439	-1.805635	-3.549835	-0.013527	0.001157	-0.006388	-0.666992	0.404297	0.517822	0.284458	-0.777808	-0.274198	-0.488788
14256		8.979062	-1.813751	-3.521751	-0.005303	0.003342	-0.009973	-0.674072	0.401123	0.522705	0.284477	-0.777823	-0.274137	-0.488788
14257		8.979966	-1.758462	-3.555640	0.006677	0.002963	-0.010432	-0.683105	0.398193	0.531738	0.284553	-0.777811	-0.274150	-0.488755
14258		8.987348	-1.702247	-3.524593	0.001511	-0.000690	-0.002371	-0.667480	0.405762	0.525879	0.284603	-0.777861	-0.274143	-0.488650
14259		8.987306	-1.702076	-3.524783	-0.006955	-0.000818	0.002214	-0.670410	0.403564	0.525391	0.284644	-0.777960	-0.274047	-0.488522
14260		8.983319	-1.757039	-3.523378	-0.008629	-0.001562	0.008082	-0.673828	0.409424	0.519043	0.284680	-0.778063	-0.273913	-0.488413
14261		8.971902	-1.868157	-3.553126	-0.004628	-0.006185	0.010208	-0.672607	0.401611	0.522949	0.284814	-0.778152	-0.273710	-0.488306
14262		8.952799	-1.966720	-3.581944	0.009218	0.000611	-0.001787	-0.677002	0.400635	0.517090	0.284913	-0.778155	-0.273703	-0.488248
14263		8.945074	-1.954415	-3.581051	0.019087	-0.001459	-0.009070	-0.667236	0.406494	0.524658	0.285053	-0.778087	-0.273741	-0.488253
14264		8.966675	-1.836834	-3.559245	0.015897	0.003576	-0.012219	-0.671387	0.404541	0.521484	0.285197	-0.778076	-0.273814	-0.488145
14265		8.962811	-1.944421	-3.522701	0.024410	-0.008111	-0.015032	-0.670898	0.408447	0.523193	0.285350	-0.778056	-0.273949	-0.488013
14266		8.989111	-1.837352	-3.586739	0.048165	0.003294	-0.028510	-0.669434	0.401123	0.528320	0.285670	-0.777919	-0.274227	-0.487887
14267		8.986538	-1.665866	-3.549462	0.017104	0.011776	-0.013193	-0.682617	0.401367	0.523193	0.285771	-0.777873	-0.274350	-0.487833
14268		8.974261	-1.796307	-3.516024	-0.001443	0.012355	-0.007052	-0.676025	0.405029	0.520508	0.285815	-0.777818	-0.274298	-0.487923
14269		8.957463	-1.963106	-3.520307	0.018133	0.015210	-0.013564	-0.670410	0.397461	0.515137	0.285992	-0.777703	-0.274336	-0.487981
14270		8.992234	-1.868326	-3.583369	0.029404	0.005959	-0.021354	-0.661133	0.409668	0.516602	0.286095	-0.777556	-0.274513	-0.488056
14271		8.942636	-1.743511	-3.540551	-0.003486	0.010578	-0.017698	-0.673096	0.405762	0.511475	0.286133	-0.777545	-0.274473	-0.488074
14272		8.920079	-1.930233	-3.518482	-0.019719	0.007535	-0.017852	-0.671387	0.400391	0.523682	0.286053	-0.777506	-0.274353	-0.488251
14273		8.990912	-1.845616	-3.547072	-0.001056	0.005157	-0.026553	-0.669922	0.397949	0.517578	0.285957	-0.777479	-0.274482	-0.488277
14274		9.012872	-1.725056	-3.525096	0.006349	0.008615	-0.021144	-0.671143	0.398682	0.519043	0.285923	-0.777400	-0.274572	-0.488372
14275		9.014221	-1.616964	-3.540197	-0.009903	0.007223	-0.013336	-0.673828	0.398438	0.515137	0.285819	-0.777390	-0.274554	-0.488459
14276		8.968957	-1.680999	-3.493621	-0.016599	0.004243	-0.002910	-0.664307	0.403076	0.522705	0.285723	-0.777395	-0.274432	-0.488576
14277		8.977076	-1.692386	-3.494018	-0.005838	0.000774	-0.000737	-0.669434	0.402832	0.526611	0.285708	-0.777492	-0.274363	-0.488470
14278		8.986053	-1.772221	-3.525702	-0.005340	-0.000012	0.000163	-0.666260	0.402344	0.523438	0.285689	-0.777592	-0.274314	-0.488349
14279		8.960999	-1.874087	-3.565990	0.006466	0.004952	-0.000212	-0.676758	0.403564	0.515869	0.285755	-0.777635	-0.274286	-0.488257
14280		9.000136	-1.813964	-3.570961	0.005365	0.001685	-0.005232	-0.683350	0.395508	0.515869	0.285855	-0.777585	-0.274254	-0.488297
14281		8.933433	-1.769450	-3.565074	-0.006022	0.002758	-0.003561	-0.676270	0.397217	0.523193	0.285794	-0.777515	-0.274221	-0.488462
14282		8.971996	-1.867718	-3.519594	-0.004503	0.005403	-0.003033	-0.672119	0.407471	0.528320	0.285725	-0.777522	-0.274202	-0.488501
14283		8.987204	-1.769944	-3.523911	0.000103	-0.005150	-0.005467	-0.676270	0.409424	0.521729	0.285759	-0.777631	-0.274195	-0.488312
14284		8.979004	-1.707485	-3.453138	-0.001270	-0.004702	-0.001525	-0.673584	0.407471	0.524414	0.285867	-0.777683	-0.274124	-0.488206
14285		8.983312	-1.770463	-3.558159	-0.000797	-0.007162	0.004445	-0.672607	0.402344	0.525879	0.285950	-0.777783	-0.274046	-0.488042
14286		8.937311	-1.781142	-3.600694	-0.004579	-0.009606	0.003489	-0.675293	0.404053	0.518555	0.285919	-0.777903	-0.274005	-0.487892
14287		8.955779	-1.804966	-3.570739	-0.020556	-0.008057	0.008125	-0.670898	0.404541	0.526611	0.285867	-0.778002	-0.273822	-0.487867
14288		8.956174	-1.874787	-3.550389	-0.019966	-0.000582	0.005929	-0.676514	0.403320	0.516113	0.285790	-0.778142	-0.273669	-0.487775
14289		8.982389	-1.788791	-3.523018	-0.017884	0.001204	0.003537	-0.675537	0.403076	0.520508	0.285764	-0.778158	-0.273497	-0.487861
14290		8.990357	-1.748740	-3.505673	-0.024633	0.000064	0.003499	-0.670410	0.400635	0.521973	0.285667	-0.778229	-0.273325	-0.487901
14291		8.944018	-1.739771	-3.587111	-0.028446	0.006030	0.007092	-0.670898	0.395508	0.528809	0.285525	-0.778325	-0.273112	-0.487950
14292		9.000477	-1.719767	-3.605279	-0.046610	0.024464	0.012768	-0.667480	0.397949	0.520020	0.285227	-0.778440	-0.272806	-0.488113
14293		8.974727	-2.038853	-3.453960	-0.012646	0.016449	0.008334	-0.670166	0.403809	0.522949	0.285190	-0.778457	-0.272622	-0.488210
14294		8.972195	-1.864640	-3.520720	0.021105	0.023922	-0.005744	-0.665283	0.394775	0.521729	0.285405	-0.778348	-0.272623	-0.488257
14295		8.953044	-1.721904	-3.500138	0.002723	0.004085	0.002983	-0.676514	0.409912	0.524658	0.285359	-0.778394	-0.272578	-0.488236
14296		8.974060	-1.985175	-3.567384	0.012437	0.000596	-0.000794	-0.676270	0.394775	0.516357	0.285562	-0.778399	-0.272552	-0.488123
14297		8.985034	-1.824090	-3.518695	0.029603	0.007235	-0.006389	-0.680420	0.392090	0.525391	0.285707	-0.778239	-0.272689	-0.488218
14298		8.964015	-1.768482	-3.523395	0.008869	0.001178	-0.001100	-0.663818	0.400879	0.524414	0.285635	-0.778208	-0.272778	-0.488260
14299		8.978603	-1.880318	-3.547927	0.007665	-0.000266	-0.003552	-0.672852	0.401855	0.527100	0.285639	-0.778293	-0.272757	-0.488134
14300		8.995786	-1.869445	-3.543106	0.019609	-0.002205	-0.008142	-0.675049	0.405518	0.520752	0.285710	-0.778310	-0.272854	-0.488010
14301		8.971039	-1.816393	-3.528432	0.026717	-0.001607	-0.008771	-0.667725	0.403320	0.523682	0.285923	-0.778247	-0.272956	-0.487930
14302		8.966903	-1.749627	-3.529232	0.027534	-0.001191	-0.009791	-0.671875	0.399170	0.524902	0.286069	-0.778246	-0.273058	-0.487788
14303		8.980596	-1.793439	-3.522272	0.014031	-0.000149	-0.006979	-0.672363	0.394287	0.521484	0.286080	-0.778255	-0.273136	-0.487724
14304		8.983770	-1.947560	-3.544263	0.017291	-0.001921	-0.004748	-0.666504	0.402344	0.520508	0.286075	-0.778229	-0.273246	-0.487706
14305		8.959686	-1.964577	-3.508353	0.043005	-0.010271	-0.016035	-0.668457	0.403320	0.526123	0.286277	-0.778198	-0.273463	-0.487516
14306		8.987823	-1.735749	-3.544003	0.038017	-0.004071	-0.019969	-0.668701	0.397461	0.526855	0.286416	-0.778179	-0.273679	-0.487343
14307		8.940440	-1.764102	-3.577644	0.011700	-0.003112	-0.015695	-0.665527	0.403809	0.520996	0.286317	-0.778223	-0.273805	-0.487260
14308		8.992832	-1.748319	-3.524123	-0.007228	0.001302	-0.006013	-0.676025	0.409668	0.525635	0.286267	-0.778301	-0.273707	-0.487220
14309		8.977546	-1.899805	-3.432691	-0.003009	-0.003622	-0.006122	-0.670654	0.404297	0.516357	0.286297	-0.778363	-0.273656	-0.487131
14310		8.991776	-1.781464	-3.530366	0.017937	-0.006169	-0.014377	-0.672852	0.405518	0.521729	0.286414	-0.778316	-0.273753	-0.487084
14311		8.962530	-1.608702	-3.499681	0.002150	0.001712	-0.006213	-0.673096	0.399902	0.520508	0.286457	-0.778323	-0.273726	-0.487062
14312		8.968072	-1.794811	-3.547665	-0.028121	-0.001319	0.009814	-0.669678	0.405029	0.523193	0.286298	-0.778428	-0.273527	-0.487100
14313		8.982326	-1.908097	-3.520269	-0.013867	-0.001761	0.000590	-0.677734	0.400879	0.518311	0.286234	-0.778533	-0.273390	-0.487046
14314		8.983328	-1.871850	-3.515712	-0.008521	-0.005073	-0.002465	-0.674561	0.399170	0.522705	0.286188	-0.778526	-0.273374	-0.487093
14315		8.953749	-1.800609	-3.575351	-0.013679	-0.007074	0.000520	-0.671875	0.406250	0.522217	0.286056	-0.778602	-0.273320	-0.487081
14316		8.969332	-1.878135	-3.542379	-0.008144	0.002714	-0.002418	-0.669189	0.399902	0.513916	0.286063	-0.778642	-0.273217	-0.487069
14317		8.987837	-1.934368	-3.568580	0.011131	0.001088	-0.009885	-0.670166	0.402344	0.516602	0.286139	-0.778567	-0.273268	-0.487116
14318		8.948767	-1.768657	-3.528690	0.015751	0.008956	-0.012125	-0.670166	0.405762	0.520020	0.286266	-0.778465	-0.273325	-0.487173
14319		8.994903	-1.755761	-3.538976	0.007385	0.003554	-0.003804	-0.667236	0.406494	0.520020	0.286376	-0.778458	-0.273289	-0.487139
14320		9.003997	-1.734499	-3.480805	-0.007715	0.001998	0.002300	-0.673828	0.404053	0.523438	0.286411	-0.778529	-0.273139	-0.487090
14321		8.977737	-1.768827	-3.490445	-0.003459	-0.001342	0.006333	-0.668457	0.411377	0.513916	0.286434	-0.778588	-0.273043	-0.487035
14322		8.972878	-1.857606	-3.547371	-0.005891	-0.005911	0.006505	-0.671875	0.410645	0.521240	0.286592	-0.778641	-0.272869	-0.486955
14323		8.970315	-1.928918	-3.558602	0.009586	0.000099	-0.002447	-0.670410	0.406982	0.522705	0.286764	-0.778644	-0.272836	-0.486868
14324		8.960196	-1.936188	-3.550197	0.012059	0.002921	-0.001369	-0.668457	0.403564	0.520996	0.286899	-0.778648	-0.272817	-0.486793
14325		8.960590	-1.987823	-3.567468	0.024613	0.001820	-0.013943	-0.669678	0.398193	0.522217	0.287023	-0.778594	-0.272943	-0.486735
14326		8.962211	-1.796261	-3.506705	0.012870	0.000097	-0.014496	-0.673340	0.412598	0.525146	0.286986	-0.778571	-0.273065	-0.486726
14327		8.966015	-1.791626	-3.526953	0.002475	-0.003749	-0.013919	-0.679199	0.406006	0.511475	0.287047	-0.778604	-0.273089	-0.486623
14328		8.975129	-1.714951	-3.504553	-0.003497	-0.006168	-0.009913	-0.666016	0.405762	0.523926	0.287096	-0.778522	-0.273108	-0.486714
14329		8.996553	-1.821763	-3.517574	0.001711	-0.005997	-0.002435	-0.675293	0.401611	0.515381	0.287105	-0.778622	-0.273072	-0.486571
14330		8.984812	-1.863853	-3.516170	0.014781	-0.011297	-0.007787	-0.670410	0.398193	0.519775	0.287179	-0.778570	-0.273180	-0.486549
14331		8.976536	-1.797665	-3.551576	0.012306	-0.010789	-0.005970	-0.666992	0.397949	0.518311	0.287164	-0.778588	-0.273270	-0.486479
14332		8.976460	-1.849043	-3.570231	0.003604	0.001106	-0.004761	-0.674805	0.403076	0.520752	0.287127	-0.778591	-0.273271	-0.486494
14333		8.936735	-1.892187	-3.551735	-0.006335	-0.001785	-0.004531	-0.677490	0.406494	0.516113	0.287082	-0.778602	-0.273253	-0.486513
14334		8.952981	-1.863993	-3.534021	0.007372	0.006980	-0.010127	-0.671387	0.402344	0.518311	0.287207	-0.778483	-0.273299	-0.486605
14335		8.969501	-1.782056	-3.550479	0.006609	0.001490	-0.010745	-0.666748	0.408203	0.520508	0.287231	-0.778442	-0.273350	-0.486628
14336		8.986580	-1.823733	-3.511572	-0.004272	-0.004999	-0.004746	-0.668945	0.400146	0.519775	0.287252	-0.778517	-0.273295	-0.486527
14337		8.983207	-1.824023	-3.544674	0.000922	-0.001406	-0.003590	-0.672607	0.398926	0.517090	0.287218	-0.778542	-0.273283	-0.486513
14338		8.997876	-1.831892	-3.533175	0.004651	-0.005538	-0.004598	-0.666992	0.402832	0.524658	0.287203	-0.778529	-0.273321	-0.486521
14339		8.979578	-1.720481	-3.541864	0.005279	-0.003140	-0.008444	-0.672607	0.401855	0.523438	0.287172	-0.778589	-0.273347	-0.486428
14340		8.970359	-1.743198	-3.547416	-0.005364	-0.005029	0.002342	-0.667236	0.402344	0.518311	0.287115	-0.778660	-0.273293	-0.486379
14341		8.974751	-1.967261	-3.548270	0.001961	-0.004722	-0.000537	-0.670166	0.402100	0.520996	0.287134	-0.778700	-0.273259	-0.486322
14342		8.960840	-1.869628	-3.590338	0.000659	-0.007680	-0.003306	-0.669922	0.398682	0.528076	0.287107	-0.778750	-0.273260	-0.486259
14343		8.946746	-1.827157	-3.545199	-0.007206	-0.005456	-0.002578	-0.667480	0.407227	0.515381	0.286940	-0.778862	-0.273231	-0.486194
14344		8.978510	-1.875315	-3.547726	-0.000879	-0.003579	-0.007260	-0.666992	0.406738	0.520508	0.287006	-0.778864	-0.273210	-0.486163
14345		8.969367	-1.845749	-3.535015	0.004822	-0.004099	-0.008095	-0.673828	0.402588	0.522949	0.287059	-0.778892	-0.273220	-0.486080
14346		8.961152	-1.780620	-3.517374	-0.006383	-0.008371	-0.006489	-0.666992	0.408447	0.519775	0.286972	-0.778941	-0.273232	-0.486048
14347		8.975663	-1.839544	-3.525078	-0.011195	-0.007600	-0.001284	-0.667725	0.402344	0.521484	0.286969	-0.779030	-0.273137	-0.485960
14348		9.004598	-1.750130	-3.519298	-0.007218	-0.010457	-0.000397	-0.664795	0.406250	0.521484	0.286900	-0.779126	-0.273085	-0.485875
14349		8.963142	-1.775450	-3.542400	-0.007573	-0.009909	0.000275	-0.667969	0.415039	0.527588	0.286881	-0.779240	-0.273001	-0.485753
14350		8.987500	-1.828385	-3.558487	-0.015062	-0.011653	0.006655	-0.666260	0.402832	0.522949	0.286905	-0.779416	-0.272837	-0.485547
14351		8.946840	-1.872397	-3.542086	-0.007484	-0.013399	0.002777	-0.667480	0.401123	0.515381	0.286838	-0.779541	-0.272769	-0.485425
14352		8.974288	-1.767557	-3.523896	-0.005471	-0.011536	0.004200	-0.670654	0.401123	0.523682	0.286827	-0.779594	-0.272701	-0.485385
14353		8.946156	-1.783650	-3.575494	-0.019754	-0.012695	0.009299	-0.673584	0.406494	0.523926	0.286688	-0.779733	-0.272565	-0.485319
14354		8.949657	-1.958411	-3.507492	-0.017440	-0.014632	0.010978	-0.670166	0.408691	0.524902	0.286637	-0.779861	-0.272428	-0.485221
14355		8.945215	-2.011388	-3.560901	0.003567	-0.017216	-0.001126	-0.668701	0.402832	0.526123	0.286686	-0.779946	-0.272441	-0.485048
14356		8.962277	-1.859604	-3.569907	0.012705	-0.021389	-0.006129	-0.673096	0.405273	0.525391	0.286685	-0.780027	-0.272547	-0.484859
14357		8.995231	-1.732188	-3.580047	-0.013373	-0.015882	0.002979	-0.666748	0.402832	0.529297	0.286601	-0.780137	-0.272485	-0.484766
14358		8.945411	-1.852622	-3.534609	-0.027946	-0.013234	0.007835	-0.669922	0.413818	0.520264	0.286391	-0.780340	-0.272313	-0.484660
14359		8.981139	-2.069991	-3.626228	0.019560	-0.010397	-0.005072	-0.669434	0.397461	0.521729	0.286639	-0.780312	-0.272378	-0.484522
14360		8.920600	-1.867671	-3.553676	0.042277	-0.007316	-0.016020	-0.655518	0.407227	0.520508	0.286789	-0.780200	-0.272650	-0.484460
14361		8.950032	-1.725423	-3.580708	0.019323	-0.003336	-0.006250	-0.673096	0.400146	0.531494	0.286951	-0.780224	-0.272676	-0.484312
14362		8.979601	-1.845366	-3.593667	0.004651	-0.005528	-0.004606	-0.668945	0.406250	0.520020	0.286875	-0.780262	-0.272737	-0.484260
14363		8.932761	-1.895188	-3.535385	0.006656	-0.008664	-0.001005	-0.661377	0.404785	0.527832	0.286961	-0.780269	-0.272745	-0.484194
14364		8.959837	-1.980798	-3.575843	0.026200	-0.007306	-0.011682	-0.668945	0.406738	0.518311	0.287061	-0.780290	-0.272880	-0.484025
14365		8.929906	-1.808676	-3.545747	0.020206	-0.011305	-0.011800	-0.675537	0.403564	0.524658	0.287200	-0.780239	-0.273018	-0.483948
14366		8.956889	-1.788289	-3.602794	0.001530	-0.004003	-0.005257	-0.669678	0.403076	0.523682	0.287185	-0.780220	-0.273059	-0.483963
14367		8.954662	-1.860409	-3.561418	-0.002002	-0.005185	-0.004307	-0.668213	0.417480	0.531982	0.287145	-0.780244	-0.273062	-0.483948
14368		8.947646	-1.863731	-3.574547	0.008798	-0.006942	-0.007220	-0.668945	0.416016	0.520264	0.287273	-0.780302	-0.273096	-0.483758
14369		8.941756	-1.883737	-3.600289	0.017370	-0.006925	-0.006420	-0.669678	0.402100	0.522461	0.287512	-0.780266	-0.273153	-0.483642
14370		8.941425	-1.779984	-3.564681	0.002744	-0.005879	-0.005700	-0.663086	0.399414	0.525146	0.287485	-0.780269	-0.273187	-0.483634
14371		8.944792	-1.880125	-3.621689	0.010102	-0.003985	-0.004456	-0.660400	0.408203	0.527588	0.287468	-0.780300	-0.273226	-0.483572
14372		8.955909	-1.785952	-3.606387	0.008436	-0.003069	-0.003660	-0.671387	0.409424	0.522949	0.287529	-0.780361	-0.273225	-0.483437
14373		8.936778	-1.871470	-3.516361	-0.008831	-0.002960	0.002378	-0.660889	0.403809	0.520752	0.287547	-0.780392	-0.273143	-0.483424
14374		8.949062	-1.948573	-3.568767	0.008495	-0.008136	-0.005294	-0.663086	0.401367	0.534424	0.287579	-0.780424	-0.273171	-0.483336
14375		8.955231	-1.785409	-3.608339	0.010459	-0.004529	-0.005129	-0.663574	0.407959	0.524170	0.287529	-0.780504	-0.273227	-0.483205
14376		8.965574	-1.831844	-3.581822	-0.006659	0.000336	0.000299	-0.671875	0.401611	0.526611	0.287532	-0.780556	-0.273139	-0.483170
14377		8.929338	-1.923819	-3.601777	-0.015930	-0.001914	-0.002041	-0.665527	0.404785	0.529053	0.287382	-0.780602	-0.273083	-0.483217
14378		8.934318	-1.991638	-3.547511	0.009001	0.001071	-0.008763	-0.667236	0.402588	0.532959	0.287393	-0.780608	-0.273134	-0.483171
14379		8.956892	-1.800579	-3.568840	0.007089	0.000717	-0.009860	-0.668213	0.401855	0.523193	0.287342	-0.780630	-0.273201	-0.483128
14380		8.949273	-1.786995	-3.568116	-0.003506	0.002157	-0.009190	-0.661377	0.407471	0.527832	0.287279	-0.780612	-0.273214	-0.483188
14381		8.976075	-1.854712	-3.594560	-0.012347	0.007512	-0.006109	-0.663330	0.404297	0.521484	0.287210	-0.780664	-0.273120	-0.483197
14382		8.924598	-1.869725	-3.593898	-0.008973	0.012259	-0.005746	-0.669189	0.406250	0.524170	0.287182	-0.780642	-0.273037	-0.483295
14383		8.960537	-1.864572	-3.544272	-0.011180	0.002388	-0.005622	-0.676758	0.399170	0.525391	0.287127	-0.780653	-0.272986	-0.483341
14384		8.958874	-1.880657	-3.588647	-0.000903	0.013066	-0.005845	-0.671631	0.406006	0.522949	0.287089	-0.780561	-0.273000	-0.483504
14385		8.951693	-1.921168	-3.552519	0.011888	-0.001711	-0.010000	-0.663818	0.406250	0.531250	0.287164	-0.780505	-0.273088	-0.483500
14386		8.965098	-1.753549	-3.578495	0.013593	0.003951	-0.008840	-0.662842	0.410400	0.531250	0.287217	-0.780512	-0.273136	-0.483430
14387		8.932005	-1.932014	-3.588132	0.010920	0.001436	-0.007661	-0.669922	0.397949	0.520996	0.287291	-0.780543	-0.273158	-0.483323
14388		8.953789	-1.882020	-3.598011	0.004359	0.003276	-0.007044	-0.667480	0.406982	0.525635	0.287267	-0.780488	-0.273199	-0.483403
14389		8.904319	-1.929978	-3.623657	-0.002187	0.001791	-0.009313	-0.674316	0.399902	0.527588	0.287249	-0.780491	-0.273201	-0.483407
14390		8.977234	-1.848073	-3.567945	-0.000161	0.000333	-0.010780	-0.671143	0.406250	0.526367	0.287160	-0.780467	-0.273268	-0.483462
14391		8.951492	-1.829212	-3.558643	0.002643	0.005936	-0.007500	-0.668213	0.408447	0.519043	0.287184	-0.780432	-0.273282	-0.483496
14392		8.963493	-1.839448	-3.525660	0.007294	0.003743	-0.009214	-0.662109	0.411377	0.529053	0.287288	-0.780366	-0.273313	-0.483523
14393		8.969508	-1.814760	-3.605123	0.001362	0.007882	-0.003239	-0.665283	0.399414	0.524902	0.287353	-0.780397	-0.273247	-0.483472
14394		8.953141	-1.876638	-3.626977	-0.009267	0.002737	-0.004529	-0.658447	0.408936	0.522705	0.287239	-0.780431	-0.273196	-0.483513
14395		8.970517	-1.866529	-3.569548	-0.025148	0.007286	0.004584	-0.666748	0.409668	0.532715	0.287170	-0.780529	-0.272964	-0.483528
14396		8.942704	-1.970707	-3.589625	-0.016540	0.000671	-0.000385	-0.664307	0.409668	0.525879	0.287081	-0.780632	-0.272846	-0.483479
14397		8.924251	-1.860720	-3.545248	-0.004759	0.000786	-0.007814	-0.665039	0.413818	0.528564	0.287075	-0.780665	-0.272811	-0.483450
14398		8.947105	-1.825930	-3.568603	-0.011059	0.000571	-0.008191	-0.671143	0.403320	0.523926	0.287052	-0.780724	-0.272747	-0.483405
14399		8.928682	-1.959600	-3.549479	-0.011512	-0.000390	-0.007840	-0.666748	0.406250	0.529297	0.286954	-0.780732	-0.272726	-0.483462
14400		8.983993	-1.832644	-3.586088	0.000220	-0.003524	-0.014339	-0.672607	0.400391	0.528564	0.286900	-0.780758	-0.272785	-0.483419
14401		8.956397	-1.745387	-3.547019	0.001871	-0.006114	-0.010066	-0.666504	0.401123	0.521973	0.286823	-0.780766	-0.272863	-0.483407
14402		8.952915	-1.745220	-3.580266	-0.008452	-0.001841	-0.003368	-0.661621	0.399414	0.525635	0.286752	-0.780793	-0.272817	-0.483432
14403		8.972733	-1.821349	-3.514486	-0.001582	-0.002475	-0.005909	-0.670654	0.407471	0.530518	0.286679	-0.780840	-0.272807	-0.483405
14404		8.988514	-1.791694	-3.550126	0.003888	0.000645	-0.001621	-0.667725	0.398926	0.523926	0.286720	-0.780855	-0.272796	-0.483362
14405		8.947772	-1.819686	-3.518509	-0.003290	0.000078	0.002843	-0.657471	0.401611	0.523438	0.286686	-0.780878	-0.272738	-0.483379
14406		8.913769	-1.891590	-3.598701	-0.005605	-0.002986	0.003347	-0.665283	0.402344	0.520996	0.286651	-0.780965	-0.272630	-0.483319
14407		8.930688	-1.934359	-3.560618	-0.000790	-0.008736	0.000316	-0.664795	0.400879	0.527588	0.286648	-0.781007	-0.272602	-0.483268
14408		8.952985	-1.901076	-3.584481	0.004959	-0.000990	-0.003639	-0.665527	0.408936	0.529785	0.286636	-0.781030	-0.272607	-0.483236
14409		8.958163	-1.826861	-3.594378	0.004217	-0.006472	-0.004252	-0.661377	0.402100	0.531006	0.286666	-0.781084	-0.272610	-0.483129
14410		8.937584	-1.840412	-3.579325	-0.005537	-0.003053	-0.000469	-0.668945	0.402588	0.524658	0.286584	-0.781179	-0.272544	-0.483062
14411		8.933180	-1.878362	-3.564939	-0.002151	-0.001624	-0.002991	-0.664551	0.408936	0.536377	0.286563	-0.781186	-0.272530	-0.483072
14412		8.975259	-1.868054	-3.556718	0.000424	-0.000611	-0.004489	-0.667725	0.395264	0.534180	0.286545	-0.781259	-0.272502	-0.482979
14413		8.963522	-1.804768	-3.570820	-0.003530	-0.001190	0.000950	-0.668945	0.403564	0.534180	0.286421	-0.781324	-0.272475	-0.482962
14414		8.960048	-1.805631	-3.603500	-0.013786	0.003013	0.003834	-0.659912	0.403320	0.525146	0.286323	-0.781401	-0.272357	-0.482964
14415		8.920861	-1.901160	-3.602882	-0.021511	0.004978	0.006150	-0.666016	0.405029	0.517090	0.286227	-0.781489	-0.272153	-0.482993
14416		8.921097	-1.900624	-3.602582	-0.015192	0.006877	0.001458	-0.659912	0.405762	0.527832	0.286220	-0.781476	-0.272021	-0.483092
14417		8.941823	-1.888053	-3.565209	-0.008372	0.002989	-0.000156	-0.667969	0.404053	0.533447	0.286188	-0.781540	-0.271909	-0.483071
14418		8.981452	-1.791909	-3.564989	-0.007389	0.009739	0.002355	-0.669678	0.409912	0.516357	0.286151	-0.781569	-0.271804	-0.483104
14419		8.939909	-1.801551	-3.572240	-0.021832	0.012102	0.008785	-0.665771	0.401123	0.531494	0.286188	-0.781550	-0.271585	-0.483237
14420		8.922964	-1.953343	-3.564706	-0.014607	0.010924	0.005572	-0.668457	0.404541	0.531494	0.286104	-0.781598	-0.271427	-0.483297
14421		8.934598	-1.910732	-3.566034	-0.002881	0.007790	-0.000932	-0.665771	0.400391	0.526855	0.286094	-0.781605	-0.271367	-0.483325
14422		8.977894	-1.811477	-3.585340	-0.007575	0.011732	-0.000464	-0.669434	0.405273	0.524414	0.286051	-0.781598	-0.271277	-0.483414
14423		8.948514	-1.933050	-3.649608	-0.023115	0.014163	0.003843	-0.665283	0.411377	0.517334	0.285986	-0.781601	-0.271090	-0.483551
14424		8.894706	-2.164442	-3.543736	-0.004506	0.007073	-0.008091	-0.665527	0.403809	0.526367	0.286060	-0.781549	-0.271045	-0.483617
14425		8.922281	-2.090888	-3.581054	0.029666	-0.005761	-0.027220	-0.662354	0.405762	0.523438	0.286143	-0.781464	-0.271309	-0.483556
14426		8.923007	-1.703363	-3.565922	0.027363	-0.003813	-0.028892	-0.669189	0.399170	0.520264	0.286237	-0.781375	-0.271554	-0.483507
14427		8.992975	-1.725302	-3.578882	0.012779	-0.001327	-0.014833	-0.668701	0.399170	0.527100	0.286263	-0.781298	-0.271680	-0.483546
14428		8.991335	-1.747936	-3.465045	0.025330	0.005747	-0.008296	-0.669434	0.406982	0.527100	0.286378	-0.781213	-0.271794	-0.483552
14429		8.963675	-1.797658	-3.571288	0.017104	0.003492	-0.004706	-0.662354	0.406006	0.519287	0.286512	-0.781163	-0.271846	-0.483524
14430		8.933589	-1.870920	-3.565210	0.017249	-0.001749	-0.000955	-0.664551	0.398682	0.525391	0.286675	-0.781136	-0.271867	-0.483459
14431		8.947229	-1.859487	-3.645620	0.009186	0.002438	-0.003040	-0.669434	0.406494	0.522461	0.286693	-0.781126	-0.271877	-0.483458
14432		8.943077	-1.901948	-3.524897	-0.002481	0.000493	0.001818	-0.667969	0.401611	0.525391	0.286734	-0.781129	-0.271819	-0.483462
14433		8.968447	-1.954585	-3.539211	-0.000979	-0.001750	-0.004688	-0.666992	0.406250	0.525879	0.286695	-0.781143	-0.271815	-0.483466
14434		8.928757	-1.996374	-3.573963	0.024338	-0.012572	-0.010582	-0.669189	0.405273	0.522705	0.286809	-0.781132	-0.271967	-0.483329
14435		8.947620	-1.773071	-3.570368	0.018184	-0.003026	-0.013748	-0.666016	0.407959	0.521973	0.286901	-0.781066	-0.272103	-0.483305
14436		8.955386	-1.732688	-3.552918	-0.004510	-0.002946	-0.003739	-0.665527	0.405029	0.520020	0.286908	-0.781087	-0.272070	-0.483285
14437		8.988273	-1.886482	-3.538604	-0.007828	0.000447	0.001988	-0.667480	0.402100	0.523193	0.286909	-0.781108	-0.271982	-0.483300
14438		8.947946	-1.964229	-3.577822	0.018591	-0.000423	-0.006145	-0.675293	0.403809	0.522461	0.287007	-0.781058	-0.272061	-0.483278
14439		8.944802	-1.824392	-3.621195	0.009213	-0.000877	-0.005927	-0.661865	0.400391	0.521484	0.287065	-0.780998	-0.272124	-0.483305
14440		8.941853	-1.880685	-3.566410	-0.005799	-0.001009	0.000521	-0.661621	0.407715	0.529541	0.287019	-0.781041	-0.272047	-0.483306
14441		8.959330	-1.920916	-3.580017	0.000118	0.003189	-0.004746	-0.670654	0.408447	0.528564	0.287022	-0.781077	-0.272009	-0.483269
14442		8.942851	-1.792435	-3.542244	0.002480	0.004510	-0.003999	-0.654297	0.409912	0.526855	0.287061	-0.781062	-0.271999	-0.483275
14443		8.936367	-1.796098	-3.553979	-0.006016	0.004298	0.000584	-0.665039	0.408936	0.531006	0.287075	-0.781135	-0.271879	-0.483216
14444		8.971303	-1.879288	-3.528116	-0.005873	0.004058	0.002156	-0.671387	0.405518	0.525635	0.287072	-0.781188	-0.271779	-0.483188
14445		8.998485	-1.861492	-3.531365	0.004081	-0.001336	0.001204	-0.664307	0.403076	0.529541	0.287119	-0.781188	-0.271762	-0.483171
14446		8.923197	-1.856602	-3.596297	0.010789	-0.003403	0.002163	-0.668457	0.404541	0.524414	0.287165	-0.781227	-0.271750	-0.483086
14447		8.958529	-1.905147	-3.565844	-0.010120	-0.001049	0.006628	-0.664551	0.403809	0.525635	0.287136	-0.781278	-0.271633	-0.483087
14448		8.920518	-2.017491	-3.578322	-0.011981	0.001849	0.004600	-0.671143	0.395996	0.524902	0.287080	-0.781337	-0.271504	-0.483097
14449		8.941335	-2.056656	-3.559579	0.010860	-0.003360	-0.010859	-0.669189	0.400391	0.529541	0.287044	-0.781299	-0.271604	-0.483124
14450		8.917932	-1.929496	-3.587623	0.014228	-0.003496	-0.017515	-0.667236	0.406006	0.526123	0.287015	-0.781267	-0.271747	-0.483113
14451		8.956453	-1.867188	-3.593767	-0.007254	-0.000295	-0.010132	-0.665527	0.405273	0.524414	0.286944	-0.781282	-0.271742	-0.483134
14452		8.958102	-1.883298	-3.553953	-0.005630	0.000543	-0.012178	-0.667969	0.407227	0.525635	0.286880	-0.781283	-0.271752	-0.483164
14453		8.966278	-1.841943	-3.535915	0.006063	0.004073	-0.012899	-0.662842	0.408691	0.520752	0.286910	-0.781236	-0.271810	-0.483189
14454		8.967561	-1.802991	-3.582979	0.002846	-0.000922	-0.011693	-0.663574	0.407715	0.525146	0.286945	-0.781218	-0.271849	-0.483175
14455		8.936070	-1.804368	-3.599242	-0.008449	0.003149	-0.005551	-0.666992	0.409424	0.524658	0.286912	-0.781242	-0.271791	-0.483190
14456		8.927602	-1.969367	-3.539855	-0.003678	0.004045	-0.002805	-0.662598	0.395996	0.532471	0.286940	-0.781240	-0.271743	-0.483203
14457		8.929464	-2.036537	-3.570849	0.023528	-0.009527	-0.015869	-0.663818	0.408447	0.523438	0.286915	-0.781254	-0.271904	-0.483105
14458		8.933158	-1.804341	-3.579363	0.018590	-0.006861	-0.017300	-0.674316	0.404785	0.530762	0.287001	-0.781218	-0.272056	-0.483027
14459		8.944710	-1.812118	-3.600507	-0.003620	-0.002594	-0.008575	-0.665771	0.396484	0.523926	0.286929	-0.781230	-0.272077	-0.483038
14460		8.968694	-1.938215	-3.520439	-0.002492	-0.005972	-0.009339	-0.668701	0.409668	0.522217	0.286818	-0.781256	-0.272100	-0.483049
14461		8.952257	-1.999641	-3.543630	0.026930	-0.008070	-0.018387	-0.672607	0.402588	0.534668	0.286972	-0.781177	-0.272313	-0.482965
14462		8.946682	-1.878106	-3.580180	0.045092	-0.009412	-0.024177	-0.671143	0.405762	0.521973	0.287102	-0.781089	-0.272638	-0.482847
14463		8.941033	-1.758646	-3.564098	0.034474	-0.009686	-0.018445	-0.664795	0.400146	0.525146	0.287270	-0.780991	-0.272892	-0.482762
14464		8.990840	-1.849491	-3.527033	0.024534	-0.007737	-0.011175	-0.666016	0.404541	0.527344	0.287342	-0.780965	-0.273032	-0.482681
14465		8.964436	-2.058369	-3.583056	0.059428	-0.014795	-0.022017	-0.666748	0.410889	0.526611	0.287604	-0.780863	-0.273401	-0.482481
14466		8.935032	-2.096195	-3.572362	0.106246	-0.028372	-0.036822	-0.665283	0.399902	0.526123	0.288130	-0.780663	-0.274088	-0.482102
14467		8.901910	-1.816162	-3.665575	0.084137	-0.017494	-0.039166	-0.665527	0.417236	0.526855	0.288438	-0.780474	-0.274671	-0.481891
14468		8.921128	-1.786223	-3.616286	0.051403	-0.013711	-0.032342	-0.673828	0.410400	0.523438	0.288694	-0.780363	-0.275067	-0.481693
14469		8.932310	-1.743213	-3.566849	0.017277	-0.006288	-0.022535	-0.668701	0.406982	0.525391	0.288750	-0.780284	-0.275273	-0.481668
14470		8.975998	-1.748803	-3.518847	0.004673	-0.003648	-0.015030	-0.659912	0.404785	0.523682	0.288722	-0.780271	-0.275358	-0.481658
14471		8.931574	-1.722973	-3.554624	-0.006854	0.003931	-0.007608	-0.664062	0.407471	0.524902	0.288654	-0.780298	-0.275307	-0.481685
14472		8.990920	-1.700472	-3.541411	-0.020096	0.009160	0.001549	-0.667480	0.408691	0.517578	0.288567	-0.780345	-0.275141	-0.481755
14473		8.961614	-1.861746	-3.504824	-0.020875	0.005326	0.008902	-0.666260	0.408936	0.521240	0.288540	-0.780383	-0.274953	-0.481818
14474		8.966753	-1.925814	-3.608199	-0.004029	0.001145	0.004178	-0.663574	0.401367	0.522705	0.288580	-0.780405	-0.274865	-0.481808
14475		8.952542	-1.973320	-3.532517	-0.006414	-0.001862	0.008507	-0.664307	0.402100	0.520996	0.288548	-0.780473	-0.274736	-0.481790
14476		8.952348	-1.972041	-3.585296	-0.000107	0.003487	-0.002514	-0.669678	0.402832	0.522217	0.288539	-0.780469	-0.274696	-0.481825
14477		8.895366	-1.921379	-3.586904	-0.004813	0.009066	-0.007137	-0.666260	0.397217	0.523193	0.288497	-0.780429	-0.274667	-0.481932
14478		8.962396	-1.857269	-3.608483	-0.023202	0.012340	-0.004178	-0.667725	0.399902	0.520508	0.288305	-0.780447	-0.274522	-0.482100
14479		8.920002	-1.850410	-3.550560	-0.035991	0.010391	-0.001433	-0.666748	0.412842	0.526855	0.288074	-0.780491	-0.274323	-0.482280
14480		8.946438	-1.990174	-3.534062	-0.025720	0.009579	-0.001418	-0.661621	0.412109	0.529053	0.287978	-0.780538	-0.274160	-0.482354
14481		8.944133	-1.866819	-3.538263	0.000958	-0.001287	-0.012780	-0.666260	0.400635	0.527588	0.287967	-0.780566	-0.274186	-0.482300
14482		8.971441	-1.759873	-3.518883	-0.001522	0.000767	-0.006835	-0.667480	0.409668	0.520752	0.287892	-0.780588	-0.274167	-0.482321
14483		8.945243	-1.828807	-3.533292	-0.022060	0.002302	0.002338	-0.672852	0.400635	0.524658	0.287826	-0.780636	-0.274023	-0.482364
14484		8.908225	-1.940328	-3.545026	-0.019839	0.003875	0.001510	-0.666504	0.401367	0.521973	0.287692	-0.780672	-0.273893	-0.482460
14485		8.978769	-1.840186	-3.529735	-0.012856	0.004793	-0.000706	-0.661621	0.398438	0.521973	0.287613	-0.780693	-0.273790	-0.482531
14486		8.957899	-1.799754	-3.548875	-0.024775	0.001520	0.002266	-0.668213	0.407715	0.531494	0.287438	-0.780781	-0.273611	-0.482595
14487		8.929577	-1.888133	-3.556033	-0.028478	0.005442	0.008653	-0.665039	0.405762	0.517822	0.287302	-0.780888	-0.273374	-0.482637
14488		8.951322	-1.891886	-3.531780	-0.018360	0.004859	0.007094	-0.670898	0.407959	0.524170	0.287276	-0.780922	-0.273208	-0.482691
14489		8.947059	-2.017835	-3.540419	0.003060	-0.008010	0.002528	-0.665527	0.402832	0.528076	0.287331	-0.780952	-0.273193	-0.482619
14490		8.963478	-2.005836	-3.589340	0.039145	-0.008561	-0.008060	-0.669922	0.400635	0.528076	0.287516	-0.780910	-0.273366	-0.482478
14491		8.932794	-1.763995	-3.549119	0.027437	-0.007130	-0.009519	-0.665771	0.405029	0.523926	0.287606	-0.780874	-0.273508	-0.482402
14492		8.958101	-1.815531	-3.616384	0.005644	-0.006978	0.001034	-0.670654	0.411133	0.523926	0.287646	-0.780909	-0.273494	-0.482330
14493		8.936978	-1.955953	-3.524175	-0.000665	-0.007232	0.000657	-0.667725	0.399658	0.527100	0.287690	-0.780938	-0.273477	-0.482266
14494		8.951370	-1.875286	-3.542863	0.013349	-0.007146	-0.002525	-0.661377	0.409424	0.532959	0.287710	-0.780955	-0.273511	-0.482207
14495		8.957663	-1.782819	-3.560901	0.012769	-0.006298	0.000387	-0.666748	0.403809	0.521973	0.287780	-0.781017	-0.273500	-0.482072
14496		8.967771	-1.775251	-3.620809	0.011204	0.012507	0.004431	-0.654785	0.398682	0.523926	0.287913	-0.780955	-0.273446	-0.482124
14497		8.933961	-1.926501	-3.497900	0.003920	0.003817	0.006639	-0.663818	0.403809	0.526611	0.287931	-0.781003	-0.273325	-0.482103
14498		8.978985	-2.160990	-3.562321	0.075827	0.027947	-0.014064	-0.671387	0.401611	0.524902	0.288417	-0.780711	-0.273595	-0.482132
14499		8.928989	-1.740193	-3.546713	0.093544	0.030911	-0.027058	-0.666260	0.413330	0.521729	0.288963	-0.780308	-0.274034	-0.482208
14500		8.900066	-1.796827	-3.574486	0.048613	0.024998	-0.007784	-0.664307	0.401611	0.530029	0.289369	-0.780084	-0.274180	-0.482244
14501		8.946307	-1.997108	-3.579852	0.032334	0.013501	-0.004767	-0.667969	0.403564	0.517578	0.289521	-0.780004	-0.274229	-0.482255
14502		8.955979	-2.064777	-3.489924	0.024165	0.004540	-0.006912	-0.659424	0.404785	0.520264	0.289668	-0.779910	-0.274325	-0.482265
14503		8.912969	-2.055602	-3.590505	0.025622	-0.005792	-0.015632	-0.667236	0.413818	0.520996	0.289751	-0.779875	-0.274473	-0.482186
14504		8.940509	-1.913314	-3.567102	0.009491	-0.009295	-0.014193	-0.665771	0.406006	0.526123	0.289793	-0.779869	-0.274585	-0.482107
14505		8.963171	-1.845638	-3.481706	-0.009000	-0.012560	-0.009370	-0.670166	0.411133	0.512207	0.289644	-0.779963	-0.274575	-0.482051
14506		8.971445	-1.906511	-3.554893	-0.014622	-0.015587	-0.006018	-0.663330	0.416260	0.522217	0.289576	-0.780011	-0.274585	-0.482007
14507		8.933610	-1.929994	-3.545985	0.012108	-0.019828	-0.015410	-0.663330	0.404297	0.522705	0.289619	-0.780052	-0.274732	-0.481832
14508		8.971106	-1.830915	-3.603038	0.002342	-0.018228	-0.010402	-0.663574	0.405518	0.530029	0.289534	-0.780129	-0.274790	-0.481725
14509		8.936356	-1.765913	-3.539185	-0.020372	-0.016798	-0.000102	-0.665527	0.401855	0.519043	0.289322	-0.780306	-0.274671	-0.481634
14510		8.935710	-1.941250	-3.534924	-0.013212	-0.021092	0.001460	-0.657715	0.407959	0.527588	0.289185	-0.780434	-0.274614	-0.481541
14511		8.961256	-1.956981	-3.598322	0.000418	-0.002286	0.000590	-0.666992	0.409668	0.527344	0.289174	-0.780508	-0.274531	-0.481475
14512		8.943222	-2.039116	-3.612580	0.013165	-0.000140	-0.007536	-0.666260	0.407959	0.528564	0.289237	-0.780490	-0.274579	-0.481439
14513		8.961568	-1.904598	-3.578249	0.027813	0.023780	-0.013877	-0.669922	0.406494	0.527100	0.289406	-0.780335	-0.274661	-0.481542
14514		8.921681	-1.877024	-3.630937	0.001427	0.016064	-0.010238	-0.666016	0.407715	0.523926	0.289398	-0.780268	-0.274645	-0.481665
14515		8.946559	-2.020997	-3.537424	-0.002637	0.035443	-0.013630	-0.670898	0.409668	0.522705	0.289414	-0.780125	-0.274584	-0.481921
14516		8.931652	-1.942745	-3.514649	0.006677	0.024645	-0.015125	-0.659668	0.406006	0.514648	0.289481	-0.779981	-0.274614	-0.482097
14517		8.960971	-1.974563	-3.533139	0.011228	0.007907	-0.017157	-0.674316	0.408691	0.526367	0.289536	-0.779897	-0.274699	-0.482152
14518		8.937378	-1.935968	-3.531084	0.005603	0.003291	-0.017930	-0.663574	0.402588	0.519287	0.289512	-0.779842	-0.274791	-0.482202
14519		8.942144	-1.895216	-3.545472	0.014602	0.004540	-0.022854	-0.662598	0.409912	0.524414	0.289516	-0.779759	-0.274928	-0.482255
14520		8.948593	-1.835235	-3.568128	-0.000782	-0.003494	-0.016420	-0.673340	0.409180	0.525146	0.289450	-0.779783	-0.274969	-0.482234
14521		8.963061	-2.037390	-3.487838	0.009431	0.002473	-0.019857	-0.661621	0.407471	0.520020	0.289451	-0.779717	-0.275090	-0.482271
14522		8.945955	-1.991838	-3.579564	0.031468	-0.002820	-0.026593	-0.663574	0.407471	0.524170	0.289561	-0.779623	-0.275332	-0.482219
14523		8.960333	-1.699612	-3.495412	0.018171	-0.009044	-0.022558	-0.666992	0.409912	0.523438	0.289566	-0.779607	-0.275502	-0.482144
14524		8.931977	-1.820747	-3.560466	-0.018686	-0.006079	-0.010379	-0.666748	0.405518	0.522949	0.289411	-0.779680	-0.275452	-0.482147
14525		8.936780	-1.956093	-3.569516	-0.013484	-0.008995	-0.011165	-0.669678	0.413574	0.529541	0.289255	-0.779751	-0.275434	-0.482137
14526		8.991278	-1.883016	-3.520033	0.000857	-0.001058	-0.014339	-0.666260	0.406006	0.528320	0.289222	-0.779760	-0.275472	-0.482121
14527		8.951136	-1.906815	-3.593759	0.013421	-0.001985	-0.013883	-0.664062	0.407715	0.526611	0.289227	-0.779752	-0.275548	-0.482087
14528		8.953449	-1.886534	-3.600965	0.016318	0.001839	-0.013185	-0.668701	0.405029	0.519531	0.289280	-0.779723	-0.275620	-0.482061
14529		8.939472	-1.844516	-3.502002	0.004820	-0.000534	-0.010573	-0.669922	0.404785	0.525635	0.289281	-0.779696	-0.275667	-0.482076
14530		8.940720	-1.895132	-3.519659	0.000827	-0.002732	-0.009267	-0.668213	0.409180	0.515869	0.289228	-0.779711	-0.275682	-0.482075
14531		8.958985	-1.898945	-3.528701	-0.007891	-0.006047	-0.005321	-0.669434	0.412354	0.530029	0.289199	-0.779735	-0.275668	-0.482062
14532		8.970455	-1.941320	-3.606625	0.009544	0.010415	-0.012248	-0.667236	0.408936	0.513428	0.289249	-0.779685	-0.275695	-0.482098
14533		8.956916	-1.933426	-3.563130	0.021473	0.018764	-0.017424	-0.673828	0.412354	0.522217	0.289426	-0.779505	-0.275819	-0.482211
14534		8.961602	-1.807299	-3.500137	0.013298	0.016348	-0.017644	-0.669189	0.406982	0.519531	0.289528	-0.779369	-0.275914	-0.482317
14535		8.931258	-1.930513	-3.594710	-0.003715	0.005841	-0.013285	-0.670166	0.404541	0.523926	0.289486	-0.779334	-0.275926	-0.482392
14536		8.942718	-1.852399	-3.487193	-0.009499	-0.001811	-0.014678	-0.668213	0.404785	0.525391	0.289349	-0.779355	-0.275932	-0.482435
14537		8.985043	-1.837915	-3.531791	-0.001143	0.002057	-0.017953	-0.667236	0.403320	0.532227	0.289259	-0.779345	-0.275975	-0.482483
14538		8.973526	-1.701840	-3.536669	-0.005595	0.000464	-0.012171	-0.667969	0.403564	0.529053	0.289120	-0.779394	-0.275944	-0.482504
14539		8.958612	-1.887399	-3.533316	-0.015785	-0.000699	-0.005561	-0.667969	0.409668	0.521484	0.288957	-0.779472	-0.275843	-0.482533
14540		8.961158	-1.831693	-3.535709	0.010888	0.006660	-0.006031	-0.672852	0.402832	0.519531	0.289054	-0.779425	-0.275857	-0.482543
14541		8.969276	-1.719515	-3.560510	0.006720	0.003015	-0.001229	-0.672852	0.412598	0.517334	0.289105	-0.779393	-0.275850	-0.482568
14542		8.986853	-1.798676	-3.472989	-0.013012	-0.001907	0.010344	-0.669678	0.402100	0.518555	0.289130	-0.779444	-0.275709	-0.482550
14543		8.940941	-2.005380	-3.551902	-0.016323	-0.003445	0.009054	-0.677002	0.407715	0.523926	0.289054	-0.779525	-0.275550	-0.482557
14544		8.923175	-2.052120	-3.562736	-0.011996	-0.011442	0.000737	-0.663574	0.405029	0.527344	0.288971	-0.779602	-0.275492	-0.482515
14545		8.935498	-1.954103	-3.569697	-0.008736	0.000099	-0.002387	-0.664551	0.399658	0.526611	0.288883	-0.779672	-0.275390	-0.482513
14546		8.968051	-1.877027	-3.596677	-0.016516	0.000390	-0.004225	-0.674561	0.396240	0.517822	0.288711	-0.779751	-0.275269	-0.482558
14547		8.983928	-1.973324	-3.502364	-0.010659	-0.005109	-0.006658	-0.666260	0.406738	0.522217	0.288583	-0.779768	-0.275256	-0.482613
14548		8.951457	-1.887837	-3.496734	0.005197	-0.001057	-0.011237	-0.673096	0.408203	0.521240	0.288586	-0.779759	-0.275293	-0.482604
14549		8.955179	-1.846840	-3.565340	0.001547	-0.007056	-0.009654	-0.660889	0.401611	0.523682	0.288577	-0.779762	-0.275345	-0.482576
14550		8.946368	-1.904308	-3.575480	0.003290	-0.001436	-0.012334	-0.665771	0.403320	0.527832	0.288522	-0.779780	-0.275358	-0.482572
14551		8.943610	-1.905454	-3.554642	0.012622	0.005881	-0.016007	-0.664062	0.406006	0.534424	0.288526	-0.779738	-0.275418	-0.482603
14552		8.945289	-1.798422	-3.486209	0.003320	0.001821	-0.013280	-0.669189	0.407227	0.526367	0.288455	-0.779771	-0.275409	-0.482599
14553		8.964800	-1.890793	-3.464240	0.000531	-0.003925	-0.007338	-0.673584	0.408203	0.524658	0.288425	-0.779800	-0.275404	-0.482572
14554		8.974907	-1.881257	-3.525411	0.007765	-0.003258	-0.011785	-0.666016	0.407715	0.532959	0.288443	-0.779779	-0.275476	-0.482555
14555		8.947279	-1.774247	-3.547999	0.003437	-0.009926	-0.007607	-0.668457	0.401855	0.522949	0.288388	-0.779858	-0.275470	-0.482462
14556		8.990234	-1.816246	-3.505114	-0.008380	0.001126	0.001069	-0.679688	0.409912	0.522705	0.288331	-0.779897	-0.275371	-0.482490
14557		8.946498	-2.039825	-3.543507	0.004459	-0.006653	-0.002626	-0.667725	0.410889	0.520996	0.288381	-0.779891	-0.275405	-0.482451
14558		8.939058	-1.920772	-3.528778	0.022470	-0.004077	-0.012470	-0.664795	0.405762	0.524902	0.288516	-0.779839	-0.275534	-0.482380
14559		8.945807	-1.914542	-3.569434	0.020036	-0.006932	-0.013521	-0.669189	0.400635	0.534180	0.288576	-0.779826	-0.275646	-0.482301
14560		8.959423	-1.904795	-3.545103	0.019710	-0.004708	-0.017922	-0.667480	0.408203	0.523193	0.288556	-0.779816	-0.275766	-0.482260
14561		8.958667	-1.815876	-3.522908	0.011603	-0.004059	-0.013710	-0.666992	0.413086	0.521240	0.288589	-0.779797	-0.275851	-0.482223
14562		8.960325	-1.830977	-3.535825	0.013802	-0.005721	-0.013591	-0.666992	0.412842	0.510498	0.288666	-0.779774	-0.275951	-0.482157
14563		8.965224	-1.845092	-3.516349	0.014351	-0.006668	-0.007307	-0.670410	0.412109	0.522705	0.288815	-0.779729	-0.276046	-0.482087
14564		8.942857	-1.912377	-3.550885	0.015539	-0.006776	-0.008996	-0.665527	0.400635	0.523682	0.288910	-0.779711	-0.276134	-0.482009
14565		8.974867	-1.837381	-3.525707	0.014702	-0.010457	-0.007021	-0.664307	0.403564	0.520752	0.288927	-0.779735	-0.276194	-0.481925
14566		8.964597	-1.808411	-3.514304	-0.003417	-0.011136	-0.003812	-0.668945	0.407227	0.527588	0.288866	-0.779805	-0.276167	-0.481864
14567		8.931360	-1.917944	-3.547358	-0.012584	-0.015449	0.000495	-0.667236	0.400146	0.531250	0.288748	-0.779932	-0.276084	-0.481776
14568		8.933381	-1.985462	-3.579800	-0.006220	-0.013455	-0.004193	-0.671631	0.401611	0.524170	0.288604	-0.780044	-0.276036	-0.481709
14569		8.953731	-1.863595	-3.582903	0.008919	-0.009861	-0.011573	-0.667725	0.404053	0.528564	0.288580	-0.780048	-0.276122	-0.481668
14570		8.958918	-1.769496	-3.602560	-0.015554	-0.007709	-0.000498	-0.664551	0.404053	0.519531	0.288438	-0.780154	-0.276008	-0.481646
14571		8.975237	-1.830272	-3.503898	-0.029659	-0.002922	0.000461	-0.669922	0.410400	0.526855	0.288257	-0.780253	-0.275837	-0.481692
14572		8.959345	-1.890715	-3.579905	-0.037393	-0.002816	0.004012	-0.671875	0.404053	0.536621	0.288049	-0.780386	-0.275610	-0.481731
14573		8.948073	-1.808548	-3.550902	-0.041780	0.000520	0.003782	-0.658936	0.408936	0.525146	0.287749	-0.780544	-0.275337	-0.481810
14574		8.957943	-1.836789	-3.512033	-0.037371	0.002024	0.007188	-0.663330	0.406250	0.525391	0.287560	-0.780688	-0.275049	-0.481853
14575		8.969594	-2.002584	-3.618916	-0.021441	-0.003892	0.007004	-0.666016	0.396484	0.526123	0.287451	-0.780805	-0.274854	-0.481840
14576		8.946023	-2.023388	-3.426266	-0.000222	-0.017595	-0.000959	-0.667236	0.401611	0.527588	0.287368	-0.780903	-0.274836	-0.481743
14577		8.961862	-1.935421	-3.625131	0.021528	-0.012494	-0.009892	-0.668945	0.403809	0.518799	0.287423	-0.780907	-0.274952	-0.481637
14578		8.920343	-1.840225	-3.567527	0.006656	-0.017945	-0.008864	-0.663086	0.412842	0.526367	0.287424	-0.780934	-0.275046	-0.481538
14579		8.941143	-1.876993	-3.602888	-0.007726	-0.006286	-0.003738	-0.664551	0.403564	0.526367	0.287388	-0.781003	-0.274982	-0.481485
14580		8.934468	-1.846038	-3.558881	-0.017305	-0.008310	-0.000018	-0.676025	0.406494	0.528320	0.287254	-0.781107	-0.274863	-0.481463
14581		8.975351	-1.942473	-3.514377	-0.005020	-0.008725	-0.002722	-0.667236	0.404785	0.518555	0.287206	-0.781150	-0.274844	-0.481434
14582		8.951019	-1.991713	-3.589826	0.017136	-0.009158	-0.010128	-0.663818	0.406006	0.526367	0.287297	-0.781115	-0.274964	-0.481367
14583		8.925945	-1.917744	-3.637703	0.007142	-0.010465	-0.011116	-0.662354	0.408691	0.533936	0.287286	-0.781144	-0.275021	-0.481293
14584		8.909583	-1.857917	-3.580741	-0.012937	-0.008207	-0.006111	-0.662598	0.403564	0.524658	0.287153	-0.781253	-0.274935	-0.481246
14585		8.952799	-1.861825	-3.586422	-0.010337	-0.003902	-0.008559	-0.668213	0.403076	0.524170	0.287049	-0.781300	-0.274891	-0.481257
14586		8.961677	-1.802801	-3.525014	-0.003308	-0.006357	-0.004456	-0.661133	0.402344	0.523926	0.287007	-0.781331	-0.274872	-0.481242
14587		8.947329	-1.915988	-3.617333	0.014528	0.002867	-0.008610	-0.659668	0.404297	0.525879	0.287078	-0.781292	-0.274910	-0.481241
14588		8.967751	-1.973968	-3.589190	0.027339	0.004935	-0.011362	-0.662354	0.402344	0.525146	0.287227	-0.781219	-0.275002	-0.481219
14589		8.914175	-1.778510	-3.643156	0.026852	0.008970	-0.013211	-0.674316	0.399658	0.524658	0.287367	-0.781118	-0.275103	-0.481242
14590		8.931685	-1.803423	-3.589602	-0.001139	0.005045	-0.004325	-0.662842	0.399170	0.518066	0.287346	-0.781086	-0.275077	-0.481320
14591		8.951481	-1.967411	-3.576646	0.000492	0.005907	-0.006372	-0.674561	0.400635	0.528564	0.287347	-0.781053	-0.275054	-0.481387
14592		8.939232	-1.905206	-3.537466	0.014199	0.005100	-0.013005	-0.661133	0.406982	0.521973	0.287380	-0.780979	-0.275133	-0.481442
14593		8.946570	-1.863192	-3.571939	0.014847	0.004086	-0.010532	-0.670410	0.407715	0.528076	0.287475	-0.780926	-0.275188	-0.481440
14594		8.950049	-1.930483	-3.601139	0.002787	0.004187	-0.010066	-0.657471	0.407959	0.520020	0.287479	-0.780898	-0.275198	-0.481478
14595		8.933968	-1.904900	-3.599994	-0.000011	0.001866	-0.010445	-0.662354	0.406006	0.527100	0.287482	-0.780894	-0.275193	-0.481485
14596		8.970119	-1.827064	-3.540928	0.002651	0.004428	-0.011636	-0.666260	0.411377	0.528809	0.287467	-0.780881	-0.275190	-0.481515
14597		8.950245	-1.838863	-3.577378	-0.006014	0.000891	-0.002302	-0.665771	0.409912	0.531250	0.287450	-0.780919	-0.275111	-0.481510
14598		8.932115	-1.905384	-3.525879	-0.004814	0.004038	-0.004941	-0.667725	0.396729	0.525391	0.287419	-0.780945	-0.275036	-0.481530
14599		8.927252	-1.925011	-3.550482	0.003652	-0.000377	-0.008880	-0.665039	0.406494	0.533691	0.287374	-0.780939	-0.275042	-0.481563
14600		8.951153	-1.835878	-3.576638	0.003805	0.002637	-0.008258	-0.663086	0.410645	0.530762	0.287355	-0.780953	-0.275013	-0.481567
14601		8.973441	-1.802757	-3.547145	-0.008722	0.003327	-0.003320	-0.667969	0.414795	0.535645	0.287307	-0.781001	-0.274906	-0.481580
14602		8.970383	-1.804795	-3.526746	-0.014048	0.003021	0.002229	-0.665283	0.406494	0.516602	0.287251	-0.781076	-0.274745	-0.481583
14603		8.935020	-1.917462	-3.537390	-0.004477	0.001813	-0.000541	-0.657471	0.406006	0.527832	0.287276	-0.781074	-0.274685	-0.481606
14604		8.949860	-1.887092	-3.625923	0.003675	0.001008	0.000616	-0.666992	0.408447	0.528076	0.287304	-0.781115	-0.274600	-0.481571
14605		8.947062	-1.891046	-3.552290	-0.012187	0.008406	0.001115	-0.666748	0.406738	0.529297	0.287266	-0.781141	-0.274456	-0.481634
14606		8.955491	-1.938143	-3.557159	-0.011030	0.001795	0.001320	-0.667969	0.398193	0.533447	0.287207	-0.781195	-0.274326	-0.481654
14607		8.951015	-1.888575	-3.519057	-0.000999	0.004809	-0.002753	-0.679199	0.396973	0.523926	0.287148	-0.781216	-0.274243	-0.481703
14608		8.959579	-1.827738	-3.562113	-0.007273	-0.000508	-0.000923	-0.664062	0.406494	0.534424	0.287083	-0.781218	-0.274191	-0.481769
14609		8.942627	-1.909741	-3.576359	-0.010953	0.003303	0.001632	-0.660400	0.410645	0.524170	0.287007	-0.781290	-0.274033	-0.481787
14610		8.932980	-1.881065	-3.562993	0.000091	0.004761	-0.000636	-0.675293	0.406494	0.532715	0.287055	-0.781301	-0.273952	-0.481787
14611		8.968527	-1.803800	-3.556460	0.000502	0.004040	0.004075	-0.665283	0.407959	0.529541	0.287080	-0.781313	-0.273858	-0.481806
14612		8.974911	-1.906435	-3.558706	-0.025769	0.005716	0.010261	-0.662842	0.408447	0.532471	0.286975	-0.781411	-0.273596	-0.481858
14613		8.913449	-2.197688	-3.546602	0.003652	-0.015136	-0.003836	-0.667725	0.401855	0.524414	0.286947	-0.781506	-0.273581	-0.481730
14614		8.922220	-1.922262	-3.613854	0.020205	-0.003849	-0.012921	-0.669434	0.404053	0.526123	0.287019	-0.781457	-0.273696	-0.481701
14615		8.939409	-1.840023	-3.547518	-0.000262	-0.009153	-0.009484	-0.665771	0.403076	0.524902	0.286965	-0.781487	-0.273719	-0.481672
14616		8.952300	-1.972001	-3.543781	0.006169	-0.005638	-0.013863	-0.664062	0.405762	0.532471	0.286940	-0.781482	-0.273782	-0.481657
14617		8.943970	-1.958644	-3.544219	0.028081	-0.012233	-0.017128	-0.655762	0.406738	0.530029	0.287014	-0.781473	-0.273945	-0.481537
14618		8.945407	-2.011182	-3.509943	0.058861	-0.020501	-0.025944	-0.672363	0.403564	0.517578	0.287241	-0.781416	-0.274293	-0.481295
14619		8.909743	-1.871066	-3.645774	0.042997	-0.016350	-0.024491	-0.656982	0.401611	0.525879	0.287422	-0.781302	-0.274636	-0.481176
14620		8.936729	-1.710838	-3.578476	0.030961	-0.014874	-0.014528	-0.669434	0.409668	0.519775	0.287515	-0.781301	-0.274796	-0.481031
14621		8.979326	-1.858079	-3.603672	0.013949	-0.012393	-0.010128	-0.665771	0.410889	0.521973	0.287590	-0.781287	-0.274909	-0.480944
14622		8.937420	-1.905013	-3.564999	0.016240	-0.009288	-0.010654	-0.668945	0.409668	0.522949	0.287679	-0.781270	-0.275014	-0.480859
14623		8.948711	-1.841218	-3.629441	0.005716	-0.005039	-0.009380	-0.668701	0.398926	0.526855	0.287707	-0.781259	-0.275061	-0.480833
14624		8.930359	-1.943193	-3.583616	0.009683	-0.009316	-0.008788	-0.664795	0.399902	0.527344	0.287686	-0.781274	-0.275108	-0.480794
14625		8.965351	-1.935895	-3.588273	0.025773	-0.005471	-0.015641	-0.665771	0.403076	0.520508	0.287753	-0.781229	-0.275245	-0.480748
14626		8.947322	-1.788050	-3.560866	0.013373	-0.005044	-0.009127	-0.663330	0.402344	0.522949	0.287807	-0.781203	-0.275315	-0.480719
14627		8.937095	-1.864302	-3.615300	0.007943	-0.000188	-0.011169	-0.668701	0.406494	0.524414	0.287814	-0.781180	-0.275350	-0.480732
14628		8.954079	-1.887226	-3.615749	-0.011833	0.003014	-0.002721	-0.660156	0.406250	0.525391	0.287751	-0.781201	-0.275258	-0.480789
14629		8.921771	-1.982421	-3.527275	-0.002459	0.011882	-0.006119	-0.668701	0.402588	0.516846	0.287746	-0.781180	-0.275179	-0.480870
14630		8.945560	-1.963001	-3.614858	0.007896	0.008062	-0.014337	-0.675049	0.400635	0.523193	0.287786	-0.781085	-0.275246	-0.480962
14631		8.938311	-1.843586	-3.546501	-0.001097	0.001908	-0.012560	-0.671143	0.403076	0.527100	0.287730	-0.781047	-0.275271	-0.481044
14632		8.935363	-1.914041	-3.588326	-0.017002	0.006004	-0.011115	-0.660156	0.406006	0.525146	0.287581	-0.781054	-0.275195	-0.481164
14633		8.925961	-1.883223	-3.575357	-0.019757	0.003496	-0.006114	-0.662354	0.409668	0.529785	0.287446	-0.781110	-0.275066	-0.481229
14634		8.961883	-1.912427	-3.478956	-0.014153	0.000091	-0.007570	-0.670654	0.412109	0.524902	0.287336	-0.781169	-0.274974	-0.481251
14635		8.948407	-1.882901	-3.551538	0.018278	-0.002426	-0.015269	-0.669434	0.403564	0.517822	0.287436	-0.781106	-0.275109	-0.481217
14636		8.961763	-1.729914	-3.560531	0.017294	-0.004306	-0.010747	-0.669189	0.407471	0.521484	0.287528	-0.781048	-0.275218	-0.481193
14637		8.959972	-1.855465	-3.567927	0.002803	-0.008987	-0.000878	-0.671631	0.400879	0.526123	0.287558	-0.781077	-0.275211	-0.481132
14638		8.935862	-1.834535	-3.633323	-0.009357	-0.002373	0.001489	-0.659912	0.406250	0.524414	0.287484	-0.781127	-0.275101	-0.481159
14639		8.929732	-1.947291	-3.554757	-0.006020	0.000871	-0.002299	-0.664795	0.403320	0.531250	0.287453	-0.781165	-0.275014	-0.481165
14640		8.931422	-1.962962	-3.567522	-0.004393	-0.001511	-0.003394	-0.656006	0.405762	0.519043	0.287384	-0.781218	-0.274927	-0.481170
14641		8.935024	-1.960533	-3.535244	0.003358	-0.001570	-0.006949	-0.668457	0.405762	0.524414	0.287406	-0.781225	-0.274922	-0.481148
14642		8.934795	-1.923036	-3.583434	0.008081	-0.003663	-0.008643	-0.667480	0.407715	0.527832	0.287433	-0.781213	-0.274960	-0.481130
14643		8.956394	-1.888701	-3.607514	0.013112	-0.004544	-0.012265	-0.665283	0.409180	0.526367	0.287472	-0.781195	-0.275035	-0.481091
14644		8.911405	-1.794611	-3.581318	-0.004737	-0.002540	-0.006841	-0.661377	0.403320	0.530518	0.287433	-0.781225	-0.275002	-0.481086
14645		8.959856	-1.813444	-3.566670	-0.016098	-0.005249	-0.002636	-0.658691	0.407227	0.520020	0.287285	-0.781327	-0.274868	-0.481084
14646		8.948330	-1.874073	-3.556399	-0.007110	0.000915	-0.004413	-0.667236	0.405762	0.525879	0.287261	-0.781350	-0.274805	-0.481098
14647		8.934963	-1.882030	-3.581011	-0.000344	-0.001026	-0.003448	-0.664551	0.411621	0.525146	0.287255	-0.781366	-0.274763	-0.481100
14648		8.901720	-1.904386	-3.589417	0.000406	0.001155	-0.005733	-0.669922	0.405762	0.529053	0.287281	-0.781366	-0.274744	-0.481096
14649		8.943693	-1.928286	-3.586048	-0.002415	0.000385	-0.001994	-0.672119	0.399902	0.531006	0.287260	-0.781387	-0.274676	-0.481112
14650		8.972390	-1.926545	-3.549700	0.004686	-0.001906	-0.007070	-0.667725	0.409424	0.527832	0.287224	-0.781394	-0.274659	-0.481132
14651		8.930285	-1.828945	-3.596276	0.002035	-0.001226	-0.006828	-0.664795	0.403320	0.535889	0.287231	-0.781400	-0.274651	-0.481123
14652		8.928937	-1.918267	-3.598375	-0.006226	-0.000397	-0.004176	-0.672852	0.403076	0.528320	0.287136	-0.781462	-0.274547	-0.481138
14653		8.922637	-1.958525	-3.562921	0.001729	-0.002436	-0.004901	-0.670166	0.403076	0.523682	0.287116	-0.781471	-0.274523	-0.481150
14654		8.952956	-1.937396	-3.534314	0.013629	-0.002056	-0.012316	-0.664062	0.409912	0.522461	0.287160	-0.781425	-0.274603	-0.481153
14655		8.982534	-1.842633	-3.601704	0.012165	-0.004726	-0.012811	-0.665283	0.403564	0.524658	0.287221	-0.781398	-0.274695	-0.481107
14656		8.937562	-1.784007	-3.580241	-0.006942	-0.000890	-0.006956	-0.662598	0.409180	0.521729	0.287151	-0.781423	-0.274643	-0.481138
14657		8.919533	-1.919983	-3.591883	-0.019492	-0.003508	-0.001059	-0.662842	0.400391	0.525146	0.287056	-0.781495	-0.274527	-0.481144
14658		8.956595	-1.965356	-3.561162	0.001290	-0.000153	-0.005495	-0.670166	0.407959	0.524170	0.287030	-0.781509	-0.274483	-0.481162
14659		8.929727	-1.841025	-3.538255	0.011487	-0.005397	-0.010218	-0.664307	0.395996	0.523193	0.287084	-0.781484	-0.274559	-0.481127
14660		8.972653	-1.773422	-3.586125	0.010437	-0.002286	-0.007911	-0.663086	0.396729	0.516846	0.287088	-0.781473	-0.274568	-0.481136
14661		8.960968	-1.799323	-3.571026	-0.019762	-0.004909	0.006245	-0.668945	0.407227	0.528564	0.286973	-0.781561	-0.274392	-0.481163
14662		8.927309	-1.964531	-3.600351	-0.019251	-0.008932	0.008102	-0.663086	0.404053	0.524902	0.286873	-0.781681	-0.274217	-0.481127
14663		8.940560	-1.957012	-3.524486	0.000812	-0.006067	0.000881	-0.668945	0.402832	0.533936	0.286877	-0.781729	-0.274156	-0.481082
14664		8.954520	-1.926964	-3.614172	0.013288	-0.008203	-0.004374	-0.660156	0.403809	0.530518	0.286899	-0.781758	-0.274160	-0.481018
14665		8.920902	-1.844423	-3.556245	-0.001672	-0.007187	-0.001419	-0.666504	0.400391	0.531738	0.286852	-0.781834	-0.274081	-0.480968
14666		8.960417	-1.992200	-3.666167	0.004076	-0.004322	-0.003216	-0.669678	0.406738	0.526855	0.286823	-0.781873	-0.274028	-0.480954
14667		8.899561	-2.054987	-3.557748	0.018559	-0.006118	-0.011187	-0.661133	0.410889	0.529541	0.286904	-0.781838	-0.274131	-0.480902
14668		8.912080	-1.865221	-3.614763	0.014752	-0.000397	-0.015273	-0.667480	0.403076	0.525391	0.286962	-0.781805	-0.274216	-0.480872
14669		8.956160	-1.869925	-3.566581	-0.009054	-0.002548	-0.009918	-0.662354	0.400146	0.525879	0.286861	-0.781830	-0.274181	-0.480914
14670		8.953537	-1.977627	-3.561033	0.009074	-0.001755	-0.013167	-0.663086	0.406494	0.519043	0.286850	-0.781815	-0.274218	-0.480924
14671		8.924961	-1.906426	-3.587801	0.024722	-0.005330	-0.017762	-0.663574	0.408447	0.520996	0.286971	-0.781739	-0.274401	-0.480871
14672		8.941412	-1.856742	-3.631688	0.009690	-0.002580	-0.016067	-0.668945	0.402100	0.524658	0.287009	-0.781695	-0.274505	-0.480859
14673		8.918507	-1.836359	-3.590844	-0.004256	-0.003130	-0.011305	-0.667480	0.401611	0.526855	0.286930	-0.781704	-0.274499	-0.480895
14674		8.959282	-1.843524	-3.522853	-0.002928	-0.003466	-0.011426	-0.661865	0.405273	0.528809	0.286849	-0.781720	-0.274488	-0.480924
14675		8.957495	-1.790299	-3.506141	-0.000476	-0.004034	-0.004060	-0.665283	0.402344	0.526367	0.286821	-0.781764	-0.274437	-0.480898
14676		8.948316	-1.811235	-3.616745	-0.000271	-0.002769	-0.002183	-0.669434	0.405273	0.535889	0.286801	-0.781794	-0.274376	-0.480895
14677		8.919627	-1.847859	-3.658463	-0.007890	-0.002972	0.002946	-0.665283	0.408936	0.529785	0.286733	-0.781873	-0.274234	-0.480890
14678		8.900736	-2.005206	-3.608991	-0.013642	0.003908	0.001882	-0.664551	0.397461	0.522461	0.286679	-0.781921	-0.274087	-0.480927
14679		8.926163	-2.004774	-3.604728	-0.008747	0.006532	-0.004266	-0.658447	0.401123	0.527832	0.286607	-0.781922	-0.273982	-0.481028
14680		8.934747	-1.873105	-3.584670	-0.007185	0.012404	-0.008531	-0.672363	0.404541	0.528809	0.286538	-0.781913	-0.273878	-0.481143
14681		8.941930	-1.830244	-3.618907	-0.009904	0.011576	-0.008595	-0.664307	0.407715	0.540039	0.286470	-0.781884	-0.273798	-0.481277
14682		8.915992	-1.740430	-3.598756	-0.030889	0.021306	-0.000355	-0.663818	0.405029	0.530273	0.286290	-0.781933	-0.273510	-0.481467
14683		8.934570	-1.870572	-3.559650	-0.045499	0.013579	0.008905	-0.670166	0.407227	0.530762	0.286059	-0.782043	-0.273149	-0.481631
14684		8.963265	-1.831745	-3.570167	-0.024140	0.014441	0.006632	-0.674072	0.404541	0.531494	0.285973	-0.782079	-0.272905	-0.481762
14685		8.976608	-1.985742	-3.503424	0.008429	0.005253	0.002387	-0.672607	0.405273	0.529297	0.286048	-0.782061	-0.272838	-0.481785
14686		8.922574	-1.950391	-3.591008	0.021827	-0.002985	-0.005792	-0.662109	0.402100	0.529297	0.286169	-0.782021	-0.272903	-0.481741
14687		8.917384	-1.970290	-3.667981	0.026932	0.000908	-0.010056	-0.666016	0.404297	0.539307	0.286293	-0.781969	-0.272977	-0.481709
14688		8.890091	-2.081481	-3.561075	0.042015	-0.024261	-0.019629	-0.663818	0.408203	0.529053	0.286394	-0.781981	-0.273209	-0.481498
14689		8.949992	-1.735606	-3.526182	0.036707	0.001231	-0.016329	-0.666992	0.405762	0.524414	0.286586	-0.781882	-0.273383	-0.481446
14690		8.962027	-1.815832	-3.556256	0.017088	-0.010451	-0.006605	-0.665771	0.404297	0.526855	0.286668	-0.781881	-0.273458	-0.481357
14691		8.927234	-2.000949	-3.577548	0.022676	-0.018779	-0.002040	-0.665039	0.405273	0.518555	0.286769	-0.781921	-0.273529	-0.481192
14692		8.897414	-1.966320	-3.663143	0.034144	-0.009580	-0.011963	-0.660645	0.406006	0.533447	0.286960	-0.781849	-0.273722	-0.481084
14693		8.901804	-1.874114	-3.629695	0.014855	-0.011862	-0.011135	-0.662598	0.402588	0.524170	0.286968	-0.781889	-0.273773	-0.480986
14694		8.954171	-1.926960	-3.587033	0.005006	-0.000676	-0.008995	-0.662842	0.397705	0.525879	0.286965	-0.781882	-0.273773	-0.480999
14695		8.949210	-1.911213	-3.606856	0.008921	0.000063	-0.010621	-0.660645	0.405762	0.522217	0.286952	-0.781868	-0.273776	-0.481027
14696		8.940268	-1.919645	-3.493160	0.020879	-0.006204	-0.010751	-0.659668	0.407471	0.535156	0.287055	-0.781838	-0.273878	-0.480957
14697		8.925620	-1.925411	-3.676012	0.037500	-0.006292	-0.015751	-0.659424	0.413330	0.525391	0.287203	-0.781797	-0.274031	-0.480848
14698		8.914084	-1.811192	-3.536030	0.029106	-0.011746	-0.012747	-0.668701	0.404785	0.520752	0.287359	-0.781772	-0.274199	-0.480701
14699		8.958492	-1.831933	-3.606478	0.011318	-0.005247	-0.002600	-0.663330	0.407471	0.531494	0.287434	-0.781760	-0.274221	-0.480663
14700		8.944001	-1.896614	-3.575409	0.006378	-0.004442	-0.002782	-0.651611	0.401367	0.518311	0.287448	-0.781797	-0.274180	-0.480617
14701		8.923780	-1.909901	-3.612103	0.007255	0.000751	-0.004463	-0.666016	0.408936	0.527588	0.287488	-0.781797	-0.274152	-0.480609
14702		8.930651	-1.939611	-3.656833	0.002685	0.004269	-0.006270	-0.664551	0.406494	0.529785	0.287506	-0.781782	-0.274122	-0.480640
14703		8.939678	-1.916231	-3.598999	0.006231	0.002296	-0.006271	-0.661377	0.398438	0.523682	0.287522	-0.781778	-0.274092	-0.480655
14704		8.944647	-1.823569	-3.564246	-0.004953	0.007301	-0.002103	-0.658691	0.402832	0.530762	0.287476	-0.781785	-0.273969	-0.480740
14705		8.924344	-1.927607	-3.548739	-0.004064	0.005995	-0.001863	-0.667236	0.399170	0.528564	0.287427	-0.781819	-0.273833	-0.480792
14706		8.932871	-1.938326	-3.600759	0.007004	0.007546	-0.004148	-0.661621	0.413574	0.526611	0.287439	-0.781793	-0.273765	-0.480864
14707		8.934683	-1.883227	-3.602618	0.007622	0.006719	-0.007046	-0.668701	0.402100	0.527344	0.287514	-0.781759	-0.273762	-0.480878
14708		8.965156	-1.826351	-3.568183	-0.005023	0.009046	-0.003369	-0.672852	0.408936	0.530029	0.287472	-0.781750	-0.273653	-0.480979
14709		8.956421	-1.903901	-3.568196	-0.010579	0.010676	-0.000654	-0.663086	0.405762	0.526611	0.287433	-0.781749	-0.273518	-0.481082
14710		8.923799	-1.926655	-3.575168	-0.006014	0.010409	0.000195	-0.665283	0.408691	0.523926	0.287419	-0.781752	-0.273381	-0.481162
14711		8.945483	-1.857332	-3.592911	-0.004178	0.012554	0.000020	-0.668213	0.403564	0.523682	0.287446	-0.781728	-0.273272	-0.481247
14712		8.931341	-1.850653	-3.550455	-0.011811	0.012335	0.005142	-0.659912	0.413574	0.528809	0.287422	-0.781732	-0.273089	-0.481359
14713		8.934071	-1.938362	-3.571002	-0.016544	0.011155	0.007791	-0.668945	0.405762	0.532959	0.287397	-0.781782	-0.272869	-0.481416
14714		8.937915	-1.936676	-3.537656	-0.014592	0.006744	0.005732	-0.668457	0.408691	0.523926	0.287320	-0.781841	-0.272654	-0.481488
14715		8.945073	-1.967760	-3.529665	-0.000821	0.002813	0.000066	-0.654297	0.406494	0.533936	0.287348	-0.781842	-0.272586	-0.481509
14716		8.919383	-1.895512	-3.576335	0.009428	0.003922	-0.001186	-0.664062	0.400879	0.530518	0.287386	-0.781871	-0.272491	-0.481493
14717		8.951264	-1.926125	-3.617220	-0.010871	0.002970	0.003192	-0.660645	0.403076	0.526367	0.287299	-0.781936	-0.272302	-0.481547
14718		8.897933	-2.055775	-3.505341	-0.003033	0.001203	0.000904	-0.664307	0.410889	0.526611	0.287273	-0.781978	-0.272181	-0.481563
14719		8.943267	-1.949132	-3.621501	0.007676	-0.001341	-0.009229	-0.665771	0.401123	0.524902	0.287306	-0.781968	-0.272204	-0.481545
14720		8.933101	-1.849659	-3.546542	0.001678	-0.000682	-0.006157	-0.661621	0.408936	0.528809	0.287277	-0.781977	-0.272162	-0.481573
14721		8.928850	-1.906321	-3.523173	-0.012910	0.002811	0.000533	-0.663574	0.406006	0.530518	0.287206	-0.782036	-0.272008	-0.481606
14722		8.936121	-2.007016	-3.577934	0.004846	-0.002123	-0.005492	-0.664062	0.405273	0.525879	0.287198	-0.782061	-0.271965	-0.481594
14723		8.921317	-1.999837	-3.537373	0.019371	-0.007118	-0.012486	-0.667725	0.409912	0.528320	0.287259	-0.782041	-0.272056	-0.481538
14724		8.940102	-1.947046	-3.655195	0.015435	-0.010924	-0.015276	-0.660156	0.408936	0.528564	0.287287	-0.782037	-0.272168	-0.481465
14725		8.915199	-1.911477	-3.550216	0.004369	-0.012475	-0.012998	-0.669189	0.408203	0.523926	0.287240	-0.782087	-0.272206	-0.481390
14726		8.948589	-1.956873	-3.605062	0.017270	-0.005521	-0.016409	-0.665527	0.400635	0.529053	0.287298	-0.782039	-0.272337	-0.481360
14727		8.937980	-1.855752	-3.583393	0.008415	-0.005464	-0.014970	-0.666748	0.400635	0.530762	0.287250	-0.782042	-0.272371	-0.481364
14728		8.953534	-1.897377	-3.576649	0.004454	-0.004650	-0.009238	-0.659912	0.395996	0.528076	0.287196	-0.782067	-0.272346	-0.481369
14729		8.940184	-1.905325	-3.601415	0.005912	-0.001971	-0.008749	-0.659180	0.402832	0.532959	0.287146	-0.782088	-0.272301	-0.481391
14730		8.938934	-1.923557	-3.593626	0.014197	-0.002753	-0.011397	-0.668701	0.408203	0.524658	0.287149	-0.782098	-0.272305	-0.481371
14731		8.925842	-1.896759	-3.560454	0.010516	-0.000541	-0.012966	-0.666992	0.406738	0.530762	0.287186	-0.782056	-0.272372	-0.481378
14732		8.947845	-1.701527	-3.520700	-0.001867	0.001291	-0.006156	-0.665527	0.407715	0.529541	0.287144	-0.782076	-0.272305	-0.481411
14733		8.918773	-2.024072	-3.631628	-0.018806	0.000134	0.000765	-0.663086	0.397461	0.525635	0.287024	-0.782154	-0.272132	-0.481452
14734		8.911001	-2.011876	-3.578393	0.009377	0.004311	-0.011933	-0.661377	0.409668	0.530029	0.287017	-0.782119	-0.272131	-0.481514
14735		8.924216	-1.803822	-3.590911	-0.003259	0.000118	-0.006341	-0.665527	0.408203	0.529541	0.286974	-0.782153	-0.272061	-0.481524
14736		8.944344	-1.916323	-3.507952	-0.009363	-0.002432	0.001495	-0.662598	0.405029	0.526855	0.286916	-0.782221	-0.271929	-0.481523
14737		8.940409	-1.952906	-3.598782	0.016083	-0.010539	-0.003320	-0.663574	0.405029	0.522949	0.286982	-0.782248	-0.271948	-0.481428
14738		8.945767	-1.842008	-3.573283	0.010442	-0.003921	-0.002832	-0.662354	0.401123	0.524170	0.287043	-0.782250	-0.271946	-0.481391
14739		8.930720	-1.904978	-3.647661	-0.009544	-0.000635	0.004033	-0.672607	0.410400	0.530273	0.286986	-0.782310	-0.271792	-0.481414
14740		8.932317	-2.013266	-3.556569	-0.018026	-0.001120	0.004810	-0.665039	0.405029	0.519043	0.286898	-0.782385	-0.271620	-0.481440
14741		8.900864	-2.052539	-3.577620	-0.002110	0.001585	-0.003922	-0.663086	0.406982	0.525146	0.286902	-0.782377	-0.271585	-0.481472
14742		8.933222	-1.956304	-3.612760	0.013248	-0.002944	-0.011942	-0.669922	0.404053	0.526123	0.286947	-0.782353	-0.271646	-0.481450
14743		8.934650	-1.900067	-3.615842	-0.007210	0.002808	-0.011047	-0.660645	0.410400	0.534424	0.286862	-0.782348	-0.271606	-0.481531
14744		8.912231	-1.914971	-3.579268	-0.016824	0.003918	-0.008277	-0.664062	0.406006	0.534424	0.286720	-0.782407	-0.271468	-0.481598
14745		8.953536	-1.956163	-3.567522	0.002083	0.006991	-0.013806	-0.663818	0.406494	0.528076	0.286670	-0.782391	-0.271430	-0.481674
14746		8.940574	-1.928026	-3.586069	0.020253	0.004629	-0.016084	-0.662354	0.411621	0.521729	0.286750	-0.782318	-0.271515	-0.481697
14747		8.934093	-1.895517	-3.592887	0.016334	-0.002433	-0.017909	-0.668945	0.405762	0.529053	0.286824	-0.782261	-0.271653	-0.481669
14748		8.926122	-1.882232	-3.592061	0.016852	0.003112	-0.013555	-0.662354	0.409668	0.531738	0.286883	-0.782202	-0.271714	-0.481694
14749		8.951858	-1.847099	-3.529339	0.020029	0.007995	-0.009440	-0.658447	0.405762	0.532715	0.286993	-0.782145	-0.271733	-0.481712
14750		8.933676	-1.806441	-3.515076	0.011116	0.003276	-0.007344	-0.661865	0.406982	0.521729	0.287018	-0.782146	-0.271689	-0.481719
14751		8.979118	-1.862240	-3.589153	-0.007155	-0.000828	0.000654	-0.664307	0.400879	0.522949	0.286994	-0.782186	-0.271590	-0.481724
14752		8.911388	-2.019114	-3.546102	0.014351	0.003350	-0.006374	-0.657959	0.398193	0.528564	0.287064	-0.782144	-0.271595	-0.481748
14753		8.955460	-1.807291	-3.595189	0.012028	0.001786	-0.001732	-0.656006	0.411621	0.524414	0.287098	-0.782156	-0.271515	-0.481753
14754		8.945808	-1.941120	-3.540257	-0.008169	-0.002537	-0.000194	-0.667236	0.412354	0.529785	0.287064	-0.782221	-0.271408	-0.481728
14755		8.915793	-1.961662	-3.569018	0.000062	0.001506	0.000303	-0.664795	0.407471	0.522949	0.287086	-0.782243	-0.271323	-0.481727
14756		8.918638	-1.922363	-3.636553	0.006420	0.010090	-0.006317	-0.658447	0.409668	0.526855	0.287145	-0.782189	-0.271299	-0.481794
14757		8.960662	-1.966593	-3.518387	0.003267	0.005019	-0.005059	-0.664307	0.407227	0.529541	0.287168	-0.782188	-0.271240	-0.481815
14758		8.915113	-1.908142	-3.548933	0.002694	0.004286	-0.006267	-0.666748	0.399658	0.529053	0.287163	-0.782187	-0.271180	-0.481853
14759		8.950446	-1.900272	-3.552615	-0.000090	0.001934	-0.006636	-0.659180	0.406982	0.528564	0.287106	-0.782199	-0.271104	-0.481910
14760		8.916286	-1.941623	-3.552796	-0.005986	0.002520	-0.007368	-0.666992	0.400146	0.529053	0.287036	-0.782231	-0.271013	-0.481951
14761		8.923279	-1.970701	-3.598118	-0.005332	-0.001744	-0.003932	-0.658691	0.411621	0.520996	0.286951	-0.782276	-0.270909	-0.481987
14762		8.967215	-1.849660	-3.544034	0.002071	-0.001204	-0.006816	-0.663086	0.399170	0.532715	0.286974	-0.782281	-0.270903	-0.481969
14763		8.968550	-1.829954	-3.552270	-0.002845	-0.003858	-0.000672	-0.662598	0.403076	0.524658	0.286894	-0.782354	-0.270765	-0.481975
14764		8.932577	-1.891458	-3.545208	-0.006143	0.000876	0.001500	-0.666992	0.406006	0.533447	0.286858	-0.782396	-0.270636	-0.482001
14765		8.921408	-1.952328	-3.586874	-0.008865	0.000030	0.001435	-0.665527	0.397949	0.527832	0.286783	-0.782463	-0.270475	-0.482028
14766		8.948677	-1.878301	-3.594509	-0.017217	-0.000710	0.003776	-0.672607	0.406006	0.530273	0.286651	-0.782548	-0.270270	-0.482083
14767		8.934708	-1.942461	-3.563117	-0.014442	0.004896	0.003184	-0.668457	0.411865	0.527344	0.286575	-0.782590	-0.270094	-0.482158
14768		8.939759	-1.955770	-3.595951	-0.009435	-0.000700	0.000227	-0.662354	0.406250	0.523438	0.286539	-0.782633	-0.269990	-0.482168
14769		8.933133	-1.925234	-3.550497	-0.004698	0.006813	0.001029	-0.662109	0.409912	0.524414	0.286542	-0.782640	-0.269873	-0.482220
14770		8.921817	-1.985370	-3.644460	0.001709	-0.000862	-0.000783	-0.671875	0.408203	0.528320	0.286573	-0.782660	-0.269816	-0.482201
14771		8.926265	-2.019858	-3.563434	0.012959	0.002180	-0.006555	-0.664062	0.406250	0.525146	0.286646	-0.782621	-0.269833	-0.482212
14772		8.924757	-2.003315	-3.550273	0.037274	-0.004097	-0.014732	-0.661133	0.408936	0.527344	0.286829	-0.782538	-0.270008	-0.482140
14773		8.934656	-1.709547	-3.488794	0.010701	-0.004193	-0.005057	-0.662354	0.402344	0.534912	0.286876	-0.782552	-0.270001	-0.482093
14774		8.979369	-1.856190	-3.564792	-0.000616	-0.002429	0.003858	-0.661133	0.404053	0.530273	0.286836	-0.782629	-0.269834	-0.482085
14775		8.933775	-1.961519	-3.554219	0.013135	-0.004750	0.002308	-0.666016	0.409180	0.530762	0.286897	-0.782667	-0.269762	-0.482027
14776		8.940219	-1.957956	-3.542105	0.019076	-0.003637	-0.002027	-0.659668	0.413086	0.535400	0.287003	-0.782666	-0.269762	-0.481967
14777		8.925693	-2.022173	-3.563555	0.009004	-0.006583	-0.003310	-0.660645	0.405518	0.523193	0.287023	-0.782721	-0.269709	-0.481894
14778		8.904069	-2.054931	-3.592740	0.020711	-0.005812	-0.008482	-0.662598	0.402588	0.532227	0.287118	-0.782700	-0.269777	-0.481834
14779		8.952439	-1.912559	-3.566822	0.020316	-0.005090	-0.013187	-0.658447	0.411377	0.522705	0.287149	-0.782691	-0.269825	-0.481804
14780		8.910122	-1.887180	-3.623051	0.007080	-0.000482	-0.006325	-0.667725	0.405518	0.523926	0.287196	-0.782687	-0.269822	-0.481784
14781		8.933464	-1.961138	-3.555213	-0.001030	-0.001522	-0.006216	-0.658936	0.408203	0.521973	0.287168	-0.782694	-0.269790	-0.481807
14782		8.931831	-1.944072	-3.542654	0.019435	-0.000716	-0.009023	-0.663574	0.406982	0.528809	0.287276	-0.782653	-0.269852	-0.481774
14783		8.960317	-1.850339	-3.610277	0.021910	-0.002636	-0.011131	-0.671875	0.404785	0.527832	0.287360	-0.782621	-0.269915	-0.481741
14784		8.942088	-1.845236	-3.601791	0.006264	-0.000922	-0.005300	-0.668945	0.408447	0.523682	0.287369	-0.782615	-0.269892	-0.481759
14785		8.923764	-1.931313	-3.541766	-0.005576	0.001604	0.002707	-0.658447	0.409424	0.531494	0.287365	-0.782637	-0.269786	-0.481784
14786		8.927854	-1.999744	-3.571272	-0.001964	-0.001913	-0.001390	-0.661377	0.408203	0.523682	0.287329	-0.782698	-0.269668	-0.481773
14787		8.940468	-1.953961	-3.595171	0.010188	-0.000160	-0.006924	-0.657959	0.408691	0.525635	0.287380	-0.782682	-0.269675	-0.481764
14788		8.929288	-1.853971	-3.573395	0.000628	-0.000824	-0.002895	-0.659180	0.409668	0.528809	0.287375	-0.782714	-0.269601	-0.481758
14789		8.938941	-1.936674	-3.582456	-0.010539	0.005634	0.001553	-0.668457	0.407715	0.524902	0.287322	-0.782762	-0.269428	-0.481808
14790		8.920667	-2.021542	-3.574523	0.004774	0.006148	-0.008681	-0.662842	0.402832	0.524170	0.287343	-0.782719	-0.269418	-0.481870
14791		8.935097	-1.921269	-3.547702	0.017133	0.005921	-0.011377	-0.663574	0.407227	0.529053	0.287413	-0.782654	-0.269452	-0.481915
14792		8.946569	-1.858837	-3.557510	0.003946	0.012023	-0.004220	-0.667236	0.411133	0.525146	0.287438	-0.782624	-0.269359	-0.482002
14793		8.963529	-1.936688	-3.553025	-0.011197	0.009893	-0.001891	-0.663086	0.413086	0.527832	0.287399	-0.782623	-0.269234	-0.482096
14794		8.903901	-2.033228	-3.552481	0.000022	0.011262	-0.002596	-0.663086	0.408691	0.525635	0.287428	-0.782603	-0.269137	-0.482164
14795		8.947045	-2.001002	-3.604310	-0.014538	0.003549	-0.002501	-0.668213	0.406250	0.531250	0.287337	-0.782646	-0.268998	-0.482227
14796		8.907623	-1.992719	-3.566921	-0.027238	0.012321	-0.000774	-0.663818	0.401855	0.533691	0.287163	-0.782695	-0.268752	-0.482388
14797		8.935707	-2.042986	-3.579419	-0.025831	0.007188	-0.004029	-0.665771	0.406250	0.521729	0.286948	-0.782772	-0.268512	-0.482526
14798		8.902522	-2.119622	-3.531898	-0.009337	-0.003642	-0.013352	-0.662354	0.414307	0.532471	0.286841	-0.782790	-0.268503	-0.482564
14799		8.926544	-1.954387	-3.623783	0.016386	-0.005447	-0.022292	-0.666992	0.407715	0.522217	0.286850	-0.782768	-0.268620	-0.482529
14800		8.958435	-1.913108	-3.550473	0.013797	-0.003473	-0.016383	-0.653809	0.406006	0.524902	0.286887	-0.782723	-0.268728	-0.482521
14801		8.920123	-2.318627	-3.483968	0.056226	-0.032387	-0.033621	-0.668701	0.409180	0.523682	0.287042	-0.782687	-0.269139	-0.482257
14802		8.968670	-1.917849	-3.680253	0.091675	-0.027177	-0.046941	-0.659180	0.406494	0.525391	0.287412	-0.782482	-0.269814	-0.481992
14803		8.898574	-1.589653	-3.555508	0.037014	-0.015877	-0.026281	-0.664795	0.406006	0.522949	0.287508	-0.782435	-0.270068	-0.481870
14804		8.936798	-1.884600	-3.588705	-0.003854	-0.008460	-0.011272	-0.662109	0.409424	0.525146	0.287425	-0.782472	-0.270066	-0.481860
14805		8.950249	-1.964470	-3.514057	0.003657	-0.012885	-0.011919	-0.668457	0.409424	0.529053	0.287383	-0.782516	-0.270103	-0.481793
14806		8.964379	-1.843869	-3.550618	0.014408	-0.005964	-0.014205	-0.666016	0.403564	0.522461	0.287407	-0.782500	-0.270176	-0.481764
14807		8.928959	-1.849111	-3.600144	-0.003205	-0.009467	-0.008795	-0.661133	0.415039	0.531982	0.287331	-0.782541	-0.270163	-0.481749
14808		8.902358	-1.866915	-3.597376	-0.009369	-0.005553	-0.002898	-0.659668	0.409668	0.524414	0.287253	-0.782625	-0.270053	-0.481722
14809		8.965277	-1.911707	-3.562132	-0.010180	0.005071	0.000885	-0.666016	0.405762	0.523438	0.287216	-0.782659	-0.269909	-0.481768
14810		8.928117	-2.047126	-3.542450	0.006138	0.002401	-0.002469	-0.667969	0.402832	0.527100	0.287259	-0.782646	-0.269868	-0.481788
14811		8.940417	-1.945478	-3.675342	0.002087	-0.001197	-0.006811	-0.670654	0.410889	0.526367	0.287227	-0.782655	-0.269823	-0.481817
14812		8.919591	-1.942747	-3.593866	-0.012534	0.003869	-0.005207	-0.659180	0.408203	0.531738	0.287151	-0.782671	-0.269731	-0.481888
14813		8.921719	-2.012657	-3.549873	-0.020724	0.004547	-0.006363	-0.666260	0.410156	0.528564	0.286984	-0.782738	-0.269552	-0.481978
14814		8.931390	-1.967674	-3.553522	0.000098	0.000328	-0.014534	-0.665283	0.402344	0.529297	0.286934	-0.782732	-0.269558	-0.482015
14815		8.939242	-1.816128	-3.543285	0.003941	0.005910	-0.013028	-0.656738	0.415527	0.532471	0.286896	-0.782705	-0.269527	-0.482099
14816		8.966634	-1.831298	-3.551431	-0.011428	0.000586	-0.002126	-0.664307	0.410889	0.524414	0.286821	-0.782778	-0.269380	-0.482106
14817		8.932170	-1.872563	-3.604491	-0.011317	0.003597	-0.001526	-0.665283	0.408203	0.529785	0.286773	-0.782806	-0.269266	-0.482152
14818		8.935260	-1.924717	-3.568495	-0.016566	0.002956	0.005584	-0.666504	0.403809	0.526123	0.286691	-0.782880	-0.269055	-0.482200
14819		8.918389	-1.990751	-3.568880	-0.017742	0.007990	0.001237	-0.666992	0.401367	0.530029	0.286592	-0.782916	-0.268864	-0.482307
14820		8.931164	-2.034604	-3.593438	-0.002752	0.002586	-0.006398	-0.665039	0.406738	0.530762	0.286527	-0.782931	-0.268771	-0.482372
14821		8.927806	-1.909999	-3.567008	-0.004236	0.006403	-0.008814	-0.662842	0.412109	0.532471	0.286467	-0.782933	-0.268686	-0.482453
14822		8.928495	-1.908378	-3.566152	-0.013823	0.008959	-0.005753	-0.660645	0.405029	0.527832	0.286374	-0.782960	-0.268538	-0.482547
14823		8.942531	-1.987768	-3.542290	-0.018240	0.005704	-0.004069	-0.659180	0.413818	0.528076	0.286242	-0.783008	-0.268369	-0.482640
14824		8.915643	-1.968856	-3.586373	-0.001862	0.001485	-0.011521	-0.667480	0.411621	0.524902	0.286208	-0.783017	-0.268344	-0.482659
14825		8.936718	-1.898918	-3.552655	0.006053	0.004347	-0.009098	-0.664551	0.410645	0.528076	0.286250	-0.782979	-0.268356	-0.482690
14826		8.954791	-1.867078	-3.556032	-0.009082	0.001978	-0.001401	-0.663330	0.406982	0.520264	0.286203	-0.783017	-0.268238	-0.482721
14827		8.918004	-1.946487	-3.593244	-0.012774	0.004168	-0.002975	-0.664795	0.409668	0.523438	0.286143	-0.783035	-0.268136	-0.482784
14828		8.937748	-1.986201	-3.553193	-0.015364	0.003069	-0.001471	-0.664551	0.404297	0.531006	0.286070	-0.783072	-0.268012	-0.482838
14829		8.921648	-1.996670	-3.557108	-0.006056	0.004254	-0.008632	-0.660889	0.415527	0.525391	0.285987	-0.783089	-0.267916	-0.482912
14830		8.932721	-2.022843	-3.569555	-0.007121	0.001236	-0.015146	-0.663818	0.408936	0.530762	0.285922	-0.783091	-0.267920	-0.482945
14831		8.936304	-1.927385	-3.588528	0.000039	0.002102	-0.015798	-0.661133	0.403076	0.521973	0.285864	-0.783084	-0.267915	-0.482994
14832		8.966015	-1.868434	-3.555127	-0.009417	0.004411	-0.011169	-0.663574	0.407227	0.530762	0.285775	-0.783085	-0.267856	-0.483078
14833		8.932360	-1.908863	-3.555476	-0.013195	0.000337	-0.012381	-0.661133	0.405273	0.519531	0.285634	-0.783125	-0.267775	-0.483140
14834		8.913844	-1.956863	-3.544027	0.006913	-0.001500	-0.013555	-0.663818	0.399170	0.533691	0.285647	-0.783098	-0.267831	-0.483146
14835		8.952290	-1.945980	-3.516489	0.004950	-0.011428	-0.013319	-0.664551	0.408203	0.525879	0.285557	-0.783152	-0.267820	-0.483118
14836		8.933449	-1.939311	-3.561905	0.009786	-0.004134	-0.010959	-0.668701	0.403564	0.529053	0.285584	-0.783143	-0.267862	-0.483092
14837		8.925517	-1.961606	-3.567199	0.016132	-0.014576	-0.018727	-0.664551	0.409668	0.526611	0.285573	-0.783148	-0.267984	-0.483024
14838		8.945562	-1.890658	-3.587661	0.006479	-0.002472	-0.013194	-0.664551	0.407959	0.533691	0.285576	-0.783136	-0.268025	-0.483019
14839		8.926805	-1.938876	-3.576811	-0.007046	-0.008523	-0.012247	-0.661133	0.403320	0.533447	0.285452	-0.783203	-0.267981	-0.483008
14840		8.915188	-1.927525	-3.557125	0.002734	-0.001787	-0.015068	-0.661133	0.415039	0.531982	0.285379	-0.783219	-0.267961	-0.483035
14841		8.947589	-2.011201	-3.542580	0.019331	-0.007963	-0.019687	-0.664307	0.410645	0.531250	0.285429	-0.783201	-0.268094	-0.482961
14842		8.919899	-1.902228	-3.586199	0.027778	-0.008908	-0.020760	-0.660156	0.402832	0.532471	0.285515	-0.783160	-0.268266	-0.482882
14843		8.932399	-1.855983	-3.558086	0.015621	-0.010730	-0.015226	-0.664551	0.403564	0.518799	0.285507	-0.783181	-0.268322	-0.482822
14844		8.942450	-1.882357	-3.624505	0.015676	-0.009221	-0.014925	-0.663818	0.400146	0.523926	0.285553	-0.783153	-0.268446	-0.482771
14845		8.921388	-1.879556	-3.543729	0.001612	-0.003456	-0.012111	-0.661865	0.407715	0.519775	0.285503	-0.783158	-0.268446	-0.482793
14846		8.939914	-2.027515	-3.550740	0.001616	-0.011464	-0.010477	-0.664551	0.405518	0.520264	0.285481	-0.783187	-0.268493	-0.482732
14847		8.931123	-1.958791	-3.607719	0.022892	-0.006623	-0.020646	-0.661621	0.400635	0.528564	0.285559	-0.783121	-0.268676	-0.482690
14848		8.939944	-1.824666	-3.558381	0.012095	-0.012028	-0.014261	-0.662598	0.402344	0.533203	0.285535	-0.783147	-0.268728	-0.482635
14849		8.941259	-1.784225	-3.629064	-0.016498	-0.014263	-0.005964	-0.661377	0.413086	0.525391	0.285344	-0.783277	-0.268603	-0.482606
14850		8.935288	-1.933436	-3.535417	-0.025252	-0.006735	0.000773	-0.657959	0.407227	0.536133	0.285205	-0.783387	-0.268450	-0.482595
14851		8.947031	-1.976322	-3.614882	0.001802	-0.010195	-0.008609	-0.655762	0.404297	0.533203	0.285142	-0.783461	-0.268405	-0.482537
14852		8.918942	-1.923060	-3.602980	0.016891	-0.009274	-0.016617	-0.661621	0.405518	0.531494	0.285146	-0.783475	-0.268471	-0.482476
14853		8.921346	-1.828653	-3.623195	-0.000510	-0.006831	-0.009998	-0.665283	0.412842	0.530273	0.285080	-0.783520	-0.268440	-0.482458
14854		8.942828	-1.939205	-3.592963	-0.007213	-0.002187	-0.005003	-0.664551	0.414307	0.524902	0.285032	-0.783561	-0.268371	-0.482458
14855		8.927254	-2.040313	-3.598151	0.012880	-0.000507	-0.012530	-0.670654	0.410400	0.532715	0.285111	-0.783517	-0.268456	-0.482436
14856		8.938094	-1.867797	-3.616191	0.027619	-0.002301	-0.018909	-0.653809	0.401123	0.531494	0.285220	-0.783443	-0.268610	-0.482407
14857		8.958943	-1.743283	-3.586085	0.012934	0.001002	-0.012230	-0.656982	0.403076	0.529541	0.285233	-0.783434	-0.268604	-0.482416
14858		8.897897	-1.878529	-3.570265	0.004874	0.001204	-0.006448	-0.658936	0.402588	0.524170	0.285231	-0.783446	-0.268547	-0.482429
14859		8.934396	-1.886844	-3.639428	0.007163	0.000892	-0.000661	-0.671387	0.405762	0.538818	0.285281	-0.783451	-0.268487	-0.482425
14860		8.939990	-1.901384	-3.619217	-0.008320	0.000687	0.002646	-0.664795	0.403809	0.528076	0.285213	-0.783515	-0.268308	-0.482460
14861		8.911560	-1.958797	-3.599460	-0.014354	0.001265	0.005716	-0.656982	0.408936	0.536377	0.285144	-0.783583	-0.268114	-0.482499
14862		8.918286	-1.953797	-3.587316	-0.007709	0.003130	-0.001213	-0.668945	0.405762	0.525879	0.285083	-0.783643	-0.267955	-0.482526
14863		8.917679	-1.917575	-3.582469	0.004923	0.002709	-0.006148	-0.659180	0.411133	0.533447	0.285111	-0.783619	-0.267935	-0.482560
14864		8.974579	-1.856851	-3.618217	0.008593	0.003786	-0.005545	-0.672852	0.403809	0.532715	0.285158	-0.783616	-0.267890	-0.482562
14865		8.937335	-1.757113	-3.599988	-0.017187	0.005395	0.003418	-0.658691	0.408936	0.529297	0.285058	-0.783667	-0.267683	-0.482653
14866		8.901898	-1.983113	-3.581605	-0.020804	0.005622	0.008478	-0.660156	0.402100	0.528076	0.284979	-0.783749	-0.267435	-0.482704
14867		8.929881	-2.035163	-3.594546	-0.001592	0.000601	0.002349	-0.659912	0.406250	0.526855	0.284972	-0.783789	-0.267306	-0.482715
14868		8.907059	-1.852865	-3.563498	0.005745	0.002956	-0.001807	-0.665527	0.401123	0.526367	0.285018	-0.783788	-0.267244	-0.482723
14869		8.910293	-1.850280	-3.583436	-0.008655	0.002720	0.003607	-0.666260	0.401123	0.527100	0.284978	-0.783827	-0.267085	-0.482772
14870		8.959330	-1.923746	-3.563987	-0.010407	0.006817	0.003422	-0.666260	0.400635	0.524414	0.284932	-0.783854	-0.266908	-0.482853
14871		8.919217	-1.916734	-3.579089	-0.008121	0.006707	0.003845	-0.666748	0.400391	0.527588	0.284909	-0.783870	-0.266749	-0.482928
14872		8.911756	-1.940609	-3.582557	-0.011562	0.008399	0.005409	-0.661621	0.415039	0.529541	0.284864	-0.783899	-0.266547	-0.483020
14873		8.925595	-1.876487	-3.560878	-0.010968	0.006087	0.002217	-0.670898	0.404785	0.529785	0.284846	-0.783933	-0.266401	-0.483055
14874		8.952119	-1.857322	-3.564028	-0.003066	0.008969	0.004633	-0.667480	0.411133	0.531738	0.284863	-0.783934	-0.266246	-0.483129
14875		8.973432	-1.824870	-3.534447	-0.017768	0.007517	0.011973	-0.658691	0.417725	0.529541	0.284825	-0.783999	-0.265994	-0.483186
14876		8.903874	-1.984888	-3.575705	-0.016331	0.010210	0.012457	-0.655518	0.408203	0.527832	0.284830	-0.784055	-0.265755	-0.483223
14877		8.902170	-2.058783	-3.616632	-0.007008	0.003423	0.006923	-0.666748	0.403809	0.529297	0.284831	-0.784109	-0.265580	-0.483230
14878		8.929247	-1.985770	-3.570540	-0.004703	0.008276	0.001320	-0.658447	0.408936	0.531494	0.284819	-0.784115	-0.265434	-0.483309
14879		8.929997	-1.876258	-3.576683	-0.009598	0.002521	0.003063	-0.663330	0.405273	0.530518	0.284777	-0.784174	-0.265266	-0.483329
14880		8.927235	-2.023767	-3.554318	-0.000999	-0.001711	-0.000845	-0.670410	0.408203	0.527588	0.284759	-0.784214	-0.265168	-0.483329
14881		8.933619	-2.018499	-3.594537	0.025863	0.001372	-0.008349	-0.664062	0.400635	0.525635	0.284912	-0.784142	-0.265249	-0.483311
14882		8.907018	-2.002905	-3.532999	0.029344	-0.011375	-0.012680	-0.663330	0.404785	0.529297	0.285021	-0.784112	-0.265378	-0.483224
14883		8.945989	-1.919164	-3.569620	0.042703	-0.014558	-0.013867	-0.659668	0.403320	0.523438	0.285207	-0.784069	-0.265572	-0.483078
14884		8.947905	-1.771223	-3.645739	0.026916	-0.007957	-0.010271	-0.672607	0.403076	0.532959	0.285329	-0.784037	-0.265677	-0.482999
14885		8.934006	-1.855678	-3.553424	0.000079	-0.001748	0.001268	-0.660889	0.401611	0.523682	0.285309	-0.784074	-0.265559	-0.483017
14886		8.928834	-1.986488	-3.571171	0.004956	-0.000747	0.000187	-0.661133	0.405029	0.537598	0.285339	-0.784088	-0.265485	-0.483016
14887		8.932317	-1.984645	-3.538735	0.018264	-0.005232	-0.006665	-0.669189	0.403076	0.531250	0.285389	-0.784105	-0.265472	-0.482968
14888		8.944066	-1.939226	-3.563231	0.013854	-0.008506	-0.004977	-0.666992	0.400391	0.531006	0.285422	-0.784123	-0.265468	-0.482921
14889		8.901681	-2.005616	-3.620951	0.009174	-0.003488	-0.002698	-0.669922	0.399170	0.522705	0.285437	-0.784141	-0.265408	-0.482916
14890		8.897746	-1.972438	-3.596140	0.007550	0.000568	-0.006684	-0.665039	0.403564	0.537598	0.285456	-0.784113	-0.265396	-0.482956
14891		8.912304	-1.943368	-3.579698	0.005681	-0.003101	-0.006800	-0.662598	0.413818	0.534424	0.285421	-0.784147	-0.265324	-0.482962
14892		8.912230	-1.997365	-3.576294	0.006552	-0.001144	-0.007525	-0.657959	0.406738	0.527344	0.285437	-0.784158	-0.265300	-0.482946
14893		8.935814	-1.870643	-3.567092	0.009225	-0.001778	-0.007763	-0.667725	0.396484	0.530518	0.285464	-0.784159	-0.265293	-0.482932
14894		8.936875	-1.905667	-3.571458	0.003623	-0.000224	-0.005058	-0.664062	0.414795	0.525391	0.285429	-0.784172	-0.265209	-0.482979
14895		8.922716	-1.933842	-3.587413	0.008727	0.003547	-0.003976	-0.662354	0.402344	0.520020	0.285515	-0.784143	-0.265207	-0.482977
14896		8.930624	-1.964666	-3.578880	0.005234	0.003730	-0.002714	-0.657227	0.396973	0.529541	0.285557	-0.784120	-0.265163	-0.483012
14897		8.933562	-1.926771	-3.541319	0.004671	0.002995	-0.003918	-0.668701	0.403564	0.526855	0.285540	-0.784134	-0.265055	-0.483059
14898		8.935413	-1.942647	-3.605826	0.013125	0.002071	-0.004993	-0.661865	0.401367	0.518799	0.285606	-0.784102	-0.265043	-0.483080
14899		8.935770	-1.942517	-3.605011	0.001660	0.005660	-0.002722	-0.666504	0.404053	0.529541	0.285629	-0.784079	-0.264981	-0.483137
14900		8.910841	-1.942187	-3.608769	-0.010451	-0.002505	-0.000609	-0.664795	0.404541	0.524658	0.285539	-0.784141	-0.264840	-0.483167
14901		8.935977	-1.941398	-3.605101	-0.008486	0.004176	0.000103	-0.662598	0.406982	0.527588	0.285498	-0.784163	-0.264710	-0.483228
14902		8.936561	-1.941446	-3.552201	0.002368	-0.001654	-0.003670	-0.656006	0.411865	0.530029	0.285497	-0.784183	-0.264653	-0.483226
14903		8.919185	-1.972389	-3.548076	0.014027	0.000777	-0.004747	-0.661621	0.411377	0.535156	0.285581	-0.784175	-0.264640	-0.483195
14904		8.951710	-1.948067	-3.592328	0.013593	-0.000200	-0.004384	-0.663086	0.409668	0.526855	0.285645	-0.784179	-0.264607	-0.483171
14905		8.919069	-1.971951	-3.600030	0.006347	0.000648	-0.004996	-0.658447	0.405762	0.530273	0.285680	-0.784173	-0.264581	-0.483172
14906		8.925821	-2.021345	-3.584027	0.000437	0.001179	-0.005727	-0.659180	0.406738	0.534668	0.285650	-0.784196	-0.264498	-0.483199
14907		8.899908	-2.094563	-3.575853	0.021412	0.000095	-0.013293	-0.660156	0.410645	0.533936	0.285713	-0.784166	-0.264535	-0.483191
14908		8.933114	-1.960215	-3.575104	0.030961	-0.013214	-0.020660	-0.666016	0.413086	0.534912	0.285795	-0.784145	-0.264706	-0.483083
14909		8.956611	-1.778425	-3.569921	0.018357	0.001262	-0.012396	-0.666016	0.407471	0.525146	0.285866	-0.784106	-0.264751	-0.483079
14910		8.925587	-1.872380	-3.639211	-0.006216	-0.000497	-0.004163	-0.655518	0.407715	0.527832	0.285817	-0.784130	-0.264674	-0.483110
14911		8.945028	-1.931719	-3.538188	-0.002321	0.003356	-0.001398	-0.654541	0.410400	0.524414	0.285803	-0.784158	-0.264559	-0.483137
14912		8.961566	-1.919372	-3.533986	-0.004962	0.000736	-0.000189	-0.657471	0.401367	0.527344	0.285789	-0.784197	-0.264455	-0.483139
14913		8.924241	-1.964612	-3.566360	0.005832	0.001222	-0.000539	-0.661621	0.405518	0.528320	0.285808	-0.784215	-0.264357	-0.483152
14914		8.910264	-1.938534	-3.585563	0.007878	0.006358	-0.003925	-0.667236	0.411621	0.528076	0.285850	-0.784194	-0.264291	-0.483197
14915		8.929200	-1.942921	-3.592689	0.002656	0.007378	-0.001885	-0.664062	0.406250	0.526855	0.285890	-0.784174	-0.264218	-0.483247
14916		8.953761	-1.961507	-3.579642	0.001191	0.007935	-0.003335	-0.661865	0.415039	0.532471	0.285900	-0.784157	-0.264129	-0.483317
14917		8.950706	-1.928591	-3.500805	0.004864	0.009021	-0.002730	-0.665527	0.411133	0.532715	0.285950	-0.784140	-0.264048	-0.483359
14918		8.904883	-1.961494	-3.584440	0.009573	0.008771	-0.005675	-0.666016	0.412354	0.529541	0.286005	-0.784104	-0.263996	-0.483413
14919		8.929862	-1.871291	-3.526111	-0.007289	0.003892	0.003773	-0.661865	0.407471	0.531982	0.285990	-0.784140	-0.263844	-0.483446
14920		8.931707	-1.942230	-3.586825	-0.009387	0.010018	0.004536	-0.663086	0.407959	0.536377	0.285954	-0.784173	-0.263631	-0.483530
14921		8.947717	-1.949960	-3.521159	-0.000166	0.003295	0.002823	-0.666992	0.403809	0.528076	0.285944	-0.784216	-0.263464	-0.483558
14922		8.935240	-1.940320	-3.605752	-0.004953	0.005294	0.004496	-0.663330	0.411377	0.529785	0.285928	-0.784242	-0.263295	-0.483617
14923		8.902914	-2.019721	-3.556890	-0.011173	0.004599	0.005693	-0.664307	0.406006	0.529053	0.285892	-0.784294	-0.263104	-0.483658
14924		8.908239	-2.088392	-3.585290	-0.001274	0.006580	-0.000260	-0.655762	0.404297	0.526855	0.285886	-0.784300	-0.262976	-0.483721
14925		8.939568	-1.992770	-3.567434	0.013239	0.005298	-0.009751	-0.657959	0.409912	0.530518	0.285933	-0.784265	-0.262962	-0.483758
14926		8.933630	-1.942096	-3.582108	0.010131	0.004951	-0.009153	-0.657471	0.406250	0.535156	0.285967	-0.784243	-0.262936	-0.483787
14927		8.920281	-2.024894	-3.540804	0.011391	0.006384	-0.010540	-0.661133	0.405762	0.526123	0.285981	-0.784224	-0.262884	-0.483839
14928		8.927289	-2.018655	-3.580177	0.017655	0.004031	-0.016124	-0.667725	0.409912	0.527588	0.286035	-0.784160	-0.262948	-0.483876
14929		8.944872	-1.896430	-3.529492	0.022622	0.003303	-0.015930	-0.667236	0.417480	0.532959	0.286131	-0.784079	-0.263047	-0.483896
14930		8.957364	-1.904852	-3.548700	0.018087	0.004819	-0.011124	-0.659424	0.402100	0.529541	0.286226	-0.784025	-0.263088	-0.483905
14931		8.928757	-1.980754	-3.519224	0.020641	0.004436	-0.012924	-0.660156	0.401123	0.523193	0.286289	-0.783973	-0.263108	-0.483941
14932		8.920305	-1.968090	-3.570677	0.032520	0.000352	-0.015834	-0.670166	0.408691	0.530029	0.286425	-0.783888	-0.263232	-0.483931
14933		8.944160	-1.842074	-3.507978	0.025478	0.003761	-0.008933	-0.663818	0.407227	0.522217	0.286555	-0.783819	-0.263280	-0.483939
14934		8.947596	-1.839952	-3.527313	0.010852	0.002013	-0.000043	-0.662109	0.409180	0.533447	0.286638	-0.783804	-0.263237	-0.483938
14935		8.939039	-1.884263	-3.470530	0.003901	-0.004342	0.009787	-0.660645	0.407959	0.528809	0.286671	-0.783881	-0.263063	-0.483888
14936		8.934337	-1.997320	-3.601232	0.012076	-0.001701	0.009976	-0.659424	0.421631	0.521973	0.286774	-0.783920	-0.262931	-0.483835
14937		8.941764	-2.139439	-3.585120	0.024030	0.000675	0.001319	-0.658447	0.415039	0.526855	0.286986	-0.783881	-0.262971	-0.483752
14938		8.887852	-2.034048	-3.633114	0.004598	-0.008210	0.002517	-0.667236	0.409912	0.531006	0.287020	-0.783943	-0.262899	-0.483670
14939		8.890753	-2.140845	-3.646314	-0.009113	0.001905	-0.001415	-0.659668	0.417969	0.527100	0.286946	-0.783988	-0.262752	-0.483721
14940		8.898865	-2.170580	-3.586145	0.000178	-0.007671	-0.012859	-0.665039	0.408203	0.525635	0.286899	-0.784022	-0.262771	-0.483684
14941		8.941650	-2.027574	-3.594502	0.006868	-0.001030	-0.020464	-0.662842	0.409424	0.529785	0.286857	-0.783990	-0.262838	-0.483725
14942		8.916184	-1.989524	-3.594045	0.006356	-0.000261	-0.021371	-0.662842	0.404785	0.531494	0.286800	-0.783966	-0.262887	-0.483771
14943		8.939917	-1.969912	-3.577526	0.008179	0.001916	-0.021557	-0.662109	0.405518	0.533936	0.286740	-0.783935	-0.262918	-0.483840
14944		8.950671	-1.851119	-3.539924	0.010769	0.002847	-0.017699	-0.658447	0.406738	0.521484	0.286710	-0.783909	-0.262920	-0.483898
14945		8.950145	-1.868380	-3.531570	0.001322	-0.001429	-0.011135	-0.662109	0.412598	0.529541	0.286675	-0.783913	-0.262911	-0.483917
14946		8.960270	-1.914517	-3.535776	0.004778	0.001461	-0.008007	-0.664551	0.398682	0.525391	0.286677	-0.783914	-0.262872	-0.483935
14947		8.925849	-1.975849	-3.527427	-0.004006	0.001129	-0.005014	-0.664062	0.408691	0.530762	0.286604	-0.783938	-0.262764	-0.483999
14948		8.903833	-2.081415	-3.597279	-0.010665	-0.005129	-0.008133	-0.669189	0.406738	0.521973	0.286475	-0.784004	-0.262665	-0.484021
14949		8.905004	-2.114919	-3.602572	-0.007020	-0.005340	-0.013183	-0.653809	0.408691	0.522705	0.286374	-0.784024	-0.262664	-0.484050
14950		8.942950	-2.011922	-3.521631	-0.004086	0.001963	-0.022666	-0.664795	0.404297	0.530029	0.286268	-0.784009	-0.262694	-0.484120
14951		8.952008	-1.965234	-3.578265	0.005563	-0.000495	-0.025705	-0.656982	0.413086	0.532715	0.286176	-0.783979	-0.262759	-0.484188
14952		8.923705	-1.929000	-3.556927	0.007002	0.006969	-0.025915	-0.660645	0.406006	0.540527	0.286124	-0.783929	-0.262810	-0.484273
14953		8.939890	-1.932384	-3.596482	0.002285	0.007207	-0.022975	-0.668945	0.410156	0.525879	0.286010	-0.783912	-0.262770	-0.484389
14954		8.933605	-1.898359	-3.550637	-0.010519	0.007798	-0.019634	-0.667480	0.401855	0.526367	0.285889	-0.783881	-0.262757	-0.484517
14955		8.942519	-1.925570	-3.541786	-0.016658	0.010091	-0.017852	-0.654785	0.408447	0.526611	0.285715	-0.783866	-0.262676	-0.484688
14956		8.930776	-1.986741	-3.509158	-0.012087	0.000383	-0.015630	-0.666748	0.408447	0.529541	0.285571	-0.783902	-0.262613	-0.484749
14957		8.944152	-2.028179	-3.586823	-0.003031	0.000451	-0.020846	-0.666748	0.409180	0.530518	0.285463	-0.783893	-0.262630	-0.484818
14958		8.921320	-2.006412	-3.545494	0.006152	0.005039	-0.025178	-0.667969	0.402100	0.524170	0.285408	-0.783836	-0.262699	-0.484905
14959		8.918740	-2.004616	-3.629887	-0.005246	0.007021	-0.027021	-0.660645	0.401123	0.529053	0.285275	-0.783781	-0.262745	-0.485048
14960		8.945981	-1.925970	-3.636433	-0.014023	0.016196	-0.025394	-0.661621	0.404785	0.526611	0.285090	-0.783736	-0.262681	-0.485263
14961		8.924944	-1.957785	-3.536251	-0.015744	0.026560	-0.025981	-0.663574	0.403076	0.531494	0.284934	-0.783644	-0.262614	-0.485540
14962		8.929767	-1.969490	-3.492702	-0.014803	0.020724	-0.030409	-0.662109	0.405518	0.524658	0.284735	-0.783573	-0.262567	-0.485796
14963		8.971933	-1.970374	-3.527301	-0.010383	0.014521	-0.030732	-0.670654	0.408447	0.526855	0.284578	-0.783502	-0.262594	-0.485989
14964		8.960027	-1.865731	-3.504681	0.003138	0.009907	-0.035968	-0.661621	0.404541	0.521729	0.284484	-0.783397	-0.262734	-0.486136
14965		8.932333	-1.882599	-3.531476	-0.001422	0.011394	-0.031171	-0.665771	0.408936	0.533203	0.284384	-0.783312	-0.262818	-0.486288
14966		8.953949	-1.844176	-3.554837	-0.005315	0.002546	-0.027899	-0.673340	0.402344	0.529297	0.284231	-0.783298	-0.262846	-0.486383
14967		8.970053	-1.792733	-3.493207	0.005771	0.004122	-0.024797	-0.669434	0.403076	0.531494	0.284165	-0.783241	-0.262915	-0.486477
14968		8.963443	-1.813476	-3.496917	0.000260	0.000617	-0.019866	-0.672607	0.403320	0.526367	0.284069	-0.783232	-0.262920	-0.486544
14969		8.958011	-1.870367	-3.505251	-0.007698	0.001996	-0.012253	-0.671875	0.407471	0.530762	0.283973	-0.783237	-0.262874	-0.486617
14970		8.937663	-1.901822	-3.534545	-0.021170	-0.006192	-0.004685	-0.658936	0.406494	0.524414	0.283801	-0.783333	-0.262730	-0.486641
14971		8.948700	-1.928169	-3.548141	-0.007060	-0.003781	-0.009100	-0.668213	0.401855	0.525391	0.283720	-0.783380	-0.262673	-0.486643
14972		8.956885	-1.956936	-3.540788	-0.001584	-0.001775	-0.014325	-0.665039	0.405029	0.527344	0.283647	-0.783384	-0.262670	-0.486681
14973		8.899435	-1.925343	-3.504005	0.000190	-0.001095	-0.014803	-0.664551	0.401611	0.532227	0.283587	-0.783389	-0.262667	-0.486710
14974		8.934714	-1.968972	-3.610297	-0.008404	0.000006	-0.015316	-0.664795	0.402588	0.523682	0.283447	-0.783422	-0.262597	-0.486777
14975		8.962699	-2.001686	-3.504237	-0.002782	0.012807	-0.020033	-0.667969	0.396729	0.528320	0.283382	-0.783358	-0.262597	-0.486917
14976		8.958529	-1.910810	-3.482409	0.007133	-0.000916	-0.024228	-0.669189	0.406006	0.520020	0.283306	-0.783325	-0.262665	-0.486977
14977		8.956361	-1.762852	-3.485614	0.009505	-0.002756	-0.022528	-0.661377	0.411377	0.527344	0.283300	-0.783274	-0.262802	-0.486988
14978		8.961788	-1.847877	-3.559537	0.012113	-0.005091	-0.017696	-0.667969	0.407959	0.520752	0.283315	-0.783264	-0.262886	-0.486950
14979		8.960768	-1.810779	-3.502803	-0.001730	-0.001742	-0.010531	-0.655273	0.403809	0.527100	0.283290	-0.783265	-0.262896	-0.486959
14980		8.955606	-1.923330	-3.508414	0.001285	-0.010649	-0.011333	-0.667480	0.402588	0.532227	0.283226	-0.783327	-0.262881	-0.486904
14981		8.945468	-2.002544	-3.542514	0.013506	-0.008647	-0.016837	-0.666260	0.397217	0.531982	0.283211	-0.783335	-0.262941	-0.486868
14982		8.952407	-1.848212	-3.554360	0.007618	-0.001893	-0.017962	-0.663086	0.409180	0.529297	0.283153	-0.783329	-0.262955	-0.486902
14983		8.954320	-1.881278	-3.558997	-0.024601	0.000417	-0.009166	-0.655762	0.403320	0.522217	0.282965	-0.783404	-0.262811	-0.486969
14984		8.963321	-2.037612	-3.536564	-0.009361	-0.006480	-0.015472	-0.662842	0.403320	0.532715	0.282840	-0.783453	-0.262795	-0.486972
14985		8.958902	-1.854164	-3.536571	0.005902	-0.007104	-0.022162	-0.667236	0.400635	0.530029	0.282758	-0.783467	-0.262850	-0.486967
14986		8.966280	-1.753707	-3.545410	-0.004853	-0.009664	-0.015205	-0.668945	0.406494	0.528076	0.282632	-0.783520	-0.262837	-0.486962
14987		8.944387	-1.823111	-3.559049	-0.012524	-0.002317	-0.010198	-0.661865	0.406494	0.525635	0.282515	-0.783564	-0.262769	-0.486996
14988		8.947813	-1.892612	-3.515915	-0.008365	-0.008240	-0.008300	-0.665283	0.403076	0.521973	0.282425	-0.783629	-0.262721	-0.486969
14989		8.933567	-1.919736	-3.534213	-0.001794	-0.015776	-0.010062	-0.669678	0.402100	0.529541	0.282358	-0.783694	-0.262744	-0.486892
14990		8.982617	-1.862475	-3.479601	0.009132	-0.016715	-0.014482	-0.667480	0.398438	0.526611	0.282320	-0.783737	-0.262814	-0.486806
14991		8.928188	-1.863918	-3.575052	-0.002853	-0.015740	-0.012168	-0.661865	0.393066	0.524414	0.282214	-0.783807	-0.262820	-0.486751
14992		8.924354	-1.937898	-3.598123	-0.006842	-0.013324	-0.011524	-0.667725	0.404541	0.533203	0.282080	-0.783882	-0.262790	-0.486724
14993		8.951936	-1.951474	-3.607326	0.007997	0.002383	-0.019302	-0.671387	0.400391	0.531494	0.282056	-0.783849	-0.262832	-0.486770
14994		8.957760	-1.835317	-3.549272	0.012936	0.000191	-0.019403	-0.664795	0.402100	0.529785	0.282053	-0.783805	-0.262903	-0.486804
14995		8.974383	-1.821060	-3.545091	0.007863	-0.002357	-0.014833	-0.673584	0.401611	0.526855	0.282037	-0.783798	-0.262931	-0.486808
14996		8.977237	-1.836070	-3.505172	-0.005328	-0.006105	-0.010158	-0.670410	0.401367	0.531982	0.281956	-0.783830	-0.262910	-0.486816
14997		8.927401	-1.890194	-3.563562	-0.021758	-0.008712	-0.000801	-0.665039	0.403809	0.538574	0.281784	-0.783947	-0.262739	-0.486820
14998		8.955241	-1.885474	-3.581518	-0.009511	-0.005177	-0.006019	-0.669189	0.399658	0.527100	0.281666	-0.784029	-0.262614	-0.486823
14999		8.934667	-1.770365	-3.581951	-0.022752	-0.005665	-0.002316	-0.674805	0.399902	0.531006	0.281499	-0.784122	-0.262461	-0.486852
15000		8.995403	-1.795821	-3.588918	-0.051654	-0.010024	0.014787	-0.669678	0.399170	0.529053	0.281195	-0.784339	-0.262082	-0.486883
15001		8.948238	-1.868151	-3.554616	-0.025955	-0.001738	0.008318	-0.665771	0.400146	0.529785	0.281055	-0.784448	-0.261833	-0.486921
15002		8.953892	-1.715720	-3.566945	-0.032241	-0.004232	0.014571	-0.658203	0.392822	0.526855	0.280895	-0.784602	-0.261518	-0.486935
15003		8.936225	-1.894355	-3.594469	-0.041132	-0.004374	0.016002	-0.662842	0.400635	0.534180	0.280669	-0.784786	-0.261144	-0.486970
15004		8.957539	-1.896340	-3.571967	-0.025336	-0.004245	0.010495	-0.662354	0.401855	0.526367	0.280528	-0.784926	-0.260865	-0.486975
15005		8.942874	-1.870545	-3.591744	-0.007658	0.013601	0.004658	-0.667725	0.403320	0.529541	0.280542	-0.784922	-0.260692	-0.487066
15006		8.967087	-1.908241	-3.570357	-0.008237	0.011366	0.003157	-0.666260	0.396240	0.528809	0.280539	-0.784925	-0.260529	-0.487151
15007		8.924696	-1.885136	-3.624611	-0.003742	0.019212	0.002372	-0.668945	0.392334	0.523926	0.280561	-0.784886	-0.260354	-0.487293
15008		8.932536	-1.880966	-3.557226	-0.011640	0.016023	0.005310	-0.665527	0.394043	0.531250	0.280539	-0.784874	-0.260150	-0.487436
15009		8.942201	-1.892638	-3.555437	-0.005606	0.014023	0.001956	-0.666260	0.398926	0.536621	0.280523	-0.784868	-0.259963	-0.487554
15010		8.970288	-1.834706	-3.573334	0.005422	0.012826	-0.000907	-0.670654	0.402588	0.528564	0.280562	-0.784843	-0.259833	-0.487640
15011		8.985146	-1.806372	-3.554054	-0.000407	0.023857	0.004241	-0.666504	0.400146	0.530518	0.280641	-0.784775	-0.259669	-0.487792
15012		8.928541	-1.905998	-3.552634	-0.029331	0.010487	0.015739	-0.669189	0.390381	0.533936	0.280534	-0.784865	-0.259322	-0.487893
15013		8.944111	-2.060189	-3.569689	-0.015235	0.011664	0.005666	-0.666748	0.399902	0.532959	0.280446	-0.784902	-0.259060	-0.488023
15014		8.943764	-1.931506	-3.583270	0.007338	0.007225	-0.004800	-0.665283	0.403320	0.527832	0.280482	-0.784880	-0.258993	-0.488073
15015		8.951928	-1.833996	-3.536079	-0.005353	0.012261	-0.000566	-0.673096	0.398926	0.529541	0.280485	-0.784866	-0.258864	-0.488163
15016		8.937199	-1.900732	-3.535303	-0.013498	0.010843	0.004888	-0.653076	0.399414	0.536133	0.280440	-0.784884	-0.258660	-0.488268
15017		8.954596	-1.943177	-3.526705	0.005771	0.004533	-0.001491	-0.665527	0.396973	0.526123	0.280459	-0.784908	-0.258538	-0.488282
15018		8.976795	-1.797655	-3.524176	0.015771	0.004876	-0.006155	-0.661621	0.400879	0.528076	0.280549	-0.784862	-0.258539	-0.488305
15019		8.960359	-1.756271	-3.477913	0.003993	0.005117	0.004640	-0.668945	0.401367	0.528320	0.280610	-0.784873	-0.258417	-0.488317
15020		8.971195	-1.858765	-3.531842	-0.005035	-0.004548	0.011180	-0.667725	0.389893	0.529297	0.280619	-0.784950	-0.258246	-0.488279
15021		8.945011	-1.953731	-3.516741	0.008573	0.000165	0.006162	-0.667969	0.395752	0.524170	0.280673	-0.784972	-0.258118	-0.488279
15022		8.954057	-1.947202	-3.577719	0.016902	-0.006700	0.003907	-0.669678	0.397217	0.525879	0.280787	-0.784985	-0.258092	-0.488207
15023		8.942372	-1.920284	-3.565666	0.013442	-0.006315	-0.000194	-0.665039	0.399414	0.530518	0.280862	-0.784996	-0.258075	-0.488155
15024		8.940259	-1.958555	-3.603059	0.007572	-0.004322	-0.000635	-0.661377	0.401367	0.533691	0.280892	-0.785027	-0.258012	-0.488121
15025		8.932447	-1.928986	-3.505726	0.011717	-0.006756	-0.005072	-0.665771	0.397217	0.536865	0.280922	-0.785059	-0.257988	-0.488065
15026		8.975555	-1.859204	-3.522374	0.017910	-0.011007	-0.000235	-0.668701	0.403076	0.526123	0.280984	-0.785107	-0.257948	-0.487973
15027		8.959681	-1.853210	-3.535160	0.024756	-0.007775	-0.005274	-0.668213	0.404053	0.523926	0.281122	-0.785086	-0.258026	-0.487886
15028		8.945074	-1.882670	-3.605028	0.024372	-0.010750	0.001710	-0.661865	0.406494	0.523193	0.281288	-0.785089	-0.258075	-0.487760
15029		8.942417	-1.941864	-3.529217	0.010544	-0.008689	0.003234	-0.661621	0.399414	0.534912	0.281381	-0.785124	-0.258054	-0.487661
15030		8.930225	-1.988347	-3.559069	0.008067	-0.010087	0.006300	-0.673828	0.402832	0.532227	0.281415	-0.785205	-0.257937	-0.487573
15031		8.971501	-1.884280	-3.519619	0.007898	-0.017609	0.004812	-0.658203	0.400146	0.524902	0.281444	-0.785291	-0.257881	-0.487446
15032		8.946839	-1.921062	-3.582317	0.012594	-0.008273	0.000530	-0.673096	0.404297	0.526855	0.281517	-0.785324	-0.257857	-0.487365
15033		8.935800	-1.948620	-3.567250	0.014932	-0.011620	0.001928	-0.665527	0.396973	0.527588	0.281611	-0.785352	-0.257860	-0.487263
15034		8.950602	-1.956448	-3.556217	0.010861	-0.007447	0.001307	-0.661377	0.399414	0.531982	0.281662	-0.785385	-0.257809	-0.487208
15035		8.924415	-1.976809	-3.552691	0.014164	-0.005583	-0.002782	-0.664795	0.393066	0.534424	0.281715	-0.785406	-0.257778	-0.487159
15036		8.935343	-1.931604	-3.577153	0.024654	-0.007510	-0.006844	-0.669189	0.398682	0.525635	0.281792	-0.785406	-0.257795	-0.487105
15037		8.952050	-1.900738	-3.581427	0.020358	-0.006326	-0.004269	-0.667969	0.406982	0.533203	0.281894	-0.785391	-0.257833	-0.487051
15038		8.923698	-1.978162	-3.553740	0.011454	-0.006474	-0.002843	-0.662109	0.405518	0.533447	0.281945	-0.785414	-0.257815	-0.486995
15039		8.916178	-2.002122	-3.558438	0.016462	-0.006937	-0.008005	-0.663086	0.406982	0.527588	0.282001	-0.785424	-0.257840	-0.486933
15040		8.926366	-1.901610	-3.586742	0.022140	-0.006912	-0.010399	-0.656006	0.401611	0.523926	0.282103	-0.785401	-0.257933	-0.486860
15041		8.936210	-1.894253	-3.542638	0.007281	-0.006816	-0.004353	-0.663818	0.404297	0.532471	0.282127	-0.785430	-0.257919	-0.486808
15042		8.961838	-1.948147	-3.535796	0.011307	-0.007723	-0.004702	-0.665283	0.395996	0.526855	0.282159	-0.785458	-0.257906	-0.486750
15043		8.942201	-1.888971	-3.532112	0.004050	-0.006946	-0.005321	-0.661621	0.407227	0.539062	0.282136	-0.785490	-0.257866	-0.486734
15044		8.932812	-1.950438	-3.573734	0.007316	-0.005310	-0.004057	-0.661133	0.404297	0.532715	0.282139	-0.785535	-0.257805	-0.486692
15045		8.926775	-1.935970	-3.594612	0.011587	-0.007990	-0.006927	-0.663574	0.410156	0.526855	0.282163	-0.785562	-0.257804	-0.486634
15046		8.923491	-1.938118	-3.575052	0.011071	-0.007221	-0.007833	-0.661865	0.396484	0.522461	0.282213	-0.785568	-0.257849	-0.486572
15047		8.969971	-1.938693	-3.600431	0.009883	-0.005662	-0.005855	-0.658691	0.409912	0.528809	0.282240	-0.785574	-0.257851	-0.486546
15048		8.885938	-2.002325	-3.600551	0.005737	-0.004508	-0.007071	-0.666260	0.402832	0.527344	0.282258	-0.785593	-0.257850	-0.486506
15049		8.920484	-1.993193	-3.605772	-0.010775	-0.006634	-0.004623	-0.660889	0.399902	0.541748	0.282158	-0.785655	-0.257764	-0.486508
15050		8.919806	-2.010724	-3.598482	-0.002644	-0.000447	-0.010772	-0.659668	0.405273	0.528564	0.282053	-0.785698	-0.257664	-0.486554
15051		8.923518	-1.932670	-3.577933	0.002365	-0.000906	-0.015935	-0.672363	0.400635	0.525635	0.282009	-0.785690	-0.257689	-0.486578
15052		8.980478	-1.850584	-3.569815	0.006029	0.000215	-0.015332	-0.663330	0.399658	0.531250	0.281991	-0.785653	-0.257734	-0.486625
15053		8.950438	-1.835712	-3.540809	0.005476	0.000756	-0.010883	-0.663086	0.405762	0.532227	0.281970	-0.785646	-0.257711	-0.486660
15054		8.916660	-1.896957	-3.585199	-0.002856	0.002832	-0.007958	-0.663818	0.407715	0.537109	0.281925	-0.785657	-0.257644	-0.486705
15055		8.950669	-1.926201	-3.520398	0.000983	0.000446	-0.004813	-0.662354	0.403809	0.534912	0.281905	-0.785683	-0.257564	-0.486716
15056		8.928504	-1.849958	-3.556526	0.001866	-0.002344	-0.004860	-0.661865	0.405762	0.531494	0.281881	-0.785717	-0.257491	-0.486714
15057		8.941239	-1.932502	-3.512401	-0.000637	0.001017	-0.002472	-0.664062	0.398682	0.531006	0.281871	-0.785741	-0.257404	-0.486727
15058		8.946280	-1.945867	-3.597844	0.005100	-0.002208	-0.003892	-0.662598	0.406738	0.530273	0.281868	-0.785761	-0.257341	-0.486730
15059		8.910870	-1.972807	-3.585741	-0.001922	-0.001940	-0.001379	-0.666504	0.403564	0.525391	0.281853	-0.785799	-0.257257	-0.486722
15060		8.939698	-1.949976	-3.610497	0.002295	-0.001358	-0.005224	-0.665527	0.406738	0.531250	0.281857	-0.785802	-0.257229	-0.486728
15061		8.922376	-1.926441	-3.557574	0.002415	-0.001607	-0.003659	-0.665283	0.401123	0.533203	0.281860	-0.785822	-0.257176	-0.486723
15062		8.953146	-1.865793	-3.545265	0.004645	0.001568	-0.004210	-0.657471	0.402832	0.533203	0.281862	-0.785829	-0.257103	-0.486749
15063		8.925051	-1.942382	-3.569379	0.006108	0.001019	-0.002761	-0.668457	0.401855	0.522705	0.281882	-0.785846	-0.257027	-0.486751
15064		8.960929	-1.915339	-3.528767	0.012244	-0.002722	-0.004840	-0.675293	0.408936	0.530762	0.281951	-0.785826	-0.257047	-0.486732
15065		8.925234	-1.942402	-3.568912	0.012734	0.001272	-0.004616	-0.666016	0.398193	0.528320	0.282032	-0.785794	-0.257052	-0.486734
15066		8.920494	-1.983089	-3.584835	0.015908	-0.001597	-0.004237	-0.668457	0.407959	0.527832	0.282104	-0.785779	-0.257043	-0.486722
15067		8.916728	-1.931150	-3.567569	0.026300	0.003018	-0.010255	-0.667480	0.406982	0.530029	0.282257	-0.785699	-0.257138	-0.486712
15068		8.915987	-1.876271	-3.570916	0.002815	-0.002125	-0.004316	-0.658447	0.406738	0.526611	0.282260	-0.785715	-0.257096	-0.486707
15069		8.939676	-1.986779	-3.591745	-0.000209	0.002001	-0.002837	-0.665283	0.404297	0.529297	0.282266	-0.785727	-0.257029	-0.486719
15070		8.930443	-1.993570	-3.583012	0.010520	0.003089	-0.010102	-0.659912	0.409424	0.535156	0.282302	-0.785693	-0.257037	-0.486749
15071		8.922969	-1.962157	-3.537839	0.003921	-0.001927	-0.007562	-0.666504	0.402832	0.540771	0.282293	-0.785715	-0.257002	-0.486736
15072		8.943688	-1.908372	-3.570353	0.016752	-0.002397	-0.010905	-0.662109	0.397217	0.536133	0.282321	-0.785710	-0.257003	-0.486729
15073		8.947698	-1.812704	-3.557698	0.011647	-0.000192	-0.007016	-0.666748	0.406982	0.535400	0.282331	-0.785714	-0.256950	-0.486743
15074		8.938753	-1.874475	-3.598364	-0.005286	-0.000557	0.001738	-0.667725	0.398926	0.526123	0.282295	-0.785767	-0.256809	-0.486754
15075		8.924735	-1.995834	-3.594546	-0.004668	0.001910	-0.002124	-0.659180	0.406250	0.522217	0.282254	-0.785784	-0.256705	-0.486804
15076		8.923672	-1.960209	-3.537147	0.008033	0.002968	-0.001384	-0.664795	0.395996	0.531738	0.282331	-0.785767	-0.256677	-0.486802
15077		8.924527	-1.941116	-3.544783	-0.001035	0.001533	-0.001815	-0.669922	0.407227	0.534912	0.282291	-0.785794	-0.256550	-0.486848
15078		8.963025	-1.911010	-3.577417	-0.001463	0.000547	-0.001449	-0.667236	0.407959	0.535400	0.282271	-0.785822	-0.256448	-0.486869
15079		8.921343	-1.869540	-3.536052	0.004918	0.002580	-0.000786	-0.667969	0.402100	0.523438	0.282300	-0.785832	-0.256361	-0.486882
15080		8.940290	-1.947457	-3.532191	-0.006630	-0.000259	0.001854	-0.672363	0.406738	0.530029	0.282273	-0.785864	-0.256249	-0.486905
15081		8.919985	-1.981278	-3.560563	0.001374	0.001205	0.000177	-0.663086	0.410889	0.526611	0.282290	-0.785874	-0.256167	-0.486922
15082		8.953073	-1.937457	-3.560390	0.006939	0.001493	-0.003784	-0.662354	0.402588	0.532227	0.282348	-0.785862	-0.256153	-0.486915
15083		8.917911	-1.964614	-3.547608	0.007855	0.000209	-0.003535	-0.667725	0.408447	0.527100	0.282373	-0.785870	-0.256093	-0.486919
15084		8.936499	-1.968718	-3.555767	0.005655	-0.001464	-0.002688	-0.661133	0.401367	0.530029	0.282412	-0.785873	-0.256066	-0.486906
15085		8.930048	-2.046916	-3.608534	0.006274	0.001004	-0.006550	-0.663574	0.405273	0.533203	0.282418	-0.785873	-0.256021	-0.486926
15086		8.898149	-1.997248	-3.575303	0.009123	0.000386	-0.010571	-0.657471	0.399170	0.526123	0.282427	-0.785862	-0.256017	-0.486941
15087		8.970913	-1.903584	-3.563225	0.002921	0.001111	-0.009083	-0.664307	0.400146	0.530518	0.282404	-0.785861	-0.255981	-0.486974
15088		8.931030	-1.896758	-3.526311	-0.010503	0.000609	-0.001588	-0.658936	0.402344	0.528076	0.282314	-0.785911	-0.255832	-0.487024
15089		8.941870	-2.016709	-3.571338	0.004384	0.000566	-0.007633	-0.666748	0.406982	0.526855	0.282310	-0.785913	-0.255798	-0.487042
15090		8.902305	-1.917459	-3.554171	0.019909	-0.000488	-0.011205	-0.663818	0.393311	0.527100	0.282407	-0.785862	-0.255878	-0.487026
15091		8.956336	-1.820141	-3.533926	0.002304	-0.001356	-0.005220	-0.664307	0.407959	0.523926	0.282371	-0.785880	-0.255801	-0.487059
15092		8.943773	-1.903492	-3.546098	0.002718	0.000909	0.000060	-0.662598	0.400146	0.534912	0.282414	-0.785883	-0.255748	-0.487055
15093		8.942037	-1.941838	-3.582534	0.005925	-0.000451	0.000736	-0.660889	0.399414	0.534912	0.282427	-0.785915	-0.255633	-0.487057
15094		8.912586	-1.983500	-3.549786	0.001344	-0.000297	-0.000116	-0.667725	0.400391	0.535889	0.282404	-0.785957	-0.255501	-0.487072
15095		8.930082	-2.006421	-3.602764	-0.005497	0.001438	-0.001102	-0.664551	0.413086	0.534668	0.282337	-0.785999	-0.255348	-0.487122
15096		8.903383	-2.063537	-3.581995	-0.001879	0.004545	-0.007127	-0.662598	0.402344	0.530029	0.282314	-0.786002	-0.255286	-0.487163
15097		8.930218	-2.023379	-3.593884	0.004150	0.001064	-0.010763	-0.660889	0.401855	0.525391	0.282291	-0.785996	-0.255264	-0.487199
15098		8.953951	-1.911785	-3.544845	-0.000002	0.002205	-0.011981	-0.660400	0.405273	0.524902	0.282249	-0.785985	-0.255248	-0.487249
15099		8.928942	-1.910696	-3.601285	-0.007033	0.002457	-0.009471	-0.666504	0.411865	0.539795	0.282183	-0.785992	-0.255199	-0.487301
15100		8.942510	-1.991752	-3.556191	-0.007435	0.009241	-0.009209	-0.661377	0.400635	0.528809	0.282110	-0.785993	-0.255094	-0.487397
15101		8.956398	-1.887478	-3.551200	-0.000251	0.003982	-0.009465	-0.666992	0.405273	0.523682	0.282068	-0.785988	-0.255039	-0.487458
15102		8.922369	-1.894544	-3.545963	0.006557	0.007011	-0.009166	-0.660645	0.407715	0.525391	0.282106	-0.785937	-0.255043	-0.487517
15103		8.922237	-1.912681	-3.537092	0.002646	0.001388	-0.006858	-0.667480	0.403320	0.527344	0.282117	-0.785931	-0.255026	-0.487528
15104		8.961439	-1.955865	-3.557302	-0.006356	0.005728	-0.000769	-0.666260	0.403564	0.529785	0.282086	-0.785941	-0.254904	-0.487594
15105		8.932354	-2.070086	-3.565447	-0.008933	-0.002974	-0.004514	-0.659180	0.408203	0.521973	0.281999	-0.785991	-0.254806	-0.487616
15106		8.911718	-2.048040	-3.544900	0.008011	0.003689	-0.013654	-0.667725	0.410156	0.530273	0.282034	-0.785943	-0.254865	-0.487642
15107		8.941151	-1.931219	-3.589014	0.010529	0.000338	-0.016034	-0.663818	0.409424	0.531982	0.282052	-0.785905	-0.254935	-0.487656
15108		8.937876	-1.877216	-3.519415	0.000717	0.002931	-0.014568	-0.657959	0.407959	0.529053	0.282011	-0.785890	-0.254938	-0.487703
15109		8.917490	-1.947294	-3.478243	0.003008	0.002857	-0.014141	-0.658691	0.410400	0.533447	0.281991	-0.785871	-0.254951	-0.487737
15110		8.940837	-1.909071	-3.522682	0.015487	-0.001825	-0.016128	-0.669922	0.396729	0.531494	0.282030	-0.785845	-0.255030	-0.487715
15111		8.976477	-1.880578	-3.534697	0.019813	-0.000198	-0.012759	-0.669922	0.412354	0.533203	0.282080	-0.785803	-0.255067	-0.487736
15112		8.930799	-1.840780	-3.579045	-0.007986	-0.002761	-0.003971	-0.656982	0.410889	0.525635	0.282017	-0.785849	-0.254986	-0.487739
15113		8.937977	-2.001206	-3.535216	-0.014994	-0.001015	-0.001172	-0.663818	0.397705	0.536133	0.281941	-0.785909	-0.254874	-0.487745
15114		8.907206	-2.079668	-3.539367	0.014379	-0.002021	-0.012882	-0.653809	0.393799	0.531738	0.281943	-0.785900	-0.254877	-0.487757
15115		8.931641	-1.930311	-3.506773	0.020448	-0.003983	-0.016223	-0.657959	0.394287	0.524658	0.281968	-0.785882	-0.254930	-0.487745
15116		8.938541	-1.905127	-3.555675	0.004745	-0.002943	-0.008870	-0.663330	0.401123	0.524902	0.281940	-0.785894	-0.254901	-0.487756
15117		8.928988	-1.911438	-3.548071	0.000230	-0.006055	-0.008741	-0.656494	0.397461	0.532715	0.281895	-0.785921	-0.254885	-0.487747
15118		8.938779	-1.976378	-3.597799	-0.000171	-0.005537	-0.008083	-0.665771	0.399658	0.538086	0.281823	-0.785971	-0.254814	-0.487745
15119		8.939152	-1.975134	-3.545799	0.002404	-0.005876	-0.009879	-0.660645	0.409424	0.527344	0.281751	-0.786013	-0.254758	-0.487748
15120		8.942458	-1.878597	-3.534322	-0.001088	-0.004254	-0.008333	-0.664551	0.406006	0.530029	0.281722	-0.786039	-0.254748	-0.487729
15121		8.952210	-1.962765	-3.522797	-0.000001	-0.002777	-0.005935	-0.667236	0.402344	0.527344	0.281696	-0.786063	-0.254704	-0.487727
15122		8.932643	-1.976825	-3.559751	0.008333	-0.006312	-0.009142	-0.656006	0.402832	0.533447	0.281701	-0.786070	-0.254724	-0.487702
15123		8.902709	-2.017151	-3.632856	0.016846	-0.002093	-0.016245	-0.665771	0.404053	0.524414	0.281729	-0.786048	-0.254785	-0.487691
