// Start Time: Unknown
// Update Rate: 60.0Hz
// Filter Profile: human (46.1)
// Firmware Version: 4.6.0
PacketCounter	SampleTimeFine	Acc_X	Acc_Y	Acc_Z	Gyr_X	Gyr_Y	Gyr_Z	Mag_X	Mag_Y	Mag_Z	Quat_q0	Quat_q1	Quat_q2	Quat_q3
13168		9.482574	-0.899938	-2.410223	0.013661	0.004027	-0.003725	-0.875977	0.169678	-0.336182	0.613750	-0.106775	-0.781840	-0.025242
13169		9.448867	-0.924306	-2.390053	0.004005	-0.004948	-0.003119	-0.870117	0.169678	-0.337158	0.613720	-0.106735	-0.781869	-0.025228
13170		9.490054	-0.908940	-2.388931	0.009537	-0.007618	-0.008234	-0.873779	0.164551	-0.338867	0.613680	-0.106644	-0.781914	-0.025197
13171		9.486095	-0.870614	-2.372342	-0.000781	-0.008546	-0.007910	-0.878906	0.165771	-0.343506	0.613628	-0.106534	-0.781968	-0.025254
13172		9.454423	-0.862956	-2.418543	-0.012454	-0.012000	-0.002369	-0.880127	0.165283	-0.345947	0.613545	-0.106522	-0.782031	-0.025356
13173		9.476059	-0.837655	-2.513807	-0.026385	-0.002162	-0.003087	-0.871582	0.168213	-0.339844	0.613514	-0.106564	-0.782043	-0.025564
13174		9.456512	-0.828877	-2.485257	-0.031691	-0.001898	-0.003217	-0.870850	0.163574	-0.346680	0.613471	-0.106693	-0.782052	-0.025791
13175		9.453109	-0.888617	-2.503352	-0.058422	-0.008923	0.003714	-0.880859	0.170166	-0.339844	0.613363	-0.106938	-0.782091	-0.026171
13176		9.446129	-0.776670	-2.638586	-0.076758	-0.003771	0.003360	-0.871338	0.166504	-0.337891	0.613261	-0.107344	-0.782098	-0.026657
13177		9.434456	-0.647714	-2.472334	-0.078814	0.002480	0.000965	-0.870117	0.163330	-0.337402	0.613189	-0.107714	-0.782085	-0.027187
13178		9.589947	-0.623641	-2.412141	-0.111664	-0.015058	0.000080	-0.870605	0.163330	-0.334473	0.612973	-0.108207	-0.782160	-0.027943
13179		9.435427	-0.695450	-2.341682	-0.188333	-0.047457	0.020698	-0.880859	0.169434	-0.336426	0.612482	-0.109224	-0.782362	-0.029079
13180		9.496181	-0.601662	-2.500496	-0.228707	-0.076235	0.037686	-0.881836	0.172607	-0.329102	0.611774	-0.110591	-0.782675	-0.030367
13181		9.498571	-0.594320	-2.359537	-0.270812	-0.085140	0.053539	-0.876953	0.179688	-0.331787	0.610955	-0.112295	-0.783013	-0.031851
13182		9.550826	-0.576884	-2.491541	-0.302801	-0.141690	0.059494	-0.875732	0.173096	-0.335205	0.609752	-0.114253	-0.783600	-0.033462
13183		9.566005	-1.302337	-2.774767	-0.265545	-0.056315	0.074906	-0.870117	0.176514	-0.325439	0.609165	-0.115993	-0.783739	-0.034874
13184		9.419473	-1.510622	-2.611901	-0.191680	-0.053608	0.041506	-0.872803	0.179932	-0.324951	0.608589	-0.117203	-0.783959	-0.035934
13185		9.427083	-1.105510	-2.627984	-0.118641	-0.025572	0.005931	-0.877930	0.180420	-0.329346	0.608270	-0.117840	-0.784077	-0.036661
13186		9.476964	-1.138545	-2.462624	-0.090783	-0.022452	-0.003599	-0.881592	0.187744	-0.327881	0.608024	-0.118260	-0.784178	-0.037233
13187		9.479008	-1.089479	-2.416795	-0.054094	-0.017668	-0.019146	-0.880615	0.185059	-0.327393	0.607841	-0.118462	-0.784271	-0.037617
13188		9.421790	-1.049474	-2.363959	-0.032616	-0.029094	-0.020852	-0.869385	0.183350	-0.329346	0.607612	-0.118536	-0.784426	-0.037843
13189		9.423008	-0.861589	-2.449608	-0.013084	-0.043637	-0.034199	-0.880615	0.180908	-0.331055	0.607322	-0.118429	-0.784660	-0.037980
13190		9.423837	-0.983897	-2.637859	-0.008726	-0.034104	-0.024847	-0.882568	0.181641	-0.322021	0.607126	-0.118322	-0.784824	-0.038057
13191		9.455911	-0.919214	-2.683648	0.026617	-0.018855	-0.037600	-0.875000	0.176514	-0.325439	0.607003	-0.117976	-0.784976	-0.037969
13192		9.493169	-0.731318	-2.647871	0.058007	-0.001795	-0.039578	-0.879883	0.182373	-0.329346	0.607027	-0.117409	-0.785055	-0.037709
13193		9.470487	-0.668520	-2.609435	0.047308	0.002819	-0.022671	-0.876709	0.177490	-0.328125	0.607103	-0.117055	-0.785063	-0.037435
13194		9.418426	-0.698340	-2.693914	0.022601	0.000589	-0.010821	-0.880127	0.186523	-0.323242	0.607122	-0.116858	-0.785084	-0.037288
13195		9.429931	-0.825241	-2.738168	0.025043	0.019207	-0.008120	-0.889404	0.179688	-0.322266	0.607238	-0.116755	-0.785017	-0.037121
13196		9.431851	-0.733176	-2.573589	0.025723	0.002339	-0.015933	-0.880615	0.176270	-0.322021	0.607215	-0.116542	-0.785073	-0.036980
13197		9.521908	-0.593100	-2.667345	0.015060	-0.008102	-0.005189	-0.883789	0.177734	-0.325684	0.607112	-0.116417	-0.785178	-0.036863
13198		9.493009	-0.806314	-2.671580	0.008687	-0.003876	0.015849	-0.877441	0.181396	-0.314941	0.607055	-0.116464	-0.785222	-0.036705
13199		9.429985	-0.879929	-2.683100	0.021070	-0.000183	0.017025	-0.868896	0.177490	-0.321045	0.606974	-0.116509	-0.785289	-0.036462
13200		9.441743	-0.850090	-2.630785	0.034642	0.008097	0.008293	-0.873779	0.180420	-0.322266	0.607006	-0.116369	-0.785298	-0.036184
13201		9.456960	-0.787277	-2.661482	0.029923	0.015649	0.005856	-0.875244	0.185547	-0.327148	0.607083	-0.116272	-0.785263	-0.035955
13202		9.428859	-0.805956	-2.586811	0.006228	0.020335	0.013055	-0.884277	0.174316	-0.326660	0.607198	-0.116393	-0.785161	-0.035860
13203		9.477319	-0.854484	-2.485480	-0.010688	0.015400	0.014670	-0.876465	0.179443	-0.327148	0.607231	-0.116472	-0.785124	-0.035848
13204		9.498204	-0.765354	-2.496546	-0.017362	0.011068	0.011307	-0.884033	0.183350	-0.327881	0.607260	-0.116624	-0.785077	-0.035902
13205		9.434897	-0.968791	-2.501987	-0.016226	-0.003274	0.015614	-0.879639	0.186279	-0.329102	0.607189	-0.116843	-0.785098	-0.035922
13206		9.439133	-1.007823	-2.543149	-0.008557	-0.013325	0.010071	-0.879883	0.183350	-0.320312	0.607085	-0.117027	-0.785152	-0.035908
13207		9.438970	-0.974904	-2.588084	0.011232	-0.012002	0.003292	-0.882080	0.183838	-0.323975	0.606948	-0.117043	-0.785261	-0.035781
13208		9.411073	-0.992766	-2.538439	0.011678	-0.006711	-0.002125	-0.874756	0.184814	-0.328125	0.606866	-0.117021	-0.785332	-0.035678
13209		9.449006	-0.889724	-2.571982	0.016053	-0.001212	-0.009805	-0.875732	0.172607	-0.330322	0.606881	-0.116938	-0.785337	-0.035589
13210		9.463074	-0.891354	-2.518898	-0.001832	0.001676	-0.007435	-0.869629	0.175537	-0.326172	0.606908	-0.116783	-0.785339	-0.035585
13211		9.430807	-0.864947	-2.574478	-0.001606	-0.007700	-0.003518	-0.873779	0.179443	-0.323486	0.606868	-0.116710	-0.785383	-0.035553
13212		9.464883	-0.822765	-2.627568	-0.009406	-0.010967	-0.000137	-0.875488	0.184326	-0.327393	0.606766	-0.116763	-0.785453	-0.035560
13213		9.433524	-0.751950	-2.613424	0.005046	-0.009594	0.001692	-0.871826	0.177734	-0.323730	0.606717	-0.116817	-0.785487	-0.035473
13214		9.462695	-0.575332	-2.589943	-0.010090	-0.015377	0.003392	-0.873535	0.180664	-0.330566	0.606594	-0.116864	-0.785575	-0.035469
13215		9.457518	-0.699898	-2.670390	-0.042720	-0.010613	0.020556	-0.879639	0.175293	-0.319336	0.606534	-0.117211	-0.785564	-0.035618
13216		9.407969	-0.670804	-2.739336	-0.068610	-0.010682	0.023124	-0.867676	0.183838	-0.318848	0.606321	-0.117630	-0.785651	-0.035929
13217		9.464533	-0.678398	-2.695606	-0.071003	-0.000334	0.030086	-0.876953	0.180420	-0.324463	0.606216	-0.118248	-0.785624	-0.036247
13218		9.519951	-0.640241	-2.539499	-0.066308	-0.010151	0.032708	-0.874512	0.188232	-0.320801	0.606068	-0.118757	-0.785650	-0.036512
13219		9.549364	-0.908893	-2.633313	-0.092296	-0.003057	0.044808	-0.877930	0.191406	-0.325195	0.605926	-0.119610	-0.785611	-0.036917
13220		9.391435	-1.193342	-2.707663	-0.099683	-0.005532	0.043172	-0.873291	0.180176	-0.337891	0.605793	-0.120508	-0.785555	-0.037373
13221		9.391608	-1.177683	-2.741367	-0.071379	0.001462	0.020955	-0.881348	0.185303	-0.322021	0.605874	-0.120871	-0.785419	-0.037721
13222		9.444851	-1.163998	-2.644249	-0.035015	0.022168	-0.003620	-0.873291	0.186523	-0.322266	0.605922	-0.120993	-0.785351	-0.037973
13223		9.458081	-1.077304	-2.643278	-0.013409	0.022607	-0.010377	-0.874512	0.186279	-0.331787	0.606027	-0.121000	-0.785263	-0.038100
13224		9.467116	-1.022347	-2.536772	0.007487	0.027985	-0.022965	-0.880371	0.188232	-0.327148	0.606277	-0.120785	-0.785101	-0.038143
13225		9.463427	-0.780343	-2.540391	0.028855	0.029041	-0.022918	-0.879639	0.177979	-0.331055	0.606479	-0.120511	-0.784992	-0.038050
13226		9.448498	-0.867196	-2.326925	0.033861	0.013197	-0.019449	-0.874756	0.183838	-0.327881	0.606624	-0.120049	-0.784959	-0.037893
13227		9.455316	-0.806369	-2.347709	0.032857	0.001736	-0.014510	-0.878174	0.192139	-0.327393	0.606686	-0.119764	-0.784963	-0.037706
13228		9.407740	-0.827518	-2.381611	-0.001556	-0.010531	-0.004707	-0.868896	0.192383	-0.325928	0.606623	-0.119876	-0.784995	-0.037689
13229		9.415868	-0.864977	-2.486325	-0.015944	-0.023523	-0.015691	-0.874268	0.179932	-0.320068	0.606489	-0.120020	-0.785072	-0.037805
13230		9.513807	-0.802273	-2.496195	-0.018631	-0.019965	-0.015963	-0.874756	0.192627	-0.326172	0.606289	-0.119943	-0.785231	-0.037958
13231		9.461431	-0.820131	-2.471776	-0.002334	-0.031106	-0.004571	-0.876221	0.190186	-0.321533	0.606113	-0.120092	-0.785344	-0.037930
13232		9.484345	-1.046974	-2.509767	0.018982	-0.044490	-0.009392	-0.871582	0.179932	-0.321777	0.605816	-0.120064	-0.785585	-0.037780
13233		9.451304	-0.895129	-2.429927	0.059316	-0.044505	-0.017371	-0.880615	0.184570	-0.324219	0.605592	-0.119587	-0.785849	-0.037401
13234		9.435206	-0.713424	-2.381722	0.036359	-0.049569	-0.013900	-0.876465	0.185059	-0.333008	0.605311	-0.119335	-0.786115	-0.037154
13235		9.446762	-0.761410	-2.429546	0.011297	-0.067049	-0.007226	-0.879639	0.191406	-0.322021	0.605033	-0.119259	-0.786347	-0.037022
13236		9.469494	-1.086386	-2.530500	0.008985	-0.068374	-0.009395	-0.877930	0.174805	-0.320312	0.604607	-0.119324	-0.786670	-0.036910
13237		9.421754	-0.959231	-2.630622	0.019601	-0.059614	-0.018656	-0.878418	0.189453	-0.314453	0.604247	-0.118956	-0.787007	-0.036804
13238		9.463103	-0.776832	-2.704807	0.038568	-0.043704	-0.030718	-0.876465	0.180420	-0.317627	0.603942	-0.118719	-0.787286	-0.036621
13239		9.485705	-0.644559	-2.528805	0.007271	-0.053668	-0.024571	-0.882812	0.187012	-0.322021	0.603597	-0.118507	-0.787582	-0.036617
13240		9.436225	-0.762510	-2.630487	-0.019018	-0.074603	-0.005253	-0.872803	0.182129	-0.321289	0.603136	-0.118678	-0.787907	-0.036671
13241		9.380358	-1.055891	-2.737999	-0.004111	-0.074731	-0.008379	-0.882812	0.179688	-0.314697	0.602738	-0.118671	-0.788214	-0.036645
13242		9.419296	-1.004527	-2.788425	0.003864	-0.043751	-0.023492	-0.881104	0.182373	-0.317139	0.602428	-0.118464	-0.788480	-0.036680
13243		9.420721	-0.794421	-2.604910	0.018176	-0.036736	-0.038126	-0.881348	0.185059	-0.311035	0.602221	-0.118146	-0.788686	-0.036688
13244		9.493178	-0.697661	-2.684066	-0.014983	-0.050940	-0.027476	-0.882080	0.185059	-0.315186	0.601818	-0.118145	-0.788987	-0.036839
13245		9.390660	-0.832296	-2.714005	-0.053400	-0.061172	-0.009828	-0.877686	0.175537	-0.309326	0.601379	-0.118450	-0.789261	-0.037151
13246		9.446239	-0.995734	-2.818247	-0.037137	-0.050765	-0.021544	-0.879639	0.183594	-0.311768	0.600976	-0.118413	-0.789559	-0.037441
13247		9.417111	-0.991009	-2.785906	0.019283	-0.047050	-0.035524	-0.880859	0.183594	-0.315674	0.600685	-0.118161	-0.789820	-0.037413
13248		9.442627	-0.841925	-2.660857	0.084528	-0.037922	-0.048572	-0.890869	0.180176	-0.309082	0.600569	-0.117494	-0.790026	-0.037027
13249		9.363036	-0.710281	-2.634588	0.068353	-0.060790	-0.038525	-0.885498	0.177246	-0.303467	0.600161	-0.116926	-0.790436	-0.036689
13250		9.431853	-0.643761	-2.819424	0.009852	-0.063923	-0.023605	-0.881348	0.183838	-0.315674	0.599641	-0.116728	-0.790861	-0.036658
13251		9.368448	-0.810165	-2.918037	0.002035	-0.051923	-0.022710	-0.883545	0.172363	-0.307373	0.599391	-0.116698	-0.791055	-0.036676
13252		9.370427	-0.894239	-2.869068	0.031759	-0.033999	-0.030565	-0.877197	0.179443	-0.303955	0.599169	-0.116243	-0.791294	-0.036579
13253		9.445587	-0.691077	-2.794785	0.054529	-0.027107	-0.030248	-0.885498	0.183105	-0.306396	0.599002	-0.115853	-0.791490	-0.036309
13254		9.432872	-0.642198	-2.801128	0.035600	-0.029452	-0.019081	-0.881592	0.187012	-0.310303	0.598805	-0.115698	-0.791671	-0.036110
13255		9.448462	-0.628887	-2.826406	-0.002366	-0.033320	-0.004110	-0.882812	0.177490	-0.306885	0.598625	-0.115921	-0.791776	-0.036077
13256		9.364938	-0.691962	-2.791146	-0.006241	-0.034120	-0.003120	-0.874756	0.178223	-0.311523	0.598390	-0.115969	-0.791946	-0.036087
13257		9.354081	-0.663138	-2.829632	-0.027979	-0.038320	0.002299	-0.885498	0.174316	-0.309814	0.598215	-0.116190	-0.792040	-0.036210
13258		9.358961	-0.849464	-2.878948	-0.052222	-0.021755	0.007871	-0.880615	0.176025	-0.293213	0.598063	-0.116457	-0.792103	-0.036502
13259		9.411279	-0.782951	-2.841152	-0.037687	-0.013014	0.004842	-0.883301	0.176025	-0.300293	0.597779	-0.116679	-0.792275	-0.036691
13260		9.464870	-0.717660	-2.822559	-0.015415	-0.006625	0.001509	-0.890625	0.179932	-0.305664	0.597652	-0.116750	-0.792357	-0.036769
13261		9.433304	-0.761867	-2.812554	-0.007663	-0.001293	0.011963	-0.892090	0.180908	-0.295166	0.597613	-0.116908	-0.792363	-0.036757
13262		9.384998	-0.705210	-2.776188	-0.018686	-0.008878	0.016262	-0.888672	0.179443	-0.312744	0.597368	-0.117173	-0.792508	-0.036779
13263		9.380229	-0.733396	-2.838825	-0.040446	-0.002326	0.019478	-0.881348	0.186523	-0.302246	0.597405	-0.117516	-0.792421	-0.036956
13264		9.349679	-0.910323	-2.845255	-0.056745	-0.006826	0.019471	-0.887695	0.173096	-0.305664	0.597286	-0.118106	-0.792411	-0.037209
13265		9.359657	-1.037712	-2.893693	-0.034362	-0.004437	0.012355	-0.884033	0.183594	-0.299805	0.597226	-0.118221	-0.792431	-0.037382
13266		9.439845	-1.005486	-2.829559	0.006391	0.004907	-0.008611	-0.882812	0.182129	-0.301758	0.597199	-0.118221	-0.792452	-0.037370
13267		9.436083	-0.801987	-2.856132	0.010495	0.013879	-0.008433	-0.889404	0.175293	-0.311035	0.597268	-0.118170	-0.792409	-0.037337
13268		9.339696	-0.879527	-2.833896	-0.001649	0.019225	0.003031	-0.883789	0.184326	-0.302979	0.597455	-0.118090	-0.792279	-0.037359
13269		9.397660	-0.982199	-2.803890	0.003345	0.021797	-0.009023	-0.885986	0.182373	-0.307617	0.597571	-0.118112	-0.792187	-0.037381
13270		9.370634	-0.864655	-2.712067	0.007731	0.025599	-0.020714	-0.877441	0.177490	-0.308594	0.597761	-0.117984	-0.792061	-0.037442
13271		9.392045	-0.822327	-2.647271	0.010991	0.012929	-0.017446	-0.878418	0.180908	-0.310791	0.597917	-0.117792	-0.791971	-0.037453
13272		9.427031	-0.943843	-2.649797	0.017297	0.008818	-0.019873	-0.876221	0.181641	-0.300049	0.598072	-0.117625	-0.791880	-0.037428
13273		9.460358	-0.767494	-2.704620	0.032211	0.012683	-0.024782	-0.880615	0.187988	-0.305908	0.598131	-0.117385	-0.791876	-0.037314
13274		9.374982	-0.677803	-2.616686	0.041447	0.000206	-0.023360	-0.878662	0.180420	-0.307373	0.598171	-0.117237	-0.791876	-0.037122
13275		9.432962	-0.746343	-2.674877	0.021545	-0.018432	-0.016791	-0.884521	0.177734	-0.303467	0.598101	-0.117091	-0.791956	-0.037025
13276		9.417175	-0.839981	-2.767748	0.016301	-0.016163	-0.008311	-0.885498	0.184814	-0.304199	0.597970	-0.116963	-0.792078	-0.036925
13277		9.392027	-0.858143	-2.760284	0.022756	-0.020886	-0.017500	-0.877197	0.177734	-0.312500	0.597819	-0.116890	-0.792208	-0.036816
13278		9.429451	-0.738198	-2.869847	0.037384	-0.020080	-0.022615	-0.885498	0.178955	-0.312988	0.597835	-0.116591	-0.792248	-0.036655
13279		9.408751	-0.695733	-2.863897	0.035464	-0.010711	-0.019267	-0.885742	0.176270	-0.304932	0.597880	-0.116335	-0.792258	-0.036506
13280		9.446290	-0.643962	-2.845018	0.038449	-0.011960	-0.005985	-0.880371	0.178955	-0.311035	0.597820	-0.116104	-0.792349	-0.036257
13281		9.389417	-0.771816	-2.905419	0.034426	-0.005927	-0.000093	-0.874756	0.174561	-0.305908	0.597897	-0.116002	-0.792317	-0.036017
13282		9.386101	-0.834657	-2.923116	0.047717	0.007549	-0.002603	-0.882812	0.182861	-0.312744	0.598031	-0.115739	-0.792268	-0.035708
13283		9.380027	-0.861294	-2.919580	0.060384	0.018307	-0.003064	-0.878906	0.184814	-0.306641	0.598293	-0.115556	-0.792113	-0.035329
13284		9.396153	-0.881760	-2.831475	0.054984	0.017668	-0.014347	-0.885498	0.184326	-0.310059	0.598472	-0.115372	-0.792019	-0.035018
13285		9.383791	-0.766796	-2.916523	0.039569	0.019497	-0.014904	-0.878662	0.184082	-0.308350	0.598657	-0.115242	-0.791907	-0.034826
13286		9.384137	-0.798536	-2.828077	0.026363	0.026676	-0.009556	-0.881104	0.175781	-0.310059	0.598877	-0.115222	-0.791749	-0.034692
13287		9.434082	-0.793106	-2.780954	0.046601	0.015615	-0.010480	-0.882080	0.175293	-0.314697	0.599050	-0.114938	-0.791670	-0.034443
13288		9.425906	-0.912990	-2.751454	0.045661	0.022831	-0.011074	-0.882080	0.174561	-0.311768	0.599316	-0.114656	-0.791519	-0.034225
13289		9.406625	-0.872764	-2.740160	0.054554	0.014686	-0.009022	-0.879883	0.175049	-0.309082	0.599494	-0.114331	-0.791445	-0.033918
13290		9.381477	-0.858079	-2.748816	0.047109	0.021773	-0.010058	-0.886719	0.179932	-0.310059	0.599682	-0.114049	-0.791354	-0.033657
13291		9.343858	-0.925558	-2.712074	0.045385	0.021454	-0.012747	-0.885010	0.171143	-0.317627	0.599842	-0.113839	-0.791274	-0.033415
13292		9.398302	-0.940255	-2.736208	0.042994	0.019739	-0.024865	-0.869629	0.175293	-0.315186	0.600079	-0.113424	-0.791159	-0.033289
13293		9.474928	-0.931661	-2.707209	0.077072	0.035066	-0.033871	-0.885742	0.171631	-0.308594	0.600472	-0.112885	-0.790951	-0.032962
13294		9.496923	-0.921770	-2.574513	0.112595	0.043144	-0.039940	-0.879150	0.169678	-0.308350	0.600796	-0.112029	-0.790849	-0.032435
13295		9.472805	-0.806954	-2.541765	0.141914	0.045129	-0.045436	-0.888916	0.167969	-0.318359	0.601172	-0.110987	-0.790738	-0.031736
13296		9.458123	-0.802106	-2.545461	0.157368	0.026974	-0.044608	-0.881104	0.168701	-0.314453	0.601510	-0.109866	-0.790669	-0.030950
13297		9.348761	-0.569699	-2.744815	0.077204	0.033673	-0.033151	-0.882568	0.170166	-0.317627	0.601797	-0.109269	-0.790546	-0.030616
13298		9.276466	-0.299058	-2.499564	-0.016622	0.024585	-0.021352	-0.885254	0.166260	-0.307373	0.601962	-0.109263	-0.790413	-0.030838
13299		9.447352	-0.661986	-2.636563	-0.089198	-0.024588	-0.014989	-0.877441	0.166016	-0.312988	0.601607	-0.109591	-0.790613	-0.031451
13300		9.533965	-0.972374	-2.897661	-0.087867	0.004005	0.002053	-0.876953	0.173096	-0.313232	0.601552	-0.110033	-0.790571	-0.032010
13301		9.385960	-0.805740	-2.903243	-0.056676	0.011880	-0.009411	-0.882324	0.173096	-0.315430	0.601579	-0.110358	-0.790489	-0.032415
13302		9.461648	-0.810667	-2.845151	-0.029734	0.022145	-0.016566	-0.885010	0.166504	-0.312256	0.601697	-0.110483	-0.790370	-0.032696
13303		9.482796	-0.750230	-2.812060	-0.005099	0.032595	-0.013295	-0.884521	0.177490	-0.314209	0.601860	-0.110377	-0.790256	-0.032813
13304		9.435506	-0.641239	-2.658946	-0.005538	0.038072	-0.010133	-0.879883	0.177490	-0.317139	0.602075	-0.110489	-0.790073	-0.032907
13305		9.425760	-0.609789	-2.645883	-0.026833	0.025524	-0.003676	-0.872314	0.174072	-0.318604	0.602234	-0.110764	-0.789905	-0.033103
13306		9.404402	-0.629920	-2.673832	-0.051597	0.020062	0.008056	-0.891846	0.171387	-0.316406	0.602380	-0.111195	-0.789720	-0.033408
13307		9.436919	-0.683418	-2.719602	-0.071225	0.010117	0.017020	-0.881104	0.174805	-0.312256	0.602342	-0.111685	-0.789664	-0.033795
13308		9.485416	-0.804606	-2.813256	-0.068996	0.019973	0.017120	-0.883301	0.175537	-0.313477	0.602367	-0.112223	-0.789553	-0.034157
13309		9.440933	-0.718268	-2.713409	-0.053570	0.023259	0.013284	-0.878906	0.166504	-0.315918	0.602430	-0.112654	-0.789430	-0.034444
13310		9.441841	-0.718699	-2.710131	-0.047597	0.026100	0.021257	-0.887939	0.176270	-0.311523	0.602564	-0.112956	-0.789275	-0.034673
13311		9.429140	-0.705290	-2.624906	-0.037976	0.026097	0.026757	-0.878418	0.170898	-0.314453	0.602622	-0.113376	-0.789166	-0.034791
13312		9.473520	-0.744923	-2.586264	-0.022783	0.022346	0.024409	-0.884766	0.174316	-0.322754	0.602735	-0.113627	-0.789041	-0.034830
13313		9.456977	-0.760933	-2.562890	-0.003940	0.016684	0.030861	-0.886230	0.173340	-0.315674	0.602891	-0.113873	-0.788891	-0.034728
13314		9.463570	-0.757913	-2.529394	-0.006126	0.014512	0.036035	-0.876465	0.176514	-0.310059	0.602950	-0.114127	-0.788815	-0.034596
13315		9.408101	-0.729089	-2.491364	-0.019861	0.000481	0.034872	-0.883545	0.181396	-0.323486	0.602879	-0.114506	-0.788818	-0.034528
13316		9.414065	-0.789648	-2.541427	-0.040880	-0.010121	0.038853	-0.874756	0.177002	-0.316162	0.602833	-0.115086	-0.788765	-0.034599
13317		9.419093	-0.946833	-2.609319	-0.035719	-0.016876	0.036257	-0.871338	0.177734	-0.311035	0.602707	-0.115549	-0.788792	-0.034629
13318		9.455297	-0.979900	-2.640079	0.001191	-0.016406	0.028623	-0.875488	0.178467	-0.317383	0.602581	-0.115779	-0.788863	-0.034441
13319		9.431822	-1.005353	-2.673666	0.018264	-0.014294	0.020326	-0.883301	0.185791	-0.316650	0.602536	-0.115869	-0.788895	-0.034201
13320		9.426597	-1.005266	-2.592998	0.026409	-0.015876	0.015030	-0.875488	0.181885	-0.313232	0.602451	-0.115979	-0.788956	-0.033925
13321		9.418828	-0.867680	-2.664312	0.012718	-0.014668	0.005797	-0.878662	0.183105	-0.320801	0.602354	-0.116044	-0.789026	-0.033779
13322		9.387204	-0.896249	-2.687277	-0.007850	-0.010034	0.009445	-0.881104	0.182861	-0.320068	0.602336	-0.116254	-0.789009	-0.033775
13323		9.356682	-0.924131	-2.731220	-0.034473	-0.014193	-0.001654	-0.876221	0.178955	-0.315674	0.602246	-0.116510	-0.789031	-0.033995
13324		9.427402	-0.925646	-2.803642	-0.046287	-0.023465	-0.011372	-0.879395	0.182617	-0.319824	0.602057	-0.116702	-0.789132	-0.034323
13325		9.451528	-0.966766	-2.896201	-0.024246	-0.000006	-0.013239	-0.879883	0.183838	-0.325195	0.602077	-0.116820	-0.789090	-0.034548
13326		9.395981	-0.978883	-2.762853	0.004970	0.008412	-0.023863	-0.885498	0.180664	-0.317139	0.602227	-0.116745	-0.788982	-0.034656
13327		9.453684	-0.799455	-2.796514	0.025585	0.022199	-0.024484	-0.877930	0.177246	-0.310547	0.602387	-0.116485	-0.788900	-0.034623
13328		9.410638	-0.694910	-2.725967	0.018516	0.035498	-0.019676	-0.876465	0.179199	-0.315430	0.602587	-0.116246	-0.788783	-0.034605
13329		9.408023	-0.638847	-2.712626	-0.002169	0.035648	-0.010199	-0.877441	0.180908	-0.317139	0.602817	-0.116220	-0.788608	-0.034689
13330		9.471150	-0.599574	-2.632925	-0.011913	0.036090	-0.000262	-0.878662	0.175781	-0.314453	0.603049	-0.116334	-0.788408	-0.034790
13331		9.420375	-0.619238	-2.578435	-0.036267	0.023276	0.018430	-0.880859	0.183350	-0.319580	0.603146	-0.116609	-0.788287	-0.034942
13332		9.472327	-0.664042	-2.684796	-0.043056	0.022342	0.017582	-0.876465	0.172607	-0.322754	0.603267	-0.117022	-0.788124	-0.035153
13333		9.470265	-0.710289	-2.732281	-0.049253	0.017148	0.029355	-0.871094	0.174316	-0.318604	0.603396	-0.117388	-0.787962	-0.035357
13334		9.477707	-0.803506	-2.735549	-0.019812	0.023931	0.033472	-0.875977	0.179688	-0.321289	0.603575	-0.117653	-0.787786	-0.035341
13335		9.417618	-0.718433	-2.666623	-0.034530	0.023372	0.029835	-0.880127	0.185303	-0.319092	0.603737	-0.118031	-0.787600	-0.035442
13336		9.438915	-0.749922	-2.537906	-0.059345	0.006303	0.032482	-0.882080	0.194336	-0.317871	0.603725	-0.118616	-0.787511	-0.035667
13337		9.465085	-0.896351	-2.685868	-0.043265	0.006947	0.039779	-0.877197	0.184570	-0.326416	0.603716	-0.119280	-0.787415	-0.035741
13338		9.481708	-1.018953	-2.678620	-0.031605	0.018968	0.032061	-0.886719	0.193359	-0.324951	0.603891	-0.119696	-0.787213	-0.035819
13339		9.381368	-0.948951	-2.632471	-0.020363	0.021411	0.021452	-0.870850	0.177734	-0.315918	0.604041	-0.120073	-0.787039	-0.035867
13340		9.412521	-1.147333	-2.786056	-0.033801	0.021796	0.014105	-0.877686	0.189941	-0.318359	0.604147	-0.120263	-0.786921	-0.036029
13341		9.424944	-1.096151	-2.742453	-0.021415	0.028838	-0.006409	-0.886963	0.187012	-0.316162	0.604301	-0.120408	-0.786772	-0.036214
13342		9.414837	-1.131669	-2.621793	0.018344	0.043212	-0.021928	-0.879639	0.194336	-0.314697	0.604531	-0.120180	-0.786630	-0.036229
13343		9.509456	-1.064100	-2.517950	0.057319	0.046104	-0.037894	-0.878418	0.187012	-0.322510	0.604819	-0.119769	-0.786479	-0.036056
13344		9.448387	-0.758498	-2.358996	0.068723	0.053118	-0.035627	-0.867432	0.188965	-0.325439	0.605232	-0.119233	-0.786254	-0.035826
13345		9.389998	-0.638012	-2.184306	0.040930	0.022376	-0.028350	-0.874023	0.185059	-0.317383	0.605469	-0.118959	-0.786118	-0.035713
13346		9.452754	-0.805063	-2.317516	0.006017	-0.008961	-0.019724	-0.879639	0.180176	-0.325439	0.605374	-0.118850	-0.786206	-0.035738
13347		9.437094	-0.993840	-2.406007	0.016707	-0.021938	-0.015913	-0.874268	0.180176	-0.312744	0.605263	-0.118654	-0.786324	-0.035686
13348		9.430308	-0.987026	-2.306729	0.040930	-0.035398	-0.028801	-0.884766	0.179932	-0.325439	0.604993	-0.118253	-0.786600	-0.035495
13349		9.491045	-0.811293	-2.429992	0.046912	-0.037463	-0.030407	-0.882324	0.181152	-0.326416	0.604798	-0.117813	-0.786825	-0.035302
13350		9.443856	-0.735866	-2.472925	0.039655	-0.044787	-0.023027	-0.876221	0.187012	-0.320557	0.604570	-0.117494	-0.787056	-0.035113
13351		9.442123	-0.683990	-2.555697	0.017242	-0.059082	-0.011073	-0.873047	0.182129	-0.322510	0.604203	-0.117463	-0.787348	-0.034983
13352		9.412209	-0.632916	-2.600021	-0.002242	-0.061391	-0.002330	-0.883789	0.181152	-0.328125	0.603839	-0.117535	-0.787619	-0.034943
13353		9.427238	-0.718042	-2.667539	-0.009082	-0.065694	-0.000178	-0.881836	0.183105	-0.321289	0.603462	-0.117630	-0.787893	-0.034951
13354		9.486140	-0.743593	-2.683306	-0.012505	-0.057500	0.002343	-0.883545	0.187744	-0.318115	0.603094	-0.117777	-0.788153	-0.034962
13355		9.482961	-0.790047	-2.783860	-0.015869	-0.056107	0.005415	-0.875488	0.182617	-0.321289	0.602707	-0.118010	-0.788413	-0.034972
13356		9.413749	-0.807378	-2.795482	-0.009416	-0.055392	0.007205	-0.878906	0.183838	-0.318359	0.602390	-0.118177	-0.788631	-0.034946
13357		9.372357	-0.662907	-2.750788	-0.051356	-0.058546	0.002845	-0.878174	0.190674	-0.314941	0.601982	-0.118529	-0.788878	-0.035208
13358		9.408516	-0.529694	-2.712832	-0.082309	-0.063329	0.009130	-0.874023	0.178467	-0.313965	0.601494	-0.119156	-0.789137	-0.035625
13359		9.469276	-0.995074	-2.804331	-0.075979	-0.056918	0.013201	-0.883789	0.172852	-0.316650	0.601073	-0.119626	-0.789370	-0.036002
13360		9.472340	-1.099161	-2.767809	-0.048281	-0.050776	0.004550	-0.878174	0.178711	-0.313232	0.600720	-0.119809	-0.789599	-0.036263
13361		9.362760	-1.096478	-2.842661	-0.017730	-0.037149	-0.001553	-0.881348	0.180908	-0.302246	0.600479	-0.119871	-0.789768	-0.036351
13362		9.375857	-1.016102	-2.725850	0.010263	-0.029414	-0.022651	-0.879150	0.181152	-0.305908	0.600219	-0.119662	-0.789998	-0.036347
13363		9.424204	-0.974733	-2.748891	0.038962	-0.013790	-0.026209	-0.886963	0.188965	-0.311035	0.600129	-0.119298	-0.790129	-0.036193
13364		9.409965	-0.842272	-2.641550	0.042863	-0.005646	-0.031859	-0.885254	0.181885	-0.313721	0.600114	-0.118965	-0.790197	-0.036050
13365		9.454538	-0.746834	-2.654279	0.033509	-0.007837	-0.023937	-0.879883	0.184326	-0.315186	0.600105	-0.118659	-0.790254	-0.035938
13366		9.426575	-0.663605	-2.546411	0.019573	-0.017264	-0.019969	-0.883545	0.173096	-0.308594	0.600048	-0.118498	-0.790324	-0.035886
13367		9.409604	-0.641995	-2.614816	0.001737	-0.042733	-0.006963	-0.870605	0.188965	-0.314453	0.599751	-0.118379	-0.790569	-0.035865
13368		9.359108	-0.824518	-2.750760	0.003218	-0.042113	-0.007463	-0.881836	0.185303	-0.307129	0.599544	-0.118468	-0.790714	-0.035828
13369		9.407647	-0.786129	-2.819747	-0.007328	-0.051811	-0.009365	-0.883301	0.183105	-0.299561	0.599178	-0.118530	-0.790981	-0.035857
13370		9.465595	-0.775264	-2.855558	0.002923	-0.035011	-0.011213	-0.883301	0.185059	-0.305176	0.598878	-0.118490	-0.791215	-0.035838
13371		9.419218	-0.736263	-2.874859	0.009002	-0.035058	-0.004406	-0.882324	0.178955	-0.306396	0.598634	-0.118495	-0.791403	-0.035753
13372		9.430782	-0.784106	-2.897243	-0.000149	-0.018917	0.001106	-0.883301	0.178223	-0.303955	0.598506	-0.118508	-0.791499	-0.035724
13373		9.391276	-0.770478	-2.797776	-0.002610	-0.007796	0.000651	-0.876953	0.168945	-0.306885	0.598430	-0.118515	-0.791555	-0.035723
13374		9.403520	-0.801945	-2.849523	-0.000215	-0.013811	0.002049	-0.889648	0.176758	-0.304443	0.598359	-0.118424	-0.791624	-0.035702
13375		9.384011	-0.876573	-2.869163	-0.000328	-0.001915	0.002430	-0.883545	0.179443	-0.302490	0.598314	-0.118402	-0.791661	-0.035688
13376		9.459452	-0.790072	-2.797321	0.006807	-0.001323	0.000996	-0.881104	0.184814	-0.302490	0.598282	-0.118379	-0.791692	-0.035629
13377		9.408193	-0.647863	-2.629685	-0.020060	-0.006541	-0.001666	-0.882568	0.182373	-0.304199	0.598193	-0.118543	-0.791729	-0.035753
13378		9.364591	-0.675207	-2.788416	-0.045646	-0.021207	0.009627	-0.879395	0.178711	-0.309814	0.597997	-0.118879	-0.791816	-0.035979
13379		9.390667	-0.788499	-2.838979	-0.055704	-0.028131	0.011155	-0.880859	0.185303	-0.301025	0.597801	-0.119234	-0.791898	-0.036262
13380		9.344382	-0.879523	-2.809943	-0.062995	-0.012293	0.012630	-0.886475	0.180908	-0.305420	0.597636	-0.119701	-0.791937	-0.036594
13381		9.424067	-0.943597	-2.785892	-0.024867	-0.010294	0.002313	-0.880127	0.179932	-0.307129	0.597541	-0.119839	-0.791981	-0.036734
13382		9.411693	-0.878934	-2.821345	-0.026387	-0.002431	0.000776	-0.877686	0.190918	-0.306152	0.597526	-0.119970	-0.791964	-0.036899
13383		9.437385	-0.715212	-2.702655	-0.005874	-0.001929	-0.002087	-0.886719	0.188721	-0.309814	0.597533	-0.120111	-0.791937	-0.036936
13384		9.391719	-0.790325	-2.702978	-0.021080	-0.013968	0.007139	-0.877930	0.189453	-0.307861	0.597452	-0.120344	-0.791958	-0.037020
13385		9.420702	-0.940216	-2.751062	-0.020145	-0.021178	0.007720	-0.883789	0.182861	-0.306152	0.597333	-0.120602	-0.792005	-0.037085
13386		9.375286	-0.902362	-2.766550	0.003258	-0.001913	0.001046	-0.878418	0.185303	-0.305908	0.597340	-0.120604	-0.792002	-0.037054
13387		9.387992	-0.950057	-2.785187	0.018284	-0.002572	-0.008973	-0.882812	0.184082	-0.307617	0.597366	-0.120502	-0.792002	-0.036969
13388		9.403756	-0.838650	-2.747456	0.027267	-0.003972	-0.012993	-0.878662	0.188477	-0.311279	0.597391	-0.120308	-0.792018	-0.036845
13389		9.381776	-0.811703	-2.667229	0.014309	-0.011592	-0.014576	-0.884033	0.188965	-0.305420	0.597387	-0.120230	-0.792035	-0.036803
13390		9.392526	-0.806588	-2.763674	-0.006277	-0.032734	-0.014562	-0.885742	0.185303	-0.304688	0.597169	-0.120257	-0.792192	-0.036874
13391		9.336247	-0.948551	-2.816317	-0.002591	-0.020564	-0.011028	-0.884766	0.183350	-0.305176	0.597031	-0.120243	-0.792296	-0.036919
13392		9.355915	-0.953290	-2.889973	0.009130	-0.006877	-0.025831	-0.881104	0.189209	-0.309570	0.596999	-0.120052	-0.792346	-0.036976
13393		9.471229	-0.795697	-2.870595	0.024328	0.006860	-0.036569	-0.881348	0.184082	-0.303955	0.597109	-0.119782	-0.792304	-0.036993
13394		9.478427	-0.686801	-2.800238	0.029106	0.009293	-0.023619	-0.886719	0.178955	-0.304199	0.597202	-0.119524	-0.792276	-0.036918
13395		9.355128	-0.796220	-2.654486	0.019573	-0.002778	-0.015311	-0.884521	0.187012	-0.305420	0.597196	-0.119314	-0.792315	-0.036862
13396		9.407237	-0.856293	-2.796054	0.011694	-0.009786	-0.018779	-0.885254	0.175537	-0.300049	0.597148	-0.119212	-0.792366	-0.036857
13397		9.345775	-0.844820	-2.758017	0.020006	-0.003159	-0.022996	-0.876465	0.180176	-0.305420	0.597114	-0.118923	-0.792436	-0.036836
13398		9.360476	-0.794320	-2.801866	0.010079	-0.012402	-0.026719	-0.881104	0.179932	-0.299805	0.597065	-0.118730	-0.792500	-0.036884
13399		9.461301	-0.765735	-2.831496	0.022887	-0.006752	-0.033601	-0.882812	0.174072	-0.309326	0.597016	-0.118419	-0.792583	-0.036886
13400		9.395841	-0.732593	-2.721643	0.028348	-0.004994	-0.025145	-0.887695	0.189453	-0.304932	0.597049	-0.118078	-0.792612	-0.036821
13401		9.452552	-0.733141	-2.885983	0.022903	-0.006392	-0.018190	-0.888428	0.181885	-0.298340	0.597026	-0.117963	-0.792651	-0.036737
13402		9.407067	-0.709645	-2.847238	0.031972	0.000445	-0.015623	-0.885498	0.175537	-0.309814	0.597012	-0.117744	-0.792700	-0.036595
13403		9.401418	-0.621381	-2.881420	0.042786	0.005342	-0.010179	-0.882324	0.179199	-0.299561	0.597128	-0.117450	-0.792667	-0.036371
13404		9.386733	-0.685005	-2.784335	0.018834	0.010723	0.000830	-0.883545	0.177002	-0.306641	0.597195	-0.117393	-0.792631	-0.036246
13405		9.375634	-0.704564	-2.907675	-0.004546	-0.001814	0.006979	-0.880615	0.176025	-0.305908	0.597201	-0.117472	-0.792614	-0.036239
13406		9.378859	-0.822358	-2.975042	-0.005198	0.003936	0.006954	-0.886963	0.174561	-0.302734	0.597247	-0.117547	-0.792569	-0.036243
13407		9.449064	-0.922923	-3.038942	0.024418	0.017498	-0.000668	-0.880127	0.182129	-0.301270	0.597372	-0.117394	-0.792503	-0.036105
13408		9.447527	-0.921177	-2.950611	0.070429	0.044427	-0.005833	-0.879150	0.188721	-0.298584	0.597721	-0.117057	-0.792308	-0.035703
13409		9.407978	-0.793344	-2.772820	0.093996	0.053315	-0.005724	-0.883301	0.180176	-0.309570	0.598128	-0.116672	-0.792083	-0.035145
13410		9.378562	-0.774799	-2.630243	0.102511	0.057411	-0.006499	-0.878418	0.180176	-0.305908	0.598628	-0.116146	-0.791809	-0.034550
13411		9.418996	-0.855715	-2.552198	0.084912	0.060952	-0.003543	-0.883545	0.177734	-0.314453	0.599112	-0.115741	-0.791523	-0.034058
13412		9.383351	-0.780437	-2.382633	0.051693	0.040238	-0.003964	-0.883545	0.185059	-0.313477	0.599464	-0.115474	-0.791308	-0.033772
13413		9.457775	-0.804715	-2.478757	0.031548	-0.003685	-0.007413	-0.881592	0.178711	-0.309326	0.599493	-0.115369	-0.791309	-0.033585
13414		9.427361	-0.914027	-2.568887	0.026060	-0.013891	-0.008338	-0.883545	0.173828	-0.314453	0.599427	-0.115234	-0.791385	-0.033435
13415		9.382123	-0.860591	-2.639355	0.027310	-0.037585	-0.013081	-0.878174	0.173096	-0.318604	0.599236	-0.115019	-0.791567	-0.033286
13416		9.404711	-0.904747	-2.734747	0.045454	-0.036694	-0.019513	-0.888672	0.178711	-0.309326	0.599107	-0.114676	-0.791724	-0.033050
13417		9.398910	-0.865512	-2.700162	0.046079	-0.032876	-0.024372	-0.880615	0.174316	-0.309326	0.598922	-0.114337	-0.791923	-0.032829
13418		9.352740	-0.842415	-2.687400	0.044655	-0.040276	-0.023248	-0.878174	0.162842	-0.307617	0.598708	-0.113992	-0.792143	-0.032608
13419		9.416931	-0.902101	-2.717999	0.031122	-0.035510	-0.030904	-0.879639	0.180420	-0.305176	0.598509	-0.113567	-0.792358	-0.032533
13420		9.403122	-0.754496	-2.711228	0.017274	-0.041625	-0.029877	-0.879883	0.172119	-0.305420	0.598240	-0.113387	-0.792588	-0.032513
13421		9.373014	-0.781472	-2.800055	-0.007046	-0.040788	-0.026279	-0.881348	0.173340	-0.305908	0.597959	-0.113278	-0.792809	-0.032648
13422		9.365352	-0.866643	-2.905912	-0.027681	-0.042274	-0.029274	-0.882324	0.173828	-0.310791	0.597653	-0.113264	-0.793030	-0.032931
13423		9.433196	-0.781667	-2.892595	-0.003188	-0.028202	-0.037833	-0.884277	0.171875	-0.301758	0.597494	-0.113072	-0.793171	-0.033108
13424		9.413450	-0.769083	-2.844920	0.021409	-0.013165	-0.035149	-0.884766	0.178467	-0.302490	0.597400	-0.112757	-0.793285	-0.033124
13425		9.390889	-0.609273	-2.835503	0.000996	-0.016047	-0.032115	-0.882080	0.167969	-0.301758	0.597273	-0.112629	-0.793394	-0.033249
13426		9.415978	-0.329456	-2.800981	-0.033332	-0.026678	-0.021092	-0.882812	0.174316	-0.299561	0.597050	-0.112660	-0.793545	-0.033549
13427		9.382537	-0.447062	-2.801329	-0.078546	-0.042204	-0.010031	-0.882812	0.175049	-0.303223	0.596673	-0.113053	-0.793750	-0.034072
13428		9.435262	-0.605572	-3.027031	-0.108582	-0.046948	0.003232	-0.877197	0.176758	-0.295410	0.596268	-0.113687	-0.793936	-0.034726
13429		9.401149	-0.692601	-3.113452	-0.089127	-0.027439	0.008719	-0.884766	0.166992	-0.295410	0.595981	-0.114277	-0.794044	-0.035239
13430		9.450319	-0.716040	-3.010235	-0.046666	-0.007232	-0.000040	-0.877686	0.170410	-0.306641	0.595855	-0.114481	-0.794096	-0.035545
13431		9.448568	-0.712993	-2.970282	-0.021653	-0.005486	0.008297	-0.881592	0.176514	-0.301025	0.595852	-0.114653	-0.794069	-0.035644
13432		9.399009	-0.670816	-2.859871	-0.029156	0.009304	0.023367	-0.880615	0.184814	-0.298096	0.595900	-0.115009	-0.793977	-0.035727
13433		9.331094	-0.703573	-2.766759	-0.061969	0.004284	0.023989	-0.890381	0.172363	-0.304688	0.595867	-0.115608	-0.793902	-0.036014
13434		9.389636	-0.789590	-2.770707	-0.057565	0.011789	0.019252	-0.885742	0.173584	-0.294678	0.595909	-0.116008	-0.793799	-0.036315
13435		9.424982	-0.815944	-2.736327	-0.042165	0.008392	0.021282	-0.883789	0.180420	-0.304199	0.595892	-0.116362	-0.793751	-0.036498
13436		9.384919	-0.818572	-2.809412	-0.024688	0.008333	0.020739	-0.885986	0.181641	-0.299561	0.595952	-0.116685	-0.793655	-0.036564
13437		9.398632	-0.885322	-2.794425	-0.019153	0.012330	0.023544	-0.884033	0.179443	-0.309326	0.596012	-0.117001	-0.793563	-0.036582
13438		9.356974	-0.789838	-2.809458	-0.016017	0.004483	0.017849	-0.883301	0.175049	-0.295654	0.596083	-0.117240	-0.793474	-0.036604
13439		9.387691	-0.779838	-2.735775	-0.012137	0.004737	0.015540	-0.884766	0.178711	-0.306152	0.596078	-0.117407	-0.793452	-0.036613
13440		9.355111	-0.727015	-2.667540	-0.028577	-0.013119	0.018969	-0.875732	0.176270	-0.295654	0.595999	-0.117708	-0.793463	-0.036695
13441		9.413806	-0.783453	-2.800517	-0.046072	-0.013037	0.019530	-0.881836	0.186279	-0.307617	0.595861	-0.118092	-0.793500	-0.036891
13442		9.390279	-0.902541	-2.850715	-0.041047	-0.011813	0.018951	-0.878906	0.189453	-0.300537	0.595796	-0.118517	-0.793479	-0.037052
13443		9.377461	-0.888576	-2.770656	-0.022289	-0.006491	0.008859	-0.888916	0.183105	-0.293457	0.595746	-0.118812	-0.793468	-0.037140
13444		9.386562	-0.787426	-2.807363	-0.028761	-0.011167	0.008846	-0.885498	0.191650	-0.308594	0.595599	-0.119062	-0.793535	-0.037270
13445		9.386716	-0.885192	-2.846661	-0.034786	-0.006291	0.011659	-0.881348	0.177246	-0.305420	0.595575	-0.119435	-0.793489	-0.037429
13446		9.413028	-0.884632	-2.888428	-0.015106	-0.003650	0.001775	-0.879150	0.185303	-0.295410	0.595577	-0.119520	-0.793470	-0.037522
13447		9.387053	-0.902062	-2.815052	0.028615	0.014614	-0.000972	-0.887939	0.176514	-0.305908	0.595688	-0.119439	-0.793407	-0.037345
13448		9.379701	-0.828794	-2.754098	0.014498	0.006561	-0.002918	-0.887695	0.184326	-0.306396	0.595774	-0.119324	-0.793363	-0.037277
13449		9.361082	-0.806007	-2.755181	-0.013001	-0.000880	-0.002103	-0.883545	0.178955	-0.310303	0.595785	-0.119422	-0.793336	-0.037370
13450		9.362999	-0.839288	-2.734443	-0.025821	-0.014793	-0.007199	-0.881592	0.180908	-0.302246	0.595721	-0.119513	-0.793361	-0.037566
13451		9.408866	-0.795405	-2.986305	-0.028125	-0.016722	-0.010645	-0.877686	0.183594	-0.302490	0.595598	-0.119616	-0.793427	-0.037787
13452		9.351979	-0.838172	-2.956884	-0.021251	0.000340	-0.006671	-0.872314	0.180420	-0.301025	0.595607	-0.119733	-0.793395	-0.037956
13453		9.415863	-0.879299	-2.973466	-0.009942	0.007080	-0.014570	-0.885986	0.175537	-0.299072	0.595671	-0.119722	-0.793342	-0.038099
13454		9.432978	-0.686541	-2.905401	0.010984	0.022847	-0.017846	-0.878662	0.189209	-0.300293	0.595822	-0.119517	-0.793257	-0.038144
13455		9.363094	-0.648729	-2.894999	0.006912	0.024927	-0.004836	-0.885010	0.182861	-0.298584	0.596004	-0.119548	-0.793116	-0.038134
13456		9.358637	-0.786562	-2.874655	0.008528	0.034867	-0.001586	-0.882080	0.177734	-0.295166	0.596230	-0.119525	-0.792950	-0.038116
13457		9.317229	-0.719156	-2.759446	0.001192	0.031720	-0.004446	-0.874512	0.177734	-0.302246	0.596412	-0.119484	-0.792818	-0.038164
13458		9.442465	-0.689422	-2.720255	0.030592	0.028721	-0.005742	-0.887451	0.179443	-0.294189	0.596653	-0.119298	-0.792671	-0.038020
13459		9.468486	-0.495024	-2.681677	0.021001	0.018922	0.007829	-0.879150	0.177002	-0.305176	0.596752	-0.119253	-0.792611	-0.037863
13460		9.416326	-0.564593	-2.720211	-0.007719	0.008086	0.032024	-0.890137	0.187500	-0.299561	0.596834	-0.119500	-0.792517	-0.037766
13461		9.397719	-0.724293	-2.808398	-0.047663	-0.009327	0.039152	-0.886230	0.177002	-0.298584	0.596709	-0.120068	-0.792519	-0.037874
13462		9.419788	-0.818776	-3.012196	-0.029032	0.006200	0.030965	-0.878174	0.182617	-0.302490	0.596709	-0.120395	-0.792468	-0.037927
13463		9.390514	-0.883625	-2.988011	-0.009545	0.024140	0.023932	-0.878662	0.178223	-0.310303	0.596879	-0.120626	-0.792306	-0.037896
13464		9.429216	-0.835061	-2.963336	0.003741	0.034834	0.020257	-0.880371	0.190430	-0.306396	0.597171	-0.120716	-0.792076	-0.037808
13465		9.407804	-0.875708	-2.935275	0.001118	0.050510	0.024895	-0.873535	0.185791	-0.297607	0.597536	-0.120944	-0.791770	-0.037721
13466		9.369221	-1.007721	-2.912583	0.017553	0.060686	0.010831	-0.880371	0.181885	-0.317871	0.597940	-0.120969	-0.791466	-0.037612
13467		9.353345	-1.036346	-2.787550	0.036357	0.069376	-0.002199	-0.869873	0.179688	-0.304688	0.598509	-0.120752	-0.791078	-0.037450
13468		9.425651	-0.974644	-2.701997	0.058042	0.082728	-0.013782	-0.883545	0.174805	-0.306396	0.599123	-0.120356	-0.790683	-0.037221
13469		9.395296	-0.918928	-2.577681	0.069918	0.081501	-0.015945	-0.878418	0.191650	-0.307129	0.599717	-0.119826	-0.790327	-0.036929
13470		9.420633	-0.977697	-2.560342	0.085648	0.081104	-0.019072	-0.884766	0.182373	-0.320068	0.600326	-0.119352	-0.789955	-0.036532
13471		9.434028	-1.005682	-2.512772	0.118098	0.086051	-0.032603	-0.876709	0.190186	-0.310059	0.601045	-0.118530	-0.789557	-0.035996
13472		9.359715	-0.848334	-2.364471	0.119639	0.064313	-0.039786	-0.879639	0.178711	-0.319092	0.601570	-0.117755	-0.789297	-0.035462
13473		9.411881	-0.808502	-2.395842	0.095310	0.040000	-0.038616	-0.879883	0.176514	-0.328369	0.601948	-0.117020	-0.789136	-0.035063
13474		9.396399	-0.818332	-2.370746	0.060418	0.004279	-0.032451	-0.882080	0.178223	-0.324707	0.602102	-0.116495	-0.789107	-0.034824
13475		9.468942	-0.820617	-2.460229	0.051071	-0.010129	-0.029415	-0.881592	0.178467	-0.317383	0.602127	-0.116060	-0.789161	-0.034618
13476		9.472043	-0.821197	-2.522409	0.058684	-0.001666	-0.031920	-0.876709	0.186035	-0.324707	0.602177	-0.115583	-0.789203	-0.034386
13477		9.414683	-0.734414	-2.540288	0.054923	-0.013228	-0.028651	-0.881592	0.180908	-0.316162	0.602193	-0.115215	-0.789255	-0.034137
13478		9.458098	-0.703875	-2.635772	0.039920	-0.027063	-0.023399	-0.880371	0.178223	-0.315186	0.602053	-0.114925	-0.789412	-0.033959
13479		9.426996	-0.827475	-2.675692	0.036427	-0.025030	-0.013599	-0.880859	0.175049	-0.312744	0.601924	-0.114703	-0.789551	-0.033760
13480		9.412844	-0.778791	-2.661057	0.057810	-0.020359	-0.022103	-0.883057	0.173584	-0.308594	0.601833	-0.114295	-0.789692	-0.033472
13481		9.392541	-0.497284	-2.576765	0.033395	-0.028910	-0.022308	-0.883545	0.181152	-0.313965	0.601638	-0.114004	-0.789888	-0.033340
13482		9.440914	-0.570345	-2.608127	-0.020533	-0.056165	-0.010503	-0.875977	0.176270	-0.319824	0.601244	-0.114126	-0.790165	-0.033470
13483		9.466614	-0.794651	-2.832637	-0.030906	-0.063886	-0.003930	-0.881592	0.179199	-0.312256	0.600839	-0.114314	-0.790439	-0.033628
13484		9.464317	-0.824798	-2.778143	-0.009634	-0.054094	-0.011552	-0.883301	0.174316	-0.300537	0.600474	-0.114361	-0.790707	-0.033695
13485		9.408343	-0.597672	-2.779561	-0.002513	-0.043383	-0.022002	-0.888184	0.169434	-0.305664	0.600125	-0.114268	-0.790981	-0.033787
13486		9.414559	-0.587891	-2.797864	-0.041566	-0.055047	-0.011453	-0.885742	0.185547	-0.309814	0.599688	-0.114398	-0.791281	-0.034074
13487		9.411060	-0.744144	-2.860850	-0.066096	-0.054110	0.002996	-0.883545	0.178955	-0.305176	0.599267	-0.114868	-0.791517	-0.034439
13488		9.396623	-0.856760	-2.967912	-0.055646	-0.047678	0.007884	-0.876953	0.180908	-0.312256	0.598885	-0.115269	-0.791735	-0.034723
13489		9.369516	-0.921347	-3.054752	-0.043106	-0.022790	-0.003369	-0.890381	0.174805	-0.308350	0.598728	-0.115542	-0.791802	-0.035000
13490		9.453559	-0.810661	-3.068698	0.006226	0.009452	-0.008996	-0.889648	0.181641	-0.301270	0.598789	-0.115455	-0.791767	-0.035015
13491		9.438742	-0.726642	-2.821204	0.032173	0.029141	-0.003056	-0.883057	0.179688	-0.307373	0.598972	-0.115330	-0.791655	-0.034847
13492		9.458971	-0.685909	-2.734752	0.022283	0.028133	0.005210	-0.881104	0.167236	-0.312256	0.599179	-0.115302	-0.791508	-0.034701
13493		9.387383	-0.665859	-2.651326	0.004418	0.026321	0.013550	-0.887939	0.184814	-0.308838	0.599386	-0.115324	-0.791352	-0.034634
13494		9.369714	-0.678324	-2.586371	-0.003078	0.010492	0.015400	-0.878174	0.182373	-0.309814	0.599449	-0.115523	-0.791277	-0.034586
13495		9.387068	-0.780828	-2.590969	-0.029084	-0.009712	0.013567	-0.881592	0.175537	-0.309814	0.599375	-0.115840	-0.791282	-0.034701
13496		9.433156	-0.901769	-2.669666	-0.052240	-0.030272	0.017663	-0.881592	0.178467	-0.311768	0.599139	-0.116245	-0.791391	-0.034931
13497		9.439382	-0.959022	-2.743393	-0.032455	-0.015485	0.007291	-0.885010	0.185791	-0.303955	0.599029	-0.116494	-0.791430	-0.035095
13498		9.446658	-0.760101	-2.745517	0.000776	-0.018160	0.003844	-0.875244	0.176270	-0.311035	0.598890	-0.116607	-0.791520	-0.035053
13499		9.382887	-0.830671	-2.715767	0.009591	-0.013250	0.003402	-0.869141	0.177246	-0.308350	0.598845	-0.116610	-0.791558	-0.034962
13500		9.348245	-0.936086	-2.703696	0.007522	-0.016594	0.005965	-0.880371	0.185547	-0.307373	0.598774	-0.116659	-0.791609	-0.034869
13501		9.356335	-0.850067	-2.689963	-0.019441	-0.021754	-0.005314	-0.883301	0.178955	-0.311523	0.598616	-0.116814	-0.791699	-0.035002
13502		9.403736	-0.808408	-2.714649	-0.027860	-0.023132	-0.014236	-0.877686	0.187744	-0.306641	0.598457	-0.116895	-0.791798	-0.035235
13503		9.437943	-0.685904	-2.806237	-0.050693	-0.022285	-0.012428	-0.883057	0.176758	-0.312500	0.598268	-0.117178	-0.791882	-0.035609
13504		9.410173	-0.778202	-2.764384	-0.053916	-0.011580	-0.005629	-0.885010	0.176514	-0.301270	0.598170	-0.117426	-0.791902	-0.035984
13505		9.376617	-0.864658	-2.827660	-0.024754	-0.033753	-0.015585	-0.885010	0.185303	-0.311035	0.597897	-0.117467	-0.792092	-0.036196
13506		9.424553	-0.855289	-2.789112	-0.000668	-0.020917	-0.014961	-0.877686	0.175293	-0.306396	0.597782	-0.117449	-0.792180	-0.036253
13507		9.466311	-0.613819	-2.657083	0.014290	-0.024868	-0.021924	-0.884766	0.187256	-0.306641	0.597644	-0.117253	-0.792313	-0.036246
13508		9.398775	-0.549528	-2.614717	-0.021882	-0.027531	0.003828	-0.878662	0.180176	-0.307861	0.597452	-0.117486	-0.792419	-0.036344
13509		9.375392	-0.908605	-2.812209	-0.054859	-0.044117	0.006319	-0.882080	0.177246	-0.308105	0.597137	-0.117861	-0.792587	-0.036634
13510		9.389093	-0.861366	-2.903638	-0.036785	-0.035269	-0.003577	-0.884033	0.183350	-0.291748	0.596895	-0.118048	-0.792731	-0.036864
13511		9.447130	-0.816923	-3.022261	-0.026240	-0.018243	-0.011885	-0.884033	0.184326	-0.303467	0.596696	-0.118168	-0.792852	-0.037082
13512		9.383473	-0.691132	-2.980452	-0.024338	-0.008059	-0.009594	-0.885498	0.178955	-0.309082	0.596624	-0.118293	-0.792879	-0.037283
13513		9.400905	-0.694017	-2.991352	-0.030749	-0.005067	0.001063	-0.873779	0.178711	-0.311035	0.596594	-0.118477	-0.792865	-0.037479
13514		9.396598	-0.847415	-2.965104	-0.031544	-0.005274	-0.005706	-0.879883	0.183105	-0.303711	0.596586	-0.118632	-0.792836	-0.037713
13515		9.390929	-0.838836	-3.068967	-0.021202	0.014685	-0.002027	-0.885498	0.181396	-0.308838	0.596678	-0.118778	-0.792737	-0.037879
13516		9.382293	-0.856779	-2.961467	-0.011750	0.029595	-0.014670	-0.882324	0.177734	-0.299805	0.596888	-0.118765	-0.792572	-0.038060
13517		9.459725	-0.654597	-2.940516	0.009945	0.049537	-0.018287	-0.879639	0.180420	-0.301270	0.597212	-0.118597	-0.792350	-0.038138
13518		9.404693	-0.632921	-2.779826	0.011563	0.050487	-0.008853	-0.890137	0.180176	-0.301514	0.597552	-0.118507	-0.792106	-0.038159
13519		9.394361	-0.617954	-2.690684	0.005029	0.040778	0.001065	-0.881592	0.178711	-0.303467	0.597807	-0.118502	-0.791914	-0.038164
13520		9.413493	-0.815963	-2.686131	0.004110	0.031656	0.011355	-0.880615	0.187744	-0.304443	0.598022	-0.118574	-0.791743	-0.038116
13521		9.417792	-0.853593	-2.679729	0.024726	0.026048	0.004952	-0.876709	0.177002	-0.307617	0.598222	-0.118564	-0.791601	-0.037955
13522		9.407613	-0.761892	-2.586313	0.038437	0.026820	-0.001501	-0.880371	0.183105	-0.312256	0.598458	-0.118373	-0.791462	-0.037740
13523		9.386902	-0.818036	-2.549195	0.043486	0.022426	0.001127	-0.883301	0.180908	-0.307617	0.598682	-0.118211	-0.791329	-0.037471
13524		9.418246	-0.888108	-2.521132	0.046398	0.008143	-0.001738	-0.873291	0.185791	-0.308350	0.598787	-0.118003	-0.791295	-0.037184
13525		9.423603	-1.007817	-2.607198	0.056896	0.002905	-0.005841	-0.877686	0.178223	-0.305176	0.598882	-0.117767	-0.791273	-0.036842
13526		9.411778	-1.042742	-2.656047	0.089322	0.005681	-0.019279	-0.876709	0.176514	-0.316406	0.599003	-0.117224	-0.791285	-0.036358
13527		9.359571	-1.012428	-2.678149	0.094333	0.002008	-0.034793	-0.880615	0.180664	-0.306396	0.599148	-0.116544	-0.791296	-0.035913
13528		9.347374	-1.011611	-2.791027	0.077266	0.001623	-0.041941	-0.889893	0.184082	-0.304688	0.599220	-0.115936	-0.791344	-0.035615
13529		9.452317	-1.050698	-2.980309	0.059340	0.004415	-0.053455	-0.886475	0.178467	-0.314697	0.599267	-0.115357	-0.791399	-0.035493
13530		9.457494	-0.777768	-3.041615	0.086757	0.038174	-0.065486	-0.880127	0.175049	-0.313477	0.599607	-0.114522	-0.791272	-0.035282
13531		9.364198	-0.530133	-2.862999	0.070617	0.060048	-0.061486	-0.879395	0.176514	-0.303223	0.600077	-0.113783	-0.791027	-0.035179
13532		9.329568	-0.733880	-2.678395	0.040235	0.042265	-0.048106	-0.882080	0.178711	-0.317871	0.600355	-0.113311	-0.790883	-0.035194
13533		9.425171	-0.805079	-2.706503	0.018777	0.019912	-0.049732	-0.885254	0.177979	-0.312256	0.600522	-0.112956	-0.790800	-0.035337
13534		9.406791	-0.663934	-2.742587	0.017873	0.020328	-0.049758	-0.884033	0.177002	-0.318604	0.600660	-0.112601	-0.790740	-0.035486
13535		9.453462	-0.678688	-2.756656	0.032194	0.022044	-0.042639	-0.884277	0.174316	-0.308838	0.600852	-0.112220	-0.790647	-0.035507
13536		9.454709	-0.624780	-2.640589	0.047398	0.031166	-0.044318	-0.885498	0.170898	-0.312012	0.601073	-0.111737	-0.790550	-0.035445
13537		9.417663	-0.432685	-2.555139	0.029940	0.020531	-0.030722	-0.876221	0.175293	-0.308838	0.601222	-0.111415	-0.790484	-0.035420
13538		9.455004	-0.487287	-2.475963	-0.003499	-0.002261	-0.017896	-0.875488	0.167969	-0.311279	0.601191	-0.111397	-0.790505	-0.035532
13539		9.459650	-0.506842	-2.548559	-0.006324	-0.014762	-0.010445	-0.880859	0.167725	-0.312012	0.601090	-0.111399	-0.790577	-0.035616
13540		9.439970	-0.547725	-2.611660	-0.007151	-0.014479	0.003547	-0.880859	0.167236	-0.309082	0.600990	-0.111490	-0.790639	-0.035635
13541		9.456018	-0.488153	-2.544801	-0.004639	-0.024395	0.006709	-0.878906	0.171387	-0.314697	0.600818	-0.111587	-0.790758	-0.035612
13542		9.482242	-0.410822	-2.583775	-0.007583	-0.031785	0.015060	-0.867920	0.178467	-0.308838	0.600624	-0.111787	-0.790879	-0.035565
13543		9.460263	-0.485396	-2.545364	-0.014912	-0.047781	0.030970	-0.878174	0.167969	-0.305664	0.600316	-0.112195	-0.791059	-0.035476
13544		9.407067	-0.464228	-2.641062	-0.034000	-0.064965	0.043825	-0.884277	0.170654	-0.312500	0.599856	-0.112697	-0.791339	-0.035426
13545		9.384011	-0.654758	-2.798709	-0.073009	-0.076214	0.055717	-0.882080	0.173340	-0.312988	0.599313	-0.113481	-0.791632	-0.035566
13546		9.403116	-0.798532	-2.854827	-0.077769	-0.075537	0.053904	-0.877441	0.188965	-0.306641	0.598780	-0.114290	-0.791910	-0.035750
13547		9.434914	-0.877484	-2.965018	-0.052445	-0.062890	0.042826	-0.878174	0.171875	-0.308105	0.598336	-0.115001	-0.792139	-0.035840
13548		9.402848	-0.862913	-2.924513	-0.059194	-0.046151	0.038207	-0.876465	0.172363	-0.303467	0.598004	-0.115584	-0.792297	-0.036005
13549		9.341361	-0.796182	-2.897503	-0.094262	-0.053260	0.035355	-0.879395	0.180664	-0.302002	0.597577	-0.116324	-0.792493	-0.036407
13550		9.455392	-0.839107	-3.005638	-0.111863	-0.064265	0.033736	-0.882324	0.182617	-0.303711	0.597053	-0.117191	-0.792736	-0.036925
13551		9.418757	-0.863789	-2.952717	-0.084573	-0.037106	0.038523	-0.886719	0.180420	-0.302490	0.596744	-0.117946	-0.792840	-0.037267
13552		9.341939	-0.969868	-2.976522	-0.061744	-0.018981	0.035493	-0.884766	0.180420	-0.301758	0.596569	-0.118533	-0.792875	-0.037486
13553		9.370518	-0.797680	-2.812318	-0.057437	-0.035264	0.016980	-0.881592	0.178711	-0.302246	0.596286	-0.118977	-0.793009	-0.037753
13554		9.413148	-0.802265	-2.868038	-0.058821	-0.024876	0.019731	-0.884033	0.181885	-0.305420	0.596080	-0.119433	-0.793082	-0.038025
13555		9.404306	-0.906109	-2.878367	-0.049752	-0.020249	0.022457	-0.881348	0.191162	-0.303955	0.595926	-0.119874	-0.793121	-0.038231
13556		9.380503	-0.943929	-2.859996	-0.049222	-0.011888	0.017220	-0.883545	0.178955	-0.302490	0.595825	-0.120337	-0.793115	-0.038471
13557		9.384702	-0.981419	-2.900613	-0.026858	0.008485	0.006267	-0.882568	0.186768	-0.306641	0.595871	-0.120520	-0.793045	-0.038631
13558		9.340099	-0.814687	-2.731566	-0.022640	0.011205	-0.002596	-0.888672	0.188721	-0.296631	0.595953	-0.120675	-0.792951	-0.038815
13559		9.377047	-0.839635	-2.739283	-0.043470	-0.000723	-0.006406	-0.885986	0.184082	-0.306396	0.595884	-0.120913	-0.792951	-0.039136
13560		9.425327	-0.893704	-2.756140	-0.027012	0.007601	-0.004964	-0.884277	0.188477	-0.299072	0.595932	-0.121049	-0.792883	-0.039355
13561		9.378798	-0.852419	-2.727907	-0.001271	-0.002423	-0.014275	-0.881592	0.184082	-0.300781	0.595908	-0.121029	-0.792900	-0.039436
13562		9.418518	-0.705582	-2.795450	0.009743	-0.006572	-0.013555	-0.882568	0.187012	-0.307861	0.595879	-0.120936	-0.792936	-0.039438
13563		9.421915	-0.739404	-2.793683	-0.016631	0.009729	-0.008389	-0.880859	0.192139	-0.293701	0.595961	-0.121022	-0.792853	-0.039609
13564		9.360041	-0.696088	-2.839416	-0.033149	-0.014119	-0.011686	-0.883545	0.181641	-0.300049	0.595811	-0.121210	-0.792923	-0.039876
13565		9.423343	-0.799724	-2.937924	-0.006088	0.003362	-0.015172	-0.884277	0.174316	-0.296631	0.595827	-0.121163	-0.792912	-0.039999
13566		9.385163	-0.656168	-2.922755	0.010063	0.013144	-0.014307	-0.880371	0.183594	-0.296143	0.595910	-0.120990	-0.792876	-0.040017
13567		9.414295	-0.608539	-2.869274	0.007748	0.018901	-0.001644	-0.891113	0.191650	-0.302734	0.596034	-0.120978	-0.792785	-0.039998
13568		9.426917	-0.750617	-2.817955	0.019693	0.027069	0.005279	-0.882812	0.181885	-0.314209	0.596237	-0.120987	-0.792637	-0.039876
13569		9.428103	-0.672679	-2.763972	0.035808	0.037432	0.007470	-0.881592	0.181641	-0.304199	0.596581	-0.120876	-0.792406	-0.039651
13570		9.389582	-0.693197	-2.801472	0.030721	0.016182	0.012015	-0.882568	0.187012	-0.302246	0.596739	-0.120827	-0.792307	-0.039412
13571		9.368187	-0.607539	-2.907078	0.012245	0.013853	0.022295	-0.885010	0.189209	-0.302002	0.596855	-0.120969	-0.792206	-0.039242
13572		9.360372	-0.713897	-2.890687	-0.021071	0.012569	0.033032	-0.875244	0.183105	-0.302734	0.596928	-0.121357	-0.792092	-0.039237
13573		9.437147	-0.871743	-2.982421	-0.004330	0.027876	0.027569	-0.891357	0.184326	-0.302246	0.597131	-0.121591	-0.791906	-0.039166
13574		9.404397	-0.883971	-2.946145	0.028954	0.046405	0.022648	-0.889160	0.187012	-0.302490	0.597464	-0.121602	-0.791666	-0.038914
13575		9.337889	-0.888118	-2.931281	0.025591	0.036714	0.018059	-0.880615	0.182373	-0.305176	0.597728	-0.121621	-0.791474	-0.038698
13576		9.399947	-0.882731	-2.974599	0.021971	0.045694	0.013256	-0.880371	0.194336	-0.304932	0.598065	-0.121605	-0.791230	-0.038539
13577		9.405628	-1.049320	-2.875313	0.030383	0.065598	0.005667	-0.892334	0.188477	-0.310303	0.598535	-0.121563	-0.790889	-0.038386
13578		9.379900	-1.016870	-2.845226	0.063625	0.076443	-0.009849	-0.880615	0.184570	-0.303711	0.599105	-0.121197	-0.790527	-0.038098
13579		9.454784	-0.893317	-2.740150	0.090776	0.092735	-0.021225	-0.883789	0.191406	-0.310303	0.599791	-0.120607	-0.790116	-0.037703
13580		9.416583	-0.844110	-2.602887	0.108034	0.102378	-0.021096	-0.883301	0.183350	-0.311523	0.600570	-0.119971	-0.789644	-0.037206
13581		9.407933	-0.670158	-2.428431	0.103800	0.101347	-0.019107	-0.870361	0.186035	-0.312744	0.601336	-0.119324	-0.789182	-0.036723
13582		9.374323	-0.627760	-2.439730	0.055143	0.056585	-0.007535	-0.878662	0.190674	-0.318848	0.601777	-0.119049	-0.788899	-0.036462
13583		9.441602	-0.896710	-2.601623	0.028892	0.046049	-0.003469	-0.877686	0.191162	-0.322510	0.602132	-0.118955	-0.788649	-0.036345
13584		9.431538	-0.914153	-2.677390	0.028371	0.036702	-0.014886	-0.884277	0.184082	-0.317383	0.602432	-0.118796	-0.788446	-0.036281
13585		9.448524	-0.819141	-2.622730	0.057337	0.043178	-0.019899	-0.869629	0.184570	-0.314209	0.602771	-0.118404	-0.788256	-0.036052
13586		9.457570	-0.763202	-2.492503	0.064527	0.050924	-0.017354	-0.881348	0.179932	-0.313965	0.603173	-0.118016	-0.788019	-0.035773
13587		9.518684	-0.689570	-2.433516	0.090921	0.041197	-0.014124	-0.871094	0.182617	-0.322021	0.603518	-0.117477	-0.787858	-0.035290
13588		9.447811	-0.671216	-2.368945	0.096950	0.032858	0.000257	-0.874268	0.187012	-0.321289	0.603858	-0.117041	-0.787689	-0.034693
13589		9.409741	-0.677307	-2.252946	0.072952	-0.000655	0.002222	-0.880615	0.180664	-0.319580	0.603944	-0.116772	-0.787683	-0.034215
13590		9.505771	-0.681500	-2.322500	0.015351	-0.026702	0.009242	-0.878906	0.182617	-0.313232	0.603790	-0.116801	-0.787804	-0.034049
13591		9.409809	-0.603176	-2.484595	-0.065977	-0.066419	0.003343	-0.877686	0.173340	-0.320801	0.603274	-0.117224	-0.788121	-0.034408
13592		9.364502	-0.663515	-2.775876	-0.109425	-0.080604	0.013994	-0.875977	0.183105	-0.317139	0.602661	-0.117884	-0.788467	-0.034980
13593		9.475871	-0.955608	-3.079681	-0.112438	-0.076787	0.010551	-0.873535	0.193359	-0.319092	0.602062	-0.118592	-0.788790	-0.035602
13594		9.479398	-1.200162	-3.106369	-0.033472	-0.021064	0.005861	-0.878418	0.188232	-0.320068	0.601921	-0.118919	-0.788840	-0.035793
13595		9.417617	-1.031629	-2.808676	0.039131	-0.007253	-0.014707	-0.875977	0.176025	-0.318359	0.601935	-0.118702	-0.788870	-0.035616
13596		9.463820	-0.765718	-2.654828	0.061041	-0.004267	-0.019452	-0.879883	0.180176	-0.325684	0.601986	-0.118273	-0.788909	-0.035310
13597		9.389562	-0.725609	-2.587839	0.009717	-0.004902	-0.009515	-0.875488	0.188232	-0.321045	0.602006	-0.118193	-0.788906	-0.035296
13598		9.384544	-0.829402	-2.657257	-0.048445	-0.021382	-0.014954	-0.879639	0.180176	-0.312744	0.601848	-0.118427	-0.788975	-0.035683
13599		9.429832	-0.830433	-2.730858	-0.058353	-0.010642	-0.017257	-0.885986	0.176758	-0.323242	0.601715	-0.118636	-0.789024	-0.036147
13600		9.403974	-0.922587	-2.707213	-0.036718	0.005419	-0.019078	-0.882568	0.180908	-0.312744	0.601740	-0.118694	-0.788980	-0.036492
13601		9.422194	-0.970314	-2.599676	-0.001231	0.001013	-0.031330	-0.875244	0.186768	-0.313721	0.601733	-0.118522	-0.789003	-0.036662
13602		9.501724	-0.644210	-2.572744	0.005551	-0.018576	-0.027803	-0.877930	0.180908	-0.307617	0.601618	-0.118390	-0.789106	-0.036758
13603		9.413510	-0.682281	-2.629327	0.014843	-0.020933	-0.015814	-0.874268	0.184814	-0.309570	0.601476	-0.118255	-0.789236	-0.036724
13604		9.419900	-0.895875	-2.735176	-0.000862	-0.021193	-0.013992	-0.877197	0.179688	-0.307861	0.601331	-0.118241	-0.789346	-0.036790
13605		9.378939	-0.734718	-2.737378	0.003176	-0.011644	-0.017990	-0.880371	0.178955	-0.308594	0.601242	-0.118143	-0.789425	-0.036853
13606		9.446881	-0.763447	-2.661325	0.008111	-0.004186	-0.020448	-0.881836	0.183838	-0.317627	0.601206	-0.117996	-0.789472	-0.036901
13607		9.450059	-0.684782	-2.489831	0.028083	-0.012986	-0.020566	-0.887695	0.180420	-0.308594	0.601163	-0.117781	-0.789541	-0.036817
13608		9.456740	-0.564812	-2.540929	0.001367	-0.035294	-0.008210	-0.883057	0.182861	-0.314941	0.600911	-0.117761	-0.789736	-0.036820
13609		9.403148	-0.743529	-2.758357	-0.026791	-0.048304	0.009676	-0.885498	0.181152	-0.309326	0.600582	-0.118027	-0.789942	-0.036911
13610		9.406437	-0.846378	-2.884626	-0.009118	-0.041832	0.006399	-0.886963	0.176025	-0.308105	0.600292	-0.118164	-0.790142	-0.036906
13611		9.416275	-0.732150	-2.790488	0.020345	-0.011412	-0.002173	-0.877197	0.178467	-0.313721	0.600225	-0.118055	-0.790216	-0.036771
13612		9.398370	-0.775589	-2.665935	0.012869	-0.011137	0.002786	-0.887207	0.182373	-0.316895	0.600186	-0.118044	-0.790251	-0.036667
13613		9.436145	-0.805576	-2.717011	0.005343	-0.019107	0.001234	-0.882812	0.181152	-0.311279	0.600087	-0.118073	-0.790325	-0.036615
13614		9.491469	-0.761006	-2.751318	0.018032	-0.020612	0.004528	-0.876465	0.177246	-0.311523	0.599977	-0.118059	-0.790418	-0.036461
13615		9.437022	-0.668182	-2.699601	0.019889	-0.025954	0.005004	-0.879150	0.182617	-0.312012	0.599844	-0.118025	-0.790532	-0.036284
13616		9.401674	-0.613908	-2.615494	-0.009617	-0.038551	0.015212	-0.877930	0.185547	-0.319824	0.599601	-0.118238	-0.790686	-0.036244
13617		9.328068	-0.804437	-2.749889	-0.038678	-0.044413	0.027101	-0.873779	0.183105	-0.308350	0.599326	-0.118693	-0.790822	-0.036334
13618		9.369056	-0.983355	-2.787739	-0.047330	-0.041665	0.007877	-0.881836	0.187744	-0.311279	0.599022	-0.119051	-0.790988	-0.036578
13619		9.398569	-0.923143	-2.878984	-0.047081	-0.029670	-0.003585	-0.888672	0.179932	-0.302002	0.598796	-0.119342	-0.791100	-0.036892
13620		9.526220	-0.736761	-2.941089	-0.035992	-0.032746	-0.011028	-0.880371	0.184082	-0.310059	0.598520	-0.119475	-0.791277	-0.037155
13621		9.406810	-0.819757	-2.987022	-0.025135	-0.019518	0.000901	-0.885010	0.181396	-0.300049	0.598386	-0.119662	-0.791343	-0.037307
13622		9.337303	-0.913404	-2.956706	-0.025789	-0.016034	0.001053	-0.876465	0.184570	-0.303467	0.598235	-0.119830	-0.791424	-0.037463
13623		9.361567	-0.908554	-2.936526	-0.014168	0.003672	-0.007058	-0.880371	0.188477	-0.312988	0.598246	-0.119907	-0.791397	-0.037606
13624		9.372757	-0.965163	-2.817480	-0.009570	0.019303	-0.016140	-0.885498	0.186035	-0.311035	0.598391	-0.119915	-0.791278	-0.037783
13625		9.457209	-0.882481	-2.722114	0.009928	0.017755	-0.034172	-0.884033	0.185547	-0.307617	0.598525	-0.119687	-0.791205	-0.037914
13626		9.437004	-0.661906	-2.689068	0.005664	0.018995	-0.027021	-0.882812	0.190430	-0.312012	0.598654	-0.119528	-0.791125	-0.038040
13627		9.427496	-0.805765	-2.721468	-0.016879	0.009941	-0.011674	-0.878906	0.188232	-0.307861	0.598721	-0.119617	-0.791052	-0.038236
13628		9.390347	-0.902912	-2.830012	0.003758	0.017673	-0.016033	-0.884766	0.186035	-0.315186	0.598848	-0.119563	-0.790959	-0.038324
13629		9.353379	-0.886269	-2.723845	0.026089	0.036945	-0.029541	-0.878906	0.178223	-0.307617	0.599138	-0.119285	-0.790781	-0.038347
13630		9.415549	-0.745310	-2.630258	0.021177	0.019518	-0.037493	-0.875488	0.179199	-0.309570	0.599283	-0.118949	-0.790718	-0.038416
13631		9.427789	-0.720836	-2.503201	0.011369	0.017298	-0.031841	-0.873535	0.168213	-0.312988	0.599415	-0.118713	-0.790648	-0.038522
13632		9.451343	-0.744226	-2.603865	0.013813	-0.008110	-0.025094	-0.880615	0.192139	-0.303711	0.599397	-0.118460	-0.790699	-0.038540
13633		9.415549	-0.874980	-2.672133	0.031222	-0.008573	-0.021468	-0.879639	0.172852	-0.307373	0.599355	-0.118273	-0.790763	-0.038456
13634		9.409562	-0.787302	-2.750425	0.057768	-0.012715	-0.032450	-0.884521	0.175293	-0.305176	0.599322	-0.117776	-0.790873	-0.038223
13635		9.435322	-0.608813	-2.769473	0.060537	-0.002393	-0.034255	-0.877686	0.177734	-0.302490	0.599346	-0.117264	-0.790943	-0.037993
13636		9.449047	-0.685083	-2.681177	0.058792	0.002214	-0.021987	-0.886475	0.175781	-0.315430	0.599401	-0.116865	-0.790973	-0.037726
13637		9.438940	-0.673210	-2.660525	0.078514	-0.000183	-0.013191	-0.882324	0.178467	-0.313232	0.599495	-0.116409	-0.790990	-0.037276
13638		9.377752	-0.682584	-2.589965	0.071618	-0.013836	-0.009218	-0.881348	0.177979	-0.304199	0.599489	-0.116041	-0.791069	-0.036844
13639		9.448717	-0.610705	-2.676823	0.082409	-0.026006	-0.004029	-0.876953	0.177979	-0.309082	0.599386	-0.115658	-0.791228	-0.036307
13640		9.403541	-0.659608	-2.762487	0.079167	-0.030841	0.000966	-0.878906	0.177490	-0.310791	0.599272	-0.115333	-0.791387	-0.035762
13641		9.428403	-0.742538	-2.812605	0.076064	-0.029170	0.008527	-0.878906	0.178223	-0.309814	0.599171	-0.115070	-0.791526	-0.035200
13642		9.424751	-0.729101	-2.807224	0.073693	-0.031058	0.010538	-0.879639	0.172119	-0.309814	0.599054	-0.114838	-0.791673	-0.034644
13643		9.418571	-0.761070	-2.851199	0.052354	-0.029153	0.013108	-0.877197	0.179932	-0.313232	0.598930	-0.114694	-0.791807	-0.034209
13644		9.357555	-0.889918	-3.015523	0.023651	-0.027071	0.015205	-0.882324	0.175293	-0.304932	0.598807	-0.114754	-0.791901	-0.033967
13645		9.353242	-1.031345	-3.020278	0.022710	-0.016134	0.001962	-0.880371	0.172852	-0.300293	0.598719	-0.114695	-0.791984	-0.033799
13646		9.420671	-1.059983	-2.901769	0.071471	0.008313	-0.018941	-0.881592	0.177979	-0.312988	0.598821	-0.114235	-0.791989	-0.033434
13647		9.422177	-1.068573	-2.574994	0.108092	0.025911	-0.027847	-0.875732	0.170898	-0.303955	0.599110	-0.113561	-0.791890	-0.032894
13648		9.393515	-0.873446	-2.500944	0.104831	0.014394	-0.036186	-0.882080	0.175049	-0.310303	0.599292	-0.112821	-0.791878	-0.032399
13649		9.385329	-0.688570	-2.543281	0.039992	-0.007211	-0.029573	-0.883789	0.175049	-0.305420	0.599284	-0.112477	-0.791938	-0.032284
13650		9.409781	-0.810381	-2.660239	-0.010728	-0.018059	-0.036230	-0.880615	0.166260	-0.309570	0.599136	-0.112346	-0.792058	-0.032528
13651		9.372580	-0.748054	-2.761593	-0.046536	-0.012781	-0.034493	-0.875488	0.173828	-0.310547	0.599010	-0.112361	-0.792133	-0.032991
13652		9.359877	-0.787496	-2.740249	-0.057489	-0.007163	-0.042259	-0.880859	0.163818	-0.309326	0.598918	-0.112428	-0.792168	-0.033585
13653		9.441672	-0.746550	-2.741569	-0.018160	-0.011771	-0.044057	-0.878174	0.167969	-0.311279	0.598822	-0.112226	-0.792255	-0.033907
13654		9.425044	-0.500091	-2.738864	0.008546	-0.007761	-0.039920	-0.883545	0.171143	-0.310303	0.598790	-0.111947	-0.792313	-0.034043
13655		9.426150	-0.433842	-2.724574	-0.008149	-0.023459	-0.019419	-0.888916	0.168701	-0.306396	0.598635	-0.111907	-0.792430	-0.034178
13656		9.476978	-0.443030	-2.715926	-0.037134	-0.028762	-0.000819	-0.881836	0.170654	-0.302246	0.598405	-0.112117	-0.792564	-0.034403
13657		9.407856	-0.492441	-2.844171	-0.064655	-0.026351	0.001691	-0.883057	0.174316	-0.307861	0.598163	-0.112500	-0.792675	-0.034807
13658		9.392911	-0.363485	-2.848460	-0.124576	-0.043941	0.008913	-0.889160	0.172119	-0.301025	0.597769	-0.113250	-0.792832	-0.035558
13659		9.424859	-0.275414	-2.903800	-0.151221	-0.069464	0.035425	-0.885254	0.170410	-0.298828	0.597162	-0.114292	-0.793105	-0.036325
13660		9.471201	-0.619902	-3.120456	-0.156018	-0.049349	0.053083	-0.882080	0.182129	-0.300049	0.596690	-0.115457	-0.793258	-0.037052
13661		9.428250	-1.020459	-3.271944	-0.094995	-0.019623	0.060532	-0.889893	0.180176	-0.304443	0.596486	-0.116419	-0.793255	-0.037386
13662		9.394017	-0.984202	-3.131557	-0.036722	0.012999	0.046880	-0.878174	0.179688	-0.300537	0.596557	-0.116961	-0.793120	-0.037423
13663		9.357585	-0.609833	-2.849796	-0.008558	0.028133	0.037228	-0.882812	0.175293	-0.301270	0.596752	-0.117300	-0.792927	-0.037338
13664		9.365881	-0.621910	-2.783972	-0.087954	0.015420	0.048735	-0.878662	0.174561	-0.303467	0.596784	-0.118079	-0.792770	-0.037698
13665		9.366870	-0.834078	-2.989393	-0.152555	0.019468	0.050564	-0.886230	0.183594	-0.306885	0.596791	-0.119184	-0.792562	-0.038477
13666		9.445685	-1.163614	-3.103120	-0.119902	0.033089	0.037042	-0.886230	0.190186	-0.303467	0.596918	-0.120064	-0.792302	-0.039131
13667		9.428112	-1.171330	-2.972510	-0.032431	0.066510	0.016003	-0.886230	0.188232	-0.302979	0.597334	-0.120389	-0.791928	-0.039353
13668		9.398130	-0.973363	-2.763477	0.038593	0.090463	0.001800	-0.883301	0.180420	-0.305176	0.597969	-0.120245	-0.791478	-0.039196
13669		9.336682	-0.818138	-2.499958	0.058034	0.080621	-0.003258	-0.877197	0.185059	-0.309082	0.598562	-0.119933	-0.791092	-0.038914
13670		9.393309	-0.658148	-2.266720	0.025285	0.055404	0.001364	-0.881104	0.183838	-0.305176	0.598971	-0.119856	-0.790798	-0.038808
13671		9.438463	-0.662861	-2.289945	-0.012410	0.022190	0.012548	-0.889648	0.179932	-0.317383	0.599108	-0.120041	-0.790664	-0.038860
13672		9.416831	-0.750365	-2.398527	-0.037914	0.007492	0.015273	-0.877930	0.186523	-0.305176	0.599151	-0.120342	-0.790577	-0.039040
13673		9.381452	-0.616120	-2.510914	-0.062276	-0.007900	0.021224	-0.879639	0.176758	-0.311768	0.599044	-0.120857	-0.790564	-0.039353
13674		9.434663	-0.775936	-2.671687	-0.063153	-0.040241	0.019092	-0.877930	0.189209	-0.302002	0.598743	-0.121313	-0.790708	-0.039629
13675		9.484283	-0.996821	-2.831749	-0.006425	-0.034783	0.018422	-0.882324	0.193115	-0.306396	0.598508	-0.121548	-0.790853	-0.039565
13676		9.388037	-0.889826	-2.865184	0.025947	-0.019139	0.011058	-0.879150	0.187988	-0.309082	0.598417	-0.121581	-0.790928	-0.039342
13677		9.371915	-0.842415	-2.808501	0.023079	-0.019350	0.003855	-0.882080	0.186768	-0.300537	0.598332	-0.121555	-0.791005	-0.039164
13678		9.405877	-0.852083	-2.809326	0.014200	-0.015305	-0.001886	-0.876221	0.181152	-0.311279	0.598234	-0.121525	-0.791089	-0.039077
13679		9.370418	-0.923485	-2.840281	0.012383	-0.013907	-0.000642	-0.883789	0.178955	-0.307129	0.598184	-0.121486	-0.791137	-0.038985
13680		9.423448	-1.017689	-2.896763	0.033274	0.000796	-0.011971	-0.882812	0.185303	-0.301514	0.598227	-0.121244	-0.791149	-0.038822
13681		9.411050	-0.906316	-2.817714	0.058548	0.015192	-0.019214	-0.882568	0.186279	-0.301025	0.598372	-0.120862	-0.791111	-0.038556
13682		9.366399	-0.773683	-2.853952	0.041684	0.015610	-0.020531	-0.887207	0.186768	-0.311523	0.598499	-0.120564	-0.791067	-0.038412
13683		9.362851	-0.909193	-2.812254	0.044785	0.024473	-0.021771	-0.881104	0.181885	-0.311523	0.598714	-0.120236	-0.790962	-0.038257
13684		9.420308	-0.781777	-2.812046	0.047187	0.028001	-0.030671	-0.885254	0.182861	-0.314941	0.598957	-0.119819	-0.790848	-0.038129
13685		9.390779	-0.678356	-2.668129	0.033441	0.030027	-0.023116	-0.881592	0.185059	-0.319824	0.599206	-0.119523	-0.790708	-0.038055
13686		9.437689	-0.746303	-2.814529	0.017119	0.015987	-0.021363	-0.891113	0.188477	-0.315430	0.599363	-0.119342	-0.790615	-0.038069
13687		9.370293	-0.808461	-2.861929	0.028344	0.026063	-0.012789	-0.879883	0.171387	-0.306641	0.599576	-0.119168	-0.790484	-0.037984
13688		9.349569	-0.829863	-2.887590	0.037682	0.033753	-0.015295	-0.882324	0.182373	-0.310547	0.599831	-0.118855	-0.790345	-0.037836
13689		9.469397	-0.742943	-2.839367	0.049586	0.048105	-0.021106	-0.879150	0.185059	-0.309570	0.600197	-0.118496	-0.790129	-0.037670
13690		9.474416	-0.697134	-2.781005	0.039802	0.057490	-0.011980	-0.879639	0.180420	-0.309082	0.600616	-0.118263	-0.789851	-0.037539
13691		9.383453	-0.810148	-2.685873	0.030775	0.057194	-0.001085	-0.879395	0.175049	-0.310059	0.601022	-0.118123	-0.789570	-0.037406
13692		9.442064	-0.859463	-2.682441	0.031976	0.049278	-0.012561	-0.881348	0.184326	-0.314941	0.601373	-0.117878	-0.789344	-0.037305
13693		9.445170	-0.795796	-2.636806	0.031314	0.042247	-0.018695	-0.885254	0.186279	-0.313477	0.601685	-0.117643	-0.789143	-0.037246
13694		9.457798	-0.807238	-2.648869	0.047367	0.047125	-0.013219	-0.879150	0.181152	-0.316406	0.602036	-0.117371	-0.788925	-0.037064
13695		9.451097	-0.733725	-2.604363	0.063466	0.040901	-0.015313	-0.875244	0.177246	-0.314453	0.602374	-0.116987	-0.788738	-0.036771
13696		9.486026	-0.709631	-2.639045	0.048627	0.037995	-0.007838	-0.876709	0.177246	-0.317383	0.602675	-0.116714	-0.788559	-0.036533
13697		9.449304	-0.840090	-2.615697	0.060065	0.040090	-0.006618	-0.876465	0.180908	-0.315430	0.603007	-0.116391	-0.788368	-0.036214
13698		9.481351	-0.702817	-2.645667	0.088185	0.054160	-0.013193	-0.873291	0.180420	-0.318115	0.603448	-0.115900	-0.788123	-0.035766
13699		9.433382	-0.519390	-2.483611	0.096783	0.058171	-0.005341	-0.878662	0.185059	-0.319824	0.603933	-0.115420	-0.787846	-0.035227
13700		9.407885	-0.617313	-2.409679	0.029051	0.020776	0.016771	-0.877686	0.170166	-0.324463	0.604110	-0.115458	-0.787716	-0.034994
13701		9.430578	-0.948342	-2.562715	-0.017704	-0.004255	0.022449	-0.885010	0.175537	-0.322266	0.604092	-0.115696	-0.787695	-0.034983
13702		9.468668	-1.137702	-2.621746	0.030614	0.000307	0.003763	-0.881104	0.182373	-0.324219	0.604131	-0.115585	-0.787691	-0.034762
13703		9.456219	-1.059709	-2.500801	0.090358	0.011396	-0.019515	-0.883057	0.180908	-0.316162	0.604304	-0.115057	-0.787657	-0.034291
13704		9.427400	-0.898496	-2.385319	0.128141	0.003443	-0.030241	-0.869141	0.173340	-0.314697	0.604429	-0.114266	-0.787705	-0.033619
13705		9.444582	-0.680479	-2.304989	0.111808	-0.011115	-0.024391	-0.876221	0.174072	-0.320801	0.604454	-0.113582	-0.787811	-0.033003
13706		9.408638	-0.735014	-2.346846	0.046993	-0.032217	-0.016921	-0.876953	0.172607	-0.323730	0.604290	-0.113277	-0.787990	-0.032753
13707		9.369856	-0.883273	-2.531872	0.006948	-0.060006	-0.017225	-0.883545	0.177490	-0.317139	0.603916	-0.113174	-0.788293	-0.032737
13708		9.446519	-0.892011	-2.567895	0.008922	-0.059957	-0.030764	-0.870605	0.180420	-0.320312	0.603516	-0.112993	-0.788623	-0.032789
13709		9.476758	-0.703607	-2.589043	0.016794	-0.062367	-0.041764	-0.882568	0.172119	-0.315430	0.603131	-0.112732	-0.788952	-0.032853
13710		9.443226	-0.617250	-2.678786	0.003955	-0.063482	-0.029956	-0.878174	0.169922	-0.312500	0.602705	-0.112562	-0.789299	-0.032920
13711		9.409341	-0.596463	-2.827291	-0.020125	-0.074101	-0.019986	-0.880859	0.171387	-0.319580	0.602188	-0.112577	-0.789685	-0.033085
13712		9.415538	-0.731076	-2.932077	-0.051764	-0.062819	-0.010812	-0.879639	0.175049	-0.317871	0.601740	-0.112811	-0.789978	-0.033421
13713		9.375898	-0.777687	-2.939340	-0.059325	-0.048720	-0.022130	-0.884033	0.173828	-0.320068	0.601374	-0.113026	-0.790207	-0.033887
13714		9.484888	-0.678711	-2.989925	-0.030131	-0.032527	-0.029916	-0.877930	0.175537	-0.310059	0.601144	-0.113026	-0.790368	-0.034208
13715		9.505137	-0.505375	-2.879946	-0.025552	-0.014238	-0.029408	-0.883301	0.172119	-0.308838	0.601018	-0.113022	-0.790450	-0.034527
13716		9.452484	-0.424618	-2.837795	-0.054751	-0.014343	-0.004623	-0.884521	0.175537	-0.308838	0.600862	-0.113305	-0.790512	-0.034904
13717		9.393290	-0.541296	-2.753587	-0.105361	-0.038569	0.006204	-0.880127	0.174072	-0.312988	0.600502	-0.113935	-0.790666	-0.035546
13718		9.431504	-0.649894	-2.856160	-0.098106	-0.044602	0.024905	-0.874512	0.175049	-0.309570	0.600133	-0.114645	-0.790821	-0.036035
13719		9.417738	-0.792742	-2.812091	-0.073364	-0.021353	0.031787	-0.878906	0.178223	-0.307617	0.599941	-0.115278	-0.790860	-0.036353
13720		9.435887	-0.880708	-2.871600	-0.048500	-0.010417	0.028524	-0.880859	0.182129	-0.306152	0.599836	-0.115769	-0.790860	-0.036538
13721		9.384145	-0.823204	-2.795179	-0.029039	0.004106	0.027620	-0.877441	0.177979	-0.302490	0.599839	-0.116167	-0.790796	-0.036622
13722		9.389752	-0.830630	-2.690874	-0.046748	0.002075	0.030531	-0.881104	0.180664	-0.312744	0.599805	-0.116652	-0.790742	-0.036795
13723		9.462931	-0.791159	-2.732960	-0.045878	-0.003324	0.015685	-0.885254	0.174805	-0.312256	0.599758	-0.117040	-0.790709	-0.037031
13724		9.443215	-1.006782	-2.751563	-0.020653	0.013891	0.023566	-0.887695	0.179932	-0.315430	0.599846	-0.117309	-0.790601	-0.037058
13725		9.413072	-1.003397	-2.605338	0.006545	0.017344	0.014653	-0.888184	0.186523	-0.317383	0.599987	-0.117404	-0.790485	-0.036963
13726		9.385608	-0.732153	-2.340469	0.016111	0.005403	0.001302	-0.886963	0.180664	-0.315430	0.600058	-0.117398	-0.790435	-0.036875
13727		9.474616	-0.728244	-2.493576	-0.001998	-0.010554	0.012730	-0.883789	0.179199	-0.303467	0.600006	-0.117534	-0.790458	-0.036820
13728		9.377767	-0.808156	-2.432894	-0.019513	-0.023289	0.017989	-0.882812	0.183838	-0.304199	0.599823	-0.117794	-0.790557	-0.036845
13729		9.407154	-0.831392	-2.550902	-0.040444	-0.051192	0.013373	-0.880371	0.178955	-0.309570	0.599438	-0.118160	-0.790786	-0.037014
13730		9.429525	-0.892997	-2.618194	-0.035459	-0.063195	0.010885	-0.879150	0.177490	-0.306641	0.598999	-0.118461	-0.791067	-0.037135
13731		9.403200	-1.071429	-2.649314	-0.004205	-0.055815	0.001122	-0.881592	0.187744	-0.305908	0.598633	-0.118531	-0.791336	-0.037103
13732		9.349205	-1.109502	-2.802377	0.023586	-0.051918	-0.009685	-0.880615	0.178467	-0.306396	0.598314	-0.118442	-0.791596	-0.036970
13733		9.408558	-0.957420	-2.816333	0.027748	-0.044278	-0.028471	-0.891846	0.176758	-0.304932	0.598049	-0.118158	-0.791843	-0.036885
13734		9.505279	-0.706824	-2.988808	0.017431	-0.026061	-0.038723	-0.881836	0.177490	-0.299316	0.597876	-0.117834	-0.792020	-0.036930
13735		9.348555	-0.788257	-2.856666	0.001963	-0.013826	-0.022200	-0.879883	0.180420	-0.303223	0.597770	-0.117712	-0.792114	-0.037018
13736		9.327443	-0.932462	-2.778342	0.011864	-0.020033	-0.025709	-0.881592	0.181641	-0.307861	0.597645	-0.117538	-0.792233	-0.037059
13737		9.406507	-0.848704	-2.898187	0.012692	-0.025423	-0.040556	-0.883057	0.182373	-0.303955	0.597493	-0.117268	-0.792382	-0.037163
13738		9.386303	-0.790965	-3.008716	0.005719	-0.014674	-0.046506	-0.871826	0.177979	-0.305664	0.597391	-0.116996	-0.792490	-0.037358
13739		9.466257	-0.719819	-3.073498	0.019281	-0.000449	-0.045628	-0.874268	0.188232	-0.313965	0.597414	-0.116650	-0.792518	-0.037467
13740		9.391744	-0.658870	-3.015283	0.030016	0.017414	-0.034249	-0.876953	0.179688	-0.305664	0.597590	-0.116372	-0.792426	-0.037489
13741		9.374506	-0.741538	-2.913478	0.027710	0.025440	-0.027320	-0.886719	0.165283	-0.302734	0.597791	-0.116107	-0.792313	-0.037482
13742		9.409777	-0.808475	-2.923762	0.046438	0.034109	-0.031790	-0.878662	0.171875	-0.308594	0.598046	-0.115635	-0.792197	-0.037343
13743		9.466976	-0.616008	-2.863804	0.079336	0.055230	-0.037002	-0.887695	0.173828	-0.300781	0.598493	-0.115001	-0.791965	-0.037053
13744		9.476654	-0.541667	-2.765175	0.072076	0.056971	-0.024934	-0.878174	0.173584	-0.313232	0.598913	-0.114492	-0.791734	-0.036761
13745		9.471963	-0.499319	-2.655110	0.061149	0.052142	-0.014054	-0.882080	0.180664	-0.310791	0.599336	-0.114118	-0.791481	-0.036481
13746		9.402148	-0.466096	-2.641187	0.031202	0.048935	0.008387	-0.873291	0.177490	-0.312500	0.599703	-0.114079	-0.791217	-0.036304
13747		9.404243	-0.626407	-2.645416	-0.001145	0.027266	0.019942	-0.875977	0.176025	-0.312500	0.599909	-0.114277	-0.791034	-0.036258
13748		9.434440	-0.776922	-2.807443	0.011719	0.019605	0.019791	-0.882568	0.177002	-0.311523	0.600074	-0.114399	-0.790898	-0.036116
13749		9.389290	-0.822984	-2.823653	0.012858	0.021690	0.018692	-0.878174	0.176270	-0.302002	0.600242	-0.114504	-0.790762	-0.035972
13750		9.428466	-0.805921	-2.757949	0.025972	0.017592	0.014592	-0.880859	0.174072	-0.310059	0.600371	-0.114519	-0.790671	-0.035761
13751		9.479727	-0.832647	-2.646575	0.055311	0.027037	0.007412	-0.885010	0.179199	-0.319092	0.600607	-0.114320	-0.790537	-0.035392
13752		9.493006	-0.816993	-2.560206	0.048750	0.015852	0.010302	-0.879150	0.169189	-0.311523	0.600784	-0.114197	-0.790436	-0.035049
13753		9.416154	-0.733758	-2.566150	0.059346	0.013391	0.015996	-0.885010	0.175537	-0.311035	0.600938	-0.114015	-0.790365	-0.034584
13754		9.345174	-0.718901	-2.526146	0.047961	0.010077	0.012239	-0.879639	0.171875	-0.313965	0.601051	-0.113893	-0.790313	-0.034224
13755		9.337352	-0.856552	-2.630728	-0.005794	-0.007555	0.006596	-0.878906	0.176025	-0.313965	0.601008	-0.113995	-0.790331	-0.034223
13756		9.377545	-1.046271	-2.731335	-0.036467	-0.004054	0.001205	-0.884277	0.173096	-0.309814	0.600958	-0.114234	-0.790324	-0.034464
13757		9.413425	-1.039208	-2.803465	-0.026481	0.005573	-0.015514	-0.882080	0.176758	-0.314697	0.600959	-0.114290	-0.790304	-0.034721
13758		9.479440	-0.857466	-2.769352	0.012636	0.027697	-0.027504	-0.886475	0.183594	-0.313721	0.601156	-0.114084	-0.790180	-0.034811
13759		9.426344	-0.901514	-2.752880	0.032593	0.030112	-0.025418	-0.884277	0.175537	-0.316406	0.601380	-0.113823	-0.790048	-0.034779
13760		9.400611	-0.897802	-2.685886	0.060191	0.035364	-0.028086	-0.886230	0.174805	-0.317871	0.601672	-0.113368	-0.789901	-0.034563
13761		9.387667	-0.704141	-2.600161	0.057860	0.036696	-0.034524	-0.885010	0.176025	-0.313477	0.601968	-0.112878	-0.789753	-0.034393
13762		9.440301	-0.632201	-2.555572	0.043817	0.031830	-0.034087	-0.882568	0.171631	-0.314453	0.602206	-0.112476	-0.789632	-0.034317
13763		9.445935	-0.601041	-2.511198	0.001438	0.024198	-0.022691	-0.888916	0.170898	-0.318359	0.602361	-0.112347	-0.789527	-0.034447
13764		9.408227	-0.583414	-2.429309	-0.013750	-0.006407	-0.018395	-0.883545	0.172607	-0.315674	0.602304	-0.112322	-0.789566	-0.034621
13765		9.441448	-0.685396	-2.589828	-0.032397	-0.031628	-0.007424	-0.882568	0.168701	-0.310059	0.602066	-0.112485	-0.789715	-0.034849
13766		9.449663	-0.728802	-2.737674	-0.045218	-0.039426	-0.003546	-0.885498	0.178711	-0.314941	0.601753	-0.112723	-0.789907	-0.035125
13767		9.450458	-0.731609	-2.805754	-0.004692	-0.034674	-0.002487	-0.880615	0.168945	-0.314941	0.601522	-0.112809	-0.790069	-0.035159
13768		9.403938	-0.675701	-2.649615	0.017731	-0.022240	-0.006779	-0.884033	0.167725	-0.316162	0.601399	-0.112705	-0.790183	-0.035052
13769		9.431970	-0.595418	-2.525213	-0.007041	-0.056987	-0.006152	-0.883057	0.173340	-0.305420	0.601024	-0.112730	-0.790463	-0.035068
13770		9.454848	-0.642200	-2.645496	-0.044279	-0.071194	0.008239	-0.879639	0.166992	-0.316895	0.600500	-0.113074	-0.790804	-0.035264
13771		9.460836	-0.765080	-2.781633	-0.043108	-0.050365	0.014339	-0.882568	0.174072	-0.310303	0.600153	-0.113412	-0.791012	-0.035420
13772		9.370757	-0.744150	-2.784128	-0.049380	-0.047550	0.014070	-0.882080	0.174072	-0.302490	0.599801	-0.113811	-0.791212	-0.035641
13773		9.432730	-0.629303	-2.796562	-0.028521	-0.032323	0.012615	-0.883301	0.176514	-0.312256	0.599550	-0.114092	-0.791357	-0.035747
13774		9.435325	-0.744499	-2.804195	-0.028309	-0.030324	0.015586	-0.879150	0.170166	-0.312012	0.599340	-0.114396	-0.791467	-0.035841
13775		9.423520	-0.812340	-2.795048	-0.018781	-0.034961	0.016953	-0.884277	0.178955	-0.303955	0.599113	-0.114633	-0.791605	-0.035843
13776		9.407411	-0.751829	-2.836042	-0.031699	-0.026125	0.019708	-0.883301	0.184326	-0.313477	0.598909	-0.114991	-0.791703	-0.035950
13777		9.381749	-0.757829	-2.860597	-0.026476	-0.010729	0.021371	-0.878418	0.175781	-0.308838	0.598839	-0.115350	-0.791699	-0.036040
13778		9.390550	-0.691306	-2.856215	-0.030603	-0.007508	0.012036	-0.881348	0.181885	-0.314453	0.598777	-0.115628	-0.791699	-0.036184
13779		9.461927	-0.662938	-2.805848	-0.039443	-0.012326	0.023351	-0.881104	0.180664	-0.307617	0.598690	-0.116049	-0.791696	-0.036339
13780		9.427220	-0.907805	-2.771598	-0.038654	0.001243	0.031977	-0.879883	0.179443	-0.309814	0.598678	-0.116513	-0.791631	-0.036456
13781		9.448346	-0.793732	-2.767733	-0.015740	0.009249	0.021702	-0.887207	0.185791	-0.313965	0.598746	-0.116782	-0.791540	-0.036474
13782		9.388343	-0.726638	-2.711133	-0.004049	0.002250	0.018301	-0.881836	0.175049	-0.304199	0.598781	-0.116993	-0.791483	-0.036436
13783		9.454505	-0.854863	-2.795113	-0.024522	-0.010026	0.028543	-0.882324	0.181396	-0.307617	0.598697	-0.117331	-0.791497	-0.036445
13784		9.404720	-0.865834	-2.839123	-0.030257	-0.002818	0.024702	-0.885986	0.180176	-0.307861	0.598663	-0.117696	-0.791464	-0.036533
13785		9.384557	-0.844689	-2.820472	-0.016538	0.007307	0.016487	-0.882080	0.173340	-0.307617	0.598705	-0.117922	-0.791397	-0.036573
13786		9.405602	-0.885182	-2.805778	-0.016261	0.010291	0.011235	-0.881348	0.180664	-0.313477	0.598766	-0.118080	-0.791325	-0.036622
13787		9.455071	-0.864303	-2.813647	0.015121	0.019793	0.009828	-0.882568	0.186035	-0.315674	0.598937	-0.118103	-0.791198	-0.036498
13788		9.381358	-0.826038	-2.721391	0.000770	0.027429	0.011830	-0.873047	0.176025	-0.310791	0.599149	-0.118231	-0.791019	-0.036480
13789		9.380664	-0.889114	-2.734901	-0.015539	0.017258	0.011920	-0.874512	0.177490	-0.310791	0.599271	-0.118406	-0.790898	-0.036537
13790		9.397493	-0.970375	-2.706666	0.002546	0.006650	-0.003347	-0.873047	0.190674	-0.315918	0.599335	-0.118397	-0.790850	-0.036543
13791		9.397570	-0.983241	-2.630935	0.022983	0.019004	-0.008157	-0.882812	0.173828	-0.305664	0.599514	-0.118313	-0.790730	-0.036485
13792		9.390255	-0.989124	-2.617583	0.037653	0.011008	-0.012368	-0.880127	0.182861	-0.308838	0.599615	-0.118044	-0.790702	-0.036296
13793		9.410526	-0.945851	-2.554485	0.051226	0.016295	-0.024615	-0.886719	0.183105	-0.318115	0.599771	-0.117672	-0.790648	-0.036109
13794		9.389201	-0.837569	-2.466332	0.039692	0.005410	-0.028073	-0.876709	0.177734	-0.313965	0.599861	-0.117331	-0.790635	-0.036000
13795		9.431333	-0.648544	-2.550369	0.022552	-0.017164	-0.034019	-0.885742	0.181885	-0.307129	0.599780	-0.117033	-0.790741	-0.036005
13796		9.415111	-0.643848	-2.605927	-0.009617	-0.022433	-0.020409	-0.874512	0.183350	-0.307861	0.599612	-0.117002	-0.790865	-0.036160
13797		9.432038	-0.567958	-2.636819	-0.021426	-0.051168	-0.013557	-0.883301	0.181152	-0.311768	0.599259	-0.117104	-0.791110	-0.036341
13798		9.438045	-0.661271	-2.898342	-0.015037	-0.053470	0.002024	-0.880371	0.182861	-0.306152	0.598906	-0.117256	-0.791352	-0.036389
13799		9.428758	-0.720301	-3.047057	-0.003143	-0.033576	0.006866	-0.883545	0.173828	-0.305176	0.598687	-0.117387	-0.791500	-0.036361
13800		9.418296	-0.618615	-3.119484	0.001538	-0.005455	0.006847	-0.876221	0.185303	-0.301270	0.598654	-0.117439	-0.791520	-0.036304
13801		9.432716	-0.682790	-3.083191	0.001056	0.012802	0.015917	-0.883301	0.174072	-0.305908	0.598741	-0.117611	-0.791431	-0.036259
13802		9.443674	-0.711171	-3.025325	0.010827	0.036610	0.018569	-0.872314	0.176025	-0.314453	0.598999	-0.117680	-0.791231	-0.036123
13803		9.358029	-0.643420	-2.902509	-0.008099	0.035911	0.024987	-0.886475	0.175537	-0.312256	0.599267	-0.117902	-0.790997	-0.036085
13804		9.421702	-0.749872	-2.909307	-0.028473	0.032908	0.033433	-0.883545	0.183594	-0.311768	0.599476	-0.118264	-0.790782	-0.036128
13805		9.438959	-0.897685	-2.913590	-0.028714	0.055826	0.035759	-0.874512	0.177490	-0.313232	0.599838	-0.118674	-0.790443	-0.036205
13806		9.376896	-0.873768	-2.835913	-0.000449	0.061974	0.027047	-0.876465	0.186768	-0.307617	0.600274	-0.118860	-0.790087	-0.036131
13807		9.403330	-0.808524	-2.725643	0.003562	0.066514	0.027536	-0.884277	0.188232	-0.310791	0.600726	-0.119069	-0.789716	-0.036059
13808		9.467538	-0.864811	-2.594452	0.008051	0.076616	0.027049	-0.881348	0.181396	-0.312500	0.601246	-0.119245	-0.789297	-0.035967
13809		9.421369	-0.812935	-2.567800	-0.004772	0.067691	0.028357	-0.882568	0.188721	-0.311279	0.601698	-0.119464	-0.788921	-0.035924
13810		9.410316	-0.848747	-2.566825	-0.020805	0.059434	0.025966	-0.877930	0.183838	-0.313965	0.602073	-0.119782	-0.788584	-0.036011
13811		9.457188	-1.029695	-2.586792	-0.028266	0.050834	0.023163	-0.875732	0.189209	-0.321045	0.602390	-0.120098	-0.788287	-0.036137
13812		9.399794	-0.883886	-2.539875	-0.023182	0.041482	0.010960	-0.883301	0.189697	-0.309814	0.602666	-0.120333	-0.788033	-0.036292
13813		9.471387	-0.995950	-2.502638	-0.006044	0.043546	0.005850	-0.877441	0.183350	-0.316895	0.602934	-0.120447	-0.787808	-0.036366
13814		9.446976	-0.997544	-2.476366	0.011013	0.038507	-0.003111	-0.876221	0.182373	-0.318604	0.603204	-0.120389	-0.787610	-0.036348
13815		9.417719	-0.992120	-2.348527	0.010822	0.020461	-0.003681	-0.875488	0.180176	-0.322266	0.603359	-0.120329	-0.787502	-0.036313
13816		9.472458	-1.021987	-2.341607	0.032783	0.008507	-0.014231	-0.875488	0.183105	-0.319824	0.603463	-0.120082	-0.787467	-0.036166
13817		9.389656	-0.923134	-2.205644	0.048719	-0.011913	-0.023999	-0.885010	0.186768	-0.322998	0.603440	-0.119713	-0.787551	-0.035953
13818		9.457767	-0.984670	-2.274109	0.043359	-0.033816	-0.028273	-0.874023	0.188965	-0.312988	0.603266	-0.119359	-0.787746	-0.035781
13819		9.433131	-0.878115	-2.402220	0.030134	-0.049491	-0.028635	-0.891357	0.189941	-0.322021	0.602962	-0.119103	-0.788021	-0.035702
13820		9.427502	-0.886826	-2.503097	0.009156	-0.056878	-0.036126	-0.878662	0.186523	-0.310791	0.602595	-0.118890	-0.788330	-0.035781
13821		9.476773	-0.847091	-2.615460	0.024479	-0.051230	-0.045633	-0.871582	0.180664	-0.318115	0.602262	-0.118541	-0.788635	-0.035817
13822		9.455737	-0.725885	-2.674420	0.011467	-0.064915	-0.042984	-0.879395	0.180908	-0.313477	0.601854	-0.118257	-0.788985	-0.035895
13823		9.404537	-0.542258	-2.823112	-0.019735	-0.064047	-0.026862	-0.880615	0.189453	-0.305908	0.601410	-0.118234	-0.789318	-0.036100
13824		9.451844	-0.609846	-2.814998	-0.027061	-0.047324	-0.014466	-0.881348	0.181152	-0.317383	0.601056	-0.118369	-0.789557	-0.036338
13825		9.436766	-0.560788	-2.824734	-0.019974	-0.027794	-0.003227	-0.882568	0.186768	-0.311035	0.600869	-0.118491	-0.789675	-0.036460
13826		9.396208	-0.657261	-2.876526	-0.044504	-0.030232	0.005568	-0.871826	0.182617	-0.313232	0.600630	-0.118821	-0.789795	-0.036717
13827		9.491201	-0.722991	-3.029546	-0.042890	-0.027502	0.013448	-0.875977	0.177002	-0.309326	0.600429	-0.119182	-0.789885	-0.036916
13828		9.409313	-0.787203	-2.948461	-0.016855	-0.008371	0.021118	-0.882568	0.187744	-0.317871	0.600369	-0.119427	-0.789893	-0.036908
13829		9.369661	-0.823104	-2.937806	-0.002909	0.003745	0.015902	-0.886963	0.186523	-0.308594	0.600418	-0.119601	-0.789832	-0.036866
13830		9.431424	-0.769163	-2.917234	-0.009283	0.012763	0.013687	-0.883057	0.182861	-0.316650	0.600492	-0.119784	-0.789747	-0.036887
13831		9.380855	-0.868492	-2.847945	-0.018734	0.022362	0.021808	-0.882812	0.178955	-0.312988	0.600645	-0.120044	-0.789590	-0.036922
13832		9.438103	-0.983177	-2.907912	-0.021670	0.026016	0.012883	-0.883057	0.182373	-0.310059	0.600805	-0.120242	-0.789433	-0.037016
13833		9.429669	-0.859121	-2.735193	-0.012637	0.034000	0.007167	-0.880371	0.180664	-0.308105	0.601018	-0.120370	-0.789248	-0.037098
13834		9.451659	-0.834302	-2.658728	-0.006195	0.025975	0.001157	-0.881348	0.190918	-0.314941	0.601178	-0.120423	-0.789115	-0.037157
13835		9.486685	-0.792278	-2.520953	-0.006049	0.028055	0.009547	-0.873047	0.181885	-0.312500	0.601370	-0.120572	-0.788944	-0.037198
13836		9.392135	-0.808741	-2.416958	-0.011862	0.008871	0.012705	-0.881104	0.187988	-0.311523	0.601431	-0.120743	-0.788871	-0.037222
13837		9.437424	-0.894639	-2.492738	-0.023989	-0.002461	0.011050	-0.876953	0.189453	-0.319092	0.601395	-0.120988	-0.788855	-0.037337
13838		9.404583	-0.890418	-2.557778	-0.025268	-0.008292	0.005274	-0.885254	0.189941	-0.312012	0.601340	-0.121206	-0.788857	-0.037480
13839		9.433675	-0.845307	-2.572451	-0.040658	-0.019446	0.004054	-0.876465	0.192383	-0.314209	0.601172	-0.121494	-0.788929	-0.037724
13840		9.419601	-0.925726	-2.695858	-0.033350	-0.015673	0.002807	-0.873047	0.191895	-0.306641	0.601049	-0.121753	-0.788972	-0.037937
13841		9.433616	-0.908926	-2.678941	-0.014075	-0.024197	-0.013557	-0.873291	0.184082	-0.310791	0.600871	-0.121814	-0.789091	-0.038102
13842		9.414861	-0.887502	-2.726528	0.007825	-0.028853	-0.009507	-0.880859	0.187256	-0.311035	0.600695	-0.121755	-0.789235	-0.038071
13843		9.403244	-1.031338	-2.722257	0.012828	-0.026484	-0.012888	-0.879150	0.192871	-0.312012	0.600535	-0.121656	-0.789374	-0.038032
13844		9.398146	-1.007107	-2.654123	0.022750	-0.016139	-0.022889	-0.879150	0.188965	-0.308594	0.600454	-0.121465	-0.789466	-0.038004
13845		9.408316	-0.952245	-2.617394	0.033749	-0.015236	-0.032005	-0.883057	0.187012	-0.308838	0.600380	-0.121145	-0.789575	-0.037943
13846		9.405938	-0.771825	-2.599219	0.029465	-0.016227	-0.044094	-0.879883	0.182861	-0.308350	0.600288	-0.120757	-0.789703	-0.037963
13847		9.413351	-0.681258	-2.608249	0.003598	-0.037694	-0.037529	-0.878174	0.190186	-0.314453	0.600033	-0.120536	-0.789924	-0.038091
13848		9.403663	-0.889038	-2.727329	-0.007856	-0.057441	-0.029320	-0.887939	0.186279	-0.312744	0.599658	-0.120466	-0.790212	-0.038251
13849		9.425327	-0.914057	-2.857079	0.014248	-0.042432	-0.031656	-0.885986	0.187012	-0.305664	0.599392	-0.120241	-0.790447	-0.038278
13850		9.383813	-0.769548	-2.872127	0.033146	-0.025163	-0.044596	-0.878906	0.185791	-0.301025	0.599241	-0.119842	-0.790622	-0.038273
13851		9.460175	-0.679780	-2.908736	0.043836	-0.014531	-0.047867	-0.881348	0.194336	-0.311035	0.599165	-0.119372	-0.790753	-0.038231
13852		9.445017	-0.498115	-2.755840	0.035558	-0.008883	-0.028077	-0.880371	0.189453	-0.312012	0.599147	-0.119106	-0.790810	-0.038168
13853		9.401946	-0.572860	-2.754048	0.004875	-0.015739	-0.009323	-0.882324	0.186279	-0.312744	0.599062	-0.119100	-0.790873	-0.038193
13854		9.396339	-0.726689	-2.891729	0.001748	-0.011239	-0.000726	-0.879883	0.184326	-0.313232	0.599007	-0.119149	-0.790908	-0.038190
13855		9.409777	-0.773139	-2.888783	0.007891	0.004246	-0.003128	-0.885742	0.188477	-0.314697	0.599063	-0.119139	-0.790868	-0.038169
13856		9.475171	-0.673843	-2.860389	0.015331	0.013957	-0.003170	-0.880127	0.185791	-0.313232	0.599189	-0.119101	-0.790781	-0.038117
13857		9.458283	-0.605840	-2.789239	0.024086	0.027834	0.004058	-0.882324	0.186279	-0.312012	0.599417	-0.119057	-0.790621	-0.037982
13858		9.398653	-0.615935	-2.714373	0.014539	0.016037	0.014685	-0.881348	0.182617	-0.313477	0.599556	-0.119135	-0.790511	-0.037846
13859		9.436880	-0.647818	-2.740284	0.004515	0.010296	0.029690	-0.882080	0.184570	-0.312744	0.599654	-0.119347	-0.790412	-0.037685
13860		9.347800	-0.849651	-2.739609	-0.006334	0.004280	0.037956	-0.880615	0.174805	-0.315430	0.599702	-0.119675	-0.790332	-0.037553
13861		9.394073	-1.048169	-2.735360	0.001511	0.001332	0.025600	-0.883545	0.180664	-0.320312	0.599741	-0.119838	-0.790285	-0.037397
13862		9.406074	-1.080734	-2.741959	0.020826	0.014791	0.008039	-0.881836	0.188477	-0.307617	0.599891	-0.119803	-0.790185	-0.037224
13863		9.446430	-0.906711	-2.707752	0.025917	0.016975	-0.006166	-0.883057	0.186523	-0.307373	0.600028	-0.119690	-0.790103	-0.037124
13864		9.433873	-0.874164	-2.655821	0.008341	0.012549	-0.008439	-0.877930	0.179443	-0.313477	0.600114	-0.119642	-0.790044	-0.037140
13865		9.411762	-0.973431	-2.668769	0.005682	0.011005	-0.004225	-0.885254	0.187256	-0.312256	0.600207	-0.119607	-0.789979	-0.037129
13866		9.354953	-1.142689	-2.689042	0.019221	0.005274	-0.018566	-0.880127	0.180420	-0.304199	0.600262	-0.119440	-0.789963	-0.037115
13867		9.364958	-1.007417	-2.623679	0.038615	0.003186	-0.037765	-0.870361	0.183594	-0.314941	0.600301	-0.119030	-0.789998	-0.037057
13868		9.402419	-0.871460	-2.619506	0.026196	0.007538	-0.046305	-0.884033	0.184082	-0.312012	0.600387	-0.118644	-0.789987	-0.037132
13869		9.419473	-0.852410	-2.639788	0.003690	-0.000459	-0.047784	-0.875488	0.183838	-0.320557	0.600380	-0.118358	-0.790026	-0.037356
13870		9.392001	-0.786022	-2.790586	-0.018052	-0.003759	-0.048368	-0.879395	0.181885	-0.312012	0.600355	-0.118183	-0.790053	-0.037719
13871		9.419462	-0.827694	-2.942146	-0.024834	0.006777	-0.045777	-0.886719	0.182617	-0.306396	0.600371	-0.118051	-0.790041	-0.038127
13872		9.474472	-0.924892	-2.899665	0.006953	0.024623	-0.057853	-0.884033	0.175537	-0.305664	0.600513	-0.117676	-0.789975	-0.038409
13873		9.461562	-0.754194	-2.708591	0.029905	0.037642	-0.058628	-0.882080	0.176758	-0.322021	0.600762	-0.117153	-0.789858	-0.038541
13874		9.458796	-0.519617	-2.551934	0.034019	0.034441	-0.049276	-0.880371	0.177734	-0.304932	0.601035	-0.116675	-0.789719	-0.038587
13875		9.436913	-0.421623	-2.410000	0.010441	0.008943	-0.040515	-0.881836	0.181885	-0.312500	0.601080	-0.116400	-0.789717	-0.038744
13876		9.436507	-0.388117	-2.517054	-0.044363	-0.022881	-0.014078	-0.877930	0.177246	-0.310791	0.600887	-0.116598	-0.789817	-0.039104
13877		9.428970	-0.675091	-2.595358	-0.044757	-0.025078	0.003270	-0.880127	0.175049	-0.317627	0.600685	-0.116898	-0.789913	-0.039368
13878		9.459699	-0.661974	-2.568047	-0.010812	-0.024278	-0.003073	-0.876709	0.177734	-0.303467	0.600535	-0.116969	-0.790014	-0.039427
13879		9.422173	-0.405730	-2.653528	-0.025930	-0.035118	0.005628	-0.881592	0.177979	-0.315918	0.600272	-0.117198	-0.790173	-0.039553
13880		9.440377	-0.428398	-2.679348	-0.074814	-0.053027	0.017267	-0.882324	0.180908	-0.307129	0.599874	-0.117743	-0.790376	-0.039912
13881		9.486917	-0.505191	-2.920401	-0.095697	-0.050572	0.034201	-0.875488	0.187744	-0.310059	0.599458	-0.118517	-0.790554	-0.040341
13882		9.406975	-0.778889	-2.985443	-0.076012	-0.027445	0.038771	-0.880127	0.176758	-0.307373	0.599230	-0.119243	-0.790602	-0.040655
13883		9.362771	-0.590966	-2.869948	-0.090181	-0.041006	0.042372	-0.884521	0.179932	-0.308350	0.598890	-0.120013	-0.790725	-0.040997
13884		9.449141	-0.693946	-2.887399	-0.067814	-0.019032	0.052452	-0.888428	0.181885	-0.304932	0.598722	-0.120736	-0.790734	-0.041167
13885		9.435359	-0.901994	-2.837684	-0.060243	-0.014987	0.050274	-0.885010	0.186768	-0.311279	0.598576	-0.121406	-0.790735	-0.041305
13886		9.364500	-0.672608	-2.814392	-0.041306	-0.005381	0.051591	-0.871338	0.180176	-0.299072	0.598532	-0.122002	-0.790675	-0.041326
13887		9.402210	-0.799401	-2.797459	-0.045028	-0.009169	0.046110	-0.878906	0.196533	-0.300537	0.598439	-0.122567	-0.790655	-0.041391
13888		9.452574	-0.765175	-2.633048	-0.022249	0.002391	0.043613	-0.876465	0.184570	-0.304443	0.598444	-0.123057	-0.790576	-0.041368
13889		9.413488	-0.742624	-2.584477	-0.031322	-0.004454	0.051961	-0.881348	0.190186	-0.308105	0.598407	-0.123594	-0.790523	-0.041317
13890		9.355240	-0.827798	-2.699623	-0.069690	-0.034158	0.054884	-0.887207	0.192871	-0.300293	0.598141	-0.124365	-0.790595	-0.041482
13891		9.398589	-1.203022	-2.932631	-0.038150	-0.028119	0.045636	-0.875488	0.187988	-0.303223	0.597923	-0.124921	-0.790671	-0.041500
13892		9.407860	-1.092829	-2.837712	0.045295	-0.009103	0.016861	-0.879150	0.191650	-0.303467	0.597923	-0.124847	-0.790702	-0.041114
13893		9.442754	-0.899623	-2.712593	0.065557	-0.000962	0.009253	-0.881348	0.196777	-0.301758	0.597994	-0.124632	-0.790707	-0.040649
13894		9.414542	-0.887271	-2.682409	0.035568	0.001848	0.019074	-0.880615	0.189209	-0.309814	0.598049	-0.124651	-0.790677	-0.040352
13895		9.309310	-1.165135	-2.763684	-0.006643	-0.010532	0.009588	-0.881104	0.193359	-0.305176	0.597994	-0.124785	-0.790699	-0.040337
13896		9.320984	-1.193979	-2.772840	0.012260	-0.000488	-0.018068	-0.877441	0.192139	-0.308350	0.598005	-0.124658	-0.790709	-0.040360
13897		9.386171	-0.932910	-2.712348	0.022332	0.005216	-0.038503	-0.881348	0.193115	-0.303955	0.598067	-0.124340	-0.790710	-0.040419
13898		9.432791	-0.935425	-2.824441	-0.004684	-0.003466	-0.035761	-0.885498	0.195312	-0.305664	0.598031	-0.124184	-0.790750	-0.040640
13899		9.427630	-1.096879	-2.887162	0.005664	0.009769	-0.037036	-0.880371	0.182861	-0.304932	0.598094	-0.123971	-0.790726	-0.040818
13900		9.394074	-1.003874	-2.879979	0.049287	0.020505	-0.058066	-0.886719	0.190186	-0.303467	0.598267	-0.123352	-0.790694	-0.040793
13901		9.384783	-0.762358	-2.764529	0.073011	0.031003	-0.067230	-0.876953	0.197510	-0.304199	0.598521	-0.122582	-0.790627	-0.040690
13902		9.496555	-0.392266	-2.643280	0.070906	0.017812	-0.064140	-0.885986	0.185059	-0.296631	0.598695	-0.121890	-0.790607	-0.040599
13903		9.429258	-0.359861	-2.758446	0.002770	0.014524	-0.023928	-0.888428	0.190674	-0.310303	0.598765	-0.121755	-0.790567	-0.040729
13904		9.386389	-0.559913	-2.828710	-0.021218	0.010440	-0.000477	-0.884277	0.178223	-0.306641	0.598822	-0.121912	-0.790492	-0.040898
13905		9.455104	-0.607078	-2.946083	-0.005734	0.018726	-0.005808	-0.884277	0.195801	-0.313477	0.598940	-0.121906	-0.790399	-0.040971
13906		9.458451	-0.561609	-2.892931	0.011010	0.030730	0.005646	-0.881836	0.190186	-0.308105	0.599174	-0.121957	-0.790216	-0.040930
13907		9.437168	-0.508479	-2.912563	0.006002	0.035079	0.027800	-0.875732	0.185547	-0.308594	0.599428	-0.122159	-0.789999	-0.040808
13908		9.405967	-0.616104	-2.850114	-0.022177	0.034836	0.043222	-0.876221	0.200195	-0.297363	0.599660	-0.122587	-0.789758	-0.040782
13909		9.435852	-0.951350	-2.854174	-0.004786	0.047727	0.043349	-0.883057	0.185059	-0.315186	0.599969	-0.122987	-0.789465	-0.040705
13910		9.404795	-1.059857	-2.789341	0.025398	0.050231	0.028199	-0.874023	0.187744	-0.315430	0.600352	-0.123055	-0.789177	-0.040443
13911		9.418853	-0.888436	-2.686887	0.026800	0.057500	0.016254	-0.880127	0.183838	-0.308838	0.600785	-0.123051	-0.788857	-0.040249
13912		9.410831	-0.723216	-2.667728	-0.003278	0.055369	0.016480	-0.878418	0.185791	-0.315430	0.601151	-0.123183	-0.788558	-0.040243
13913		9.432151	-0.761910	-2.605384	-0.028998	0.042544	0.019946	-0.883057	0.197754	-0.313477	0.601421	-0.123474	-0.788300	-0.040375
13914		9.408252	-0.923471	-2.590288	-0.012841	0.042973	0.025787	-0.872070	0.190674	-0.312012	0.601704	-0.123768	-0.788036	-0.040404
13915		9.441785	-1.087358	-2.510973	0.042858	0.030959	0.008439	-0.878662	0.196777	-0.319092	0.601963	-0.123651	-0.787871	-0.040126
13916		9.486789	-0.981452	-2.385737	0.084131	0.026058	-0.002780	-0.878906	0.187744	-0.308594	0.602238	-0.123270	-0.787745	-0.039636
13917		9.473901	-0.859056	-2.379283	0.078781	0.014110	-0.002094	-0.884277	0.191895	-0.314941	0.602404	-0.122895	-0.787702	-0.039153
13918		9.394050	-0.690888	-2.319047	0.031371	-0.004238	0.000912	-0.881592	0.193848	-0.315186	0.602410	-0.122795	-0.787722	-0.038953
13919		9.435347	-0.882443	-2.441627	0.002154	-0.016628	0.001576	-0.880615	0.189453	-0.317139	0.602308	-0.122860	-0.787791	-0.038935
13920		9.386104	-0.955020	-2.545610	0.008503	-0.021209	-0.002040	-0.881348	0.188232	-0.313965	0.602187	-0.122852	-0.787888	-0.038873
13921		9.406711	-0.994866	-2.556595	0.026057	-0.033918	-0.013891	-0.875732	0.191406	-0.312500	0.601989	-0.122679	-0.788072	-0.038743
13922		9.464828	-0.954564	-2.697169	0.036244	-0.039289	-0.016966	-0.878662	0.189453	-0.313232	0.601768	-0.122455	-0.788285	-0.038567
13923		9.413964	-0.960070	-2.724082	0.047583	-0.029374	-0.024655	-0.875000	0.197021	-0.311035	0.601621	-0.122111	-0.788460	-0.038359
13924		9.426507	-0.755057	-2.782046	0.037744	-0.022782	-0.030704	-0.880371	0.188477	-0.322021	0.601505	-0.121812	-0.788599	-0.038278
13925		9.371572	-0.707732	-2.841766	0.003556	-0.016590	-0.019605	-0.880859	0.191406	-0.313965	0.601418	-0.121712	-0.788678	-0.038337
13926		9.442079	-0.800955	-2.866113	-0.006012	-0.011357	-0.019668	-0.879395	0.186279	-0.314453	0.601339	-0.121675	-0.788737	-0.038481
13927		9.441815	-0.860665	-2.903890	-0.013599	0.007765	-0.016105	-0.869385	0.182861	-0.307617	0.601381	-0.121674	-0.788696	-0.038663
13928		9.413992	-0.946566	-2.752429	0.012151	0.006745	-0.022743	-0.878662	0.186523	-0.312744	0.601433	-0.121498	-0.788681	-0.038708
13929		9.490271	-0.651234	-2.663442	0.026812	0.013657	-0.031958	-0.875732	0.193359	-0.322998	0.601546	-0.121192	-0.788642	-0.038713
13930		9.428738	-0.532583	-2.723583	-0.012764	0.008533	-0.013473	-0.877197	0.183105	-0.314941	0.601615	-0.121235	-0.788574	-0.038891
13931		9.387865	-0.828527	-2.788208	-0.077009	-0.001192	0.005423	-0.881348	0.185059	-0.314697	0.601542	-0.121689	-0.788536	-0.039367
13932		9.444459	-1.014008	-2.814722	-0.029826	0.018421	-0.014427	-0.878174	0.191895	-0.322754	0.601636	-0.121772	-0.788437	-0.039656
13933		9.467065	-0.951167	-2.595026	0.054232	0.038470	-0.034714	-0.879883	0.182373	-0.318848	0.601960	-0.121320	-0.788266	-0.039525
13934		9.453315	-0.475990	-2.444547	0.071598	0.025001	-0.027507	-0.883545	0.187256	-0.318115	0.602203	-0.120797	-0.788176	-0.039210
13935		9.447276	-0.499072	-2.420553	0.011007	-0.005068	0.003670	-0.877197	0.188721	-0.314697	0.602192	-0.120814	-0.788186	-0.039123
13936		9.450640	-0.726088	-2.553365	-0.045781	-0.027170	0.018303	-0.884521	0.186768	-0.316895	0.601982	-0.121231	-0.788273	-0.039323
13937		9.437152	-0.746518	-2.639440	-0.012973	-0.016402	0.012376	-0.879150	0.185303	-0.306396	0.601873	-0.121425	-0.788326	-0.039337
13938		9.419218	-0.836040	-2.584428	0.005239	-0.010492	0.004625	-0.878662	0.188721	-0.317627	0.601801	-0.121477	-0.788375	-0.039285
13939		9.455914	-0.801370	-2.556868	0.018202	-0.024226	0.011832	-0.877197	0.185059	-0.310547	0.601680	-0.121523	-0.788470	-0.039093
13940		9.451532	-0.785065	-2.530748	0.027573	-0.025325	0.020978	-0.875000	0.187012	-0.319580	0.601550	-0.121571	-0.788577	-0.038790
13941		9.438735	-0.980411	-2.574016	0.043368	-0.029515	0.014196	-0.878906	0.190186	-0.310059	0.601428	-0.121501	-0.788700	-0.038409
13942		9.417552	-0.820164	-2.538768	0.041653	-0.040427	0.005342	-0.877441	0.187744	-0.312256	0.601207	-0.121400	-0.788899	-0.038089
13943		9.394941	-0.770712	-2.633320	-0.002596	-0.054402	0.012988	-0.873535	0.193359	-0.313232	0.600858	-0.121564	-0.789143	-0.037999
13944		9.387866	-0.940974	-2.724555	-0.039919	-0.059303	0.011656	-0.880371	0.187988	-0.302734	0.600447	-0.121932	-0.789392	-0.038170
13945		9.365789	-1.018768	-2.957156	-0.038149	-0.044749	0.002579	-0.869873	0.185791	-0.311279	0.600104	-0.122204	-0.789600	-0.038382
13946		9.428198	-0.965951	-3.026522	-0.014696	-0.022474	-0.011782	-0.878174	0.185059	-0.310059	0.599954	-0.122249	-0.789700	-0.038519
13947		9.478694	-0.909363	-2.938104	0.020308	-0.016829	-0.018222	-0.874756	0.178223	-0.310059	0.599867	-0.122066	-0.789798	-0.038460
13948		9.450200	-0.776537	-2.741739	0.037172	-0.008306	-0.014554	-0.880371	0.192627	-0.303711	0.599857	-0.121797	-0.789856	-0.038262
13949		9.390233	-0.707410	-2.708165	0.006884	-0.013474	-0.009058	-0.881592	0.193115	-0.308838	0.599767	-0.121776	-0.789927	-0.038278
13950		9.337022	-0.835207	-2.744575	-0.020359	-0.010852	-0.002073	-0.881348	0.189453	-0.318848	0.599680	-0.121935	-0.789961	-0.038437
13951		9.381574	-0.980644	-2.859811	-0.037131	-0.009626	-0.011645	-0.875977	0.187988	-0.314209	0.599602	-0.122093	-0.789982	-0.038733
13952		9.446353	-1.004265	-2.928779	-0.024365	0.014124	-0.023452	-0.871582	0.183594	-0.310547	0.599684	-0.122102	-0.789903	-0.039029
13953		9.418525	-0.824858	-2.886377	0.000436	0.027307	-0.032428	-0.879395	0.192627	-0.311768	0.599869	-0.121911	-0.789783	-0.039214
13954		9.439393	-0.727612	-2.711492	-0.000963	0.022245	-0.026066	-0.878662	0.187256	-0.313965	0.600019	-0.121803	-0.789677	-0.039394
13955		9.410983	-0.845761	-2.681511	-0.018878	0.005039	-0.017159	-0.877441	0.183838	-0.312256	0.600044	-0.121828	-0.789643	-0.039614
13956		9.439985	-0.936549	-2.693408	-0.004750	0.018611	-0.020740	-0.880371	0.186035	-0.311035	0.600168	-0.121742	-0.789554	-0.039766
13957		9.395744	-0.784276	-2.577454	0.001664	0.014951	-0.037967	-0.883057	0.186279	-0.314697	0.600264	-0.121521	-0.789505	-0.039965
13958		9.452373	-0.683945	-2.517664	0.006799	0.008988	-0.033779	-0.876953	0.175781	-0.313721	0.600333	-0.121303	-0.789480	-0.040101
13959		9.439210	-0.725089	-2.452941	0.008156	-0.012139	-0.022260	-0.879395	0.187012	-0.318604	0.600269	-0.121126	-0.789554	-0.040126
13960		9.425029	-0.803412	-2.554824	0.000203	-0.026164	-0.013231	-0.876709	0.191406	-0.314453	0.600117	-0.121094	-0.789672	-0.040168
13961		9.426831	-0.856767	-2.752600	0.014176	-0.028932	-0.018824	-0.876953	0.193115	-0.312500	0.599954	-0.120977	-0.789814	-0.040160
13962		9.370321	-0.745610	-2.756083	0.010535	-0.035019	-0.024080	-0.879150	0.181885	-0.306885	0.599742	-0.120855	-0.789992	-0.040203
13963		9.455889	-0.747020	-2.799144	0.023885	-0.026130	-0.028558	-0.870117	0.180908	-0.315186	0.599588	-0.120593	-0.790151	-0.040167
13964		9.489810	-0.624788	-2.705687	0.039658	-0.021907	-0.023573	-0.876953	0.192871	-0.311279	0.599503	-0.120283	-0.790271	-0.039996
13965		9.386985	-0.620469	-2.743677	0.038210	-0.026778	-0.006414	-0.885010	0.182129	-0.312744	0.599379	-0.120140	-0.790398	-0.039780
13966		9.345653	-0.843453	-2.827071	0.029060	-0.028524	0.002787	-0.881592	0.190430	-0.306152	0.599234	-0.120057	-0.790532	-0.039547
13967		9.389762	-0.915472	-2.959105	0.048634	-0.020256	-0.007060	-0.876465	0.183838	-0.302002	0.599150	-0.119847	-0.790642	-0.039271
13968		9.423285	-0.780989	-2.894962	0.067343	0.008691	-0.016711	-0.879395	0.184570	-0.310791	0.599267	-0.119451	-0.790629	-0.038938
13969		9.458242	-0.647462	-2.848973	0.053008	0.014566	-0.013216	-0.883545	0.181885	-0.307617	0.599425	-0.119147	-0.790568	-0.038681
13970		9.470509	-0.751999	-2.796138	0.049222	0.021960	-0.005835	-0.874756	0.182861	-0.303467	0.599619	-0.118898	-0.790471	-0.038416
13971		9.438149	-0.838709	-2.745095	0.061235	0.023548	-0.003732	-0.882568	0.184326	-0.310303	0.599834	-0.118615	-0.790367	-0.038074
13972		9.404268	-0.833025	-2.742335	0.060682	0.021920	-0.004452	-0.879639	0.176025	-0.314697	0.600044	-0.118329	-0.790267	-0.037733
13973		9.399807	-0.682075	-2.552629	0.074383	0.016685	-0.008849	-0.878906	0.189697	-0.311035	0.600241	-0.117916	-0.790200	-0.037294
13974		9.390183	-0.558351	-2.405706	0.033041	-0.013001	0.000015	-0.879150	0.178955	-0.316650	0.600197	-0.117834	-0.790255	-0.037095
13975		9.380048	-0.856510	-2.709523	-0.041461	-0.037635	0.018694	-0.881104	0.179443	-0.312012	0.599934	-0.118212	-0.790391	-0.037237
13976		9.371908	-1.197878	-2.897615	-0.039545	-0.029997	0.004856	-0.878906	0.182617	-0.308105	0.599710	-0.118487	-0.790510	-0.037446
13977		9.407326	-0.990054	-2.957366	-0.004811	-0.013396	-0.024316	-0.882812	0.181885	-0.307617	0.599615	-0.118405	-0.790587	-0.037599
13978		9.467014	-0.911497	-2.950534	0.010049	0.015717	-0.035847	-0.883789	0.180420	-0.314697	0.599720	-0.118159	-0.790538	-0.037737
13979		9.400306	-0.856995	-2.828439	0.004795	0.023542	-0.030785	-0.879150	0.185791	-0.314209	0.599885	-0.117963	-0.790435	-0.037883
13980		9.390194	-0.646777	-2.653743	-0.000720	0.020588	-0.030931	-0.875732	0.174805	-0.306885	0.600028	-0.117819	-0.790339	-0.038079
13981		9.402197	-0.731058	-2.654697	-0.035257	0.012158	-0.026485	-0.883545	0.178955	-0.317627	0.600068	-0.117846	-0.790286	-0.038454
13982		9.382130	-0.688569	-2.688184	-0.043718	0.008019	-0.020207	-0.888672	0.182617	-0.309814	0.600091	-0.117964	-0.790231	-0.038848
13983		9.420674	-0.647640	-2.678922	-0.056537	0.002898	-0.020586	-0.879395	0.178955	-0.314453	0.600049	-0.118159	-0.790210	-0.039340
13984		9.484109	-0.452017	-2.743730	-0.073366	-0.007757	-0.013199	-0.884277	0.183838	-0.315430	0.599938	-0.118481	-0.790219	-0.039882
13985		9.497143	-0.541906	-2.809976	-0.097554	0.008194	0.011341	-0.883301	0.176758	-0.314453	0.599915	-0.119093	-0.790114	-0.040488
13986		9.386334	-0.590863	-2.903165	-0.082840	0.005967	0.023297	-0.886963	0.187500	-0.303955	0.599894	-0.119683	-0.790018	-0.040916
13987		9.403663	-0.669425	-2.854872	-0.062983	0.013428	0.015370	-0.881348	0.180908	-0.307617	0.599917	-0.120159	-0.789909	-0.041296
13988		9.469566	-0.599743	-2.741870	-0.030505	0.011004	0.019201	-0.875732	0.184814	-0.302734	0.599968	-0.120473	-0.789816	-0.041419
13989		9.468102	-0.535782	-2.639988	-0.029569	0.025572	0.038945	-0.883057	0.180664	-0.315674	0.600116	-0.120926	-0.789631	-0.041468
13990		9.396044	-0.569961	-2.669160	-0.066118	0.010553	0.054407	-0.883057	0.186279	-0.306641	0.600154	-0.121639	-0.789484	-0.041638
13991		9.461676	-0.696101	-2.690451	-0.082917	-0.002932	0.060714	-0.889648	0.187500	-0.303955	0.600070	-0.122504	-0.789401	-0.041894
13992		9.463014	-0.818543	-2.901784	-0.073703	0.004856	0.058189	-0.886475	0.185059	-0.309814	0.600035	-0.123299	-0.789292	-0.042111
13993		9.419760	-1.025591	-2.951380	-0.060688	0.025639	0.053961	-0.883789	0.188965	-0.307861	0.600163	-0.123979	-0.789080	-0.042270
13994		9.371374	-0.940008	-2.767117	-0.033920	0.043339	0.039647	-0.882812	0.188232	-0.312256	0.600427	-0.124437	-0.788802	-0.042351
13995		9.419070	-1.042533	-2.784125	-0.013461	0.044629	0.021938	-0.879883	0.192139	-0.314209	0.600722	-0.124668	-0.788539	-0.042379
13996		9.399170	-1.097269	-2.702081	0.017640	0.042949	0.013964	-0.877441	0.191406	-0.309082	0.601041	-0.124705	-0.788298	-0.042248
13997		9.381269	-1.091257	-2.622209	0.045123	0.057159	-0.000446	-0.877686	0.191895	-0.320068	0.601466	-0.124506	-0.788017	-0.042028
13998		9.384699	-0.932731	-2.393692	0.049266	0.060384	-0.013348	-0.875488	0.192871	-0.318604	0.601931	-0.124196	-0.787721	-0.041837
13999		9.462676	-0.734833	-2.270811	0.052128	0.032036	-0.018306	-0.879639	0.183105	-0.317139	0.602207	-0.123856	-0.787574	-0.041629
14000		9.491212	-0.624216	-2.201094	0.019466	0.001338	-0.002806	-0.886230	0.192871	-0.313721	0.602246	-0.123758	-0.787567	-0.041506
14001		9.390523	-0.749524	-2.354088	-0.023516	-0.019504	0.015346	-0.880615	0.191650	-0.307373	0.602099	-0.124035	-0.787631	-0.041580
14002		9.399002	-0.984822	-2.634483	-0.029663	-0.039432	0.004168	-0.872803	0.192627	-0.322021	0.601803	-0.124279	-0.787811	-0.041734
14003		9.436295	-1.012951	-2.689000	0.022596	-0.034471	-0.013838	-0.878174	0.198242	-0.311768	0.601623	-0.124138	-0.787976	-0.041625
14004		9.458948	-0.740943	-2.555185	0.059073	-0.041804	-0.013110	-0.885742	0.181641	-0.310547	0.601411	-0.123845	-0.788202	-0.041290
14005		9.433871	-0.593656	-2.655621	0.025635	-0.052474	-0.003970	-0.878418	0.182861	-0.313721	0.601088	-0.123721	-0.788479	-0.041078
14006		9.381866	-0.791908	-2.818875	-0.021408	-0.053050	0.013675	-0.875244	0.194824	-0.312744	0.600733	-0.123956	-0.788712	-0.041086
14007		9.425522	-0.926799	-3.013358	-0.014355	-0.038616	0.004630	-0.875000	0.187744	-0.310791	0.600479	-0.124135	-0.788874	-0.041137
14008		9.407969	-0.938893	-2.996917	0.000530	-0.018743	-0.004955	-0.885010	0.186279	-0.325684	0.600365	-0.124145	-0.788959	-0.041142
14009		9.419982	-0.967079	-3.005732	0.025023	0.006857	-0.017812	-0.878174	0.193848	-0.316406	0.600463	-0.123918	-0.788925	-0.041053
14010		9.410377	-0.826082	-2.887771	0.030194	0.023350	-0.018953	-0.888916	0.184570	-0.309570	0.600661	-0.123690	-0.788814	-0.040984
14011		9.416323	-0.797177	-2.842914	0.026321	0.035157	-0.017381	-0.875244	0.187988	-0.315430	0.600910	-0.123454	-0.788664	-0.040931
14012		9.366938	-0.785423	-2.870393	0.005543	0.039584	-0.016897	-0.879883	0.190918	-0.310059	0.601188	-0.123342	-0.788465	-0.041020
14013		9.421348	-0.857036	-2.887563	0.004010	0.052724	-0.018609	-0.880859	0.180908	-0.317383	0.601534	-0.123234	-0.788211	-0.041157
14014		9.453816	-0.760600	-2.800497	0.023611	0.061000	-0.028390	-0.874512	0.188232	-0.307373	0.601962	-0.122921	-0.787931	-0.041189
14015		9.458475	-0.557697	-2.771960	0.025255	0.071426	-0.015407	-0.877930	0.190186	-0.314697	0.602449	-0.122720	-0.787590	-0.041191
14016		9.414510	-0.583381	-2.792412	-0.006620	0.064133	0.008228	-0.873291	0.187012	-0.318604	0.602872	-0.122838	-0.787244	-0.041272
14017		9.448516	-0.711995	-2.751780	0.008948	0.064699	0.011833	-0.879639	0.192627	-0.311768	0.603325	-0.122889	-0.786892	-0.041223
14018		9.466870	-0.807216	-2.619996	0.016391	0.068944	0.020478	-0.878418	0.187988	-0.314453	0.603796	-0.122979	-0.786522	-0.041109
14019		9.473503	-0.860960	-2.553835	0.017426	0.063446	0.019676	-0.875244	0.187744	-0.318359	0.604235	-0.123043	-0.786182	-0.040972
14020		9.433449	-0.893199	-2.449739	0.036598	0.063992	0.016570	-0.875244	0.190918	-0.324219	0.604704	-0.122986	-0.785843	-0.040721
14021		9.419739	-0.798775	-2.311896	0.053996	0.057049	0.006977	-0.878418	0.187012	-0.321045	0.605150	-0.122789	-0.785547	-0.040399
14022		9.446199	-0.735665	-2.266760	0.007267	0.027508	0.015428	-0.874023	0.191162	-0.322998	0.605348	-0.122881	-0.785385	-0.040305
14023		9.451922	-0.978831	-2.340717	-0.005717	0.006135	0.018309	-0.881836	0.187988	-0.325684	0.605399	-0.123079	-0.785317	-0.040268
14024		9.452297	-1.092729	-2.468213	0.003695	-0.008279	0.006226	-0.881592	0.186035	-0.322021	0.605361	-0.123136	-0.785340	-0.040202
14025		9.470556	-1.006399	-2.545983	0.048377	0.005246	-0.014194	-0.883301	0.188232	-0.319336	0.605443	-0.122825	-0.785338	-0.039960
14026		9.476095	-0.825003	-2.556335	0.070485	0.010313	-0.026705	-0.878906	0.188232	-0.318115	0.605571	-0.122329	-0.785333	-0.039651
14027		9.442932	-0.629856	-2.486467	0.053334	0.006573	-0.014715	-0.877930	0.190430	-0.336426	0.605660	-0.122005	-0.785327	-0.039395
14028		9.453994	-0.783365	-2.526101	0.041955	-0.003262	-0.001654	-0.877686	0.194092	-0.319824	0.605713	-0.121824	-0.785328	-0.039119
14029		9.448060	-0.963769	-2.492960	0.036272	-0.009880	-0.003293	-0.880127	0.191162	-0.326904	0.605684	-0.121690	-0.785381	-0.038916
14030		9.426378	-0.862438	-2.471288	0.046716	-0.011655	-0.010253	-0.879883	0.185303	-0.321533	0.605664	-0.121441	-0.785448	-0.038660
14031		9.437488	-0.673282	-2.477925	0.016075	-0.039083	-0.016770	-0.882080	0.189453	-0.319824	0.605421	-0.121297	-0.785660	-0.038603
14032		9.478706	-0.741458	-2.736116	-0.011807	-0.028670	-0.001752	-0.882080	0.194092	-0.324951	0.605220	-0.121405	-0.785795	-0.038676
14033		9.444464	-0.764630	-2.700163	-0.043201	-0.043726	-0.000456	-0.876953	0.188721	-0.318848	0.604899	-0.121696	-0.785984	-0.038938
14034		9.487399	-1.047274	-2.776804	-0.024611	-0.024988	0.000068	-0.882324	0.185547	-0.324219	0.604714	-0.121878	-0.786091	-0.039087
14035		9.456791	-1.089108	-2.746022	0.047300	-0.006888	-0.023392	-0.874512	0.187500	-0.319092	0.604719	-0.121518	-0.786153	-0.038884
14036		9.444177	-0.790530	-2.643199	0.060660	0.003569	-0.034701	-0.882324	0.186035	-0.318359	0.604798	-0.121030	-0.786177	-0.038674
14037		9.423849	-0.513474	-2.498264	0.025473	-0.008977	-0.016078	-0.885742	0.186768	-0.328613	0.604759	-0.120840	-0.786242	-0.038588
14038		9.417694	-0.627751	-2.430113	-0.038448	-0.024613	0.000422	-0.882080	0.191406	-0.319336	0.604574	-0.121080	-0.786335	-0.038810
14039		9.454984	-0.863719	-2.748658	-0.075696	-0.032894	0.007359	-0.879150	0.181885	-0.322754	0.604287	-0.121579	-0.786457	-0.039257
14040		9.488161	-1.022029	-2.699180	-0.026871	-0.024873	-0.008940	-0.880615	0.183838	-0.321289	0.604105	-0.121686	-0.786571	-0.039442
14041		9.527594	-0.771370	-2.749605	0.024871	-0.008338	-0.017078	-0.886719	0.188965	-0.320557	0.604078	-0.121480	-0.786628	-0.039352
14042		9.400989	-0.581764	-2.696253	0.004141	0.000531	-0.003186	-0.868896	0.191162	-0.320312	0.604088	-0.121483	-0.786620	-0.039352
14043		9.435911	-0.546914	-2.853524	-0.040355	-0.001734	0.004484	-0.871338	0.189209	-0.318359	0.604053	-0.121779	-0.786588	-0.039610
14044		9.413795	-0.786039	-2.868426	-0.070900	0.006612	0.027860	-0.875000	0.189453	-0.314697	0.604044	-0.122370	-0.786486	-0.039957
14045		9.502871	-1.116739	-2.807740	-0.023788	0.031319	0.017552	-0.872559	0.192627	-0.324463	0.604231	-0.122648	-0.786293	-0.040074
14046		9.492581	-1.005789	-2.581319	0.040888	0.046118	-0.008818	-0.874512	0.187744	-0.326660	0.604592	-0.122425	-0.786058	-0.039910
14047		9.454169	-0.647651	-2.393715	0.071448	0.036871	-0.004581	-0.877441	0.192383	-0.322021	0.604925	-0.122060	-0.785879	-0.039499
14048		9.439963	-0.741948	-2.372158	0.027123	0.021393	0.020584	-0.875732	0.191895	-0.331299	0.605108	-0.122109	-0.785743	-0.039257
14049		9.425869	-0.929342	-2.304602	-0.000815	0.010331	0.018807	-0.875000	0.187988	-0.315674	0.605207	-0.122283	-0.785643	-0.039182
14050		9.403753	-0.891026	-2.297689	-0.002294	-0.004658	0.006304	-0.879883	0.187256	-0.328125	0.605174	-0.122384	-0.785654	-0.039176
14051		9.436269	-1.084127	-2.346325	-0.005895	-0.018484	-0.004073	-0.878418	0.190186	-0.318848	0.605062	-0.122425	-0.785732	-0.039210
14052		9.453501	-1.073535	-2.412406	0.014910	-0.030702	-0.014913	-0.872803	0.185303	-0.329590	0.604873	-0.122311	-0.785897	-0.039170
14053		9.452679	-0.869071	-2.380736	0.027119	-0.042049	-0.024080	-0.881348	0.184082	-0.323486	0.604643	-0.122058	-0.786119	-0.039058
14054		9.408234	-0.914121	-2.469406	0.024241	-0.055451	-0.022302	-0.876953	0.189209	-0.316650	0.604306	-0.121833	-0.786418	-0.038946
14055		9.464967	-1.039725	-2.508263	0.037328	-0.068257	-0.028601	-0.878906	0.192627	-0.319580	0.603889	-0.121530	-0.786793	-0.038791
14056		9.427346	-0.838693	-2.408991	0.059772	-0.058087	-0.038046	-0.873535	0.187744	-0.321289	0.603565	-0.121059	-0.787126	-0.038552
14057		9.422156	-0.739234	-2.426845	0.041923	-0.083627	-0.035517	-0.879395	0.196045	-0.319092	0.603063	-0.120690	-0.787576	-0.038377
14058		9.461675	-0.772623	-2.591917	0.016246	-0.093748	-0.030950	-0.883057	0.184326	-0.319336	0.602466	-0.120512	-0.788061	-0.038363
14059		9.408128	-0.750596	-2.755994	0.004969	-0.103679	-0.023178	-0.882568	0.185547	-0.309082	0.601793	-0.120403	-0.788592	-0.038341
14060		9.381794	-0.807556	-2.964926	-0.015151	-0.091745	-0.020807	-0.878418	0.186768	-0.313721	0.601164	-0.120419	-0.789063	-0.038468
14061		9.427798	-0.922190	-3.029898	0.000359	-0.077577	-0.030311	-0.873535	0.192871	-0.312744	0.600655	-0.120293	-0.789466	-0.038551
14062		9.483982	-0.843706	-3.033155	0.041383	-0.050287	-0.038007	-0.879639	0.183105	-0.307373	0.600368	-0.119926	-0.789745	-0.038447
14063		9.403440	-0.626849	-2.975143	0.031757	-0.034567	-0.031968	-0.876465	0.187012	-0.305420	0.600163	-0.119612	-0.789952	-0.038373
14064		9.445692	-0.614715	-3.083227	0.001777	-0.027944	-0.018708	-0.887939	0.185791	-0.310303	0.599976	-0.119551	-0.790100	-0.038451
14065		9.412407	-0.635121	-3.023081	-0.014970	-0.010152	-0.010206	-0.880859	0.182617	-0.311279	0.599894	-0.119611	-0.790146	-0.038604
14066		9.404333	-0.840083	-3.028151	-0.010287	0.010163	-0.006909	-0.878662	0.174805	-0.311279	0.599958	-0.119655	-0.790084	-0.038720
14067		9.418144	-0.818082	-2.943803	-0.010351	0.022263	-0.007711	-0.874268	0.186035	-0.308350	0.600102	-0.119665	-0.789968	-0.038833
14068		9.445578	-0.625830	-2.870433	-0.005923	0.032277	-0.013692	-0.885254	0.186768	-0.310303	0.600312	-0.119652	-0.789803	-0.038991
14069		9.434645	-0.467458	-2.783905	-0.046538	0.039689	0.000825	-0.875732	0.178955	-0.310791	0.600530	-0.119932	-0.789576	-0.039350
14070		9.406763	-0.698258	-2.834676	-0.069702	0.033192	0.021294	-0.879883	0.195312	-0.311768	0.600695	-0.120442	-0.789355	-0.039733
