// Start Time: Unknown
// Update Rate: 60.0Hz
// Filter Profile: human (46.1)
// Firmware Version: 4.6.0
PacketCounter	SampleTimeFine	Acc_X	Acc_Y	Acc_Z	Gyr_X	Gyr_Y	Gyr_Z	Mag_X	Mag_Y	Mag_Z	Quat_q0	Quat_q1	Quat_q2	Quat_q3
13168		9.381425	1.544392	-1.657142	0.008513	-0.047829	-0.051125	-0.831543	-0.298340	0.717285	-0.147134	-0.763518	0.051908	-0.626656
13169		9.366988	1.686721	-1.721738	0.027100	-0.048790	-0.043998	-0.822754	-0.295166	0.718262	-0.147170	-0.763825	0.051546	-0.626303
13170		9.369107	1.766329	-1.726464	0.002882	-0.042971	-0.026888	-0.826416	-0.300781	0.718018	-0.147271	-0.764069	0.051412	-0.625993
13171		9.379913	1.735954	-1.690640	-0.048804	-0.033686	-0.011209	-0.830322	-0.301270	0.710938	-0.147628	-0.764190	0.051635	-0.625742
13172		9.387225	1.520059	-1.651636	-0.064836	-0.017036	0.003175	-0.834961	-0.304932	0.710449	-0.148023	-0.764199	0.052009	-0.625608
13173		9.393890	1.334519	-1.703567	-0.021794	-0.002287	0.012167	-0.824951	-0.300293	0.714111	-0.148102	-0.764179	0.052199	-0.625597
13174		9.406361	1.368654	-1.780566	0.033807	0.009868	0.021820	-0.824951	-0.304443	0.709473	-0.147774	-0.764161	0.052152	-0.625701
13175		9.454338	1.353588	-1.789771	0.061206	0.020160	0.048294	-0.833496	-0.296387	0.717529	-0.147129	-0.764114	0.052125	-0.625912
13176		9.569619	1.370854	-1.838983	0.050785	0.022713	0.087158	-0.824463	-0.298828	0.720459	-0.146339	-0.764028	0.052404	-0.626179
13177		9.693609	1.162640	-1.844432	0.036614	0.041292	0.140427	-0.826172	-0.301758	0.714600	-0.145357	-0.763809	0.053083	-0.626618
13178		9.688581	1.055636	-1.962329	0.056820	0.048941	0.197130	-0.826660	-0.297363	0.718994	-0.143930	-0.763552	0.054028	-0.627179
13179		9.830357	0.890069	-2.025137	0.077299	0.054522	0.276465	-0.840820	-0.291504	0.716553	-0.141928	-0.763263	0.055390	-0.627868
13180		10.033527	0.806321	-1.955922	0.081320	0.063341	0.365874	-0.841797	-0.283691	0.723389	-0.139391	-0.762899	0.057324	-0.628704
13181		10.164759	0.569439	-1.883019	0.088045	0.068089	0.458950	-0.840576	-0.273193	0.719971	-0.136276	-0.762472	0.059847	-0.629669
13182		10.205733	0.167228	-1.692509	0.114436	0.072041	0.569613	-0.843750	-0.269775	0.710938	-0.132362	-0.761982	0.062979	-0.630791
13183		10.169000	-0.272642	-1.490236	0.175651	0.069948	0.697085	-0.841309	-0.256104	0.718262	-0.127313	-0.761458	0.066678	-0.632081
13184		10.182955	-0.851839	-1.436285	0.290506	0.069963	0.846855	-0.847412	-0.243164	0.716064	-0.120650	-0.760911	0.070780	-0.633599
13185		10.174428	-1.062452	-1.367323	0.452417	0.089058	1.002121	-0.860840	-0.225586	0.712891	-0.112002	-0.760234	0.075121	-0.635497
13186		10.223899	-0.998428	-1.420028	0.586260	0.117927	1.183835	-0.867432	-0.195557	0.716553	-0.101336	-0.759273	0.080061	-0.637829
13187		10.238101	-0.791342	-1.418861	0.609278	0.154261	1.388329	-0.869629	-0.174072	0.717773	-0.089285	-0.757862	0.086204	-0.640501
13188		10.366713	-0.752123	-1.451401	0.525466	0.198363	1.600676	-0.865967	-0.145264	0.712646	-0.076644	-0.755783	0.094080	-0.643481
13189		10.472170	-1.002235	-1.470989	0.419472	0.261607	1.783428	-0.881348	-0.121094	0.710449	-0.064140	-0.752977	0.103513	-0.646682
13190		10.522387	-1.414859	-1.413035	0.340200	0.325735	1.929734	-0.887939	-0.087891	0.712402	-0.051014	-0.749319	0.114424	-0.650250
13191		10.535954	-1.831237	-1.413070	0.331415	0.375284	2.046152	-0.889160	-0.062012	0.706543	-0.037197	-0.745024	0.125925	-0.653987
13192		10.619221	-2.028644	-1.411973	0.346984	0.421829	2.140028	-0.897949	-0.017578	0.696533	-0.023155	-0.740082	0.137805	-0.657839
13193		10.680805	-2.319130	-1.361455	0.391063	0.479633	2.221692	-0.904297	0.014404	0.689941	-0.008390	-0.734527	0.150008	-0.661738
13194		10.729496	-2.587632	-1.311115	0.440719	0.517443	2.272166	-0.907471	0.057617	0.685059	0.006879	-0.728311	0.162206	-0.665737
13195		10.567437	-2.645705	-1.279854	0.458395	0.535397	2.319492	-0.919189	0.089355	0.681641	0.022545	-0.721704	0.174332	-0.669509
13196		10.360539	-2.699475	-1.205825	0.433187	0.532656	2.367150	-0.909180	0.125732	0.672363	0.038813	-0.714457	0.186849	-0.673151
13197		10.197756	-3.032382	-1.167862	0.376090	0.533710	2.407727	-0.911621	0.161621	0.660400	0.053948	-0.707146	0.199501	-0.676191
13198		10.025396	-3.413115	-1.148213	0.354434	0.534172	2.426057	-0.902344	0.207031	0.657715	0.068884	-0.699442	0.212484	-0.678886
13199		9.721002	-3.631530	-1.028415	0.350052	0.520994	2.425701	-0.889404	0.240479	0.642090	0.083767	-0.691816	0.225007	-0.680989
13200		9.581363	-3.880908	-1.022139	0.356199	0.499215	2.432726	-0.886963	0.279053	0.629150	0.098249	-0.684107	0.237571	-0.682572
13201		9.330671	-4.230800	-0.806323	0.367581	0.476499	2.424586	-0.880127	0.323486	0.615967	0.113186	-0.676112	0.249987	-0.683789
13202		9.095717	-4.534100	-0.779569	0.398011	0.458556	2.407667	-0.877441	0.349609	0.611328	0.128342	-0.667942	0.261959	-0.684660
13203		8.959769	-4.769369	-0.755906	0.454126	0.455740	2.383358	-0.858887	0.390869	0.601074	0.143582	-0.659518	0.273279	-0.685375
13204		8.834794	-4.891022	-0.795633	0.479021	0.465672	2.353239	-0.852783	0.428467	0.586670	0.158642	-0.650859	0.284140	-0.685915
13205		8.680843	-5.129998	-0.664719	0.490867	0.492638	2.306846	-0.834717	0.466553	0.574219	0.173293	-0.641926	0.294543	-0.686400
13206		8.520013	-5.432667	-0.566809	0.509264	0.504119	2.250862	-0.817627	0.497070	0.571289	0.187538	-0.632842	0.304389	-0.686795
13207		8.335067	-5.552796	-0.330387	0.508685	0.501202	2.194336	-0.806641	0.529785	0.559082	0.201312	-0.623738	0.313772	-0.687002
13208		7.996804	-5.689456	-0.232531	0.472365	0.476886	2.135586	-0.779785	0.558350	0.540283	0.214476	-0.614814	0.322848	-0.686857
13209		7.835416	-6.119723	-0.077940	0.435730	0.459166	2.099085	-0.765869	0.577393	0.528320	0.227151	-0.605994	0.331760	-0.686374
13210		7.720072	-6.455172	-0.075199	0.423301	0.436395	2.027525	-0.738037	0.607910	0.521484	0.239287	-0.597374	0.340194	-0.685678
13211		7.500971	-6.637342	-0.003891	0.424543	0.420378	1.947736	-0.725342	0.632080	0.514893	0.250898	-0.588936	0.348062	-0.684877
13212		7.336019	-7.027684	0.096731	0.398797	0.408872	1.860776	-0.704346	0.659668	0.496826	0.261805	-0.580753	0.355506	-0.683959
13213		7.019075	-7.253084	0.253917	0.372961	0.405872	1.768358	-0.683350	0.674561	0.496094	0.271969	-0.572811	0.362536	-0.682999
13214		6.731485	-7.346101	0.314588	0.341429	0.384000	1.696190	-0.669922	0.697998	0.477539	0.281550	-0.565183	0.369258	-0.681870
13215		6.622485	-7.942077	0.321806	0.312844	0.374297	1.610570	-0.657471	0.712891	0.478760	0.290463	-0.557851	0.375632	-0.680687
13216		6.170895	-8.146231	0.495029	0.329498	0.351232	1.513508	-0.630859	0.731445	0.468018	0.298908	-0.550835	0.381338	-0.679571
13217		5.822154	-8.058577	0.511547	0.344780	0.324805	1.441556	-0.621094	0.748047	0.452881	0.307052	-0.544079	0.386509	-0.678460
13218		5.516110	-8.124980	0.573128	0.316411	0.299380	1.408347	-0.598633	0.763672	0.447021	0.314916	-0.537572	0.391578	-0.677135
13219		5.026867	-8.304719	0.842624	0.268029	0.291915	1.400075	-0.586426	0.778320	0.437012	0.322081	-0.531066	0.396920	-0.675787
13220		4.743222	-8.216865	0.874224	0.280432	0.290505	1.413693	-0.564941	0.782471	0.416260	0.329364	-0.524392	0.402212	-0.674357
13221		4.562112	-8.589544	1.088083	0.291827	0.308127	1.411726	-0.552979	0.799805	0.422852	0.336620	-0.517504	0.407434	-0.672959
13222		4.298693	-8.636234	1.188313	0.399021	0.334837	1.382237	-0.526123	0.811279	0.415771	0.344078	-0.510167	0.411961	-0.672033
13223		4.103184	-8.435574	1.239861	0.502031	0.343383	1.333511	-0.511230	0.822021	0.394531	0.351734	-0.502582	0.415664	-0.671504
13224		4.101908	-8.304680	1.185572	0.537202	0.351048	1.251833	-0.501709	0.835205	0.389893	0.359024	-0.495045	0.418802	-0.671295
13225		3.711635	-8.066237	1.190936	0.522960	0.321704	1.159978	-0.485596	0.837646	0.375244	0.365803	-0.487961	0.421509	-0.671128
13226		3.274387	-7.560008	1.180275	0.445748	0.279085	1.097226	-0.464111	0.850830	0.369873	0.372047	-0.481509	0.424224	-0.670644
13227		3.057420	-7.517020	1.184498	0.353573	0.258198	1.075653	-0.453125	0.869873	0.358887	0.377927	-0.475503	0.427255	-0.669717
13228		2.823694	-7.933405	1.595930	0.334055	0.276183	1.066369	-0.428223	0.878418	0.353760	0.383609	-0.469443	0.430381	-0.668760
13229		2.793864	-8.029177	1.629159	0.425992	0.292936	1.021027	-0.422119	0.872314	0.349609	0.389401	-0.463122	0.432822	-0.668244
13230		2.703046	-8.162369	1.725373	0.474909	0.285444	0.921420	-0.407715	0.893799	0.333984	0.394789	-0.456965	0.434568	-0.668188
13231		2.490512	-7.740404	1.555455	0.440182	0.261064	0.796705	-0.397705	0.898438	0.328369	0.399469	-0.451479	0.435914	-0.668259
13232		2.291964	-7.933562	1.724286	0.337005	0.214292	0.639149	-0.385742	0.894043	0.321777	0.403052	-0.447138	0.437070	-0.668271
13233		2.124330	-7.879583	1.861183	0.313087	0.162125	0.486633	-0.387939	0.897461	0.316406	0.405902	-0.443696	0.437608	-0.668488
13234		2.064928	-7.767728	1.839054	0.286029	0.122287	0.379951	-0.375244	0.903320	0.299805	0.408174	-0.440914	0.437777	-0.668835
13235		2.020476	-7.917967	1.957261	0.258662	0.104371	0.302683	-0.374268	0.908936	0.305908	0.410030	-0.438601	0.437740	-0.669244
13236		1.797746	-7.613021	2.037604	0.245921	0.096216	0.247579	-0.368652	0.898193	0.303467	0.411575	-0.436558	0.437546	-0.669758
13237		1.945270	-7.736793	2.066321	0.194195	0.070037	0.195949	-0.367676	0.916504	0.299072	0.412754	-0.435003	0.437367	-0.670162
13238		2.120935	-8.126664	2.063929	0.109611	0.023994	0.058413	-0.364746	0.908691	0.298340	0.413056	-0.434488	0.436997	-0.670551
13239		2.155952	-8.227872	2.064776	-0.050229	-0.059491	-0.148596	-0.370605	0.912109	0.297363	0.411939	-0.435734	0.436485	-0.670763
13240		2.304549	-8.518440	2.114259	-0.162089	-0.140865	-0.397678	-0.366455	0.903076	0.299072	0.409313	-0.438706	0.435417	-0.671128
13241		2.150600	-8.315737	2.307996	-0.149905	-0.177486	-0.608971	-0.384033	0.900879	0.306885	0.405719	-0.442606	0.433362	-0.672078
13242		2.321693	-7.854397	2.178192	-0.077539	-0.187575	-0.685271	-0.389893	0.895508	0.306396	0.401965	-0.446548	0.430584	-0.673510
13243		2.481161	-7.875489	2.244257	-0.048588	-0.178816	-0.700690	-0.401855	0.898438	0.313721	0.398210	-0.450379	0.427592	-0.675094
13244		2.770323	-7.830692	1.977993	-0.126367	-0.200516	-0.735928	-0.415771	0.893555	0.310303	0.394042	-0.454690	0.424809	-0.676406
13245		2.906089	-7.824526	2.115295	-0.295350	-0.242655	-0.825824	-0.417725	0.879395	0.321777	0.388839	-0.460077	0.422482	-0.677232
13246		3.569142	-8.048479	2.006495	-0.426288	-0.286765	-1.003306	-0.436768	0.876709	0.327881	0.382299	-0.466737	0.420020	-0.677929
13247		3.847240	-9.128770	2.111547	-0.492355	-0.323423	-1.299560	-0.455811	0.867920	0.336426	0.373895	-0.474793	0.416608	-0.679126
13248		3.260747	-8.130163	2.170192	-0.354459	-0.360834	-1.550113	-0.485596	0.860352	0.348877	0.364687	-0.483420	0.411233	-0.681319
13249		3.223946	-6.248037	1.795464	-0.243801	-0.357948	-1.540220	-0.500244	0.840820	0.362061	0.355885	-0.491548	0.405213	-0.683760
13250		4.068267	-7.099783	1.496770	-0.301094	-0.301275	-1.419319	-0.512695	0.834473	0.358154	0.347308	-0.499034	0.400098	-0.685757
13251		4.859881	-7.729087	1.289838	-0.374237	-0.340703	-1.437129	-0.534912	0.812988	0.373291	0.338433	-0.506955	0.395125	-0.687267
13252		5.243251	-6.763981	0.828907	-0.700634	-0.468766	-1.599177	-0.552002	0.805908	0.392334	0.327571	-0.516960	0.390903	-0.687491
13253		5.048849	-6.592241	0.966599	-1.189255	-0.557182	-1.761489	-0.579102	0.788818	0.414795	0.313896	-0.529221	0.388395	-0.685962
13254		5.148062	-7.107578	1.214476	-1.341775	-0.559675	-1.883551	-0.595703	0.771729	0.432373	0.298722	-0.542095	0.386064	-0.683998
13255		5.449265	-8.148668	0.928563	-1.109339	-0.519122	-2.017057	-0.622314	0.737305	0.451904	0.283630	-0.554387	0.381723	-0.683006
13256		5.455906	-8.613233	0.922188	-0.621192	-0.478161	-2.134441	-0.640381	0.711182	0.462646	0.269853	-0.565432	0.374034	-0.683787
13257		5.779748	-7.546389	0.333938	-0.196190	-0.502518	-2.215928	-0.673096	0.682617	0.473877	0.257621	-0.575701	0.363349	-0.685695
13258		6.330434	-5.891213	0.057665	-0.267224	-0.524042	-2.214578	-0.695312	0.660156	0.497070	0.244980	-0.586006	0.352928	-0.687039
13259		6.796334	-5.132167	-0.215206	-0.664422	-0.540762	-2.182798	-0.713623	0.636719	0.507080	0.230646	-0.596957	0.344692	-0.686755
13260		7.227282	-5.814995	-0.352790	-1.093735	-0.518744	-2.222281	-0.741455	0.604248	0.520752	0.213777	-0.608479	0.338593	-0.685133
13261		7.686513	-6.813223	-0.201210	-1.174897	-0.462053	-2.332732	-0.762207	0.571045	0.552734	0.195591	-0.619850	0.332324	-0.683440
13262		7.535602	-7.158759	-0.257568	-0.912103	-0.451107	-2.432351	-0.783936	0.533447	0.549561	0.178063	-0.630695	0.323901	-0.682352
13263		7.943179	-7.245849	-0.482490	-0.542061	-0.465665	-2.481259	-0.795898	0.506836	0.575195	0.162165	-0.640885	0.312940	-0.681936
13264		8.371214	-6.940604	-0.548995	-0.239138	-0.454872	-2.534794	-0.820801	0.456299	0.576660	0.147480	-0.650432	0.299866	-0.682105
13265		8.733386	-5.917956	-0.418800	-0.133866	-0.452173	-2.549704	-0.833252	0.435791	0.590088	0.133204	-0.659558	0.285970	-0.682247
13266		9.175622	-5.066697	-0.739815	-0.207447	-0.445721	-2.530336	-0.849121	0.398438	0.598389	0.118567	-0.668357	0.272485	-0.681904
13267		9.433647	-5.016386	-0.676792	-0.410178	-0.430899	-2.484397	-0.866699	0.354492	0.599854	0.102969	-0.676858	0.260284	-0.680818
13268		9.614619	-4.968634	-0.596744	-0.581653	-0.419744	-2.409022	-0.872559	0.328369	0.617920	0.086759	-0.684965	0.249368	-0.679052
13269		10.006991	-5.155921	-0.838011	-0.650029	-0.402836	-2.339368	-0.884521	0.288086	0.625977	0.070486	-0.692572	0.239145	-0.676894
13270		10.149944	-5.550198	-0.895558	-0.588942	-0.377620	-2.296606	-0.880859	0.244385	0.635742	0.054732	-0.699616	0.228746	-0.674698
13271		10.243748	-5.264473	-0.597799	-0.458831	-0.376837	-2.240014	-0.894287	0.209717	0.638184	0.040043	-0.706201	0.217874	-0.672464
13272		10.440131	-4.896674	-0.578902	-0.354365	-0.385156	-2.150245	-0.892822	0.179688	0.654541	0.026485	-0.712362	0.206882	-0.670104
13273		10.433146	-4.480590	-0.628519	-0.269701	-0.390373	-2.049170	-0.901123	0.155273	0.655273	0.014006	-0.718109	0.195966	-0.667623
13274		10.661569	-3.979514	-0.954583	-0.218222	-0.383400	-1.956043	-0.899170	0.117188	0.661865	0.002350	-0.723432	0.185281	-0.665065
13275		10.773958	-3.579495	-0.872743	-0.248505	-0.359642	-1.861542	-0.904297	0.085693	0.670410	-0.008993	-0.728272	0.175299	-0.662427
13276		10.763109	-3.096173	-0.919527	-0.311533	-0.353838	-1.742471	-0.904541	0.065430	0.673584	-0.020059	-0.732713	0.166359	-0.659586
13277		10.722341	-3.054126	-1.093937	-0.376179	-0.331467	-1.617871	-0.896484	0.031738	0.672607	-0.030854	-0.736681	0.158507	-0.656677
13278		10.559432	-2.971605	-1.165526	-0.376975	-0.294788	-1.512209	-0.899170	0.005371	0.675537	-0.041109	-0.740161	0.151284	-0.653900
13279		10.487312	-2.681872	-1.214444	-0.330839	-0.279240	-1.412138	-0.901123	-0.018066	0.683594	-0.050537	-0.743316	0.144414	-0.651208
13280		10.336226	-2.190009	-1.337581	-0.259501	-0.268140	-1.340511	-0.892578	-0.037354	0.680176	-0.059131	-0.746241	0.137592	-0.648612
13281		10.121343	-1.705149	-1.456640	-0.208755	-0.270545	-1.293848	-0.882812	-0.060791	0.691650	-0.067139	-0.749047	0.130783	-0.646000
13282		10.108101	-1.215764	-1.735992	-0.164857	-0.277075	-1.248040	-0.884766	-0.071045	0.686768	-0.074606	-0.751771	0.124022	-0.643345
13283		9.981086	-0.854779	-1.734340	-0.170953	-0.264237	-1.217362	-0.878174	-0.084961	0.696045	-0.081947	-0.754305	0.117472	-0.640710
13284		9.742784	-0.617484	-1.693667	-0.194171	-0.260093	-1.184373	-0.882324	-0.107178	0.696045	-0.089249	-0.756687	0.111242	-0.638032
13285		9.422616	-0.424612	-1.785228	-0.191719	-0.251950	-1.153362	-0.869873	-0.125000	0.698730	-0.096368	-0.758921	0.105182	-0.635365
13286		9.238842	-0.174652	-1.898202	-0.188371	-0.250994	-1.115447	-0.869873	-0.144287	0.700439	-0.103253	-0.761047	0.099338	-0.632675
13287		9.143024	-0.088351	-1.994836	-0.200544	-0.244518	-1.080970	-0.863525	-0.165771	0.698486	-0.110028	-0.763032	0.093765	-0.629987
13288		9.101470	0.064991	-2.053475	-0.195831	-0.225825	-1.062490	-0.858154	-0.180908	0.703369	-0.116677	-0.764845	0.088265	-0.627381
13289		9.169559	0.122700	-2.119629	-0.173746	-0.210626	-1.050941	-0.850098	-0.198975	0.705078	-0.123125	-0.766530	0.082705	-0.624845
13290		9.162387	0.258813	-2.077149	-0.141392	-0.201954	-1.031340	-0.853271	-0.206055	0.709717	-0.129256	-0.768131	0.077091	-0.622355
13291		9.033918	0.383395	-1.938177	-0.140199	-0.200127	-0.995688	-0.844971	-0.228760	0.701416	-0.135182	-0.769643	0.071697	-0.619867
13292		9.033091	0.232661	-1.920128	-0.138977	-0.212244	-0.942468	-0.826416	-0.240479	0.708496	-0.140805	-0.771135	0.066651	-0.617318
13293		9.147706	0.167201	-1.969546	-0.088814	-0.214118	-0.881163	-0.833984	-0.258789	0.718750	-0.145776	-0.772614	0.061747	-0.614820
13294		9.350380	0.233295	-2.063371	-0.031317	-0.211113	-0.796253	-0.821289	-0.265137	0.721680	-0.149930	-0.774063	0.057097	-0.612443
13295		9.637783	0.223745	-2.059848	-0.000006	-0.207948	-0.684614	-0.824219	-0.274658	0.715820	-0.153301	-0.775451	0.053011	-0.610217
13296		9.849927	0.098555	-1.897892	0.015514	-0.187597	-0.566547	-0.812744	-0.277344	0.720947	-0.155968	-0.776679	0.049592	-0.608264
13297		9.906102	-0.253500	-1.752041	0.053852	-0.153594	-0.420997	-0.809082	-0.282227	0.722656	-0.157653	-0.777707	0.046888	-0.606728
13298		9.867898	-0.443576	-1.767822	0.140449	-0.124616	-0.253560	-0.812256	-0.283691	0.733887	-0.157930	-0.778625	0.044808	-0.605634
13299		10.000624	-0.413119	-1.824582	0.220174	-0.083490	-0.045186	-0.799072	-0.283203	0.729980	-0.156641	-0.779356	0.043642	-0.605115
13300		10.077107	-0.496145	-1.768104	0.220383	-0.017614	0.204781	-0.802490	-0.270996	0.730957	-0.154104	-0.779656	0.044027	-0.605352
13301		10.092084	-0.537933	-1.670050	0.185333	0.052300	0.465175	-0.810791	-0.265625	0.728760	-0.150495	-0.779448	0.046208	-0.606364
13302		10.093433	-0.994584	-1.474445	0.161171	0.142251	0.731165	-0.817871	-0.261230	0.729980	-0.145720	-0.778624	0.050139	-0.608273
13303		10.080462	-1.417023	-1.370123	0.227499	0.222930	0.972889	-0.822998	-0.234131	0.728027	-0.139304	-0.777319	0.055220	-0.610999
13304		10.036698	-1.603512	-1.356710	0.374668	0.296700	1.198704	-0.826904	-0.216064	0.725098	-0.130795	-0.775622	0.060941	-0.614483
13305		10.057171	-1.615104	-1.465824	0.538353	0.371371	1.412362	-0.830811	-0.196045	0.721924	-0.120143	-0.773491	0.067133	-0.618684
13306		10.091144	-1.517259	-1.509714	0.668217	0.444600	1.622978	-0.857422	-0.166992	0.720703	-0.107576	-0.770830	0.073942	-0.623523
13307		10.064230	-1.208208	-1.513543	0.694384	0.499319	1.824910	-0.859619	-0.135742	0.719482	-0.093791	-0.767574	0.081854	-0.628755
13308		10.045645	-1.076047	-1.500519	0.616924	0.541743	2.025752	-0.869873	-0.101562	0.710693	-0.079446	-0.763651	0.091404	-0.634170
13309		10.170141	-1.236221	-1.535589	0.505264	0.570433	2.214344	-0.877930	-0.074707	0.702148	-0.064807	-0.759073	0.102694	-0.639580
13310		10.346030	-1.516205	-1.486062	0.404812	0.587510	2.348090	-0.893799	-0.028076	0.702881	-0.050080	-0.753920	0.115313	-0.644825
13311		10.360792	-1.687267	-1.526750	0.360671	0.583883	2.426892	-0.891113	0.001709	0.693115	-0.035181	-0.748356	0.128615	-0.649757
13312		10.325108	-1.837350	-1.611639	0.322278	0.557129	2.488118	-0.902100	0.046387	0.679688	-0.020148	-0.742512	0.142451	-0.654200
13313		10.377789	-2.266799	-1.573106	0.309731	0.542133	2.525301	-0.905273	0.083496	0.678223	-0.004965	-0.736349	0.156516	-0.658231
13314		10.235705	-2.787324	-1.392736	0.309908	0.535402	2.502148	-0.896240	0.122070	0.673828	0.010101	-0.729902	0.170358	-0.661906
13315		10.129015	-3.099823	-1.171954	0.407350	0.510341	2.470631	-0.900146	0.167969	0.661133	0.025613	-0.723287	0.183385	-0.665259
13316		10.391310	-3.303832	-1.219170	0.523003	0.484358	2.429202	-0.889404	0.201660	0.652832	0.041620	-0.716519	0.195426	-0.668339
13317		10.386038	-3.499482	-1.264630	0.595679	0.478392	2.353200	-0.882568	0.238281	0.652344	0.057617	-0.709566	0.206513	-0.671229
13318		10.164653	-3.395687	-1.250091	0.608476	0.459460	2.286807	-0.882080	0.278564	0.633545	0.073323	-0.702532	0.217029	-0.673774
13319		9.862095	-3.369744	-1.250586	0.521778	0.440151	2.243439	-0.881104	0.318604	0.623535	0.088275	-0.695446	0.227669	-0.675817
13320		9.452898	-3.663774	-1.018737	0.362394	0.443221	2.213698	-0.862793	0.350586	0.617188	0.102093	-0.688256	0.238934	-0.677342
13321		9.187622	-4.329800	-0.839974	0.267704	0.455721	2.207394	-0.856201	0.377686	0.602539	0.115257	-0.680852	0.250615	-0.678490
13322		8.744665	-5.025376	-0.488075	0.246539	0.469670	2.183361	-0.844727	0.413574	0.595459	0.128061	-0.673186	0.262192	-0.679468
13323		8.259699	-5.328251	-0.321326	0.334086	0.459432	2.179320	-0.826172	0.442871	0.588379	0.141326	-0.665258	0.273138	-0.680334
13324		8.260488	-5.715180	-0.476486	0.460362	0.467338	2.194596	-0.813721	0.472900	0.574951	0.155292	-0.656874	0.283369	-0.681250
13325		8.091275	-5.936874	-0.323281	0.567135	0.494626	2.183480	-0.800537	0.513916	0.556152	0.169630	-0.647972	0.292857	-0.682344
13326		8.070628	-5.993030	-0.314729	0.636190	0.515296	2.170696	-0.791992	0.538818	0.551025	0.184205	-0.638606	0.301783	-0.683504
13327		8.050369	-5.972141	-0.241138	0.626877	0.524099	2.146792	-0.767090	0.569824	0.545654	0.198399	-0.629066	0.310527	-0.684461
13328		7.958414	-6.081919	-0.310682	0.535682	0.515565	2.112832	-0.753418	0.596924	0.527832	0.211885	-0.619631	0.319514	-0.684889
13329		7.774991	-6.592906	-0.132253	0.424006	0.507524	2.056719	-0.730713	0.627930	0.518799	0.224424	-0.610346	0.328689	-0.684891
13330		7.479658	-7.038810	0.053476	0.345797	0.482047	1.967671	-0.711182	0.645996	0.510986	0.236107	-0.601408	0.337704	-0.684484
13331		7.372005	-7.489940	0.257614	0.311101	0.452575	1.872465	-0.695557	0.674316	0.496582	0.247081	-0.592805	0.346273	-0.683833
13332		6.980894	-7.624240	0.263134	0.306710	0.408661	1.749774	-0.672852	0.682373	0.481689	0.257411	-0.584663	0.354070	-0.683040
13333		6.842719	-7.913753	0.207420	0.308995	0.391055	1.644941	-0.651611	0.704102	0.478760	0.267142	-0.576803	0.361224	-0.682239
13334		6.571692	-8.196526	0.423713	0.325151	0.375376	1.504922	-0.640137	0.721680	0.469238	0.276149	-0.569312	0.367504	-0.681591
13335		6.080506	-7.887314	0.530200	0.314376	0.351642	1.386560	-0.628174	0.743896	0.462402	0.284455	-0.562254	0.373165	-0.680958
13336		5.643882	-7.891519	0.618240	0.274764	0.326676	1.311873	-0.614502	0.764160	0.453125	0.292186	-0.555587	0.378584	-0.680165
13337		5.255157	-7.944632	0.602557	0.302702	0.312346	1.260594	-0.596191	0.770020	0.438965	0.299760	-0.549027	0.383520	-0.679431
13338		5.138364	-8.079174	0.756500	0.327215	0.318678	1.243774	-0.589355	0.786377	0.436523	0.307220	-0.542324	0.388251	-0.678794
13339		4.870421	-8.089305	0.933478	0.370207	0.316738	1.260002	-0.559082	0.788330	0.434082	0.315001	-0.535437	0.392712	-0.678129
13340		4.780415	-8.347345	0.936097	0.381436	0.333288	1.289457	-0.550049	0.804932	0.421631	0.322848	-0.528237	0.397263	-0.677435
13341		4.600310	-8.710276	1.085751	0.411841	0.356217	1.284589	-0.540771	0.816650	0.414551	0.330658	-0.520761	0.401638	-0.676875
13342		4.204622	-8.835215	1.440278	0.444685	0.370630	1.231388	-0.516357	0.834961	0.406494	0.338190	-0.513210	0.405596	-0.676561
13343		3.730160	-8.339060	1.563459	0.535004	0.371163	1.175807	-0.502441	0.839844	0.386963	0.345800	-0.505548	0.408725	-0.676600
13344		3.937040	-8.242035	1.363215	0.543145	0.341279	1.116546	-0.477295	0.853027	0.377441	0.353146	-0.498159	0.411433	-0.676645
13345		3.591344	-8.291596	1.442518	0.461838	0.306856	1.024002	-0.473389	0.858154	0.374756	0.359758	-0.491493	0.414040	-0.676447
13346		3.156759	-7.987979	1.468662	0.373607	0.266847	0.945591	-0.458252	0.859375	0.355469	0.365633	-0.485526	0.416688	-0.675979
13347		2.698954	-7.542321	1.527225	0.311784	0.247621	0.918314	-0.445068	0.868652	0.362305	0.371134	-0.479911	0.419488	-0.675259
13348		2.627849	-7.680648	1.639165	0.250663	0.237968	0.934714	-0.438232	0.875977	0.344971	0.376507	-0.474456	0.422628	-0.674181
13349		2.719946	-8.220517	1.805354	0.255840	0.261638	0.920541	-0.423340	0.884033	0.335693	0.381681	-0.468852	0.425742	-0.673232
13350		2.783548	-8.678594	1.887690	0.308223	0.253777	0.818338	-0.406738	0.895508	0.334961	0.386499	-0.463463	0.428103	-0.672717
13351		2.472553	-8.423190	1.828257	0.391781	0.228327	0.691833	-0.394531	0.893311	0.323975	0.391032	-0.458391	0.429384	-0.672756
13352		2.318890	-7.853145	1.793678	0.395772	0.206438	0.599283	-0.395508	0.898193	0.310303	0.395119	-0.453738	0.430200	-0.673001
13353		2.135253	-7.785663	1.797558	0.311526	0.169583	0.536549	-0.386230	0.905518	0.310059	0.398616	-0.449760	0.431133	-0.673012
13354		2.037583	-7.918221	1.887527	0.201754	0.118936	0.476525	-0.382080	0.910645	0.307861	0.401552	-0.446643	0.432269	-0.672614
13355		2.184888	-7.894936	1.898447	0.122745	0.094268	0.410196	-0.367920	0.910400	0.301270	0.403897	-0.444156	0.433514	-0.672055
13356		2.077994	-8.142101	1.928638	0.040315	0.069332	0.332640	-0.363770	0.915527	0.305664	0.405613	-0.442375	0.434830	-0.671346
13357		2.017940	-8.428620	2.005026	-0.017997	0.026890	0.231723	-0.357910	0.919434	0.305908	0.406705	-0.441395	0.435952	-0.670603
13358		2.070966	-8.542415	1.981780	-0.081913	-0.029216	0.091127	-0.354980	0.909912	0.306641	0.406991	-0.441461	0.436716	-0.669888
13359		2.194901	-8.950401	2.165469	-0.109555	-0.074152	-0.101815	-0.363770	0.900879	0.305908	0.406255	-0.442570	0.436774	-0.669565
13360		2.196400	-8.758805	2.286948	-0.074568	-0.106831	-0.299120	-0.360840	0.905762	0.311523	0.404627	-0.444441	0.435816	-0.669936
13361		2.307398	-8.871166	2.226836	-0.018488	-0.133294	-0.438484	-0.370117	0.903809	0.323730	0.402555	-0.446790	0.433915	-0.670854
13362		2.142165	-8.092346	2.144648	0.059794	-0.136025	-0.498474	-0.373291	0.902100	0.317139	0.400439	-0.449100	0.431339	-0.672238
13363		2.190399	-7.580308	2.051775	0.007416	-0.117534	-0.458552	-0.392090	0.909912	0.315674	0.398288	-0.451336	0.429254	-0.673353
13364		2.292194	-8.369298	2.146319	-0.080496	-0.111765	-0.448417	-0.397217	0.900879	0.316650	0.395802	-0.453771	0.427730	-0.674151
13365		2.420613	-8.137306	2.035979	-0.124581	-0.143117	-0.515787	-0.394287	0.899170	0.315186	0.392873	-0.456758	0.426089	-0.674886
13366		2.812294	-8.174711	2.010047	-0.241642	-0.182378	-0.613016	-0.408203	0.884277	0.329590	0.389115	-0.460702	0.424577	-0.675335
13367		3.024483	-9.030773	2.091540	-0.298431	-0.214195	-0.773287	-0.406982	0.894775	0.329834	0.384308	-0.465545	0.422662	-0.675968
13368		3.204485	-9.025074	2.007182	-0.232536	-0.258968	-0.963901	-0.427734	0.884277	0.343262	0.378876	-0.471103	0.419434	-0.677193
13369		3.298032	-8.646668	2.050460	-0.198570	-0.273117	-1.108846	-0.447021	0.877441	0.352051	0.372751	-0.477091	0.415380	-0.678897
13370		3.457058	-8.658960	1.801246	-0.197788	-0.296384	-1.238693	-0.463135	0.869141	0.351074	0.365927	-0.483604	0.410694	-0.680849
13371		3.509477	-7.745339	1.631159	-0.228448	-0.342684	-1.314928	-0.480469	0.856201	0.357666	0.358659	-0.490678	0.405682	-0.682657
13372		3.948462	-7.522055	1.449648	-0.399060	-0.378881	-1.346996	-0.499023	0.842285	0.374023	0.350580	-0.498508	0.401347	-0.683743
13373		4.280730	-8.024497	1.400818	-0.564968	-0.412724	-1.389909	-0.514648	0.820312	0.379395	0.341622	-0.507084	0.397616	-0.684150
13374		4.236956	-7.754077	1.481512	-0.587709	-0.416633	-1.446230	-0.542236	0.814209	0.394043	0.332188	-0.515844	0.393701	-0.684511
13375		4.736998	-7.931566	1.436672	-0.566178	-0.395994	-1.474382	-0.553467	0.802979	0.407471	0.322541	-0.524421	0.389537	-0.684990
13376		5.240017	-8.555085	1.339840	-0.468204	-0.368655	-1.550680	-0.570312	0.791992	0.421143	0.312771	-0.532745	0.384459	-0.685965
13377		5.644486	-8.858232	1.246832	-0.334706	-0.373388	-1.727435	-0.595459	0.773682	0.422852	0.302551	-0.541216	0.377728	-0.687655
13378		5.315349	-7.592738	1.034537	-0.216185	-0.414527	-1.872503	-0.615723	0.753418	0.428223	0.292072	-0.549943	0.369477	-0.689742
13379		5.516121	-6.465184	0.837968	-0.278302	-0.451976	-1.877057	-0.637451	0.740479	0.446533	0.281323	-0.558910	0.361373	-0.691293
13380		5.858658	-6.836990	0.544834	-0.466301	-0.472795	-1.856502	-0.665283	0.714600	0.451416	0.269820	-0.568244	0.354295	-0.691933
13381		5.745341	-6.809405	0.825115	-0.592471	-0.489942	-1.842987	-0.678223	0.688965	0.463135	0.257769	-0.577764	0.347852	-0.691912
13382		6.573220	-6.754112	0.561358	-0.674865	-0.496799	-1.851586	-0.696045	0.677734	0.480225	0.245203	-0.587355	0.341751	-0.691445
13383		7.225310	-7.328149	0.432094	-0.715848	-0.503322	-1.931995	-0.722168	0.649902	0.493408	0.232003	-0.597133	0.335351	-0.690758
13384		7.280165	-7.087108	0.584561	-0.665532	-0.527375	-2.027583	-0.734375	0.623291	0.509033	0.218460	-0.607020	0.328019	-0.690076
13385		7.559201	-6.341595	0.262297	-0.614303	-0.574259	-2.082999	-0.757812	0.587891	0.525146	0.204933	-0.617034	0.319927	-0.689143
13386		7.968650	-6.469228	-0.081281	-0.589576	-0.540522	-2.109365	-0.768555	0.561523	0.533447	0.191167	-0.626679	0.311487	-0.688262
13387		8.032290	-6.518841	-0.128588	-0.526095	-0.502609	-2.154685	-0.787109	0.529541	0.547363	0.177349	-0.635882	0.302399	-0.687572
13388		8.273880	-6.123066	-0.112948	-0.483890	-0.471203	-2.204607	-0.800781	0.500977	0.553223	0.163305	-0.644748	0.292739	-0.686976
13389		8.474358	-5.521153	-0.289826	-0.497375	-0.458202	-2.235157	-0.821533	0.471436	0.571289	0.148937	-0.653377	0.282898	-0.686210
13390		8.901187	-5.600773	-0.354596	-0.537033	-0.446588	-2.218882	-0.839355	0.436035	0.584229	0.134340	-0.661725	0.273278	-0.685122
13391		9.145489	-5.508005	-0.296495	-0.548610	-0.446943	-2.194762	-0.849854	0.400635	0.593262	0.119757	-0.669790	0.263751	-0.683722
13392		9.389023	-5.449914	-0.384667	-0.553866	-0.451064	-2.171731	-0.857910	0.370850	0.600342	0.105240	-0.677587	0.254280	-0.682014
13393		9.366006	-5.463316	-0.374637	-0.518085	-0.438216	-2.172601	-0.866699	0.333008	0.616943	0.090856	-0.685035	0.244520	-0.680208
13394		9.558792	-5.186656	-0.663617	-0.440267	-0.434568	-2.173347	-0.881348	0.295410	0.625732	0.076872	-0.692158	0.234231	-0.678339
13395		9.691144	-4.591366	-0.677102	-0.387699	-0.414722	-2.165186	-0.887939	0.272461	0.629395	0.063173	-0.698875	0.223624	-0.676443
13396		9.825044	-4.038731	-0.776989	-0.410954	-0.424612	-2.100205	-0.894287	0.224365	0.644531	0.049703	-0.705300	0.213446	-0.674182
13397		9.940861	-4.187812	-0.761207	-0.473044	-0.397968	-2.023499	-0.889648	0.197754	0.643799	0.036235	-0.711238	0.204010	-0.671720
13398		9.858919	-4.254221	-0.565094	-0.487125	-0.393007	-1.945771	-0.894775	0.165771	0.657227	0.023101	-0.716804	0.195056	-0.669038
13399		10.040639	-4.066491	-0.983646	-0.382394	-0.391560	-1.869737	-0.901123	0.131104	0.654785	0.011010	-0.722017	0.185922	-0.666336
13400		10.163725	-3.851896	-1.049098	-0.300335	-0.373634	-1.810081	-0.906738	0.118164	0.666748	-0.000284	-0.726844	0.176651	-0.663695
13401		10.180898	-3.067201	-1.229354	-0.259042	-0.381734	-1.729682	-0.902832	0.082520	0.676025	-0.010868	-0.731427	0.167603	-0.660913
13402		10.344499	-2.762267	-1.274851	-0.294072	-0.375517	-1.640273	-0.903076	0.055420	0.669189	-0.021178	-0.735691	0.159260	-0.657987
13403		10.450685	-2.494714	-1.402873	-0.326658	-0.372707	-1.565348	-0.894531	0.031250	0.684570	-0.031274	-0.739690	0.151526	-0.654920
13404		10.379862	-2.595643	-1.544641	-0.353370	-0.364817	-1.496775	-0.895508	0.003418	0.685303	-0.041164	-0.743419	0.144334	-0.651768
13405		10.220612	-2.438032	-1.496204	-0.306203	-0.344826	-1.415162	-0.889404	-0.019287	0.689209	-0.050333	-0.746834	0.137366	-0.648719
13406		10.157781	-2.254795	-1.657053	-0.245540	-0.331100	-1.327600	-0.889648	-0.042236	0.696777	-0.058656	-0.749992	0.130595	-0.645768
13407		10.059625	-1.887425	-1.651165	-0.202106	-0.322282	-1.237369	-0.877197	-0.057373	0.700684	-0.066221	-0.752931	0.124139	-0.642883
13408		10.073497	-1.468731	-1.705354	-0.190575	-0.316112	-1.155301	-0.870117	-0.066162	0.709717	-0.073270	-0.755676	0.118125	-0.640025
13409		10.021725	-1.081977	-2.012201	-0.164161	-0.296172	-1.103129	-0.872070	-0.092285	0.699463	-0.079885	-0.758206	0.112278	-0.637288
13410		9.866229	-1.014906	-2.033951	-0.153212	-0.270446	-1.073121	-0.864746	-0.108643	0.707031	-0.086287	-0.760511	0.106539	-0.634686
13411		9.663080	-0.683202	-2.089421	-0.082480	-0.248255	-1.064023	-0.863037	-0.124268	0.703369	-0.092202	-0.762678	0.100461	-0.632240
13412		9.480773	-0.232789	-1.925219	-0.076064	-0.234475	-1.057831	-0.863037	-0.130371	0.709473	-0.098046	-0.764711	0.094374	-0.629840
13413		9.259527	0.115487	-1.979812	-0.079635	-0.240445	-1.048639	-0.854980	-0.151367	0.712158	-0.103851	-0.766703	0.088362	-0.627355
13414		9.079134	0.345947	-1.952102	-0.115110	-0.247995	-1.038565	-0.847168	-0.173340	0.710449	-0.109815	-0.768636	0.082601	-0.624753
13415		8.864119	0.357062	-1.854058	-0.160802	-0.244898	-1.027399	-0.839355	-0.185547	0.708740	-0.116006	-0.770444	0.077139	-0.622100
13416		8.613714	0.161522	-1.806872	-0.172030	-0.239697	-1.014286	-0.842773	-0.195068	0.714111	-0.122195	-0.772145	0.071810	-0.619438
13417		8.534442	0.051277	-1.702270	-0.103756	-0.212079	-0.981982	-0.829590	-0.212646	0.717041	-0.127784	-0.773698	0.066305	-0.616982
13418		8.443452	0.131249	-1.652329	-0.031336	-0.197245	-0.932753	-0.818359	-0.236328	0.724854	-0.132650	-0.775173	0.060727	-0.614673
13419		8.487058	0.067877	-1.666158	0.014340	-0.178899	-0.844756	-0.820557	-0.228516	0.724609	-0.136770	-0.776515	0.055464	-0.612570
13420		8.612681	-0.033934	-1.638683	0.063207	-0.153687	-0.745400	-0.812012	-0.244141	0.725586	-0.140069	-0.777703	0.050567	-0.610739
13421		8.853597	-0.069764	-1.590713	0.109183	-0.118170	-0.618971	-0.809326	-0.250732	0.727783	-0.142433	-0.778683	0.046217	-0.609286
13422		9.013683	-0.055425	-1.571921	0.130357	-0.076740	-0.460039	-0.807129	-0.251221	0.722656	-0.143863	-0.779399	0.042746	-0.608288
13423		9.307982	0.120132	-1.663257	0.110377	-0.036169	-0.256568	-0.808105	-0.254639	0.733154	-0.144400	-0.779802	0.040654	-0.607786
13424		9.717565	0.046204	-1.670848	0.022470	0.019455	-0.022603	-0.812012	-0.250732	0.733887	-0.144338	-0.779736	0.040467	-0.607899
13425		10.220149	-0.400172	-1.686940	-0.036380	0.082258	0.204761	-0.808350	-0.253906	0.736084	-0.143524	-0.779201	0.041985	-0.608674
13426		10.496748	-0.989150	-1.565973	0.022825	0.150385	0.398995	-0.816650	-0.246582	0.733398	-0.141358	-0.778314	0.044391	-0.610143
13427		10.710985	-1.492784	-1.396057	0.202546	0.211514	0.573853	-0.817627	-0.235352	0.728271	-0.137150	-0.777244	0.046955	-0.612272
13428		11.053982	-1.987363	-1.292991	0.460680	0.258917	0.732894	-0.817383	-0.221924	0.733643	-0.130464	-0.776126	0.049187	-0.614970
13429		11.126830	-1.869733	-1.414159	0.782595	0.320051	0.870433	-0.833252	-0.209717	0.731689	-0.120999	-0.774921	0.050602	-0.618301
13430		10.944082	-1.154367	-1.736574	1.041319	0.372701	1.035686	-0.832520	-0.181641	0.723145	-0.109010	-0.773528	0.051703	-0.622172
13431		10.801302	-0.150855	-1.840327	1.019280	0.410583	1.271425	-0.843750	-0.147461	0.723389	-0.095933	-0.771673	0.054402	-0.626385
13432		10.821891	0.096643	-1.920716	0.758467	0.457096	1.535142	-0.852539	-0.112793	0.722656	-0.083156	-0.769082	0.060111	-0.630861
13433		10.928094	-0.262267	-1.815898	0.450067	0.516698	1.751129	-0.870850	-0.095703	0.709717	-0.071231	-0.765670	0.068771	-0.635567
13434		10.762796	-0.899419	-1.603575	0.242971	0.571906	1.894936	-0.875000	-0.066406	0.713867	-0.059877	-0.761556	0.079395	-0.640425
13435		10.461961	-1.361853	-1.442429	0.185347	0.596026	2.009435	-0.882324	-0.030518	0.697266	-0.048275	-0.756979	0.091019	-0.645266
13436		10.183958	-1.601481	-1.405082	0.190660	0.606691	2.121973	-0.891602	-0.001709	0.696289	-0.036026	-0.752008	0.103292	-0.650012
13437		10.029553	-1.858274	-1.368817	0.216933	0.618981	2.229488	-0.895752	0.029785	0.678467	-0.023025	-0.746611	0.116057	-0.654655
13438		10.009669	-2.129696	-1.203428	0.275356	0.636070	2.305285	-0.898438	0.062744	0.677979	-0.009255	-0.740760	0.128927	-0.659217
13439		10.038137	-2.475573	-1.183786	0.359488	0.630032	2.351025	-0.901123	0.102295	0.658203	0.005298	-0.734588	0.141563	-0.663560
13440		9.981444	-2.579444	-1.156057	0.443224	0.627364	2.367143	-0.894043	0.136719	0.659180	0.020453	-0.728087	0.153775	-0.667701
13441		9.973977	-2.571370	-1.162001	0.458888	0.605845	2.371713	-0.900146	0.181885	0.640625	0.035746	-0.721380	0.165854	-0.671435
13442		9.971808	-2.792742	-1.266545	0.450093	0.599014	2.368833	-0.894043	0.226318	0.634766	0.050964	-0.714396	0.177889	-0.674831
13443		9.930568	-2.955160	-1.197654	0.387679	0.580314	2.341742	-0.897705	0.253174	0.630615	0.065667	-0.707282	0.190025	-0.677740
13444		9.854387	-3.244781	-0.943696	0.289694	0.572211	2.319963	-0.886230	0.299561	0.609863	0.079636	-0.700010	0.202498	-0.680175
13445		9.768780	-3.802756	-0.751367	0.218174	0.534871	2.298155	-0.875732	0.319336	0.602295	0.093112	-0.692743	0.215141	-0.682020
13446		9.561338	-4.304537	-0.635715	0.203293	0.506142	2.245461	-0.866943	0.356445	0.603271	0.106180	-0.685492	0.227454	-0.683441
13447		9.202044	-4.750421	-0.628809	0.284977	0.488866	2.195008	-0.863770	0.382568	0.584473	0.119439	-0.678122	0.238911	-0.684695
13448		8.943642	-5.152306	-0.495339	0.382910	0.500404	2.163851	-0.852295	0.422363	0.573975	0.132966	-0.670379	0.249552	-0.686029
13449		8.795527	-5.270172	-0.148832	0.449891	0.541862	2.161129	-0.836426	0.445557	0.560303	0.146755	-0.662085	0.259750	-0.687486
13450		8.624721	-5.444813	-0.015805	0.457550	0.572735	2.163575	-0.819092	0.484131	0.553467	0.160424	-0.653370	0.269860	-0.688874
13451		8.196772	-5.729980	-0.012659	0.449269	0.586848	2.166283	-0.802002	0.514160	0.540527	0.174025	-0.644358	0.279959	-0.690029
13452		7.843820	-6.016046	0.030423	0.465058	0.603337	2.168853	-0.781738	0.540771	0.529297	0.187609	-0.634988	0.289903	-0.691049
13453		7.506413	-6.270507	0.235599	0.492136	0.647214	2.187467	-0.778320	0.565430	0.516113	0.201238	-0.625058	0.299761	-0.692062
13454		7.513117	-6.568716	0.292248	0.563445	0.677849	2.217390	-0.752930	0.609619	0.501221	0.215190	-0.614490	0.309262	-0.693147
13455		7.726643	-6.917137	0.362415	0.638427	0.690539	2.214893	-0.737793	0.633789	0.480225	0.229528	-0.603452	0.318228	-0.694186
13456		7.840304	-6.993022	0.502350	0.616472	0.652030	2.142816	-0.714844	0.658203	0.476562	0.243300	-0.592624	0.326738	-0.694870
13457		7.637074	-7.179256	0.434022	0.524270	0.593319	2.032488	-0.690674	0.683838	0.459473	0.256051	-0.582431	0.335010	-0.694967
13458		7.313445	-7.246493	0.425171	0.408467	0.545985	1.921065	-0.679688	0.708008	0.452148	0.267659	-0.572879	0.343194	-0.694540
13459		7.011652	-7.619702	0.651013	0.249985	0.538225	1.813155	-0.654053	0.721191	0.433838	0.277830	-0.563880	0.351662	-0.693674
13460		6.403233	-7.962792	0.854644	0.173152	0.512928	1.728806	-0.646240	0.753174	0.429688	0.287084	-0.555290	0.360071	-0.692520
13461		6.026839	-8.528546	1.072058	0.202663	0.483349	1.647067	-0.621338	0.755371	0.422607	0.296099	-0.546953	0.367736	-0.691331
13462		5.486657	-8.541135	1.162545	0.311787	0.443065	1.560955	-0.598633	0.773193	0.408203	0.305088	-0.538698	0.374255	-0.690405
13463		5.056935	-8.017212	1.127279	0.383364	0.414494	1.541687	-0.576416	0.784912	0.390625	0.314337	-0.530389	0.380119	-0.689485
13464		4.995909	-7.886776	0.985995	0.327423	0.404962	1.548444	-0.557617	0.811279	0.389160	0.323346	-0.522161	0.386234	-0.688200
13465		4.749908	-8.349326	1.180406	0.237815	0.412410	1.508597	-0.533691	0.819580	0.386963	0.331681	-0.514178	0.392621	-0.686628
13466		4.221818	-8.038168	1.272481	0.265340	0.383322	1.454221	-0.521973	0.827393	0.366211	0.339872	-0.506381	0.398462	-0.685050
13467		4.038814	-8.121590	1.479881	0.297004	0.378916	1.432864	-0.494629	0.836182	0.365967	0.347987	-0.498490	0.403976	-0.683532
13468		3.764902	-8.275352	1.523506	0.359351	0.385812	1.403994	-0.484863	0.846191	0.359619	0.356150	-0.490411	0.408952	-0.682212
13469		3.570247	-8.199204	1.558854	0.409116	0.387956	1.341323	-0.466064	0.870361	0.350098	0.364063	-0.482296	0.413346	-0.681171
13470		3.355123	-8.076203	1.515607	0.411881	0.368814	1.237022	-0.452637	0.871826	0.329102	0.371435	-0.474585	0.417175	-0.680272
13471		3.087881	-7.899892	1.634945	0.350870	0.327283	1.088574	-0.430908	0.886963	0.332520	0.377792	-0.467746	0.420600	-0.679399
13472		2.710717	-7.364347	1.536154	0.266147	0.266181	0.960996	-0.421387	0.884033	0.317139	0.383319	-0.461946	0.423756	-0.678309
13473		2.416219	-7.327367	1.660874	0.214248	0.255329	0.894558	-0.407715	0.887695	0.301514	0.388249	-0.456561	0.426899	-0.677180
13474		2.338773	-7.787868	1.919293	0.235968	0.247297	0.841369	-0.394043	0.894287	0.302490	0.392960	-0.451310	0.429665	-0.676232
13475		2.241694	-7.955210	1.919599	0.277315	0.212669	0.722849	-0.385742	0.901611	0.304688	0.397275	-0.446526	0.431609	-0.675649
13476		2.069759	-7.550997	1.826259	0.233706	0.163144	0.562108	-0.374512	0.913330	0.291016	0.400688	-0.442726	0.433019	-0.675231
13477		2.020574	-7.297090	1.883673	0.113195	0.096991	0.406606	-0.369141	0.913818	0.300293	0.403024	-0.440261	0.434296	-0.674633
13478		1.886995	-7.626125	2.012243	-0.001609	0.041215	0.253000	-0.364502	0.909668	0.300537	0.404278	-0.439048	0.435461	-0.673921
13479		1.921207	-7.949319	2.055280	-0.043942	-0.010337	0.094500	-0.365479	0.907471	0.303223	0.404671	-0.438840	0.436109	-0.673402
13480		2.047838	-7.947332	2.091801	-0.042384	-0.046916	-0.060442	-0.368408	0.907959	0.311523	0.404322	-0.439390	0.436063	-0.673282
13481		2.145076	-8.105774	2.140964	-0.059367	-0.068482	-0.197931	-0.368896	0.913818	0.307373	0.403216	-0.440617	0.435535	-0.673486
13482		2.267978	-8.392175	2.163287	-0.046838	-0.086356	-0.337353	-0.367920	0.907959	0.299805	0.401448	-0.442412	0.434356	-0.674126
13483		2.194969	-8.700199	2.331694	-0.012260	-0.111602	-0.499269	-0.381348	0.905273	0.311523	0.398992	-0.444818	0.432292	-0.675327
13484		2.210393	-8.126477	2.225969	0.043718	-0.129935	-0.625578	-0.387451	0.899658	0.319336	0.396076	-0.447580	0.429380	-0.677074
13485		2.297502	-7.668717	2.228254	0.056843	-0.133435	-0.683548	-0.407471	0.891113	0.314453	0.392894	-0.450518	0.426147	-0.679018
13486		2.644895	-8.058247	2.201143	-0.000840	-0.151131	-0.712969	-0.411865	0.902588	0.310303	0.389334	-0.453814	0.423078	-0.680791
13487		2.693287	-8.252496	2.027157	-0.079892	-0.183446	-0.766048	-0.421387	0.891602	0.320068	0.385306	-0.457737	0.420119	-0.682288
13488		2.775458	-7.819736	2.009129	-0.177413	-0.216606	-0.818796	-0.428223	0.890869	0.314697	0.380706	-0.462327	0.417386	-0.683452
13489		3.105239	-8.080102	2.008054	-0.264056	-0.237931	-0.870036	-0.450928	0.876221	0.320068	0.375548	-0.467473	0.414850	-0.684348
13490		3.545043	-8.796794	1.872199	-0.284616	-0.265256	-1.007592	-0.462891	0.876709	0.335693	0.369546	-0.473263	0.411803	-0.685475
13491		3.818101	-8.810176	1.874837	-0.271121	-0.306322	-1.249042	-0.477539	0.865967	0.340576	0.362346	-0.480042	0.407549	-0.687146
13492		4.008241	-8.021831	1.810175	-0.288191	-0.364539	-1.467174	-0.494873	0.842041	0.344482	0.353980	-0.487883	0.402284	-0.689084
13493		4.872380	-8.069351	1.411050	-0.365946	-0.434152	-1.657063	-0.521729	0.847656	0.355225	0.344361	-0.496897	0.396418	-0.690914
13494		5.141588	-8.025482	1.287013	-0.444135	-0.502387	-1.873624	-0.538818	0.825928	0.363770	0.333328	-0.507135	0.389804	-0.692647
13495		5.100993	-7.413920	1.095917	-0.540304	-0.581618	-2.052883	-0.569092	0.800781	0.376953	0.321021	-0.518536	0.382640	-0.694012
13496		5.008462	-7.055111	1.132904	-0.630293	-0.618052	-2.170332	-0.597412	0.781982	0.392578	0.307623	-0.530575	0.375265	-0.695007
13497		5.153158	-6.578203	1.083408	-0.600353	-0.616983	-2.191969	-0.622559	0.767578	0.415283	0.294111	-0.542400	0.367479	-0.695888
13498		5.895701	-6.757609	0.874612	-0.597176	-0.625852	-2.194541	-0.640625	0.735107	0.425537	0.280538	-0.554083	0.359488	-0.696461
13499		6.146022	-6.786820	0.914511	-0.643471	-0.656717	-2.250591	-0.659424	0.707275	0.441650	0.266408	-0.566005	0.351285	-0.696609
13500		6.345222	-6.087445	0.558335	-0.667903	-0.689348	-2.297064	-0.693359	0.690186	0.458252	0.251892	-0.578078	0.342778	-0.696333
13501		6.723170	-5.946644	0.437168	-0.743544	-0.670057	-2.320468	-0.718750	0.653320	0.471924	0.236714	-0.590008	0.334477	-0.695688
13502		7.171259	-6.416009	0.170315	-0.771943	-0.625832	-2.352349	-0.738037	0.630859	0.492920	0.220962	-0.601565	0.326109	-0.694944
13503		7.877657	-6.806187	0.114835	-0.682367	-0.590741	-2.436642	-0.764404	0.587158	0.501953	0.205031	-0.612717	0.316716	-0.694428
13504		8.349440	-6.559425	0.226212	-0.550799	-0.592318	-2.555411	-0.785889	0.550781	0.529297	0.188927	-0.623661	0.305784	-0.694154
13505		8.517741	-5.921792	0.293745	-0.477638	-0.639693	-2.643996	-0.807129	0.524902	0.527344	0.172706	-0.634712	0.293760	-0.693555
13506		8.608804	-5.428420	0.148719	-0.478894	-0.716848	-2.677671	-0.815430	0.478271	0.546143	0.156442	-0.645897	0.281271	-0.692264
13507		9.309102	-5.162785	-0.332330	-0.537161	-0.778021	-2.667102	-0.839355	0.451172	0.562500	0.139953	-0.657170	0.268951	-0.690077
13508		9.861052	-5.056607	-0.404279	-0.671724	-0.795538	-2.673792	-0.845703	0.407471	0.579834	0.122654	-0.668336	0.257188	-0.687122
13509		10.100901	-4.901504	-0.473514	-0.786056	-0.784805	-2.672655	-0.860596	0.355957	0.599609	0.104620	-0.679178	0.245946	-0.683580
13510		10.200313	-5.116369	-0.515578	-0.854420	-0.730036	-2.658269	-0.875000	0.318848	0.623535	0.086102	-0.689346	0.235076	-0.679800
13511		10.048949	-5.333203	-0.415900	-0.822012	-0.648320	-2.632285	-0.880615	0.276611	0.626221	0.067712	-0.698584	0.224097	-0.676148
13512		10.068481	-5.304841	-0.607970	-0.662496	-0.578424	-2.588006	-0.888672	0.229492	0.631836	0.050333	-0.706877	0.212397	-0.672814
13513		9.932930	-4.982570	-0.645352	-0.495803	-0.515546	-2.523251	-0.883789	0.189453	0.639893	0.034165	-0.714279	0.200067	-0.669784
13514		9.866828	-4.496847	-0.954844	-0.318297	-0.477783	-2.414418	-0.894043	0.156494	0.655518	0.019585	-0.720914	0.187320	-0.666942
13515		9.856071	-3.974291	-0.838674	-0.269331	-0.445101	-2.265232	-0.899414	0.119141	0.657959	0.006072	-0.726835	0.175132	-0.664081
13516		10.028526	-3.562571	-0.993655	-0.279475	-0.431122	-2.096051	-0.896973	0.083008	0.673584	-0.006586	-0.732177	0.163968	-0.661051
13517		10.278238	-3.408610	-1.151165	-0.269696	-0.405320	-1.972228	-0.893066	0.054688	0.677979	-0.018534	-0.736984	0.153459	-0.657998
13518		10.530914	-2.873539	-1.566905	-0.192846	-0.381870	-1.905681	-0.899170	0.027588	0.683838	-0.029667	-0.741385	0.142896	-0.655018
13519		10.745967	-2.235128	-1.849302	-0.124367	-0.377689	-1.857885	-0.887451	0.000000	0.685547	-0.040112	-0.745533	0.132221	-0.651989
13520		10.815833	-1.451788	-1.897356	-0.153276	-0.401396	-1.813611	-0.883057	-0.018799	0.689941	-0.050457	-0.749569	0.121956	-0.648635
13521		10.712964	-1.079278	-1.887855	-0.233634	-0.427661	-1.780702	-0.875732	-0.055176	0.691895	-0.061088	-0.753502	0.112315	-0.644894
13522		10.480467	-0.930853	-1.869739	-0.264974	-0.453813	-1.766107	-0.872559	-0.078613	0.695068	-0.071797	-0.757369	0.102921	-0.640816
13523		10.497359	-0.721227	-2.021806	-0.232434	-0.492498	-1.741823	-0.869141	-0.103271	0.705566	-0.082120	-0.761266	0.093509	-0.636386
13524		10.341582	-0.389271	-1.995767	-0.212847	-0.514562	-1.697209	-0.851807	-0.127197	0.710693	-0.092045	-0.765087	0.084271	-0.631718
13525		10.031736	-0.361881	-2.039990	-0.178644	-0.529189	-1.623038	-0.846680	-0.153809	0.719238	-0.101331	-0.768797	0.075321	-0.626905
13526		9.734775	-0.189071	-1.828247	-0.148837	-0.525638	-1.524482	-0.837158	-0.175537	0.716064	-0.109891	-0.772305	0.066832	-0.622095
13527		9.532223	-0.284249	-1.872548	-0.151322	-0.509365	-1.387405	-0.829102	-0.191406	0.729248	-0.117746	-0.775521	0.059215	-0.617411
13528		9.342552	-0.392455	-1.832076	-0.155481	-0.462421	-1.219465	-0.828369	-0.203369	0.735840	-0.124768	-0.778304	0.052654	-0.613110
13529		9.086230	-0.574644	-1.621628	-0.155445	-0.387767	-1.041717	-0.814209	-0.221436	0.729736	-0.130898	-0.780546	0.047168	-0.609417
13530		8.916110	-0.636570	-1.556385	-0.146612	-0.308907	-0.839659	-0.802246	-0.237061	0.733887	-0.135963	-0.782262	0.042867	-0.606418
13531		8.925875	-0.917545	-1.550214	-0.125721	-0.206455	-0.616285	-0.796387	-0.247314	0.746826	-0.139790	-0.783369	0.039806	-0.604324
13532		9.077044	-1.117533	-1.611612	-0.052026	-0.086198	-0.382090	-0.798828	-0.248047	0.729736	-0.141989	-0.783861	0.037769	-0.603303
13533		9.129542	-1.334797	-1.449796	0.055774	0.048092	-0.149343	-0.802490	-0.247559	0.738525	-0.142350	-0.783727	0.036560	-0.603466
13534		9.006100	-1.316038	-1.395735	0.175901	0.157737	0.088576	-0.802246	-0.246826	0.734375	-0.140758	-0.783107	0.036180	-0.604667
13535		9.168395	-0.930099	-1.480433	0.267396	0.235878	0.359364	-0.803955	-0.238525	0.739746	-0.137221	-0.782108	0.037024	-0.606718
13536		9.614312	-0.771220	-1.546048	0.275045	0.307550	0.629338	-0.811279	-0.229492	0.736816	-0.132284	-0.780646	0.039513	-0.609534
13537		10.039301	-0.847119	-1.544868	0.270792	0.383011	0.868373	-0.812500	-0.211426	0.736816	-0.126174	-0.778673	0.043501	-0.613071
13538		10.283868	-0.896655	-1.483295	0.297466	0.423045	1.058759	-0.821533	-0.202881	0.731934	-0.118918	-0.776386	0.048549	-0.617030
13539		10.481152	-0.781574	-1.508236	0.339766	0.431916	1.243510	-0.833496	-0.182861	0.726562	-0.110426	-0.773928	0.054566	-0.621179
13540		10.648821	-0.809951	-1.504994	0.371825	0.429275	1.419067	-0.844238	-0.160400	0.725586	-0.100798	-0.771316	0.061550	-0.625398
13541		10.821664	-0.976453	-1.568535	0.412377	0.430954	1.561284	-0.851807	-0.135010	0.717285	-0.090149	-0.768513	0.069229	-0.629657
13542		10.741631	-0.842541	-1.584862	0.442149	0.427514	1.667416	-0.846924	-0.101807	0.714844	-0.078729	-0.765524	0.077422	-0.633861
13543		10.628713	-0.534134	-1.695575	0.405755	0.409158	1.790104	-0.863281	-0.079590	0.714600	-0.066861	-0.762345	0.086587	-0.637858
13544		10.705128	-0.704809	-1.883799	0.300884	0.421657	1.904423	-0.878174	-0.048828	0.698242	-0.055044	-0.758756	0.097006	-0.641755
13545		10.595490	-1.106025	-1.734917	0.175626	0.446562	1.973382	-0.874756	-0.019287	0.695068	-0.043654	-0.754704	0.108491	-0.645559
13546		10.307336	-1.346140	-1.477599	0.082819	0.477058	2.043841	-0.876465	0.020508	0.694580	-0.032483	-0.750161	0.120875	-0.649301
13547		10.252235	-1.913903	-1.520136	0.064585	0.494905	2.117129	-0.884277	0.032959	0.687012	-0.021036	-0.745199	0.133771	-0.652948
13548		10.092686	-2.613416	-1.355778	0.139933	0.549861	2.128319	-0.886963	0.062256	0.683105	-0.009117	-0.739685	0.146272	-0.656801
13549		9.877096	-2.852396	-1.238622	0.318034	0.582569	2.115625	-0.891113	0.107666	0.676025	0.003796	-0.733764	0.157668	-0.660845
13550		9.822551	-2.634772	-1.358090	0.497328	0.586844	2.122082	-0.892578	0.142578	0.660889	0.017836	-0.727543	0.168061	-0.664920
13551		9.865455	-2.568043	-1.302909	0.575723	0.593219	2.126648	-0.898926	0.173340	0.652100	0.032358	-0.721003	0.177988	-0.668901
13552		9.886652	-2.470708	-1.314985	0.546787	0.574554	2.116849	-0.892822	0.207031	0.639404	0.046663	-0.714325	0.187945	-0.672487
13553		9.722143	-2.694241	-1.218880	0.448758	0.568051	2.105729	-0.890381	0.241455	0.633789	0.060315	-0.707487	0.198312	-0.675645
13554		9.413521	-2.850055	-0.983986	0.315665	0.526947	2.095841	-0.883789	0.276855	0.620361	0.073173	-0.700722	0.209276	-0.678113
13555		9.333342	-3.525286	-0.850345	0.198502	0.496362	2.107072	-0.874268	0.312744	0.610352	0.085437	-0.693945	0.220875	-0.679967
13556		9.191703	-4.256643	-0.638333	0.203040	0.466076	2.075274	-0.870361	0.333984	0.606689	0.097580	-0.687168	0.232167	-0.681452
13557		9.164855	-4.856250	-0.562943	0.299946	0.425772	2.038109	-0.861572	0.369141	0.593262	0.110084	-0.680401	0.242590	-0.682705
13558		9.052984	-5.003102	-0.412461	0.401249	0.379975	2.006607	-0.854736	0.399170	0.595703	0.123055	-0.673642	0.252139	-0.683732
13559		8.966724	-5.016935	-0.322358	0.438597	0.347439	1.988848	-0.839111	0.427734	0.572510	0.136158	-0.666885	0.261262	-0.684447
13560		8.659169	-5.174920	-0.237905	0.394980	0.353043	1.989478	-0.826416	0.459717	0.575684	0.148959	-0.659910	0.270566	-0.684926
13561		8.343300	-5.450223	-0.140790	0.333625	0.399859	1.996376	-0.810791	0.483887	0.566650	0.161324	-0.652568	0.280232	-0.685274
13562		8.270222	-5.999355	-0.113147	0.304340	0.468725	2.007675	-0.796875	0.515381	0.550781	0.173358	-0.644650	0.290137	-0.685707
13563		8.005475	-6.469052	0.163417	0.328116	0.536662	1.999883	-0.780518	0.547119	0.546875	0.185278	-0.636103	0.299864	-0.686387
13564		7.835611	-6.832954	0.279253	0.445907	0.573223	1.980893	-0.770508	0.565674	0.535400	0.197594	-0.627043	0.308784	-0.687332
13565		7.488167	-6.792813	0.251324	0.577328	0.592345	1.952382	-0.755615	0.585938	0.523438	0.210213	-0.617533	0.316746	-0.688575
13566		7.540807	-6.982481	0.272578	0.691801	0.622325	1.939420	-0.733154	0.619629	0.507568	0.223178	-0.607489	0.323937	-0.690083
13567		7.641606	-6.975417	0.404134	0.715624	0.637017	1.877269	-0.727295	0.655762	0.488281	0.235897	-0.597275	0.330585	-0.691614
13568		7.685629	-7.021835	0.407030	0.620339	0.611765	1.796815	-0.705566	0.665771	0.463379	0.247689	-0.587417	0.337211	-0.692734
13569		7.349296	-7.250163	0.502985	0.464753	0.548642	1.690969	-0.684326	0.691650	0.459961	0.258202	-0.578396	0.344001	-0.693147
13570		6.634858	-7.069399	0.588469	0.303749	0.470372	1.626171	-0.668701	0.712646	0.452393	0.267740	-0.570242	0.351167	-0.692691
13571		6.389137	-7.460553	0.705512	0.185329	0.427749	1.581912	-0.655029	0.730225	0.445312	0.276529	-0.562613	0.358635	-0.691650
13572		6.212814	-8.042317	0.875408	0.110680	0.394996	1.510421	-0.631836	0.739746	0.440186	0.284601	-0.555457	0.366053	-0.690272
13573		6.098265	-8.493009	0.897894	0.119467	0.351873	1.421351	-0.626465	0.752441	0.433350	0.292234	-0.548691	0.372874	-0.688841
13574		5.597197	-8.320195	1.015992	0.173003	0.324716	1.349189	-0.610596	0.767578	0.427002	0.299697	-0.542079	0.378956	-0.687550
13575		4.968565	-7.898754	0.998453	0.215667	0.337736	1.355637	-0.587891	0.775879	0.418213	0.307309	-0.535190	0.384799	-0.686340
13576		4.719356	-8.196872	1.154319	0.243283	0.382473	1.404980	-0.566162	0.798828	0.411133	0.315150	-0.527743	0.390753	-0.685186
13577		4.625027	-8.584223	1.315075	0.343475	0.431699	1.428787	-0.562012	0.808105	0.399658	0.323393	-0.519605	0.396285	-0.684387
13578		4.463255	-8.469640	1.320233	0.429881	0.419663	1.398347	-0.532715	0.815918	0.396240	0.331765	-0.511292	0.401123	-0.683822
13579		4.318033	-8.051728	1.322593	0.431801	0.398517	1.362955	-0.520508	0.839355	0.379395	0.339997	-0.503148	0.405656	-0.683146
13580		4.021960	-7.850944	1.301729	0.356763	0.373464	1.310919	-0.499268	0.841797	0.371094	0.347649	-0.495459	0.410265	-0.682161
13581		3.797358	-8.001614	1.285119	0.261429	0.352911	1.262968	-0.475098	0.854736	0.363037	0.354658	-0.488262	0.415102	-0.680814
13582		3.516103	-8.469009	1.352775	0.211353	0.335630	1.196774	-0.463379	0.871826	0.352783	0.361134	-0.481497	0.419836	-0.679323
13583		3.149866	-8.788003	1.657325	0.288157	0.347216	1.119103	-0.450684	0.880859	0.345215	0.367393	-0.474653	0.423816	-0.678312
13584		2.835452	-8.249597	1.742320	0.447712	0.367003	1.074336	-0.439697	0.878174	0.340332	0.373913	-0.467314	0.426735	-0.678015
13585		2.821689	-7.880066	1.701849	0.475644	0.378693	1.057850	-0.414062	0.890869	0.335205	0.380345	-0.459819	0.429434	-0.677857
13586		2.841409	-8.444814	1.686649	0.410053	0.337459	0.972134	-0.412598	0.892090	0.322266	0.386199	-0.453051	0.431980	-0.677487
13587		2.430858	-7.728058	1.604127	0.287117	0.269049	0.827837	-0.387207	0.900391	0.314453	0.390941	-0.447528	0.434445	-0.676862
13588		2.363953	-7.996768	1.767861	0.150620	0.188302	0.676396	-0.380615	0.907227	0.314209	0.394642	-0.443455	0.436808	-0.675873
13589		2.110330	-8.316671	1.966821	0.142763	0.139054	0.495919	-0.382324	0.903076	0.307861	0.397459	-0.440329	0.438375	-0.675251
13590		1.958251	-8.061334	1.999215	0.188862	0.116757	0.366352	-0.372314	0.910400	0.308838	0.399753	-0.437622	0.439143	-0.675158
13591		1.996871	-8.043000	1.912306	0.240044	0.088499	0.275303	-0.367432	0.904053	0.300537	0.401843	-0.435243	0.439180	-0.675430
13592		1.978142	-7.692457	1.815753	0.163279	0.042819	0.169799	-0.360840	0.914551	0.295654	0.403217	-0.433758	0.439115	-0.675610
13593		2.071279	-7.698252	1.703145	-0.047319	-0.026443	0.044293	-0.362305	0.922363	0.297852	0.403395	-0.433839	0.439538	-0.675176
13594		2.156443	-8.555664	1.913851	-0.174032	-0.095855	-0.169130	-0.368164	0.916992	0.299072	0.402169	-0.435519	0.439667	-0.674742
13595		2.003445	-7.930709	1.980978	-0.124462	-0.150054	-0.374386	-0.370117	0.901855	0.306641	0.400145	-0.438079	0.438596	-0.674985
13596		2.322747	-7.822487	2.032361	-0.086540	-0.159282	-0.456800	-0.382324	0.904297	0.301514	0.397826	-0.440860	0.436973	-0.675598
13597		2.314773	-8.172983	2.083362	-0.004882	-0.142317	-0.498958	-0.381104	0.907715	0.304932	0.395481	-0.443413	0.434792	-0.676710
13598		2.557802	-8.111082	1.928434	0.042481	-0.140729	-0.558032	-0.394043	0.900635	0.311035	0.392997	-0.446023	0.432106	-0.678160
13599		2.575655	-7.865773	1.998319	-0.027442	-0.174185	-0.655424	-0.408203	0.893799	0.304199	0.389796	-0.449384	0.429341	-0.679544
13600		2.913961	-8.191506	1.946767	-0.194216	-0.226865	-0.798488	-0.415283	0.891113	0.317871	0.385308	-0.454068	0.426805	-0.680586
13601		2.876099	-8.375075	2.072632	-0.243405	-0.273500	-0.982618	-0.424805	0.891357	0.326416	0.379752	-0.459813	0.423666	-0.681812
13602		3.221569	-8.538761	2.067940	-0.238524	-0.317285	-1.151540	-0.442383	0.878174	0.338867	0.373399	-0.466359	0.419666	-0.683347
13603		3.210617	-8.161147	1.983299	-0.187911	-0.350093	-1.249805	-0.453613	0.871094	0.343506	0.366749	-0.473225	0.414850	-0.685166
13604		3.642004	-7.710683	1.813918	-0.232705	-0.356995	-1.244857	-0.476562	0.860840	0.348633	0.359951	-0.480204	0.410230	-0.686696
13605		3.972445	-8.450394	1.823405	-0.321060	-0.340837	-1.282732	-0.495361	0.847412	0.357910	0.352459	-0.487418	0.405972	-0.688029
13606		4.549346	-8.158362	1.643203	-0.381991	-0.375812	-1.418960	-0.516357	0.842529	0.357910	0.343999	-0.495401	0.401352	-0.689318
13607		4.596476	-8.390994	1.660128	-0.587092	-0.430858	-1.609565	-0.547119	0.822021	0.378418	0.333715	-0.504835	0.396890	-0.690111
13608		4.266688	-7.488557	1.745176	-0.619061	-0.457736	-1.719831	-0.558594	0.805664	0.386963	0.322640	-0.514751	0.392000	-0.690848
13609		4.762785	-7.523702	1.444779	-0.534684	-0.441394	-1.728094	-0.583008	0.792969	0.402344	0.311780	-0.524262	0.386522	-0.691768
13610		5.467979	-8.547022	1.401001	-0.318357	-0.403211	-1.731917	-0.607422	0.769043	0.413330	0.301648	-0.532886	0.379788	-0.693400
13611		6.333200	-8.203214	0.841809	-0.184685	-0.466867	-1.851147	-0.619629	0.753662	0.414795	0.291526	-0.541785	0.371513	-0.695312
13612		6.468679	-7.388407	1.030718	-0.446791	-0.548804	-2.029001	-0.652344	0.735840	0.426270	0.279399	-0.552205	0.363628	-0.696261
13613		5.985386	-5.761629	0.756415	-0.707838	-0.627492	-2.111058	-0.668701	0.708252	0.445068	0.265712	-0.563745	0.356578	-0.696018
13614		6.471461	-6.195670	0.551280	-0.983324	-0.628235	-2.122654	-0.687988	0.681885	0.466064	0.250578	-0.575728	0.350928	-0.694693
13615		6.744426	-7.373372	0.543165	-0.933386	-0.607806	-2.180912	-0.708984	0.657227	0.480713	0.235202	-0.587432	0.344599	-0.693437
13616		7.110388	-6.912382	0.457672	-0.718629	-0.639673	-2.274064	-0.732422	0.627441	0.492432	0.220369	-0.598917	0.336347	-0.692536
13617		7.854844	-6.231369	0.131762	-0.633915	-0.661099	-2.329371	-0.744629	0.594238	0.516357	0.205631	-0.610265	0.327119	-0.691582
13618		7.994263	-5.863903	-0.002880	-0.683899	-0.675208	-2.335965	-0.771484	0.564697	0.530029	0.190558	-0.621570	0.317996	-0.690085
13619		8.054561	-5.749051	-0.142958	-0.782360	-0.659974	-2.344838	-0.796631	0.523193	0.554932	0.174785	-0.632664	0.309259	-0.688146
13620		8.211529	-5.864808	-0.556636	-0.806519	-0.613744	-2.384863	-0.804688	0.488770	0.557617	0.158390	-0.643358	0.300390	-0.686126
13621		8.642417	-5.871823	-0.509842	-0.737696	-0.544281	-2.460185	-0.825195	0.450195	0.586670	0.141724	-0.653433	0.290662	-0.684438
13622		8.987161	-5.633271	-0.568763	-0.609970	-0.502513	-2.501844	-0.833984	0.414551	0.593506	0.125329	-0.662925	0.279895	-0.682994
13623		9.156413	-5.424881	-0.433351	-0.527307	-0.485574	-2.491154	-0.849854	0.383789	0.596191	0.109356	-0.671894	0.268601	-0.681508
13624		9.036167	-5.018828	-0.281382	-0.494779	-0.487070	-2.454832	-0.864014	0.338135	0.607910	0.093722	-0.680452	0.257200	-0.679742
13625		9.434434	-4.867081	-0.667405	-0.474025	-0.494073	-2.399950	-0.876465	0.305664	0.618408	0.078489	-0.688616	0.245873	-0.677638
13626		9.645700	-4.786851	-0.672690	-0.460252	-0.470602	-2.391271	-0.881104	0.275146	0.628174	0.063303	-0.696326	0.234428	-0.675401
13627		9.868720	-4.280755	-0.948472	-0.434355	-0.458130	-2.348467	-0.884521	0.235107	0.637939	0.048458	-0.703577	0.222994	-0.672982
13628		10.070044	-4.169051	-0.853014	-0.452584	-0.421256	-2.273519	-0.890137	0.197754	0.643555	0.033838	-0.710210	0.212029	-0.670448
13629		10.017117	-3.992954	-0.684995	-0.472426	-0.397462	-2.177536	-0.892334	0.150879	0.656738	0.019584	-0.716283	0.201671	-0.667746
13630		10.186654	-4.129934	-0.894524	-0.455487	-0.377978	-2.075864	-0.890625	0.120850	0.661865	0.005957	-0.721830	0.191763	-0.664946
13631		10.335311	-4.034368	-0.930710	-0.380919	-0.364562	-1.999914	-0.890381	0.079102	0.664307	-0.006821	-0.726953	0.181842	-0.662138
13632		10.548057	-3.612099	-1.072018	-0.277386	-0.366637	-1.917531	-0.898926	0.072021	0.678711	-0.018512	-0.731761	0.171802	-0.659293
13633		10.507140	-3.057870	-1.086302	-0.240225	-0.367249	-1.793663	-0.892090	0.026855	0.676514	-0.029288	-0.736216	0.162272	-0.656351
13634		10.482634	-2.466539	-1.213787	-0.275161	-0.388682	-1.634357	-0.895508	0.005127	0.683838	-0.039370	-0.740402	0.153884	-0.653126
13635		10.574537	-2.486309	-1.227507	-0.376151	-0.378176	-1.483394	-0.884521	-0.017578	0.692139	-0.049259	-0.744167	0.146947	-0.649766
13636		10.535653	-2.307963	-1.385108	-0.408956	-0.370348	-1.398953	-0.889404	-0.040283	0.688232	-0.058894	-0.747649	0.140686	-0.646344
13637		10.619740	-2.018664	-1.642859	-0.329009	-0.347890	-1.358766	-0.880859	-0.059326	0.688965	-0.067831	-0.750889	0.134216	-0.643079
13638		10.639563	-1.310671	-1.902154	-0.234651	-0.348461	-1.346777	-0.876953	-0.083740	0.699463	-0.076101	-0.754067	0.127300	-0.639833
13639		10.473202	-0.458147	-2.024216	-0.231578	-0.369471	-1.316471	-0.864014	-0.103027	0.704346	-0.084157	-0.757226	0.120556	-0.636391
13640		10.227327	-0.315718	-1.901908	-0.312504	-0.385795	-1.285915	-0.860352	-0.122070	0.705078	-0.092535	-0.760284	0.114430	-0.632702
13641		9.775343	-0.295269	-1.948173	-0.329903	-0.384766	-1.287731	-0.854248	-0.140137	0.710938	-0.101020	-0.763226	0.108368	-0.628918
13642		9.272137	-0.373421	-1.947478	-0.311752	-0.369692	-1.273496	-0.846436	-0.167480	0.710449	-0.109315	-0.765992	0.102276	-0.625177
13643		8.981404	-0.201029	-1.927536	-0.243088	-0.356413	-1.226528	-0.839111	-0.179199	0.707764	-0.116925	-0.768619	0.096103	-0.621545
13644		8.822711	-0.173158	-1.898380	-0.182854	-0.319816	-1.193563	-0.835449	-0.201904	0.720459	-0.123993	-0.771002	0.089785	-0.618158
13645		8.565941	-0.070128	-1.911471	-0.090138	-0.280455	-1.145380	-0.829102	-0.220947	0.728760	-0.130233	-0.773165	0.083251	-0.615081
13646		8.440365	0.353742	-2.000239	-0.037765	-0.252157	-1.057399	-0.821289	-0.227539	0.717529	-0.135692	-0.775110	0.076979	-0.612264
13647		8.327134	0.386062	-2.138289	-0.053497	-0.224249	-0.938258	-0.811768	-0.247559	0.731445	-0.140651	-0.776762	0.071521	-0.609707
13648		8.355526	0.039479	-2.112406	-0.062549	-0.174255	-0.818816	-0.811279	-0.253174	0.726562	-0.145084	-0.778036	0.066821	-0.607573
13649		8.453371	-0.340964	-1.865832	-0.039003	-0.142235	-0.726211	-0.805664	-0.261719	0.729736	-0.148905	-0.779092	0.062564	-0.605746
13650		8.698505	-0.267235	-1.837756	0.047076	-0.118776	-0.621396	-0.802246	-0.275146	0.729004	-0.151643	-0.780056	0.058526	-0.604228
13651		8.990660	0.037991	-1.856358	0.099550	-0.097346	-0.472093	-0.791748	-0.272217	0.731689	-0.153294	-0.780889	0.055171	-0.603051
13652		9.241335	0.297642	-2.004017	0.064226	-0.073461	-0.260389	-0.797363	-0.281982	0.732910	-0.154118	-0.781450	0.053342	-0.602278
13653		9.572710	0.177049	-1.997330	-0.049282	-0.040781	-0.029631	-0.789795	-0.280762	0.730957	-0.154536	-0.781596	0.053548	-0.601963
13654		10.096914	-0.323443	-2.064712	-0.069304	0.020072	0.184253	-0.796631	-0.277100	0.734863	-0.154036	-0.781314	0.055172	-0.602310
13655		10.663037	-0.707105	-1.960514	0.013476	0.071424	0.368340	-0.803223	-0.274414	0.735840	-0.152093	-0.780789	0.057518	-0.603264
13656		10.978332	-0.729148	-2.007180	0.160602	0.117616	0.555467	-0.802734	-0.261963	0.740479	-0.148269	-0.780114	0.060288	-0.604817
13657		11.126491	-0.812331	-1.785383	0.246848	0.156345	0.748941	-0.810547	-0.247803	0.734375	-0.142921	-0.779224	0.063838	-0.606884
13658		11.169886	-1.150890	-1.746635	0.342281	0.199789	0.960634	-0.820557	-0.234375	0.738770	-0.135894	-0.778065	0.068230	-0.609502
13659		11.054268	-1.218324	-1.640509	0.467781	0.252662	1.157908	-0.825684	-0.219971	0.738281	-0.127065	-0.776590	0.073203	-0.612702
13660		10.991353	-1.218326	-1.766818	0.569136	0.314140	1.374850	-0.830566	-0.186035	0.735352	-0.116491	-0.774666	0.078992	-0.616509
13661		10.859362	-0.999330	-1.771212	0.586040	0.390095	1.602437	-0.846436	-0.160400	0.727783	-0.104663	-0.772068	0.086080	-0.620924
13662		10.603334	-0.956868	-1.713582	0.516124	0.456244	1.826575	-0.844482	-0.131348	0.727783	-0.092148	-0.768717	0.094896	-0.625762
13663		10.449050	-1.142596	-1.734480	0.424180	0.518097	2.060722	-0.855469	-0.105469	0.718018	-0.079020	-0.764555	0.105618	-0.630918
13664		10.320458	-1.744047	-1.602660	0.344365	0.578693	2.270143	-0.861084	-0.071777	0.711426	-0.065325	-0.759557	0.118017	-0.636300
13665		10.223364	-2.356294	-1.340611	0.351647	0.621452	2.440033	-0.878906	-0.030273	0.700439	-0.050696	-0.753846	0.131381	-0.641783
13666		10.030612	-2.666082	-1.194995	0.444135	0.636463	2.557570	-0.883789	0.016357	0.696777	-0.034849	-0.747600	0.144923	-0.647207
13667		9.867705	-2.685360	-1.146997	0.558983	0.632657	2.663866	-0.890381	0.055908	0.691162	-0.017689	-0.740884	0.158434	-0.652439
13668		9.911221	-2.560337	-1.261712	0.624214	0.623666	2.766805	-0.889648	0.096191	0.679932	0.000454	-0.733665	0.172137	-0.657346
13669		10.055264	-2.733580	-1.355594	0.641756	0.637868	2.846884	-0.886475	0.145752	0.669434	0.019122	-0.725804	0.186129	-0.661966
13670		10.197208	-3.149323	-1.256297	0.645290	0.673162	2.862208	-0.889160	0.190186	0.656738	0.037829	-0.717264	0.200080	-0.666385
13671		9.962427	-3.026968	-1.089003	0.613360	0.666990	2.820513	-0.891357	0.229492	0.638184	0.056096	-0.708386	0.213831	-0.670312
13672		9.954669	-3.100220	-1.355864	0.530310	0.647493	2.800381	-0.875488	0.284180	0.638672	0.073756	-0.699259	0.227787	-0.673581
13673		9.959658	-3.681681	-1.246643	0.425317	0.645795	2.741633	-0.866211	0.314209	0.617676	0.090448	-0.689916	0.241843	-0.676275
13674		9.757500	-4.233078	-1.153835	0.365974	0.644704	2.634784	-0.852051	0.367188	0.616211	0.106126	-0.680453	0.255492	-0.678561
13675		9.565389	-4.790647	-0.982669	0.421188	0.638658	2.546254	-0.845703	0.406982	0.595703	0.121604	-0.670828	0.268176	-0.680650
13676		9.311932	-5.214695	-0.882724	0.519578	0.621482	2.438834	-0.830566	0.437744	0.582031	0.136984	-0.661103	0.279559	-0.682660
13677		8.801332	-5.378750	-0.549617	0.606076	0.613478	2.342160	-0.821777	0.468018	0.578613	0.152226	-0.651256	0.289786	-0.684629
13678		8.490920	-5.250437	-0.618448	0.626425	0.592483	2.296901	-0.798828	0.497559	0.553467	0.167283	-0.641345	0.299504	-0.686287
13679		8.244351	-5.526722	-0.478633	0.609671	0.611614	2.275165	-0.791748	0.531250	0.541748	0.182020	-0.631122	0.309094	-0.687760
13680		7.942129	-5.765016	-0.132357	0.553944	0.620514	2.254122	-0.770996	0.563477	0.532959	0.196247	-0.620728	0.318773	-0.688889
13681		7.859645	-6.111056	-0.292460	0.532774	0.595014	2.245360	-0.754150	0.597900	0.523438	0.210319	-0.610297	0.328353	-0.689556
13682		7.986338	-6.649066	-0.226793	0.527332	0.566696	2.199735	-0.734131	0.628662	0.498047	0.224099	-0.599925	0.337550	-0.689876
13683		7.632710	-6.840411	0.035208	0.499208	0.527475	2.077390	-0.709229	0.655273	0.489990	0.237065	-0.589956	0.346094	-0.689907
13684		7.283076	-6.860670	0.072327	0.457272	0.490505	1.976377	-0.695801	0.676025	0.476562	0.249271	-0.580389	0.354199	-0.689606
13685		7.190951	-7.459621	0.291883	0.372331	0.480738	1.874390	-0.673340	0.700928	0.458008	0.260430	-0.571187	0.362172	-0.689023
13686		6.599395	-7.749192	0.508143	0.344628	0.473454	1.736626	-0.660645	0.726807	0.455566	0.270555	-0.562331	0.369578	-0.688474
13687		6.363978	-7.910731	0.579854	0.386150	0.444953	1.615601	-0.634766	0.724854	0.448975	0.280275	-0.553824	0.375991	-0.688009
13688		5.809815	-8.162342	0.778949	0.412788	0.400900	1.498965	-0.620361	0.751221	0.435303	0.289442	-0.545728	0.381584	-0.687603
13689		5.115528	-7.540210	0.921529	0.403715	0.355454	1.454058	-0.597656	0.770020	0.426270	0.298417	-0.537965	0.386839	-0.686947
13690		4.896690	-7.444309	0.731239	0.301908	0.317295	1.454812	-0.578613	0.778320	0.424561	0.307038	-0.530594	0.392504	-0.685666
13691		4.341698	-7.688145	1.005334	0.189625	0.305671	1.465291	-0.564697	0.785400	0.418213	0.315206	-0.523456	0.398765	-0.683832
13692		4.116660	-7.717102	1.056453	0.147401	0.294029	1.500788	-0.546631	0.809814	0.406738	0.323353	-0.516278	0.405338	-0.681617
13693		4.303573	-8.209847	1.208755	0.173243	0.318768	1.528663	-0.527100	0.824707	0.406494	0.331645	-0.508714	0.411872	-0.679399
13694		4.489154	-8.830139	1.255851	0.275258	0.353182	1.501352	-0.504639	0.833740	0.397217	0.340046	-0.500682	0.417731	-0.677634
13695		4.202803	-9.555875	1.583116	0.439382	0.393440	1.369055	-0.483643	0.837891	0.388672	0.348191	-0.492337	0.422153	-0.676871
13696		3.462396	-8.984528	1.662399	0.641592	0.389103	1.208135	-0.468994	0.851074	0.374023	0.356221	-0.483922	0.424697	-0.677169
13697		3.123754	-7.679416	1.505263	0.705525	0.363248	1.127590	-0.451660	0.865723	0.361816	0.364094	-0.475681	0.426420	-0.677739
13698		3.052736	-6.856785	1.252890	0.533270	0.327951	1.118740	-0.433350	0.876953	0.347168	0.371329	-0.468140	0.428911	-0.677492
13699		3.064920	-7.437897	1.366991	0.184909	0.255208	1.090944	-0.423096	0.887451	0.344238	0.377278	-0.462146	0.432984	-0.675727
13700		3.074081	-7.964907	1.403357	-0.035305	0.168020	0.969244	-0.407471	0.877441	0.340576	0.381968	-0.457732	0.437523	-0.673168
13701		2.939727	-9.167486	1.889445	-0.033587	0.150116	0.735162	-0.404053	0.885742	0.341553	0.385382	-0.454236	0.441084	-0.671264
13702		2.452210	-9.106355	2.155961	0.240693	0.131319	0.467261	-0.394043	0.897217	0.336182	0.388377	-0.450927	0.442030	-0.671146
13703		2.321080	-7.676237	2.000701	0.455706	0.116848	0.294278	-0.388916	0.897949	0.334229	0.391277	-0.447641	0.441056	-0.672302
13704		2.180802	-6.778465	1.752670	0.386385	0.094583	0.260638	-0.376221	0.895264	0.328613	0.393808	-0.444823	0.440261	-0.673215
13705		2.361342	-7.090159	1.615771	0.151875	0.041286	0.205032	-0.378418	0.897705	0.319336	0.395372	-0.443285	0.440384	-0.673231
13706		2.404985	-7.460765	1.810693	-0.059791	-0.020471	0.050190	-0.376709	0.898926	0.318115	0.395491	-0.443350	0.440927	-0.672764
13707		2.393286	-7.830898	1.963014	-0.173593	-0.084096	-0.174341	-0.386230	0.902100	0.327637	0.394166	-0.444972	0.441064	-0.672380
13708		2.186145	-8.040723	2.018552	-0.146718	-0.114009	-0.394114	-0.377686	0.900391	0.326660	0.391802	-0.447471	0.440141	-0.672709
13709		2.244348	-7.518241	1.866271	-0.044095	-0.133167	-0.525618	-0.396484	0.890381	0.330566	0.389189	-0.450238	0.438062	-0.673736
13710		2.129622	-6.931884	1.817943	-0.029408	-0.128303	-0.557913	-0.403076	0.886475	0.334717	0.386382	-0.453019	0.435805	-0.674949
13711		2.428762	-6.869545	1.657255	-0.135065	-0.128396	-0.504210	-0.408936	0.883301	0.332520	0.383475	-0.455939	0.434334	-0.675589
13712		2.778183	-8.168937	1.652462	-0.285629	-0.144143	-0.518325	-0.416260	0.885742	0.343262	0.379965	-0.459471	0.433596	-0.675653
13713		2.925566	-8.755189	1.833567	-0.285032	-0.157681	-0.636818	-0.427979	0.878906	0.339600	0.375838	-0.463497	0.432340	-0.676016
13714		3.112335	-9.072978	2.047036	-0.191628	-0.171465	-0.808546	-0.434570	0.875000	0.357666	0.371121	-0.467900	0.429842	-0.677181
13715		3.404179	-8.928437	1.924314	-0.023947	-0.180456	-0.983814	-0.455078	0.867188	0.359131	0.366105	-0.472449	0.425649	-0.679398
13716		3.617808	-8.549086	1.676338	-0.014544	-0.222278	-1.169623	-0.472412	0.863281	0.362793	0.360168	-0.477816	0.420521	-0.682007
13717		3.997391	-8.366840	1.326848	-0.157799	-0.295567	-1.343147	-0.485107	0.850586	0.364502	0.352891	-0.484586	0.415246	-0.684262
13718		4.442666	-8.093781	1.218123	-0.340917	-0.371157	-1.518665	-0.498535	0.842041	0.374023	0.344092	-0.492866	0.410015	-0.685982
13719		4.288935	-7.736646	1.320125	-0.497662	-0.436205	-1.651673	-0.525879	0.825439	0.384277	0.334069	-0.502340	0.404853	-0.687130
13720		4.696784	-7.806427	1.040795	-0.553168	-0.481738	-1.721825	-0.552979	0.813477	0.399414	0.323468	-0.512342	0.399505	-0.687946
13721		5.002268	-8.052421	1.146836	-0.550975	-0.505323	-1.812836	-0.570801	0.791992	0.419434	0.312343	-0.522647	0.393594	-0.688742
13722		5.277754	-7.719416	1.064527	-0.523323	-0.521968	-1.884514	-0.593018	0.773438	0.423584	0.300907	-0.533074	0.387056	-0.689547
13723		5.770756	-7.406945	0.950245	-0.532710	-0.515093	-1.939467	-0.618652	0.751221	0.434082	0.289003	-0.543509	0.380231	-0.690289
13724		6.158631	-7.494112	0.937789	-0.580566	-0.527321	-2.019411	-0.645264	0.730469	0.445312	0.276358	-0.554211	0.373178	-0.690807
13725		6.547370	-7.445721	0.758070	-0.578826	-0.549329	-2.132106	-0.669189	0.708740	0.459229	0.263039	-0.565196	0.365419	-0.691254
13726		6.933297	-7.170051	0.489502	-0.554270	-0.585103	-2.266415	-0.692871	0.681396	0.473389	0.249079	-0.576534	0.356664	-0.691635
13727		7.252338	-6.323010	0.129873	-0.544077	-0.601508	-2.399621	-0.713623	0.650635	0.499512	0.234392	-0.588120	0.346996	-0.691932
13728		7.363477	-5.841293	0.086327	-0.625783	-0.615694	-2.504382	-0.738770	0.619141	0.513184	0.218625	-0.599991	0.337105	-0.691790
13729		7.588525	-5.350086	0.031173	-0.750534	-0.636241	-2.578303	-0.756836	0.583252	0.523193	0.201760	-0.612106	0.327343	-0.690989
13730		8.194746	-5.173427	-0.215508	-0.872007	-0.667708	-2.625260	-0.775879	0.538574	0.541260	0.183992	-0.624397	0.317799	-0.689405
13731		8.615434	-5.247899	-0.146727	-0.966784	-0.671812	-2.645420	-0.800537	0.513916	0.562256	0.165502	-0.636559	0.308509	-0.687185
13732		8.865452	-5.466316	0.023145	-1.030629	-0.675363	-2.642930	-0.812744	0.461670	0.577637	0.146627	-0.648450	0.299398	-0.684378
13733		8.728152	-5.564635	0.107357	-1.016154	-0.668234	-2.622175	-0.840088	0.417480	0.597900	0.127818	-0.659855	0.290158	-0.681221
13734		9.124087	-5.895464	-0.627609	-0.872857	-0.645936	-2.633439	-0.844238	0.377197	0.617432	0.109604	-0.670629	0.279899	-0.678159
13735		9.276859	-5.834391	-0.666306	-0.654493	-0.574924	-2.687216	-0.852295	0.337891	0.626465	0.092084	-0.680557	0.268012	-0.675672
13736		9.450948	-4.863853	-0.705039	-0.492623	-0.529124	-2.656409	-0.864014	0.296875	0.634521	0.075503	-0.689665	0.255281	-0.673419
13737		9.610843	-4.308044	-0.713818	-0.522388	-0.491211	-2.537795	-0.875000	0.259277	0.644287	0.059297	-0.697979	0.243293	-0.670908
13738		9.831206	-4.552750	-0.790428	-0.614045	-0.429001	-2.429537	-0.869629	0.216797	0.653076	0.043009	-0.705446	0.232364	-0.668209
13739		10.062485	-4.647938	-0.815113	-0.597738	-0.365424	-2.376194	-0.877441	0.189453	0.650391	0.026972	-0.712142	0.221580	-0.665604
13740		10.459239	-4.473219	-1.265429	-0.476988	-0.327032	-2.359097	-0.887207	0.142578	0.666748	0.011666	-0.718267	0.210145	-0.663171
13741		10.651931	-3.915576	-1.279346	-0.395353	-0.297690	-2.295415	-0.894043	0.095215	0.673340	-0.002855	-0.723827	0.198562	-0.660787
13742		10.714459	-3.401702	-1.186910	-0.402826	-0.294322	-2.161894	-0.889893	0.062988	0.674072	-0.016691	-0.728884	0.187756	-0.658177
13743		10.578221	-3.417303	-1.049313	-0.456562	-0.300364	-2.018985	-0.896240	0.036377	0.686523	-0.030053	-0.733508	0.178054	-0.655255
13744		10.382552	-3.263786	-1.182587	-0.437669	-0.328091	-1.914596	-0.890381	0.005859	0.678223	-0.042679	-0.737921	0.168845	-0.652030
13745		10.399183	-2.860552	-1.550059	-0.343073	-0.352118	-1.845872	-0.889160	-0.018311	0.690918	-0.054304	-0.742205	0.159513	-0.648644
13746		10.541869	-2.228044	-1.885407	-0.227962	-0.372260	-1.805610	-0.876221	-0.047607	0.688965	-0.064958	-0.746414	0.149780	-0.645145
13747		10.599426	-1.476015	-2.140934	-0.156849	-0.384629	-1.777416	-0.872559	-0.076172	0.696045	-0.074986	-0.750518	0.139814	-0.641523
13748		10.476362	-1.079042	-2.104991	-0.170048	-0.409461	-1.739845	-0.872314	-0.100098	0.701416	-0.084850	-0.754534	0.130140	-0.637607
13749		10.182432	-1.033556	-1.884818	-0.195858	-0.428544	-1.702182	-0.861084	-0.125000	0.715820	-0.094636	-0.758426	0.120826	-0.633431
13750		9.623206	-0.881568	-1.781538	-0.174838	-0.455854	-1.660026	-0.853760	-0.155029	0.712402	-0.104019	-0.762277	0.111665	-0.629003
13751		9.058048	-0.604617	-1.853175	-0.124304	-0.469183	-1.583011	-0.851807	-0.168213	0.710693	-0.112643	-0.766019	0.102720	-0.624479
13752		8.752562	-0.207584	-1.962750	-0.106315	-0.486361	-1.463029	-0.834961	-0.198242	0.721680	-0.120492	-0.769629	0.094448	-0.619864
13753		8.736158	0.240544	-1.864062	-0.141723	-0.464247	-1.331316	-0.831543	-0.209961	0.726807	-0.127887	-0.772870	0.087168	-0.615401
13754		8.882879	0.241879	-1.928295	-0.204677	-0.421712	-1.197501	-0.819336	-0.231689	0.730469	-0.135015	-0.775631	0.081017	-0.611232
13755		9.059289	0.078559	-2.055552	-0.222321	-0.355106	-1.071805	-0.807861	-0.246826	0.732666	-0.141647	-0.777868	0.075687	-0.607560
13756		8.958263	-0.221716	-1.897979	-0.229515	-0.258093	-0.962076	-0.807129	-0.260742	0.738770	-0.147819	-0.779473	0.070986	-0.604592
13757		8.861527	-0.209786	-1.844308	-0.168586	-0.189709	-0.845422	-0.800781	-0.270508	0.735352	-0.153037	-0.780691	0.066651	-0.602211
13758		9.007213	-0.357574	-1.883969	-0.087738	-0.117802	-0.702823	-0.799072	-0.274658	0.738770	-0.157045	-0.781537	0.062746	-0.600499
13759		9.365961	-0.299321	-2.043790	0.051562	-0.044900	-0.540550	-0.794678	-0.288330	0.736572	-0.159367	-0.782094	0.059109	-0.599532
13760		9.602678	-0.081346	-2.171276	0.165535	0.017748	-0.372348	-0.792236	-0.291016	0.739502	-0.160131	-0.782393	0.055918	-0.599243
13761		9.710246	0.274763	-2.188130	0.155209	0.048077	-0.159737	-0.792480	-0.288086	0.743896	-0.159912	-0.782422	0.054128	-0.599428
13762		10.043309	0.204760	-2.079850	0.069252	0.080167	0.062144	-0.792236	-0.289795	0.738037	-0.159159	-0.782074	0.054175	-0.600078
13763		10.350057	-0.204350	-2.018182	0.051126	0.110514	0.262270	-0.803955	-0.288574	0.735107	-0.157534	-0.781457	0.055579	-0.601182
13764		10.664335	-0.312469	-2.068806	0.151915	0.128551	0.461697	-0.800049	-0.281006	0.738770	-0.154259	-0.780778	0.057758	-0.602705
13765		10.879786	-0.373318	-2.006526	0.222389	0.141987	0.664847	-0.805420	-0.271240	0.743408	-0.149505	-0.780003	0.060890	-0.604596
13766		10.775421	-0.722685	-1.760222	0.276827	0.175424	0.865244	-0.811279	-0.247070	0.737549	-0.143395	-0.778985	0.065011	-0.606954
13767		10.779178	-0.965555	-1.694280	0.390119	0.202670	1.061948	-0.815430	-0.237549	0.737061	-0.135558	-0.777797	0.069802	-0.609740
13768		10.824451	-1.041035	-1.753064	0.527243	0.252442	1.253753	-0.822510	-0.218018	0.733398	-0.125868	-0.776309	0.075081	-0.613078
13769		10.779955	-0.992573	-1.635404	0.603786	0.309823	1.449781	-0.833496	-0.188965	0.741211	-0.114696	-0.774360	0.081169	-0.616946
13770		10.637610	-0.845566	-1.635700	0.600630	0.368689	1.640348	-0.833496	-0.167725	0.729492	-0.102580	-0.771818	0.088433	-0.621252
13771		10.540730	-0.755370	-1.723956	0.529959	0.422272	1.856315	-0.848877	-0.129883	0.731201	-0.089814	-0.768584	0.097387	-0.625881
13772		10.429713	-1.069436	-1.651164	0.413505	0.490565	2.051633	-0.855957	-0.096924	0.729004	-0.076804	-0.764516	0.108120	-0.630814
13773		10.253335	-1.506653	-1.578279	0.339163	0.538198	2.219817	-0.866455	-0.061523	0.715820	-0.063398	-0.759729	0.120248	-0.635872
13774		10.173922	-1.962170	-1.461900	0.337575	0.574995	2.346250	-0.868652	-0.034668	0.708008	-0.049344	-0.754317	0.133119	-0.640977
13775		10.091091	-2.254954	-1.451434	0.403681	0.596381	2.447203	-0.881836	0.009521	0.705811	-0.034338	-0.748373	0.146206	-0.646051
13776		10.030999	-2.465935	-1.482634	0.480016	0.595503	2.524121	-0.884277	0.057373	0.687012	-0.018423	-0.742006	0.159294	-0.650932
13777		9.974270	-2.573148	-1.339886	0.538258	0.598916	2.578208	-0.882568	0.087891	0.684082	-0.001850	-0.735185	0.172321	-0.655595
13778		9.917460	-2.556102	-1.430374	0.557206	0.585785	2.627378	-0.885010	0.135742	0.669922	0.015125	-0.727981	0.185455	-0.659864
13779		10.048345	-2.850469	-1.392899	0.533476	0.575101	2.668098	-0.884033	0.177979	0.666016	0.032189	-0.720383	0.198865	-0.663675
13780		10.083958	-3.049325	-1.356180	0.469494	0.569351	2.666035	-0.881104	0.218506	0.656250	0.048850	-0.712450	0.212505	-0.666986
13781		10.090986	-3.478404	-1.434438	0.425803	0.560336	2.650534	-0.879150	0.264160	0.638916	0.065151	-0.704230	0.226178	-0.669820
13782		10.017001	-3.988902	-1.242161	0.406087	0.563506	2.612581	-0.866699	0.294922	0.638672	0.081082	-0.695704	0.239623	-0.672311
13783		9.654806	-4.297547	-1.073565	0.397859	0.546494	2.562158	-0.856689	0.338379	0.629395	0.096671	-0.687040	0.252686	-0.674374
13784		9.360634	-4.621750	-1.076121	0.429508	0.524194	2.524210	-0.849854	0.375488	0.613281	0.112239	-0.678221	0.265206	-0.676081
13785		9.205167	-4.933269	-1.123557	0.513019	0.515191	2.465334	-0.832031	0.407471	0.605713	0.127896	-0.669173	0.276796	-0.677668
13786		9.033926	-5.039448	-0.983035	0.551961	0.518541	2.391559	-0.822266	0.443604	0.587646	0.143285	-0.659942	0.287632	-0.679127
13787		9.011674	-5.188794	-0.908699	0.576587	0.535675	2.319201	-0.805176	0.481445	0.574219	0.158291	-0.650463	0.297826	-0.680545
13788		8.722087	-5.419741	-0.608620	0.518436	0.551840	2.212522	-0.781006	0.507080	0.567383	0.172290	-0.640980	0.307661	-0.681767
13789		8.095908	-5.494786	-0.381458	0.487213	0.542703	2.123182	-0.766113	0.540527	0.557373	0.185570	-0.631599	0.317070	-0.682725
13790		7.775695	-5.717827	-0.335874	0.463270	0.521595	2.079658	-0.751465	0.576904	0.538086	0.198473	-0.622268	0.326237	-0.683344
13791		7.468383	-6.154242	-0.045245	0.443205	0.523902	2.041938	-0.744629	0.586670	0.531250	0.210995	-0.612847	0.335208	-0.683765
13792		7.114121	-6.343167	0.151854	0.439065	0.503268	2.030207	-0.720215	0.623535	0.520752	0.223386	-0.603386	0.344011	-0.683872
13793		6.932540	-6.693314	0.309806	0.431608	0.492738	2.013041	-0.709229	0.651611	0.504883	0.235624	-0.593862	0.352629	-0.683712
13794		6.462846	-6.915808	0.323797	0.409361	0.483244	1.980512	-0.678955	0.668701	0.496826	0.247515	-0.584345	0.361083	-0.683298
13795		6.474247	-7.086858	0.348566	0.394712	0.484290	1.984193	-0.666260	0.697998	0.489990	0.259219	-0.574642	0.369568	-0.682650
13796		6.706827	-7.583287	0.378056	0.300070	0.476890	1.930754	-0.635498	0.715820	0.481934	0.270169	-0.565206	0.378172	-0.681570
13797		6.414686	-7.974438	0.351100	0.261050	0.471927	1.820555	-0.624023	0.734619	0.466553	0.280214	-0.556066	0.386386	-0.680424
13798		6.055597	-8.425297	0.550986	0.267172	0.453789	1.673042	-0.603027	0.753418	0.462402	0.289412	-0.547344	0.393764	-0.679415
13799		5.494771	-8.611328	0.628399	0.330516	0.416366	1.537002	-0.587891	0.759277	0.457275	0.298207	-0.539026	0.399984	-0.678629
13800		5.089389	-8.309331	0.753404	0.375661	0.368079	1.423468	-0.562500	0.784668	0.449463	0.306645	-0.531140	0.405262	-0.677954
13801		4.686278	-8.068339	0.658316	0.339239	0.344756	1.351812	-0.549072	0.783691	0.434082	0.314601	-0.523665	0.410274	-0.677109
13802		4.073604	-7.785638	0.710294	0.289194	0.338775	1.346194	-0.524170	0.797119	0.422119	0.322240	-0.516279	0.415492	-0.676005
13803		4.213036	-7.728281	0.794721	0.286681	0.346715	1.377882	-0.521973	0.811768	0.415771	0.330001	-0.508685	0.420805	-0.674731
13804		4.294629	-8.667850	0.981389	0.282825	0.338915	1.357471	-0.500488	0.826904	0.408447	0.337565	-0.501121	0.425992	-0.673393
13805		4.063966	-8.797615	0.904935	0.385220	0.309040	1.216981	-0.476074	0.829834	0.398193	0.344850	-0.493879	0.429865	-0.672590
13806		4.058264	-8.558800	0.966018	0.389534	0.276971	1.021938	-0.465820	0.849854	0.396729	0.351153	-0.487461	0.432763	-0.672153
13807		3.427687	-8.091170	0.989510	0.375737	0.233427	0.869891	-0.458252	0.856201	0.387939	0.356688	-0.481843	0.434953	-0.671876
13808		3.401641	-8.253404	1.209656	0.312275	0.189174	0.736658	-0.448730	0.854980	0.383789	0.361346	-0.477110	0.436813	-0.671558
13809		2.900685	-8.072386	1.259658	0.322708	0.160005	0.626658	-0.442871	0.866943	0.375977	0.365511	-0.472884	0.438075	-0.671471
13810		2.634269	-7.432792	1.237944	0.265581	0.113338	0.554771	-0.426758	0.866211	0.368164	0.369206	-0.469341	0.439217	-0.671189
13811		2.711964	-7.482289	1.240732	0.177549	0.093385	0.527145	-0.419434	0.875732	0.364014	0.372484	-0.466279	0.440661	-0.670566
13812		2.686477	-8.147624	1.473205	0.155016	0.089951	0.424977	-0.417969	0.876221	0.367188	0.375114	-0.463676	0.441810	-0.670147
13813		2.618535	-8.105141	1.523882	0.224347	0.062006	0.267345	-0.410889	0.875488	0.356445	0.377217	-0.461581	0.441877	-0.670369
13814		2.551880	-7.698459	1.715683	0.219889	0.021057	0.092424	-0.409668	0.873047	0.351807	0.378476	-0.460371	0.441163	-0.670961
13815		2.363522	-7.543935	1.722307	0.148586	-0.032926	-0.071664	-0.410156	0.874512	0.347656	0.378736	-0.460288	0.440049	-0.671603
13816		2.489228	-7.439893	1.655643	0.130176	-0.068815	-0.209302	-0.412842	0.873779	0.350098	0.378287	-0.460967	0.438394	-0.672472
13817		2.695064	-7.053203	1.720489	0.056397	-0.113613	-0.298403	-0.424316	0.875977	0.347900	0.377218	-0.462455	0.436665	-0.673175
13818		2.557680	-7.483301	1.733078	-0.080694	-0.141822	-0.371774	-0.418701	0.878418	0.359131	0.375288	-0.464785	0.435341	-0.673508
13819		2.728636	-7.315153	1.709291	-0.142623	-0.156472	-0.462532	-0.440674	0.876221	0.350830	0.372699	-0.467736	0.433937	-0.673808
13820		2.936995	-7.720567	1.755288	-0.216008	-0.168448	-0.553746	-0.434814	0.866943	0.365967	0.369292	-0.471274	0.432572	-0.674096
13821		3.040213	-7.811284	1.887269	-0.217916	-0.168150	-0.663869	-0.438965	0.861084	0.363281	0.365289	-0.475221	0.430750	-0.674673
13822		3.402462	-7.901115	1.920668	-0.211292	-0.179466	-0.740586	-0.454346	0.855225	0.373047	0.360916	-0.479474	0.428531	-0.675430
13823		3.625348	-8.075137	1.608307	-0.218055	-0.206269	-0.825476	-0.465820	0.856689	0.384521	0.356103	-0.484172	0.425916	-0.676286
13824		4.305591	-8.377994	1.439998	-0.265857	-0.220054	-0.967599	-0.482422	0.845459	0.379150	0.350336	-0.489572	0.422922	-0.677289
13825		4.534390	-8.615946	1.523458	-0.351537	-0.252752	-1.165590	-0.497314	0.839600	0.392578	0.343163	-0.496052	0.419482	-0.678386
13826		4.853915	-8.704173	1.436726	-0.432471	-0.323440	-1.387403	-0.501953	0.822754	0.402100	0.334615	-0.503881	0.415319	-0.679446
13827		5.040686	-8.816594	1.219941	-0.480733	-0.394370	-1.620914	-0.529785	0.801270	0.413818	0.324761	-0.512983	0.410156	-0.680552
13828		4.951421	-7.512978	0.801100	-0.498505	-0.444875	-1.765893	-0.556885	0.795166	0.414795	0.314077	-0.522785	0.404261	-0.681634
13829		5.149912	-7.878789	0.865230	-0.620744	-0.447124	-1.790236	-0.584961	0.774170	0.440430	0.302645	-0.532870	0.398847	-0.682185
13830		5.272887	-8.144583	0.845220	-0.611351	-0.446010	-1.781056	-0.598389	0.750244	0.443359	0.291209	-0.542751	0.393330	-0.682576
13831		5.503493	-7.878937	0.851704	-0.611126	-0.476361	-1.780908	-0.621582	0.727051	0.463623	0.279808	-0.552668	0.387631	-0.682648
13832		5.944633	-7.713336	0.425393	-0.629098	-0.508783	-1.769780	-0.643555	0.707764	0.476807	0.268407	-0.562628	0.381916	-0.682310
13833		6.389654	-7.732467	0.328774	-0.728010	-0.508816	-1.809710	-0.655273	0.685791	0.496338	0.256239	-0.572784	0.376476	-0.681561
13834		6.410929	-7.307175	0.295099	-0.766690	-0.489837	-1.892541	-0.676758	0.671631	0.504639	0.243306	-0.583022	0.370776	-0.680745
13835		6.442293	-7.208445	0.154757	-0.698997	-0.436952	-1.983684	-0.690430	0.634521	0.519775	0.229969	-0.592926	0.364222	-0.680364
13836		6.696794	-7.223001	0.208175	-0.567317	-0.408059	-2.035810	-0.715820	0.614258	0.533691	0.216805	-0.602383	0.356617	-0.680407
13837		7.159497	-6.777082	-0.043288	-0.461441	-0.415097	-2.073650	-0.730713	0.590576	0.535889	0.203914	-0.611609	0.348091	-0.680578
13838		7.480776	-6.273128	-0.168305	-0.465706	-0.417905	-2.118111	-0.755859	0.562500	0.554932	0.190759	-0.620799	0.339192	-0.680565
13839		7.608704	-5.795455	-0.214140	-0.527140	-0.417136	-2.148748	-0.765625	0.534180	0.558350	0.177010	-0.629956	0.330390	-0.680195
13840		7.707717	-5.659271	-0.335669	-0.588671	-0.396986	-2.163583	-0.780029	0.502686	0.583008	0.162777	-0.638910	0.321744	-0.679543
13841		8.004804	-5.616740	-0.445513	-0.604686	-0.383825	-2.181311	-0.796387	0.465088	0.587891	0.148262	-0.647653	0.313002	-0.678670
13842		8.175439	-5.405634	-0.469383	-0.597311	-0.387727	-2.188835	-0.819580	0.434326	0.595947	0.133663	-0.656170	0.304072	-0.677581
13843		8.329763	-5.349519	-0.514479	-0.564524	-0.392772	-2.185162	-0.828125	0.407227	0.603271	0.119217	-0.664415	0.294864	-0.676311
13844		8.383008	-5.328574	-0.547457	-0.520290	-0.393696	-2.184262	-0.836914	0.370850	0.616943	0.105008	-0.672388	0.285288	-0.674891
13845		8.403885	-4.999488	-0.430716	-0.488470	-0.392635	-2.152798	-0.854980	0.336914	0.626221	0.091097	-0.680020	0.275619	-0.673282
13846		8.838141	-4.659307	-0.752839	-0.461846	-0.376468	-2.087788	-0.858643	0.301025	0.635498	0.077627	-0.687157	0.266092	-0.671554
13847		9.298799	-4.793048	-0.932362	-0.446219	-0.346833	-2.057921	-0.865967	0.277588	0.635010	0.064324	-0.693833	0.256581	-0.669794
13848		9.334530	-4.474166	-1.017634	-0.422531	-0.323602	-2.060342	-0.884277	0.241943	0.642578	0.051076	-0.700153	0.246856	-0.668011
13849		9.355149	-4.109162	-1.083426	-0.434389	-0.336182	-2.007970	-0.883301	0.210938	0.657471	0.038059	-0.706226	0.237423	-0.665903
13850		9.670922	-4.052663	-1.090519	-0.463691	-0.329277	-1.945765	-0.881348	0.179688	0.667725	0.025191	-0.711940	0.228450	-0.663564
13851		9.930982	-4.015172	-1.332633	-0.439768	-0.326141	-1.928433	-0.888184	0.154297	0.664795	0.012547	-0.717398	0.219386	-0.661100
13852		10.261342	-3.835703	-1.501025	-0.344529	-0.321128	-1.904889	-0.887207	0.126953	0.666504	0.000590	-0.722579	0.209880	-0.658657
13853		10.410006	-3.261968	-1.548752	-0.297545	-0.339568	-1.882643	-0.888672	0.088623	0.674805	-0.010929	-0.727633	0.200196	-0.656013
13854		10.509443	-2.974709	-1.683879	-0.277758	-0.344421	-1.834499	-0.884521	0.057617	0.676270	-0.022054	-0.732450	0.190647	-0.653211
13855		10.492862	-2.781291	-1.627031	-0.300023	-0.370415	-1.762766	-0.886963	0.037354	0.682373	-0.032878	-0.737116	0.181617	-0.650073
13856		10.476744	-2.385419	-1.691221	-0.329987	-0.394374	-1.689020	-0.882080	0.007080	0.687500	-0.043442	-0.741627	0.173170	-0.646618
13857		10.236298	-2.151549	-1.732907	-0.327838	-0.416319	-1.660962	-0.881348	-0.022461	0.693359	-0.053801	-0.746059	0.164857	-0.642903
13858		10.225177	-1.616389	-2.074782	-0.264665	-0.435995	-1.651684	-0.873291	-0.048340	0.700195	-0.063678	-0.750456	0.156239	-0.639023
13859		10.538460	-1.133007	-2.487271	-0.216727	-0.429764	-1.641773	-0.868408	-0.069580	0.706543	-0.073198	-0.754679	0.147394	-0.635119
13860		10.523212	-1.003434	-2.267842	-0.213750	-0.408201	-1.647093	-0.857910	-0.105713	0.712158	-0.082739	-0.758645	0.138457	-0.631222
13861		10.067966	-0.846879	-1.797931	-0.224804	-0.392963	-1.629263	-0.857422	-0.123535	0.706299	-0.092257	-0.762351	0.129654	-0.627295
13862		9.493708	-0.752532	-1.739973	-0.229160	-0.400884	-1.567051	-0.847900	-0.138428	0.721191	-0.101450	-0.765883	0.121252	-0.623241
13863		9.240024	-0.821592	-1.768022	-0.201289	-0.376283	-1.457682	-0.842041	-0.162598	0.728271	-0.109904	-0.769067	0.113362	-0.619359
13864		9.222593	-0.735111	-1.834680	-0.144823	-0.329752	-1.330061	-0.830078	-0.186768	0.722656	-0.117366	-0.771831	0.105942	-0.615856
13865		9.117035	-0.685991	-1.863303	-0.083868	-0.258219	-1.208714	-0.827148	-0.193604	0.726318	-0.123860	-0.774089	0.098909	-0.612913
13866		9.123998	-0.611092	-1.822939	-0.037222	-0.184409	-1.073760	-0.818848	-0.216553	0.738525	-0.129413	-0.775834	0.092426	-0.610567
13867		9.270813	-0.428484	-1.826867	-0.009993	-0.116075	-0.908298	-0.806152	-0.225098	0.726807	-0.133991	-0.777078	0.086796	-0.608821
13868		9.373680	-0.573297	-1.817733	-0.009419	-0.056427	-0.711864	-0.815430	-0.229004	0.731934	-0.137604	-0.777842	0.082368	-0.607653
13869		9.472777	-0.722039	-1.874851	0.029122	-0.014944	-0.506535	-0.804443	-0.235596	0.722656	-0.139951	-0.778279	0.079030	-0.607001
13870		9.756543	-0.838984	-2.128012	0.111657	0.025310	-0.260293	-0.807373	-0.240234	0.731934	-0.140541	-0.778436	0.076827	-0.606945
13871		9.996057	-1.106111	-2.074187	0.142531	0.080806	-0.003218	-0.812256	-0.236328	0.736084	-0.139664	-0.778181	0.076075	-0.607569
13872		10.112978	-1.257470	-1.804155	0.154102	0.130139	0.221603	-0.813965	-0.234131	0.736084	-0.137602	-0.777544	0.076669	-0.608780
13873		10.150653	-1.394969	-1.624444	0.215981	0.154829	0.440507	-0.817383	-0.228271	0.724854	-0.134041	-0.776701	0.078344	-0.610435
13874		10.337260	-1.420089	-1.691594	0.325196	0.176156	0.667167	-0.818115	-0.213867	0.738037	-0.128628	-0.775698	0.080910	-0.612536
13875		10.382762	-1.355766	-1.622643	0.420603	0.196960	0.882995	-0.827148	-0.195068	0.727051	-0.121502	-0.774502	0.084361	-0.615034
13876		10.558744	-1.336546	-1.707381	0.466135	0.232792	1.107846	-0.826904	-0.176025	0.728760	-0.112943	-0.772940	0.088992	-0.617971
13877		10.555849	-1.458739	-1.732918	0.478966	0.292221	1.323554	-0.836426	-0.160156	0.720459	-0.103219	-0.770825	0.094882	-0.621428
13878		10.498184	-1.500797	-1.656829	0.449119	0.353686	1.544619	-0.840576	-0.133301	0.732666	-0.092573	-0.768060	0.102282	-0.625342
13879		10.420640	-1.792383	-1.470858	0.388053	0.420929	1.760928	-0.851074	-0.104980	0.709717	-0.081225	-0.764545	0.111313	-0.629668
13880		10.358956	-2.268214	-1.410557	0.383851	0.486767	1.943859	-0.862549	-0.072510	0.716309	-0.068985	-0.760306	0.121462	-0.634368
13881		10.235420	-2.389959	-1.252510	0.441941	0.533065	2.084159	-0.864502	-0.032471	0.705566	-0.055658	-0.755472	0.132129	-0.639301
13882		10.280999	-2.459477	-1.368303	0.528890	0.572783	2.216632	-0.874512	-0.009766	0.699707	-0.041100	-0.750044	0.143103	-0.644411
13883		10.261093	-2.425605	-1.470222	0.592064	0.595025	2.315572	-0.882812	0.028809	0.690918	-0.025629	-0.744093	0.154294	-0.649509
13884		10.172067	-2.308205	-1.418499	0.611802	0.618919	2.392008	-0.890381	0.070068	0.687012	-0.009639	-0.737589	0.165779	-0.654512
13885		10.053541	-2.239003	-1.388387	0.553984	0.623886	2.446859	-0.888428	0.116943	0.669678	0.006292	-0.730636	0.177838	-0.659170
13886		10.016003	-2.559152	-1.441462	0.492936	0.636279	2.475185	-0.877686	0.144775	0.670410	0.021986	-0.723230	0.190320	-0.663500
13887		10.091448	-2.645737	-1.431614	0.480696	0.634523	2.473684	-0.885742	0.202881	0.657227	0.037588	-0.715498	0.202768	-0.667484
13888		10.384833	-2.978662	-1.489435	0.478926	0.630877	2.434515	-0.877930	0.229980	0.644775	0.052957	-0.707515	0.214892	-0.671148
13889		10.291224	-3.142994	-1.337821	0.458622	0.592535	2.342613	-0.876465	0.269531	0.627686	0.067719	-0.699607	0.226482	-0.674292
13890		10.125485	-3.119388	-1.170868	0.381342	0.521371	2.265208	-0.873535	0.303223	0.628174	0.081702	-0.691999	0.237922	-0.676650
13891		9.825949	-3.582033	-1.079813	0.307574	0.459350	2.171400	-0.857910	0.331787	0.617188	0.094825	-0.684729	0.249098	-0.678310
13892		9.278121	-4.140605	-0.846301	0.307023	0.417516	2.066482	-0.850830	0.368164	0.607178	0.107404	-0.677685	0.259560	-0.679585
13893		9.176900	-4.374585	-0.787876	0.376280	0.387367	2.005979	-0.843506	0.401855	0.600586	0.120073	-0.670668	0.269172	-0.680686
13894		9.019388	-4.518510	-0.553990	0.379336	0.382816	1.939988	-0.832275	0.420410	0.583984	0.132361	-0.663626	0.278311	-0.681634
13895		8.580616	-4.810698	-0.433238	0.334612	0.384018	1.904426	-0.817139	0.452881	0.582031	0.144099	-0.656503	0.287464	-0.682352
13896		8.062435	-5.088157	-0.317247	0.312834	0.409533	1.909857	-0.804688	0.478027	0.570312	0.155695	-0.649094	0.296691	-0.682943
13897		7.690313	-5.637402	0.014578	0.318288	0.462333	1.954375	-0.794922	0.505615	0.562500	0.167381	-0.641075	0.306120	-0.683592
13898		7.377799	-6.075397	0.184669	0.362193	0.512301	2.023988	-0.783691	0.535400	0.549805	0.179505	-0.632334	0.315654	-0.684320
13899		7.422680	-6.632513	0.189096	0.445325	0.570703	2.077168	-0.762939	0.550781	0.539307	0.192156	-0.622779	0.324976	-0.685283
13900		7.711723	-6.969353	0.272187	0.554365	0.637017	2.086692	-0.753906	0.587158	0.528809	0.205145	-0.612435	0.333738	-0.686628
13901		7.701203	-7.265533	0.357578	0.661230	0.692921	2.039464	-0.728760	0.626465	0.514160	0.218235	-0.601508	0.341592	-0.688387
13902		7.601216	-7.113649	0.149366	0.767596	0.705021	1.969449	-0.719482	0.643555	0.500732	0.231397	-0.590322	0.348360	-0.690377
13903		7.263692	-7.223800	0.273536	0.714668	0.685605	1.890580	-0.705078	0.672119	0.473877	0.243776	-0.579370	0.354911	-0.692056
13904		6.854448	-7.315772	0.472092	0.604416	0.632970	1.815298	-0.681641	0.682861	0.461670	0.255287	-0.568994	0.361507	-0.693100
13905		6.560729	-7.438499	0.416535	0.470429	0.552924	1.737616	-0.665527	0.720215	0.444580	0.265803	-0.559414	0.368296	-0.693371
13906		5.964096	-7.618172	0.686443	0.295406	0.476336	1.691613	-0.645264	0.736084	0.436768	0.275446	-0.550688	0.375598	-0.692675
13907		5.863698	-7.738243	0.668933	0.167263	0.419026	1.699986	-0.618652	0.749023	0.433838	0.284663	-0.542439	0.383465	-0.691145
13908		5.668840	-8.403382	0.627190	0.077824	0.412292	1.679867	-0.602539	0.775391	0.438477	0.293338	-0.534399	0.391646	-0.689191
13909		4.919430	-8.761949	1.050228	0.131189	0.447652	1.657741	-0.587646	0.773682	0.411621	0.301964	-0.525995	0.399414	-0.687470
13910		4.503662	-8.354755	1.189917	0.292534	0.496404	1.697879	-0.558594	0.793701	0.407471	0.311235	-0.516625	0.406506	-0.686283
13911		4.374234	-8.564845	1.201669	0.443628	0.550109	1.763523	-0.541748	0.804688	0.401367	0.321317	-0.506229	0.413034	-0.685485
13912		4.600207	-9.018163	1.229314	0.603751	0.559827	1.748998	-0.519531	0.821045	0.380127	0.331854	-0.495258	0.418517	-0.685154
13913		4.171682	-8.359528	1.121555	0.663204	0.494200	1.635236	-0.504639	0.849609	0.368408	0.342129	-0.484769	0.422904	-0.684908
13914		3.893447	-7.581951	1.072636	0.509664	0.416782	1.558332	-0.474121	0.855469	0.358643	0.351545	-0.475327	0.427541	-0.683878
13915		3.745515	-7.507891	1.097862	0.271382	0.369616	1.470805	-0.456299	0.870361	0.349854	0.359644	-0.467089	0.432958	-0.681932
13916		3.331711	-8.372377	1.551051	0.145546	0.350477	1.321486	-0.440674	0.871338	0.351074	0.366417	-0.459805	0.438386	-0.679805
13917		3.220890	-8.872499	1.724626	0.272391	0.328397	1.106595	-0.428955	0.883545	0.337891	0.372484	-0.452985	0.442159	-0.678642
13918		2.753713	-8.413567	1.812940	0.432994	0.282510	0.862523	-0.416504	0.891602	0.331543	0.377904	-0.446781	0.443926	-0.678605
13919		2.572728	-7.142318	1.536791	0.420139	0.205708	0.680384	-0.406982	0.893799	0.321533	0.382514	-0.441702	0.444816	-0.678765
13920		2.353817	-6.893906	1.425729	0.229809	0.159124	0.571732	-0.398438	0.892578	0.316406	0.385961	-0.437877	0.446217	-0.678372
13921		2.317499	-7.161330	1.537027	0.092449	0.111066	0.437643	-0.382324	0.900391	0.318115	0.388315	-0.435254	0.447742	-0.677711
13922		1.894705	-7.193284	1.745807	0.032766	0.063090	0.300036	-0.384033	0.902832	0.318115	0.389889	-0.433626	0.448925	-0.677069
13923		2.130936	-7.223081	1.624049	0.020983	0.032879	0.167460	-0.375244	0.912354	0.317871	0.390766	-0.432691	0.449603	-0.676711
13924		2.265804	-7.478224	1.641377	0.028166	0.012350	0.011371	-0.380127	0.898926	0.306396	0.390894	-0.432449	0.449595	-0.676797
13925		2.243530	-7.430035	1.718292	-0.026955	-0.033846	-0.148432	-0.385498	0.903809	0.316650	0.390057	-0.433225	0.449190	-0.677052
13926		2.156349	-7.743592	1.633948	-0.117916	-0.092282	-0.297335	-0.387451	0.901611	0.315186	0.388270	-0.435184	0.448567	-0.677235
13927		2.087208	-8.006027	1.745530	-0.126753	-0.124342	-0.489160	-0.383545	0.892578	0.324219	0.385488	-0.438068	0.447188	-0.677878
13928		2.344358	-7.562539	1.803167	-0.084463	-0.147354	-0.622359	-0.405762	0.892822	0.321533	0.382216	-0.441449	0.444982	-0.678988
13929		2.508292	-8.195525	1.758886	-0.092534	-0.169647	-0.703630	-0.411377	0.895508	0.317871	0.378483	-0.445247	0.442460	-0.680246
13930		2.508280	-7.820321	1.744105	-0.113927	-0.208329	-0.768738	-0.421631	0.880127	0.330322	0.374444	-0.449564	0.439669	-0.681450
13931		2.662815	-7.901730	1.839950	-0.215134	-0.220134	-0.799643	-0.433594	0.878906	0.335205	0.369873	-0.454354	0.437283	-0.682305
13932		3.305854	-8.916417	1.834889	-0.238853	-0.236302	-0.895169	-0.446045	0.877441	0.333984	0.364708	-0.459633	0.434594	-0.683267
13933		3.752053	-9.243134	1.758984	-0.228338	-0.274780	-1.124373	-0.463379	0.858154	0.343262	0.358389	-0.465895	0.430815	-0.684760
13934		3.733669	-8.854737	1.755543	-0.282704	-0.339678	-1.373657	-0.487061	0.858154	0.353027	0.350610	-0.473521	0.426144	-0.686477
13935		3.529735	-7.904395	1.792700	-0.334682	-0.401352	-1.529314	-0.499268	0.848145	0.364502	0.341898	-0.482130	0.420907	-0.688109
13936		3.817126	-7.762693	1.520596	-0.383710	-0.420247	-1.567110	-0.525635	0.828857	0.368896	0.332804	-0.491047	0.415651	-0.689455
13937		4.504531	-8.170345	1.520036	-0.392286	-0.424300	-1.586045	-0.541748	0.814453	0.392334	0.323486	-0.499966	0.410292	-0.690689
13938		5.389109	-8.257193	1.395553	-0.440272	-0.463194	-1.659900	-0.562988	0.799561	0.393311	0.313631	-0.509401	0.404699	-0.691639
13939		6.019089	-8.459937	1.055843	-0.541663	-0.518563	-1.824745	-0.585693	0.783447	0.416016	0.302499	-0.519851	0.398750	-0.692277
13940		5.876124	-7.844959	0.870407	-0.629407	-0.574068	-2.033395	-0.606689	0.760498	0.417725	0.289884	-0.531385	0.392138	-0.692694
13941		5.790125	-6.999309	0.956095	-0.726715	-0.602833	-2.170601	-0.634766	0.739502	0.442871	0.276036	-0.543578	0.385265	-0.692746
13942		5.748844	-6.876224	0.977626	-0.753988	-0.573581	-2.204297	-0.656006	0.710938	0.458252	0.261667	-0.555565	0.378314	-0.692645
13943		5.823016	-7.382911	0.806779	-0.612037	-0.543777	-2.172351	-0.679199	0.691406	0.465820	0.247952	-0.566758	0.370605	-0.692789
13944		6.789970	-7.208294	0.557304	-0.424026	-0.527508	-2.152530	-0.702881	0.663086	0.490479	0.235121	-0.577207	0.361786	-0.693297
13945		7.109317	-6.430465	0.235796	-0.444833	-0.520835	-2.180317	-0.716309	0.631836	0.493652	0.221904	-0.587542	0.352856	-0.693574
13946		7.342547	-5.779872	0.173716	-0.673639	-0.548543	-2.193226	-0.745605	0.600830	0.510986	0.207511	-0.598280	0.344984	-0.692811
13947		7.600518	-5.590496	0.039005	-0.873511	-0.548830	-2.227427	-0.757812	0.561768	0.521729	0.191817	-0.609221	0.337964	-0.691258
13948		7.767048	-6.057295	-0.085895	-0.929217	-0.537513	-2.288251	-0.782959	0.545166	0.548584	0.175360	-0.620085	0.330839	-0.689412
13949		7.899558	-6.338651	-0.268300	-0.747411	-0.534505	-2.347842	-0.803955	0.509033	0.556152	0.159505	-0.630592	0.322162	-0.687839
13950		8.244819	-6.122066	-0.400852	-0.532379	-0.538086	-2.394293	-0.817139	0.472168	0.558838	0.144419	-0.640665	0.311880	-0.686602
13951		8.476000	-5.397873	-0.334510	-0.456626	-0.561721	-2.381212	-0.828369	0.432373	0.578613	0.129802	-0.650468	0.301077	-0.685125
13952		8.746530	-5.251613	-0.357726	-0.549031	-0.559502	-2.334529	-0.836914	0.396484	0.593018	0.114885	-0.659974	0.290931	-0.683078
13953		9.252217	-5.020254	-0.709104	-0.637153	-0.504365	-2.314966	-0.854492	0.367676	0.602783	0.099417	-0.668927	0.281320	-0.680817
13954		9.592419	-5.568049	-0.812384	-0.611991	-0.429770	-2.345739	-0.862305	0.325439	0.611328	0.083697	-0.677226	0.271339	-0.678775
13955		9.719303	-5.096315	-0.726973	-0.525580	-0.397374	-2.330123	-0.873291	0.286865	0.625244	0.068441	-0.684966	0.260870	-0.676820
13956		9.745573	-4.805393	-0.543985	-0.529690	-0.366002	-2.238501	-0.883057	0.250977	0.631592	0.053584	-0.692064	0.250862	-0.674718
13957		9.719136	-5.033248	-0.512222	-0.511191	-0.349646	-2.157933	-0.890869	0.217773	0.637207	0.039233	-0.698642	0.241131	-0.672470
13958		9.720762	-4.735318	-0.810989	-0.371222	-0.326186	-2.141597	-0.889893	0.177490	0.646240	0.025729	-0.704770	0.230638	-0.670406
13959		10.036858	-4.034457	-1.167257	-0.270914	-0.331352	-2.105203	-0.895020	0.152100	0.644043	0.013019	-0.710603	0.219723	-0.668278
13960		10.273112	-3.511496	-1.132011	-0.321587	-0.341208	-2.016317	-0.898193	0.126221	0.652832	0.000518	-0.716115	0.209549	-0.665784
13961		10.290924	-3.352154	-0.991081	-0.414276	-0.339154	-1.906958	-0.897949	0.096680	0.664062	-0.011932	-0.721221	0.200483	-0.662951
13962		10.131161	-3.931116	-0.481402	-0.411479	-0.358349	-1.791989	-0.899414	0.058838	0.671875	-0.023696	-0.726056	0.192043	-0.659849
13963		10.124104	-3.972000	-0.885285	-0.245610	-0.421204	-1.731296	-0.888916	0.028076	0.671631	-0.034015	-0.731000	0.183030	-0.656492
13964		10.172898	-3.038601	-1.163125	-0.097673	-0.452326	-1.673683	-0.890137	0.021240	0.681152	-0.043062	-0.735909	0.173530	-0.653047
13965		10.560682	-2.511359	-1.739522	-0.019352	-0.428433	-1.627034	-0.898193	-0.015625	0.681396	-0.051400	-0.740499	0.163850	-0.649748
13966		10.710212	-1.688031	-1.894477	-0.014363	-0.376821	-1.563763	-0.886230	-0.030518	0.692871	-0.059426	-0.744587	0.154482	-0.646679
13967		10.593104	-0.976124	-1.896935	-0.116789	-0.354935	-1.468609	-0.877197	-0.058594	0.701416	-0.067591	-0.748259	0.146220	-0.643552
13968		10.175329	-1.312702	-1.651848	-0.235765	-0.361193	-1.330017	-0.875732	-0.074219	0.698730	-0.075739	-0.751619	0.139443	-0.640225
13969		10.019926	-1.336425	-1.691405	-0.256020	-0.379879	-1.207798	-0.871094	-0.096924	0.703613	-0.083329	-0.754829	0.133535	-0.636755
13970		9.857193	-1.425900	-1.585613	-0.206449	-0.386557	-1.146807	-0.858398	-0.112793	0.713867	-0.090267	-0.757959	0.127739	-0.633271
13971		9.651431	-0.554377	-1.909523	-0.126823	-0.391222	-1.137152	-0.858643	-0.127930	0.712891	-0.096637	-0.761085	0.121576	-0.629786
13972		9.431854	0.002785	-2.138177	-0.098100	-0.396342	-1.125255	-0.850586	-0.153564	0.709717	-0.102746	-0.764173	0.115332	-0.626244
13973		9.391959	0.288541	-2.284242	-0.112018	-0.396246	-1.100941	-0.844727	-0.156006	0.718506	-0.108808	-0.767152	0.109303	-0.622649
13974		9.267411	0.490382	-2.217804	-0.161723	-0.358409	-1.082835	-0.837646	-0.176270	0.718994	-0.115118	-0.769802	0.103604	-0.619209
13975		9.097025	0.205187	-1.978904	-0.211303	-0.310753	-1.050097	-0.829590	-0.194824	0.727783	-0.121608	-0.772062	0.098316	-0.616007
13976		8.745684	-0.146777	-1.740390	-0.215820	-0.275348	-0.998510	-0.824219	-0.206299	0.728027	-0.127881	-0.774032	0.093339	-0.613033
13977		8.567577	-0.518784	-1.690522	-0.146675	-0.215645	-0.913055	-0.819824	-0.222168	0.732666	-0.133308	-0.775649	0.088492	-0.610546
13978		8.575321	-0.780753	-1.645286	-0.024890	-0.138765	-0.804812	-0.817627	-0.231934	0.724854	-0.137447	-0.776889	0.083638	-0.608734
13979		8.663900	-0.580580	-1.797580	0.092964	-0.052645	-0.674013	-0.807373	-0.233398	0.729980	-0.140212	-0.777705	0.078934	-0.607689
13980		8.898959	0.248507	-2.029912	0.068115	0.035085	-0.487467	-0.803711	-0.248291	0.737305	-0.142247	-0.777906	0.075464	-0.607399
13981		9.067275	0.165409	-1.866640	-0.086326	0.086900	-0.228543	-0.811279	-0.249023	0.727783	-0.144003	-0.777490	0.074393	-0.607650
13982		9.495563	-0.087492	-1.992825	-0.234142	0.131665	0.040541	-0.819824	-0.248047	0.729004	-0.145381	-0.776499	0.075763	-0.608418
13983		10.030277	-0.981068	-1.745406	-0.274628	0.197891	0.303311	-0.813721	-0.250732	0.725342	-0.145728	-0.774950	0.078960	-0.609903
13984		10.376289	-1.970927	-1.307389	-0.117750	0.235164	0.510061	-0.824219	-0.240967	0.718262	-0.144032	-0.773249	0.082652	-0.611972
13985		10.687502	-1.828692	-1.381448	0.152273	0.244879	0.667476	-0.828125	-0.238770	0.720459	-0.139793	-0.771689	0.085974	-0.614461
13986		10.918922	-1.486494	-1.652437	0.366596	0.245380	0.853984	-0.836670	-0.216553	0.725098	-0.133212	-0.770202	0.089398	-0.617294
13987		11.156712	-0.652705	-1.890454	0.417194	0.254939	1.059479	-0.838867	-0.205566	0.723145	-0.125245	-0.768504	0.093868	-0.620406
13988		11.515740	-0.436769	-2.138571	0.290054	0.269720	1.289954	-0.835693	-0.178223	0.723145	-0.116897	-0.766330	0.100449	-0.623686
13989		11.654852	-0.767532	-2.141695	0.113964	0.312341	1.500348	-0.852539	-0.166016	0.710205	-0.108598	-0.763473	0.109233	-0.627204
13990		11.459872	-1.694047	-1.881446	0.045020	0.354575	1.685619	-0.860352	-0.137451	0.717041	-0.099787	-0.760019	0.119501	-0.630978
13991		11.107472	-2.550393	-1.520493	0.148531	0.386845	1.853279	-0.878174	-0.111328	0.712158	-0.089447	-0.756138	0.130233	-0.635054
13992		10.808233	-3.088703	-1.409199	0.362356	0.407608	2.019852	-0.879883	-0.083984	0.702637	-0.076875	-0.751912	0.140837	-0.639440
13993		10.572474	-3.223487	-1.185530	0.587691	0.455423	2.168287	-0.887451	-0.045166	0.697021	-0.062130	-0.747144	0.151095	-0.644271
13994		10.302478	-2.929699	-1.309286	0.771592	0.497316	2.327000	-0.891113	-0.004883	0.688965	-0.045414	-0.741743	0.161276	-0.649419
13995		10.111125	-2.636944	-1.244633	0.814826	0.534859	2.504843	-0.893311	0.042969	0.679443	-0.027497	-0.735564	0.172233	-0.654619
13996		10.281921	-2.625799	-1.225382	0.780219	0.580833	2.652139	-0.893555	0.087646	0.673584	-0.009041	-0.728521	0.184180	-0.659737
13997		10.151925	-2.697779	-1.164315	0.687681	0.609473	2.730562	-0.896484	0.132080	0.654541	0.009246	-0.720777	0.197003	-0.664519
13998		10.044925	-2.771102	-1.172656	0.615270	0.608378	2.785679	-0.891113	0.176270	0.649658	0.027396	-0.712526	0.210445	-0.668782
13999		9.947072	-3.080977	-1.296410	0.562895	0.604985	2.811125	-0.890869	0.217041	0.637451	0.045368	-0.703837	0.224197	-0.672526
14000		9.803658	-3.419554	-1.109344	0.507653	0.600112	2.810987	-0.888184	0.269531	0.629883	0.062989	-0.694772	0.238126	-0.675737
14001		9.779808	-3.952728	-0.992806	0.516259	0.605762	2.794956	-0.875488	0.311768	0.625488	0.080531	-0.685291	0.251765	-0.678605
14002		9.699648	-4.337572	-0.729852	0.551590	0.586610	2.727952	-0.859131	0.354004	0.596680	0.097889	-0.675642	0.264660	-0.681087
14003		9.528528	-4.299439	-0.786998	0.587525	0.560509	2.634258	-0.845947	0.399170	0.593262	0.114910	-0.665937	0.276664	-0.683214
14004		9.269381	-4.433708	-0.863634	0.554179	0.540583	2.536758	-0.839600	0.422119	0.583008	0.131194	-0.656273	0.288140	-0.684886
14005		8.950594	-4.629502	-0.862045	0.484437	0.547922	2.449929	-0.817627	0.458740	0.568359	0.146459	-0.646525	0.299444	-0.686213
14006		8.601742	-5.105974	-0.575302	0.430119	0.561861	2.389269	-0.798828	0.502930	0.557617	0.161018	-0.636636	0.310591	-0.687241
14007		8.200943	-5.707472	-0.423406	0.439713	0.568187	2.312743	-0.784668	0.528320	0.546143	0.175140	-0.626637	0.321131	-0.688133
14008		7.808327	-5.999789	-0.070991	0.491156	0.566225	2.243055	-0.775635	0.558838	0.519775	0.189032	-0.616500	0.330897	-0.688986
14009		7.736037	-6.194582	-0.121145	0.547752	0.555566	2.198458	-0.750244	0.594971	0.512207	0.202912	-0.606211	0.339961	-0.689755
14010		7.585116	-6.307730	-0.029538	0.563920	0.556928	2.166735	-0.739746	0.615479	0.506592	0.216635	-0.595764	0.348633	-0.690355
14011		7.059641	-6.299642	0.040624	0.520421	0.571983	2.137437	-0.706543	0.650635	0.491211	0.229830	-0.585171	0.357316	-0.690708
14012		6.686541	-6.859554	0.216727	0.459620	0.604167	2.114282	-0.691162	0.677002	0.482666	0.242434	-0.574375	0.366159	-0.690830
14013		6.467926	-7.315623	0.388601	0.457335	0.628448	2.067246	-0.670898	0.689209	0.462891	0.254589	-0.563386	0.374714	-0.690919
14014		6.244775	-7.701687	0.617762	0.499161	0.620329	1.998120	-0.647217	0.722168	0.459229	0.266415	-0.552352	0.382604	-0.691046
14015		5.993319	-7.938016	0.651396	0.570250	0.583224	1.924578	-0.627930	0.745117	0.441650	0.278219	-0.541453	0.389516	-0.691159
14016		5.348415	-7.678604	0.715328	0.597835	0.539011	1.863792	-0.603760	0.763916	0.425049	0.289850	-0.530777	0.395778	-0.691102
14017		5.187915	-7.733615	0.742100	0.526343	0.503264	1.821535	-0.590332	0.785156	0.419678	0.300960	-0.520473	0.402065	-0.690561
14018		4.881709	-7.898137	0.884168	0.423630	0.469201	1.753962	-0.565674	0.797363	0.402344	0.311255	-0.510708	0.408470	-0.689529
14019		4.280209	-7.783283	1.029186	0.337472	0.412484	1.670932	-0.538574	0.810547	0.394775	0.320824	-0.501654	0.414777	-0.688023
14020		4.453513	-8.163289	1.115844	0.294531	0.365153	1.599336	-0.521973	0.828125	0.383057	0.329917	-0.493141	0.420806	-0.686213
14021		4.235299	-8.427242	1.238708	0.312897	0.342878	1.484187	-0.500732	0.837891	0.375732	0.338436	-0.485014	0.426124	-0.684574
14022		3.884097	-8.349410	1.326362	0.334105	0.335847	1.384253	-0.481445	0.853271	0.369385	0.346442	-0.477145	0.430826	-0.683154
14023		3.324597	-8.274315	1.488759	0.376669	0.327075	1.310919	-0.467041	0.857666	0.359619	0.354191	-0.469404	0.434900	-0.681961
14024		2.967859	-7.795492	1.551545	0.422561	0.332857	1.296887	-0.450928	0.868408	0.351807	0.361950	-0.461469	0.438625	-0.680916
14025		3.068019	-7.684622	1.463778	0.413264	0.344287	1.340466	-0.430664	0.876709	0.343750	0.369824	-0.453271	0.442542	-0.679656
14026		3.238978	-8.357450	1.569777	0.353436	0.331541	1.291014	-0.411133	0.886475	0.340332	0.377192	-0.445451	0.446506	-0.678183
14027		2.781377	-8.315124	1.529496	0.287903	0.290125	1.090794	-0.392090	0.899414	0.315430	0.383306	-0.438771	0.449908	-0.676859
14028		2.480236	-8.151838	1.665536	0.166400	0.187553	0.835897	-0.381348	0.906982	0.331299	0.387897	-0.433984	0.452700	-0.675467
14029		2.264276	-8.045944	1.648085	0.093126	0.110587	0.597618	-0.372803	0.903809	0.317871	0.391171	-0.430757	0.454767	-0.674255
14030		2.054038	-8.053654	1.770295	0.101629	0.059701	0.390816	-0.367432	0.903564	0.320557	0.393483	-0.428555	0.455877	-0.673563
14031		2.069302	-7.972972	1.741332	0.090819	0.013087	0.255143	-0.364502	0.909180	0.321045	0.395168	-0.427162	0.456407	-0.673103
14032		2.049984	-7.816470	1.741854	0.028449	-0.013338	0.137320	-0.365479	0.914307	0.315674	0.396072	-0.426571	0.456776	-0.672696
14033		2.072714	-8.420776	1.883817	-0.052059	-0.047911	-0.018129	-0.357910	0.906006	0.323730	0.395939	-0.427025	0.456935	-0.672379
14034		1.874857	-8.246336	1.914264	-0.002832	-0.086421	-0.214879	-0.367188	0.901855	0.321533	0.395046	-0.428294	0.455978	-0.672746
14035		1.785944	-7.669885	2.021066	0.080244	-0.101343	-0.359227	-0.363770	0.905762	0.320557	0.393670	-0.429904	0.454002	-0.673861
14036		1.866201	-7.114355	1.745442	0.096169	-0.118522	-0.409252	-0.375000	0.899658	0.319336	0.392161	-0.431761	0.451679	-0.675114
14037		2.406435	-7.504768	1.855057	0.040753	-0.118041	-0.425785	-0.386475	0.905518	0.312500	0.390330	-0.433841	0.449616	-0.676218
14038		2.488093	-8.232118	1.784306	0.013084	-0.114579	-0.517532	-0.391357	0.905029	0.323242	0.387847	-0.436320	0.447388	-0.677527
14039		2.510926	-8.658942	1.982736	0.050382	-0.147959	-0.690635	-0.394287	0.890869	0.319580	0.384655	-0.439512	0.444192	-0.679384
14040		2.499006	-7.653965	1.897255	0.031567	-0.204348	-0.848000	-0.411133	0.891113	0.323730	0.380701	-0.443653	0.440322	-0.681436
14041		2.840488	-7.920428	1.633885	-0.089711	-0.230938	-0.929050	-0.429932	0.891357	0.327148	0.375907	-0.448597	0.436736	-0.683167
14042		3.257917	-8.475430	1.665683	-0.125316	-0.241716	-1.041127	-0.424561	0.884766	0.329834	0.370341	-0.454085	0.432875	-0.685036
14043		3.236084	-8.320143	1.630850	-0.182183	-0.290810	-1.160215	-0.444824	0.875244	0.338623	0.364086	-0.460452	0.428664	-0.686785
14044		3.513540	-8.294100	1.681167	-0.281429	-0.328797	-1.246013	-0.468750	0.865479	0.351807	0.357041	-0.467588	0.424535	-0.688225
14045		4.010368	-8.888009	1.631671	-0.304295	-0.337258	-1.378809	-0.482666	0.855713	0.349609	0.349111	-0.475239	0.419949	-0.689864
14046		4.426543	-9.250808	1.726050	-0.267631	-0.340354	-1.575648	-0.507812	0.841064	0.357666	0.340157	-0.483419	0.414288	-0.692072
14047		4.658909	-8.379605	1.789502	-0.194116	-0.357500	-1.751500	-0.532715	0.831787	0.364746	0.330461	-0.491992	0.407371	-0.694830
14048		5.077104	-8.149797	1.631760	-0.225787	-0.374471	-1.857881	-0.555664	0.813721	0.366455	0.320001	-0.500998	0.400054	-0.697536
14049		4.958088	-8.330955	1.539364	-0.191482	-0.386068	-1.979216	-0.582520	0.795410	0.386475	0.308930	-0.510252	0.391894	-0.700446
14050		4.552757	-7.115674	1.584602	-0.179892	-0.432236	-2.063875	-0.611572	0.770264	0.380371	0.297476	-0.519874	0.383070	-0.703204
14051		5.141082	-6.262527	1.508223	-0.310344	-0.441002	-2.000771	-0.635498	0.757324	0.401611	0.285737	-0.529499	0.375162	-0.705152
14052		6.183606	-6.769402	1.241432	-0.518898	-0.435770	-1.923112	-0.653320	0.733154	0.401611	0.273456	-0.539205	0.368712	-0.706067
14053		6.951302	-7.424747	1.319807	-0.676360	-0.435537	-1.954152	-0.683105	0.707764	0.423340	0.260208	-0.549205	0.362932	-0.706361
14054		7.284338	-7.307776	1.359659	-0.771701	-0.460044	-2.078821	-0.701172	0.690674	0.444092	0.245750	-0.559746	0.356987	-0.706294
14055		7.239762	-7.237940	1.425976	-0.801654	-0.496316	-2.196554	-0.725098	0.662354	0.457275	0.230526	-0.570724	0.350428	-0.705927
14056		7.348345	-7.047898	1.143897	-0.732318	-0.526090	-2.280007	-0.744141	0.630615	0.470215	0.215136	-0.581754	0.342859	-0.705497
14057		7.598502	-6.692351	0.855138	-0.609218	-0.526924	-2.318874	-0.768066	0.603516	0.481934	0.200037	-0.592440	0.334225	-0.705191
14058		7.972006	-5.960913	0.623125	-0.595077	-0.525661	-2.306312	-0.792236	0.565430	0.494873	0.185011	-0.602817	0.325420	-0.704617
14059		8.467835	-5.815162	0.337565	-0.720522	-0.481514	-2.289682	-0.809570	0.531494	0.514893	0.169216	-0.612824	0.317389	-0.703617
14060		8.552310	-6.040683	0.585101	-0.846428	-0.437962	-2.321903	-0.825684	0.494873	0.524414	0.152415	-0.622588	0.309851	-0.702244
14061		8.858406	-5.965149	0.440062	-0.831141	-0.396758	-2.328911	-0.836914	0.468750	0.539307	0.135484	-0.631836	0.302098	-0.700831
14062		8.841310	-6.284501	0.469298	-0.738824	-0.356826	-2.305321	-0.856445	0.422119	0.554688	0.119037	-0.640424	0.293836	-0.699534
14063		8.737768	-5.940554	0.201147	-0.568164	-0.359497	-2.261401	-0.866699	0.388916	0.565186	0.103690	-0.648489	0.284707	-0.698321
14064		8.939317	-5.735446	-0.204302	-0.437980	-0.342296	-2.210115	-0.890869	0.354736	0.569092	0.089270	-0.655978	0.275004	-0.697206
14065		9.036616	-5.026608	-0.420189	-0.386419	-0.324473	-2.180080	-0.892822	0.320068	0.578125	0.075231	-0.663023	0.265084	-0.696040
14066		9.301800	-4.517886	-0.168302	-0.481876	-0.313827	-2.106159	-0.901855	0.277588	0.582520	0.061045	-0.669678	0.256043	-0.694440
14067		9.530521	-4.625707	-0.034542	-0.580372	-0.310013	-2.000165	-0.905273	0.253906	0.593994	0.046895	-0.675922	0.248084	-0.692376
14068		9.464521	-4.846088	-0.119795	-0.548730	-0.318607	-1.943118	-0.919922	0.222900	0.596680	0.033257	-0.681883	0.240185	-0.690102
14069		9.586271	-4.954883	-0.506024	-0.365180	-0.319768	-1.909866	-0.917969	0.185059	0.604736	0.020846	-0.687541	0.231354	-0.687988
14070		10.013611	-4.362638	-0.887127	-0.149520	-0.308312	-1.886276	-0.925781	0.168213	0.606201	0.009778	-0.692871	0.221366	-0.686172
14071		10.528929	-3.704546	-0.966068	-0.085926	-0.299700	-1.819190	-0.930420	0.131836	0.613037	-0.000557	-0.697852	0.211350	-0.684349
14072		10.397393	-3.430672	-0.764686	-0.160064	-0.309462	-1.729734	-0.927246	0.110596	0.619385	-0.010796	-0.702573	0.202230	-0.682186
14073		10.233798	-3.358762	-0.593285	-0.232178	-0.336324	-1.619493	-0.928955	0.084229	0.621582	-0.020783	-0.707112	0.194128	-0.679614
14074		10.081236	-3.279073	-0.762063	-0.239532	-0.350933	-1.540257	-0.924316	0.059082	0.620605	-0.030336	-0.711472	0.186503	-0.676834
14075		10.320994	-2.625279	-1.241003	-0.176069	-0.364260	-1.493966	-0.924072	0.042236	0.635010	-0.039227	-0.715729	0.178767	-0.673970
14076		10.685058	-2.192983	-1.246668	-0.183134	-0.361453	-1.474253	-0.919678	0.009521	0.635254	-0.048046	-0.719822	0.171160	-0.671008
14077		10.338747	-1.897830	-1.097778	-0.209731	-0.355846	-1.460556	-0.919678	-0.010498	0.640381	-0.056948	-0.723739	0.163755	-0.667940
14078		9.955136	-1.657678	-0.902168	-0.270984	-0.361366	-1.395934	-0.912598	-0.036621	0.631104	-0.065844	-0.727457	0.157059	-0.664683
14079		9.366991	-1.688664	-0.894156	-0.327593	-0.362633	-1.300364	-0.908203	-0.058105	0.647705	-0.074543	-0.730923	0.151235	-0.661304
14080		9.043521	-1.951060	-0.887827	-0.308826	-0.344415	-1.172715	-0.910889	-0.077637	0.648438	-0.082437	-0.734051	0.146057	-0.658058
14081		8.880219	-1.834053	-1.025705	-0.205234	-0.338309	-1.058981	-0.904785	-0.094238	0.662598	-0.089073	-0.737004	0.140991	-0.654990
14082		9.108513	-1.450530	-1.228310	-0.112075	-0.319537	-0.968592	-0.900391	-0.103516	0.652832	-0.094658	-0.739759	0.135948	-0.652161
