// Start Time: Unknown
// Update Rate: 60.0Hz
// Filter Profile: human (46.1)
// Firmware Version: 4.6.0
PacketCounter	SampleTimeFine	Acc_X	Acc_Y	Acc_Z	Gyr_X	Gyr_Y	Gyr_Z	Mag_X	Mag_Y	Mag_Z	Quat_q0	Quat_q1	Quat_q2	Quat_q3
21293		9.467044	-0.186785	-2.596743	0.008256	-0.004193	-0.003333	-0.850830	-0.209473	-0.096436	0.577536	0.227589	-0.761856	0.185018
21294		9.490159	-0.184412	-2.547773	0.014074	-0.003906	-0.005313	-0.842773	-0.214355	-0.095459	0.577492	0.227696	-0.761843	0.185074
21295		9.511156	-0.174453	-2.511139	0.013870	-0.004359	-0.004042	-0.840088	-0.214355	-0.092773	0.577446	0.227802	-0.761833	0.185130
21296		9.480030	-0.166401	-2.553870	0.016913	-0.004452	-0.007576	-0.848633	-0.219238	-0.095703	0.577399	0.227939	-0.761813	0.185193
21297		9.482295	-0.140620	-2.557050	0.020476	-0.007378	-0.010562	-0.846191	-0.213379	-0.097900	0.577331	0.228116	-0.761795	0.185258
21298		9.479550	-0.165047	-2.555740	0.019833	-0.005819	-0.009385	-0.835449	-0.217773	-0.098389	0.577275	0.228280	-0.761772	0.185327
21299		9.514961	-0.154187	-2.591322	0.023337	-0.007814	-0.008557	-0.841309	-0.221680	-0.099854	0.577199	0.228460	-0.761753	0.185418
21300		9.504572	-0.168875	-2.582394	0.026291	-0.004060	-0.010915	-0.837402	-0.216309	-0.104492	0.577147	0.228663	-0.761706	0.185523
21301		9.502314	-0.160583	-2.595231	0.031043	-0.003226	-0.013449	-0.841797	-0.219971	-0.093262	0.577096	0.228905	-0.761642	0.185647
21302		9.489288	-0.115086	-2.496250	0.030607	-0.001213	-0.013545	-0.843018	-0.222168	-0.101318	0.577060	0.229142	-0.761567	0.185771
21303		9.508102	-0.128685	-2.543252	0.027518	0.001686	-0.016922	-0.838379	-0.213379	-0.089844	0.577061	0.229383	-0.761472	0.185862
21304		9.500782	-0.084975	-2.550370	0.035669	-0.000630	-0.012629	-0.838379	-0.213623	-0.094971	0.577030	0.229641	-0.761379	0.186020
21305		9.492775	0.011162	-2.629484	0.024388	-0.002401	-0.009021	-0.846680	-0.216064	-0.092285	0.577009	0.229829	-0.761315	0.186114
21306		9.500708	-0.084101	-2.637568	0.021344	-0.002304	-0.005486	-0.846436	-0.217773	-0.095947	0.576991	0.229991	-0.761260	0.186193
21307		9.491337	-0.119939	-2.571259	0.025074	-0.003726	-0.001658	-0.840332	-0.215820	-0.094971	0.576951	0.230153	-0.761215	0.186304
21308		9.524987	-0.070243	-2.546685	0.021491	-0.000914	-0.002947	-0.849121	-0.218262	-0.095947	0.576939	0.230303	-0.761158	0.186389
21309		9.491014	-0.153456	-2.556524	-0.000885	0.004020	-0.000195	-0.840088	-0.217041	-0.095215	0.577007	0.230328	-0.761109	0.186348
21310		9.484939	-0.248849	-2.577894	0.013863	0.009745	-0.003994	-0.841553	-0.216797	-0.100342	0.577087	0.230433	-0.761004	0.186397
21311		9.496112	-0.168279	-2.615751	0.017418	0.009847	-0.005350	-0.842285	-0.222900	-0.094971	0.577164	0.230558	-0.760889	0.186474
21312		9.519226	-0.112582	-2.549472	0.009774	0.012356	-0.007467	-0.837402	-0.220215	-0.098633	0.577273	0.230659	-0.760773	0.186487
21313		9.514537	-0.076535	-2.542381	0.001719	0.013963	-0.007038	-0.845215	-0.227295	-0.097168	0.577408	0.230712	-0.760660	0.186461
21314		9.515782	-0.128214	-2.555272	0.001168	0.011673	-0.007033	-0.839844	-0.221436	-0.088379	0.577546	0.230783	-0.760547	0.186408
21315		9.490979	-0.122629	-2.615056	0.007990	0.015397	-0.003028	-0.849854	-0.214111	-0.100342	0.577670	0.230843	-0.760430	0.186426
21316		9.475919	-0.135152	-2.583032	0.018814	0.014064	-0.006175	-0.845215	-0.218750	-0.101807	0.577786	0.230986	-0.760277	0.186514
21317		9.512331	-0.092224	-2.543533	0.020886	0.013807	-0.005533	-0.844238	-0.222656	-0.104736	0.577894	0.231134	-0.760126	0.186613
21318		9.544148	-0.067060	-2.514002	0.012497	0.013692	-0.002105	-0.838867	-0.210449	-0.093262	0.578022	0.231226	-0.759986	0.186670
21319		9.524262	-0.012217	-2.578657	0.008372	0.014330	0.000878	-0.839844	-0.213135	-0.102051	0.578117	0.231250	-0.759892	0.186731
21320		9.439009	-0.065911	-2.593909	-0.007005	0.015279	0.005278	-0.837402	-0.208984	-0.100586	0.578267	0.231187	-0.759802	0.186712
21321		9.521763	-0.201982	-2.584075	0.011389	0.012263	0.003805	-0.843506	-0.220947	-0.100342	0.578347	0.231217	-0.759709	0.186803
21322		9.513434	-0.054925	-2.559795	0.014662	0.012736	0.003269	-0.843750	-0.219482	-0.100342	0.578450	0.231296	-0.759589	0.186876
21323		9.488199	0.217509	-2.491197	-0.007311	0.010653	0.010925	-0.852051	-0.223145	-0.102295	0.578567	0.231224	-0.759530	0.186842
21324		9.503032	0.215937	-2.474707	-0.067415	0.007617	0.029257	-0.846924	-0.222656	-0.096680	0.578793	0.230799	-0.759579	0.186470
21325		9.511042	0.204120	-2.481128	-0.114145	0.000882	0.040899	-0.841553	-0.219727	-0.097412	0.579030	0.230087	-0.759775	0.185812
21326		9.423969	-0.184419	-2.513065	-0.162775	-0.009401	0.050686	-0.836670	-0.221924	-0.098389	0.579273	0.229083	-0.760123	0.184873
21327		9.489154	-0.419961	-2.393189	-0.143640	-0.016981	0.046366	-0.842529	-0.219971	-0.099365	0.579429	0.228188	-0.760478	0.184025
21328		9.478293	-0.200052	-2.415743	-0.162420	-0.030253	0.047688	-0.843750	-0.209717	-0.099854	0.579550	0.227215	-0.760908	0.183070
21329		9.510566	-0.437885	-2.471762	-0.205756	-0.038894	0.043779	-0.841797	-0.208496	-0.097656	0.579684	0.226031	-0.761447	0.181866
21330		9.497320	-0.664718	-2.585964	-0.178634	-0.026243	0.023155	-0.845947	-0.208252	-0.098633	0.579856	0.225053	-0.761865	0.180778
21331		9.411803	-0.494982	-2.665411	-0.138169	-0.021913	-0.000576	-0.843750	-0.215088	-0.104248	0.580012	0.224407	-0.762150	0.179874
21332		9.473246	-0.300590	-2.596623	-0.126068	-0.021460	-0.019443	-0.842041	-0.218994	-0.101074	0.580198	0.223947	-0.762359	0.178963
21333		9.500991	-0.239795	-2.554202	-0.118155	-0.013435	-0.028191	-0.850830	-0.210205	-0.102539	0.580414	0.223569	-0.762519	0.178048
21334		9.502987	-0.294256	-2.387584	-0.119526	-0.014751	-0.034323	-0.842529	-0.215820	-0.103271	0.580633	0.223210	-0.762666	0.177152
21335		9.511189	-0.313020	-2.428181	-0.120759	-0.011691	-0.036240	-0.841797	-0.206543	-0.109375	0.580879	0.222843	-0.762800	0.176228
21336		9.490154	-0.275226	-2.568449	-0.131824	-0.009254	-0.041303	-0.839844	-0.207275	-0.104004	0.581180	0.222396	-0.762915	0.175301
21337		9.537650	-0.274387	-2.674626	-0.117394	-0.006211	-0.050132	-0.848389	-0.209961	-0.097412	0.581445	0.222068	-0.763012	0.174413
21338		9.508080	-0.211107	-2.602692	-0.064622	-0.007944	-0.062156	-0.844238	-0.206299	-0.101074	0.581588	0.222094	-0.763040	0.173778
21339		9.548092	-0.054727	-2.551959	-0.045482	-0.003890	-0.060649	-0.844971	-0.210449	-0.112305	0.581721	0.222166	-0.763023	0.173315
21340		9.485391	0.205142	-2.484627	-0.070964	-0.003585	-0.048802	-0.843994	-0.217773	-0.108643	0.581980	0.222030	-0.763000	0.172722
21341		9.508923	0.131077	-2.438646	-0.106409	-0.007341	-0.036257	-0.847656	-0.214111	-0.110596	0.582255	0.221706	-0.763073	0.171889
21342		9.534233	-0.015091	-2.440616	-0.089471	-0.009420	-0.033210	-0.847900	-0.211670	-0.100342	0.582498	0.221417	-0.763126	0.171195
21343		9.616886	0.103026	-2.330692	-0.084431	-0.000726	-0.031064	-0.832275	-0.215332	-0.105225	0.582696	0.221152	-0.763189	0.170588
21344		9.597595	0.421371	-2.155959	-0.143810	0.011401	-0.022893	-0.836182	-0.210449	-0.109375	0.583099	0.220578	-0.763264	0.169614
21345		9.567337	0.549811	-2.494161	-0.175637	0.018863	-0.008836	-0.843506	-0.218750	-0.105713	0.583640	0.219702	-0.763341	0.168541
21346		9.514539	0.260975	-2.535523	-0.158176	0.017904	0.017309	-0.839844	-0.209961	-0.104492	0.584100	0.218812	-0.763447	0.167624
21347		9.569968	0.296079	-2.627211	-0.142257	0.016436	0.032627	-0.839600	-0.211670	-0.111816	0.584452	0.217883	-0.763593	0.166941
21348		9.510623	0.025365	-2.706648	-0.078068	0.022779	0.031324	-0.831543	-0.210205	-0.114014	0.584798	0.217256	-0.763575	0.166627
21349		9.500919	-0.426455	-2.684448	0.003750	0.014765	0.027717	-0.841309	-0.211914	-0.111816	0.584943	0.217072	-0.763478	0.166798
21350		9.539049	-0.103428	-2.501149	0.064621	0.020553	0.018430	-0.843018	-0.217041	-0.122559	0.585010	0.217218	-0.763268	0.167334
21351		9.513422	0.280137	-2.427067	0.010030	0.012250	0.026250	-0.834717	-0.210693	-0.112793	0.585245	0.217027	-0.763110	0.167486
21352		9.503911	0.083752	-2.553811	-0.048490	0.010989	0.034909	-0.837158	-0.216797	-0.108887	0.585427	0.216546	-0.763134	0.167363
21353		9.467725	-0.056500	-2.639143	-0.033999	0.001333	0.032641	-0.840820	-0.209961	-0.106445	0.585498	0.216232	-0.763195	0.167242
21354		9.464899	0.028020	-2.560594	-0.006378	-0.005963	0.035629	-0.841309	-0.207764	-0.108887	0.585416	0.215999	-0.763295	0.167374
21355		9.467150	0.195102	-2.498573	-0.021123	-0.012155	0.044725	-0.836426	-0.213623	-0.116699	0.585331	0.215614	-0.763450	0.167458
21356		9.456754	0.088166	-2.496253	-0.049922	-0.018809	0.050596	-0.840088	-0.210205	-0.108887	0.585363	0.215085	-0.763613	0.167284
21357		9.476069	-0.119003	-2.586885	-0.091644	-0.021321	0.057618	-0.849121	-0.200439	-0.109131	0.585340	0.214330	-0.763923	0.166916
21358		9.435166	-0.493656	-2.585773	-0.061062	-0.020600	0.041250	-0.843262	-0.208496	-0.111572	0.585266	0.213719	-0.764183	0.166771
21359		9.494200	-0.299757	-2.608128	-0.003573	-0.020613	0.020107	-0.841797	-0.207275	-0.103516	0.585168	0.213593	-0.764287	0.166797
21360		9.511685	-0.063562	-2.558928	-0.011995	-0.025057	0.014933	-0.842773	-0.212646	-0.116455	0.584952	0.213510	-0.764483	0.166764
21361		9.498475	-0.153372	-2.656416	-0.010701	-0.017019	0.015497	-0.845703	-0.206055	-0.106201	0.584978	0.213378	-0.764519	0.166680
21362		9.473431	-0.217324	-2.769240	0.017777	-0.018176	0.009156	-0.850342	-0.197998	-0.112305	0.584794	0.213425	-0.764613	0.166831
21363		9.471323	-0.178153	-2.795435	0.050419	0.001437	0.001973	-0.845947	-0.205322	-0.114746	0.584742	0.213506	-0.764534	0.167270
21364		9.459723	-0.069364	-2.805700	0.081015	0.010247	-0.008857	-0.847168	-0.206299	-0.110107	0.584757	0.213858	-0.764314	0.167777
21365		9.488346	-0.059832	-2.656707	0.105825	0.014495	-0.009223	-0.839111	-0.204834	-0.105469	0.584687	0.214370	-0.764076	0.168450
21366		9.491159	0.013717	-2.637823	0.107429	0.017088	-0.004816	-0.841797	-0.203125	-0.110352	0.584552	0.214904	-0.763868	0.169177
21367		9.498405	-0.185444	-2.607073	0.116179	0.021209	-0.004780	-0.843750	-0.207031	-0.110352	0.584493	0.215400	-0.763597	0.169972
21368		9.532015	-0.066180	-2.614882	0.140641	0.021524	-0.008620	-0.837158	-0.207764	-0.109131	0.584408	0.216071	-0.763271	0.170872
21369		9.514064	-0.083690	-2.723177	0.157104	0.024341	-0.012487	-0.838867	-0.209961	-0.107178	0.584304	0.216880	-0.762902	0.171852
21370		9.493842	-0.216777	-2.746012	0.186079	0.031925	-0.010385	-0.843994	-0.208008	-0.103516	0.584166	0.217841	-0.762467	0.173031
21371		9.506673	-0.112354	-2.703605	0.227963	0.034057	-0.016313	-0.845703	-0.207275	-0.113281	0.583907	0.219022	-0.761993	0.174494
21372		9.500253	0.086801	-2.524894	0.238971	0.032969	-0.006727	-0.839600	-0.212158	-0.106445	0.583749	0.220071	-0.761454	0.176051
21373		9.542869	0.345920	-2.264378	0.215544	0.029736	0.009506	-0.844238	-0.218506	-0.111572	0.583508	0.221059	-0.761016	0.177502
21374		9.586459	0.240024	-2.347710	0.161294	0.024895	0.029825	-0.846191	-0.214111	-0.116943	0.583408	0.221678	-0.760649	0.178627
21375		9.535016	-0.037572	-2.559110	0.128614	0.023766	0.041727	-0.835938	-0.214111	-0.106934	0.583415	0.221948	-0.760330	0.179622
21376		9.489661	-0.223349	-2.658441	0.145050	0.022275	0.037879	-0.843506	-0.212646	-0.105957	0.583249	0.222461	-0.760051	0.180707
21377		9.474139	-0.227722	-2.681331	0.166529	0.024274	0.032349	-0.843262	-0.212646	-0.103516	0.583036	0.223076	-0.759742	0.181933
21378		9.380141	-0.465148	-2.732451	0.181717	0.031770	0.025607	-0.843018	-0.205566	-0.110107	0.582815	0.223819	-0.759378	0.183241
21379		9.449204	-0.708551	-2.550163	0.244447	0.030804	0.009016	-0.840820	-0.210693	-0.101074	0.582570	0.224805	-0.758869	0.184915
21380		9.566377	-0.345980	-2.434275	0.246089	0.031809	-0.006346	-0.842773	-0.201416	-0.098877	0.582233	0.226047	-0.758368	0.186508
21381		9.626186	-0.224015	-2.253298	0.191056	0.034557	-0.008402	-0.837646	-0.214111	-0.104248	0.581964	0.226888	-0.757995	0.187837
21382		9.567998	-0.029549	-2.376070	0.130984	0.031993	-0.012065	-0.840576	-0.213623	-0.104980	0.581929	0.227619	-0.757601	0.188648
21383		9.508039	-0.050513	-2.527632	0.104310	0.029191	-0.001975	-0.838623	-0.207520	-0.103027	0.581919	0.228131	-0.757283	0.189341
21384		9.467021	0.062904	-2.582914	0.100389	0.028353	0.006158	-0.839355	-0.209717	-0.107178	0.581854	0.228494	-0.757035	0.190090
21385		9.485009	-0.075819	-2.436979	0.083496	0.027064	0.018944	-0.847412	-0.211670	-0.109619	0.581862	0.228691	-0.756801	0.190760
21386		9.566688	-0.250993	-2.408732	0.116690	0.027611	0.015938	-0.844482	-0.210205	-0.110352	0.581841	0.229057	-0.756490	0.191618
21387		9.572832	-0.076616	-2.209754	0.085316	0.022373	0.029481	-0.843018	-0.208008	-0.104980	0.581837	0.229171	-0.756275	0.192337
21388		9.555657	-0.102351	-2.317375	0.044745	0.024968	0.033291	-0.838867	-0.203369	-0.109375	0.581838	0.229093	-0.756167	0.192851
21389		9.540205	-0.220464	-2.411993	-0.000187	0.021845	0.042391	-0.842529	-0.213379	-0.102539	0.581958	0.228638	-0.756144	0.193123
21390		9.490934	-0.427699	-2.417678	0.005170	0.018862	0.036636	-0.845703	-0.204590	-0.104736	0.581962	0.228510	-0.756119	0.193359
21391		9.521991	-0.460794	-2.315172	0.028654	0.016201	0.031904	-0.843262	-0.208252	-0.099609	0.581919	0.228349	-0.756096	0.193767
21392		9.493957	-0.328649	-2.328692	0.030160	0.016550	0.029910	-0.835938	-0.208008	-0.109375	0.581810	0.228349	-0.756076	0.194171
21393		9.538029	-0.301347	-2.295895	0.022381	0.017672	0.025215	-0.849609	-0.210693	-0.102051	0.581902	0.228246	-0.755964	0.194452
21394		9.539194	-0.272396	-2.309026	-0.015895	0.007357	0.018158	-0.844482	-0.209229	-0.100098	0.581874	0.228121	-0.756018	0.194475
21395		9.527885	-0.479709	-2.239837	-0.020610	0.002551	0.015266	-0.844482	-0.202881	-0.108398	0.581808	0.228013	-0.756107	0.194451
21396		9.551860	-0.340264	-2.263285	-0.016486	-0.004355	0.004829	-0.840820	-0.201172	-0.106445	0.581829	0.227789	-0.756175	0.194390
21397		9.489942	-0.318703	-2.448144	-0.033751	-0.002601	0.007235	-0.843994	-0.209961	-0.107178	0.581864	0.227467	-0.756282	0.194244
21398		9.532221	-0.437173	-2.474628	-0.011916	-0.003998	0.003584	-0.835938	-0.214355	-0.113037	0.581873	0.227436	-0.756302	0.194177
21399		9.541185	-0.368704	-2.383975	-0.000289	-0.002667	-0.000795	-0.845215	-0.203369	-0.115723	0.581989	0.227527	-0.756202	0.194111
21400		9.552270	-0.321039	-2.409528	0.004988	-0.004701	-0.002738	-0.841064	-0.205078	-0.110596	0.582085	0.227392	-0.756165	0.194125
21401		9.530180	-0.330484	-2.361033	0.002564	-0.006141	-0.000382	-0.845947	-0.204102	-0.105713	0.582104	0.227335	-0.756165	0.194136
21402		9.551879	-0.340199	-2.354253	-0.000512	-0.006296	-0.005394	-0.844482	-0.205566	-0.108643	0.582048	0.227323	-0.756211	0.194137
21403		9.562614	-0.238966	-2.365750	0.004054	-0.005940	-0.006637	-0.846191	-0.205078	-0.103027	0.582042	0.227334	-0.756213	0.194138
21404		9.538386	-0.220471	-2.387522	-0.006794	-0.013524	-0.004101	-0.855713	-0.206055	-0.104980	0.581914	0.227342	-0.756319	0.194098
21405		9.486977	-0.334324	-2.312875	-0.007577	-0.016257	-0.002811	-0.844482	-0.211670	-0.106201	0.581788	0.227302	-0.756440	0.194050
21406		9.485362	-0.346171	-2.357999	-0.016785	-0.022234	-0.003999	-0.846436	-0.207275	-0.118164	0.581698	0.227353	-0.756538	0.193875
21407		9.517818	-0.359895	-2.393651	-0.038758	-0.025283	-0.004477	-0.845215	-0.208008	-0.110596	0.581803	0.227081	-0.756627	0.193533
21408		9.560632	-0.344071	-2.310925	-0.055878	-0.025447	-0.009669	-0.839600	-0.200684	-0.101562	0.581837	0.226860	-0.756783	0.193080
21409		9.568224	-0.317386	-2.337257	-0.077256	-0.020254	-0.011208	-0.839355	-0.206543	-0.105225	0.581806	0.226543	-0.757031	0.192573
21410		9.491330	-0.329653	-2.425785	-0.087424	-0.020547	-0.013550	-0.846191	-0.209961	-0.109131	0.581867	0.226244	-0.757235	0.191936
21411		9.478038	-0.311267	-2.489004	-0.086967	-0.019639	-0.016110	-0.844971	-0.199707	-0.103516	0.581989	0.225947	-0.757400	0.191262
21412		9.491577	-0.272419	-2.405790	-0.084369	-0.019816	-0.017561	-0.847900	-0.204834	-0.105469	0.582002	0.225575	-0.757647	0.190682
21413		9.531341	-0.377230	-2.448993	-0.079625	-0.023991	-0.015258	-0.836426	-0.214111	-0.109863	0.582011	0.225270	-0.757878	0.190099
21414		9.564697	-0.512942	-2.458109	-0.037540	-0.024068	-0.019012	-0.850830	-0.207275	-0.108154	0.582050	0.225331	-0.757935	0.189678
21415		9.571752	-0.210320	-2.366799	-0.000887	-0.017449	-0.020097	-0.843750	-0.201660	-0.098877	0.582000	0.225415	-0.757978	0.189562
21416		9.511317	-0.264217	-2.498212	-0.030492	-0.007912	-0.014036	-0.844482	-0.199463	-0.112549	0.581925	0.225341	-0.758105	0.189372
21417		9.619098	-0.337843	-2.545406	0.019692	-0.001227	-0.008601	-0.841064	-0.213379	-0.102295	0.581986	0.225262	-0.758053	0.189485
21418		9.575214	-0.033095	-2.801612	0.024168	0.012089	-0.003811	-0.848877	-0.207031	-0.107422	0.581994	0.225516	-0.757931	0.189644
21419		9.455600	-0.135839	-2.842769	-0.006782	0.013557	0.001909	-0.844727	-0.204834	-0.112061	0.582109	0.225387	-0.757879	0.189655
21420		9.483933	-0.400287	-2.538884	0.022597	0.012435	-0.006543	-0.841797	-0.211670	-0.110840	0.582237	0.225388	-0.757746	0.189793
21421		9.503974	-0.251864	-2.311247	0.015614	0.010377	-0.011480	-0.844727	-0.205322	-0.107910	0.582370	0.225519	-0.757597	0.189823
21422		9.477217	-0.500697	-2.199029	-0.024476	0.007710	-0.017699	-0.849609	-0.206543	-0.112305	0.582508	0.225429	-0.757568	0.189624
21423		9.411845	-0.530010	-2.364848	-0.027285	0.003810	-0.037952	-0.848633	-0.206299	-0.111328	0.582713	0.225405	-0.757502	0.189282
21424		9.414303	-0.415816	-2.681371	-0.028358	0.001085	-0.048669	-0.843506	-0.207764	-0.115723	0.582902	0.225456	-0.757441	0.188887
21425		9.421632	-0.270371	-2.858528	-0.012796	0.009399	-0.057961	-0.837891	-0.208740	-0.105225	0.583195	0.225607	-0.757260	0.188528
21426		9.471800	-0.219028	-2.717445	0.011758	0.014514	-0.056832	-0.844971	-0.215820	-0.107178	0.583323	0.226025	-0.757071	0.188391
21427		9.489889	0.061595	-2.515766	0.042726	0.019419	-0.050755	-0.839355	-0.209717	-0.109131	0.583443	0.226574	-0.756803	0.188436
21428		9.578748	0.124418	-2.353188	0.021465	0.021301	-0.032102	-0.842773	-0.207275	-0.107178	0.583603	0.226811	-0.756599	0.188476
21429		9.589198	0.122738	-2.216472	-0.010604	0.015428	-0.015213	-0.845215	-0.209717	-0.114990	0.583718	0.226772	-0.756537	0.188416
21430		9.613401	0.128406	-2.251076	-0.068949	0.012338	-0.004152	-0.846436	-0.209229	-0.113525	0.584015	0.226313	-0.756553	0.187979
21431		9.472997	-0.175687	-2.501851	-0.108681	0.009343	-0.006979	-0.844727	-0.210205	-0.104736	0.584343	0.225700	-0.756655	0.187285
21432		9.502834	-0.319955	-2.615495	-0.101358	0.004889	-0.010388	-0.835205	-0.212646	-0.114502	0.584509	0.225293	-0.756804	0.186656
21433		9.488807	-0.044816	-2.586879	-0.102057	-0.004002	-0.016668	-0.846191	-0.206543	-0.113037	0.584778	0.224885	-0.756904	0.185897
21434		9.492761	-0.127531	-2.435279	-0.103264	-0.009735	-0.010697	-0.840820	-0.210449	-0.115967	0.584946	0.224346	-0.757103	0.185208
21435		9.544289	-0.238158	-2.430910	-0.056171	-0.017982	-0.009800	-0.842041	-0.214844	-0.113770	0.585027	0.224081	-0.757229	0.184758
21436		9.508626	-0.061214	-2.442775	-0.040291	-0.024701	-0.010959	-0.845459	-0.211426	-0.114014	0.585014	0.223987	-0.757361	0.184371
21437		9.564757	-0.176811	-2.373013	-0.062804	-0.020088	-0.002773	-0.843262	-0.208984	-0.108154	0.585050	0.223666	-0.757538	0.183917
21438		9.591784	-0.303351	-2.374597	-0.070859	-0.009768	-0.014549	-0.835449	-0.214600	-0.111572	0.585104	0.223421	-0.757689	0.183424
21439		9.513283	-0.532358	-2.318564	-0.064316	-0.009007	-0.024139	-0.842285	-0.208008	-0.101807	0.585234	0.223321	-0.757753	0.182864
21440		9.488466	-0.604847	-2.384289	-0.017372	-0.016895	-0.045070	-0.842285	-0.207764	-0.113525	0.585101	0.223604	-0.757838	0.182592
21441		9.527907	-0.515446	-2.395397	0.006260	-0.017067	-0.061801	-0.839111	-0.208008	-0.113281	0.585107	0.223948	-0.757796	0.182325
21442		9.541193	-0.312682	-2.523723	0.031392	-0.016669	-0.071986	-0.838623	-0.200439	-0.114014	0.585087	0.224482	-0.757690	0.182172
21443		9.530715	-0.015076	-2.571309	0.014426	-0.011612	-0.073470	-0.843994	-0.207520	-0.105713	0.585129	0.224816	-0.757611	0.181958
21444		9.522947	-0.026646	-2.637448	0.026396	-0.005952	-0.065927	-0.835449	-0.212891	-0.111084	0.585066	0.225319	-0.757527	0.181886
21445		9.498756	0.031782	-2.672326	0.067629	-0.003215	-0.060372	-0.843750	-0.216309	-0.106445	0.585031	0.225998	-0.757316	0.182034
21446		9.544148	0.072925	-2.501047	0.094401	-0.000541	-0.048655	-0.840332	-0.222412	-0.112061	0.584877	0.226787	-0.757103	0.182432
21447		9.559143	0.055743	-2.429248	0.089012	0.003199	-0.043342	-0.834717	-0.217529	-0.106689	0.584842	0.227511	-0.756835	0.182756
21448		9.567639	0.158183	-2.351219	0.062759	0.001288	-0.027247	-0.844971	-0.217285	-0.110840	0.584750	0.228027	-0.756679	0.183053
21449		9.567995	0.258233	-2.394987	0.024469	-0.000283	-0.015398	-0.838135	-0.217773	-0.108154	0.584746	0.228174	-0.756617	0.183140
21450		9.520630	0.111045	-2.478633	-0.013395	-0.003774	0.000827	-0.847900	-0.208008	-0.106689	0.584743	0.228107	-0.756656	0.183072
21451		9.538303	0.116279	-2.496647	0.001700	-0.007119	0.004197	-0.839355	-0.213135	-0.111084	0.584636	0.227952	-0.756761	0.183169
21452		9.478680	0.134193	-2.441474	-0.025547	-0.012455	0.014306	-0.851807	-0.211914	-0.112305	0.584613	0.227655	-0.756892	0.183071
21453		9.522634	-0.037931	-2.313584	-0.069146	-0.014449	0.017486	-0.841553	-0.216797	-0.115723	0.584652	0.227052	-0.757130	0.182710
21454		9.529615	-0.210395	-2.338060	-0.112594	-0.020266	0.019469	-0.840088	-0.224854	-0.109863	0.584801	0.226296	-0.757409	0.182016
21455		9.527046	-0.232630	-2.426080	-0.126174	-0.018600	0.016264	-0.842529	-0.216797	-0.108398	0.584928	0.225684	-0.757684	0.181221
21456		9.463599	-0.323673	-2.600142	-0.126826	-0.024338	0.015849	-0.837646	-0.210449	-0.107178	0.584981	0.225004	-0.758025	0.180467
21457		9.502652	-0.162632	-2.599650	-0.080970	-0.030310	0.010913	-0.849609	-0.216064	-0.102051	0.584896	0.224556	-0.758333	0.180008
21458		9.573267	0.226862	-2.354580	-0.070023	-0.030142	0.014607	-0.844238	-0.222168	-0.109131	0.584717	0.224227	-0.758655	0.179642
21459		9.558515	0.173509	-2.302881	-0.135553	-0.026536	0.027743	-0.840820	-0.217529	-0.113281	0.584774	0.223495	-0.759014	0.178847
21460		9.543039	-0.205928	-2.282351	-0.174539	-0.018055	0.038413	-0.845703	-0.211182	-0.104492	0.584990	0.222407	-0.759398	0.177866
21461		9.507509	-0.426517	-2.457689	-0.180831	-0.019972	0.027018	-0.840332	-0.208984	-0.115234	0.585094	0.221390	-0.759848	0.176870
21462		9.501561	-0.224923	-2.439988	-0.186610	-0.029769	0.020911	-0.844971	-0.209229	-0.108154	0.585285	0.220272	-0.760289	0.175731
21463		9.544100	-0.215842	-2.573395	-0.160266	-0.023372	0.009004	-0.837158	-0.214600	-0.114502	0.585391	0.219435	-0.760675	0.174757
21464		9.490514	-0.217413	-2.484228	-0.110068	-0.028994	0.007060	-0.846436	-0.204834	-0.110107	0.585463	0.218889	-0.760946	0.174014
21465		9.564093	0.059757	-2.481148	-0.083281	-0.020204	0.008066	-0.842285	-0.208984	-0.113281	0.585461	0.218359	-0.761210	0.173535
21466		9.572254	0.095802	-2.463358	-0.091598	-0.022427	0.017873	-0.838623	-0.203125	-0.112793	0.585495	0.217762	-0.761475	0.173005
21467		9.548577	-0.023615	-2.505936	-0.084846	-0.020870	0.028380	-0.841309	-0.204102	-0.112061	0.585502	0.217086	-0.761756	0.172597
21468		9.503621	-0.157009	-2.499476	-0.043798	-0.019233	0.030129	-0.845215	-0.204834	-0.107178	0.585432	0.216617	-0.761974	0.172459
21469		9.500960	-0.122143	-2.440801	-0.021062	-0.008674	0.023901	-0.844727	-0.210693	-0.112061	0.585336	0.216349	-0.762119	0.172483
21470		9.545099	-0.111386	-2.441586	-0.039132	-0.007339	0.017707	-0.835449	-0.211914	-0.114014	0.585359	0.216043	-0.762228	0.172302
21471		9.536644	-0.166255	-2.494486	-0.042987	-0.006231	0.023695	-0.844727	-0.203857	-0.110596	0.585424	0.215708	-0.762317	0.172108
21472		9.492408	-0.081513	-2.537165	-0.021369	-0.013484	0.020898	-0.834229	-0.200928	-0.107910	0.585344	0.215426	-0.762464	0.172082
21473		9.456166	-0.092265	-2.591831	-0.001279	-0.015178	0.019184	-0.842285	-0.209229	-0.119873	0.585199	0.215297	-0.762586	0.172198
21474		9.510576	-0.001126	-2.630222	0.005404	-0.018832	0.025891	-0.839111	-0.206787	-0.115967	0.585153	0.215084	-0.762666	0.172267
21475		9.505238	-0.029888	-2.470573	0.001532	-0.017757	0.027609	-0.845459	-0.204346	-0.112061	0.585074	0.214874	-0.762766	0.172353
21476		9.550014	-0.043707	-2.416743	-0.010172	-0.016736	0.026369	-0.843750	-0.201416	-0.109375	0.584970	0.214616	-0.762908	0.172396
21477		9.533500	-0.086862	-2.548903	-0.042661	-0.003504	0.028846	-0.844971	-0.200684	-0.108398	0.584974	0.214177	-0.763051	0.172298
21478		9.464571	-0.201997	-2.558727	-0.056171	0.003416	0.025242	-0.849609	-0.198242	-0.118408	0.585038	0.213693	-0.763179	0.172115
21479		9.444656	-0.075253	-2.736178	-0.032170	0.002757	0.019653	-0.846436	-0.196045	-0.102783	0.585167	0.213199	-0.763245	0.171996
21480		9.546853	0.017982	-2.672370	-0.009466	0.000065	0.021202	-0.843262	-0.200928	-0.115967	0.585051	0.213019	-0.763349	0.172152
21481		9.417406	-0.247264	-2.557660	0.011545	-0.003530	0.021726	-0.843994	-0.203369	-0.115967	0.585041	0.212830	-0.763374	0.172308
21482		9.465955	-0.343244	-2.451792	0.025879	-0.017568	0.010930	-0.843750	-0.198486	-0.115967	0.584934	0.212829	-0.763421	0.172467
21483		9.501873	-0.237145	-2.442893	-0.008692	-0.023286	0.004341	-0.842529	-0.202148	-0.112793	0.584858	0.212657	-0.763546	0.172384
21484		9.459749	-0.120416	-2.575482	-0.050146	-0.024882	0.004693	-0.845215	-0.201660	-0.111816	0.584816	0.212368	-0.763735	0.172042
21485		9.518919	-0.177564	-2.612261	-0.055401	-0.028042	0.002870	-0.842529	-0.199463	-0.111572	0.584753	0.212070	-0.763952	0.171660
21486		9.467461	-0.183083	-2.683847	-0.021498	-0.026837	-0.001276	-0.848877	-0.196289	-0.108643	0.584642	0.211954	-0.764108	0.171487
21487		9.467932	-0.219843	-2.748994	0.013925	-0.023079	-0.005276	-0.844238	-0.205811	-0.108398	0.584455	0.212015	-0.764217	0.171563
21488		9.441204	-0.249502	-2.713976	0.053579	-0.021578	-0.011396	-0.847412	-0.197266	-0.109375	0.584237	0.212416	-0.764216	0.171817
21489		9.476479	-0.246386	-2.578114	0.090225	-0.020048	-0.018278	-0.842529	-0.200684	-0.101074	0.583973	0.212916	-0.764169	0.172304
21490		9.518762	-0.196678	-2.519331	0.081984	-0.018060	-0.021296	-0.838623	-0.206299	-0.116943	0.583661	0.213550	-0.764124	0.172774
21491		9.517485	-0.225985	-2.594793	0.083997	-0.015402	-0.027525	-0.838623	-0.203613	-0.106934	0.583570	0.214071	-0.763978	0.173082
21492		9.475000	-0.261355	-2.702067	0.108079	-0.013915	-0.035325	-0.851074	-0.195801	-0.108643	0.583343	0.214853	-0.763816	0.173595
21493		9.488439	-0.241990	-2.657942	0.123051	-0.006395	-0.041991	-0.842773	-0.200928	-0.105469	0.583144	0.215577	-0.763625	0.174202
21494		9.439295	-0.270325	-2.668711	0.127823	-0.000423	-0.049280	-0.843018	-0.197998	-0.103027	0.582970	0.216474	-0.763363	0.174818
21495		9.477702	-0.349477	-2.693139	0.130566	0.002826	-0.058898	-0.842529	-0.204590	-0.101562	0.582796	0.217428	-0.763082	0.175440
21496		9.427530	-0.304148	-2.655851	0.141139	0.000979	-0.069386	-0.850098	-0.211914	-0.108643	0.582602	0.218577	-0.762759	0.176062
21497		9.462317	-0.185274	-2.570108	0.135531	0.001900	-0.077711	-0.841309	-0.208984	-0.098877	0.582520	0.219681	-0.762398	0.176525
21498		9.488269	-0.250533	-2.480052	0.114843	-0.000941	-0.082383	-0.850342	-0.211914	-0.105469	0.582362	0.220831	-0.762094	0.176919
21499		9.465827	-0.394472	-2.503289	0.124658	-0.002602	-0.094241	-0.846436	-0.205078	-0.108398	0.582263	0.221995	-0.761754	0.177253
21500		9.494132	-0.363135	-2.529325	0.143975	0.002670	-0.107400	-0.842041	-0.214600	-0.105957	0.582211	0.223208	-0.761345	0.177661
21501		9.501286	-0.340291	-2.592072	0.168571	0.003895	-0.120430	-0.838379	-0.214111	-0.106445	0.582130	0.224743	-0.760840	0.178151
21502		9.528226	-0.189115	-2.630237	0.201125	0.005312	-0.130574	-0.839355	-0.211670	-0.094971	0.582020	0.226471	-0.760259	0.178802
21503		9.532489	0.068123	-2.546099	0.202112	0.008182	-0.131950	-0.830322	-0.222900	-0.108154	0.581800	0.228307	-0.759699	0.179562
21504		9.516822	0.100352	-2.615957	0.205170	0.016102	-0.124671	-0.839600	-0.220703	-0.102295	0.581782	0.230033	-0.759029	0.180248
21505		9.508208	0.029755	-2.574723	0.207381	0.014789	-0.118140	-0.841797	-0.221680	-0.108887	0.581666	0.231723	-0.758417	0.181033
21506		9.487603	0.139213	-2.611378	0.222220	0.019608	-0.116078	-0.839111	-0.231689	-0.096191	0.581619	0.233349	-0.757753	0.181877
21507		9.528839	0.266259	-2.579776	0.221038	0.014454	-0.105074	-0.841797	-0.228760	-0.103516	0.581402	0.235160	-0.757131	0.182822
21508		9.535926	0.206078	-2.481495	0.213502	0.015835	-0.101278	-0.833496	-0.227295	-0.101562	0.581278	0.236743	-0.756522	0.183695
21509		9.565715	0.181244	-2.435276	0.184761	0.011769	-0.085654	-0.843994	-0.236816	-0.104736	0.581147	0.238110	-0.756003	0.184475
21510		9.567251	0.121723	-2.403305	0.177228	0.014630	-0.074994	-0.842529	-0.239746	-0.105957	0.581072	0.239356	-0.755489	0.185205
21511		9.544746	0.212171	-2.484037	0.170551	0.016385	-0.066779	-0.843018	-0.232178	-0.102539	0.581027	0.240508	-0.754983	0.185913
21512		9.521981	0.716791	-2.512002	0.122468	0.020832	-0.048483	-0.833984	-0.238037	-0.098389	0.581031	0.241271	-0.754597	0.186480
21513		9.504620	0.713587	-2.492958	0.024567	0.010122	-0.016850	-0.834961	-0.217773	-0.101318	0.581090	0.241499	-0.754458	0.186564
21514		9.538061	0.226794	-2.557270	-0.019469	0.008942	0.003384	-0.837158	-0.226562	-0.092041	0.581192	0.241191	-0.754482	0.186548
21515		9.536405	-0.102271	-2.522597	-0.003367	0.012071	0.005694	-0.831787	-0.233643	-0.098145	0.581191	0.241136	-0.754467	0.186682
21516		9.510574	-0.022232	-2.572099	0.031012	0.005369	0.001535	-0.842041	-0.227295	-0.099854	0.581166	0.241275	-0.754385	0.186911
21517		9.524903	0.224219	-2.481439	0.003305	0.007479	0.014220	-0.838379	-0.242676	-0.095459	0.581189	0.241085	-0.754394	0.187047
21518		9.469851	0.169391	-2.380188	-0.038201	0.006546	0.019662	-0.836426	-0.234863	-0.106201	0.581262	0.240865	-0.754442	0.186913
21519		9.496344	0.005769	-2.512839	-0.078335	0.002662	0.027040	-0.836670	-0.233643	-0.098877	0.581478	0.240215	-0.754584	0.186502
21520		9.479795	-0.358008	-2.566923	-0.057543	-0.006638	0.014352	-0.839111	-0.230713	-0.100830	0.581533	0.239856	-0.754729	0.186207
21521		9.468260	-0.352531	-2.528887	0.000881	-0.010521	-0.001708	-0.839600	-0.230713	-0.097656	0.581483	0.239835	-0.754778	0.186192
21522		9.511814	0.033443	-2.417549	0.015493	-0.010423	-0.012301	-0.831787	-0.231689	-0.098633	0.581389	0.239990	-0.754788	0.186245
21523		9.508992	0.210301	-2.454206	-0.034544	-0.012828	-0.001644	-0.833740	-0.232666	-0.096924	0.581384	0.239855	-0.754891	0.186013
21524		9.524791	-0.009482	-2.519832	-0.067869	-0.012993	0.005410	-0.836182	-0.235107	-0.095703	0.581417	0.239539	-0.755064	0.185615
21525		9.485109	-0.239211	-2.632497	-0.036497	-0.011192	0.000244	-0.840332	-0.224854	-0.100830	0.581394	0.239437	-0.755169	0.185394
21526		9.479167	-0.067612	-2.636348	0.015580	-0.008876	-0.005492	-0.841064	-0.225586	-0.103271	0.581326	0.239450	-0.755197	0.185476
21527		9.489745	0.129642	-2.541187	0.003579	-0.006909	0.005718	-0.835938	-0.231445	-0.098389	0.581302	0.239304	-0.755251	0.185517
21528		9.504019	0.005660	-2.565252	-0.008491	-0.004395	0.007896	-0.842773	-0.230957	-0.102051	0.581279	0.239214	-0.755299	0.185513
21529		9.533831	-0.105025	-2.532195	0.008677	-0.001811	0.010766	-0.833740	-0.233398	-0.094482	0.581263	0.239114	-0.755319	0.185610
21530		9.505519	-0.017505	-2.508616	0.023277	0.000781	0.010811	-0.843262	-0.221191	-0.103516	0.581171	0.239229	-0.755293	0.185853
21531		9.478691	0.128120	-2.416182	0.018929	0.003138	0.017173	-0.838135	-0.234863	-0.111816	0.581159	0.239029	-0.755311	0.186077
21532		9.471440	0.102974	-2.393536	-0.009180	-0.002698	0.013352	-0.832520	-0.227295	-0.099121	0.581277	0.238749	-0.755336	0.185967
21533		9.564606	-0.007217	-2.321034	-0.052614	-0.004309	0.014337	-0.842285	-0.220703	-0.100098	0.581337	0.238385	-0.755464	0.185723
21534		9.527104	-0.167176	-2.408538	-0.086544	-0.001082	0.011787	-0.835449	-0.225586	-0.108398	0.581479	0.237781	-0.755653	0.185285
21535		9.491176	-0.221851	-2.487393	-0.096382	0.000017	0.002198	-0.839844	-0.229248	-0.099365	0.581756	0.237137	-0.755800	0.184639
21536		9.464435	-0.226646	-2.591342	-0.095393	0.002974	-0.008968	-0.841553	-0.221191	-0.098633	0.581972	0.236715	-0.755916	0.184027
21537		9.524735	-0.270409	-2.459965	-0.079722	0.000366	-0.021101	-0.833252	-0.229004	-0.100098	0.582134	0.236403	-0.756017	0.183499
21538		9.580289	0.037119	-2.482283	-0.084358	-0.001458	-0.022377	-0.838379	-0.222656	-0.101318	0.582325	0.236143	-0.756100	0.182881
21539		9.527428	0.150646	-2.476740	-0.102968	0.012489	-0.018190	-0.841064	-0.233154	-0.102783	0.582631	0.235667	-0.756175	0.182214
21540		9.439973	0.096627	-2.460258	-0.100211	-0.000661	-0.011577	-0.835449	-0.224365	-0.095947	0.582857	0.235244	-0.756299	0.181520
21541		9.592530	0.141911	-2.379528	-0.076937	-0.007389	-0.006546	-0.838135	-0.238281	-0.102539	0.582910	0.234963	-0.756449	0.181087
21542		9.604966	0.074930	-2.389206	-0.071936	0.008138	0.005966	-0.833984	-0.223145	-0.110840	0.583111	0.234618	-0.756503	0.180663
21543		9.538851	0.162868	-2.514020	-0.080334	0.005706	0.007325	-0.833496	-0.237061	-0.105957	0.583373	0.234007	-0.756609	0.180164
21544		9.489520	0.197839	-2.552302	-0.076481	0.005824	0.017982	-0.844238	-0.230225	-0.106201	0.583578	0.233537	-0.756698	0.179739
21545		9.491979	0.112894	-2.725162	-0.081760	0.000637	0.027000	-0.839355	-0.225342	-0.096436	0.583726	0.232915	-0.756868	0.179346
21546		9.436349	-0.019948	-2.812493	-0.066103	-0.004643	0.026098	-0.840820	-0.228516	-0.107666	0.583714	0.232500	-0.757052	0.179146
21547		9.449784	-0.202891	-2.648266	-0.014176	-0.003345	0.016669	-0.837402	-0.223877	-0.115234	0.583732	0.232272	-0.757116	0.179113
21548		9.480235	0.099455	-2.469110	0.004950	-0.005665	0.007484	-0.832764	-0.228271	-0.103271	0.583780	0.232073	-0.757144	0.179096
21549		9.514503	0.174118	-2.360855	-0.028515	-0.007626	0.013191	-0.835938	-0.227783	-0.104492	0.583770	0.231885	-0.757236	0.178984
21550		9.484334	0.082774	-2.447105	-0.065856	-0.013765	0.016886	-0.842529	-0.227295	-0.101562	0.583795	0.231476	-0.757425	0.178633
21551		9.418296	-0.095610	-2.685637	-0.062687	-0.014616	0.013781	-0.834717	-0.224854	-0.105713	0.583779	0.231124	-0.757619	0.178317
21552		9.450802	-0.108068	-2.806968	-0.036330	-0.013060	0.006512	-0.847412	-0.226562	-0.108887	0.583776	0.230894	-0.757743	0.178099
21553		9.443660	-0.086448	-2.672632	-0.013947	-0.012585	0.003162	-0.841309	-0.221680	-0.097656	0.583756	0.230737	-0.757834	0.177981
21554		9.500102	0.057289	-2.544665	0.003716	-0.010911	0.000173	-0.836426	-0.221436	-0.101807	0.583615	0.230805	-0.757899	0.178077
21555		9.518569	0.198325	-2.481186	-0.019988	-0.015703	0.000054	-0.836182	-0.224854	-0.105225	0.583535	0.230717	-0.758013	0.177969
21556		9.564823	0.049768	-2.497357	-0.048825	-0.012809	0.008691	-0.839111	-0.224854	-0.105713	0.583553	0.230413	-0.758159	0.177683
21557		9.491388	-0.073734	-2.614302	-0.041831	-0.013784	0.007688	-0.833984	-0.222412	-0.097168	0.583553	0.230141	-0.758300	0.177431
21558		9.465695	-0.132965	-2.735778	-0.031066	-0.011954	0.006147	-0.838867	-0.220947	-0.104248	0.583473	0.230030	-0.758421	0.177323
21559		9.439206	-0.251589	-2.753806	0.005172	-0.012625	0.000337	-0.829346	-0.226318	-0.108643	0.583386	0.230019	-0.758484	0.177355
21560		9.450175	-0.025434	-2.582730	0.052703	-0.016401	-0.004296	-0.840088	-0.222412	-0.099121	0.583245	0.230287	-0.758453	0.177600
21561		9.516767	0.221994	-2.497329	0.055852	-0.026411	0.006068	-0.828857	-0.226562	-0.100586	0.582924	0.230573	-0.758522	0.177992
21562		9.577917	0.268486	-2.360536	0.036641	-0.027376	0.023467	-0.838135	-0.221924	-0.106201	0.582639	0.230696	-0.758627	0.178312
21563		9.557885	0.215200	-2.547673	-0.007575	-0.016770	0.021031	-0.841064	-0.218018	-0.106689	0.582554	0.230467	-0.758761	0.178320
21564		9.502797	-0.127861	-2.678968	0.005283	-0.012992	0.022214	-0.840332	-0.222656	-0.106445	0.582466	0.230240	-0.758873	0.178424
21565		9.483970	-0.104389	-2.678341	0.033042	-0.015372	0.012990	-0.844727	-0.219482	-0.100830	0.582327	0.230260	-0.758921	0.178645
21566		9.522802	0.062606	-2.548274	0.044109	-0.013817	0.014893	-0.839111	-0.228516	-0.103516	0.582120	0.230350	-0.758968	0.179006
21567		9.486092	0.223033	-2.459860	0.000549	-0.013967	0.020489	-0.837646	-0.224121	-0.097900	0.582025	0.230250	-0.759056	0.179067
21568		9.518098	0.115308	-2.463312	-0.046489	-0.017177	0.030099	-0.840820	-0.221191	-0.102783	0.581938	0.229901	-0.759262	0.178927
21569		9.504707	-0.174503	-2.448864	-0.060312	-0.021132	0.033107	-0.842773	-0.219238	-0.105957	0.581886	0.229382	-0.759520	0.178670
21570		9.514011	-0.148672	-2.506808	-0.030289	-0.023316	0.023222	-0.837646	-0.219727	-0.101074	0.581802	0.229021	-0.759726	0.178526
21571		9.460548	-0.075255	-2.575678	-0.027273	-0.016315	0.008380	-0.845459	-0.215332	-0.101318	0.581744	0.228835	-0.759862	0.178380
21572		9.519458	-0.204901	-2.548076	-0.020001	-0.017666	0.006543	-0.837646	-0.222656	-0.100098	0.581658	0.228641	-0.760009	0.178279
21573		9.505314	-0.082139	-2.524230	0.005263	-0.011433	-0.005686	-0.847656	-0.224609	-0.107910	0.581586	0.228734	-0.760036	0.178280
21574		9.510955	-0.039062	-2.518501	0.007201	-0.015063	-0.001144	-0.845459	-0.215332	-0.100586	0.581540	0.228712	-0.760087	0.178242
21575		9.533623	-0.054798	-2.674334	0.026967	-0.009375	-0.003624	-0.839355	-0.225098	-0.104980	0.581430	0.228806	-0.760103	0.178410
21576		9.462127	0.064549	-2.622272	0.050874	-0.013494	0.000053	-0.842041	-0.224365	-0.101562	0.581295	0.229035	-0.760076	0.178671
21577		9.545211	0.246818	-2.578948	0.059605	-0.011255	0.006410	-0.841309	-0.217529	-0.091553	0.581119	0.229288	-0.760045	0.179052
21578		9.492183	0.037963	-2.540001	0.034294	-0.012451	0.013840	-0.840820	-0.219727	-0.096924	0.580886	0.229436	-0.760095	0.179406
21579		9.490916	-0.076235	-2.627360	0.052193	-0.017475	0.016518	-0.835205	-0.216553	-0.099365	0.580634	0.229611	-0.760136	0.179820
21580		9.492174	0.087120	-2.562172	0.036922	-0.017607	0.017191	-0.846680	-0.212891	-0.096436	0.580437	0.229659	-0.760202	0.180116
21581		9.498858	0.106113	-2.586690	-0.003007	-0.011064	0.023504	-0.840332	-0.215576	-0.100586	0.580314	0.229444	-0.760332	0.180239
21582		9.456919	0.139405	-2.679741	-0.027377	-0.016153	0.035412	-0.843018	-0.215820	-0.092041	0.580232	0.229032	-0.760527	0.180207
21583		9.472018	0.005228	-2.695371	-0.051465	-0.012379	0.037305	-0.840088	-0.215088	-0.096924	0.580144	0.228590	-0.760749	0.180112
21584		9.415390	-0.228306	-2.740869	-0.038780	-0.016396	0.038164	-0.842773	-0.213135	-0.099854	0.580049	0.228155	-0.760968	0.180047
21585		9.460790	-0.174998	-2.629895	0.001475	-0.019048	0.030925	-0.840576	-0.215820	-0.096924	0.579893	0.227912	-0.761129	0.180175
21586		9.546803	-0.002944	-2.575336	0.010104	-0.016097	0.032538	-0.839600	-0.214600	-0.098877	0.579718	0.227762	-0.761256	0.180390
21587		9.463670	-0.103194	-2.567895	-0.021228	-0.018141	0.039013	-0.847168	-0.212158	-0.103760	0.579599	0.227392	-0.761452	0.180413
21588		9.414402	-0.126647	-2.625220	-0.026003	-0.023310	0.041655	-0.841309	-0.211914	-0.098145	0.579486	0.226901	-0.761694	0.180374
21589		9.460065	-0.034442	-2.735287	-0.038816	-0.024830	0.042603	-0.846924	-0.209473	-0.093994	0.579346	0.226426	-0.761960	0.180298
21590		9.465421	0.049202	-2.790536	-0.050122	-0.025867	0.045821	-0.844482	-0.220703	-0.098633	0.579177	0.225901	-0.762266	0.180205
21591		9.485824	-0.134718	-2.682273	-0.037429	-0.018500	0.039594	-0.837646	-0.217773	-0.099609	0.579089	0.225518	-0.762467	0.180115
21592		9.467843	-0.275378	-2.695658	-0.018580	-0.008880	0.036906	-0.841553	-0.210938	-0.095459	0.579044	0.225208	-0.762588	0.180138
21593		9.516230	-0.340493	-2.568989	-0.010253	0.000528	0.024252	-0.844727	-0.215088	-0.086670	0.579022	0.224990	-0.762650	0.180217
21594		9.464569	-0.333548	-2.605014	-0.030802	0.004426	0.020525	-0.846924	-0.204590	-0.094482	0.578997	0.224827	-0.762715	0.180225
21595		9.501332	-0.357494	-2.538029	-0.020188	0.008925	0.007758	-0.840332	-0.218994	-0.099365	0.579057	0.224599	-0.762745	0.180191
21596		9.488402	-0.363924	-2.625245	-0.021216	0.015769	0.000690	-0.841797	-0.213867	-0.098389	0.579220	0.224506	-0.762674	0.180082
21597		9.512026	-0.132261	-2.588155	0.010719	0.014086	-0.004804	-0.842529	-0.216553	-0.097168	0.579307	0.224565	-0.762572	0.180161
21598		9.501812	0.132721	-2.488596	0.010508	0.011524	-0.001356	-0.842773	-0.214355	-0.103271	0.579363	0.224645	-0.762483	0.180260
21599		9.534223	0.221976	-2.401766	-0.026879	0.012691	0.013884	-0.839355	-0.213623	-0.100342	0.579517	0.224364	-0.762472	0.180156
21600		9.547942	-0.051973	-2.484936	-0.048835	0.014297	0.022878	-0.845215	-0.212646	-0.104004	0.579688	0.223949	-0.762507	0.179978
21601		9.481913	-0.192946	-2.679704	-0.053755	0.010869	0.028876	-0.843262	-0.208984	-0.100830	0.579856	0.223434	-0.762578	0.179776
21602		9.502430	-0.230434	-2.669228	-0.028524	0.007735	0.025779	-0.837402	-0.209717	-0.102783	0.579936	0.223071	-0.762633	0.179736
21603		9.470927	-0.219992	-2.548295	0.007836	0.011382	0.009954	-0.842529	-0.206787	-0.094238	0.580014	0.222981	-0.762575	0.179840
21604		9.464315	-0.198101	-2.582885	-0.018574	0.015807	0.007773	-0.848145	-0.209717	-0.106934	0.580101	0.222822	-0.762556	0.179839
21605		9.617330	-0.141563	-2.556512	-0.033451	0.017676	0.014005	-0.848145	-0.212158	-0.104248	0.580306	0.222455	-0.762540	0.179700
21606		9.580853	0.217087	-2.267680	-0.038651	0.018734	0.012199	-0.849854	-0.207764	-0.107178	0.580508	0.222126	-0.762520	0.179538
21607		9.631803	0.850178	-2.663654	-0.062748	0.011155	0.043768	-0.852539	-0.205566	-0.098877	0.580674	0.221431	-0.762640	0.179351
21608		9.527493	0.534561	-2.484322	-0.055067	0.013884	0.076506	-0.841309	-0.203369	-0.097900	0.580727	0.220627	-0.762813	0.179434
21609		9.556024	0.001000	-2.571010	0.018426	0.012741	0.094734	-0.841064	-0.203125	-0.104492	0.580612	0.220079	-0.762910	0.180066
21610		9.411129	-0.292608	-2.471508	0.025523	0.003745	0.101102	-0.853760	-0.208252	-0.103760	0.580465	0.219488	-0.763039	0.180713
21611		9.472357	-0.548126	-2.213686	0.010552	-0.002865	0.084791	-0.842041	-0.206543	-0.104492	0.580312	0.218991	-0.763186	0.181186
21612		9.477281	-0.281343	-2.232095	-0.052466	-0.007733	0.083027	-0.848877	-0.200684	-0.101318	0.580263	0.218209	-0.763438	0.181225
21613		9.465961	0.110800	-2.451370	-0.122727	-0.009168	0.072373	-0.845459	-0.204102	-0.097900	0.580317	0.217140	-0.763804	0.180795
21614		9.451612	-0.071946	-2.879977	-0.157332	-0.011899	0.076259	-0.853271	-0.202637	-0.104492	0.580388	0.215958	-0.764232	0.180170
21615		9.434914	-0.340872	-2.784761	-0.124014	-0.019708	0.075281	-0.836182	-0.203125	-0.095459	0.580387	0.214896	-0.764641	0.179711
21616		9.504937	-0.242306	-2.769161	-0.087832	-0.018682	0.071492	-0.846436	-0.194824	-0.103760	0.580286	0.214134	-0.764982	0.179495
21617		9.402423	-0.367759	-2.776720	-0.076157	-0.015897	0.069579	-0.847168	-0.200684	-0.100830	0.580229	0.213298	-0.765299	0.179320
21618		9.459483	-0.495267	-2.709263	-0.046463	-0.014634	0.060916	-0.845459	-0.186768	-0.094238	0.580121	0.212745	-0.765538	0.179306
21619		9.339593	-0.559192	-2.727161	-0.014195	-0.018350	0.041483	-0.848389	-0.196289	-0.097656	0.579918	0.212401	-0.765760	0.179425
21620		9.417292	-0.725157	-2.725690	0.002416	-0.016969	0.024312	-0.860352	-0.186279	-0.101807	0.579742	0.212317	-0.765885	0.179558
21621		9.385033	-0.771822	-2.785654	0.033963	-0.013221	0.005151	-0.847656	-0.191650	-0.103760	0.579579	0.212368	-0.765938	0.179797
21622		9.432352	-0.670339	-2.816505	0.100148	-0.008945	-0.015798	-0.846436	-0.194092	-0.109863	0.579385	0.212914	-0.765804	0.180346
21623		9.437516	-0.399388	-2.799411	0.155909	-0.004861	-0.028420	-0.846436	-0.196777	-0.098633	0.579180	0.213780	-0.765523	0.181172
21624		9.525605	-0.286095	-2.723460	0.181262	-0.006888	-0.033273	-0.851562	-0.195312	-0.098877	0.578852	0.214895	-0.765221	0.182174
21625		9.481915	-0.165392	-2.618994	0.170578	-0.004646	-0.030564	-0.847656	-0.196045	-0.098389	0.578554	0.215906	-0.764935	0.183126
21626		9.397843	-0.366164	-2.641339	0.166272	-0.005783	-0.028890	-0.848389	-0.189209	-0.101074	0.578257	0.216889	-0.764659	0.184051
21627		9.463174	-0.483976	-2.708037	0.200003	-0.006756	-0.033433	-0.843262	-0.198242	-0.100098	0.577917	0.217970	-0.764342	0.185154
21628		9.427637	-0.562753	-2.643411	0.201304	-0.007057	-0.047054	-0.848877	-0.195801	-0.100586	0.577597	0.219229	-0.763970	0.186197
21629		9.485079	-0.629247	-2.640519	0.225190	0.002398	-0.056221	-0.850342	-0.199951	-0.104736	0.577308	0.220603	-0.763508	0.187367
21630		9.542987	-0.386323	-2.533801	0.263862	0.001324	-0.071514	-0.848389	-0.202393	-0.104736	0.576991	0.222258	-0.762940	0.188692
21631		9.509997	-0.017248	-2.544213	0.242803	0.004704	-0.062187	-0.846680	-0.198486	-0.092041	0.576725	0.223750	-0.762399	0.189929
21632		9.442475	-0.310405	-2.706422	0.217422	0.009385	-0.054542	-0.845459	-0.203125	-0.098145	0.576444	0.225098	-0.761924	0.191090
21633		9.490556	-0.466606	-2.821551	0.278368	0.010970	-0.060671	-0.845459	-0.202393	-0.094482	0.576111	0.226762	-0.761306	0.192585
21634		9.511900	-0.084120	-2.714477	0.304362	0.010444	-0.067459	-0.846191	-0.201904	-0.094971	0.575713	0.228595	-0.760642	0.194222
21635		9.480656	-0.091942	-2.417356	0.278200	0.008140	-0.058430	-0.847656	-0.204102	-0.092529	0.575339	0.230222	-0.760048	0.195727
21636		9.520676	-0.002559	-2.472972	0.261924	0.006596	-0.046346	-0.850586	-0.206055	-0.096680	0.574953	0.231715	-0.759509	0.197190
21637		9.479673	-0.091679	-2.632742	0.224658	0.003480	-0.031762	-0.846680	-0.208496	-0.093994	0.574621	0.232915	-0.759060	0.198465
21638		9.482495	-0.180643	-2.748448	0.234066	-0.000734	-0.033872	-0.843750	-0.202148	-0.087891	0.574238	0.234208	-0.758607	0.199781
21639		9.522234	-0.177883	-2.597530	0.210441	-0.000645	-0.025402	-0.845215	-0.200439	-0.089844	0.573850	0.235315	-0.758233	0.201010
21640		9.485952	-0.182103	-2.487344	0.203769	0.002103	-0.017661	-0.842529	-0.207764	-0.085205	0.573494	0.236298	-0.757872	0.202233
21641		9.520236	-0.124960	-2.509803	0.186234	-0.004231	-0.019430	-0.848877	-0.208496	-0.089111	0.573112	0.237305	-0.757552	0.203330
21642		9.499275	-0.041991	-2.508458	0.136683	0.000746	-0.004379	-0.842041	-0.213135	-0.088135	0.572858	0.237935	-0.757317	0.204183
21643		9.454959	-0.212756	-2.557289	0.094081	-0.003916	0.000235	-0.835938	-0.199951	-0.086182	0.572657	0.238382	-0.757171	0.204769
21644		9.505672	-0.292895	-2.573767	0.089516	0.004086	0.006698	-0.835205	-0.205566	-0.085693	0.572493	0.238663	-0.757040	0.205383
21645		9.527053	-0.221677	-2.569567	0.084171	0.000774	0.005099	-0.842285	-0.212158	-0.082275	0.572322	0.238982	-0.756915	0.205946
21646		9.493727	-0.082741	-2.603012	0.052336	0.005229	0.019224	-0.842041	-0.204834	-0.087891	0.572194	0.239127	-0.756843	0.206400
21647		9.490326	-0.223623	-2.590276	0.042542	0.003195	0.025748	-0.850342	-0.206299	-0.088379	0.572097	0.239084	-0.756821	0.206798
21648		9.507817	-0.193719	-2.623961	0.022692	0.003575	0.035135	-0.854492	-0.206787	-0.084717	0.572022	0.238893	-0.756849	0.207123
21649		9.519345	-0.292714	-2.658058	-0.008110	0.007309	0.045544	-0.853271	-0.216797	-0.086182	0.571986	0.238519	-0.756938	0.207329
21650		9.516572	-0.334316	-2.607914	-0.012636	0.007918	0.040841	-0.848389	-0.209229	-0.084961	0.571985	0.238227	-0.756992	0.207468
21651		9.492246	-0.484023	-2.544280	0.025467	0.008118	0.041974	-0.843750	-0.201416	-0.084961	0.571902	0.238066	-0.756999	0.207858
21652		9.503739	-0.160331	-2.500493	0.025036	0.013422	0.047642	-0.846924	-0.209229	-0.089111	0.571845	0.237801	-0.757009	0.208283
21653		9.479436	-0.216317	-2.486023	-0.019641	0.008707	0.060700	-0.843994	-0.194336	-0.087158	0.571849	0.237289	-0.757117	0.208460
21654		9.460451	-0.457045	-2.437751	-0.016816	0.007138	0.064435	-0.845459	-0.197266	-0.085449	0.571817	0.236671	-0.757273	0.208684
21655		9.487766	-0.448190	-2.465598	-0.007831	0.003427	0.067530	-0.840332	-0.205811	-0.088867	0.571725	0.236131	-0.757430	0.208979
21656		9.490309	-0.486781	-2.480864	-0.026464	0.006386	0.069174	-0.850098	-0.200684	-0.085938	0.571716	0.235542	-0.757575	0.209144
21657		9.414995	-0.695318	-2.540509	-0.027245	0.010348	0.059063	-0.844727	-0.197021	-0.090820	0.571719	0.234993	-0.757703	0.209290
21658		9.441936	-0.699888	-2.391303	-0.010815	0.003851	0.042441	-0.854248	-0.209473	-0.087158	0.571713	0.234582	-0.757797	0.209425
21659		9.481517	-0.545858	-2.278288	-0.040395	0.000798	0.036186	-0.849854	-0.196045	-0.085449	0.571727	0.234208	-0.757922	0.209354
21660		9.478553	-0.318044	-2.288161	-0.111262	-0.004299	0.040107	-0.849365	-0.195312	-0.091553	0.571828	0.233391	-0.758235	0.208857
21661		9.477637	-0.483548	-2.413825	-0.159812	-0.012251	0.040938	-0.844971	-0.197021	-0.093506	0.572008	0.232310	-0.758661	0.208018
21662		9.511865	-0.606561	-2.592924	-0.162646	-0.012048	0.034639	-0.851807	-0.188721	-0.092529	0.572221	0.231266	-0.759066	0.207118
21663		9.491088	-0.602176	-2.591466	-0.151318	-0.013767	0.030527	-0.847412	-0.197754	-0.090820	0.572389	0.230255	-0.759473	0.206287
21664		9.448555	-0.417405	-2.604147	-0.113447	-0.013407	0.022684	-0.844971	-0.191162	-0.088379	0.572493	0.229565	-0.759775	0.205652
21665		9.519319	-0.343349	-2.578407	-0.118450	-0.011535	0.037920	-0.836670	-0.191162	-0.086426	0.572575	0.228726	-0.760122	0.205076
21666		9.489183	-0.471634	-2.459201	-0.093569	-0.008153	0.045048	-0.846924	-0.190918	-0.091797	0.572614	0.227980	-0.760421	0.204694
21667		9.417996	-0.452165	-2.537671	-0.083716	-0.005943	0.042809	-0.849121	-0.193359	-0.086182	0.572674	0.227252	-0.760683	0.204358
21668		9.462654	-0.485002	-2.598795	-0.087529	-0.011725	0.041846	-0.847900	-0.188477	-0.086182	0.572668	0.226593	-0.760978	0.204006
21669		9.447280	-0.475684	-2.455359	-0.099565	-0.011011	0.046275	-0.849854	-0.189941	-0.090576	0.572682	0.225814	-0.761308	0.203601
21670		9.487013	-0.746516	-2.447761	-0.102118	-0.008071	0.030973	-0.855469	-0.188477	-0.093750	0.572770	0.225101	-0.761588	0.203095
21671		9.453533	-0.741860	-2.579211	-0.082524	-0.015040	0.009935	-0.847412	-0.190430	-0.095703	0.572826	0.224597	-0.761828	0.202597
21672		9.440393	-0.524404	-2.662727	-0.106672	-0.016991	-0.001102	-0.849854	-0.193115	-0.088379	0.572953	0.224058	-0.762084	0.201871
21673		9.518084	-0.574408	-2.626121	-0.103411	-0.012654	-0.000581	-0.854492	-0.193604	-0.088135	0.573050	0.223603	-0.762320	0.201206
21674		9.544129	-0.319916	-2.660497	-0.069677	-0.019264	-0.003327	-0.848877	-0.188477	-0.094727	0.573041	0.223344	-0.762527	0.200736
21675		9.503685	-0.036419	-2.716365	-0.084106	-0.015945	0.008901	-0.845215	-0.189453	-0.101807	0.573104	0.222845	-0.762763	0.200210
21676		9.488561	-0.277664	-2.686521	-0.105831	-0.016249	0.023591	-0.845459	-0.193359	-0.093262	0.573228	0.222112	-0.763047	0.199588
21677		9.441553	-0.640252	-2.756069	-0.059724	-0.015636	0.020826	-0.852051	-0.191406	-0.092285	0.573222	0.221711	-0.763251	0.199270
21678		9.454248	-0.589382	-2.816771	-0.021788	-0.011514	0.012109	-0.845947	-0.185791	-0.094971	0.573174	0.221533	-0.763364	0.199172
21679		9.457623	-0.543042	-2.705213	-0.017831	-0.004487	0.011362	-0.852051	-0.189941	-0.093018	0.573186	0.221307	-0.763441	0.199097
21680		9.450892	-0.638224	-2.639659	-0.001961	-0.002449	0.006305	-0.844971	-0.201416	-0.092041	0.573172	0.221233	-0.763468	0.199113
21681		9.460697	-0.434685	-2.710354	0.008891	0.002224	0.006254	-0.847900	-0.190186	-0.091553	0.573172	0.221300	-0.763429	0.199189
21682		9.449319	-0.547899	-2.653075	-0.001837	0.004883	0.007766	-0.840088	-0.177734	-0.094971	0.573198	0.221217	-0.763424	0.199224
21683		9.439450	-0.563918	-2.641472	0.010401	0.010701	0.005240	-0.842529	-0.193604	-0.089600	0.573268	0.221082	-0.763384	0.199327
21684		9.432146	-0.661492	-2.659290	0.020354	0.020367	0.008771	-0.852783	-0.186523	-0.095215	0.573342	0.221118	-0.763265	0.199533
21685		9.495330	-0.921427	-2.816586	0.071096	0.032572	-0.002496	-0.851562	-0.183838	-0.099121	0.573439	0.221359	-0.762990	0.200036
21686		9.479053	-0.454895	-2.840962	0.102574	0.042950	-0.012872	-0.843750	-0.190674	-0.091064	0.573582	0.221757	-0.762591	0.200703
21687		9.527374	0.053897	-2.681932	0.048780	0.042830	-0.010014	-0.851807	-0.182373	-0.090332	0.573779	0.221981	-0.762288	0.201044
21688		9.534875	-0.084733	-2.619874	-0.050696	0.046193	-0.001145	-0.855713	-0.190186	-0.093262	0.574150	0.221607	-0.762177	0.200818
21689		9.442797	-0.261559	-2.545820	-0.074067	0.046208	0.010807	-0.856445	-0.194580	-0.095215	0.574554	0.221094	-0.762107	0.200494
21690		9.422331	-0.185852	-2.372766	-0.077186	0.031964	0.005910	-0.844238	-0.190186	-0.099609	0.574888	0.220650	-0.762089	0.200095
21691		9.476127	-0.149570	-2.392026	-0.129159	0.025971	0.020980	-0.844482	-0.181885	-0.095459	0.575286	0.219820	-0.762208	0.199409
21692		9.559102	-0.512958	-2.584679	-0.171435	0.019781	0.027504	-0.846924	-0.189453	-0.090576	0.575680	0.218720	-0.762468	0.198486
21693		9.431464	-0.632805	-2.805129	-0.101089	0.019381	0.014761	-0.853271	-0.186035	-0.099854	0.575932	0.218136	-0.762583	0.197954
21694		9.448013	-0.313702	-2.703206	-0.042018	0.013559	0.008886	-0.847412	-0.186035	-0.101074	0.576090	0.217812	-0.762608	0.197756
21695		9.568570	-0.056508	-2.499742	-0.058269	0.014667	0.021831	-0.853516	-0.180176	-0.100098	0.576273	0.217324	-0.762672	0.197510
21696		9.558464	0.021049	-2.413873	-0.100556	0.015525	0.035335	-0.855225	-0.189209	-0.095947	0.576503	0.216508	-0.762845	0.197071
21697		9.503827	-0.134309	-2.459478	-0.125971	0.011670	0.050953	-0.854492	-0.183350	-0.104980	0.576701	0.215578	-0.763095	0.196540
21698		9.496120	-0.703702	-2.643351	-0.115529	0.004286	0.050835	-0.843506	-0.190674	-0.101318	0.576879	0.214632	-0.763352	0.196055
21699		9.392330	-1.212197	-2.603314	-0.077776	0.008053	0.033789	-0.850342	-0.178467	-0.105957	0.577031	0.214053	-0.763485	0.195721
21700		9.453530	-1.221454	-2.444762	0.027793	0.006234	-0.000122	-0.847168	-0.185303	-0.096680	0.577052	0.214092	-0.763411	0.195905
21701		9.475344	-0.656232	-2.415790	0.024956	0.009737	-0.014551	-0.852539	-0.179932	-0.101074	0.577079	0.214297	-0.763307	0.196007
21702		9.465836	-0.583784	-2.491394	-0.021827	0.007279	-0.015474	-0.846924	-0.181152	-0.103271	0.577192	0.214225	-0.763293	0.195809
21703		9.494728	-0.612975	-2.446122	-0.032244	0.006562	-0.016437	-0.844971	-0.176514	-0.104492	0.577336	0.214110	-0.763287	0.195533
21704		9.517007	-0.368625	-2.406670	0.001473	0.006301	-0.017086	-0.853271	-0.186768	-0.107666	0.577427	0.214119	-0.763233	0.195466
21705		9.510721	-0.197712	-2.354552	-0.019213	0.002240	-0.007844	-0.857910	-0.186768	-0.099121	0.577522	0.214046	-0.763221	0.195312
21706		9.548230	-0.425257	-2.379112	-0.034194	-0.002843	0.001111	-0.849609	-0.187012	-0.108154	0.577547	0.213887	-0.763301	0.195100
21707		9.466122	-0.572093	-2.576863	-0.032585	-0.003182	0.003827	-0.850586	-0.182617	-0.105713	0.577617	0.213687	-0.763354	0.194906
21708		9.429791	-0.653516	-2.673770	-0.025271	-0.003549	-0.003995	-0.858643	-0.182129	-0.102539	0.577669	0.213549	-0.763400	0.194722
21709		9.410549	-0.615553	-2.684262	-0.019446	-0.002310	-0.016264	-0.847412	-0.186523	-0.105225	0.577714	0.213525	-0.763422	0.194525
21710		9.477637	-0.715558	-2.620687	-0.018212	0.000489	-0.019634	-0.850098	-0.189209	-0.105225	0.577805	0.213545	-0.763402	0.194312
21711		9.473107	-0.761010	-2.529199	0.026767	-0.004096	-0.041249	-0.846680	-0.183594	-0.098633	0.577819	0.213946	-0.763288	0.194277
21712		9.508540	-0.441793	-2.517800	0.040606	-0.002607	-0.046381	-0.849609	-0.194092	-0.101807	0.577797	0.214416	-0.763168	0.194299
21713		9.466605	-0.264801	-2.562536	0.026304	-0.002212	-0.045620	-0.842773	-0.184326	-0.103516	0.577815	0.214877	-0.763039	0.194239
21714		9.463054	-0.421906	-2.574962	0.011319	-0.005370	-0.043116	-0.842041	-0.193359	-0.099121	0.577850	0.215168	-0.762969	0.194089
21715		9.481164	-0.621416	-2.565574	0.016339	-0.007976	-0.048116	-0.848877	-0.185791	-0.107910	0.577849	0.215596	-0.762889	0.193933
21716		9.462026	-0.578391	-2.576346	0.010385	-0.005595	-0.057279	-0.847168	-0.186035	-0.104980	0.577921	0.215969	-0.762781	0.193725
21717		9.458752	-0.553780	-2.515390	0.001488	-0.006941	-0.064058	-0.857178	-0.189209	-0.100830	0.578000	0.216345	-0.762693	0.193418
21718		9.472845	-0.490634	-2.573535	0.001690	-0.004540	-0.071794	-0.847168	-0.190918	-0.095947	0.578077	0.216795	-0.762591	0.193082
21719		9.506957	-0.599988	-2.549699	0.026129	-0.009940	-0.078311	-0.846680	-0.190186	-0.099121	0.578075	0.217424	-0.762476	0.192837
21720		9.471293	-0.525312	-2.471577	0.057995	-0.010404	-0.088972	-0.842529	-0.184570	-0.102051	0.578044	0.218256	-0.762284	0.192751
21721		9.490775	-0.454439	-2.302350	0.040036	-0.009464	-0.091564	-0.849121	-0.183594	-0.101562	0.578074	0.218953	-0.762114	0.192541
21722		9.499010	-0.491685	-2.456864	0.001027	-0.007524	-0.093167	-0.844971	-0.189209	-0.094971	0.578182	0.219455	-0.762003	0.192086
21723		9.433091	-0.519954	-2.610686	-0.018738	-0.006731	-0.097199	-0.842529	-0.190430	-0.103516	0.578310	0.219935	-0.761921	0.191473
21724		9.409211	-0.454129	-2.646756	0.016376	-0.010779	-0.104062	-0.844482	-0.192871	-0.105469	0.578401	0.220615	-0.761760	0.191056
21725		9.544317	-0.237261	-2.638224	0.046357	-0.008370	-0.104766	-0.842529	-0.194336	-0.099121	0.578460	0.221442	-0.761530	0.190837
21726		9.582143	-0.135522	-2.575794	0.052535	-0.006116	-0.087192	-0.849121	-0.200439	-0.098633	0.578467	0.222200	-0.761330	0.190734
21727		9.566775	0.013512	-2.491149	0.071211	-0.009474	-0.075546	-0.841553	-0.195557	-0.095947	0.578390	0.223019	-0.761131	0.190807
21728		9.536956	0.204472	-2.481821	0.049274	-0.012438	-0.053163	-0.844482	-0.196777	-0.096191	0.578297	0.223552	-0.761040	0.190830
21729		9.557921	0.187948	-2.431930	0.012417	-0.012362	-0.030530	-0.844727	-0.204102	-0.099609	0.578236	0.223767	-0.761047	0.190730
21730		9.562662	-0.072176	-2.418877	-0.023520	-0.009121	-0.010461	-0.840820	-0.195068	-0.100586	0.578248	0.223721	-0.761106	0.190515
21731		9.582716	-0.116149	-2.278975	-0.025847	-0.008364	-0.005999	-0.848145	-0.204102	-0.092773	0.578271	0.223556	-0.761191	0.190297
21732		9.548334	-0.035239	-2.364486	-0.056858	-0.003979	0.005945	-0.845703	-0.198975	-0.099609	0.578316	0.223259	-0.761330	0.189955
21733		9.547991	-0.173984	-2.552373	-0.081777	-0.003806	0.019425	-0.848877	-0.205322	-0.100830	0.578421	0.222694	-0.761524	0.189520
21734		9.488306	-0.176626	-2.698653	-0.034235	-0.005107	0.026018	-0.840088	-0.201416	-0.104004	0.578421	0.222372	-0.761642	0.189426
21735		9.531924	-0.007472	-2.483624	-0.008220	-0.011786	0.028200	-0.844727	-0.202393	-0.100830	0.578349	0.222134	-0.761750	0.189488
21736		9.518859	0.110603	-2.547941	-0.045300	-0.012433	0.043564	-0.839355	-0.199707	-0.098877	0.578299	0.221642	-0.761957	0.189388
21737		9.508275	-0.244602	-2.636949	-0.064561	-0.007273	0.055715	-0.852539	-0.193848	-0.101807	0.578294	0.220960	-0.762199	0.189223
21738		9.439281	-0.364405	-2.642406	-0.043191	-0.011595	0.052255	-0.851807	-0.190430	-0.099121	0.578229	0.220361	-0.762433	0.189179
21739		9.475427	-0.478027	-2.577402	-0.030684	-0.006984	0.045170	-0.844238	-0.194336	-0.095947	0.578170	0.219846	-0.762625	0.189182
21740		9.468952	-0.428062	-2.543996	-0.034238	-0.005126	0.040085	-0.848633	-0.199707	-0.106201	0.578129	0.219393	-0.762798	0.189136
21741		9.485488	-0.203168	-2.461816	-0.049712	-0.009667	0.032350	-0.848633	-0.197998	-0.098145	0.578142	0.218941	-0.762960	0.188968
21742		9.516979	0.014935	-2.525899	-0.067315	-0.008908	0.037512	-0.843018	-0.194336	-0.104248	0.578147	0.218385	-0.763181	0.188704
21743		9.512946	-0.079493	-2.581741	-0.078390	-0.008220	0.051816	-0.850342	-0.189209	-0.097656	0.578186	0.217641	-0.763430	0.188438
21744		9.455856	-0.263084	-2.716354	-0.069790	-0.006584	0.055120	-0.849854	-0.185303	-0.106201	0.578178	0.216899	-0.763697	0.188236
21745		9.435424	-0.574441	-2.814911	-0.066347	-0.005768	0.049001	-0.840820	-0.185791	-0.104736	0.578217	0.216163	-0.763925	0.188036
21746		9.400034	-0.759450	-2.781649	-0.034762	-0.002530	0.030953	-0.843750	-0.189453	-0.096191	0.578249	0.215704	-0.764052	0.187947
21747		9.422083	-0.463340	-2.672728	-0.008814	-0.007274	0.012576	-0.848389	-0.190674	-0.108398	0.578188	0.215560	-0.764144	0.187926
21748		9.483106	-0.367058	-2.485972	-0.035106	-0.004362	0.011329	-0.847900	-0.183105	-0.101562	0.578249	0.215261	-0.764225	0.187752
21749		9.517021	-0.237967	-2.622566	-0.040106	-0.000749	0.006080	-0.846924	-0.191406	-0.105225	0.578318	0.214933	-0.764324	0.187514
21750		9.562781	-0.317221	-2.698222	-0.058150	-0.000041	0.013331	-0.850586	-0.182373	-0.106934	0.578429	0.214523	-0.764430	0.187206
21751		9.403549	-0.540662	-2.788797	-0.004670	0.007416	0.007931	-0.851318	-0.189941	-0.096924	0.578505	0.214323	-0.764425	0.187223
21752		9.482312	-0.341716	-2.747475	0.069004	0.007968	-0.003099	-0.850342	-0.188477	-0.101807	0.578420	0.214645	-0.764292	0.187658
21753		9.449320	-0.257089	-2.667748	0.067017	0.013466	-0.000008	-0.846436	-0.191406	-0.104492	0.578394	0.214897	-0.764131	0.188104
21754		9.463483	-0.581351	-2.708365	0.063343	0.020129	-0.000092	-0.848145	-0.188232	-0.107910	0.578433	0.215133	-0.763928	0.188539
21755		9.439952	-0.684635	-2.709063	0.096314	0.023488	-0.010329	-0.841553	-0.194580	-0.101074	0.578463	0.215551	-0.763638	0.189142
21756		9.490466	-0.734203	-2.534015	0.125349	0.021665	-0.030641	-0.844727	-0.188232	-0.107178	0.578434	0.216313	-0.763275	0.189824
21757		9.540369	-0.556712	-2.344117	0.125114	0.021900	-0.052479	-0.851318	-0.187256	-0.105469	0.578467	0.217139	-0.762872	0.190402
21758		9.524646	-0.727695	-2.321700	0.099219	0.019516	-0.063838	-0.847900	-0.195312	-0.104248	0.578535	0.217908	-0.762512	0.190760
21759		9.424068	-0.826985	-2.536335	0.121136	0.015163	-0.087757	-0.849609	-0.190674	-0.109375	0.578570	0.218996	-0.762079	0.191135
21760		9.398116	-0.858528	-2.620747	0.181720	0.010889	-0.114517	-0.839111	-0.195801	-0.103271	0.578531	0.220492	-0.761520	0.191760
21761		9.446523	-0.432630	-2.756987	0.235346	0.015741	-0.129463	-0.851807	-0.194336	-0.099854	0.578428	0.222379	-0.760824	0.192655
21762		9.483981	-0.217412	-2.793036	0.230340	0.020904	-0.125987	-0.848389	-0.199219	-0.102539	0.578332	0.224195	-0.760136	0.193549
21763		9.447226	-0.222727	-2.721234	0.234081	0.022937	-0.124166	-0.842041	-0.201904	-0.102051	0.578255	0.226019	-0.759417	0.194478
21764		9.533948	-0.072745	-2.616523	0.250093	0.026002	-0.119984	-0.839600	-0.204590	-0.102295	0.578162	0.227893	-0.758658	0.195528
21765		9.502505	0.224181	-2.577231	0.223996	0.029443	-0.104280	-0.846436	-0.210205	-0.098633	0.578117	0.229537	-0.757947	0.196493
21766		9.573563	0.107042	-2.622078	0.169192	0.030897	-0.081226	-0.849609	-0.202148	-0.099121	0.578126	0.230803	-0.757365	0.197227
21767		9.512626	-0.124431	-2.500322	0.174043	0.028879	-0.071367	-0.840820	-0.205566	-0.096436	0.578093	0.231970	-0.756822	0.198036
21768		9.550212	-0.065226	-2.504876	0.171679	0.031550	-0.063647	-0.838867	-0.207275	-0.088135	0.578063	0.233099	-0.756281	0.198866
21769		9.542592	-0.141719	-2.456622	0.145963	0.035371	-0.051243	-0.844482	-0.214111	-0.093506	0.578047	0.234062	-0.755801	0.199602
21770		9.516464	-0.017140	-2.445633	0.126012	0.035211	-0.040685	-0.841553	-0.213135	-0.104004	0.578073	0.234873	-0.755353	0.200267
21771		9.508026	-0.106067	-2.352301	0.090057	0.029895	-0.022327	-0.849854	-0.218018	-0.097168	0.578157	0.235348	-0.755005	0.200780
21772		9.545651	-0.157149	-2.263764	0.087565	0.027231	-0.018165	-0.843262	-0.211670	-0.100586	0.578182	0.235847	-0.754692	0.201298
21773		9.576043	-0.002541	-2.298927	0.028547	0.023455	-0.006242	-0.835449	-0.212402	-0.101318	0.578300	0.235934	-0.754524	0.201489
21774		9.550486	-0.524040	-2.422070	-0.007346	0.030161	-0.005568	-0.844482	-0.209473	-0.098877	0.578538	0.235837	-0.754378	0.201464
21775		9.542834	-0.416570	-2.459037	0.044770	0.030863	-0.021828	-0.834961	-0.213867	-0.104248	0.578683	0.236084	-0.754128	0.201695
21776		9.511497	0.052725	-2.497717	0.026178	0.030790	-0.017539	-0.841797	-0.209229	-0.094971	0.578890	0.236221	-0.753892	0.201826
21777		9.516911	0.071855	-2.484314	-0.011839	0.024034	0.001153	-0.846436	-0.213623	-0.094971	0.579045	0.236077	-0.753825	0.201798
21778		9.446554	-0.325177	-2.412853	0.026377	0.017981	0.008408	-0.851074	-0.215088	-0.093506	0.579070	0.236113	-0.753730	0.202039
21779		9.504614	-0.292978	-2.367291	0.102553	0.012779	0.007975	-0.835449	-0.213867	-0.099121	0.578901	0.236546	-0.753532	0.202752
21780		9.531437	-0.252747	-2.277989	0.081045	0.010802	0.008212	-0.840088	-0.208008	-0.102051	0.578803	0.236844	-0.753363	0.203314
21781		9.550314	-0.421559	-2.166254	0.044193	0.009027	0.007896	-0.842529	-0.213379	-0.101074	0.578776	0.236913	-0.753275	0.203633
21782		9.540496	-0.447302	-2.327056	0.023261	0.008302	0.004287	-0.845947	-0.200684	-0.103271	0.578786	0.236951	-0.753207	0.203813
21783		9.450660	-0.683749	-2.452346	0.053878	0.005180	-0.005168	-0.842773	-0.217529	-0.099121	0.578739	0.237097	-0.753115	0.204118
21784		9.484883	-0.438374	-2.560729	0.116869	-0.000071	-0.023125	-0.845459	-0.212402	-0.104980	0.578548	0.237812	-0.752866	0.204745
21785		9.539548	0.007141	-2.415621	0.102721	0.002137	-0.016853	-0.842773	-0.210693	-0.101074	0.578414	0.238345	-0.752647	0.205307
21786		9.571185	0.084191	-2.278699	0.042792	-0.001906	0.002733	-0.840088	-0.214355	-0.104492	0.578326	0.238476	-0.752600	0.205578
21787		9.577103	-0.173752	-2.264825	0.009050	-0.003978	0.012194	-0.837646	-0.215576	-0.093018	0.578295	0.238396	-0.752622	0.205676
21788		9.542831	-0.248617	-2.415411	0.004064	-0.008077	0.018822	-0.845703	-0.204102	-0.105225	0.578185	0.238325	-0.752701	0.205779
21789		9.520435	-0.164362	-2.416737	0.000330	-0.009425	0.021983	-0.841553	-0.217285	-0.107422	0.578120	0.238077	-0.752810	0.205850
21790		9.570764	0.003850	-2.336243	-0.017824	-0.009232	0.028461	-0.835449	-0.217041	-0.091797	0.578096	0.237783	-0.752922	0.205846
21791		9.554768	-0.232209	-2.290162	-0.041216	-0.010711	0.040123	-0.839355	-0.206543	-0.109375	0.578019	0.237389	-0.753127	0.205765
21792		9.531117	-0.274934	-2.324512	-0.042881	-0.009191	0.045454	-0.838867	-0.216553	-0.100098	0.578027	0.236793	-0.753335	0.205672
21793		9.501627	-0.282280	-2.355717	-0.059289	-0.008453	0.044336	-0.839355	-0.201660	-0.101807	0.578030	0.236244	-0.753553	0.205494
21794		9.567292	-0.214841	-2.297370	-0.079894	-0.013953	0.053445	-0.842529	-0.208008	-0.096436	0.578029	0.235444	-0.753883	0.205204
21795		9.530506	-0.133535	-2.314125	-0.111275	-0.012876	0.059494	-0.844727	-0.204590	-0.102295	0.578057	0.234532	-0.754265	0.204765
21796		9.497312	-0.390978	-2.413176	-0.100953	-0.016607	0.061877	-0.840820	-0.205811	-0.098633	0.578063	0.233614	-0.754649	0.204385
21797		9.494907	-0.479584	-2.512219	-0.053640	-0.026064	0.053378	-0.847412	-0.210449	-0.104492	0.577916	0.233030	-0.754978	0.204250
21798		9.553743	-0.420760	-2.391073	-0.039000	-0.025181	0.046520	-0.841797	-0.210205	-0.102539	0.577781	0.232563	-0.755246	0.204174
21799		9.564386	-0.286836	-2.372488	-0.046942	-0.028327	0.046371	-0.841797	-0.201172	-0.107422	0.577639	0.232077	-0.755540	0.204042
21800		9.547636	-0.403646	-2.384261	-0.058262	-0.025836	0.049913	-0.850098	-0.201660	-0.099609	0.577551	0.231428	-0.755859	0.203844
21801		9.495887	-0.390666	-2.470962	-0.058712	-0.024037	0.045488	-0.843750	-0.202637	-0.097656	0.577440	0.230851	-0.756174	0.203645
21802		9.468309	-0.367658	-2.421607	-0.083945	-0.022347	0.043954	-0.847168	-0.206787	-0.102783	0.577387	0.230181	-0.756517	0.203283
21803		9.562568	-0.529382	-2.395237	-0.109756	-0.027010	0.046940	-0.845215	-0.200928	-0.106201	0.577370	0.229381	-0.756912	0.202761
21804		9.519180	-0.448309	-2.566649	-0.116885	-0.020455	0.038249	-0.839355	-0.204834	-0.103271	0.577440	0.228540	-0.757275	0.202154
21805		9.537395	-0.486914	-2.646300	-0.110869	-0.021137	0.032375	-0.843262	-0.202637	-0.101807	0.577494	0.227812	-0.757612	0.201559
21806		9.533198	-0.362571	-2.681593	-0.101166	-0.012121	0.028547	-0.844238	-0.195068	-0.101562	0.577582	0.227138	-0.757888	0.201028
21807		9.480391	-0.333902	-2.691864	-0.089045	-0.008438	0.033741	-0.851074	-0.204102	-0.103271	0.577657	0.226442	-0.758152	0.200602
21808		9.464528	-0.379555	-2.647205	-0.067909	-0.005421	0.033808	-0.850830	-0.195557	-0.095459	0.577714	0.225893	-0.758346	0.200322
21809		9.454217	-0.396551	-2.637606	-0.060430	-0.000484	0.029564	-0.848389	-0.187988	-0.099121	0.577757	0.225390	-0.758526	0.200085
21810		9.462355	-0.589939	-2.594814	-0.061928	0.000864	0.020810	-0.841553	-0.196533	-0.103516	0.577843	0.224871	-0.758693	0.199787
21811		9.452348	-0.452404	-2.532337	-0.054751	0.002940	0.011538	-0.842773	-0.197754	-0.100098	0.577970	0.224479	-0.758791	0.199490
21812		9.488332	-0.351581	-2.397024	-0.064074	0.000560	0.007354	-0.841309	-0.198730	-0.102295	0.578088	0.224100	-0.758911	0.199116
21813		9.483625	-0.431608	-2.375173	-0.085492	0.000666	0.001096	-0.847168	-0.189209	-0.108643	0.578267	0.223656	-0.759048	0.198575
21814		9.423061	-0.574908	-2.500177	-0.098533	-0.000172	-0.002655	-0.835693	-0.192139	-0.106934	0.578492	0.223086	-0.759215	0.197920
21815		9.426821	-0.618825	-2.547467	-0.082490	-0.007129	-0.012465	-0.848633	-0.194092	-0.105469	0.578660	0.222696	-0.759362	0.197303
21816		9.471184	-0.567843	-2.565717	-0.067313	-0.007843	-0.020454	-0.842529	-0.194336	-0.106689	0.578790	0.222452	-0.759477	0.196755
21817		9.511856	-0.338527	-2.599924	-0.059256	-0.003483	-0.022022	-0.841064	-0.198486	-0.104736	0.578944	0.222244	-0.759550	0.196254
21818		9.531055	-0.185184	-2.638688	-0.065605	-0.000788	-0.016308	-0.850098	-0.199219	-0.101562	0.579110	0.222001	-0.759625	0.195749
21819		9.513393	-0.249598	-2.590431	-0.067754	-0.001623	-0.010930	-0.843262	-0.193848	-0.109863	0.579243	0.221734	-0.759726	0.195265
21820		9.491164	-0.397134	-2.520875	-0.052859	-0.001783	-0.013825	-0.834473	-0.195068	-0.106201	0.579393	0.221486	-0.759793	0.194842
21821		9.495681	-0.342414	-2.527713	-0.046881	-0.005331	-0.016996	-0.843994	-0.197021	-0.098145	0.579503	0.221321	-0.759860	0.194437
21822		9.495696	-0.424176	-2.613998	-0.058913	-0.005874	-0.020669	-0.849121	-0.192871	-0.109619	0.579594	0.221174	-0.759957	0.193957
21823		9.455194	-0.512127	-2.645263	-0.047739	-0.002438	-0.025314	-0.851562	-0.202881	-0.099854	0.579740	0.221018	-0.760004	0.193513
21824		9.424603	-0.498043	-2.601334	-0.028726	-0.003233	-0.031214	-0.842773	-0.197266	-0.105225	0.579811	0.221101	-0.760010	0.193181
21825		9.442973	-0.420581	-2.563624	-0.001672	-0.002701	-0.040256	-0.844971	-0.193115	-0.107666	0.579879	0.221312	-0.759952	0.192962
21826		9.455283	-0.407071	-2.562075	0.030092	-0.007379	-0.040986	-0.844238	-0.194824	-0.105469	0.579868	0.221647	-0.759871	0.192928
21827		9.540995	-0.348506	-2.546919	0.066115	-0.003118	-0.041205	-0.839111	-0.196289	-0.104492	0.579809	0.222169	-0.759712	0.193132
21828		9.461110	-0.454688	-2.303793	0.078414	-0.000029	-0.041040	-0.839355	-0.199463	-0.110840	0.579746	0.222754	-0.759515	0.193419
21829		9.625414	-0.386519	-2.364490	0.059558	0.011093	-0.046195	-0.840820	-0.203857	-0.106689	0.579828	0.223243	-0.759270	0.193574
21830		9.616398	-0.264539	-2.326872	0.036578	0.019792	-0.049937	-0.848633	-0.189941	-0.109619	0.579993	0.223673	-0.759013	0.193592
21831		9.533235	-0.058209	-2.364248	-0.012765	0.020243	-0.048987	-0.846680	-0.204346	-0.102783	0.580255	0.223759	-0.758863	0.193295
21832		9.432110	-0.468258	-2.362335	-0.038830	0.011471	-0.049396	-0.838135	-0.201172	-0.102783	0.580482	0.223851	-0.758780	0.192831
21833		9.486032	-0.300359	-2.434156	-0.034683	0.005426	-0.060358	-0.847900	-0.199951	-0.103516	0.580685	0.224027	-0.758701	0.192327
21834		9.491559	-0.150531	-2.559878	-0.088498	0.007798	-0.051799	-0.846680	-0.206543	-0.111572	0.580983	0.223867	-0.758722	0.191530
21835		9.453557	-0.352587	-2.659591	-0.072327	-0.001613	-0.050405	-0.843750	-0.199951	-0.110107	0.581226	0.223784	-0.758741	0.190812
21836		9.524983	-0.143496	-2.592383	-0.035046	-0.004632	-0.052803	-0.831543	-0.203369	-0.104980	0.581377	0.223872	-0.758725	0.190311
21837		9.484379	0.111691	-2.561863	-0.064789	-0.001127	-0.036894	-0.844482	-0.205811	-0.105957	0.581564	0.223760	-0.758765	0.189713
21838		9.521360	-0.108677	-2.445456	-0.082491	-0.007692	-0.028941	-0.842529	-0.207520	-0.100342	0.581726	0.223522	-0.758881	0.189031
21839		9.568188	-0.315009	-2.340480	-0.090975	-0.008977	-0.019444	-0.847900	-0.211670	-0.101562	0.581855	0.223226	-0.759038	0.188352
21840		9.556949	-0.512449	-2.426780	-0.090494	-0.011239	-0.027912	-0.839355	-0.201416	-0.105957	0.581984	0.223004	-0.759182	0.187632
21841		9.487411	-0.468030	-2.463319	-0.053886	-0.006699	-0.044300	-0.848633	-0.198975	-0.106445	0.582121	0.222978	-0.759227	0.187056
21842		9.491843	-0.296672	-2.387533	-0.052069	-0.011933	-0.050834	-0.836426	-0.197754	-0.107666	0.582227	0.222987	-0.759292	0.186449
21843		9.461095	-0.111759	-2.453700	-0.097494	-0.022264	-0.041150	-0.845947	-0.203125	-0.113525	0.582349	0.222719	-0.759491	0.185575
21844		9.525771	-0.175446	-2.549549	-0.111658	-0.028034	-0.039361	-0.840820	-0.201416	-0.102295	0.582479	0.222374	-0.759730	0.184605
21845		9.438957	-0.454067	-2.606947	-0.101148	-0.032085	-0.033571	-0.846680	-0.203369	-0.112305	0.582505	0.222103	-0.759998	0.183744
21846		9.449274	-0.372056	-2.554802	-0.038437	-0.049042	-0.037461	-0.837646	-0.207275	-0.102539	0.582356	0.222137	-0.760231	0.183208
21847		9.506846	-0.149696	-2.498826	-0.037145	-0.069892	-0.030376	-0.839355	-0.209229	-0.102051	0.582025	0.222243	-0.760575	0.182702
21848		9.610579	-0.123262	-2.397310	-0.021080	-0.068938	-0.025905	-0.845947	-0.200684	-0.104492	0.581665	0.222404	-0.760895	0.182321
21849		9.644387	-0.017177	-2.389226	0.011856	-0.068365	-0.027989	-0.841797	-0.208496	-0.096191	0.581260	0.222660	-0.761177	0.182124
21850		9.654080	0.204650	-2.269587	0.002162	-0.036340	-0.038715	-0.841553	-0.200928	-0.103027	0.581062	0.222981	-0.761288	0.181900
21851		9.523295	-0.038200	-2.224225	-0.023160	-0.015633	-0.045025	-0.834961	-0.211182	-0.108643	0.581086	0.223092	-0.761334	0.181491
21852		9.526468	-0.067014	-2.404203	-0.003934	-0.005801	-0.031498	-0.839111	-0.196777	-0.102539	0.581146	0.223227	-0.761298	0.181286
21853		9.525442	0.462511	-2.436786	-0.055232	-0.018962	-0.007648	-0.840088	-0.207031	-0.104004	0.581151	0.222924	-0.761488	0.180843
21854		9.530409	0.409775	-2.560883	-0.121198	-0.023408	0.023175	-0.845215	-0.209961	-0.110107	0.581210	0.222167	-0.761833	0.180131
21855		9.486475	0.005879	-2.539851	-0.070424	-0.033114	0.034083	-0.839600	-0.212402	-0.102051	0.581122	0.221580	-0.762159	0.179762
21856		9.563862	0.092303	-2.524213	-0.045802	-0.037658	0.044592	-0.844238	-0.197266	-0.093750	0.580911	0.221124	-0.762485	0.179618
21857		9.556121	0.258075	-2.616054	-0.117789	-0.038087	0.065332	-0.841553	-0.202393	-0.101562	0.580757	0.220152	-0.763000	0.179126
21858		9.577425	-0.211352	-2.649332	-0.142585	-0.036154	0.072365	-0.838623	-0.210449	-0.105713	0.580689	0.218999	-0.763531	0.178492
21859		9.465436	-0.319749	-2.747861	-0.077833	-0.029092	0.061461	-0.847168	-0.208252	-0.104492	0.580585	0.218251	-0.763886	0.178231
21860		9.471557	0.002027	-2.603728	-0.071662	-0.026881	0.060678	-0.853027	-0.203369	-0.100830	0.580474	0.217530	-0.764226	0.178013
21861		9.535113	-0.051809	-2.509896	-0.093925	-0.017775	0.067841	-0.839355	-0.199707	-0.097900	0.580431	0.216637	-0.764584	0.177709
21862		9.465045	-0.387711	-2.527501	-0.051592	-0.015358	0.069110	-0.853760	-0.201172	-0.106934	0.580319	0.215948	-0.764868	0.177689
21863		9.466892	-0.267486	-2.607981	0.005808	-0.017426	0.056885	-0.844971	-0.199219	-0.104248	0.580140	0.215570	-0.765049	0.177952
21864		9.474757	-0.339205	-2.634013	0.030176	-0.019485	0.051884	-0.834229	-0.199951	-0.108398	0.579907	0.215358	-0.765194	0.178346
21865		9.396951	-0.464836	-2.676525	0.045418	-0.022572	0.040925	-0.843262	-0.201660	-0.099365	0.579669	0.215281	-0.765298	0.178766
21866		9.480032	-0.379010	-2.603192	0.065382	-0.017488	0.028961	-0.848877	-0.202637	-0.102051	0.579401	0.215432	-0.765334	0.179296
21867		9.344408	-0.269437	-2.750183	0.068565	-0.016163	0.027930	-0.856445	-0.201172	-0.098145	0.579148	0.215589	-0.765354	0.179837
21868		9.441945	-0.448630	-2.600351	0.052040	-0.022378	0.017559	-0.848633	-0.196289	-0.098633	0.578881	0.215750	-0.765421	0.180220
21869		9.474099	-0.369577	-2.593200	0.054895	-0.016602	0.008716	-0.852051	-0.205078	-0.098389	0.578667	0.215944	-0.765443	0.180580
21870		9.518121	0.285266	-2.530122	0.050622	-0.014360	0.010842	-0.840820	-0.196533	-0.106201	0.578471	0.216152	-0.765448	0.180940
21871		9.488418	0.319345	-2.694923	-0.010769	-0.012278	0.030922	-0.851074	-0.198242	-0.097168	0.578410	0.215841	-0.765573	0.180974
21872		9.373011	-0.469704	-2.809355	-0.045300	-0.025062	0.034913	-0.849609	-0.193115	-0.103516	0.578279	0.215414	-0.765832	0.180808
21873		9.420316	-1.021567	-2.813612	-0.001037	-0.027456	0.009863	-0.845947	-0.189941	-0.096924	0.578120	0.215303	-0.765991	0.180778
21874		9.443349	-0.738494	-2.682393	0.056091	-0.027174	-0.022220	-0.840332	-0.193848	-0.094727	0.577882	0.215691	-0.766015	0.180971
21875		9.417473	-0.256491	-2.769083	0.039694	-0.022624	-0.030625	-0.844238	-0.191162	-0.101562	0.577712	0.216080	-0.766018	0.181036
21876		9.420705	-0.345778	-2.760417	0.040033	-0.019719	-0.039640	-0.849121	-0.190674	-0.101562	0.577602	0.216462	-0.765992	0.181043
21877		9.444050	-0.424200	-2.801127	0.085770	-0.018731	-0.046735	-0.844482	-0.203613	-0.098389	0.577425	0.217097	-0.765883	0.181307
21878		9.434030	-0.449645	-2.748229	0.147006	-0.014137	-0.054292	-0.845215	-0.204102	-0.097412	0.577170	0.218157	-0.765620	0.181955
21879		9.455565	-0.159330	-2.821546	0.207559	-0.011392	-0.061091	-0.849365	-0.199707	-0.102295	0.576830	0.219545	-0.765240	0.182963
21880		9.521006	-0.017176	-2.716369	0.195235	-0.015179	-0.054482	-0.849121	-0.204346	-0.096680	0.576497	0.220770	-0.764915	0.183896
21881		9.456181	-0.470827	-2.698196	0.179690	-0.006741	-0.051864	-0.834961	-0.203613	-0.098633	0.576221	0.221937	-0.764574	0.184771
21882		9.478777	-0.677016	-2.772488	0.233912	-0.003855	-0.067914	-0.843018	-0.203369	-0.093506	0.575905	0.223445	-0.764096	0.185910
21883		9.462837	-0.331537	-2.529836	0.270102	-0.003695	-0.086810	-0.840332	-0.206787	-0.087158	0.575525	0.225259	-0.763535	0.187201
21884		9.537941	0.030959	-2.473280	0.241712	-0.001095	-0.083065	-0.844482	-0.208740	-0.088135	0.575184	0.226951	-0.763008	0.188348
21885		9.518701	0.015383	-2.497113	0.180064	0.002938	-0.064987	-0.846436	-0.204102	-0.089111	0.574961	0.228213	-0.762591	0.189193
21886		9.477081	-0.221939	-2.796122	0.155878	0.009855	-0.057064	-0.846191	-0.210693	-0.083496	0.574818	0.229257	-0.762203	0.189926
21887		9.424018	-0.250060	-2.781974	0.210829	0.007898	-0.060613	-0.849365	-0.215820	-0.095703	0.574540	0.230649	-0.761723	0.191005
21888		9.489148	-0.015516	-2.712327	0.233887	0.007063	-0.059215	-0.837891	-0.214355	-0.085938	0.574263	0.232092	-0.761191	0.192208
21889		9.506476	0.042731	-2.391394	0.183811	0.008840	-0.042560	-0.846191	-0.204346	-0.093994	0.574032	0.233227	-0.760769	0.193192
21890		9.564322	0.022202	-2.328384	0.088529	0.012836	-0.032228	-0.844482	-0.216797	-0.092285	0.574024	0.233724	-0.760519	0.193600
21891		9.526055	-0.170571	-2.274176	0.038178	-0.000729	-0.031113	-0.843506	-0.212646	-0.091797	0.574022	0.234068	-0.760393	0.193680
21892		9.396672	0.020819	-2.467385	-0.003889	-0.005968	-0.032651	-0.839355	-0.210693	-0.089355	0.574070	0.234208	-0.760367	0.193474
21893		9.408014	-0.224264	-2.729044	-0.059162	-0.008019	-0.028127	-0.834229	-0.216797	-0.083740	0.574196	0.234061	-0.760453	0.192939
21894		9.368238	-0.425238	-2.957604	-0.065094	-0.015091	-0.032191	-0.836670	-0.211914	-0.085449	0.574276	0.233988	-0.760565	0.192350
21895		9.374499	-0.383832	-3.027878	-0.018280	-0.006212	-0.050139	-0.839844	-0.214600	-0.091064	0.574353	0.234200	-0.760534	0.191982
21896		9.437732	-0.410770	-3.061268	0.046876	-0.006632	-0.052037	-0.842285	-0.214844	-0.085938	0.574326	0.234714	-0.760390	0.192005
21897		9.522179	-0.282797	-2.874816	0.124126	-0.000291	-0.061396	-0.845215	-0.220947	-0.088623	0.574180	0.235670	-0.760080	0.192497
21898		9.539378	0.063297	-2.739133	0.149361	0.013008	-0.057367	-0.838623	-0.216064	-0.088867	0.574073	0.236708	-0.759662	0.193190
21899		9.563627	0.215727	-2.625335	0.135843	0.014712	-0.034150	-0.842041	-0.218994	-0.083740	0.573971	0.237500	-0.759310	0.193904
21900		9.532768	0.129890	-2.628625	0.110641	0.015683	-0.016556	-0.842041	-0.214600	-0.090576	0.573874	0.238094	-0.759030	0.194559
21901		9.490969	-0.064651	-2.551955	0.104432	0.012429	-0.009648	-0.840576	-0.223145	-0.088379	0.573785	0.238557	-0.758793	0.195178
21902		9.458088	-0.108948	-2.498069	0.083663	0.004663	-0.005852	-0.841797	-0.217285	-0.086914	0.573676	0.238963	-0.758618	0.195679
21903		9.462282	-0.227029	-2.357783	0.050634	0.001171	-0.006240	-0.845459	-0.220703	-0.079346	0.573604	0.239196	-0.758527	0.195962
21904		9.475594	-0.251205	-2.339245	0.010496	0.000840	-0.003480	-0.836914	-0.216309	-0.088867	0.573573	0.239275	-0.758508	0.196028
21905		9.467873	-0.297519	-2.430886	-0.034300	-0.000379	-0.007921	-0.841797	-0.209473	-0.087158	0.573674	0.239100	-0.758557	0.195756
21906		9.457142	-0.199608	-2.547280	-0.057641	-0.000672	-0.011099	-0.842529	-0.217529	-0.089355	0.573814	0.238806	-0.758656	0.195323
21907		9.483695	-0.108831	-2.641995	-0.050197	-0.003796	-0.006490	-0.843750	-0.217041	-0.091064	0.573920	0.238555	-0.758750	0.194953
21908		9.481331	-0.052760	-2.630566	-0.040460	-0.006695	-0.002561	-0.852051	-0.216064	-0.085938	0.573988	0.238318	-0.758850	0.194652
21909		9.490455	-0.228338	-2.610930	-0.046712	-0.005685	0.004174	-0.846436	-0.211426	-0.080566	0.574037	0.238029	-0.758977	0.194366
21910		9.502305	-0.411393	-2.578735	-0.012034	-0.005892	-0.002859	-0.839355	-0.217041	-0.087646	0.574005	0.237964	-0.759043	0.194280
21911		9.480701	-0.365836	-2.635781	0.013219	-0.005611	-0.012399	-0.842773	-0.211182	-0.086182	0.573977	0.238069	-0.759030	0.194284
21912		9.453659	-0.441579	-2.587767	0.045906	-0.008461	-0.017331	-0.841797	-0.218262	-0.087158	0.573864	0.238343	-0.758982	0.194469
21913		9.500562	-0.204170	-2.420161	0.067091	-0.006333	-0.025588	-0.836426	-0.223145	-0.083008	0.573743	0.238795	-0.758859	0.194753
21914		9.463906	-0.034339	-2.458363	0.022782	-0.008329	-0.021802	-0.834717	-0.214844	-0.089600	0.573679	0.239063	-0.758814	0.194786
21915		9.444492	-0.233131	-2.496814	-0.011414	-0.014418	-0.014417	-0.841797	-0.219971	-0.085205	0.573661	0.239045	-0.758883	0.194593
21916		9.409106	-0.343813	-2.587116	-0.016048	-0.017335	-0.019381	-0.839355	-0.208496	-0.085449	0.573621	0.239092	-0.758958	0.194365
21917		9.431585	-0.359524	-2.656996	-0.010384	-0.024108	-0.026338	-0.837891	-0.217041	-0.086914	0.573538	0.239158	-0.759063	0.194117
21918		9.466880	-0.158918	-2.597379	0.006800	-0.029509	-0.032432	-0.833740	-0.217773	-0.075684	0.573406	0.239387	-0.759137	0.193935
21919		9.509861	0.031563	-2.545090	-0.004169	-0.026130	-0.027036	-0.841064	-0.227051	-0.087402	0.573264	0.239599	-0.759222	0.193761
21920		9.507292	0.010580	-2.545629	-0.024813	-0.028021	-0.016586	-0.837158	-0.218262	-0.078613	0.573184	0.239615	-0.759353	0.193462
21921		9.452709	-0.244486	-2.695035	-0.033461	-0.030736	-0.009430	-0.847900	-0.217529	-0.090088	0.573057	0.239555	-0.759545	0.193162
21922		9.455382	-0.509003	-2.709827	0.015027	-0.035791	-0.018208	-0.841797	-0.222656	-0.089844	0.572859	0.239708	-0.759668	0.193074
21923		9.480065	-0.361587	-2.591265	0.061405	-0.032075	-0.028005	-0.843750	-0.208984	-0.084961	0.572613	0.240165	-0.759666	0.193240
21924		9.476037	-0.067339	-2.590105	0.038006	-0.024873	-0.025478	-0.838867	-0.206543	-0.081299	0.572434	0.240436	-0.759702	0.193295
21925		9.459184	-0.044513	-2.579940	0.001121	-0.028037	-0.019230	-0.854736	-0.215088	-0.074707	0.572287	0.240508	-0.759827	0.193151
21926		9.486310	-0.006546	-2.571692	-0.031792	-0.023662	-0.015155	-0.841064	-0.217041	-0.079590	0.572191	0.240471	-0.759981	0.192872
21927		9.522361	0.046884	-2.693163	-0.078193	-0.025567	-0.011855	-0.844727	-0.227051	-0.083252	0.572202	0.240173	-0.760218	0.192278
21928		9.529382	0.087933	-2.797537	-0.090137	-0.015978	-0.004657	-0.851562	-0.214111	-0.083252	0.572301	0.239781	-0.760425	0.191650
21929		9.477820	0.009894	-2.799644	-0.079606	-0.017128	-0.005944	-0.838623	-0.218750	-0.084229	0.572368	0.239380	-0.760645	0.191077
21930		9.429075	-0.122805	-2.695431	-0.044433	-0.015572	0.001472	-0.839600	-0.222900	-0.077148	0.572375	0.239120	-0.760803	0.190756
21931		9.463549	-0.075085	-2.664111	-0.035049	-0.018472	-0.002392	-0.840820	-0.224854	-0.076660	0.572319	0.239008	-0.760942	0.190509
21932		9.446996	-0.053310	-2.652643	-0.043693	-0.019165	0.002535	-0.856445	-0.219482	-0.079590	0.572266	0.238836	-0.761105	0.190234
21933		9.409142	-0.008600	-2.725942	-0.058724	-0.020511	0.007415	-0.844238	-0.221191	-0.090820	0.572231	0.238509	-0.761324	0.189873
21934		9.428760	0.027032	-2.783185	-0.085726	-0.019002	0.013373	-0.837402	-0.216309	-0.080322	0.572305	0.237949	-0.761583	0.189310
21935		9.473024	-0.092003	-2.777659	-0.094062	-0.018012	0.015231	-0.842041	-0.215332	-0.076172	0.572356	0.237386	-0.761859	0.188750
21936		9.469932	-0.037265	-2.767516	-0.084524	-0.015005	0.017986	-0.849854	-0.218506	-0.082764	0.572382	0.236873	-0.762112	0.188294
21937		9.445751	-0.016149	-2.822025	-0.100937	-0.015641	0.018841	-0.842285	-0.219482	-0.073486	0.572459	0.236248	-0.762393	0.187710
21938		9.449057	-0.156942	-2.801741	-0.100598	-0.009481	0.019889	-0.840576	-0.214844	-0.082275	0.572536	0.235684	-0.762637	0.187189
21939		9.451575	-0.229273	-2.845662	-0.089060	-0.009268	0.012614	-0.841797	-0.220459	-0.082764	0.572641	0.235136	-0.762858	0.186657
21940		9.456651	-0.126773	-2.860509	-0.076594	-0.005547	0.011300	-0.842529	-0.219238	-0.088379	0.572746	0.234683	-0.763027	0.186211
21941		9.424632	-0.131475	-2.857160	-0.068018	0.002654	0.012096	-0.842529	-0.218262	-0.082520	0.572909	0.234211	-0.763148	0.185811
21942		9.431324	-0.222879	-2.841724	-0.042740	0.004605	0.009307	-0.837646	-0.218018	-0.087891	0.573012	0.233913	-0.763215	0.185593
21943		9.434277	-0.105334	-2.792332	-0.027032	0.008847	0.007400	-0.842041	-0.213867	-0.089844	0.573139	0.233660	-0.763234	0.185443
21944		9.445227	-0.055503	-2.730908	-0.027399	0.007970	0.009975	-0.854736	-0.216064	-0.078369	0.573261	0.233356	-0.763271	0.185293
21945		9.460514	-0.064406	-2.789374	-0.026399	0.008274	0.010042	-0.837402	-0.210449	-0.085449	0.573327	0.233150	-0.763302	0.185225
21946		9.384417	-0.360275	-2.733016	-0.038458	0.003236	0.006675	-0.840332	-0.220703	-0.084717	0.573428	0.232839	-0.763375	0.184998
21947		9.449376	-0.538652	-2.712373	-0.030074	0.004270	-0.011573	-0.845459	-0.218018	-0.081787	0.573542	0.232747	-0.763377	0.184755
21948		9.457170	-0.258355	-2.813964	-0.019779	0.003732	-0.017595	-0.846680	-0.213135	-0.084229	0.573625	0.232751	-0.763358	0.184569
21949		9.407221	0.098960	-2.875838	-0.027639	0.004788	-0.017837	-0.843506	-0.216309	-0.089355	0.573740	0.232672	-0.763357	0.184318
21950		9.352343	-0.170747	-2.829521	-0.025912	-0.003737	-0.006251	-0.840088	-0.215332	-0.094727	0.573801	0.232523	-0.763411	0.184089
21951		9.452977	-0.258524	-2.749676	0.014174	-0.009298	-0.007985	-0.843994	-0.215576	-0.088867	0.573777	0.232543	-0.763430	0.184062
21952		9.492332	-0.233418	-2.539479	0.049614	-0.004856	-0.015159	-0.847412	-0.220215	-0.085938	0.573696	0.232812	-0.763358	0.184271
21953		9.441395	-0.323978	-2.615050	0.056207	-0.003969	-0.034841	-0.847412	-0.217041	-0.090332	0.573626	0.233279	-0.763225	0.184450
21954		9.452706	-0.461084	-2.645819	0.063726	0.002475	-0.050787	-0.845947	-0.215332	-0.083496	0.573625	0.233821	-0.763027	0.184586
21955		9.487204	-0.274240	-2.619422	0.091502	-0.000442	-0.067804	-0.839844	-0.208740	-0.086914	0.573549	0.234647	-0.762767	0.184850
21956		9.446984	0.124455	-2.578400	0.083410	-0.003293	-0.067090	-0.846191	-0.220703	-0.085205	0.573487	0.235369	-0.762546	0.185032
21957		9.373209	0.564204	-2.629753	-0.023981	-0.028831	-0.036930	-0.840332	-0.221924	-0.077881	0.573420	0.235489	-0.762655	0.184641
21958		9.414797	0.399968	-2.619558	-0.118179	-0.026084	-0.011466	-0.844482	-0.214355	-0.083740	0.573487	0.235050	-0.762939	0.183816
21959		9.427493	0.212030	-2.667818	-0.162167	-0.034449	0.008898	-0.835205	-0.221680	-0.086670	0.573578	0.234202	-0.763385	0.182757
21960		9.528651	0.426235	-2.525064	-0.162208	-0.029117	0.026680	-0.842285	-0.222900	-0.085205	0.573693	0.233249	-0.763827	0.181767
21961		9.478096	0.727717	-2.603749	-0.235635	-0.041532	0.066195	-0.838379	-0.221436	-0.088379	0.573799	0.231733	-0.764512	0.180491
21962		9.506562	0.182503	-2.721026	-0.297497	-0.027940	0.097545	-0.836914	-0.227539	-0.077637	0.574075	0.229675	-0.765282	0.178972
21963		9.471102	-0.464085	-3.145996	-0.222143	-0.031735	0.097509	-0.837646	-0.216309	-0.086182	0.574133	0.228109	-0.765934	0.177996
21964		9.432836	-0.543804	-3.066163	-0.046313	-0.038298	0.069319	-0.840820	-0.220947	-0.087402	0.573889	0.227465	-0.766321	0.177943
21965		9.464903	-0.429989	-2.799765	0.053483	-0.037887	0.037007	-0.845459	-0.216309	-0.089111	0.573511	0.227523	-0.766488	0.178370
21966		9.548968	-0.089275	-2.688071	0.067927	-0.025854	0.036119	-0.837646	-0.209229	-0.081299	0.573190	0.227599	-0.766582	0.178897
21967		9.461750	-0.034754	-2.634318	0.015149	-0.015382	0.041062	-0.840820	-0.206787	-0.078613	0.573003	0.227393	-0.766721	0.179163
21968		9.412035	-0.091137	-2.792160	-0.009818	-0.007169	0.050431	-0.843506	-0.216064	-0.090088	0.572890	0.227004	-0.766878	0.179346
21969		9.381334	-0.051583	-2.913933	0.017549	-0.004122	0.050800	-0.843262	-0.208984	-0.085205	0.572790	0.226709	-0.766968	0.179651
21970		9.458988	-0.122598	-2.812008	0.081026	0.003108	0.045338	-0.842529	-0.214111	-0.091797	0.572605	0.226742	-0.766927	0.180373
21971		9.467433	-0.184614	-2.652520	0.124892	-0.000579	0.043304	-0.841797	-0.204834	-0.084717	0.572345	0.226983	-0.766827	0.181320
21972		9.547536	-0.080579	-2.637030	0.081449	0.006102	0.054659	-0.847168	-0.203369	-0.080322	0.572164	0.226938	-0.766791	0.182093
21973		9.500854	-0.070240	-2.542672	0.061206	0.008797	0.059396	-0.850830	-0.208740	-0.087402	0.572011	0.226791	-0.766783	0.182795
21974		9.477722	-0.109543	-2.500253	0.044444	0.007228	0.058540	-0.851562	-0.199463	-0.094971	0.571909	0.226548	-0.766799	0.183343
21975		9.464485	-0.252085	-2.538548	0.010547	0.001134	0.061624	-0.844238	-0.212646	-0.082764	0.571857	0.226040	-0.766918	0.183635
21976		9.430687	-0.429498	-2.748755	-0.019324	0.009225	0.054745	-0.839111	-0.193848	-0.077148	0.571879	0.225572	-0.767005	0.183780
21977		9.536842	-0.591572	-2.776335	-0.013509	0.001037	0.038739	-0.842773	-0.209717	-0.083740	0.571837	0.225216	-0.767110	0.183911
21978		9.448497	-0.477278	-2.823389	0.055756	0.015589	0.014180	-0.848389	-0.201660	-0.083984	0.571824	0.225346	-0.766975	0.184352
21979		9.534342	-0.385342	-2.404361	0.064380	0.015297	0.005435	-0.845215	-0.195557	-0.083496	0.571802	0.225538	-0.766824	0.184813
21980		9.563208	-0.411779	-2.369917	0.037359	0.015442	0.004588	-0.846680	-0.215332	-0.082520	0.571832	0.225585	-0.766719	0.185101
21981		9.523013	-0.475803	-2.412341	0.021862	0.004287	-0.000562	-0.851318	-0.193115	-0.087402	0.571826	0.225702	-0.766654	0.185246
21982		9.436205	-0.369730	-2.640755	-0.016282	0.010389	-0.007176	-0.844971	-0.207764	-0.087402	0.571954	0.225540	-0.766638	0.185112
21983		9.435920	0.124919	-2.664755	-0.076050	0.010608	0.001817	-0.843262	-0.199463	-0.086182	0.572187	0.225099	-0.766710	0.184629
21984		9.438642	0.033787	-2.735719	-0.102743	0.007230	0.008361	-0.847656	-0.203857	-0.084229	0.572431	0.224473	-0.766860	0.184012
21985		9.349369	-0.223447	-2.881869	-0.080479	0.016695	0.019238	-0.845947	-0.204102	-0.088135	0.572664	0.223906	-0.766945	0.183623
21986		9.334768	-0.380253	-2.916001	-0.022528	0.014249	0.011061	-0.851562	-0.196777	-0.083984	0.572802	0.223649	-0.766938	0.183537
21987		9.431613	-0.001533	-2.747907	0.003911	0.014826	0.013577	-0.843018	-0.207275	-0.087402	0.572867	0.223507	-0.766899	0.183671
21988		9.527015	0.105598	-2.564861	-0.047978	0.016038	0.020531	-0.850098	-0.195801	-0.086426	0.573046	0.223089	-0.766934	0.183474
21989		9.440267	-0.247933	-2.783224	-0.074405	0.025001	0.021568	-0.848145	-0.201416	-0.083984	0.573317	0.222490	-0.766982	0.183150
21990		9.369254	-0.504254	-2.828133	-0.043940	0.019456	0.008751	-0.849121	-0.198975	-0.090820	0.573506	0.222175	-0.766977	0.182964
21991		9.305235	-0.678957	-2.915560	-0.037752	0.010107	-0.007616	-0.846191	-0.205811	-0.082275	0.573673	0.221952	-0.766983	0.182684
21992		9.327162	-0.590486	-3.060176	-0.010540	0.006288	-0.031858	-0.847900	-0.213623	-0.087891	0.573769	0.222114	-0.766907	0.182503
21993		9.340372	-0.518863	-3.076158	0.005713	-0.002999	-0.044845	-0.844238	-0.205078	-0.083984	0.573819	0.222441	-0.766821	0.182313
21994		9.395740	-0.575923	-2.935867	0.051150	0.000351	-0.066539	-0.851807	-0.203613	-0.094727	0.573823	0.223108	-0.766618	0.182339
21995		9.427053	-0.499921	-2.850401	0.085086	0.002177	-0.083577	-0.851807	-0.215576	-0.085938	0.573839	0.223958	-0.766331	0.182451
21996		9.427525	-0.265194	-2.889595	0.093264	0.011372	-0.086649	-0.837402	-0.215088	-0.086426	0.573871	0.224956	-0.765965	0.182661
21997		9.393777	0.065458	-3.004312	0.065271	0.003597	-0.083565	-0.847168	-0.213623	-0.095703	0.573910	0.225800	-0.765683	0.182677
21998		9.433215	-0.101722	-2.958481	0.068405	0.017648	-0.075193	-0.849854	-0.211914	-0.094727	0.574050	0.226513	-0.765353	0.182741
21999		9.429182	-0.342323	-2.890709	0.147238	0.016026	-0.084279	-0.843750	-0.206543	-0.088379	0.574037	0.227657	-0.764896	0.183269
22000		9.406303	-0.017450	-2.732974	0.190387	0.017680	-0.088248	-0.849854	-0.203369	-0.091309	0.573937	0.229041	-0.764362	0.184085
22001		9.524394	0.115574	-2.546493	0.156140	0.020174	-0.079157	-0.841553	-0.205566	-0.086426	0.573910	0.230160	-0.763892	0.184723
22002		9.495749	-0.301418	-2.586744	0.162379	0.023461	-0.076279	-0.840576	-0.208496	-0.092285	0.573873	0.231320	-0.763397	0.185437
22003		9.435324	-0.257907	-2.700555	0.202754	0.021294	-0.082097	-0.850098	-0.213867	-0.083008	0.573776	0.232677	-0.762837	0.186339
22004		9.434036	-0.133615	-2.628688	0.216812	0.022005	-0.085860	-0.848145	-0.220459	-0.090820	0.573622	0.234201	-0.762234	0.187371
22005		9.490955	-0.209926	-2.630757	0.205468	0.021545	-0.087301	-0.838135	-0.223633	-0.085693	0.573522	0.235639	-0.761644	0.188268
22006		9.517100	-0.199598	-2.577433	0.226247	0.029085	-0.089983	-0.836914	-0.225586	-0.077393	0.573419	0.237219	-0.760972	0.189313
22007		9.444220	-0.191278	-2.569482	0.238204	0.035323	-0.090765	-0.842773	-0.216553	-0.079834	0.573299	0.238906	-0.760242	0.190486
22008		9.432914	-0.383361	-2.783045	0.285773	0.037194	-0.097216	-0.845215	-0.222900	-0.086670	0.573108	0.240800	-0.759424	0.191933
22009		9.470247	-0.348556	-2.934252	0.357699	0.038894	-0.112203	-0.840088	-0.222412	-0.086426	0.572831	0.243097	-0.758445	0.193725
22010		9.606692	-0.113305	-2.866962	0.410458	0.049073	-0.124548	-0.838623	-0.237061	-0.081787	0.572529	0.245691	-0.757303	0.195803
22011		9.585066	0.151857	-2.716093	0.400775	0.067569	-0.111275	-0.837158	-0.230713	-0.084961	0.572325	0.248190	-0.756089	0.197927
22012		9.490408	0.166605	-2.593150	0.384685	0.067976	-0.101343	-0.836182	-0.230469	-0.089355	0.572146	0.250492	-0.754924	0.199981
22013		9.565218	0.368782	-2.582369	0.362538	0.068447	-0.080620	-0.840088	-0.232666	-0.074707	0.571995	0.252514	-0.753835	0.201967
22014		9.471077	0.441023	-2.516814	0.300437	0.055298	-0.063674	-0.839111	-0.232910	-0.092773	0.571799	0.254253	-0.752932	0.203700
22015		9.516047	0.266963	-2.451864	0.212273	0.064117	-0.040074	-0.829834	-0.235840	-0.076660	0.571877	0.255278	-0.752200	0.204902
22016		9.414591	-0.179239	-2.400578	0.152322	0.053220	-0.037055	-0.833740	-0.235107	-0.087646	0.571949	0.256133	-0.751610	0.205800
22017		9.398533	-0.399975	-2.427470	0.143238	0.042192	-0.055154	-0.831787	-0.234375	-0.092773	0.572042	0.256997	-0.751059	0.206472
22018		9.495088	-0.399617	-2.427098	0.101912	0.033512	-0.072388	-0.828857	-0.242432	-0.084961	0.572219	0.257745	-0.750590	0.206755
22019		9.471436	-0.304599	-2.424554	0.068241	0.034953	-0.078103	-0.837646	-0.234619	-0.079346	0.572460	0.258439	-0.750146	0.206834
22020		9.481050	-0.110432	-2.533035	0.033386	0.029364	-0.079936	-0.833252	-0.239746	-0.079102	0.572707	0.259014	-0.749783	0.206745
22021		9.484095	0.177182	-2.696404	-0.004567	0.031462	-0.069180	-0.837891	-0.239502	-0.081787	0.573033	0.259349	-0.749496	0.206464
22022		9.484284	0.258998	-2.510418	-0.006319	0.021599	-0.054777	-0.834473	-0.243896	-0.082520	0.573283	0.259583	-0.749293	0.206212
22023		9.513405	0.384096	-2.392778	0.003908	0.020732	-0.040543	-0.837646	-0.244385	-0.075195	0.573486	0.259784	-0.749105	0.206076
22024		9.591083	0.387887	-2.423580	-0.021669	0.013503	-0.010008	-0.833984	-0.245850	-0.083252	0.573612	0.259743	-0.749053	0.205966
22025		9.553530	0.232517	-2.519077	-0.055081	0.011200	0.010048	-0.833496	-0.239746	-0.081543	0.573798	0.259365	-0.749121	0.205678
22026		9.524945	0.025649	-2.689405	-0.070721	0.014177	0.024595	-0.835205	-0.237793	-0.084961	0.574000	0.258816	-0.749235	0.205391
22027		9.442285	-0.197338	-2.773006	-0.049953	0.012974	0.023691	-0.835205	-0.242432	-0.085449	0.574161	0.258347	-0.749322	0.205212
22028		9.492704	-0.390361	-2.640020	-0.006931	0.020643	0.017410	-0.837891	-0.240967	-0.094238	0.574291	0.258124	-0.749281	0.205278
22029		9.531212	-0.269694	-2.487619	0.047726	0.024142	0.009754	-0.834473	-0.245117	-0.085693	0.574372	0.258139	-0.749125	0.205604
22030		9.549313	-0.067406	-2.357923	0.060947	0.024118	0.010778	-0.828613	-0.244141	-0.087402	0.574389	0.258287	-0.748934	0.206066
22031		9.532216	0.157703	-2.374365	0.022516	0.029660	0.023777	-0.838867	-0.239990	-0.094238	0.574512	0.258144	-0.748812	0.206344
22032		9.475659	0.030651	-2.514147	-0.002697	0.017029	0.031798	-0.829834	-0.240967	-0.086914	0.574615	0.257795	-0.748824	0.206451
22033		9.528665	-0.130777	-2.464283	0.027988	0.010587	0.028627	-0.833252	-0.239258	-0.085449	0.574592	0.257684	-0.748795	0.206759
22034		9.518622	-0.144347	-2.331950	0.038235	0.013063	0.029674	-0.830811	-0.244873	-0.079590	0.574550	0.257622	-0.748737	0.207161
22035		9.561807	-0.015087	-2.292089	0.009295	0.014611	0.040673	-0.834473	-0.241211	-0.090576	0.574541	0.257410	-0.748732	0.207466
22036		9.524902	-0.008080	-2.357552	-0.022357	0.018462	0.041784	-0.832275	-0.229004	-0.084961	0.574665	0.256942	-0.748784	0.207520
22037		9.528301	0.060803	-2.369907	-0.049095	0.017286	0.047100	-0.833984	-0.238770	-0.081055	0.574797	0.256334	-0.748898	0.207494
22038		9.556376	0.163062	-2.339301	-0.078341	0.009509	0.061322	-0.837158	-0.239014	-0.083496	0.574905	0.255571	-0.749115	0.207350
22039		9.521017	0.058214	-2.360158	-0.120537	0.002228	0.073155	-0.835693	-0.235107	-0.090820	0.575044	0.254532	-0.749467	0.206971
22040		9.532724	-0.206204	-2.434631	-0.113522	-0.004135	0.079730	-0.834229	-0.231201	-0.084229	0.575145	0.253435	-0.749862	0.206604
22041		9.498864	-0.223028	-2.268112	-0.106190	-0.009210	0.078902	-0.837646	-0.241699	-0.085693	0.575170	0.252434	-0.750258	0.206323
22042		9.572806	-0.003273	-2.143185	-0.135044	-0.006730	0.089309	-0.836182	-0.222656	-0.091797	0.575260	0.251252	-0.750703	0.205894
22043		9.609347	0.054425	-2.235015	-0.214393	-0.001000	0.106607	-0.839111	-0.225586	-0.087891	0.575539	0.249473	-0.751315	0.205045
22044		9.505488	-0.271634	-2.484350	-0.236540	-0.004301	0.101872	-0.834473	-0.231689	-0.092773	0.575828	0.247675	-0.751957	0.204058
22045		9.510488	-0.320182	-2.574611	-0.209120	-0.005419	0.092377	-0.832275	-0.227539	-0.089600	0.576091	0.246062	-0.752531	0.203148
22046		9.461500	-0.264367	-2.536125	-0.194927	-0.006131	0.086128	-0.848633	-0.223389	-0.094482	0.576314	0.244578	-0.753067	0.202324
22047		9.437663	-0.093011	-2.610786	-0.162943	-0.004830	0.086405	-0.838623	-0.218750	-0.082275	0.576483	0.243206	-0.753549	0.201698
22048		9.491831	-0.110868	-2.562443	-0.164084	-0.008974	0.087337	-0.830322	-0.222412	-0.094238	0.576579	0.241913	-0.754041	0.201142
22049		9.470262	-0.357120	-2.513744	-0.161203	-0.001278	0.085737	-0.844482	-0.223877	-0.093750	0.576772	0.240559	-0.754493	0.200511
22050		9.449469	-0.615619	-2.539583	-0.147865	-0.005022	0.076656	-0.835693	-0.218994	-0.099365	0.576917	0.239355	-0.754918	0.199937
22051		9.439171	-0.681998	-2.554751	-0.102294	-0.005165	0.048996	-0.838379	-0.220215	-0.088135	0.577041	0.238492	-0.755219	0.199472
22052		9.506701	-0.550730	-2.551624	-0.068061	-0.006172	0.036823	-0.838623	-0.220215	-0.097168	0.577062	0.237964	-0.755429	0.199246
22053		9.520461	-0.209335	-2.546116	-0.076082	-0.008876	0.031992	-0.837891	-0.216553	-0.098145	0.577126	0.237373	-0.755663	0.198880
22054		9.577290	-0.219634	-2.530499	-0.108291	-0.004842	0.032933	-0.837402	-0.215088	-0.099365	0.577279	0.236596	-0.755937	0.198319
22055		9.639350	-0.317191	-2.627556	-0.089231	0.006132	0.033470	-0.838135	-0.211426	-0.096924	0.577466	0.235880	-0.756129	0.197895
22056		9.463492	-0.117684	-2.719856	-0.091370	0.015950	0.036180	-0.838623	-0.211182	-0.098389	0.577702	0.235129	-0.756283	0.197513
22057		9.410303	-0.205241	-2.684744	-0.103267	0.011707	0.040103	-0.846924	-0.209473	-0.103516	0.577931	0.234298	-0.756484	0.197059
22058		9.482402	-0.443093	-2.688750	-0.093310	0.006576	0.032159	-0.838867	-0.206543	-0.092041	0.578133	0.233540	-0.756684	0.196598
22059		9.433919	-0.543434	-2.629838	-0.043565	0.007084	0.017426	-0.843018	-0.211426	-0.106689	0.578222	0.233189	-0.756761	0.196456
22060		9.449207	-0.266900	-2.552825	-0.026543	0.005086	0.003933	-0.845215	-0.214600	-0.099365	0.578344	0.232926	-0.756802	0.196254
22061		9.474391	-0.327745	-2.556329	-0.061605	0.009500	0.002875	-0.843506	-0.207031	-0.111084	0.578532	0.232559	-0.756865	0.195888
22062		9.436824	-0.431258	-2.536431	-0.051679	0.010683	-0.007516	-0.841553	-0.214111	-0.096191	0.578770	0.232196	-0.756906	0.195459
22063		9.446126	-0.313777	-2.628098	-0.042164	0.008980	-0.013068	-0.843506	-0.215576	-0.097168	0.578930	0.232051	-0.756905	0.195161
22064		9.457068	-0.326414	-2.621493	-0.039969	0.005518	-0.018298	-0.832764	-0.207764	-0.096436	0.579074	0.231956	-0.756906	0.194842
22065		9.463844	-0.331118	-2.509032	-0.022047	0.003041	-0.021370	-0.839600	-0.207275	-0.099365	0.579173	0.231948	-0.756891	0.194616
22066		9.470200	-0.180105	-2.498918	-0.021944	0.002236	-0.020894	-0.838135	-0.203857	-0.101318	0.579273	0.231916	-0.756885	0.194379
22067		9.464578	-0.239575	-2.413604	-0.024149	0.000989	-0.024032	-0.835205	-0.213623	-0.099121	0.579381	0.231869	-0.756889	0.194098
22068		9.488004	-0.083215	-2.421773	-0.023153	-0.002992	-0.023756	-0.845947	-0.212646	-0.101807	0.579456	0.231884	-0.756896	0.193827
22069		9.436838	-0.186863	-2.538114	-0.042179	-0.008601	-0.020829	-0.842773	-0.220703	-0.107910	0.579532	0.231775	-0.756972	0.193433
22070		9.385802	-0.528662	-2.648981	-0.019379	-0.017715	-0.032184	-0.846924	-0.207275	-0.100342	0.579552	0.231849	-0.757029	0.193061
22071		9.440887	-0.603372	-2.656575	0.045260	-0.025814	-0.053750	-0.841064	-0.215820	-0.099609	0.579395	0.232388	-0.756990	0.193040
22072		9.447155	-0.492258	-2.588776	0.107259	-0.030671	-0.072301	-0.845459	-0.213867	-0.100586	0.579121	0.233379	-0.756827	0.193304
22073		9.491890	-0.223566	-2.429185	0.120967	-0.038002	-0.070395	-0.846924	-0.213379	-0.102295	0.578774	0.234414	-0.756686	0.193644
22074		9.641444	-0.137243	-2.254962	0.096700	-0.029883	-0.069888	-0.850342	-0.214355	-0.091553	0.578532	0.235290	-0.756550	0.193832
22075		9.585237	-0.311931	-2.241730	0.062853	-0.007692	-0.073024	-0.841797	-0.216797	-0.096191	0.578461	0.236060	-0.756345	0.193911
22076		9.515193	-0.486450	-2.241233	0.052872	-0.011214	-0.082309	-0.831543	-0.224609	-0.087891	0.578426	0.236813	-0.756156	0.193831
22077		9.630224	-0.229790	-2.340156	0.059438	-0.007682	-0.094874	-0.840576	-0.222656	-0.101562	0.578397	0.237753	-0.755896	0.193783
22078		9.524429	0.056864	-2.428357	0.056921	-0.020166	-0.088447	-0.835693	-0.222168	-0.098633	0.578330	0.238552	-0.755732	0.193641
22079		9.476894	0.180921	-2.648592	0.063798	-0.022220	-0.077896	-0.836426	-0.223145	-0.102051	0.578212	0.239329	-0.755587	0.193600
22080		9.446614	0.101989	-2.776059	0.042464	-0.029329	-0.054780	-0.838623	-0.229004	-0.097168	0.578069	0.239841	-0.755561	0.193495
22081		9.499456	-0.013478	-2.821254	0.079928	-0.026187	-0.044113	-0.837646	-0.223633	-0.087891	0.577837	0.240510	-0.755470	0.193713
22082		9.537857	-0.042996	-2.581750	0.153692	-0.035576	-0.036291	-0.838379	-0.224854	-0.092529	0.577351	0.241537	-0.755318	0.194474
22083		9.573275	0.032746	-2.471869	0.177379	-0.039806	-0.028174	-0.836426	-0.223877	-0.102051	0.576797	0.242595	-0.755170	0.195376
22084		9.576672	0.201483	-2.474672	0.113437	-0.031779	-0.006293	-0.839111	-0.226807	-0.092529	0.576428	0.243116	-0.755143	0.195922
22085		9.487000	0.067752	-2.609703	0.053598	-0.020317	0.008039	-0.835938	-0.224121	-0.090576	0.576194	0.243309	-0.755175	0.196243
22086		9.472447	-0.298126	-2.626711	0.067520	-0.021067	0.001863	-0.839600	-0.219727	-0.101562	0.575934	0.243611	-0.755176	0.196629
22087		9.474003	-0.260611	-2.592929	0.107555	-0.021834	-0.011291	-0.841797	-0.222412	-0.090088	0.575649	0.244091	-0.755109	0.197127
22088		9.595480	0.137731	-2.387301	0.062540	-0.020853	-0.005031	-0.837402	-0.230713	-0.090820	0.575409	0.244401	-0.755106	0.197451
22089		9.598055	-0.007362	-2.329795	-0.034774	-0.013798	0.008403	-0.844971	-0.218750	-0.097656	0.575399	0.244166	-0.755249	0.197224
22090		9.500722	-0.085565	-2.550698	-0.002767	-0.020145	0.016467	-0.840576	-0.224609	-0.093262	0.575290	0.243956	-0.755410	0.197188
22091		9.419020	0.058753	-2.461783	0.043660	-0.026723	0.024809	-0.841309	-0.220459	-0.085693	0.575020	0.243976	-0.755529	0.197493
22092		9.566589	0.351829	-2.331213	0.080863	-0.033787	0.044490	-0.835938	-0.221680	-0.087402	0.574567	0.244105	-0.755655	0.198169
22093		9.628052	0.592022	-2.107301	0.075147	-0.037481	0.077397	-0.840820	-0.221680	-0.087402	0.574061	0.243992	-0.755876	0.198933
22094		9.548171	0.393759	-2.187721	0.000285	-0.044227	0.115466	-0.839844	-0.218018	-0.082275	0.573602	0.243288	-0.756330	0.199389
22095		9.507230	-0.093240	-2.421148	-0.063809	-0.046059	0.135565	-0.841553	-0.219482	-0.085205	0.573210	0.242183	-0.756935	0.199568
22096		9.527598	-0.415814	-2.637111	-0.088009	-0.044181	0.133104	-0.845459	-0.224365	-0.083984	0.572896	0.240958	-0.757566	0.199559
22097		9.511734	-0.518408	-2.501648	-0.078763	-0.047170	0.121447	-0.847412	-0.218994	-0.085205	0.572560	0.239884	-0.758162	0.199552
22098		9.546212	-0.259945	-2.312452	-0.123515	-0.050526	0.113871	-0.843506	-0.210938	-0.086182	0.572307	0.238627	-0.758839	0.199211
22099		9.516519	-0.114977	-2.519362	-0.232021	-0.042371	0.120096	-0.841064	-0.218262	-0.083740	0.572314	0.236771	-0.759674	0.198221
22100		9.433632	-0.466014	-2.853761	-0.250653	-0.033538	0.124881	-0.844238	-0.208984	-0.089844	0.572398	0.234830	-0.760488	0.197164
22101		9.375403	-0.464864	-3.028536	-0.144992	-0.036639	0.111486	-0.848877	-0.207764	-0.093262	0.572292	0.233418	-0.761130	0.196671
22102		9.586075	-0.077411	-2.921090	-0.029235	-0.029443	0.107861	-0.849365	-0.209229	-0.087158	0.572023	0.232545	-0.761543	0.196888
22103		9.511051	0.250869	-2.776807	-0.031316	-0.016859	0.131050	-0.847412	-0.210938	-0.086426	0.571778	0.231545	-0.761934	0.197265
22104		9.447459	0.006724	-2.646827	-0.066652	-0.008152	0.155322	-0.840332	-0.190918	-0.091797	0.571616	0.230223	-0.762383	0.197548
22105		9.499683	-0.345105	-2.599003	-0.092129	-0.012385	0.161671	-0.843994	-0.196289	-0.083984	0.571481	0.228656	-0.762926	0.197660
22106		9.460986	-0.457934	-2.659442	-0.121405	-0.008030	0.155715	-0.846191	-0.206787	-0.088867	0.571408	0.227062	-0.763467	0.197620
22107		9.442188	-0.591663	-2.754166	-0.160786	-0.005797	0.148652	-0.848633	-0.190918	-0.086182	0.571456	0.225323	-0.764040	0.197257
22108		9.364055	-0.835827	-2.780007	-0.163304	-0.007226	0.133427	-0.847656	-0.187744	-0.084961	0.571504	0.223656	-0.764602	0.196838
22109		9.340722	-0.881016	-2.728957	-0.139151	-0.008051	0.110822	-0.851807	-0.189941	-0.087158	0.571531	0.222259	-0.765082	0.196475
22110		9.363360	-0.743121	-2.707226	-0.121352	-0.006008	0.088495	-0.850586	-0.187988	-0.087158	0.571581	0.221083	-0.765479	0.196111
22111		9.440170	-0.653150	-2.587699	-0.106584	-0.008930	0.070462	-0.846924	-0.191406	-0.084717	0.571612	0.220098	-0.765832	0.195750
22112		9.431151	-0.669710	-2.730374	-0.117553	-0.001722	0.062850	-0.844727	-0.186035	-0.090088	0.571714	0.219131	-0.766145	0.195309
22113		9.425841	-0.865839	-2.820295	-0.083266	0.003180	0.046018	-0.851318	-0.186279	-0.091797	0.571831	0.218379	-0.766356	0.194983
22114		9.376684	-0.921182	-2.856301	-0.018246	0.005884	0.021002	-0.855957	-0.187744	-0.089355	0.571889	0.218085	-0.766404	0.194954
22115		9.341971	-0.789120	-2.960762	0.015988	0.009743	0.000409	-0.845947	-0.185303	-0.090820	0.571932	0.218104	-0.766336	0.195072
22116		9.403115	-0.950422	-2.788091	0.053977	0.013105	-0.016881	-0.857666	-0.180176	-0.091553	0.571964	0.218393	-0.766162	0.195342
22117		9.400932	-0.878817	-2.710620	0.109729	0.013569	-0.041671	-0.855957	-0.189697	-0.094727	0.571932	0.219085	-0.765856	0.195860
22118		9.453596	-0.688264	-2.681813	0.120844	0.013573	-0.056671	-0.855957	-0.195312	-0.083252	0.571920	0.219928	-0.765497	0.196349
22119		9.515892	-0.623374	-2.640793	0.134920	0.013227	-0.069731	-0.852295	-0.189941	-0.087158	0.571861	0.221012	-0.765079	0.196934
22120		9.481705	-0.452961	-2.641626	0.143244	0.010746	-0.074170	-0.846191	-0.189941	-0.087891	0.571791	0.222122	-0.764658	0.197522
22121		9.442715	-0.531262	-2.590881	0.150323	0.014675	-0.080293	-0.848145	-0.189697	-0.091064	0.571747	0.223289	-0.764195	0.198125
22122		9.416484	-0.402394	-2.583174	0.167528	0.010172	-0.082689	-0.844971	-0.187500	-0.078369	0.571657	0.224533	-0.763723	0.198799
22123		9.411124	-0.550017	-2.577064	0.145271	0.007375	-0.077480	-0.848877	-0.201172	-0.084717	0.571535	0.225712	-0.763303	0.199424
22124		9.486529	-0.549602	-2.576868	0.175917	0.002060	-0.089519	-0.853516	-0.198975	-0.087158	0.571368	0.227115	-0.762827	0.200132
22125		9.458538	-0.476685	-2.550800	0.173264	0.001653	-0.091079	-0.840820	-0.191895	-0.090820	0.571211	0.228485	-0.762358	0.200803
22126		9.486437	-0.484671	-2.680578	0.172336	0.002228	-0.091702	-0.841064	-0.192627	-0.086426	0.571077	0.229803	-0.761895	0.201438
22127		9.447224	-0.475490	-2.786670	0.166226	0.006126	-0.097609	-0.847168	-0.197266	-0.078369	0.570974	0.231143	-0.761408	0.202037
22128		9.505866	-0.411532	-2.834414	0.183084	0.010012	-0.102666	-0.843506	-0.208496	-0.085449	0.570840	0.232644	-0.760856	0.202770
22129		9.441033	-0.126693	-2.792780	0.197439	0.008063	-0.099454	-0.844238	-0.203613	-0.084717	0.570691	0.234180	-0.760287	0.203556
22130		9.490990	-0.027751	-2.687474	0.138859	0.013150	-0.080598	-0.846924	-0.202393	-0.090576	0.570652	0.235289	-0.759835	0.204074
22131		9.453387	-0.210257	-2.788472	0.126198	0.016989	-0.068090	-0.839111	-0.204102	-0.085449	0.570659	0.236207	-0.759418	0.204548
22132		9.441960	-0.270629	-2.764939	0.153698	0.015966	-0.065626	-0.836914	-0.202637	-0.083984	0.570586	0.237273	-0.758957	0.205226
22133		9.557551	-0.081208	-2.693736	0.151048	0.013781	-0.060601	-0.844727	-0.205078	-0.083252	0.570491	0.238298	-0.758521	0.205913
22134		9.572371	0.085487	-2.546126	0.090463	0.019984	-0.040586	-0.846924	-0.207031	-0.085449	0.570516	0.238902	-0.758199	0.206331
22135		9.541265	-0.039455	-2.449158	0.035559	0.019838	-0.018854	-0.847168	-0.199463	-0.080566	0.570619	0.239098	-0.758015	0.206492
22136		9.487601	-0.175624	-2.552315	0.018238	0.014751	-0.009923	-0.842529	-0.208984	-0.081299	0.570688	0.239171	-0.757908	0.206608
22137		9.446054	-0.369578	-2.587269	0.031734	0.005839	-0.004915	-0.845459	-0.214844	-0.078125	0.570673	0.239318	-0.757820	0.206804
22138		9.463865	-0.621971	-2.497771	0.058523	0.000782	-0.009063	-0.848145	-0.210205	-0.087891	0.570569	0.239663	-0.757694	0.207155
22139		9.514050	-0.629910	-2.428123	0.086611	-0.000362	-0.018538	-0.844971	-0.215576	-0.084961	0.570450	0.240130	-0.757517	0.207587
22140		9.520074	-0.278394	-2.389534	0.077334	0.000735	-0.018019	-0.844238	-0.211914	-0.089600	0.570349	0.240580	-0.757344	0.207976
22141		9.462639	-0.149070	-2.496242	0.013544	0.002553	-0.003908	-0.854736	-0.212646	-0.077393	0.570378	0.240595	-0.757308	0.208010
22142		9.551302	-0.382605	-2.512042	0.017181	0.000107	0.007266	-0.843994	-0.206055	-0.077881	0.570319	0.240629	-0.757294	0.208183
22143		9.532832	0.070577	-2.568041	0.032461	0.001088	0.016909	-0.845703	-0.205566	-0.086914	0.570223	0.240652	-0.757273	0.208495
22144		9.520945	0.233821	-2.682630	-0.031928	-0.000870	0.047572	-0.844971	-0.206543	-0.084229	0.570221	0.240127	-0.757441	0.208495
22145		9.488063	-0.276050	-2.837252	-0.035501	0.000987	0.065651	-0.849854	-0.209717	-0.083252	0.570198	0.239488	-0.757639	0.208574
22146		9.510500	-0.289156	-2.710859	0.034704	-0.002014	0.063668	-0.842041	-0.204834	-0.081055	0.570015	0.239218	-0.757720	0.209088
22147		9.556401	-0.130980	-2.570863	0.024147	0.003163	0.079286	-0.838135	-0.201172	-0.080811	0.569853	0.238791	-0.757829	0.209625
22148		9.511789	-0.279456	-2.476934	-0.003764	0.005893	0.091221	-0.850586	-0.202148	-0.081543	0.569742	0.238145	-0.757998	0.210047
22149		9.527014	-0.463837	-2.545314	-0.023081	0.008825	0.099467	-0.850098	-0.199463	-0.083740	0.569672	0.237351	-0.758203	0.210396
22150		9.485776	-0.600042	-2.561894	-0.011238	0.006053	0.094913	-0.850586	-0.196533	-0.087158	0.569575	0.236632	-0.758393	0.210782
22151		9.417971	-0.611176	-2.611647	0.000336	0.005955	0.093166	-0.852051	-0.200928	-0.080322	0.569468	0.235957	-0.758563	0.211217
22152		9.384826	-0.529791	-2.574043	-0.006043	0.002246	0.091643	-0.844727	-0.197266	-0.084473	0.569330	0.235324	-0.758748	0.211631
22153		9.405653	-0.501072	-2.391828	-0.032155	0.001313	0.090639	-0.852051	-0.194580	-0.086426	0.569254	0.234547	-0.758985	0.211849
22154		9.482617	-0.745139	-2.356706	-0.044524	-0.008389	0.083506	-0.850342	-0.190918	-0.088867	0.569157	0.233758	-0.759278	0.211931
22155		9.526390	-0.773161	-2.343372	-0.055357	-0.007235	0.071471	-0.849609	-0.189453	-0.082031	0.569117	0.232972	-0.759564	0.211880
22156		9.467334	-0.754059	-2.453172	-0.081756	-0.009106	0.063219	-0.854248	-0.181152	-0.084473	0.569107	0.232155	-0.759885	0.211653
22157		9.483113	-0.746927	-2.519508	-0.084741	-0.010486	0.048924	-0.851807	-0.190186	-0.083496	0.569122	0.231379	-0.760199	0.211331
22158		9.482933	-0.575857	-2.602230	-0.093776	-0.016256	0.046900	-0.854492	-0.198486	-0.084229	0.569122	0.230622	-0.760540	0.210932
22159		9.474717	-0.481555	-2.638369	-0.085693	-0.015031	0.049100	-0.850830	-0.190674	-0.082764	0.569113	0.229913	-0.760856	0.210590
22160		9.475545	-0.329140	-2.629356	-0.080631	-0.013336	0.059190	-0.848877	-0.189453	-0.085938	0.569082	0.229147	-0.761179	0.210340
22161		9.531855	-0.318797	-2.468405	-0.106120	-0.011369	0.072158	-0.851807	-0.186035	-0.088867	0.569100	0.228158	-0.761564	0.209977
22162		9.606602	-0.241000	-2.392617	-0.133524	-0.007691	0.086998	-0.852295	-0.184570	-0.081055	0.569174	0.226915	-0.762009	0.209506
22163		9.509790	-0.314005	-2.557891	-0.191986	-0.005138	0.104289	-0.853516	-0.183838	-0.089844	0.569316	0.225323	-0.762573	0.208788
22164		9.529252	-0.706842	-2.576959	-0.177230	-0.001035	0.108448	-0.857666	-0.186279	-0.089844	0.569474	0.223727	-0.763098	0.208151
22165		9.459002	-0.745669	-2.579609	-0.140886	0.001602	0.106197	-0.852539	-0.172363	-0.080322	0.569582	0.222328	-0.763538	0.207743
22166		9.399657	-0.673187	-2.676366	-0.124459	0.005544	0.107554	-0.850586	-0.178223	-0.088135	0.569646	0.221005	-0.763940	0.207500
22167		9.421606	-0.768977	-2.709432	-0.130856	0.004777	0.103206	-0.858154	-0.180908	-0.087646	0.569751	0.219668	-0.764340	0.207156
22168		9.550086	-0.875383	-2.703132	-0.127137	0.007879	0.093424	-0.840576	-0.177246	-0.084473	0.569879	0.218423	-0.764697	0.206802
22169		9.503798	-0.682161	-2.654301	-0.125580	0.016284	0.082353	-0.855469	-0.170166	-0.089355	0.570071	0.217257	-0.764987	0.206429
22170		9.431330	-0.593361	-2.688666	-0.134856	0.018153	0.078079	-0.853516	-0.175049	-0.096680	0.570305	0.216025	-0.765286	0.205968
22171		9.369771	-0.787875	-2.776640	-0.143913	0.015366	0.073205	-0.851318	-0.170166	-0.093018	0.570568	0.214777	-0.765596	0.205391
22172		9.469282	-0.975077	-2.674742	-0.113016	0.016794	0.056234	-0.849365	-0.167725	-0.085205	0.570799	0.213790	-0.765818	0.204951
22173		9.506457	-0.932970	-2.640017	-0.085288	0.016064	0.031054	-0.851318	-0.178467	-0.087158	0.570992	0.213133	-0.765951	0.204600
22174		9.491990	-0.901812	-2.669247	-0.079466	0.021138	0.014164	-0.850830	-0.168457	-0.088867	0.571242	0.212636	-0.766007	0.204210
22175		9.386217	-0.951290	-2.792742	-0.073551	0.021364	0.002219	-0.850586	-0.177734	-0.092529	0.571505	0.212202	-0.766042	0.203795
22176		9.271052	-1.098450	-2.781995	-0.021581	0.019566	-0.017983	-0.860107	-0.173096	-0.093994	0.571710	0.212169	-0.765949	0.203603
22177		9.267143	-0.855906	-2.681642	0.021937	0.015691	-0.032329	-0.846680	-0.171143	-0.100342	0.571836	0.212417	-0.765783	0.203614
22178		9.337239	-0.684104	-2.550889	0.008662	0.008506	-0.033453	-0.858887	-0.172119	-0.095947	0.571966	0.212589	-0.765670	0.203495
22179		9.340638	-0.781831	-2.487755	0.006201	0.004848	-0.033046	-0.857178	-0.165771	-0.096191	0.572057	0.212771	-0.765583	0.203376
22180		9.390589	-0.746395	-2.480321	0.028533	-0.001899	-0.037380	-0.847168	-0.179688	-0.094238	0.572073	0.213074	-0.765490	0.203366
22181		9.454930	-0.624489	-2.463307	0.009185	-0.002669	-0.038007	-0.858643	-0.176025	-0.089844	0.572119	0.213349	-0.765414	0.203232
22182		9.463695	-0.874511	-2.503296	0.007190	-0.004273	-0.041933	-0.845703	-0.168945	-0.094727	0.572147	0.213642	-0.765351	0.203081
22183		9.465740	-0.693606	-2.544981	0.029457	-0.007170	-0.055005	-0.846680	-0.176025	-0.097900	0.572158	0.214085	-0.765245	0.202984
22184		9.438273	-0.598636	-2.611510	0.014706	-0.007584	-0.057000	-0.850830	-0.168945	-0.094482	0.572206	0.214481	-0.765154	0.202775
22185		9.360198	-0.751677	-2.701606	0.020704	-0.012156	-0.054182	-0.852539	-0.175781	-0.095703	0.572196	0.214879	-0.765091	0.202620
22186		9.314342	-0.587952	-2.829129	0.038633	-0.014711	-0.053097	-0.847168	-0.172852	-0.099609	0.572141	0.215375	-0.765004	0.202576
22187		9.364700	-0.430111	-2.759255	0.063108	-0.023591	-0.044791	-0.849365	-0.179199	-0.101074	0.571984	0.215923	-0.764935	0.202698
22188		9.507777	-0.165112	-2.599988	0.054948	-0.027069	-0.033726	-0.854736	-0.176270	-0.097412	0.571807	0.216378	-0.764909	0.202809
22189		9.663962	-0.216080	-2.359506	-0.006203	-0.014636	-0.009578	-0.852295	-0.171631	-0.093994	0.571767	0.216365	-0.764978	0.202677
22190		9.598100	-0.659314	-2.504901	-0.030506	-0.016748	-0.016047	-0.852051	-0.174561	-0.094482	0.571758	0.216278	-0.765092	0.202365
22191		9.540077	-0.611546	-2.541006	-0.086883	-0.017272	-0.013104	-0.854248	-0.175781	-0.093018	0.571844	0.215913	-0.765304	0.201705
22192		9.418757	-0.971961	-2.770683	-0.117168	-0.021099	-0.019977	-0.846436	-0.179932	-0.092529	0.571967	0.215462	-0.765573	0.200817
22193		9.335960	-0.893796	-2.753253	-0.042562	-0.013110	-0.029584	-0.847412	-0.179688	-0.092529	0.572024	0.215434	-0.765655	0.200372
22194		9.490986	0.108023	-2.500936	-0.050101	-0.031871	-0.028433	-0.847168	-0.173340	-0.093750	0.571973	0.215392	-0.765841	0.199853
22195		9.643905	0.541972	-2.303574	-0.154089	-0.041473	0.016971	-0.858398	-0.178223	-0.090820	0.571974	0.214552	-0.766333	0.198864
22196		9.674348	0.125260	-2.391326	-0.230776	-0.022667	0.055841	-0.855225	-0.169189	-0.088867	0.572155	0.213090	-0.766930	0.197611
22197		9.487193	-0.736943	-2.784315	-0.231892	-0.011277	0.058971	-0.859619	-0.176270	-0.087646	0.572396	0.211567	-0.767485	0.196391
22198		9.404646	-1.105709	-2.910719	-0.149843	-0.008367	0.040783	-0.847412	-0.170410	-0.085693	0.572535	0.210579	-0.767850	0.195617
22199		9.408900	-1.054497	-2.802118	-0.112722	-0.006171	0.014078	-0.847900	-0.174072	-0.097412	0.572662	0.209932	-0.768100	0.194962
22200		9.505743	-0.972979	-2.608859	-0.085340	0.006382	-0.005223	-0.860352	-0.173096	-0.096436	0.572885	0.209490	-0.768200	0.194384
22201		9.438743	-0.843002	-2.558125	-0.076576	0.014547	-0.024083	-0.856445	-0.176025	-0.094727	0.573168	0.209194	-0.768219	0.193791
22202		9.413615	-0.764395	-2.682455	-0.031017	0.006818	-0.039003	-0.861572	-0.172852	-0.093750	0.573342	0.209244	-0.768172	0.193411
22203		9.448478	-0.736658	-2.762823	0.028653	0.002306	-0.052497	-0.847412	-0.176758	-0.088623	0.573398	0.209662	-0.768033	0.193345
