// Start Time: Unknown
// Update Rate: 60.0Hz
// Filter Profile: human (46.1)
// Firmware Version: 4.6.0
PacketCounter	SampleTimeFine	Acc_X	Acc_Y	Acc_Z	Gyr_X	Gyr_Y	Gyr_Z	Mag_X	Mag_Y	Mag_Z	Quat_q0	Quat_q1	Quat_q2	Quat_q3
18880		8.359037	-4.936180	-1.302539	0.029583	0.041933	0.045466	-0.335205	0.680908	0.221191	0.513929	-0.703252	-0.263021	-0.414890
18881		8.403875	-4.981749	-1.255391	0.018975	0.037300	0.033898	-0.343018	0.682617	0.212891	0.514231	-0.703125	-0.262725	-0.414919
18882		8.373301	-4.977816	-1.347559	0.009714	0.029548	0.023727	-0.344238	0.689209	0.218506	0.514434	-0.703033	-0.262493	-0.414969
18883		8.350440	-4.957378	-1.335963	0.012275	0.034423	0.018138	-0.341797	0.675781	0.222168	0.514643	-0.702903	-0.262282	-0.415064
18884		8.346969	-4.929359	-1.317533	0.017902	0.036963	0.008790	-0.339355	0.684326	0.210938	0.514856	-0.702722	-0.262135	-0.415200
18885		8.359978	-4.863123	-1.279860	0.024816	0.041939	-0.003351	-0.343262	0.680908	0.209717	0.515075	-0.702469	-0.262063	-0.415401
18886		8.347684	-4.856965	-1.306909	0.015664	0.015486	-0.025030	-0.337891	0.681885	0.221436	0.515104	-0.702301	-0.262203	-0.415561
18887		8.342480	-4.871708	-1.330134	0.010156	0.001839	-0.039714	-0.337158	0.678955	0.212402	0.515014	-0.702175	-0.262472	-0.415716
18888		8.368898	-4.925026	-1.334743	0.007584	-0.006609	-0.051114	-0.342529	0.678223	0.212891	0.514845	-0.702067	-0.262840	-0.415874
18889		8.392734	-4.946895	-1.327968	0.008097	-0.008467	-0.056221	-0.343750	0.684814	0.225098	0.514651	-0.701958	-0.263251	-0.416038
18890		8.416807	-4.968794	-1.319720	0.024073	0.004624	-0.052703	-0.334473	0.679443	0.217285	0.514586	-0.701748	-0.263641	-0.416225
18891		8.408349	-4.878584	-1.298917	0.033817	0.014542	-0.044735	-0.342529	0.678223	0.221191	0.514625	-0.701484	-0.263977	-0.416409
18892		8.414467	-4.752573	-1.293064	0.028166	-0.001895	-0.052579	-0.347656	0.683350	0.215088	0.514560	-0.701288	-0.264414	-0.416543
18893		8.450608	-4.744942	-1.318469	0.012948	-0.002289	-0.062074	-0.341064	0.679932	0.215088	0.514361	-0.701137	-0.264867	-0.416754
18894		8.470811	-4.814183	-1.349688	-0.006024	-0.014230	-0.068818	-0.349609	0.678711	0.216553	0.513991	-0.701095	-0.265356	-0.416971
18895		8.471991	-4.891372	-1.278619	-0.014208	-0.032439	-0.072412	-0.345703	0.681396	0.211670	0.513505	-0.701150	-0.265927	-0.417116
18896		8.399956	-4.914502	-1.328419	-0.015129	-0.041309	-0.076383	-0.346680	0.686279	0.216064	0.512981	-0.701227	-0.266555	-0.417227
18897		8.406333	-4.899916	-1.414829	0.013919	-0.066596	-0.083360	-0.346924	0.678467	0.218018	0.512539	-0.701264	-0.267428	-0.417151
18898		8.427003	-4.850497	-1.406391	0.029001	-0.096199	-0.099929	-0.351562	0.672119	0.216797	0.512063	-0.701310	-0.268574	-0.416922
18899		8.578777	-4.787115	-1.532927	0.041240	-0.090689	-0.110374	-0.343994	0.677002	0.207275	0.511630	-0.701265	-0.269811	-0.416730
18900		8.745736	-4.566559	-1.671307	0.017390	-0.074406	-0.110442	-0.351807	0.673096	0.217529	0.511095	-0.701258	-0.270904	-0.416688
18901		8.820326	-4.303201	-1.535892	-0.004555	-0.089821	-0.109148	-0.351318	0.670654	0.217041	0.510336	-0.701434	-0.272014	-0.416601
18902		8.749544	-4.206234	-1.366760	-0.041713	-0.071281	-0.102439	-0.345947	0.677979	0.218750	0.509393	-0.701704	-0.272922	-0.416706
18903		8.838949	-4.103025	-1.232209	-0.092007	-0.017709	-0.106152	-0.357422	0.674805	0.214355	0.508235	-0.701977	-0.273462	-0.417306
18904		8.771414	-3.948411	-1.421663	-0.194570	0.014074	-0.124392	-0.356934	0.670166	0.217041	0.506435	-0.702498	-0.273708	-0.418454
18905		8.719262	-3.792429	-1.612486	-0.288162	0.042083	-0.153768	-0.360352	0.662354	0.223389	0.504035	-0.703217	-0.273721	-0.420131
18906		8.741141	-3.855074	-1.648624	-0.361943	0.076134	-0.182296	-0.358398	0.666504	0.233643	0.501140	-0.704056	-0.273537	-0.422305
18907		8.739083	-3.817591	-1.681430	-0.398794	0.071756	-0.204473	-0.366943	0.666748	0.234375	0.497850	-0.705023	-0.273344	-0.424701
18908		8.696524	-3.634207	-1.789312	-0.450758	0.076421	-0.232469	-0.370361	0.663574	0.240234	0.494055	-0.706109	-0.273210	-0.427406
18909		8.650550	-3.545067	-1.797656	-0.484482	0.089394	-0.280790	-0.366455	0.654785	0.245850	0.489841	-0.707169	-0.273209	-0.430493
18910		8.706390	-3.687115	-1.822253	-0.476632	0.077206	-0.340333	-0.377686	0.650146	0.255859	0.485523	-0.708073	-0.273563	-0.433664
18911		8.795070	-3.780704	-1.942597	-0.489672	0.071036	-0.392372	-0.374023	0.645020	0.258301	0.480744	-0.708960	-0.274209	-0.437115
18912		8.932777	-3.700232	-1.978284	-0.490693	0.061436	-0.441477	-0.380127	0.642822	0.262939	0.475876	-0.709729	-0.275111	-0.440614
18913		9.037770	-3.538756	-1.901979	-0.504253	0.035165	-0.488336	-0.383545	0.639404	0.270996	0.470594	-0.710525	-0.276369	-0.444201
18914		9.190202	-3.302282	-2.035763	-0.539886	0.023370	-0.534898	-0.386475	0.630615	0.283936	0.464817	-0.711389	-0.277733	-0.448035
18915		9.313989	-3.191560	-2.098820	-0.561974	-0.012916	-0.588683	-0.400391	0.625000	0.279297	0.458547	-0.712376	-0.279266	-0.451957
18916		9.529564	-3.115476	-2.227530	-0.608625	0.000505	-0.623974	-0.404053	0.614746	0.294434	0.451873	-0.713279	-0.281145	-0.456072
18917		9.680702	-2.932110	-2.008375	-0.664693	0.000643	-0.651938	-0.413818	0.615234	0.295654	0.444643	-0.714364	-0.282701	-0.460496
18918		9.596484	-3.050158	-2.013101	-0.692671	-0.009060	-0.683198	-0.423340	0.602051	0.314209	0.436911	-0.715414	-0.284551	-0.465104
18919		9.446655	-3.235043	-2.162411	-0.709151	-0.032570	-0.724862	-0.422119	0.597412	0.329346	0.428589	-0.716578	-0.286345	-0.469930
18920		9.467776	-3.319968	-2.262787	-0.698455	-0.059809	-0.769326	-0.427246	0.586182	0.334229	0.419852	-0.717788	-0.288015	-0.474923
18921		9.465184	-3.279445	-2.316855	-0.700885	-0.081864	-0.809926	-0.438477	0.570312	0.342529	0.411007	-0.718913	-0.289962	-0.479749
18922		9.533221	-3.206517	-2.334037	-0.661436	-0.116098	-0.853973	-0.455566	0.565186	0.350586	0.402235	-0.719815	-0.292573	-0.484225
18923		9.498723	-3.179114	-2.397938	-0.629290	-0.142687	-0.900217	-0.460938	0.550537	0.362549	0.393092	-0.720543	-0.295855	-0.488637
18924		9.531385	-2.994663	-2.393559	-0.603413	-0.181256	-0.941636	-0.464111	0.535156	0.368896	0.384069	-0.721147	-0.299526	-0.492668
18925		9.612940	-2.890975	-2.288645	-0.598763	-0.219990	-0.974509	-0.474609	0.530762	0.375244	0.375280	-0.721625	-0.303686	-0.496182
18926		9.648810	-2.925504	-2.305431	-0.588736	-0.197350	-0.990161	-0.482178	0.519043	0.389893	0.366563	-0.721840	-0.307980	-0.499727
18927		9.683632	-2.863375	-2.395310	-0.539936	-0.164639	-1.012689	-0.489258	0.508545	0.385742	0.358206	-0.721627	-0.312459	-0.503301
18928		9.555899	-2.733478	-2.600538	-0.526601	-0.169016	-1.032597	-0.498291	0.485840	0.410400	0.349979	-0.721224	-0.317152	-0.506720
18929		9.504829	-2.543922	-2.485637	-0.492470	-0.196440	-1.050572	-0.506104	0.474854	0.406738	0.341791	-0.720744	-0.322081	-0.509873
18930		9.465656	-2.231046	-2.661141	-0.473898	-0.204905	-1.060043	-0.510986	0.459473	0.416748	0.333682	-0.720149	-0.327114	-0.512872
18931		9.579251	-2.044346	-2.435406	-0.434130	-0.208056	-1.060405	-0.513672	0.447510	0.422607	0.325801	-0.719398	-0.332266	-0.515674
18932		9.541015	-2.041935	-2.285360	-0.404144	-0.194886	-1.036582	-0.525635	0.425537	0.431641	0.318248	-0.718508	-0.337309	-0.518350
18933		9.448599	-2.023145	-2.276577	-0.441939	-0.165437	-0.981078	-0.529053	0.408691	0.442871	0.310811	-0.717682	-0.341716	-0.521113
18934		9.439602	-2.029070	-2.187352	-0.465488	-0.125473	-0.926454	-0.528320	0.410645	0.442871	0.303607	-0.716843	-0.345528	-0.523993
18935		9.412907	-2.176345	-2.141624	-0.457428	-0.091947	-0.859700	-0.537598	0.393066	0.462891	0.296871	-0.715980	-0.348828	-0.526839
18936		9.076130	-2.485591	-2.162055	-0.463230	-0.065327	-0.773917	-0.548584	0.384033	0.459717	0.290595	-0.715223	-0.351461	-0.529609
18937		8.973391	-2.658667	-2.093774	-0.447866	-0.007082	-0.659075	-0.552002	0.378906	0.462891	0.285141	-0.714485	-0.353268	-0.532360
18938		8.650612	-2.928363	-1.916276	-0.425317	0.060519	-0.536114	-0.554443	0.366943	0.466797	0.280627	-0.713745	-0.354215	-0.535115
18939		8.421270	-3.282521	-1.855286	-0.394184	0.099556	-0.390743	-0.557617	0.362793	0.476074	0.277132	-0.713184	-0.354278	-0.537637
18940		8.241512	-3.351933	-1.861678	-0.311149	0.114896	-0.253685	-0.557861	0.355957	0.467041	0.274867	-0.712778	-0.353793	-0.539654
18941		8.113026	-3.451288	-1.881522	-0.223569	0.087067	-0.132315	-0.555664	0.344971	0.469971	0.273662	-0.712670	-0.352982	-0.540939
18942		8.170370	-3.441946	-1.810633	-0.076142	0.079642	0.012637	-0.570557	0.346924	0.468018	0.274034	-0.712704	-0.351935	-0.541386
18943		8.220692	-3.377920	-1.822812	0.048116	0.050054	0.149996	-0.558105	0.348877	0.470459	0.275743	-0.713007	-0.350649	-0.540956
18944		8.345898	-3.346057	-1.890791	0.181507	0.028013	0.284224	-0.554688	0.348633	0.466553	0.278838	-0.713500	-0.349169	-0.539673
18945		8.460509	-3.233754	-1.940312	0.318076	0.006720	0.413102	-0.557861	0.361816	0.457764	0.283307	-0.714143	-0.347543	-0.537541
18946		8.632742	-3.267649	-1.984622	0.430678	-0.013567	0.538979	-0.555664	0.374268	0.455566	0.288979	-0.714957	-0.345679	-0.534634
18947		8.764892	-3.349583	-1.769758	0.525320	-0.021783	0.659362	-0.555908	0.377441	0.456543	0.295745	-0.715891	-0.343495	-0.531080
18948		9.038819	-3.405243	-1.525312	0.608211	0.002335	0.782628	-0.544678	0.395020	0.450195	0.303631	-0.716811	-0.340836	-0.527088
18949		9.293612	-3.590163	-1.395682	0.663609	0.051054	0.907169	-0.543945	0.405029	0.436523	0.312532	-0.717650	-0.337498	-0.522874
18950		9.388707	-4.048169	-1.514643	0.727903	0.090373	1.042922	-0.533936	0.426025	0.425293	0.322511	-0.718431	-0.333465	-0.518310
18951		9.419027	-4.546685	-1.450883	0.838342	0.104218	1.171220	-0.523926	0.437012	0.424072	0.333723	-0.719090	-0.329031	-0.513105
18952		9.336874	-4.987038	-1.407565	0.962798	0.127682	1.295199	-0.517578	0.458008	0.412842	0.346245	-0.719494	-0.324236	-0.507261
18953		9.234952	-5.314136	-1.419483	1.067870	0.206157	1.427872	-0.501953	0.483887	0.389404	0.360122	-0.719442	-0.318761	-0.501106
18954		9.502588	-5.560571	-1.489090	1.166051	0.317109	1.568170	-0.489990	0.498779	0.374268	0.375388	-0.718795	-0.312399	-0.494798
18955		10.259738	-5.719101	-1.594327	1.288062	0.464605	1.678900	-0.493408	0.525879	0.365234	0.392116	-0.717192	-0.305291	-0.488548
18956		11.286538	-5.375006	-1.261187	1.415842	0.606961	1.764653	-0.464600	0.554443	0.342041	0.410203	-0.714500	-0.297614	-0.482338
18957		12.375544	-4.912233	-0.821974	1.506317	0.749882	1.863584	-0.449951	0.576904	0.313721	0.429357	-0.710839	-0.289062	-0.476239
18958		12.988720	-4.804062	-0.773215	1.688358	0.942084	1.972217	-0.439697	0.603516	0.275146	0.450207	-0.705622	-0.279722	-0.470284
18959		13.245346	-4.636351	-0.395634	1.812944	1.120214	2.116189	-0.415039	0.626221	0.246826	0.472431	-0.699104	-0.269134	-0.464360
18960		12.988332	-4.807841	-0.608137	1.791357	1.281405	2.248694	-0.396484	0.655029	0.212891	0.495009	-0.691817	-0.256913	-0.458641
18961		12.321433	-5.078716	-0.619262	1.663233	1.385261	2.353178	-0.365723	0.680420	0.177490	0.517084	-0.684324	-0.243042	-0.453051
18962		12.032360	-5.481037	-0.558383	1.522880	1.355659	2.392199	-0.346436	0.691162	0.152832	0.538018	-0.677092	-0.228478	-0.447081
18963		11.401185	-5.911770	-0.543122	1.377846	1.356414	2.429241	-0.317871	0.711182	0.120605	0.557839	-0.670070	-0.213109	-0.440915
18964		11.195863	-6.405908	-0.552124	1.285069	1.393249	2.427153	-0.276367	0.721924	0.090332	0.576761	-0.662873	-0.197151	-0.434832
18965		10.601934	-6.786982	-0.478419	1.247919	1.438140	2.459154	-0.247559	0.746094	0.064697	0.595208	-0.655293	-0.180583	-0.428612
18966		10.325477	-7.315723	-0.609790	1.281565	1.414613	2.481284	-0.212646	0.752197	0.034668	0.613409	-0.647220	-0.164053	-0.421808
18967		9.685537	-7.253993	-0.052657	1.294454	1.350310	2.514684	-0.180420	0.770996	0.008057	0.631220	-0.638921	-0.147649	-0.414175
18968		9.422841	-7.794739	0.137589	1.323095	1.307785	2.512140	-0.151855	0.776855	-0.008545	0.648628	-0.630189	-0.131523	-0.406012
18969		8.462619	-7.758381	0.101592	1.390784	1.328340	2.508861	-0.103271	0.786133	-0.033936	0.665898	-0.620598	-0.115480	-0.397620
18970		8.573620	-7.880167	0.519300	1.525034	1.266435	2.459332	-0.063232	0.794678	-0.059814	0.683120	-0.610010	-0.100437	-0.388778
18971		7.888181	-7.969181	0.949112	1.568569	1.166240	2.390448	-0.022705	0.796387	-0.093506	0.699739	-0.599046	-0.086426	-0.379525
18972		8.000454	-7.308900	1.726316	1.662235	1.134944	2.313940	0.007080	0.786377	-0.115967	0.716055	-0.587206	-0.073253	-0.370254
18973		8.052114	-7.299640	2.419517	1.657847	1.140615	2.229980	0.045898	0.784180	-0.139893	0.731596	-0.574958	-0.060442	-0.361298
18974		7.603283	-7.877598	2.074297	1.526252	1.183653	2.191106	0.082764	0.785645	-0.167969	0.745932	-0.563021	-0.047171	-0.352658
18975		6.794000	-7.458061	2.435340	1.438700	1.194717	2.232866	0.117920	0.775635	-0.188965	0.759509	-0.551300	-0.033393	-0.343655
18976		6.429197	-6.690262	2.948630	1.386092	1.178708	2.264859	0.154785	0.768555	-0.213135	0.772459	-0.539661	-0.019439	-0.334207
18977		6.232903	-6.793023	3.196745	1.207431	1.201285	2.239864	0.200928	0.759521	-0.228760	0.784083	-0.528810	-0.004986	-0.324884
18978		5.781941	-6.964560	3.542872	0.949685	1.299591	2.238137	0.233398	0.740479	-0.231201	0.794132	-0.519103	0.010759	-0.315863
18979		5.067873	-7.212367	3.352461	0.657930	1.363169	2.264667	0.275146	0.731689	-0.237305	0.802560	-0.510900	0.027763	-0.306772
18980		4.273661	-6.831281	3.343381	0.534682	1.351712	2.268761	0.308350	0.726807	-0.229248	0.810057	-0.503305	0.044980	-0.297436
18981		3.394582	-6.707010	3.313279	0.487236	1.299395	2.219177	0.354736	0.712891	-0.245605	0.816851	-0.495948	0.061706	-0.288067
18982		3.169027	-6.708528	3.113881	0.357601	1.257767	2.170460	0.377441	0.697998	-0.240723	0.822636	-0.489384	0.078214	-0.278669
18983		2.038708	-6.823874	2.783112	0.296641	1.187728	2.077300	0.415771	0.679932	-0.233398	0.827650	-0.483270	0.093956	-0.269477
18984		1.441979	-6.597707	2.568407	0.414856	1.010976	1.924060	0.444580	0.680176	-0.237793	0.832624	-0.476698	0.107560	-0.260627
18985		1.230866	-6.012666	2.699360	0.560759	0.811308	1.750697	0.471436	0.662598	-0.241455	0.837721	-0.469572	0.118742	-0.252240
18986		1.037385	-5.682988	2.747865	0.571048	0.685034	1.574386	0.497559	0.633057	-0.237061	0.842401	-0.462709	0.128302	-0.244539
18987		0.677832	-4.914597	2.756670	0.537541	0.565939	1.380870	0.517578	0.626221	-0.243652	0.846518	-0.456447	0.136322	-0.237654
18988		0.730283	-4.181015	3.008266	0.428923	0.439132	1.181655	0.528076	0.617676	-0.245850	0.849849	-0.451365	0.142887	-0.231537
18989		0.294884	-4.207890	3.024584	0.242301	0.354581	0.974780	0.551025	0.603516	-0.236084	0.852101	-0.447966	0.148417	-0.226324
18990		-0.095996	-4.467714	2.780337	0.090856	0.339624	0.780382	0.546631	0.594727	-0.242188	0.853390	-0.445879	0.153392	-0.222234
18991		-0.193664	-4.388993	2.802683	-0.072679	0.296483	0.555388	0.561279	0.589355	-0.238770	0.853680	-0.445302	0.157528	-0.219366
18992		-0.543351	-4.262112	2.656208	-0.196604	0.218044	0.281500	0.564697	0.593018	-0.235107	0.853098	-0.446098	0.160318	-0.217987
18993		-1.153989	-4.223841	2.516328	-0.305365	0.087306	-0.013512	0.572266	0.596924	-0.228516	0.851744	-0.448291	0.161287	-0.218069
18994		-1.248613	-4.498974	2.144040	-0.323002	-0.124221	-0.306628	0.565918	0.601807	-0.228271	0.850067	-0.451377	0.159704	-0.219408
18995		-0.816860	-5.120855	2.116238	-0.223738	-0.346155	-0.557693	0.553223	0.607422	-0.221191	0.848577	-0.454486	0.155436	-0.221808
18996		0.122963	-5.598049	2.818135	-0.183928	-0.527906	-0.762076	0.547119	0.614014	-0.234375	0.847050	-0.457896	0.149039	-0.225000
18997		0.404136	-5.591798	3.058446	-0.205928	-0.584507	-0.965414	0.535645	0.623779	-0.228760	0.845058	-0.461787	0.141496	-0.229365
18998		0.878950	-4.986812	3.227879	-0.319175	-0.629825	-1.151425	0.512695	0.627441	-0.230957	0.842233	-0.466731	0.133117	-0.234705
18999		1.276082	-4.420301	3.365579	-0.564465	-0.701455	-1.340676	0.495361	0.646240	-0.230469	0.838031	-0.473669	0.123950	-0.240787
19000		1.616428	-5.058804	3.183744	-0.875992	-0.679372	-1.538304	0.470703	0.655762	-0.228760	0.831998	-0.482832	0.114744	-0.247966
19001		1.793072	-6.474683	2.825805	-1.058466	-0.647607	-1.692662	0.447021	0.673096	-0.211426	0.824645	-0.493201	0.105471	-0.256103
19002		2.369565	-7.202420	2.912722	-1.049529	-0.729309	-1.778179	0.415771	0.694580	-0.197266	0.816945	-0.503603	0.095224	-0.264420
19003		2.472672	-7.801303	3.193989	-1.096937	-0.814169	-1.875634	0.393066	0.714600	-0.198730	0.808596	-0.514417	0.084052	-0.272917
19004		2.297511	-8.280283	2.810772	-1.122409	-0.814307	-1.991004	0.356445	0.719482	-0.179932	0.799546	-0.525283	0.072402	-0.282066
19005		3.080595	-8.065876	3.124267	-1.068724	-0.867691	-2.103697	0.335693	0.742432	-0.170410	0.790147	-0.535764	0.059745	-0.291642
19006		3.939984	-7.952622	3.408249	-1.038273	-0.925446	-2.202730	0.290039	0.750488	-0.162109	0.780300	-0.545988	0.046156	-0.301493
19007		3.566770	-8.866083	2.771722	-1.176308	-0.897087	-2.299033	0.254150	0.761719	-0.135986	0.769174	-0.556799	0.032626	-0.311900
19008		4.027097	-9.553161	2.061836	-1.183508	-0.969603	-2.386605	0.215576	0.760498	-0.125244	0.757380	-0.567565	0.018225	-0.322356
19009		4.430347	-9.282573	2.298698	-0.967686	-1.163132	-2.388375	0.176514	0.776855	-0.123535	0.746192	-0.577177	0.002003	-0.331754
19010		5.534474	-8.426521	3.318691	-0.626892	-1.395082	-2.354054	0.141357	0.786865	-0.114502	0.736316	-0.584991	-0.016439	-0.339637
19011		6.695270	-8.340275	3.260707	-0.651074	-1.393738	-2.342501	0.104248	0.786865	-0.108398	0.725945	-0.592621	-0.034747	-0.347271
19012		7.068903	-9.614202	2.454891	-1.004008	-1.133819	-2.329415	0.060059	0.792480	-0.085449	0.713541	-0.601304	-0.050392	-0.356024
19013		5.753033	-9.528216	1.988491	-1.145913	-1.036804	-2.256398	0.032471	0.797363	-0.069824	0.700293	-0.610250	-0.064652	-0.364698
19014		7.530764	-8.916635	2.178809	-0.884053	-1.222147	-2.200051	-0.010742	0.798096	-0.048828	0.688084	-0.617947	-0.080463	-0.371763
19015		6.826869	-8.106693	2.999894	-0.780118	-1.347628	-2.106117	-0.038574	0.793945	-0.030029	0.676272	-0.625191	-0.096797	-0.377389
19016		8.193648	-7.056176	3.659971	-0.736251	-1.423516	-2.057389	-0.072021	0.788330	-0.019287	0.664459	-0.632151	-0.113393	-0.382127
19017		10.469689	-8.033769	2.689670	-1.043997	-1.231347	-2.060554	-0.107910	0.780762	0.005859	0.650880	-0.639876	-0.127915	-0.388009
19018		9.200223	-9.514708	1.424967	-1.522212	-0.682580	-1.913534	-0.141846	0.779785	0.022217	0.635503	-0.648262	-0.137083	-0.396360
19019		8.192444	-9.209609	1.181180	-1.478349	-0.556915	-1.680597	-0.160645	0.769775	0.046387	0.621010	-0.655991	-0.144411	-0.403940
19020		8.292558	-8.343048	1.857193	-0.977193	-0.826642	-1.527621	-0.174072	0.764160	0.057617	0.609246	-0.661999	-0.153926	-0.408513
19021		8.046528	-8.488871	2.215445	-0.761983	-0.898071	-1.406580	-0.201904	0.762451	0.078857	0.598839	-0.667130	-0.163820	-0.411694
19022		8.866458	-8.720883	1.903882	-0.964190	-0.669119	-1.339815	-0.213623	0.749756	0.101807	0.587722	-0.672410	-0.171455	-0.415994
19023		8.298081	-8.621436	1.130725	-1.196537	-0.290511	-1.278723	-0.230957	0.741699	0.119385	0.575936	-0.677440	-0.176038	-0.422353
19024		8.167670	-8.371009	0.966051	-1.129254	-0.171654	-1.160785	-0.252441	0.740723	0.132568	0.565014	-0.681756	-0.179571	-0.428629
19025		7.983277	-8.125378	1.272006	-0.927199	-0.310171	-0.942105	-0.253662	0.724365	0.151123	0.555734	-0.685828	-0.183192	-0.432712
19026		7.297871	-7.926797	1.129557	-0.675576	-0.439479	-0.751466	-0.262451	0.728760	0.161377	0.548336	-0.689410	-0.187195	-0.434740
19027		7.172332	-7.406209	1.228317	-0.575508	-0.419025	-0.658576	-0.281494	0.720947	0.172119	0.541855	-0.692548	-0.190902	-0.436265
19028		7.418904	-6.772374	0.879739	-0.685091	-0.326984	-0.678234	-0.275391	0.715332	0.180420	0.534794	-0.695758	-0.193879	-0.438550
19029		7.949740	-6.720618	0.147700	-0.846502	-0.178772	-0.727314	-0.296387	0.705811	0.199707	0.526826	-0.699005	-0.195863	-0.442137
19030		7.865723	-7.068011	-0.721921	-0.892868	-0.045822	-0.702991	-0.304443	0.695557	0.214111	0.518854	-0.701938	-0.196925	-0.446424
19031		7.906739	-7.306347	-0.790064	-0.681233	-0.081324	-0.603484	-0.308350	0.695312	0.220215	0.512399	-0.704201	-0.198320	-0.449686
19032		8.072930	-7.479477	-0.589309	-0.379867	-0.146189	-0.504412	-0.320068	0.692383	0.222168	0.507961	-0.705555	-0.200520	-0.451618
19033		8.159064	-7.288755	-0.279260	-0.156685	-0.122018	-0.395465	-0.319092	0.684326	0.228760	0.505284	-0.706042	-0.202801	-0.452841
19034		8.246516	-6.817842	-0.045244	-0.102877	-0.025419	-0.301922	-0.322998	0.682373	0.228516	0.503443	-0.706088	-0.204314	-0.454137
19035		8.305993	-6.417975	-0.184147	-0.116328	0.087134	-0.231016	-0.327393	0.683350	0.238037	0.501990	-0.705878	-0.204877	-0.455815
19036		8.358052	-6.064923	-0.568559	-0.094674	0.125385	-0.181158	-0.318604	0.676758	0.227051	0.500924	-0.705513	-0.205061	-0.457468
19037		8.308554	-5.933423	-0.949216	-0.052394	0.123749	-0.131707	-0.327393	0.682129	0.228027	0.500295	-0.705060	-0.205116	-0.458828
19038		8.194684	-5.886651	-0.993623	0.056200	0.051326	-0.094888	-0.333008	0.676025	0.235107	0.500322	-0.704494	-0.205668	-0.459420
19039		8.170237	-5.774768	-0.804589	0.149698	-0.038553	-0.080497	-0.325195	0.685547	0.225830	0.500799	-0.703908	-0.206865	-0.459260
19040		8.160964	-5.643680	-0.720664	0.201498	-0.074706	-0.068715	-0.329590	0.681641	0.226807	0.501565	-0.703264	-0.208337	-0.458746
19041		8.177539	-5.350874	-0.887193	0.194130	-0.068908	-0.066428	-0.338379	0.683838	0.225098	0.502306	-0.702631	-0.209739	-0.458265
19042		8.262326	-5.266631	-0.851708	0.175063	-0.074435	-0.065441	-0.339111	0.685303	0.225830	0.502930	-0.702099	-0.211084	-0.457779
19043		8.237772	-5.301514	-0.908992	0.194611	-0.083309	-0.060404	-0.328125	0.674561	0.220215	0.503669	-0.701527	-0.212510	-0.457183
19044		8.256506	-5.296195	-0.879681	0.250264	-0.081218	-0.068372	-0.320312	0.679688	0.211670	0.504706	-0.700698	-0.214184	-0.456530
19045		8.303013	-5.297072	-0.825135	0.279154	-0.089635	-0.060938	-0.334717	0.689209	0.214111	0.505922	-0.699789	-0.215957	-0.455742
19046		8.432397	-5.129459	-0.897324	0.294320	-0.067678	-0.047087	-0.337646	0.680176	0.201904	0.507316	-0.698754	-0.217612	-0.454993
19047		8.601077	-4.766154	-0.814912	0.265313	-0.065917	-0.040932	-0.336914	0.682861	0.207031	0.508563	-0.697843	-0.219113	-0.454278
19048		8.795666	-4.377185	-0.736071	0.185926	-0.040377	-0.043010	-0.343506	0.684082	0.213623	0.509385	-0.697165	-0.220218	-0.453864
19049		8.887939	-3.920858	-0.829744	0.079582	-0.024180	-0.067559	-0.339111	0.679932	0.204346	0.509521	-0.696830	-0.220999	-0.453846
19050		8.889335	-3.645716	-0.976435	-0.025850	-0.017080	-0.106498	-0.336670	0.684326	0.208984	0.508907	-0.696842	-0.221583	-0.454231
19051		8.944426	-3.426671	-0.928469	-0.130796	-0.031987	-0.153409	-0.344482	0.682129	0.210938	0.507471	-0.697267	-0.222111	-0.454926
19052		8.992307	-3.468348	-1.000298	-0.266713	-0.024658	-0.195404	-0.346191	0.676270	0.212158	0.505091	-0.698157	-0.222345	-0.456095
19053		8.979028	-3.525554	-1.208565	-0.381377	-0.011949	-0.238032	-0.346191	0.684570	0.208740	0.501894	-0.699393	-0.222342	-0.457729
19054		8.964319	-3.614448	-1.375675	-0.434644	0.002783	-0.288908	-0.349365	0.664062	0.220703	0.498206	-0.700689	-0.222374	-0.459755
19055		8.948290	-3.565283	-1.395912	-0.425762	0.022203	-0.333859	-0.359619	0.662109	0.229248	0.494417	-0.701778	-0.222624	-0.462059
19056		8.858926	-3.609326	-1.352902	-0.447169	0.005761	-0.391872	-0.348145	0.664307	0.227539	0.490231	-0.702895	-0.223199	-0.464537
19057		8.770350	-3.666568	-1.398162	-0.530117	-0.031399	-0.455504	-0.360107	0.667480	0.239502	0.485225	-0.704355	-0.223977	-0.467199
19058		8.814742	-3.668552	-1.483967	-0.629235	-0.080422	-0.519314	-0.369141	0.654297	0.247559	0.479273	-0.706259	-0.224936	-0.470000
19059		8.983073	-3.786158	-1.497373	-0.591617	-0.100061	-0.594481	-0.368652	0.646729	0.255127	0.473183	-0.707915	-0.226556	-0.472892
19060		9.014211	-3.711517	-1.687697	-0.541684	-0.086517	-0.651536	-0.386719	0.637451	0.266357	0.467161	-0.709177	-0.228648	-0.475972
19061		9.054205	-3.595249	-1.789982	-0.521319	-0.141344	-0.717159	-0.387939	0.631836	0.281982	0.460865	-0.710414	-0.231412	-0.478919
19062		9.120245	-3.516038	-1.784663	-0.524191	-0.216002	-0.793014	-0.403809	0.622803	0.281006	0.454072	-0.711772	-0.234890	-0.481691
19063		9.270915	-3.423141	-1.962826	-0.534823	-0.275549	-0.865114	-0.407227	0.612305	0.288086	0.446774	-0.713215	-0.238963	-0.484369
19064		9.461360	-3.417833	-1.907866	-0.509541	-0.319791	-0.934784	-0.416504	0.607666	0.296387	0.439216	-0.714547	-0.243700	-0.486952
19065		9.587217	-3.325342	-1.861022	-0.489286	-0.344620	-0.980690	-0.422119	0.586914	0.311768	0.431500	-0.715747	-0.248864	-0.489470
19066		9.815290	-3.079861	-1.772354	-0.471315	-0.329023	-1.013211	-0.438477	0.589355	0.325928	0.423746	-0.716684	-0.254217	-0.492115
19067		9.940014	-2.866198	-1.868597	-0.544805	-0.296881	-1.042997	-0.442139	0.570312	0.342285	0.415456	-0.717612	-0.259310	-0.495165
19068		10.014944	-2.720003	-1.860345	-0.572102	-0.256687	-1.078328	-0.453857	0.567871	0.344971	0.406896	-0.718314	-0.264337	-0.498584
19069		9.975053	-2.828824	-1.833048	-0.571506	-0.259938	-1.116142	-0.470459	0.548096	0.351807	0.398128	-0.718862	-0.269576	-0.502056
19070		9.964310	-2.750056	-1.889631	-0.544383	-0.251334	-1.141387	-0.475098	0.531738	0.364258	0.389389	-0.719142	-0.275021	-0.505544
19071		9.978572	-2.738654	-1.755946	-0.550126	-0.225772	-1.174176	-0.480225	0.517090	0.382080	0.380490	-0.719169	-0.280522	-0.509245
19072		10.118651	-2.770127	-1.878806	-0.570410	-0.160565	-1.191836	-0.497559	0.503906	0.384766	0.371501	-0.718852	-0.285800	-0.513378
19073		10.237274	-2.363999	-1.892653	-0.594370	-0.121915	-1.201093	-0.502930	0.489746	0.387695	0.362376	-0.718330	-0.290874	-0.517762
19074		10.269959	-2.299574	-1.704392	-0.606276	-0.078629	-1.201701	-0.518555	0.475098	0.390625	0.353237	-0.717561	-0.295732	-0.522371
19075		10.136971	-2.717486	-1.712502	-0.661406	-0.037038	-1.188956	-0.517334	0.457764	0.409912	0.343884	-0.716710	-0.300111	-0.527261
19076		9.552568	-3.166636	-1.752885	-0.702294	0.025351	-1.164459	-0.533936	0.441895	0.411377	0.334511	-0.715668	-0.303942	-0.532486
19077		9.134730	-3.370975	-1.819873	-0.619952	0.022666	-1.136033	-0.537354	0.420166	0.422607	0.325714	-0.714392	-0.307932	-0.537339
19078		8.984860	-3.453466	-1.766282	-0.433964	-0.018362	-1.083451	-0.541504	0.412842	0.431152	0.318128	-0.712855	-0.312512	-0.541266
19079		8.879142	-3.316474	-1.836635	-0.309476	-0.073304	-1.025562	-0.552246	0.400146	0.432861	0.311382	-0.711325	-0.317418	-0.544338
19080		8.882450	-2.843254	-1.935329	-0.240691	-0.091586	-0.969406	-0.557129	0.374023	0.437256	0.305236	-0.709798	-0.322318	-0.546927
19081		8.916048	-2.750053	-1.789817	-0.217213	-0.094324	-0.880358	-0.562256	0.372803	0.437744	0.299615	-0.708419	-0.326777	-0.549173
19082		8.794380	-2.914682	-1.568386	-0.177037	-0.081618	-0.746554	-0.567383	0.361816	0.436768	0.294872	-0.707213	-0.330574	-0.551019
19083		8.686572	-3.195346	-1.439602	-0.121479	-0.023593	-0.583608	-0.572998	0.361084	0.441162	0.291365	-0.706031	-0.333503	-0.552632
19084		8.538502	-3.365278	-1.348693	-0.075391	0.041511	-0.391309	-0.581055	0.355469	0.434082	0.289202	-0.704962	-0.335339	-0.554020
19085		8.251460	-3.470493	-1.446364	-0.011578	0.065165	-0.202852	-0.576172	0.354248	0.438965	0.288361	-0.704154	-0.336292	-0.554908
19086		8.195120	-3.660900	-1.493931	0.098164	0.047323	-0.019954	-0.580078	0.349609	0.439209	0.288970	-0.703680	-0.336710	-0.554939
19087		8.236355	-3.613939	-1.392598	0.202275	0.014785	0.154765	-0.580322	0.351562	0.435059	0.290920	-0.703597	-0.336651	-0.554061
19088		8.357044	-3.448748	-1.406092	0.292651	-0.001018	0.315471	-0.575928	0.359375	0.439453	0.294106	-0.703815	-0.336091	-0.552438
19089		8.480229	-3.526836	-1.414077	0.408588	-0.034276	0.468758	-0.569092	0.365967	0.426758	0.298591	-0.704320	-0.335230	-0.549906
19090		8.657972	-3.761785	-1.379236	0.514350	-0.042186	0.632490	-0.574219	0.373291	0.431396	0.304426	-0.705032	-0.333890	-0.546601
19091		8.735513	-4.013728	-1.279830	0.595236	-0.023315	0.801191	-0.551758	0.388916	0.422363	0.311551	-0.705882	-0.331849	-0.542719
19092		8.885988	-4.215210	-1.127311	0.679591	0.004052	0.974767	-0.562012	0.403809	0.417236	0.320019	-0.706810	-0.329058	-0.538265
19093		9.071229	-4.485483	-1.124220	0.789654	0.052067	1.141192	-0.547852	0.425049	0.409180	0.329988	-0.707602	-0.325602	-0.533282
19094		9.128118	-4.576515	-1.079946	0.900760	0.089865	1.292351	-0.543213	0.453857	0.400391	0.341348	-0.708221	-0.321582	-0.527721
19095		9.346548	-4.486376	-1.049861	0.994037	0.112755	1.417029	-0.529053	0.464600	0.381104	0.353815	-0.708669	-0.317098	-0.521586
19096		9.564730	-4.376781	-1.158243	1.040718	0.163092	1.512776	-0.519287	0.482910	0.372803	0.367037	-0.708852	-0.312022	-0.515223
19097		9.954220	-4.304660	-1.182800	1.058893	0.257865	1.599905	-0.509033	0.505615	0.354736	0.380904	-0.708616	-0.306133	-0.508977
19098		10.528157	-4.432596	-0.970909	1.041615	0.381351	1.667714	-0.489502	0.526123	0.332275	0.395174	-0.707888	-0.299288	-0.503149
19099		10.885125	-4.795342	-0.888665	0.983295	0.563796	1.742764	-0.479980	0.555664	0.320557	0.409758	-0.706561	-0.291061	-0.498149
19100		11.205176	-5.146059	-0.753115	0.968873	0.712836	1.827815	-0.461426	0.572510	0.304688	0.424846	-0.704640	-0.281665	-0.493612
19101		11.417758	-5.601221	-0.660637	0.982620	0.872946	1.916506	-0.448975	0.588623	0.274414	0.440607	-0.701961	-0.271132	-0.489493
19102		10.968551	-6.229572	-0.680012	1.036127	0.989596	2.027456	-0.424561	0.610352	0.257568	0.457221	-0.698569	-0.259623	-0.485331
19103		11.749078	-6.800653	-0.794873	1.351930	1.035788	2.141666	-0.407715	0.631836	0.224121	0.476018	-0.693696	-0.248419	-0.480084
19104		12.176790	-7.246476	-0.718745	1.696276	1.034609	2.260623	-0.388916	0.656738	0.198242	0.497006	-0.687296	-0.237760	-0.473370
19105		11.876593	-7.459270	-0.495877	1.758131	1.005631	2.407217	-0.360107	0.681641	0.171875	0.518537	-0.680584	-0.226464	-0.465445
19106		11.682894	-7.218770	-0.433127	1.794832	0.918462	2.537645	-0.328125	0.701172	0.133545	0.540246	-0.673807	-0.214781	-0.456056
19107		11.446414	-6.847660	-0.113606	1.836319	0.871089	2.622006	-0.290283	0.724609	0.093506	0.562013	-0.666657	-0.202833	-0.445609
19108		10.937099	-6.340450	0.171957	1.903353	0.867624	2.628589	-0.264893	0.735596	0.077148	0.583722	-0.658694	-0.190961	-0.434655
19109		11.362073	-6.141981	0.138420	1.945694	0.881824	2.560454	-0.223877	0.755127	0.031006	0.604972	-0.649843	-0.179404	-0.423707
19110		10.604720	-6.108848	-0.001765	1.830547	1.007033	2.525331	-0.194824	0.769775	-0.004639	0.625189	-0.640575	-0.166873	-0.413468
19111		10.701558	-6.459313	-0.012540	1.704500	1.027913	2.493951	-0.159180	0.769775	-0.024902	0.644185	-0.631377	-0.153856	-0.403382
19112		9.946679	-6.898746	0.290597	1.571103	1.056541	2.500184	-0.113525	0.781250	-0.048096	0.662073	-0.622366	-0.140108	-0.393307
19113		9.961142	-7.589650	0.428543	1.454471	1.192651	2.512361	-0.076904	0.791260	-0.080566	0.679087	-0.613139	-0.125080	-0.383740
19114		9.536163	-8.180482	0.402677	1.268097	1.416089	2.564875	-0.034668	0.786621	-0.107178	0.695062	-0.603881	-0.107847	-0.374946
19115		8.056135	-7.917179	1.073259	1.206396	1.602141	2.578914	0.012207	0.788086	-0.119873	0.710419	-0.593979	-0.089206	-0.366792
19116		7.494823	-7.082980	2.328805	1.313515	1.444619	2.522580	0.043701	0.779053	-0.145508	0.725489	-0.583454	-0.072047	-0.357849
19117		7.784056	-6.560243	3.084588	1.455546	1.221494	2.450190	0.087891	0.780518	-0.168213	0.740393	-0.572291	-0.056972	-0.347930
19118		7.426008	-6.731007	3.539350	1.296057	1.161047	2.378645	0.129395	0.779297	-0.183350	0.753822	-0.561886	-0.042127	-0.338026
19119		6.282005	-7.258726	3.485065	0.982785	1.293626	2.359385	0.175049	0.775879	-0.188721	0.765328	-0.552737	-0.025645	-0.328781
19120		6.168298	-7.886449	2.998746	0.879296	1.329027	2.354139	0.199707	0.761719	-0.212646	0.775913	-0.543836	-0.008675	-0.319573
19121		4.940927	-8.006019	2.755763	0.852601	1.249007	2.330743	0.243652	0.747314	-0.209473	0.785875	-0.535025	0.007738	-0.309983
19122		4.697900	-7.798717	3.277281	0.820461	1.130684	2.317823	0.285156	0.737793	-0.228760	0.795251	-0.526456	0.023389	-0.299788
19123		4.386140	-7.232341	3.196242	0.745337	1.173510	2.311327	0.313965	0.723145	-0.230957	0.803865	-0.518015	0.039463	-0.289660
19124		3.692380	-6.814481	3.070955	0.762642	1.161686	2.243108	0.356445	0.707275	-0.240967	0.811991	-0.509258	0.055093	-0.279805
19125		3.522635	-6.181059	3.292601	0.601485	1.131398	2.156641	0.394043	0.690430	-0.236572	0.818869	-0.501472	0.070494	-0.270206
19126		2.576458	-6.113597	2.944051	0.449816	1.090951	2.070270	0.424316	0.683350	-0.240479	0.824598	-0.494656	0.085561	-0.260830
19127		2.006729	-6.251308	2.882776	0.467870	0.988265	1.958960	0.452393	0.666992	-0.241699	0.829925	-0.487839	0.099385	-0.251714
19128		1.345074	-6.607910	2.771728	0.500161	0.891735	1.855576	0.483154	0.653809	-0.233398	0.834969	-0.480931	0.112017	-0.242867
19129		0.801385	-6.373823	3.049454	0.606066	0.767444	1.722489	0.509277	0.635498	-0.243164	0.840039	-0.473525	0.123001	-0.234477
19130		0.536732	-5.670274	3.388018	0.615063	0.579558	1.551579	0.526855	0.619873	-0.243408	0.844796	-0.466487	0.131947	-0.226495
19131		0.095738	-5.562312	2.962760	0.520158	0.491713	1.326807	0.545410	0.601318	-0.251465	0.848698	-0.460444	0.139553	-0.219608
19132		-0.489587	-5.297586	2.625680	0.410436	0.480808	1.085530	0.562744	0.592529	-0.245117	0.851637	-0.455418	0.146339	-0.214229
19133		-0.657641	-4.705841	2.564968	0.372607	0.394153	0.833782	0.574463	0.580322	-0.248779	0.854012	-0.451084	0.151610	-0.210242
19134		-0.451541	-4.266420	2.891174	0.342145	0.261448	0.581398	0.578369	0.575195	-0.253662	0.855952	-0.447496	0.155036	-0.207502
19135		-0.480774	-4.108076	2.845046	0.219895	0.174633	0.344021	0.591309	0.562500	-0.250488	0.857118	-0.445225	0.157165	-0.205968
19136		-0.610597	-3.507948	2.398581	0.080348	0.055835	0.072181	0.590576	0.559570	-0.251221	0.857449	-0.444506	0.157675	-0.205751
19137		-0.841511	-2.863659	2.158825	-0.099698	-0.078844	-0.239425	0.582764	0.571533	-0.249756	0.856754	-0.445713	0.156379	-0.207023
19138		-0.782498	-3.173907	2.281320	-0.213804	-0.255842	-0.529021	0.581787	0.577148	-0.249756	0.855352	-0.448408	0.152939	-0.209553
19139		-0.018356	-4.303751	2.691913	-0.245946	-0.412632	-0.770119	0.566895	0.582764	-0.250977	0.853574	-0.451893	0.147533	-0.213164
19140		0.747129	-5.147246	3.078719	-0.382738	-0.483511	-0.964927	0.551025	0.602051	-0.246338	0.850957	-0.456683	0.141119	-0.217711
19141		0.713822	-5.167070	2.821364	-0.534591	-0.526771	-1.132493	0.539551	0.610107	-0.249023	0.847415	-0.462777	0.134017	-0.223080
19142		0.607719	-4.624839	2.852769	-0.688577	-0.578077	-1.317550	0.522461	0.623535	-0.243896	0.842861	-0.470193	0.126102	-0.229354
19143		1.144023	-5.186007	3.116417	-0.794043	-0.617509	-1.537179	0.497559	0.641357	-0.236328	0.837341	-0.478558	0.117222	-0.236858
19144		1.953427	-6.384539	3.273028	-0.915040	-0.623947	-1.703505	0.471191	0.657471	-0.234375	0.830796	-0.487819	0.107838	-0.245320
19145		2.173274	-6.763221	3.144276	-1.119674	-0.575204	-1.818765	0.449707	0.677490	-0.216064	0.822877	-0.498349	0.098701	-0.254519
19146		2.581918	-6.849072	2.973102	-1.232141	-0.632597	-1.940308	0.420654	0.693359	-0.210205	0.813974	-0.509692	0.088863	-0.264130
19147		2.456609	-7.241136	2.886339	-1.388369	-0.600602	-2.091575	0.388428	0.709717	-0.188965	0.803696	-0.521920	0.078898	-0.274676
19148		2.459596	-8.173600	2.765348	-1.382513	-0.673931	-2.262425	0.353027	0.727051	-0.182373	0.792702	-0.534133	0.067643	-0.285918
19149		2.994445	-8.696876	2.631232	-1.228591	-0.918199	-2.403401	0.317871	0.745605	-0.156982	0.781759	-0.545704	0.053741	-0.296937
19150		3.433161	-8.816944	3.038397	-1.101650	-1.088682	-2.499059	0.273682	0.749756	-0.150879	0.770772	-0.556597	0.037945	-0.307686
19151		4.788015	-9.229076	2.881013	-0.962722	-1.192315	-2.560951	0.229492	0.771484	-0.137939	0.759827	-0.566544	0.020813	-0.318209
19152		4.687833	-9.290711	2.452155	-0.922737	-1.143709	-2.574233	0.190430	0.773682	-0.125732	0.748555	-0.575765	0.003803	-0.328856
19153		4.980618	-8.747086	2.618594	-0.912174	-1.146861	-2.596502	0.152588	0.786621	-0.119141	0.736805	-0.584577	-0.013370	-0.339425
19154		6.483753	-7.580627	3.090619	-0.912810	-1.280581	-2.569650	0.112061	0.797607	-0.104980	0.724648	-0.593408	-0.031226	-0.348965
19155		7.429540	-7.545480	3.151829	-1.124665	-1.238010	-2.555445	0.066406	0.785400	-0.084473	0.711027	-0.603016	-0.048127	-0.358464
19156		6.592017	-7.490135	2.613000	-1.491189	-0.966207	-2.483469	0.030029	0.798828	-0.062500	0.695421	-0.613615	-0.061939	-0.368821
19157		7.357650	-6.461658	2.432882	-1.501991	-1.075347	-2.455973	-0.015381	0.795654	-0.040771	0.679329	-0.624222	-0.076173	-0.378227
19158		10.791146	-9.003983	1.420746	-1.553908	-1.111787	-2.573562	-0.045898	0.798584	-0.015137	0.662102	-0.634728	-0.091017	-0.387888
19159		7.096729	-10.978616	0.559514	-1.805182	-0.612484	-2.446748	-0.088135	0.793945	0.020996	0.643864	-0.644662	-0.101571	-0.399416
19160		8.508238	-9.144364	1.615524	-1.256519	-0.748328	-2.301945	-0.126709	0.779053	0.042480	0.628553	-0.651844	-0.113835	-0.408732
19161		10.400048	-8.062360	2.159092	-0.976576	-0.934407	-2.217644	-0.147949	0.773193	0.052490	0.614561	-0.657947	-0.127514	-0.416126
19162		8.813503	-8.468023	1.504102	-1.310103	-0.727771	-2.114243	-0.175781	0.766602	0.077148	0.599027	-0.664836	-0.138356	-0.424285
19163		9.274277	-8.777017	0.688488	-1.641896	-0.414797	-2.028260	-0.211426	0.751221	0.098145	0.582032	-0.672051	-0.145918	-0.433930
19164		9.333951	-8.006692	0.915728	-1.599295	-0.349905	-1.921252	-0.227051	0.747803	0.125977	0.565469	-0.678637	-0.152650	-0.443164
19165		10.001562	-8.437632	0.714966	-1.320298	-0.495804	-1.840686	-0.258789	0.732666	0.152344	0.550365	-0.684267	-0.160578	-0.450657
19166		8.871034	-8.955005	-0.015300	-1.180129	-0.380528	-1.669815	-0.279541	0.725830	0.173096	0.536670	-0.688813	-0.167473	-0.457683
19167		9.436069	-8.431676	0.383723	-0.935435	-0.359829	-1.501959	-0.294678	0.705566	0.190918	0.524910	-0.692237	-0.174194	-0.463610
19168		8.955181	-7.901111	0.158298	-0.834706	-0.299192	-1.380255	-0.318848	0.700684	0.205322	0.514183	-0.695015	-0.180293	-0.469109
19169		8.571467	-7.723295	-0.164325	-0.825664	-0.268630	-1.305832	-0.326416	0.677979	0.206787	0.503758	-0.697620	-0.185828	-0.474365
19170		8.209446	-7.446767	-0.083583	-0.825248	-0.296231	-1.195189	-0.351807	0.677246	0.231689	0.493652	-0.700389	-0.190799	-0.478914
19171		8.110090	-7.040113	-0.304784	-0.574980	-0.449404	-1.046684	-0.352783	0.663086	0.241943	0.485296	-0.702881	-0.196498	-0.481492
19172		7.744168	-6.574251	-0.344868	-0.311459	-0.566077	-0.937214	-0.363525	0.654053	0.251221	0.478687	-0.704882	-0.203059	-0.482460
19173		7.514916	-6.168614	-0.525333	-0.160732	-0.652662	-0.864797	-0.366211	0.650146	0.259277	0.473071	-0.706691	-0.210120	-0.482328
19174		7.975713	-5.883854	-0.228441	-0.130813	-0.624713	-0.802260	-0.374756	0.643311	0.263916	0.467899	-0.708325	-0.216800	-0.482021
19175		8.252194	-5.950200	-0.326916	-0.129225	-0.542920	-0.727131	-0.384521	0.635010	0.272705	0.463161	-0.709711	-0.222704	-0.481866
19176		8.301832	-6.019620	-0.349920	-0.078201	-0.473143	-0.610221	-0.387939	0.633301	0.278320	0.459305	-0.710801	-0.227835	-0.481552
19177		8.419416	-5.927313	-0.387998	-0.092110	-0.334781	-0.472049	-0.382568	0.628906	0.278076	0.456175	-0.711626	-0.231548	-0.481537
19178		8.647492	-5.663546	-0.393218	-0.120477	-0.239486	-0.370824	-0.396484	0.626953	0.281738	0.453464	-0.712358	-0.234175	-0.481745
19179		8.727990	-5.561168	-0.512228	-0.178799	-0.147736	-0.273979	-0.400391	0.628418	0.299316	0.450975	-0.713121	-0.235638	-0.482239
19180		8.607731	-5.657254	-0.805094	-0.243355	-0.127494	-0.203737	-0.397217	0.614014	0.295410	0.448425	-0.714177	-0.236341	-0.482711
19181		8.664372	-5.745567	-0.905729	-0.231957	-0.100128	-0.138141	-0.408203	0.618896	0.292725	0.446262	-0.715203	-0.236590	-0.483073
19182		8.691018	-5.785300	-1.128340	-0.168347	-0.089390	-0.070203	-0.398926	0.617188	0.303223	0.444777	-0.716081	-0.236645	-0.483116
19183		8.650982	-5.667859	-1.128803	-0.049503	-0.077026	-0.038902	-0.398682	0.614258	0.306396	0.444154	-0.716530	-0.236940	-0.482879
19184		8.544566	-5.621015	-1.209581	0.034455	-0.091116	-0.026544	-0.401855	0.616699	0.299316	0.444059	-0.716748	-0.237546	-0.482343
19185		8.586371	-5.478234	-1.120432	0.143989	-0.130444	-0.025741	-0.402344	0.616943	0.304199	0.444547	-0.716721	-0.238728	-0.481350
19186		8.646324	-5.278794	-1.039915	0.292040	-0.184186	-0.034520	-0.402832	0.619385	0.300537	0.445779	-0.716340	-0.240750	-0.479769
19187		8.730313	-4.952420	-0.939454	0.381693	-0.159739	-0.016707	-0.403564	0.614990	0.296387	0.447665	-0.715556	-0.242927	-0.478081
19188		8.749130	-4.489610	-0.857192	0.335755	-0.168224	0.007831	-0.403809	0.622559	0.300293	0.449357	-0.715019	-0.244801	-0.476339
19189		8.894620	-4.069313	-0.886182	0.251917	-0.135350	0.006086	-0.394775	0.620117	0.303467	0.450608	-0.714655	-0.246225	-0.474968
19190		9.101684	-3.745682	-0.878220	0.142680	-0.074825	-0.000107	-0.394775	0.618164	0.296875	0.451307	-0.714445	-0.247026	-0.474203
19191		9.217463	-3.672908	-0.968788	0.018487	-0.033760	0.018636	-0.402100	0.624268	0.295898	0.451425	-0.714575	-0.247071	-0.473870
19192		9.102995	-3.620383	-1.429373	-0.070162	-0.028942	0.048726	-0.404785	0.624268	0.291504	0.451144	-0.715081	-0.246570	-0.473637
19193		9.080123	-3.460598	-1.738205	-0.062886	0.003983	0.055721	-0.397705	0.614258	0.286865	0.450999	-0.715442	-0.245934	-0.473559
19194		9.188676	-3.368210	-1.880413	0.005319	0.054685	0.016488	-0.396240	0.621094	0.289062	0.451207	-0.715267	-0.245613	-0.473792
19195		9.040523	-3.505874	-1.895364	0.065951	0.045996	-0.022274	-0.401611	0.626709	0.286133	0.451603	-0.714819	-0.245797	-0.473996
19196		8.745281	-3.656382	-1.678956	0.015021	-0.000522	-0.053808	-0.394531	0.621338	0.286133	0.451473	-0.714683	-0.246145	-0.474145
19197		8.747400	-3.647916	-1.651938	-0.046077	-0.063274	-0.093182	-0.402832	0.628174	0.297119	0.450692	-0.714943	-0.246724	-0.474194
19198		8.844542	-3.480742	-1.719153	-0.047432	-0.141056	-0.147269	-0.401367	0.623535	0.297852	0.449527	-0.715404	-0.247913	-0.473985
19199		8.863422	-3.205953	-1.720865	-0.103510	-0.203599	-0.193633	-0.406006	0.627197	0.294434	0.447712	-0.716223	-0.249392	-0.473691
19200		9.025016	-3.060611	-1.801908	-0.140852	-0.207462	-0.254920	-0.408447	0.615479	0.301025	0.445418	-0.717064	-0.251104	-0.473677
19201		9.162973	-3.043579	-1.846090	-0.216179	-0.105380	-0.299127	-0.398926	0.616211	0.300537	0.442706	-0.717682	-0.252404	-0.474591
19202		9.249464	-2.839121	-1.911205	-0.333522	-0.088646	-0.341423	-0.412598	0.601074	0.310059	0.439151	-0.718568	-0.253432	-0.476003
19203		9.370792	-2.712132	-1.944586	-0.449466	-0.137689	-0.388752	-0.418457	0.605713	0.311035	0.434597	-0.719958	-0.254460	-0.477531
19204		9.477125	-2.680991	-1.953714	-0.483997	-0.178337	-0.459480	-0.418945	0.596680	0.325684	0.429452	-0.721463	-0.255919	-0.479131
19205		9.447890	-2.755875	-1.978104	-0.527020	-0.169343	-0.516379	-0.421631	0.591553	0.338623	0.423822	-0.722938	-0.257510	-0.481065
19206		9.464109	-2.709255	-2.209410	-0.584871	-0.174706	-0.569685	-0.429199	0.590088	0.336182	0.417596	-0.724492	-0.259201	-0.483259
19207		9.544021	-2.643390	-2.395849	-0.623813	-0.177680	-0.624192	-0.430176	0.578125	0.359375	0.410884	-0.726038	-0.261063	-0.485685
19208		9.647538	-2.702681	-2.194336	-0.635928	-0.185257	-0.674519	-0.431396	0.565918	0.362549	0.403851	-0.727503	-0.263194	-0.488234
19209		9.741402	-2.863687	-2.201805	-0.627038	-0.213250	-0.719280	-0.446045	0.562256	0.367188	0.396599	-0.728906	-0.265712	-0.490715
19210		9.608394	-2.760969	-2.308686	-0.599571	-0.181451	-0.744560	-0.454590	0.551758	0.375732	0.389454	-0.729984	-0.268375	-0.493379
19211		9.786198	-2.629803	-2.268135	-0.537259	-0.195150	-0.789882	-0.455078	0.531738	0.387207	0.382444	-0.730766	-0.271597	-0.495936
19212		9.949034	-2.301780	-2.342197	-0.510813	-0.168978	-0.839048	-0.467529	0.518799	0.400146	0.375423	-0.731194	-0.275128	-0.498715
19213		10.054227	-2.067215	-2.232940	-0.540083	-0.123145	-0.877065	-0.471924	0.511475	0.407471	0.368142	-0.731383	-0.278606	-0.501925
19214		10.342580	-2.017207	-2.012180	-0.583625	-0.081949	-0.919825	-0.479492	0.501953	0.414307	0.360482	-0.731374	-0.282017	-0.505580
19215		10.638789	-1.614910	-2.018649	-0.659242	-0.001285	-0.945655	-0.487793	0.494385	0.411133	0.352410	-0.731126	-0.285000	-0.509939
19216		11.003187	-0.900962	-2.096294	-0.759394	0.138734	-0.963401	-0.498047	0.467529	0.417480	0.343947	-0.730459	-0.287229	-0.515393
19217		11.153703	-0.460791	-2.002123	-0.925590	0.283331	-0.968867	-0.504883	0.448242	0.429688	0.334753	-0.729545	-0.288332	-0.522082
19218		10.989388	-0.830531	-1.963389	-1.072520	0.462363	-0.947300	-0.516846	0.444336	0.432617	0.325137	-0.728204	-0.288127	-0.530082
19219		10.350481	-1.626096	-1.814217	-1.156513	0.574721	-0.925097	-0.517090	0.424561	0.443604	0.315324	-0.726524	-0.287066	-0.538820
19220		9.815808	-2.221418	-1.965333	-1.103992	0.631779	-0.912132	-0.537842	0.401611	0.448730	0.305970	-0.724352	-0.285963	-0.547651
19221		9.621621	-2.148319	-2.235905	-0.934038	0.590295	-0.919456	-0.546143	0.387939	0.454102	0.297465	-0.721804	-0.285737	-0.555759
19222		9.610145	-2.131098	-2.320192	-0.766949	0.519055	-0.950506	-0.555908	0.366699	0.452881	0.289614	-0.719002	-0.286607	-0.563042
19223		9.248690	-2.340774	-2.394044	-0.626055	0.430033	-0.972628	-0.567139	0.356934	0.462646	0.282261	-0.716144	-0.288450	-0.569441
19224		9.258824	-2.339597	-2.171801	-0.438086	0.338439	-0.972678	-0.575195	0.342529	0.452148	0.275786	-0.713211	-0.291369	-0.574783
19225		9.078181	-2.449969	-1.868372	-0.280623	0.250132	-0.966114	-0.579834	0.336670	0.452881	0.270045	-0.710300	-0.295178	-0.579154
19226		8.993641	-2.380355	-1.753169	-0.208536	0.212606	-0.923583	-0.583984	0.311035	0.457275	0.264830	-0.707465	-0.299141	-0.582986
19227		8.945828	-2.222051	-1.792369	-0.167137	0.193247	-0.877389	-0.593018	0.308594	0.462402	0.260025	-0.704706	-0.303052	-0.586460
19228		8.819910	-2.081807	-1.812704	-0.167113	0.192015	-0.795497	-0.604248	0.300537	0.463135	0.255609	-0.702125	-0.306463	-0.589716
19229		8.724312	-1.902267	-1.601157	-0.135233	0.206694	-0.700502	-0.600342	0.285400	0.455566	0.251877	-0.699619	-0.309426	-0.592745
19230		8.458878	-2.146043	-1.553355	-0.120602	0.209243	-0.602077	-0.602295	0.273926	0.455322	0.248721	-0.697302	-0.311866	-0.595523
19231		8.248425	-2.352625	-1.535771	-0.039928	0.183188	-0.488472	-0.620361	0.271729	0.454590	0.246529	-0.695228	-0.314087	-0.597687
19232		8.092874	-2.402144	-1.639556	0.053114	0.092712	-0.378471	-0.605225	0.266357	0.454590	0.245190	-0.693695	-0.316309	-0.598847
19233		8.286514	-2.369197	-1.676294	0.152629	0.012134	-0.266290	-0.606201	0.266113	0.456055	0.244779	-0.692654	-0.318535	-0.599040
19234		8.384164	-2.266337	-1.552082	0.227341	-0.049603	-0.142742	-0.607910	0.264160	0.451416	0.245257	-0.692095	-0.320539	-0.598421
19235		8.445590	-2.276222	-1.530141	0.302069	-0.087973	-0.014732	-0.615479	0.276611	0.442871	0.246708	-0.691916	-0.322247	-0.597113
19236		8.513999	-2.319256	-1.376265	0.409983	-0.137335	0.122041	-0.621094	0.266113	0.449707	0.249333	-0.692124	-0.323796	-0.594941
19237		8.505267	-2.377537	-1.359762	0.461054	-0.155194	0.262389	-0.605713	0.279053	0.444580	0.252903	-0.692682	-0.324813	-0.592223
19238		8.543446	-2.534648	-1.363708	0.505863	-0.166992	0.419223	-0.617676	0.289307	0.448730	0.257474	-0.693611	-0.325156	-0.588968
19239		8.520034	-2.773906	-1.354739	0.581042	-0.170357	0.576658	-0.602051	0.299805	0.445801	0.263240	-0.694796	-0.324946	-0.585127
19240		8.398252	-3.064872	-1.195951	0.662624	-0.197840	0.732722	-0.596680	0.312744	0.440674	0.270157	-0.696318	-0.324264	-0.580525
19241		8.534077	-3.251127	-1.344244	0.743695	-0.255378	0.867874	-0.589844	0.330322	0.426270	0.278029	-0.698243	-0.323285	-0.575016
19242		8.879802	-3.298474	-1.593573	0.833689	-0.328124	0.994692	-0.581787	0.346191	0.437988	0.286814	-0.700573	-0.322125	-0.568481
19243		9.146286	-3.454842	-1.692338	0.951358	-0.387137	1.111369	-0.580322	0.375977	0.425049	0.296647	-0.703114	-0.320929	-0.560924
19244		9.342147	-3.682238	-1.799380	1.091831	-0.418486	1.254490	-0.565430	0.378418	0.415771	0.307843	-0.705708	-0.319563	-0.552348
19245		9.567592	-3.792786	-1.767861	1.255494	-0.440119	1.389930	-0.550049	0.412109	0.414062	0.320502	-0.708178	-0.318130	-0.542730
19246		9.553884	-3.975164	-1.627328	1.404880	-0.445043	1.482234	-0.547119	0.435791	0.402588	0.334365	-0.710313	-0.316744	-0.532287
19247		10.122449	-4.070906	-1.580402	1.485751	-0.348820	1.556084	-0.526367	0.464355	0.385742	0.349190	-0.711760	-0.314905	-0.521822
19248		10.650189	-3.898536	-1.286088	1.485522	-0.146490	1.612923	-0.513184	0.486816	0.373779	0.364681	-0.712236	-0.312028	-0.512218
19249		11.089871	-3.908493	-1.068452	1.394265	0.079800	1.666333	-0.494385	0.507812	0.359131	0.380329	-0.711917	-0.307647	-0.503861
19250		11.058156	-4.150467	-1.122541	1.235099	0.331580	1.723486	-0.486816	0.539062	0.340820	0.395800	-0.710954	-0.301357	-0.497062
19251		10.951476	-4.588180	-1.036587	1.102989	0.518841	1.802930	-0.469482	0.560303	0.312500	0.411161	-0.709611	-0.293329	-0.491281
19252		11.217633	-5.008827	-0.997628	1.080125	0.658123	1.871435	-0.458252	0.584229	0.300537	0.426869	-0.707693	-0.284219	-0.485976
19253		11.673546	-5.343154	-0.990341	1.180341	0.742744	1.922768	-0.437500	0.599609	0.275146	0.443417	-0.704926	-0.274802	-0.480567
19254		11.859744	-5.556537	-0.980812	1.388021	0.820299	2.031521	-0.417236	0.623535	0.253174	0.461606	-0.701019	-0.265166	-0.474531
19255		11.973258	-5.819544	-0.878091	1.595218	0.840246	2.179740	-0.390625	0.648193	0.224609	0.481401	-0.696195	-0.255270	-0.467335
19256		11.341713	-6.094819	-0.567961	1.733694	0.826255	2.303771	-0.370117	0.672119	0.186523	0.502167	-0.690714	-0.245096	-0.458988
19257		11.269533	-6.716057	-0.536042	1.805502	0.819672	2.369176	-0.342773	0.685547	0.157471	0.523250	-0.684637	-0.234689	-0.449892
19258		10.699920	-6.956627	-0.534323	1.855170	0.791229	2.406624	-0.313477	0.707031	0.136719	0.544341	-0.678054	-0.224219	-0.440069
19259		11.145800	-7.133786	-0.310178	1.978727	0.754824	2.381818	-0.293701	0.723877	0.093750	0.565588	-0.670519	-0.214349	-0.429615
19260		11.208487	-7.193981	-0.237819	2.057217	0.809586	2.367589	-0.256836	0.741699	0.071045	0.586908	-0.661902	-0.204429	-0.419086
19261		11.032205	-6.971224	-0.234808	1.996068	0.921041	2.368630	-0.218262	0.755615	0.023193	0.607649	-0.652709	-0.193598	-0.408967
19262		11.020496	-6.391032	0.391813	1.883134	1.039865	2.363281	-0.183594	0.762695	0.000488	0.627502	-0.643200	-0.181675	-0.399411
19263		10.811420	-6.240743	1.074051	1.692276	1.196312	2.371567	-0.156738	0.772949	-0.035645	0.646148	-0.633724	-0.168134	-0.390663
19264		10.513116	-6.570843	1.164463	1.434380	1.358317	2.420703	-0.116455	0.785645	-0.063965	0.663367	-0.624739	-0.152515	-0.382603
19265		9.824658	-7.345291	1.022931	1.154020	1.589069	2.456640	-0.079102	0.782715	-0.083008	0.679070	-0.616183	-0.134444	-0.375643
19266		9.210827	-7.794335	0.795084	1.001369	1.709300	2.503106	-0.032715	0.789551	-0.098389	0.693785	-0.607735	-0.114890	-0.368946
19267		8.071028	-7.971656	0.928676	1.142595	1.763978	2.529957	0.003418	0.778564	-0.122559	0.708832	-0.597885	-0.095242	-0.361967
19268		7.859135	-7.966299	1.846280	1.343394	1.565071	2.490835	0.053711	0.789795	-0.144775	0.724069	-0.586977	-0.077505	-0.353801
19269		7.217075	-7.729985	2.945490	1.423651	1.461420	2.423116	0.086670	0.783691	-0.167480	0.738908	-0.575430	-0.060912	-0.345233
19270		7.064149	-8.084650	3.204298	1.350087	1.415501	2.367432	0.121582	0.779541	-0.196289	0.752704	-0.564048	-0.044622	-0.336595
19271		6.402782	-8.223309	2.812458	1.323936	1.431555	2.356742	0.169189	0.767090	-0.205322	0.765855	-0.552412	-0.028187	-0.327891
19272		5.802742	-7.857325	3.074996	1.280025	1.401216	2.338865	0.211914	0.756104	-0.222900	0.778251	-0.540783	-0.011896	-0.318964
19273		5.705102	-7.645844	3.382386	1.190031	1.353058	2.283445	0.249268	0.742188	-0.232666	0.789609	-0.529532	0.004072	-0.309995
19274		5.135859	-7.638738	3.236658	1.017560	1.371390	2.253691	0.286865	0.738281	-0.239990	0.799672	-0.519068	0.020465	-0.301123
19275		4.831861	-7.358052	3.288062	0.902722	1.359557	2.265982	0.323242	0.718994	-0.258301	0.808826	-0.509114	0.037101	-0.291935
19276		4.261288	-6.738529	3.270222	0.806134	1.328178	2.234423	0.365234	0.702393	-0.256104	0.817072	-0.499632	0.053599	-0.282645
19277		3.909242	-6.390762	3.233767	0.630740	1.271885	2.139945	0.405273	0.689697	-0.259766	0.823988	-0.491279	0.069699	-0.273551
19278		3.000976	-5.976547	3.080105	0.453517	1.260772	2.061035	0.429199	0.674805	-0.261230	0.829640	-0.484002	0.085766	-0.264734
19279		2.498855	-5.739309	2.887454	0.397190	1.130728	1.982547	0.468506	0.649658	-0.258789	0.834653	-0.477267	0.100701	-0.255792
19280		2.102829	-5.877101	3.100279	0.343105	1.014802	1.905146	0.489014	0.635742	-0.252197	0.839087	-0.471056	0.114596	-0.246793
19281		1.231339	-6.345123	2.949761	0.278848	0.967145	1.789127	0.517822	0.623047	-0.248779	0.842812	-0.465359	0.127794	-0.238282
19282		0.336112	-6.523852	2.479240	0.320580	0.843303	1.616671	0.539551	0.608154	-0.247070	0.846262	-0.459678	0.139334	-0.230485
19283		0.026109	-6.366064	2.395543	0.441900	0.651910	1.451478	0.556885	0.600342	-0.247559	0.849898	-0.453607	0.148629	-0.223211
19284		-0.281523	-6.011486	2.648042	0.595436	0.490561	1.275046	0.577881	0.577881	-0.248047	0.853838	-0.446894	0.155803	-0.216728
19285		-0.386287	-5.279996	3.181472	0.619537	0.394766	1.074058	0.593018	0.563721	-0.253418	0.857512	-0.440386	0.161484	-0.211320
19286		-0.537201	-4.438735	3.281375	0.517674	0.286788	0.848437	0.600830	0.559326	-0.250000	0.860478	-0.435058	0.165728	-0.206971
19287		-0.674087	-3.722785	3.006483	0.324242	0.247249	0.626847	0.603760	0.550293	-0.245361	0.862366	-0.431466	0.169210	-0.203789
19288		-1.158562	-3.758578	2.932244	0.131171	0.132295	0.376415	0.612305	0.552979	-0.260010	0.863276	-0.429798	0.171289	-0.201716
19289		-1.455975	-3.990912	2.717662	-0.030562	-0.013435	0.118633	0.616455	0.542236	-0.256348	0.863375	-0.429902	0.171669	-0.200742
19290		-1.732184	-3.978462	2.591424	-0.069472	-0.195503	-0.161588	0.609375	0.545654	-0.258301	0.863125	-0.430989	0.169802	-0.201075
19291		-1.480731	-3.922411	2.970536	-0.074995	-0.397495	-0.441039	0.606934	0.549805	-0.255859	0.862660	-0.432843	0.165488	-0.202679
19292		-0.724003	-4.183310	3.324558	-0.130530	-0.534689	-0.684232	0.593018	0.554688	-0.256104	0.861739	-0.435645	0.159401	-0.205451
19293		0.230365	-4.475784	3.441120	-0.241707	-0.536694	-0.859378	0.585693	0.566406	-0.267334	0.860063	-0.439452	0.152844	-0.209312
19294		0.564454	-4.684431	3.507951	-0.461918	-0.545438	-1.020214	0.571533	0.572998	-0.255859	0.857233	-0.445017	0.146003	-0.213995
19295		0.367950	-4.734843	3.273353	-0.718054	-0.518044	-1.193697	0.558105	0.590576	-0.252930	0.852998	-0.452517	0.139149	-0.219681
19296		0.390639	-5.161135	2.993414	-0.936735	-0.509075	-1.356459	0.532715	0.602539	-0.243408	0.847477	-0.461662	0.132118	-0.226265
19297		0.571392	-6.039498	2.888277	-1.098312	-0.543105	-1.506825	0.525146	0.622314	-0.240234	0.840888	-0.472070	0.124541	-0.233551
19298		1.129906	-6.687687	2.926208	-1.043979	-0.648770	-1.680661	0.495117	0.638916	-0.232178	0.834047	-0.482353	0.115398	-0.241629
19299		1.761836	-7.053935	3.255805	-0.996238	-0.718151	-1.847757	0.466797	0.662598	-0.222900	0.826857	-0.492453	0.104965	-0.250559
19300		2.215300	-7.538204	3.489093	-1.069514	-0.717298	-2.025841	0.436523	0.684326	-0.217529	0.818685	-0.503032	0.093919	-0.260564
19301		2.038473	-8.159118	3.051348	-1.183480	-0.681799	-2.180750	0.402344	0.706299	-0.201660	0.809316	-0.514218	0.082668	-0.271575
19302		1.872916	-8.623876	2.670335	-1.252983	-0.766830	-2.305038	0.370117	0.714355	-0.192383	0.799029	-0.525902	0.070426	-0.282880
19303		1.704040	-9.580053	1.725262	-1.281876	-0.907129	-2.434576	0.332275	0.727783	-0.191406	0.787948	-0.537898	0.056711	-0.294258
19304		1.648483	-9.330603	0.950897	-0.987292	-1.218528	-2.554192	0.282227	0.748535	-0.172119	0.777562	-0.548461	0.039660	-0.304983
19305		2.695808	-9.283883	1.375821	-0.311895	-1.623945	-2.692255	0.238037	0.764404	-0.174072	0.769529	-0.555370	0.017611	-0.314768
19306		3.513594	-8.984390	2.172979	0.158548	-1.952576	-2.820246	0.203613	0.772705	-0.178223	0.762801	-0.559728	-0.008384	-0.323680
19307		5.975153	-7.986897	3.777643	0.558993	-2.343180	-2.818502	0.150146	0.774902	-0.195801	0.757240	-0.562102	-0.037926	-0.330439
19308		6.854184	-6.522394	5.224994	0.413475	-2.508078	-2.640516	0.097412	0.772217	-0.198730	0.750720	-0.565373	-0.067244	-0.335038
19309		8.730477	-6.253230	4.817966	-0.050582	-2.401401	-2.472640	0.054443	0.775635	-0.191650	0.741882	-0.570841	-0.093757	-0.339058
19310		8.685684	-6.203541	3.857953	-0.762793	-1.931428	-2.293387	0.011963	0.777100	-0.184570	0.729975	-0.579094	-0.114441	-0.344514
19311		9.346002	-7.019733	4.034616	-1.217997	-1.638864	-2.201470	-0.028809	0.774902	-0.156494	0.715939	-0.588985	-0.131529	-0.351040
19312		9.307823	-7.611785	3.620670	-1.536811	-1.426745	-2.091978	-0.062256	0.770264	-0.129395	0.700444	-0.599908	-0.145808	-0.358090
19313		10.282086	-7.518555	3.594016	-1.650801	-1.296300	-1.913470	-0.095703	0.775635	-0.101318	0.684658	-0.610968	-0.158012	-0.364683
19314		9.073213	-7.194059	2.444144	-1.917826	-1.000961	-1.728775	-0.123779	0.778076	-0.073242	0.668084	-0.622558	-0.166698	-0.371884
19315		9.990962	-7.248083	1.922861	-1.991506	-0.937180	-1.720750	-0.149414	0.776367	-0.034668	0.650879	-0.634032	-0.174670	-0.379277
19316		9.678565	-8.861344	0.556115	-2.223587	-0.594781	-1.745578	-0.174561	0.771729	0.007324	0.632499	-0.645286	-0.180088	-0.388741
19317		8.702772	-8.876171	1.012958	-2.304514	-0.436083	-1.597146	-0.198486	0.769775	0.024902	0.614038	-0.656306	-0.183507	-0.398177
19318		8.954096	-8.094214	1.391904	-2.052747	-0.431413	-1.469387	-0.217285	0.759521	0.052490	0.597073	-0.665881	-0.186941	-0.406397
19319		8.435811	-8.530581	0.824443	-1.788162	-0.483895	-1.378276	-0.226074	0.748779	0.090820	0.581557	-0.674181	-0.190947	-0.413293
19320		8.387260	-8.979353	0.139985	-1.537443	-0.444471	-1.300110	-0.252686	0.743652	0.114746	0.567588	-0.681027	-0.195118	-0.419493
19321		9.055845	-10.336860	-0.486632	-1.500800	-0.143045	-1.257334	-0.268555	0.730469	0.130859	0.554309	-0.686523	-0.197689	-0.427021
19322		7.524012	-9.849246	-0.414499	-1.385670	0.104321	-1.134723	-0.289551	0.720703	0.164795	0.542400	-0.690640	-0.198770	-0.435098
19323		7.658039	-8.681444	-0.701182	-0.985826	0.060687	-1.109839	-0.301025	0.711670	0.167725	0.532712	-0.693019	-0.201308	-0.442060
19324		7.696113	-7.495990	-0.172839	-0.454754	-0.302366	-1.054891	-0.314453	0.696045	0.170166	0.525621	-0.694385	-0.207067	-0.445730
19325		7.908917	-6.752712	0.242377	-0.033266	-0.579917	-1.017496	-0.322998	0.698730	0.189209	0.520582	-0.694933	-0.215365	-0.446857
19326		8.208485	-6.122367	0.726202	-0.021825	-0.631451	-0.951987	-0.332275	0.695557	0.189941	0.515715	-0.695675	-0.223526	-0.447337
19327		8.783768	-5.576837	0.959080	-0.223956	-0.575431	-0.890526	-0.340332	0.692383	0.192871	0.509970	-0.697129	-0.230315	-0.448216
19328		9.240080	-5.288366	0.590864	-0.437133	-0.482026	-0.827639	-0.346191	0.670654	0.206787	0.503363	-0.699202	-0.235524	-0.449745
19329		9.529763	-5.518133	0.436530	-0.560349	-0.411806	-0.746148	-0.357178	0.675537	0.217529	0.496446	-0.701633	-0.239484	-0.451552
19330		9.479465	-6.008455	0.183660	-0.585209	-0.300945	-0.632221	-0.368408	0.664551	0.227295	0.490004	-0.703929	-0.242207	-0.453558
19331		8.797293	-6.450819	-0.401160	-0.562120	-0.178503	-0.511908	-0.373779	0.650879	0.238770	0.484379	-0.705873	-0.243798	-0.455722
19332		8.301151	-6.461363	-1.104374	-0.586460	-0.037016	-0.390303	-0.376221	0.654297	0.246826	0.479345	-0.707598	-0.243996	-0.458258
19333		8.146604	-6.362449	-1.071889	-0.582669	0.016534	-0.306799	-0.372559	0.649170	0.255859	0.474748	-0.709250	-0.243491	-0.460750
19334		8.082401	-6.332731	-1.253480	-0.468286	0.042443	-0.238412	-0.375488	0.647949	0.258545	0.471134	-0.710473	-0.242908	-0.462879
19335		8.042342	-6.293034	-1.234003	-0.319778	0.030032	-0.176819	-0.376709	0.645752	0.260254	0.468609	-0.711276	-0.242574	-0.464382
19336		8.082610	-6.180772	-1.118575	-0.124690	-0.002152	-0.133549	-0.389893	0.653564	0.266357	0.467343	-0.711526	-0.242859	-0.465124
19337		8.102485	-5.934423	-0.985467	0.028021	-0.074158	-0.105665	-0.387451	0.649170	0.255859	0.466947	-0.711517	-0.243847	-0.465019
19338		8.248190	-5.506230	-1.077252	0.138617	-0.152352	-0.092855	-0.384766	0.640381	0.263428	0.467100	-0.711405	-0.245487	-0.464173
19339		8.357526	-5.141719	-1.262237	0.225926	-0.222259	-0.079171	-0.381836	0.652100	0.259033	0.467681	-0.711248	-0.247653	-0.462676
19340		8.526771	-4.830364	-1.584302	0.273054	-0.280234	-0.055716	-0.384277	0.643066	0.255127	0.468509	-0.711174	-0.250083	-0.460641
19341		8.614878	-4.596169	-1.663317	0.304249	-0.311663	-0.039661	-0.388184	0.648438	0.252197	0.469512	-0.711124	-0.252657	-0.458286
19342		8.725713	-4.544461	-1.264623	0.325362	-0.299923	-0.028554	-0.373779	0.649414	0.257080	0.470702	-0.710961	-0.255196	-0.455906
19343		8.850004	-4.427834	-1.162893	0.308495	-0.253599	-0.016047	-0.380615	0.648193	0.258789	0.471932	-0.710705	-0.257412	-0.453781
19344		8.977923	-4.155618	-0.994073	0.299121	-0.191500	-0.008174	-0.379395	0.650635	0.252441	0.473265	-0.710261	-0.259299	-0.452010
19345		9.058831	-3.897208	-0.987563	0.220849	-0.130895	-0.001347	-0.378906	0.650879	0.250488	0.474289	-0.709907	-0.260610	-0.450738
19346		9.030756	-3.842134	-1.082436	0.117800	-0.060904	0.007214	-0.391602	0.652832	0.245117	0.474886	-0.709712	-0.261207	-0.450070
19347		9.066860	-3.881217	-1.292185	0.047723	-0.013236	0.018453	-0.372803	0.654297	0.251953	0.475214	-0.709639	-0.261288	-0.449793
19348		8.960630	-3.883434	-1.455677	-0.059312	0.046839	0.039812	-0.380615	0.651611	0.247314	0.475118	-0.709810	-0.260603	-0.450021
19349		8.876137	-3.865250	-1.570485	-0.081423	0.073219	0.036513	-0.386963	0.649902	0.252441	0.474935	-0.709962	-0.259752	-0.450466
19350		8.848166	-3.815884	-1.640686	-0.087381	0.111411	0.029443	-0.373779	0.649170	0.258301	0.474771	-0.709978	-0.258771	-0.451179
19351		8.847342	-3.726822	-1.602823	-0.095557	0.105797	0.011511	-0.382568	0.649902	0.253418	0.474477	-0.710008	-0.257887	-0.451946
19352		8.830919	-3.732734	-1.535649	-0.127173	0.107626	-0.014475	-0.381592	0.646729	0.254883	0.473899	-0.710099	-0.257033	-0.452895
19353		8.823723	-3.713072	-1.544452	-0.171255	0.077752	-0.051656	-0.379883	0.649414	0.251221	0.472854	-0.710395	-0.256350	-0.453908
19354		8.893607	-3.659891	-1.831560	-0.200031	0.060825	-0.099099	-0.385010	0.640625	0.254883	0.471420	-0.710766	-0.255907	-0.455068
19355		9.034177	-3.467402	-1.927643	-0.240758	0.038176	-0.141826	-0.383301	0.635010	0.255615	0.469531	-0.711288	-0.255652	-0.456347
19356		9.043131	-3.254240	-2.128777	-0.261258	0.018168	-0.190363	-0.391846	0.639893	0.261230	0.467287	-0.711859	-0.255685	-0.457739
19357		9.028952	-3.238573	-1.993357	-0.268908	-0.010719	-0.239911	-0.376709	0.640381	0.274170	0.464741	-0.712459	-0.256096	-0.459165
19358		9.016316	-3.272268	-1.977671	-0.324542	-0.036971	-0.283596	-0.389893	0.633301	0.269043	0.461633	-0.713275	-0.256655	-0.460719
19359		9.047878	-3.308022	-1.882563	-0.370264	-0.052202	-0.334714	-0.398682	0.628662	0.278076	0.458016	-0.714205	-0.257398	-0.462470
19360		9.075491	-3.313089	-1.914654	-0.418798	-0.039524	-0.373739	-0.402344	0.623535	0.289551	0.453975	-0.715174	-0.258136	-0.464542
19361		9.190348	-3.176100	-2.065203	-0.440526	-0.072734	-0.421767	-0.405518	0.622559	0.289307	0.449535	-0.716233	-0.259196	-0.466633
19362		9.421993	-2.880128	-2.253873	-0.437989	-0.113134	-0.478281	-0.409180	0.611572	0.294678	0.444788	-0.717298	-0.260750	-0.468676
19363		9.530226	-2.568023	-2.136457	-0.482113	-0.105920	-0.534329	-0.411133	0.604736	0.296631	0.439556	-0.718352	-0.262433	-0.471052
19364		9.564981	-2.637291	-2.123820	-0.573971	-0.093549	-0.597806	-0.420654	0.602539	0.312256	0.433531	-0.719525	-0.264082	-0.473916
19365		9.618441	-2.699621	-2.168438	-0.631955	-0.089290	-0.649216	-0.422363	0.595947	0.318359	0.426938	-0.720738	-0.265783	-0.477095
19366		9.616869	-2.815876	-2.178295	-0.597152	-0.101518	-0.706596	-0.432861	0.583252	0.331055	0.420272	-0.721707	-0.267998	-0.480300
19367		9.566556	-2.762831	-2.253782	-0.599700	-0.115921	-0.758990	-0.435547	0.581055	0.337646	0.413321	-0.722579	-0.270552	-0.483578
19368		9.647082	-2.663409	-2.322035	-0.627383	-0.073358	-0.791433	-0.452393	0.564209	0.351562	0.406138	-0.723252	-0.273026	-0.487254
19369		9.686219	-2.567716	-2.222821	-0.633092	-0.059644	-0.846305	-0.453369	0.555176	0.357666	0.398696	-0.723709	-0.275742	-0.491175
19370		9.646163	-2.554130	-2.334281	-0.619602	-0.065613	-0.890632	-0.462891	0.546875	0.362061	0.391108	-0.723986	-0.278779	-0.495137
19371		9.769081	-2.514300	-2.186430	-0.599870	-0.075254	-0.940278	-0.470947	0.529541	0.369629	0.383378	-0.724062	-0.282206	-0.499115
19372		9.778986	-2.507550	-2.257049	-0.584101	-0.061650	-0.977173	-0.475830	0.521729	0.374023	0.375587	-0.723879	-0.285853	-0.503212
19373		9.811340	-2.595857	-2.291453	-0.603387	-0.035584	-1.021161	-0.485352	0.513672	0.392334	0.367521	-0.723473	-0.289576	-0.507603
19374		9.813718	-2.470652	-2.394304	-0.578513	-0.034635	-1.070606	-0.497070	0.493164	0.401611	0.359361	-0.722795	-0.293671	-0.512039
19375		9.889531	-2.439904	-2.258539	-0.531810	-0.064575	-1.110931	-0.502441	0.478271	0.398926	0.351200	-0.721931	-0.298266	-0.516247
19376		9.742582	-2.502580	-2.449123	-0.503127	-0.086979	-1.131889	-0.511719	0.473145	0.406738	0.343029	-0.720950	-0.303144	-0.520256
19377		9.780342	-2.506978	-2.313886	-0.462199	-0.094928	-1.155813	-0.526611	0.444824	0.414551	0.334944	-0.719749	-0.308332	-0.524124
19378		9.845282	-2.419501	-2.085302	-0.430925	-0.088210	-1.161729	-0.535156	0.434326	0.428711	0.327004	-0.718338	-0.313638	-0.527911
19379		9.822798	-2.255667	-1.900121	-0.418469	-0.079039	-1.146049	-0.531982	0.421143	0.437500	0.319198	-0.716818	-0.318846	-0.531621
19380		9.796280	-2.157182	-1.756993	-0.420890	-0.043395	-1.107549	-0.550293	0.408447	0.422607	0.311614	-0.715177	-0.323684	-0.535395
19381		9.657856	-2.262132	-1.898819	-0.437765	-0.003790	-1.069239	-0.556641	0.393311	0.437988	0.304180	-0.713438	-0.328083	-0.539299
19382		9.378899	-2.460877	-1.804893	-0.453370	0.058158	-1.005346	-0.563477	0.375000	0.445557	0.297085	-0.711571	-0.331843	-0.543404
19383		9.134542	-2.468538	-1.506746	-0.467545	0.094417	-0.929355	-0.568115	0.363037	0.448975	0.290331	-0.709729	-0.334968	-0.547530
19384		8.959763	-2.676746	-1.578903	-0.478381	0.170551	-0.816090	-0.574707	0.349365	0.443359	0.284227	-0.707832	-0.337163	-0.551824
19385		8.591102	-2.974209	-1.603375	-0.475000	0.255325	-0.685707	-0.577148	0.339355	0.448486	0.278968	-0.705864	-0.338380	-0.556266
19386		8.440136	-3.215809	-1.572894	-0.401409	0.306739	-0.531192	-0.583740	0.327148	0.448486	0.274996	-0.703892	-0.338890	-0.560417
19387		8.345573	-3.343434	-1.516664	-0.306131	0.300592	-0.356166	-0.590820	0.325684	0.452148	0.272382	-0.702205	-0.338816	-0.563844
19388		8.087465	-3.459084	-1.625480	-0.212200	0.266511	-0.193048	-0.592529	0.323975	0.456055	0.270989	-0.700917	-0.338297	-0.566424
19389		7.998309	-3.341677	-1.760533	-0.055194	0.182585	-0.042158	-0.593018	0.319092	0.449219	0.270993	-0.700093	-0.337819	-0.567724
19390		8.002686	-3.272851	-2.035067	0.145912	0.056502	0.086193	-0.594727	0.322998	0.437012	0.272428	-0.699774	-0.337822	-0.567429
19391		8.056714	-3.188673	-1.964840	0.361683	-0.062842	0.221135	-0.592529	0.322754	0.443359	0.275427	-0.699907	-0.338322	-0.565517
19392		8.259860	-3.220909	-1.741664	0.546284	-0.156559	0.374000	-0.589844	0.336914	0.437988	0.279958	-0.700475	-0.339003	-0.562171
19393		8.425762	-3.159676	-1.590797	0.676310	-0.224226	0.536331	-0.577148	0.344971	0.437256	0.285810	-0.701485	-0.339484	-0.557657
19394		8.554107	-3.117989	-1.453332	0.770398	-0.237943	0.712317	-0.581787	0.359131	0.438965	0.292978	-0.702786	-0.339379	-0.552338
19395		8.723625	-3.228102	-1.483099	0.829064	-0.228353	0.885130	-0.563232	0.368408	0.427734	0.301290	-0.704323	-0.338471	-0.546434
19396		8.742988	-3.575427	-1.607615	0.903701	-0.211102	1.041870	-0.566650	0.392578	0.418457	0.310771	-0.705950	-0.336895	-0.539960
19397		8.753625	-3.930370	-1.814631	0.999763	-0.214097	1.169846	-0.549561	0.406250	0.412598	0.321342	-0.707594	-0.334951	-0.532784
19398		8.879260	-4.161588	-1.899059	1.131084	-0.260443	1.267533	-0.544189	0.441406	0.403564	0.332937	-0.709231	-0.333070	-0.524604
19399		9.177618	-4.228267	-1.805826	1.280638	-0.305340	1.344695	-0.536133	0.456299	0.393066	0.345559	-0.710702	-0.331431	-0.515408
19400		9.601603	-4.305966	-1.775706	1.414023	-0.317091	1.416765	-0.520020	0.476562	0.382812	0.359161	-0.711847	-0.329879	-0.505428
19401		10.002854	-4.341149	-1.670324	1.503476	-0.266264	1.475245	-0.511475	0.502441	0.369141	0.373576	-0.712455	-0.328102	-0.495175
19402		10.417606	-4.111615	-1.331794	1.548966	-0.135894	1.524376	-0.492432	0.518311	0.353027	0.388704	-0.712284	-0.325705	-0.485259
19403		11.061765	-4.043228	-1.168883	1.485209	0.101697	1.577614	-0.473389	0.544678	0.330811	0.404189	-0.711265	-0.321855	-0.476595
19404		11.304015	-4.020024	-1.223105	1.323448	0.402831	1.634121	-0.463135	0.565674	0.308838	0.419618	-0.709511	-0.315906	-0.469806
19405		11.999447	-3.985067	-1.192645	1.235758	0.643264	1.693422	-0.450928	0.584717	0.288330	0.435258	-0.707042	-0.308317	-0.464310
19406		12.510717	-4.178489	-0.988999	1.135398	0.864228	1.734424	-0.437256	0.601074	0.269287	0.450882	-0.703939	-0.299189	-0.460067
19407		12.609026	-4.540354	-1.118477	1.115328	1.020355	1.825361	-0.424072	0.629883	0.237549	0.466957	-0.700273	-0.288752	-0.456280
19408		12.965493	-5.246276	-1.071370	1.234974	1.179129	1.962041	-0.398926	0.647217	0.221191	0.484433	-0.695557	-0.277233	-0.452402
19409		12.186322	-5.647924	-0.401375	1.321380	1.256099	2.205337	-0.388672	0.669189	0.187500	0.503246	-0.690401	-0.264172	-0.447552
19410		12.306950	-5.905026	0.122377	1.454826	1.187214	2.420753	-0.353027	0.686523	0.153564	0.523170	-0.684984	-0.250499	-0.440841
19411		11.929113	-6.390004	0.316997	1.477255	1.223710	2.552407	-0.321289	0.704590	0.127686	0.543422	-0.679139	-0.235825	-0.433415
19412		11.307208	-6.645658	-0.003775	1.454341	1.317933	2.602428	-0.293213	0.726318	0.098633	0.563512	-0.672660	-0.220188	-0.426029
19413		10.352201	-7.103592	-0.892261	1.418208	1.354786	2.583248	-0.264648	0.735352	0.068359	0.582979	-0.665685	-0.204196	-0.418692
19414		9.888951	-7.599154	-1.248120	1.488748	1.254887	2.524315	-0.226074	0.751709	0.036621	0.602037	-0.658134	-0.189116	-0.410665
19415		9.461534	-8.601338	-0.728485	1.521581	1.270577	2.426712	-0.184082	0.767090	0.010742	0.620542	-0.649753	-0.174475	-0.402874
19416		9.038410	-9.045763	0.134233	1.578127	1.273673	2.400638	-0.156738	0.777100	-0.011719	0.638838	-0.640587	-0.160029	-0.394873
19417		9.444901	-8.957498	0.798606	1.763087	1.248180	2.378697	-0.116211	0.781494	-0.053223	0.657562	-0.630039	-0.146331	-0.386328
19418		8.698005	-8.288411	1.176869	1.888989	1.258586	2.392917	-0.077637	0.781738	-0.076416	0.676515	-0.618320	-0.132801	-0.377321
19419		8.963090	-8.307702	1.404296	1.916941	1.291300	2.330398	-0.042725	0.785156	-0.112061	0.694937	-0.605804	-0.119398	-0.368521
19420		8.426259	-8.277242	1.539878	1.809453	1.478743	2.326462	-0.005371	0.790039	-0.136230	0.712461	-0.592875	-0.104512	-0.360521
19421		7.706614	-7.405025	2.846676	1.847649	1.515386	2.339183	0.041748	0.779541	-0.171631	0.729692	-0.579165	-0.089385	-0.352318
19422		8.025790	-7.333360	3.041343	1.806205	1.385606	2.283327	0.072510	0.772949	-0.199463	0.745910	-0.565610	-0.075131	-0.343598
19423		7.522900	-7.061248	2.735641	1.593873	1.418962	2.290564	0.113037	0.770996	-0.222168	0.760640	-0.552885	-0.059980	-0.334884
19424		7.179191	-7.214355	2.623632	1.514057	1.468800	2.301469	0.158936	0.760742	-0.246582	0.774536	-0.540156	-0.044206	-0.326146
19425		6.663407	-7.041001	2.857398	1.377349	1.457956	2.323315	0.206055	0.744385	-0.247070	0.787350	-0.527989	-0.028009	-0.317054
19426		6.356671	-6.657980	3.180356	1.181000	1.420823	2.301276	0.239746	0.740967	-0.274414	0.798733	-0.516871	-0.011623	-0.307792
19427		5.363669	-6.230010	3.733272	0.919946	1.432857	2.292707	0.286133	0.716064	-0.280518	0.808497	-0.507157	0.005476	-0.298486
19428		4.985659	-6.186954	3.584270	0.662052	1.428726	2.265224	0.316406	0.706299	-0.280518	0.816658	-0.498914	0.023063	-0.289174
19429		4.017983	-6.540919	3.105602	0.494428	1.442628	2.241704	0.355957	0.698486	-0.279785	0.823635	-0.491525	0.041033	-0.279901
19430		3.061792	-7.289589	2.580402	0.458161	1.399745	2.190518	0.398193	0.674072	-0.284180	0.829947	-0.484259	0.058557	-0.270652
19431		2.295695	-6.810972	2.981902	0.476868	1.279489	2.123379	0.427002	0.661621	-0.281006	0.835852	-0.476948	0.074907	-0.261267
19432		1.974172	-6.322249	3.200838	0.538974	1.119930	2.001979	0.453857	0.648438	-0.286133	0.841492	-0.469432	0.089495	-0.252024
19433		0.983622	-6.249698	3.100459	0.545712	0.965483	1.848380	0.478271	0.632080	-0.281982	0.846650	-0.462143	0.102351	-0.243170
19434		0.818830	-6.167348	3.108961	0.638566	0.840882	1.724394	0.501221	0.605225	-0.281982	0.851763	-0.454419	0.113630	-0.234717
19435		0.525121	-5.848040	3.026578	0.656096	0.756953	1.563743	0.529541	0.593262	-0.280029	0.856483	-0.446769	0.123641	-0.227041
19436		0.215743	-5.361420	2.973755	0.557618	0.698076	1.376060	0.558838	0.583984	-0.285400	0.860358	-0.440034	0.132692	-0.220336
19437		0.053998	-4.519453	3.002070	0.436869	0.588579	1.178404	0.574463	0.569580	-0.276611	0.863409	-0.434514	0.140433	-0.214478
19438		-0.437595	-4.018347	2.742731	0.314928	0.472514	0.960377	0.585693	0.557129	-0.289062	0.865669	-0.430288	0.146751	-0.209603
19439		-0.986152	-3.791632	2.715311	0.216063	0.350852	0.711094	0.591064	0.551514	-0.279785	0.867231	-0.427263	0.151461	-0.205954
19440		-1.119266	-3.685093	2.731706	0.138817	0.193191	0.486342	0.600586	0.546875	-0.281006	0.868301	-0.425335	0.154360	-0.203263
19441		-1.091962	-3.502861	2.956869	0.082637	-0.023443	0.224967	0.602051	0.538574	-0.284180	0.868998	-0.424512	0.154860	-0.201620
19442		-1.152580	-3.567200	3.022114	-0.006397	-0.157566	-0.073578	0.606689	0.539062	-0.282959	0.869049	-0.424942	0.153483	-0.201549
19443		-1.041276	-3.978042	2.914287	-0.095262	-0.285913	-0.344721	0.582275	0.542236	-0.285889	0.868487	-0.426573	0.150365	-0.202870
19444		-0.445294	-4.348980	3.251516	-0.214295	-0.408268	-0.568437	0.580078	0.552002	-0.284424	0.867255	-0.429541	0.145765	-0.205221
19445		-0.109206	-4.624321	3.202762	-0.374392	-0.443736	-0.758235	0.568115	0.559570	-0.282959	0.865125	-0.433936	0.140495	-0.208612
19446		0.079978	-4.526663	3.379292	-0.507349	-0.468881	-0.941276	0.550781	0.575195	-0.283691	0.862157	-0.439514	0.134602	-0.213059
19447		0.552583	-4.564850	3.310320	-0.637017	-0.514661	-1.136086	0.545166	0.589844	-0.286621	0.858321	-0.446273	0.127880	-0.218569
19448		0.768252	-5.026307	3.190246	-0.747717	-0.518610	-1.338440	0.525391	0.597656	-0.278320	0.853572	-0.453976	0.120557	-0.225359
19449		1.091722	-5.497386	3.163819	-0.853432	-0.592147	-1.524234	0.498535	0.625000	-0.276367	0.847970	-0.462661	0.112180	-0.233040
19450		1.735478	-5.688912	3.278881	-0.927768	-0.699089	-1.691132	0.475342	0.641357	-0.263672	0.841632	-0.472115	0.102516	-0.241358
19451		2.367437	-6.546753	3.596618	-1.005404	-0.762481	-1.855203	0.448975	0.652832	-0.261230	0.834442	-0.482230	0.091883	-0.250435
19452		2.266298	-7.145453	3.613731	-1.147397	-0.740994	-2.005695	0.424316	0.675537	-0.246582	0.826034	-0.493222	0.081052	-0.260443
19453		2.297321	-7.028685	3.418699	-1.272375	-0.767843	-2.115059	0.387207	0.693359	-0.235596	0.816531	-0.504993	0.069821	-0.270896
19454		2.907695	-7.234040	3.411545	-1.276684	-0.872327	-2.216474	0.354736	0.704834	-0.222656	0.806444	-0.516844	0.057425	-0.281467
19455		4.086514	-7.441894	3.790968	-1.253840	-0.958703	-2.343575	0.321777	0.730713	-0.205078	0.795769	-0.528531	0.043816	-0.292382
19456		4.115971	-9.090959	3.520182	-1.464441	-0.842863	-2.425013	0.287354	0.753418	-0.188232	0.783462	-0.541056	0.031099	-0.304103
19457		3.411446	-9.679213	2.563383	-1.464869	-0.887904	-2.455033	0.248535	0.760010	-0.173828	0.770605	-0.553374	0.017932	-0.315631
19458		4.270860	-9.068528	2.437032	-1.153222	-1.177451	-2.463540	0.197021	0.766113	-0.162354	0.758729	-0.564116	0.002036	-0.325730
19459		4.421117	-8.172547	2.959722	-0.845025	-1.423153	-2.514928	0.163574	0.781738	-0.148438	0.747693	-0.573229	-0.016494	-0.334801
19460		6.494083	-8.616816	3.107021	-0.734890	-1.511626	-2.632893	0.118164	0.779053	-0.145264	0.736352	-0.581513	-0.036437	-0.343950
19461		6.364729	-8.733445	2.686649	-0.960290	-1.391184	-2.609035	0.074463	0.784180	-0.123779	0.723524	-0.590449	-0.054858	-0.353374
19462		7.687925	-8.109402	2.711590	-0.977191	-1.441154	-2.528539	0.030273	0.795410	-0.108398	0.710346	-0.599280	-0.073100	-0.361840
19463		7.965714	-7.247535	3.332888	-0.921526	-1.507336	-2.417495	-0.010742	0.784180	-0.094238	0.697283	-0.607666	-0.091305	-0.369056
19464		9.448795	-8.134969	2.890503	-1.068238	-1.368212	-2.376411	-0.047119	0.796631	-0.072266	0.683280	-0.616132	-0.107990	-0.376626
19465		9.261788	-8.812135	2.127420	-1.444541	-1.077767	-2.257393	-0.085938	0.793213	-0.053223	0.667574	-0.625571	-0.121169	-0.385128
19466		8.949733	-7.839693	2.252009	-1.565723	-0.954579	-2.071955	-0.104248	0.775879	-0.027344	0.651582	-0.635127	-0.132243	-0.393150
19467		9.700132	-7.141072	2.156361	-1.461028	-1.026040	-1.983537	-0.135498	0.775391	0.002441	0.636017	-0.644117	-0.143513	-0.399998
19468		9.539981	-7.887269	1.891746	-1.595609	-0.947414	-1.927031	-0.165527	0.775391	0.030273	0.619695	-0.653304	-0.153545	-0.406935
19469		9.542683	-9.635379	0.982109	-1.780158	-0.688534	-1.861229	-0.197754	0.766357	0.053955	0.602614	-0.662323	-0.161181	-0.414978
19470		8.649941	-9.964731	0.679293	-1.828829	-0.347797	-1.684551	-0.211914	0.753662	0.086670	0.586051	-0.670334	-0.165886	-0.423884
19471		8.580831	-9.303471	1.064671	-1.571835	-0.258280	-1.558898	-0.242676	0.743164	0.108887	0.571263	-0.676686	-0.170290	-0.432154
19472		8.103795	-8.594708	0.933509	-1.264269	-0.335899	-1.461805	-0.254639	0.731934	0.132324	0.558275	-0.681781	-0.175568	-0.438952
19473		8.329961	-8.424577	0.959673	-0.952417	-0.429675	-1.403265	-0.272461	0.727051	0.147705	0.547005	-0.685689	-0.182045	-0.444383
19474		8.566677	-8.709412	1.038301	-0.923815	-0.324828	-1.323017	-0.293213	0.715576	0.156494	0.536247	-0.689061	-0.187651	-0.449913
19475		8.728772	-8.713104	0.180798	-0.970408	-0.169224	-1.191705	-0.305664	0.707764	0.166016	0.525867	-0.692139	-0.191595	-0.455741
19476		7.893112	-7.498456	-0.115109	-0.845403	-0.182071	-1.080963	-0.315186	0.695801	0.188721	0.516531	-0.694791	-0.195399	-0.460739
19477		8.187599	-6.818168	-0.214013	-0.546665	-0.322034	-1.070878	-0.335449	0.690430	0.198242	0.508677	-0.696628	-0.200866	-0.464339
19478		8.331996	-6.779674	0.271829	-0.381283	-0.340919	-1.046774	-0.338135	0.684082	0.205566	0.501794	-0.697806	-0.206891	-0.467402
19479		8.482504	-6.775402	0.097889	-0.344088	-0.277157	-0.962735	-0.353516	0.680908	0.204346	0.495525	-0.698665	-0.212285	-0.470380
19480		8.670708	-6.732022	0.096042	-0.389299	-0.121679	-0.848781	-0.358887	0.668457	0.223145	0.489683	-0.699253	-0.216178	-0.473838
19481		8.797593	-6.466087	0.026783	-0.512143	-0.005716	-0.704725	-0.371094	0.658936	0.218262	0.483878	-0.700104	-0.218258	-0.477577
19482		8.729580	-6.305151	-0.301148	-0.542840	0.077135	-0.547171	-0.381104	0.659912	0.230957	0.478651	-0.701002	-0.218950	-0.481196
19483		8.547590	-6.316028	-0.471572	-0.416743	0.067889	-0.422844	-0.395264	0.644287	0.241699	0.474630	-0.701638	-0.219448	-0.484018
19484		8.150678	-6.225641	-0.677104	-0.309895	0.039076	-0.328545	-0.391846	0.642578	0.237549	0.471553	-0.702126	-0.219933	-0.486093
19485		7.976084	-5.923991	-0.909702	-0.248149	-0.010195	-0.253263	-0.389160	0.641357	0.244141	0.469050	-0.702702	-0.220415	-0.487462
19486		7.912366	-5.593519	-1.136520	-0.142998	-0.084167	-0.211199	-0.395020	0.643311	0.250977	0.467197	-0.703240	-0.221364	-0.488035
19487		7.977974	-5.340165	-1.416928	-0.016654	-0.171330	-0.188274	-0.393066	0.645752	0.250488	0.466015	-0.703682	-0.223028	-0.487771
19488		8.162972	-5.150576	-1.245077	0.121613	-0.263300	-0.168614	-0.401123	0.640137	0.249512	0.465551	-0.703993	-0.225493	-0.486629
19489		8.230209	-5.043739	-1.098574	0.212800	-0.302718	-0.149276	-0.400391	0.634277	0.248535	0.465623	-0.704142	-0.228364	-0.485004
19490		8.294012	-4.884347	-1.094306	0.256716	-0.332989	-0.128026	-0.395020	0.638916	0.244141	0.465977	-0.704275	-0.231402	-0.483028
19491		8.536887	-4.682541	-1.069697	0.294022	-0.316887	-0.095897	-0.397705	0.637451	0.252930	0.466704	-0.704251	-0.234334	-0.480942
19492		8.801203	-4.426779	-0.922062	0.254942	-0.283689	-0.053656	-0.392090	0.639160	0.247559	0.467431	-0.704321	-0.236730	-0.478957
19493		9.018047	-4.133014	-0.594920	0.212934	-0.253369	-0.019957	-0.400635	0.644043	0.243408	0.468101	-0.704493	-0.238640	-0.477097
19494		9.164644	-3.994077	-0.591468	0.133628	-0.195017	-0.003894	-0.395996	0.635742	0.255859	0.468484	-0.704770	-0.239911	-0.475673
19495		9.183052	-3.886565	-0.886431	0.008732	-0.112838	0.016596	-0.405762	0.644531	0.246094	0.468378	-0.705246	-0.240246	-0.474902
19496		9.184225	-3.705388	-1.295431	-0.077727	-0.076435	0.026983	-0.387939	0.643066	0.242188	0.467876	-0.705936	-0.240036	-0.474477
19497		9.036858	-3.654488	-1.452444	-0.124881	-0.065796	0.033999	-0.401855	0.638916	0.242676	0.467145	-0.706781	-0.239558	-0.474182
19498		9.077869	-3.704481	-1.437846	-0.171126	-0.067164	0.012824	-0.397949	0.638916	0.263916	0.466052	-0.707767	-0.239028	-0.474053
19499		9.042822	-3.714798	-1.218439	-0.189706	-0.059250	-0.017474	-0.400879	0.637695	0.255127	0.464743	-0.708733	-0.238573	-0.474125
19500		8.961878	-3.741215	-1.347080	-0.202883	-0.071400	-0.050113	-0.396973	0.639404	0.261475	0.463201	-0.709730	-0.238307	-0.474276
19501		9.029267	-3.638413	-1.512774	-0.180014	-0.094844	-0.088183	-0.398193	0.634521	0.261475	0.461595	-0.710653	-0.238446	-0.474390
19502		9.268668	-3.389352	-1.495337	-0.175897	-0.115012	-0.134120	-0.398193	0.623291	0.266113	0.459788	-0.711546	-0.238952	-0.474551
19503		9.329858	-3.075249	-1.517875	-0.198784	-0.080219	-0.179552	-0.398682	0.631836	0.270508	0.457732	-0.712296	-0.239504	-0.475136
19504		9.316982	-2.851978	-1.542952	-0.346162	-0.046645	-0.228286	-0.393066	0.626953	0.272949	0.454669	-0.713371	-0.239633	-0.476398
19505		9.261732	-2.859048	-1.477895	-0.480765	-0.021528	-0.290434	-0.409180	0.620850	0.277832	0.450599	-0.714719	-0.239500	-0.478306
19506		9.335040	-3.026153	-1.559561	-0.525665	-0.004481	-0.355888	-0.407959	0.619873	0.292725	0.446021	-0.716019	-0.239510	-0.480641
19507		9.450515	-3.106144	-1.663192	-0.490193	-0.040774	-0.433284	-0.415527	0.616211	0.299561	0.441259	-0.717158	-0.240254	-0.482963
19508		9.418933	-2.870918	-2.053187	-0.499956	-0.051307	-0.509315	-0.409668	0.614990	0.303955	0.436095	-0.718198	-0.241446	-0.485507
19509		9.548700	-2.710828	-2.100248	-0.503810	-0.074376	-0.592173	-0.414795	0.591797	0.313965	0.430507	-0.719152	-0.243194	-0.488203
19510		9.638412	-2.680220	-2.006065	-0.525121	-0.109493	-0.677603	-0.433350	0.599121	0.310303	0.424350	-0.720117	-0.245484	-0.491015
19511		9.606198	-2.726552	-1.982993	-0.542949	-0.128614	-0.749784	-0.437500	0.584961	0.314697	0.417725	-0.721036	-0.248190	-0.493978
19512		9.468616	-2.577232	-1.781297	-0.517136	-0.109411	-0.811400	-0.447021	0.574463	0.332031	0.411014	-0.721613	-0.251291	-0.497187
19513		9.735707	-2.302533	-1.728166	-0.527291	-0.081012	-0.869577	-0.451660	0.567871	0.337646	0.404031	-0.721935	-0.254587	-0.500753
19514		9.888418	-2.294083	-1.981207	-0.567333	-0.084318	-0.946481	-0.464111	0.552979	0.339844	0.396445	-0.722186	-0.258171	-0.504606
19515		9.962447	-2.313032	-2.302852	-0.553748	-0.101350	-1.009464	-0.473145	0.534180	0.352051	0.388603	-0.722262	-0.262226	-0.508490
19516		10.149002	-2.273657	-2.197666	-0.513041	-0.125973	-1.052431	-0.479004	0.529785	0.362061	0.380732	-0.722149	-0.266769	-0.512229
19517		10.239211	-2.092336	-1.912263	-0.525693	-0.121211	-1.073578	-0.490723	0.515625	0.374756	0.372666	-0.721937	-0.271344	-0.516042
19518		10.415900	-1.920899	-1.789598	-0.578847	-0.074730	-1.077240	-0.493652	0.493652	0.384033	0.364331	-0.721608	-0.275541	-0.520213
19519		10.371311	-1.876065	-1.838184	-0.665725	-0.006376	-1.088642	-0.511230	0.479980	0.390625	0.355541	-0.721140	-0.279194	-0.524974
19520		10.441677	-1.739052	-1.930921	-0.691034	0.049988	-1.102763	-0.513428	0.476074	0.393555	0.346626	-0.720384	-0.282622	-0.530115
19521		10.327334	-1.726702	-2.115527	-0.712109	0.097010	-1.115788	-0.528564	0.461182	0.408936	0.337596	-0.719362	-0.285866	-0.535562
19522		10.002636	-1.931122	-2.186737	-0.733592	0.109959	-1.138372	-0.534912	0.438477	0.412842	0.328325	-0.718199	-0.289078	-0.541135
19523		9.477647	-2.410256	-2.133563	-0.681191	0.107475	-1.144185	-0.551025	0.427979	0.418213	0.319294	-0.716799	-0.292530	-0.546514
19524		9.313976	-2.686545	-1.827215	-0.568513	0.074447	-1.130567	-0.553711	0.408447	0.418945	0.310881	-0.715198	-0.296466	-0.551319
19525		9.220271	-2.829838	-1.604049	-0.451948	0.090996	-1.103964	-0.560547	0.386963	0.426758	0.303296	-0.713210	-0.300703	-0.555806
19526		9.231133	-2.777697	-1.364765	-0.412086	0.117331	-1.067449	-0.566162	0.379883	0.441162	0.296157	-0.711024	-0.304809	-0.560203
19527		9.210964	-2.694310	-1.383322	-0.420304	0.124689	-1.011793	-0.577881	0.364258	0.436035	0.289225	-0.708902	-0.308500	-0.564478
19528		9.025249	-2.841799	-1.458019	-0.394046	0.146942	-0.924574	-0.582275	0.350830	0.442871	0.282897	-0.706782	-0.311717	-0.568561
19529		8.728623	-3.069492	-1.437674	-0.328066	0.177787	-0.810361	-0.592529	0.342529	0.433594	0.277565	-0.704612	-0.314479	-0.572348
19530		8.515374	-3.274092	-1.206956	-0.246171	0.200748	-0.681837	-0.595947	0.323486	0.439941	0.273378	-0.702449	-0.316805	-0.575729
19531		8.553054	-3.204934	-1.170220	-0.167921	0.178198	-0.519852	-0.596436	0.319336	0.433594	0.270364	-0.700623	-0.318596	-0.578384
19532		8.574687	-3.058559	-1.318558	-0.093083	0.171116	-0.354848	-0.603516	0.321533	0.444336	0.268564	-0.699090	-0.319790	-0.580415
19533		8.563889	-3.157147	-1.350214	-0.013341	0.147655	-0.191563	-0.603760	0.315186	0.443115	0.267958	-0.697923	-0.320464	-0.581726
19534		8.380190	-3.258884	-1.407060	0.113963	0.096176	-0.014212	-0.604248	0.312744	0.440186	0.268819	-0.697195	-0.320834	-0.581998
19535		8.282059	-3.471685	-1.431659	0.266321	0.008052	0.158483	-0.602783	0.316650	0.437500	0.271170	-0.697013	-0.321131	-0.580960
19536		8.217464	-3.582663	-1.498985	0.442846	-0.077365	0.326501	-0.595459	0.330811	0.430908	0.275134	-0.697288	-0.321491	-0.578563
19537		8.306630	-3.668971	-1.365297	0.610026	-0.146606	0.498269	-0.591797	0.333496	0.424316	0.280708	-0.697951	-0.321802	-0.574900
19538		8.396324	-3.742311	-1.313345	0.723272	-0.177744	0.677080	-0.586182	0.348389	0.417480	0.287702	-0.698939	-0.321666	-0.570300
19539		8.621518	-3.844102	-1.287893	0.803992	-0.207355	0.842500	-0.586914	0.358398	0.415771	0.295855	-0.700260	-0.320989	-0.564864
19540		8.785228	-3.846347	-1.455806	0.874861	-0.208064	0.989647	-0.579590	0.385986	0.400879	0.305085	-0.701726	-0.319749	-0.558807
19541		8.961853	-3.713148	-1.458849	0.938512	-0.204756	1.129714	-0.569824	0.392578	0.403564	0.315310	-0.703290	-0.317928	-0.552164
19542		9.068530	-3.780736	-1.492308	0.986952	-0.207912	1.261728	-0.555176	0.412842	0.393799	0.326369	-0.704972	-0.315508	-0.544933
19543		9.153095	-3.885814	-1.606601	1.018007	-0.193870	1.389507	-0.544189	0.434814	0.384033	0.338169	-0.706703	-0.312375	-0.537247
19544		9.304210	-3.988189	-1.521360	1.067826	-0.153367	1.517424	-0.539307	0.461426	0.371338	0.350867	-0.708285	-0.308523	-0.529186
19545		9.388555	-4.156894	-1.421863	1.133435	-0.122368	1.635914	-0.525391	0.481201	0.360596	0.364467	-0.709658	-0.304087	-0.520655
19546		9.488090	-4.426637	-1.328342	1.190435	-0.055476	1.724653	-0.502930	0.509521	0.342773	0.378854	-0.710582	-0.299079	-0.511951
19547		10.057980	-5.149762	-1.544582	1.216775	0.054498	1.802137	-0.485840	0.534668	0.332031	0.393885	-0.710919	-0.293278	-0.503425
19548		10.647180	-5.418369	-1.623222	1.262657	0.143949	1.852276	-0.469971	0.553467	0.322021	0.409485	-0.710608	-0.286976	-0.494978
19549		11.333279	-5.303878	-1.560330	1.310425	0.282312	1.891093	-0.449951	0.578857	0.303711	0.425712	-0.709395	-0.280061	-0.486922
19550		11.501296	-5.140001	-1.191341	1.338424	0.435798	1.936571	-0.440674	0.606201	0.277100	0.442483	-0.707289	-0.272336	-0.479358
19551		11.957476	-4.924349	-0.792851	1.345052	0.551899	2.029324	-0.415039	0.633301	0.258301	0.459744	-0.704605	-0.263547	-0.471922
19552		12.039448	-4.864738	-0.833831	1.414015	0.716261	2.172887	-0.395996	0.637451	0.226807	0.478122	-0.700990	-0.253437	-0.464523
19553		11.837507	-5.254544	-1.027032	1.584098	0.896101	2.323018	-0.373291	0.676270	0.201172	0.498179	-0.695925	-0.242243	-0.456972
19554		11.587338	-5.869973	-0.692776	1.674002	0.985957	2.467788	-0.349609	0.684814	0.165039	0.519178	-0.689979	-0.230036	-0.448850
19555		12.000694	-6.378785	-0.465080	1.679761	0.938944	2.587243	-0.314697	0.709473	0.136475	0.540188	-0.683925	-0.217197	-0.439624
19556		12.336944	-6.582233	-0.237709	1.680294	0.940409	2.693735	-0.279297	0.729980	0.114258	0.561189	-0.677544	-0.203586	-0.429597
19557		12.225942	-7.066594	-0.193891	1.633951	1.023980	2.762659	-0.244629	0.743164	0.083496	0.581874	-0.670669	-0.188871	-0.419469
19558		11.995449	-7.231071	-0.199145	1.545906	1.164690	2.781314	-0.200439	0.750732	0.045898	0.601887	-0.663221	-0.172915	-0.409842
19559		11.084605	-7.253618	-0.538864	1.411624	1.364197	2.786694	-0.160156	0.776367	0.017334	0.620973	-0.655238	-0.155335	-0.401157
19560		10.486740	-7.336945	-0.580322	1.256341	1.397725	2.730361	-0.126709	0.784912	-0.006592	0.638572	-0.647356	-0.137251	-0.392832
19561		9.541936	-7.665267	-0.109358	0.999533	1.377371	2.682610	-0.099121	0.782715	-0.020020	0.654132	-0.640379	-0.118596	-0.384657
19562		8.832490	-8.284654	0.157790	0.876815	1.371757	2.662229	-0.042480	0.797119	-0.033691	0.668508	-0.633627	-0.099608	-0.376420
19563		7.290920	-8.110767	0.924408	0.979410	1.256851	2.635428	-0.000488	0.803955	-0.051270	0.682794	-0.626219	-0.081661	-0.367388
19564		7.754156	-8.962957	1.527805	1.327179	1.046114	2.531434	0.034668	0.802734	-0.075928	0.697983	-0.616999	-0.066468	-0.357372
19565		6.999108	-9.400483	2.423210	1.545791	1.023519	2.450811	0.074219	0.793701	-0.103760	0.713585	-0.606128	-0.052431	-0.347355
19566		6.731638	-9.324816	3.130898	1.687680	1.015339	2.421934	0.115234	0.791260	-0.120605	0.729338	-0.594019	-0.038967	-0.337177
19567		6.972682	-9.024112	3.485461	1.669110	0.964217	2.470088	0.156982	0.780518	-0.149902	0.744619	-0.581777	-0.025498	-0.326231
19568		6.459498	-8.027093	3.739723	1.581701	1.053340	2.520738	0.197998	0.771484	-0.166992	0.759118	-0.569445	-0.010979	-0.315200
19569		6.171610	-7.461318	3.548421	1.349273	1.194296	2.511267	0.235840	0.759521	-0.187256	0.771985	-0.557824	0.004999	-0.304708
19570		5.507737	-6.972686	3.211686	0.927562	1.321082	2.489503	0.282715	0.750488	-0.190674	0.782335	-0.548238	0.022755	-0.294736
19571		4.933118	-6.924426	2.749396	0.699479	1.334895	2.470902	0.313477	0.734863	-0.195557	0.791125	-0.539781	0.041056	-0.284731
19572		4.010087	-7.131737	2.348413	0.500916	1.373498	2.458330	0.368896	0.713135	-0.198486	0.798521	-0.532236	0.059998	-0.274754
19573		2.875739	-7.268816	1.956840	0.550214	1.300494	2.394285	0.393799	0.705566	-0.207520	0.805581	-0.524269	0.078019	-0.264752
19574		2.230356	-6.878369	2.107295	0.750353	1.089221	2.289248	0.428467	0.683838	-0.208740	0.813006	-0.515229	0.093680	-0.254528
19575		2.314142	-6.462626	2.993473	0.930815	0.849714	2.148520	0.468018	0.674072	-0.211914	0.820719	-0.505350	0.106686	-0.244254
19576		1.901229	-6.525643	2.961361	0.895216	0.766774	1.995023	0.494385	0.646240	-0.214111	0.827712	-0.495817	0.118506	-0.234551
19577		1.697641	-6.163718	2.470753	0.859636	0.711761	1.855536	0.517822	0.638428	-0.219238	0.834049	-0.486603	0.129395	-0.225468
19578		1.253988	-5.856995	2.293405	0.862499	0.550808	1.717331	0.540283	0.613037	-0.227783	0.840059	-0.477676	0.138558	-0.216629
19579		0.636853	-5.548154	2.412973	0.860101	0.457640	1.567216	0.562012	0.593262	-0.238037	0.845678	-0.468987	0.146439	-0.208412
19580		0.636403	-4.338487	2.829303	0.771693	0.425969	1.403256	0.581055	0.578613	-0.239014	0.850524	-0.461077	0.153576	-0.201075
19581		-0.043420	-3.366277	3.266267	0.543683	0.431493	1.145705	0.599365	0.572754	-0.238281	0.853921	-0.455031	0.160119	-0.195262
19582		-0.711133	-3.128750	3.049257	0.184293	0.403243	0.873652	0.610596	0.553467	-0.238770	0.855469	-0.451907	0.165999	-0.190780
19583		-1.479415	-3.537910	2.484957	-0.185705	0.340446	0.607635	0.611328	0.551514	-0.235352	0.855245	-0.451862	0.171008	-0.187436
19584		-2.097231	-4.218996	2.267723	-0.337147	0.205683	0.316844	0.623047	0.542236	-0.233887	0.854166	-0.453509	0.174196	-0.185436
19585		-2.232368	-4.942733	2.134184	-0.248884	-0.045868	-0.002626	0.622070	0.554932	-0.226807	0.853281	-0.455375	0.174250	-0.184883
19586		-2.000749	-5.438933	2.080862	-0.092704	-0.229115	-0.319456	0.606201	0.553467	-0.223633	0.852760	-0.456870	0.171560	-0.186111
19587		-1.689496	-4.953134	1.686391	0.017149	-0.364551	-0.614979	0.606445	0.557373	-0.231201	0.852372	-0.458207	0.166611	-0.189074
19588		-0.886672	-3.600209	2.328104	0.034014	-0.518952	-0.897758	0.598389	0.574463	-0.238525	0.851770	-0.460037	0.159452	-0.193468
19589		0.228519	-3.022765	2.918342	-0.249960	-0.630836	-1.157824	0.584229	0.593018	-0.234131	0.849723	-0.464362	0.150944	-0.198883
19590		1.363277	-3.318417	3.242598	-0.636605	-0.579912	-1.358425	0.561279	0.593506	-0.229248	0.845656	-0.471521	0.142637	-0.205398
19591		1.706320	-4.449936	2.836450	-0.986287	-0.485086	-1.497989	0.541260	0.617432	-0.228271	0.839687	-0.481048	0.135016	-0.212813
19592		1.760946	-5.338059	2.558192	-1.213484	-0.444546	-1.614414	0.517090	0.628662	-0.219238	0.832330	-0.492095	0.127575	-0.220895
19593		1.741592	-6.306620	2.347862	-1.358400	-0.446771	-1.745600	0.499023	0.652344	-0.209961	0.823867	-0.504132	0.119803	-0.229653
19594		1.827667	-7.404934	2.391870	-1.412969	-0.429100	-1.922492	0.466064	0.666504	-0.187012	0.814504	-0.516497	0.111465	-0.239560
19595		2.079582	-8.414562	2.679945	-1.309184	-0.460939	-2.095663	0.436035	0.688232	-0.166748	0.804925	-0.528166	0.101910	-0.250500
19596		2.269886	-8.422387	3.179007	-1.257635	-0.530924	-2.250798	0.410889	0.718994	-0.156982	0.794937	-0.539526	0.091046	-0.262103
19597		2.692431	-8.283815	3.045823	-1.250289	-0.614339	-2.428713	0.375000	0.722656	-0.150146	0.784247	-0.550879	0.078766	-0.274381
19598		3.387212	-9.130364	2.566487	-1.286852	-0.622327	-2.619306	0.329834	0.736816	-0.126709	0.772502	-0.562294	0.065594	-0.287685
19599		3.584677	-9.499596	2.706119	-1.260387	-0.626791	-2.715955	0.295654	0.761719	-0.108398	0.760160	-0.573249	0.051833	-0.301424
19600		4.486255	-10.114358	2.552090	-1.179170	-0.705828	-2.775147	0.243164	0.774170	-0.092041	0.747589	-0.583536	0.037050	-0.314996
19601		3.887830	-10.498373	2.032142	-1.084087	-0.870392	-2.748519	0.209717	0.782959	-0.077393	0.735104	-0.593270	0.021094	-0.327424
19602		4.247723	-10.104012	2.099297	-0.764659	-1.255537	-2.711718	0.161865	0.797363	-0.073486	0.723880	-0.601703	0.002076	-0.337562
19603		5.290375	-10.002172	2.296467	-0.552586	-1.493896	-2.699388	0.119141	0.800049	-0.062744	0.713270	-0.609123	-0.018916	-0.346205
19604		6.305566	-8.941833	3.322857	-0.440262	-1.590439	-2.615346	0.077637	0.799072	-0.058838	0.702975	-0.615758	-0.040367	-0.353607
19605		7.920083	-9.120509	3.330458	-0.584731	-1.499344	-2.558229	0.043213	0.796387	-0.049072	0.691682	-0.622590	-0.060541	-0.360962
19606		6.392619	-8.589189	2.904850	-0.856171	-1.337798	-2.379105	-0.003906	0.797852	-0.035400	0.679183	-0.630213	-0.078006	-0.368044
19607		7.702358	-7.317600	2.906199	-0.895700	-1.484683	-2.203543	-0.028076	0.796875	-0.020996	0.666541	-0.638273	-0.095215	-0.373182
19608		8.348712	-7.332127	2.765222	-1.068918	-1.439310	-2.090846	-0.062988	0.791016	-0.002441	0.653006	-0.646897	-0.110985	-0.377876
19609		8.803884	-9.665302	1.115822	-1.430876	-1.022036	-2.057641	-0.100586	0.788086	0.024414	0.637670	-0.655870	-0.123111	-0.384780
19610		7.383630	-9.637328	0.058672	-1.538475	-0.555324	-1.927833	-0.128418	0.784912	0.054932	0.622335	-0.663739	-0.131643	-0.393473
19611		8.895836	-8.311862	1.145841	-1.041887	-0.680194	-1.853491	-0.144531	0.773193	0.066162	0.609606	-0.669262	-0.141986	-0.400387
19612		9.397228	-7.955991	1.474720	-1.018431	-0.657621	-1.767967	-0.174805	0.764893	0.088135	0.597118	-0.674467	-0.151770	-0.406830
19613		8.702456	-7.119479	1.525752	-1.335128	-0.531898	-1.614812	-0.187988	0.754395	0.109863	0.583335	-0.680796	-0.158945	-0.413490
19614		9.718386	-7.769626	0.910175	-1.756815	-0.232982	-1.583690	-0.217773	0.743164	0.136719	0.567455	-0.687938	-0.162981	-0.422105
19615		9.242397	-8.671569	-0.613868	-1.998227	0.162733	-1.522508	-0.247803	0.742432	0.165283	0.550708	-0.694624	-0.163877	-0.432853
19616		8.011143	-8.528136	-0.692696	-1.709806	0.270200	-1.429956	-0.259766	0.724609	0.185547	0.535893	-0.699451	-0.164719	-0.443232
19617		7.897389	-7.982232	-0.333523	-1.186530	-0.028715	-1.328950	-0.277588	0.719482	0.199951	0.523939	-0.702984	-0.168190	-0.450571
19618		7.951930	-7.602616	-0.278040	-0.783566	-0.352508	-1.212728	-0.285400	0.708496	0.214844	0.514231	-0.706004	-0.173872	-0.454854
19619		7.545732	-7.673218	-0.388809	-0.545283	-0.535198	-1.113813	-0.301270	0.694092	0.218506	0.505966	-0.708740	-0.180632	-0.457229
19620		7.723569	-7.562742	-0.329714	-0.432378	-0.550429	-1.032161	-0.315918	0.684570	0.230713	0.498598	-0.711098	-0.187379	-0.458943
19621		8.186036	-6.996479	-0.264122	-0.418399	-0.452027	-0.977209	-0.328613	0.684326	0.245850	0.491630	-0.713036	-0.193423	-0.460942
19622		8.515228	-6.365884	-0.410851	-0.393412	-0.375115	-0.941554	-0.330078	0.673340	0.253906	0.485031	-0.714571	-0.199016	-0.463170
19623		8.638911	-6.162434	-0.540579	-0.317221	-0.373052	-0.894560	-0.347656	0.659668	0.259033	0.479034	-0.715812	-0.204599	-0.465058
19624		8.599640	-6.242077	-0.636114	-0.214409	-0.411801	-0.820396	-0.352783	0.656982	0.261963	0.473842	-0.716871	-0.210277	-0.466211
19625		8.506422	-6.133166	-0.795966	-0.210318	-0.379600	-0.702752	-0.356201	0.651367	0.270752	0.469164	-0.717956	-0.215127	-0.467060
19626		8.387065	-5.993626	-0.716189	-0.316095	-0.278603	-0.571172	-0.357910	0.653809	0.281494	0.464529	-0.719267	-0.218373	-0.468167
19627		8.278522	-6.157903	-1.114877	-0.388276	-0.137535	-0.432155	-0.368408	0.642090	0.286621	0.460248	-0.720539	-0.219950	-0.469699
19628		8.287688	-6.208866	-1.340080	-0.300339	-0.058996	-0.325941	-0.371826	0.642578	0.294922	0.457049	-0.721347	-0.220925	-0.471123
19629		8.316778	-6.174186	-1.466113	-0.148048	-0.081207	-0.252094	-0.380615	0.637451	0.289062	0.455011	-0.721792	-0.222135	-0.471845
19630		8.236558	-6.147150	-1.324760	0.030039	-0.149395	-0.223678	-0.383789	0.636475	0.294189	0.454030	-0.721878	-0.224128	-0.471715
19631		8.368592	-5.805106	-0.969183	0.102066	-0.200850	-0.182643	-0.385254	0.631836	0.294189	0.453546	-0.721968	-0.226350	-0.470982
19632		8.603339	-5.354888	-0.885787	0.145751	-0.194625	-0.128871	-0.379395	0.634521	0.291260	0.453548	-0.721965	-0.228392	-0.469997
19633		8.685638	-5.087107	-0.797159	0.198945	-0.166859	-0.077296	-0.381836	0.630859	0.291016	0.454124	-0.721747	-0.230225	-0.468880
19634		8.719164	-4.891077	-0.891241	0.176690	-0.143150	-0.014573	-0.386230	0.638428	0.287354	0.454857	-0.721637	-0.231502	-0.467710
19635		8.722617	-4.765174	-1.267405	0.177004	-0.126611	0.041941	-0.377930	0.633057	0.283691	0.455843	-0.721567	-0.232376	-0.466422
19636		8.720432	-4.511172	-1.714832	0.187362	-0.087209	0.089795	-0.378174	0.630371	0.285156	0.457153	-0.721394	-0.232852	-0.465168
19637		8.863515	-4.207501	-1.387660	0.171377	-0.022699	0.105657	-0.374512	0.639648	0.282471	0.458551	-0.721062	-0.232924	-0.464271
19638		9.011281	-4.093314	-1.098718	0.106548	-0.004064	0.109146	-0.373047	0.640381	0.282227	0.459609	-0.720909	-0.232652	-0.463597
19639		8.926254	-3.995813	-1.349674	0.025577	0.054747	0.120078	-0.374756	0.643555	0.281982	0.460335	-0.720859	-0.231778	-0.463392
19640		8.857720	-3.837013	-1.475440	0.006317	0.067788	0.110336	-0.377930	0.640137	0.284180	0.460932	-0.720813	-0.230837	-0.463340
19641		8.877738	-3.743122	-1.621571	0.014696	0.048887	0.092687	-0.367676	0.640381	0.281494	0.461474	-0.720772	-0.230109	-0.463227
19642		8.929506	-3.633084	-1.635046	-0.000158	0.049066	0.068716	-0.373291	0.646729	0.278076	0.461833	-0.720742	-0.229467	-0.463235
19643		8.886580	-3.715400	-1.574271	-0.053047	0.096424	0.050055	-0.363281	0.648926	0.282715	0.461890	-0.720696	-0.228552	-0.463701
19644		8.980332	-3.667111	-1.546846	-0.112116	0.126897	0.023577	-0.366943	0.643799	0.283203	0.461547	-0.720708	-0.227451	-0.464565
19645		8.889564	-3.640628	-1.698457	-0.190818	0.137771	0.001255	-0.379150	0.640625	0.280518	0.460663	-0.720935	-0.226138	-0.465728
19646		8.975656	-3.662184	-1.654917	-0.237332	0.138462	-0.028023	-0.369873	0.645264	0.283691	0.459384	-0.721281	-0.224819	-0.467094
19647		8.970079	-3.593654	-1.672510	-0.281171	0.141427	-0.062636	-0.376221	0.646729	0.282959	0.457708	-0.721713	-0.223525	-0.468690
19648		9.055295	-3.382483	-1.661250	-0.338674	0.141128	-0.116133	-0.388916	0.643555	0.291260	0.455471	-0.722260	-0.222329	-0.470592
19649		9.052071	-3.232388	-1.854803	-0.391281	0.145470	-0.183657	-0.380371	0.647217	0.291016	0.452654	-0.722855	-0.221315	-0.472869
19650		9.027647	-3.230517	-1.964235	-0.436860	0.107910	-0.247976	-0.378662	0.627686	0.300537	0.449230	-0.723640	-0.220649	-0.475239
19651		9.182692	-3.314244	-1.908993	-0.450072	0.038615	-0.315621	-0.383301	0.630127	0.306641	0.445320	-0.724611	-0.220595	-0.477460
19652		9.249763	-3.310817	-2.065608	-0.479038	0.026317	-0.372817	-0.383545	0.623535	0.313232	0.440972	-0.725615	-0.220813	-0.479862
19653		9.149179	-3.229759	-2.044304	-0.516715	0.032805	-0.427536	-0.392822	0.619385	0.316650	0.436176	-0.726612	-0.221183	-0.482560
19654		9.271656	-3.162894	-1.971239	-0.533874	0.017886	-0.501890	-0.405762	0.609131	0.324951	0.430933	-0.727568	-0.221982	-0.485453
19655		9.385445	-3.027815	-1.969620	-0.563237	0.052979	-0.563932	-0.401611	0.605225	0.327148	0.425306	-0.728344	-0.222905	-0.488817
19656		9.495377	-3.057015	-1.853606	-0.583927	0.044627	-0.622704	-0.411621	0.589844	0.343506	0.419277	-0.729084	-0.224121	-0.492355
19657		9.445161	-3.147238	-1.918109	-0.633349	0.047075	-0.667216	-0.416260	0.583740	0.342773	0.412746	-0.729862	-0.225385	-0.496129
19658		9.470574	-3.189000	-1.961674	-0.634304	0.044250	-0.725090	-0.422852	0.572266	0.356934	0.405937	-0.730502	-0.226993	-0.500056
19659		9.480365	-3.116072	-1.990310	-0.622684	0.028929	-0.794828	-0.433105	0.569092	0.356934	0.398851	-0.730984	-0.229112	-0.504071
19660		9.509258	-2.970010	-2.098950	-0.596458	0.033263	-0.873735	-0.443359	0.552979	0.367920	0.391571	-0.731156	-0.231791	-0.508287
19661		9.528349	-3.081881	-2.177662	-0.563862	0.006118	-0.947618	-0.455566	0.550781	0.374756	0.384092	-0.731135	-0.235128	-0.512474
19662		9.630477	-3.103896	-2.281663	-0.503064	-0.043888	-1.011430	-0.461914	0.532227	0.391846	0.376579	-0.730944	-0.239254	-0.516397
19663		9.583973	-3.119406	-2.151724	-0.429480	-0.080024	-1.072321	-0.469727	0.515381	0.383789	0.369145	-0.730491	-0.244159	-0.520097
19664		9.707942	-3.214915	-1.955074	-0.380845	-0.102268	-1.126143	-0.475830	0.510010	0.394775	0.361694	-0.729804	-0.249648	-0.523678
19665		9.798049	-3.202775	-1.914120	-0.358643	-0.101558	-1.181038	-0.490723	0.494629	0.404053	0.354103	-0.728859	-0.255539	-0.527329
19666		9.788780	-2.809376	-1.953203	-0.354960	-0.116805	-1.223206	-0.498779	0.477783	0.401123	0.346278	-0.727800	-0.261718	-0.530944
19667		9.704665	-2.791762	-1.977307	-0.311207	-0.146878	-1.246660	-0.508545	0.467529	0.418213	0.338511	-0.726613	-0.268289	-0.534289
19668		9.502817	-3.044204	-1.913880	-0.243891	-0.158141	-1.263722	-0.522949	0.450928	0.429443	0.331011	-0.725164	-0.275263	-0.537400
19669		9.628161	-2.926932	-1.632038	-0.174054	-0.145195	-1.251979	-0.535156	0.439941	0.418945	0.323980	-0.723408	-0.282411	-0.540335
19670		9.558429	-2.455951	-1.385542	-0.154046	-0.129784	-1.222123	-0.540039	0.422363	0.419922	0.317207	-0.721520	-0.289394	-0.543175
19671		9.544108	-2.240919	-1.433074	-0.146315	-0.121494	-1.175817	-0.548340	0.406250	0.432861	0.310679	-0.719612	-0.296081	-0.545869
19672		9.439391	-2.256629	-1.296854	-0.196930	-0.044398	-1.103684	-0.551758	0.395264	0.434082	0.304339	-0.717595	-0.301877	-0.548912
19673		9.061805	-2.383107	-1.206844	-0.262128	0.052817	-1.011589	-0.561035	0.382568	0.438232	0.298252	-0.715472	-0.306552	-0.552423
19674		8.916977	-2.735256	-1.338654	-0.317153	0.139478	-0.882977	-0.567383	0.370117	0.444824	0.292633	-0.713365	-0.309967	-0.556234
19675		8.734851	-3.079802	-1.371873	-0.286612	0.215854	-0.729668	-0.571777	0.362061	0.440674	0.288091	-0.711188	-0.312408	-0.560015
19676		8.444235	-3.325022	-1.374063	-0.209885	0.236404	-0.565869	-0.582764	0.352051	0.437012	0.284815	-0.709131	-0.314171	-0.563303
19677		8.335475	-3.533122	-1.301996	-0.114159	0.234153	-0.396474	-0.584961	0.343262	0.439209	0.282891	-0.707286	-0.315378	-0.565911
19678		8.025949	-3.701222	-1.554935	-0.009090	0.191351	-0.212445	-0.598389	0.348145	0.428223	0.282344	-0.705873	-0.316090	-0.567549
19679		7.873198	-3.790195	-1.758011	0.138612	0.120466	-0.032197	-0.578857	0.350586	0.441650	0.283335	-0.704921	-0.316602	-0.567953
19680		7.776891	-4.074459	-1.778805	0.326341	0.023908	0.157146	-0.587891	0.341064	0.430176	0.286073	-0.704480	-0.317112	-0.566842
19681		7.805523	-4.344467	-1.745090	0.523988	-0.099771	0.349752	-0.582520	0.356445	0.421387	0.290553	-0.704650	-0.317710	-0.564010
19682		8.042593	-4.349408	-1.729208	0.725234	-0.206250	0.542848	-0.580322	0.370605	0.430176	0.296834	-0.705314	-0.318359	-0.559525
19683		8.451412	-4.351247	-1.610147	0.912876	-0.277875	0.732711	-0.574219	0.380859	0.413330	0.304893	-0.706297	-0.318915	-0.553604
19684		8.745587	-4.410851	-1.541206	1.051162	-0.291476	0.921672	-0.575439	0.404785	0.410400	0.314571	-0.707408	-0.318988	-0.546686
19685		9.099624	-4.510837	-1.508247	1.155639	-0.280154	1.107791	-0.555664	0.414795	0.401367	0.325695	-0.708573	-0.318355	-0.538978
19686		9.395287	-4.556089	-1.427314	1.231817	-0.251801	1.281746	-0.543701	0.448975	0.398438	0.338065	-0.709720	-0.316890	-0.530651
19687		9.506152	-4.629874	-1.349513	1.264755	-0.192370	1.439373	-0.538574	0.465332	0.366699	0.351406	-0.710755	-0.314391	-0.522016
19688		9.469697	-4.858310	-1.407018	1.253765	-0.105351	1.598756	-0.516357	0.488281	0.371094	0.365511	-0.711665	-0.310555	-0.513313
19689		9.507956	-5.094927	-1.357845	1.261672	-0.013894	1.746441	-0.502930	0.514160	0.350342	0.380423	-0.712323	-0.305501	-0.504524
19690		9.792813	-5.241397	-1.318442	1.261204	0.121903	1.868410	-0.489014	0.531250	0.326904	0.396065	-0.712477	-0.299183	-0.495982
19691		10.494976	-5.254372	-0.957271	1.278628	0.269348	1.957967	-0.474609	0.556152	0.313477	0.412404	-0.711922	-0.291804	-0.487792
19692		11.697732	-5.267088	-0.673509	1.298095	0.427485	2.032387	-0.449707	0.579834	0.304688	0.429382	-0.710548	-0.283399	-0.480039
19693		12.269729	-5.200861	-0.662085	1.290152	0.641606	2.103220	-0.427490	0.609131	0.270996	0.446916	-0.708200	-0.273651	-0.473111
19694		12.650081	-5.373506	-0.585603	1.315628	0.778932	2.164848	-0.416260	0.632080	0.247559	0.464947	-0.705018	-0.262999	-0.466483
19695		12.927044	-5.750638	-1.043000	1.553084	0.962989	2.268581	-0.391602	0.644287	0.225098	0.484926	-0.700042	-0.251803	-0.459764
19696		13.090568	-5.954046	-0.726328	1.849243	1.021692	2.393318	-0.360840	0.672119	0.187744	0.506915	-0.693449	-0.240612	-0.451964
19697		12.817152	-6.478328	-0.414368	1.886986	1.080962	2.559098	-0.331055	0.702637	0.158691	0.529489	-0.686280	-0.228181	-0.443390
19698		12.271761	-6.803596	-0.448600	1.756657	1.113456	2.702769	-0.302734	0.717529	0.123047	0.551485	-0.679288	-0.214123	-0.434262
19699		11.902667	-7.245280	-0.553088	1.608054	1.093926	2.759818	-0.261963	0.737793	0.086914	0.572363	-0.672604	-0.199121	-0.424682
19700		11.258628	-7.546072	-0.718294	1.458309	1.191456	2.836011	-0.233154	0.758057	0.059326	0.592371	-0.665876	-0.182537	-0.415194
19701		10.250505	-7.436526	-0.716521	1.571470	1.217958	2.853511	-0.191895	0.761963	0.028076	0.612613	-0.657974	-0.165968	-0.405252
19702		10.826203	-8.073548	-0.490058	1.666696	1.273160	2.782939	-0.148926	0.780273	-0.003662	0.632694	-0.648747	-0.149687	-0.395500
19703		9.266396	-8.483634	-0.400919	1.565013	1.393090	2.789180	-0.098389	0.786377	-0.023438	0.651853	-0.639119	-0.132281	-0.386156
19704		8.673392	-7.935463	0.902226	1.711751	1.256444	2.747637	-0.064209	0.785156	-0.057129	0.670956	-0.628549	-0.116200	-0.375821
19705		9.238730	-8.456676	1.693752	1.938255	1.114329	2.654789	-0.022461	0.796387	-0.087891	0.690249	-0.616541	-0.102014	-0.364728
19706		7.968340	-8.268066	2.082263	1.910067	1.187559	2.626432	0.014893	0.798096	-0.109375	0.708793	-0.603932	-0.087384	-0.353896
19707		7.999505	-8.734586	2.662042	1.771060	1.313822	2.591871	0.054199	0.785645	-0.138672	0.726044	-0.591251	-0.071704	-0.343716
19708		7.436726	-8.260091	2.665680	1.684507	1.396575	2.598620	0.107178	0.779785	-0.169434	0.742349	-0.578385	-0.055186	-0.333680
19709		7.815851	-7.557297	2.920122	1.563609	1.369844	2.561906	0.146240	0.773193	-0.191406	0.757376	-0.565873	-0.038636	-0.323539
19710		6.806419	-7.632727	3.212906	1.429459	1.404719	2.588047	0.192871	0.758301	-0.209229	0.771278	-0.553696	-0.021356	-0.313201
19711		6.814742	-8.094588	3.369915	1.204852	1.456439	2.621526	0.231689	0.755615	-0.224121	0.783670	-0.542426	-0.002993	-0.302699
19712		5.577198	-8.296335	3.037764	0.957260	1.575540	2.675645	0.277100	0.734863	-0.237061	0.794507	-0.532078	0.017014	-0.292168
19713		4.573820	-7.684691	2.868177	0.744991	1.551441	2.676952	0.324219	0.712158	-0.248779	0.803834	-0.522814	0.037368	-0.281283
19714		4.475893	-6.438942	2.847426	0.657032	1.439674	2.619700	0.367432	0.706299	-0.231689	0.812131	-0.514065	0.056901	-0.270078
19715		3.199708	-6.318928	2.310597	0.657054	1.349735	2.469666	0.409912	0.688477	-0.249512	0.819630	-0.505275	0.075144	-0.259339
19716		2.988643	-6.434022	2.147689	0.720294	1.207030	2.318431	0.448975	0.673340	-0.243408	0.826709	-0.496182	0.091594	-0.248931
19717		1.926365	-6.623332	1.960334	0.809026	1.016799	2.169886	0.481445	0.652832	-0.250488	0.833594	-0.486751	0.105889	-0.238710
19718		1.941445	-6.201796	2.196830	1.015727	0.750175	2.000384	0.506836	0.622803	-0.259766	0.840866	-0.476364	0.117188	-0.228669
19719		1.615904	-5.669635	2.533312	1.016312	0.649856	1.839579	0.527588	0.607178	-0.258301	0.847625	-0.466151	0.127100	-0.219274
19720		1.164939	-4.550015	2.568686	0.963158	0.535062	1.661019	0.558838	0.595947	-0.265381	0.853712	-0.456571	0.135564	-0.210573
19721		1.022874	-3.319472	2.886800	0.833824	0.450801	1.439363	0.575928	0.572998	-0.267822	0.858807	-0.448201	0.142777	-0.202933
19722		0.305812	-2.964948	3.238889	0.423334	0.511325	1.208606	0.586670	0.562012	-0.270020	0.861761	-0.442864	0.150229	-0.196648
19723		-0.367067	-2.972668	2.739342	0.097184	0.623364	0.980244	0.604980	0.544922	-0.268555	0.862900	-0.439920	0.158160	-0.191987
19724		-1.236175	-3.644091	2.163407	-0.143040	0.603455	0.759123	0.612061	0.529785	-0.266113	0.862762	-0.438990	0.165508	-0.188511
19725		-1.420724	-4.320514	2.248534	-0.325760	0.466125	0.542374	0.621582	0.534180	-0.255371	0.861757	-0.439864	0.171355	-0.185827
19726		-1.425057	-4.446526	2.128632	-0.351597	0.282852	0.283644	0.631836	0.533936	-0.245605	0.860490	-0.441564	0.174974	-0.184286
19727		-1.646892	-4.130555	2.003621	-0.262718	0.087279	-0.051731	0.626709	0.546631	-0.239990	0.859310	-0.443411	0.175819	-0.184557
19728		-1.738836	-3.845649	2.137266	-0.171390	-0.157666	-0.422689	0.622559	0.540527	-0.242676	0.858245	-0.445520	0.173399	-0.186710
19729		-1.357273	-3.865245	2.201195	-0.115125	-0.402822	-0.763728	0.606689	0.560303	-0.245361	0.857183	-0.448085	0.167867	-0.190465
19730		-0.168519	-4.103622	2.643401	-0.168162	-0.542455	-1.024475	0.595703	0.562744	-0.248535	0.855642	-0.451583	0.160438	-0.195473
19731		0.861213	-4.613316	3.037964	-0.399047	-0.576505	-1.199925	0.586670	0.572021	-0.244141	0.852893	-0.456966	0.152463	-0.201272
19732		1.341151	-4.888712	3.316110	-0.692632	-0.526421	-1.316232	0.566895	0.594238	-0.245850	0.848637	-0.464429	0.144868	-0.207686
19733		1.356194	-4.981406	3.303894	-0.982911	-0.492053	-1.458086	0.549316	0.607910	-0.231689	0.842800	-0.473963	0.137437	-0.214846
19734		1.452974	-5.225737	3.072710	-1.274660	-0.422689	-1.633581	0.518311	0.619629	-0.226074	0.835187	-0.485495	0.130283	-0.223122
19735		1.404483	-6.134191	3.154904	-1.405836	-0.370385	-1.817470	0.489258	0.651855	-0.215332	0.826358	-0.497876	0.122947	-0.232671
19736		1.507029	-7.534062	2.805608	-1.472158	-0.421338	-1.995410	0.468506	0.669922	-0.193848	0.816624	-0.510792	0.114598	-0.243073
19737		1.823336	-8.525699	2.730758	-1.359426	-0.575521	-2.188842	0.437500	0.681641	-0.178955	0.806747	-0.523203	0.104094	-0.254131
19738		2.184360	-8.987778	2.819610	-1.182955	-0.726348	-2.360663	0.406738	0.707275	-0.160400	0.796999	-0.534636	0.091400	-0.265712
19739		2.652187	-9.255816	3.177271	-1.020733	-0.796185	-2.512275	0.367920	0.731934	-0.163818	0.787261	-0.544977	0.077158	-0.277971
19740		2.623831	-9.503489	3.024022	-0.983752	-0.853921	-2.642882	0.325684	0.741943	-0.147461	0.776968	-0.554978	0.061812	-0.290687
19741		2.406225	-8.771851	2.830219	-0.973246	-1.011998	-2.753212	0.277100	0.757568	-0.143066	0.766046	-0.565001	0.044868	-0.303208
19742		3.851280	-8.543539	2.704330	-0.872722	-1.305929	-2.828353	0.235352	0.769531	-0.131348	0.754983	-0.574761	0.025409	-0.314651
19743		3.630580	-9.317593	1.729640	-0.820210	-1.421524	-2.858065	0.192383	0.783203	-0.120850	0.743558	-0.584075	0.004923	-0.325505
19744		4.603385	-9.201499	2.093753	-0.563035	-1.633878	-2.890043	0.143311	0.791748	-0.110840	0.732732	-0.591925	-0.017736	-0.335282
19745		6.569478	-9.994614	1.606463	-0.317173	-1.653621	-2.991190	0.096191	0.790771	-0.113770	0.722244	-0.597840	-0.041687	-0.345273
19746		7.453810	-8.926408	3.517186	0.008017	-1.729149	-2.899855	0.056641	0.791504	-0.109131	0.713028	-0.601569	-0.066542	-0.353946
19747		8.486134	-7.652066	4.264222	-0.082548	-1.574052	-2.717996	0.003662	0.790283	-0.102783	0.703453	-0.605034	-0.089251	-0.362107
19748		9.167705	-6.163704	4.331147	-0.513551	-1.542042	-2.500415	-0.037354	0.787109	-0.092529	0.691927	-0.610694	-0.109320	-0.369240
19749		9.375301	-6.983389	2.899030	-1.144662	-1.348004	-2.384504	-0.074219	0.790039	-0.069580	0.677296	-0.619122	-0.125676	-0.377045
19750		8.552738	-7.489625	2.349383	-1.617625	-1.078356	-2.209738	-0.102295	0.782959	-0.045654	0.660643	-0.629177	-0.138049	-0.385524
19751		10.101062	-7.658582	2.169175	-1.557926	-1.000372	-2.096245	-0.145020	0.781006	-0.015869	0.644377	-0.638422	-0.149513	-0.393499
19752		10.043763	-8.412529	1.808175	-1.549592	-0.850177	-2.012959	-0.177490	0.773438	-0.000488	0.628278	-0.646898	-0.159677	-0.401613
19753		8.796656	-8.743230	1.227804	-1.673094	-0.640168	-1.898382	-0.198242	0.758301	0.032471	0.611870	-0.655153	-0.167635	-0.410229
19754		8.680967	-8.604714	0.717408	-1.674068	-0.525733	-1.799461	-0.221680	0.755859	0.070801	0.595675	-0.662861	-0.174387	-0.418779
19755		9.605057	-8.613314	0.453782	-1.608258	-0.492451	-1.737546	-0.240723	0.750244	0.082031	0.579855	-0.669935	-0.180787	-0.426932
19756		8.117482	-8.609378	0.279596	-1.618436	-0.328795	-1.591707	-0.260010	0.732422	0.114014	0.564520	-0.676436	-0.185474	-0.435144
19757		8.526100	-7.948796	0.906635	-1.366692	-0.388482	-1.442122	-0.277344	0.724365	0.135986	0.550872	-0.681980	-0.190449	-0.441783
19758		9.080098	-7.541757	1.217038	-1.019664	-0.436594	-1.355918	-0.306152	0.713135	0.151367	0.539301	-0.686074	-0.196382	-0.447091
19759		9.146853	-7.993355	0.506606	-0.997675	-0.304645	-1.318496	-0.318115	0.705322	0.169922	0.528103	-0.689496	-0.201549	-0.452858
19760		8.053711	-7.669193	-0.252051	-1.212903	-0.068773	-1.219112	-0.335449	0.698730	0.178711	0.516336	-0.693002	-0.204250	-0.459812
19761		7.901292	-7.120332	-0.833708	-1.153868	-0.084922	-1.136872	-0.345947	0.684814	0.201904	0.505099	-0.696321	-0.206730	-0.466127
19762		8.187178	-7.103450	-1.290030	-0.811330	-0.372227	-1.080676	-0.364746	0.677002	0.210205	0.495493	-0.699301	-0.211388	-0.469872
19763		8.173959	-7.403413	-0.930844	-0.437943	-0.582717	-0.947173	-0.364990	0.668701	0.228027	0.488158	-0.701717	-0.217572	-0.471123
19764		8.467811	-7.389296	-0.305697	-0.166342	-0.616406	-0.794833	-0.377930	0.655518	0.230957	0.482909	-0.703378	-0.224047	-0.471022
19765		8.617126	-6.732270	-0.178800	-0.049819	-0.508430	-0.683630	-0.387207	0.653809	0.234375	0.478954	-0.704310	-0.229876	-0.470857
19766		8.789853	-5.912421	-0.283798	-0.050633	-0.398931	-0.626751	-0.388428	0.647705	0.237061	0.475409	-0.704894	-0.234919	-0.471088
19767		8.894807	-5.471467	-0.231083	-0.097673	-0.345912	-0.542316	-0.394775	0.642578	0.240967	0.472009	-0.705596	-0.239061	-0.471371
19768		8.818741	-5.402254	-0.352197	-0.140833	-0.299214	-0.432848	-0.387939	0.642822	0.239746	0.468868	-0.706485	-0.242199	-0.471573
19769		8.660995	-5.483159	-0.656538	-0.206046	-0.228644	-0.313904	-0.389893	0.641846	0.254639	0.465948	-0.707579	-0.244099	-0.471848
19770		8.677937	-5.441129	-0.613535	-0.150072	-0.131678	-0.202067	-0.403564	0.633057	0.263184	0.463991	-0.708295	-0.245180	-0.472142
19771		8.648614	-5.291394	-0.628986	-0.182475	-0.001809	-0.098137	-0.405762	0.637451	0.254639	0.462517	-0.708834	-0.245015	-0.472864
19772		8.485106	-4.996598	-0.844115	-0.287573	0.110362	-0.024306	-0.402588	0.638428	0.251465	0.460942	-0.709483	-0.243565	-0.474176
19773		8.457717	-4.901495	-1.219188	-0.285201	0.095541	0.001055	-0.399658	0.634521	0.262695	0.459450	-0.710228	-0.242028	-0.475294
19774		8.413264	-5.182962	-1.260977	-0.185727	0.053639	0.022688	-0.407227	0.633789	0.259766	0.458546	-0.710799	-0.240916	-0.475878
19775		8.476314	-5.282679	-1.275250	-0.102721	0.028147	0.039520	-0.398193	0.641846	0.260498	0.458149	-0.711187	-0.240130	-0.476078
19776		8.580350	-5.054319	-1.240030	0.019986	0.016812	0.047261	-0.403564	0.625977	0.271484	0.458489	-0.711167	-0.239826	-0.475935
19777		8.596389	-4.599023	-1.483548	0.099594	-0.037278	0.051304	-0.400391	0.625244	0.260498	0.459208	-0.711065	-0.240019	-0.475295
19778		8.765535	-4.278376	-1.601892	0.141062	-0.081614	0.035207	-0.402344	0.635254	0.259277	0.460021	-0.710947	-0.240641	-0.474370
19779		8.792440	-4.127436	-1.387512	0.195181	-0.091448	0.015830	-0.400146	0.635986	0.261963	0.461056	-0.710621	-0.241629	-0.473351
19780		8.878192	-4.008677	-1.285581	0.160864	-0.118475	0.010406	-0.397705	0.626709	0.253174	0.461811	-0.710520	-0.242617	-0.472260
19781		9.088920	-3.874413	-1.173979	0.073078	-0.109753	0.003047	-0.400635	0.634521	0.261963	0.462033	-0.710706	-0.243269	-0.471426
19782		9.198427	-3.709937	-1.273636	0.034248	-0.072930	0.006369	-0.398193	0.635010	0.271240	0.462113	-0.710903	-0.243607	-0.470877
19783		9.217290	-3.417579	-1.283303	0.009818	-0.018890	0.009783	-0.403809	0.631836	0.261719	0.462170	-0.710988	-0.243622	-0.470684
19784		9.194483	-3.336039	-1.295402	-0.048666	0.014911	-0.002470	-0.396973	0.641357	0.259521	0.461900	-0.711141	-0.243351	-0.470859
19785		9.269236	-3.310659	-1.422271	-0.135606	0.030849	-0.007744	-0.399170	0.632568	0.269531	0.461125	-0.711554	-0.242710	-0.471325
19786		9.375287	-3.283143	-1.563069	-0.220307	0.036603	-0.006104	-0.400635	0.635986	0.266846	0.459863	-0.712271	-0.241705	-0.471990
19787		9.374418	-3.227476	-1.560457	-0.249836	0.044324	-0.018009	-0.389893	0.627686	0.268311	0.458392	-0.713045	-0.240625	-0.472804
19788		9.245255	-3.084745	-1.556446	-0.303387	0.045018	-0.050933	-0.395508	0.630371	0.273926	0.456470	-0.713949	-0.239527	-0.473855
19789		9.198509	-2.957064	-1.462796	-0.381438	0.070515	-0.098875	-0.397705	0.617432	0.273193	0.453940	-0.714948	-0.238309	-0.475391
19790		9.043448	-2.842242	-1.680233	-0.486401	0.107874	-0.163387	-0.406006	0.631348	0.277588	0.450595	-0.716057	-0.236915	-0.477597
