// Start Time: Unknown
// Update Rate: 40.0Hz
// Filter Profile: human (46.1)
// Firmware Version: 4.6.0
PacketCounter	SampleTimeFine	Acc_X	Acc_Y	Acc_Z	Gyr_X	Gyr_Y	Gyr_Z	Mag_X	Mag_Y	Mag_Z	Quat_q0	Quat_q1	Quat_q2	Quat_q3
07338		9.599544	0.468296	-1.771288	-0.009108	0.001899	-0.001462	-0.842285	0.447266	0.314941	0.356829	-0.616284	-0.459164	-0.531070
07339		9.579474	0.434978	-1.841081	-0.004520	-0.000184	-0.003518	-0.841064	0.443848	0.320068	0.356770	-0.616285	-0.459162	-0.531110
07340		9.571855	0.471632	-1.837701	-0.000316	-0.003830	-0.004698	-0.845947	0.444580	0.315674	0.356637	-0.616337	-0.459227	-0.531083
07341		9.591727	0.474795	-1.815657	0.002900	-0.006605	-0.007713	-0.839111	0.443359	0.306641	0.356564	-0.616329	-0.459337	-0.531046
07342		9.590529	0.501422	-1.801616	0.002283	-0.003358	-0.006928	-0.839111	0.442627	0.316650	0.356585	-0.616255	-0.459411	-0.531055
07343		9.584236	0.487295	-1.770775	-0.002506	0.001489	-0.003496	-0.840576	0.451172	0.318848	0.356511	-0.616262	-0.459426	-0.531082
07344		9.560917	0.432773	-1.775649	-0.001073	-0.005545	-0.002998	-0.838135	0.447754	0.302734	0.356422	-0.616305	-0.459476	-0.531049
07345		9.581416	0.407568	-1.814157	0.002458	-0.010353	-0.008155	-0.839844	0.455322	0.322998	0.356439	-0.616239	-0.459587	-0.531019
07346		9.597080	0.442025	-1.812659	0.009860	-0.009680	-0.010478	-0.845459	0.449463	0.328125	0.356350	-0.616248	-0.459780	-0.530900
07347		9.616873	0.508360	-1.800176	0.014843	-0.005153	-0.010070	-0.843506	0.455322	0.308838	0.356272	-0.616239	-0.459995	-0.530778
07348		9.627597	0.501587	-1.781315	0.008027	-0.001164	-0.003160	-0.843262	0.456299	0.324219	0.356397	-0.616139	-0.460067	-0.530746
07349		9.605634	0.454886	-1.812046	-0.001737	0.000564	-0.000183	-0.833496	0.448975	0.312012	0.356357	-0.616201	-0.460053	-0.530714
07350		9.574194	0.428005	-1.843788	0.005995	0.002025	-0.004750	-0.844971	0.447021	0.319092	0.356384	-0.616098	-0.460141	-0.530739
07351		9.584947	0.450466	-1.821144	0.014576	0.005340	-0.008238	-0.835205	0.437012	0.312988	0.356432	-0.615969	-0.460298	-0.530720
07352		9.575387	0.471053	-1.822373	0.012885	-0.002417	-0.005333	-0.838135	0.444336	0.318604	0.356418	-0.615872	-0.460485	-0.530680
07353		9.568622	0.482024	-1.834404	0.012301	-0.001213	-0.003081	-0.842285	0.452881	0.322021	0.356440	-0.615853	-0.460610	-0.530579
07354		9.581320	0.487204	-1.854352	0.015168	0.000087	-0.005429	-0.835938	0.447266	0.309570	0.356504	-0.615843	-0.460741	-0.530434
07355		9.595310	0.474362	-1.800160	0.017809	-0.000077	-0.006247	-0.840820	0.457031	0.319824	0.356633	-0.615712	-0.460930	-0.530335
07356		9.577382	0.459793	-1.820413	0.011892	0.000677	-0.003728	-0.835205	0.447998	0.312500	0.356724	-0.615723	-0.461013	-0.530188
07357		9.559674	0.478650	-1.852113	0.009291	-0.003436	-0.004885	-0.830078	0.444824	0.318359	0.356754	-0.615684	-0.461147	-0.530098
07358		9.568850	0.492666	-1.805068	0.006706	-0.004730	-0.006147	-0.843506	0.447510	0.317383	0.356678	-0.615706	-0.461291	-0.529998
07359		9.587702	0.454442	-1.803397	0.007434	-0.005015	-0.004251	-0.838623	0.454346	0.314209	0.356650	-0.615719	-0.461423	-0.529887
07360		9.583028	0.452442	-1.813406	0.006205	-0.008433	-0.004450	-0.840332	0.450439	0.312012	0.356669	-0.615762	-0.461523	-0.529737
07361		9.605424	0.475359	-1.800046	0.006056	-0.007122	-0.005156	-0.836426	0.449463	0.313721	0.356683	-0.615753	-0.461644	-0.529632
07362		9.610610	0.457056	-1.763624	0.006059	-0.003477	-0.001767	-0.834717	0.458496	0.318848	0.356723	-0.615755	-0.461721	-0.529537
07363		9.608144	0.440338	-1.711547	0.005064	-0.000378	-0.000159	-0.836426	0.452148	0.321533	0.356816	-0.615828	-0.461708	-0.529399
07364		9.603316	0.400589	-1.753546	0.007175	-0.000791	-0.000804	-0.842041	0.457520	0.320312	0.356851	-0.615881	-0.461738	-0.529288
07365		9.576084	0.438329	-1.786433	0.009293	0.000207	-0.001502	-0.837158	0.446289	0.315918	0.356963	-0.615913	-0.461748	-0.529167
07366		9.595743	0.466083	-1.805778	0.013896	0.000941	-0.003672	-0.844727	0.448242	0.315674	0.357046	-0.615824	-0.461862	-0.529114
07367		9.596846	0.444485	-1.776554	0.012501	-0.001750	-0.001025	-0.843750	0.449707	0.317139	0.357136	-0.615766	-0.461953	-0.529041
07368		9.574777	0.397061	-1.808080	0.015912	-0.006477	-0.001920	-0.832520	0.454834	0.313477	0.357219	-0.615741	-0.462083	-0.528902
07369		9.592862	0.416481	-1.803207	0.017655	-0.009280	-0.005182	-0.843018	0.453125	0.312744	0.357362	-0.615728	-0.462218	-0.528702
07370		9.605915	0.429507	-1.794029	0.022512	-0.010540	-0.007364	-0.833496	0.456787	0.318848	0.357512	-0.615644	-0.462428	-0.528515
07371		9.617919	0.434042	-1.758004	0.018143	-0.004753	-0.003395	-0.845703	0.449463	0.313721	0.357663	-0.615672	-0.462523	-0.528297
07372		9.588294	0.422382	-1.785531	0.009816	-0.000958	-0.001633	-0.839600	0.453125	0.312988	0.357762	-0.615591	-0.462583	-0.528272
07373		9.596406	0.391129	-1.802614	0.013203	-0.000825	-0.004110	-0.837402	0.453369	0.308594	0.357916	-0.615512	-0.462655	-0.528196
07374		9.573677	0.402751	-1.829764	0.013982	-0.003978	-0.004236	-0.835205	0.451416	0.319092	0.358108	-0.615416	-0.462741	-0.528103
07375		9.589259	0.432240	-1.872061	0.020421	-0.005904	-0.006891	-0.834717	0.458496	0.312256	0.358181	-0.615406	-0.462912	-0.527915
07376		9.579991	0.426735	-1.832301	0.024596	-0.003862	-0.006169	-0.835449	0.452393	0.310547	0.358458	-0.615330	-0.463058	-0.527688
07377		9.592324	0.398490	-1.841593	0.028569	-0.001293	-0.007521	-0.837158	0.453857	0.318848	0.358713	-0.615163	-0.463265	-0.527528
07378		9.586920	0.421031	-1.835501	0.026130	-0.001657	-0.004630	-0.837402	0.448975	0.308350	0.358883	-0.615123	-0.463438	-0.527305
07379		9.570259	0.417742	-1.838164	0.026603	-0.003605	-0.006117	-0.839600	0.451172	0.314941	0.359094	-0.614942	-0.463655	-0.527184
07380		9.568730	0.439615	-1.869246	0.022006	-0.006582	-0.007376	-0.833496	0.452148	0.316162	0.359186	-0.614874	-0.463862	-0.527017
07381		9.577601	0.450166	-1.867473	0.017738	-0.005126	-0.007502	-0.832520	0.454590	0.316895	0.359246	-0.614872	-0.464024	-0.526837
07382		9.584370	0.411571	-1.859097	0.016790	-0.004897	-0.007919	-0.839355	0.450439	0.310791	0.359317	-0.614899	-0.464167	-0.526631
07383		9.603597	0.377238	-1.812669	0.018842	-0.005258	-0.006439	-0.838867	0.450684	0.311035	0.359434	-0.614787	-0.464351	-0.526519
07384		9.582571	0.371749	-1.823665	0.019649	-0.001361	-0.006854	-0.843262	0.451904	0.313965	0.359577	-0.614653	-0.464522	-0.526427
07385		9.582280	0.402065	-1.880267	0.025303	-0.001552	-0.009341	-0.834717	0.453369	0.312744	0.359718	-0.614502	-0.464751	-0.526305
07386		9.597095	0.427669	-1.850920	0.024779	-0.000393	-0.009227	-0.845215	0.451416	0.315674	0.359900	-0.614398	-0.464943	-0.526132
07387		9.584428	0.457274	-1.842970	0.014479	-0.000303	-0.005977	-0.843018	0.459473	0.313477	0.359944	-0.614322	-0.465082	-0.526068
07388		9.584804	0.428822	-1.844726	0.004661	0.000662	-0.004323	-0.832764	0.451416	0.317383	0.360072	-0.614322	-0.465083	-0.525979
07389		9.552185	0.393740	-1.850121	0.004339	-0.002364	-0.005506	-0.840820	0.457031	0.311523	0.360004	-0.614416	-0.465134	-0.525871
07390		9.563533	0.391857	-1.844415	0.003129	-0.005222	-0.009237	-0.841309	0.455078	0.314941	0.360047	-0.614407	-0.465197	-0.525796
07391		9.583801	0.367046	-1.824689	0.007980	-0.009312	-0.011308	-0.835205	0.456543	0.318115	0.360015	-0.614423	-0.465344	-0.525670
07392		9.591920	0.408412	-1.822546	0.006754	-0.014144	-0.011424	-0.838867	0.458496	0.313477	0.359928	-0.614570	-0.465478	-0.525439
07393		9.606750	0.472929	-1.820751	0.001006	-0.012709	-0.011782	-0.835693	0.452148	0.320801	0.359899	-0.614648	-0.465558	-0.525296
07394		9.608066	0.458240	-1.806508	-0.006588	-0.006359	-0.008230	-0.836670	0.451660	0.316895	0.359683	-0.614816	-0.465584	-0.525226
07395		9.620809	0.402586	-1.817639	-0.013342	-0.004634	-0.006866	-0.840820	0.460693	0.317627	0.359488	-0.614941	-0.465544	-0.525247
07396		9.593828	0.383090	-1.797214	-0.014251	-0.004182	-0.002364	-0.837402	0.460205	0.326172	0.359438	-0.615132	-0.465394	-0.525191
07397		9.598449	0.391287	-1.803159	-0.007387	-0.005179	-0.004500	-0.838867	0.455811	0.316895	0.359302	-0.615411	-0.465321	-0.525021
07398		9.598264	0.426105	-1.815540	-0.000251	-0.002524	-0.006874	-0.834473	0.454102	0.315430	0.359293	-0.615459	-0.465318	-0.524974
07399		9.581100	0.420298	-1.804537	0.005190	-0.001342	-0.007944	-0.838379	0.455078	0.322021	0.359328	-0.615466	-0.465354	-0.524910
07400		9.574227	0.398782	-1.863361	0.001160	-0.006676	-0.004326	-0.842041	0.454590	0.312744	0.359245	-0.615610	-0.465378	-0.524777
07401		9.551025	0.377392	-1.880479	0.006589	-0.011137	-0.005159	-0.833740	0.450928	0.310791	0.359289	-0.615602	-0.465453	-0.524689
07402		9.572756	0.396762	-1.854640	0.019692	-0.007050	-0.008787	-0.843994	0.458496	0.312500	0.359424	-0.615494	-0.465632	-0.524565
07403		9.587268	0.422698	-1.826860	0.021118	-0.007820	-0.009918	-0.830078	0.456299	0.319824	0.359622	-0.615381	-0.465798	-0.524414
07404		9.590224	0.418954	-1.852176	0.015679	-0.009004	-0.008847	-0.829346	0.457031	0.317871	0.359659	-0.615487	-0.465928	-0.524149
07405		9.578189	0.390493	-1.907391	0.014622	-0.009504	-0.008492	-0.843018	0.448486	0.312256	0.359723	-0.615585	-0.466035	-0.523894
07406		9.581099	0.386576	-1.874668	0.017054	-0.005480	-0.008027	-0.843506	0.448730	0.317627	0.359780	-0.615410	-0.466245	-0.523874
07407		9.578396	0.400849	-1.879119	0.013890	-0.002742	-0.007137	-0.835205	0.456055	0.310059	0.359765	-0.615307	-0.466427	-0.523844
07408		9.570373	0.404334	-1.865274	0.011725	-0.004528	-0.007784	-0.840820	0.462402	0.309814	0.359930	-0.615242	-0.466498	-0.523744
07409		9.566628	0.377664	-1.890217	0.018427	-0.009863	-0.010402	-0.843750	0.454834	0.320312	0.360178	-0.615164	-0.466623	-0.523553
07410		9.575744	0.393225	-1.902600	0.024872	-0.008976	-0.013209	-0.842041	0.460693	0.320801	0.360209	-0.615093	-0.466912	-0.523357
07411		9.578580	0.423104	-1.881595	0.017004	-0.006277	-0.009402	-0.833496	0.450684	0.313477	0.360296	-0.615120	-0.467057	-0.523137
07412		9.595711	0.402756	-1.896336	0.010247	-0.005967	-0.007964	-0.825928	0.457031	0.320068	0.360309	-0.615091	-0.467181	-0.523051
07413		9.580004	0.408997	-1.867171	0.002123	0.002102	-0.007839	-0.834717	0.454590	0.314453	0.360315	-0.615226	-0.467156	-0.522911
07414		9.555270	0.405712	-1.840444	-0.002680	0.000481	-0.007645	-0.835449	0.459717	0.321045	0.360307	-0.615240	-0.467138	-0.522916
07415		9.564361	0.384272	-1.883896	-0.002362	-0.005811	-0.009591	-0.836426	0.458740	0.322021	0.360233	-0.615389	-0.467143	-0.522786
07416		9.576632	0.391436	-1.904811	-0.001884	-0.003532	-0.011259	-0.838623	0.459717	0.311768	0.360143	-0.615504	-0.467167	-0.522691
07417		9.605451	0.402229	-1.865801	0.008935	-0.001095	-0.011295	-0.830811	0.453613	0.314697	0.360291	-0.615426	-0.467212	-0.522642
07418		9.581074	0.402926	-1.852935	0.010514	-0.000900	-0.008276	-0.839355	0.453857	0.317139	0.360364	-0.615405	-0.467287	-0.522548
07419		9.579436	0.392846	-1.871837	-0.002782	-0.005340	-0.010185	-0.837402	0.458740	0.317383	0.360259	-0.615429	-0.467343	-0.522543
07420		9.577083	0.412736	-1.889552	-0.002305	-0.004472	-0.011791	-0.844238	0.457520	0.317871	0.360217	-0.615484	-0.467360	-0.522491
07421		9.573005	0.416641	-1.853653	-0.000093	0.000931	-0.009911	-0.836914	0.444580	0.311279	0.360208	-0.615452	-0.467386	-0.522513
07422		9.582248	0.395493	-1.838635	-0.001255	-0.000293	-0.008778	-0.836914	0.447998	0.316406	0.360120	-0.615335	-0.467464	-0.522642
07423		9.578712	0.402626	-1.873466	-0.004686	-0.001209	-0.007639	-0.834717	0.451904	0.318604	0.359991	-0.615329	-0.467498	-0.522706
07424		9.598882	0.407099	-1.908541	-0.001147	-0.002391	-0.009428	-0.838379	0.450439	0.320801	0.359898	-0.615373	-0.467538	-0.522683
07425		9.539968	0.422504	-1.871102	0.000279	-0.001748	-0.010621	-0.835449	0.468262	0.312012	0.359766	-0.615387	-0.467621	-0.522683
07426		9.572598	0.432112	-1.868716	-0.003834	-0.005844	-0.009830	-0.830566	0.458252	0.317383	0.359917	-0.615485	-0.467513	-0.522560
07427		9.574288	0.417616	-1.853391	-0.007846	-0.004981	-0.009998	-0.837891	0.454346	0.316895	0.359855	-0.615621	-0.467461	-0.522489
07428		9.586045	0.420935	-1.861214	-0.006631	-0.005788	-0.009646	-0.843994	0.457031	0.315186	0.359754	-0.615674	-0.467468	-0.522490
07429		9.599414	0.402968	-1.839303	-0.002093	-0.004989	-0.009722	-0.835205	0.455811	0.314209	0.359741	-0.615654	-0.467492	-0.522501
07430		9.572744	0.383918	-1.818173	-0.002052	0.001448	-0.008604	-0.827881	0.458984	0.316406	0.359782	-0.615642	-0.467460	-0.522516
07431		9.583597	0.411777	-1.867734	0.001278	-0.001180	-0.008849	-0.838623	0.455322	0.312012	0.359851	-0.615723	-0.467425	-0.522404
07432		9.597363	0.430769	-1.869792	0.003603	-0.001553	-0.010994	-0.840332	0.454834	0.314941	0.359914	-0.615641	-0.467469	-0.522419
07433		9.564747	0.429946	-1.886518	0.000063	-0.000376	-0.009203	-0.839355	0.455078	0.320068	0.359927	-0.615594	-0.467489	-0.522447
07434		9.560261	0.428859	-1.895054	-0.000887	-0.002115	-0.005992	-0.833008	0.458496	0.315430	0.359891	-0.615643	-0.467498	-0.522406
07435		9.566443	0.416441	-1.871131	-0.006156	-0.005477	-0.007692	-0.841309	0.456055	0.324219	0.359883	-0.615740	-0.467446	-0.522343
07436		9.582851	0.389281	-1.858980	-0.004941	-0.004320	-0.010965	-0.831055	0.466309	0.316895	0.359738	-0.615820	-0.467490	-0.522310
07437		9.575628	0.402424	-1.871685	-0.001243	-0.005391	-0.012105	-0.841553	0.453857	0.320068	0.359819	-0.615935	-0.467447	-0.522158
07438		9.581412	0.424111	-1.859830	-0.008317	-0.005863	-0.008399	-0.835693	0.450195	0.312256	0.359678	-0.615995	-0.467456	-0.522175
07439		9.578987	0.443557	-1.877445	-0.010275	-0.003938	-0.007148	-0.834961	0.460205	0.314453	0.359590	-0.616003	-0.467413	-0.522264
07440		9.579062	0.412445	-1.866574	-0.003892	-0.002961	-0.007825	-0.831787	0.454590	0.317627	0.359648	-0.616050	-0.467353	-0.522223
07441		9.575269	0.382462	-1.876958	-0.001414	-0.001813	-0.009380	-0.834961	0.457520	0.321289	0.359629	-0.616087	-0.467357	-0.522188
07442		9.571757	0.427125	-1.879220	0.001122	-0.002696	-0.009448	-0.836426	0.457031	0.323242	0.359617	-0.616145	-0.467385	-0.522103
07443		9.595283	0.426528	-1.880056	0.001442	-0.003896	-0.008082	-0.839600	0.456299	0.317139	0.359585	-0.616221	-0.467423	-0.522002
07444		9.574856	0.425595	-1.845797	-0.002162	0.000167	-0.004270	-0.837158	0.450439	0.320801	0.359620	-0.616231	-0.467377	-0.522008
07445		9.585539	0.415599	-1.870506	-0.005432	-0.000101	-0.006041	-0.839844	0.458984	0.311035	0.359520	-0.616262	-0.467371	-0.522045
07446		9.567629	0.401642	-1.890400	-0.002261	-0.001418	-0.007002	-0.838867	0.456299	0.318115	0.359615	-0.616225	-0.467313	-0.522075
07447		9.581713	0.386863	-1.880948	0.003073	-0.002350	-0.007258	-0.846680	0.464844	0.309814	0.359648	-0.616222	-0.467340	-0.522032
07448		9.598945	0.400213	-1.848422	0.010879	-0.000721	-0.009130	-0.833740	0.451172	0.314941	0.359892	-0.616090	-0.467357	-0.522004
07449		9.578090	0.432292	-1.883345	0.003541	-0.000621	-0.005361	-0.832031	0.461426	0.315430	0.359925	-0.616067	-0.467374	-0.521994
07450		9.578001	0.433352	-1.883554	-0.000153	-0.000967	-0.004159	-0.841553	0.453857	0.312744	0.360045	-0.616129	-0.467304	-0.521900
07451		9.567942	0.416908	-1.860680	-0.007432	-0.001796	-0.006033	-0.837158	0.454590	0.311523	0.360014	-0.616108	-0.467253	-0.521991
07452		9.581591	0.398212	-1.895371	-0.009446	0.000747	-0.006207	-0.840332	0.455811	0.311035	0.360009	-0.616097	-0.467164	-0.522088
07453		9.606761	0.372315	-1.851767	-0.004922	0.004381	-0.006404	-0.841309	0.451660	0.311768	0.360071	-0.616025	-0.467089	-0.522198
07454		9.572320	0.387737	-1.883464	0.001509	0.006159	-0.005715	-0.841797	0.458496	0.322510	0.360143	-0.615903	-0.467066	-0.522312
07455		9.584992	0.393842	-1.902221	0.004003	0.003074	-0.007089	-0.833984	0.454590	0.320312	0.360188	-0.615892	-0.467096	-0.522267
07456		9.572642	0.427878	-1.906089	0.002405	0.006554	-0.006730	-0.833008	0.456787	0.322998	0.360230	-0.615879	-0.467092	-0.522257
07457		9.560772	0.428304	-1.898059	0.001194	0.005394	-0.003456	-0.833252	0.457031	0.317383	0.360279	-0.615932	-0.467059	-0.522190
07458		9.575531	0.417142	-1.900707	-0.002263	-0.000011	-0.007067	-0.837402	0.461914	0.313965	0.360293	-0.615971	-0.467035	-0.522156
07459		9.566843	0.413347	-1.859414	-0.007222	-0.000351	-0.007585	-0.836426	0.459229	0.316895	0.360338	-0.616000	-0.466958	-0.522159
07460		9.580146	0.390846	-1.880729	-0.004800	0.000868	-0.007000	-0.835449	0.449707	0.319336	0.360359	-0.616031	-0.466909	-0.522152
07461		9.562263	0.377165	-1.900694	0.001128	-0.002697	-0.009455	-0.839355	0.445068	0.321289	0.360270	-0.616032	-0.466981	-0.522149
07462		9.579856	0.395186	-1.881296	0.005076	-0.000104	-0.010838	-0.840820	0.455322	0.325684	0.360148	-0.615968	-0.467109	-0.522194
07463		9.576711	0.406625	-1.871580	0.006293	-0.000906	-0.010485	-0.838867	0.460693	0.321777	0.360107	-0.615970	-0.467215	-0.522125
07464		9.593004	0.412630	-1.870160	0.003072	-0.000388	-0.010892	-0.841553	0.455078	0.319824	0.360132	-0.615981	-0.467261	-0.522053
07465		9.573853	0.424481	-1.875149	-0.003529	-0.000007	-0.008790	-0.831543	0.454834	0.318359	0.360077	-0.615982	-0.467269	-0.522083
07466		9.579843	0.408466	-1.894702	-0.003009	0.001656	-0.009031	-0.833252	0.454590	0.314453	0.360058	-0.616008	-0.467252	-0.522080
07467		9.584185	0.413865	-1.885870	-0.004651	0.002929	-0.009979	-0.837402	0.454834	0.323975	0.360055	-0.615990	-0.467217	-0.522135
07468		9.570000	0.395310	-1.870267	-0.004282	0.002524	-0.007245	-0.836670	0.454102	0.317871	0.359992	-0.616037	-0.467202	-0.522136
07469		9.583439	0.410303	-1.858071	-0.000376	0.002915	-0.009934	-0.828857	0.454590	0.327148	0.359987	-0.616006	-0.467213	-0.522167
07470		9.574803	0.406680	-1.873965	0.002319	0.002146	-0.009348	-0.833740	0.448486	0.319092	0.359942	-0.616080	-0.467249	-0.522078
07471		9.562760	0.407988	-1.866608	0.002201	0.004243	-0.008696	-0.834229	0.449951	0.324219	0.359914	-0.616038	-0.467282	-0.522117
07472		9.582745	0.408697	-1.887058	0.002940	0.004533	-0.010365	-0.830811	0.459717	0.319824	0.359855	-0.616023	-0.467338	-0.522126
07473		9.585194	0.394071	-1.868801	0.001273	0.010039	-0.011496	-0.831055	0.452881	0.317139	0.359937	-0.615998	-0.467300	-0.522133
07474		9.571224	0.412845	-1.876419	-0.002209	0.009173	-0.008214	-0.833984	0.463135	0.317627	0.359966	-0.615966	-0.467245	-0.522200
07475		9.576622	0.425827	-1.892892	0.002461	0.005074	-0.008819	-0.838867	0.453369	0.314941	0.360088	-0.615966	-0.467202	-0.522154
07476		9.585923	0.400735	-1.863634	0.001991	0.004752	-0.010781	-0.834229	0.457275	0.318604	0.360117	-0.615877	-0.467224	-0.522219
07477		9.582209	0.404344	-1.883614	0.005667	0.007929	-0.012105	-0.838379	0.463623	0.316895	0.360195	-0.615810	-0.467247	-0.522224
07478		9.589927	0.400639	-1.882976	0.005694	0.011544	-0.010862	-0.836670	0.460449	0.307373	0.360365	-0.615719	-0.467220	-0.522238
07479		9.573371	0.432436	-1.893607	0.002795	0.010860	-0.009903	-0.836182	0.451416	0.314941	0.360556	-0.615585	-0.467156	-0.522322
07480		9.569011	0.427656	-1.886267	-0.000890	0.009092	-0.008643	-0.839111	0.454590	0.318115	0.360578	-0.615509	-0.467130	-0.522420
07481		9.566261	0.439307	-1.874146	-0.002733	0.009459	-0.011616	-0.838623	0.448730	0.315918	0.360569	-0.615442	-0.467114	-0.522519
07482		9.549210	0.430663	-1.847532	-0.006082	0.005630	-0.012497	-0.833984	0.457764	0.308105	0.360472	-0.615378	-0.467118	-0.522658
07483		9.589582	0.398144	-1.820196	-0.006096	0.000603	-0.013682	-0.834717	0.452148	0.312500	0.360482	-0.615344	-0.467086	-0.522719
07484		9.573663	0.364888	-1.810023	-0.000710	0.001033	-0.016136	-0.835693	0.456055	0.320557	0.360438	-0.615275	-0.467142	-0.522780
07485		9.602274	0.414537	-1.794792	0.006878	0.002653	-0.016512	-0.834717	0.454346	0.312500	0.360434	-0.615225	-0.467247	-0.522749
07486		9.598062	0.456114	-1.782888	0.000651	0.001205	-0.011616	-0.833252	0.458740	0.312012	0.360452	-0.615186	-0.467265	-0.522766
07487		9.573731	0.456999	-1.827841	-0.008283	-0.004508	-0.008493	-0.829346	0.450928	0.323242	0.360432	-0.615261	-0.467205	-0.522745
07488		9.598027	0.465567	-1.855308	-0.011222	-0.005444	-0.012478	-0.837158	0.456543	0.318604	0.360211	-0.615399	-0.467209	-0.522732
07489		9.607812	0.449910	-1.854247	-0.010360	-0.000814	-0.013679	-0.833496	0.442383	0.314453	0.360095	-0.615444	-0.467186	-0.522778
07490		9.632577	0.421729	-1.797501	-0.009884	0.004534	-0.010530	-0.837158	0.454590	0.321045	0.359950	-0.615413	-0.467158	-0.522940
07491		9.630827	0.404093	-1.787213	-0.001296	0.011765	-0.007934	-0.839600	0.442627	0.311768	0.359984	-0.615380	-0.467102	-0.523005
07492		9.591642	0.408268	-1.798586	-0.001090	0.017692	-0.004725	-0.835938	0.452393	0.318359	0.360042	-0.615213	-0.467032	-0.523225
07493		9.562796	0.434016	-1.846138	-0.000259	0.013134	-0.004782	-0.831787	0.445801	0.309326	0.360112	-0.615171	-0.466951	-0.523297
07494		9.588010	0.482662	-1.849729	0.000398	0.011837	-0.009191	-0.835938	0.454346	0.317139	0.360168	-0.615045	-0.466920	-0.523435
07495		9.569227	0.452746	-1.813606	-0.000367	0.014365	-0.007646	-0.831543	0.446533	0.314209	0.360247	-0.614982	-0.466845	-0.523522
07496		9.580942	0.447423	-1.790794	-0.007774	0.010020	-0.006502	-0.839600	0.453613	0.312012	0.360210	-0.614964	-0.466750	-0.523653
07497		9.579261	0.428891	-1.780357	-0.005806	0.007558	-0.004178	-0.835449	0.457031	0.316406	0.360260	-0.614937	-0.466649	-0.523740
07498		9.586899	0.423915	-1.780476	-0.004831	0.004521	-0.003638	-0.842041	0.456055	0.319580	0.360298	-0.614991	-0.466546	-0.523743
07499		9.591294	0.428325	-1.771180	-0.003334	0.003695	-0.006916	-0.832520	0.439941	0.311523	0.360282	-0.615013	-0.466502	-0.523767
07500		9.579589	0.433312	-1.777518	-0.006877	-0.001589	-0.006252	-0.834229	0.453857	0.317139	0.360153	-0.615026	-0.466486	-0.523856
07501		9.598418	0.426381	-1.773356	-0.005551	-0.006136	-0.011432	-0.839111	0.447754	0.319580	0.360041	-0.615108	-0.466492	-0.523830
07502		9.597502	0.383935	-1.782023	-0.000172	-0.011265	-0.011490	-0.840332	0.447998	0.312744	0.359873	-0.615174	-0.466591	-0.523780
07503		9.621907	0.354868	-1.727312	0.015613	-0.000578	-0.012050	-0.832275	0.452148	0.312744	0.359944	-0.615039	-0.466748	-0.523750
07504		9.639410	0.372319	-1.707146	0.024258	0.004634	-0.007953	-0.839111	0.445557	0.309082	0.360176	-0.614908	-0.466870	-0.523635
07505		9.615254	0.408626	-1.775329	0.024912	0.007814	-0.007606	-0.836182	0.454834	0.315918	0.360403	-0.614677	-0.467021	-0.523615
07506		9.616347	0.458807	-1.780246	0.021420	0.008892	-0.007967	-0.838379	0.453369	0.311035	0.360620	-0.614551	-0.467105	-0.523539
07507		9.610655	0.478029	-1.815772	0.012189	0.013541	-0.007376	-0.836670	0.446777	0.310547	0.360820	-0.614390	-0.467114	-0.523581
07508		9.579231	0.396822	-1.824344	0.006815	0.011688	-0.004865	-0.832764	0.454346	0.315186	0.360933	-0.614270	-0.467097	-0.523661
07509		9.552600	0.363810	-1.876367	0.003991	0.009513	-0.005991	-0.828369	0.444092	0.314209	0.361024	-0.614247	-0.467041	-0.523674
07510		9.556487	0.401290	-1.877547	0.011281	0.009524	-0.007606	-0.836426	0.456543	0.311035	0.361088	-0.614168	-0.467069	-0.523698
07511		9.579559	0.433734	-1.829504	0.015801	0.006746	-0.008914	-0.832031	0.459473	0.307129	0.361279	-0.614055	-0.467130	-0.523645
07512		9.572305	0.441213	-1.826661	0.012120	0.004968	-0.007656	-0.835693	0.452393	0.314941	0.361492	-0.613978	-0.467147	-0.523572
07513		9.570668	0.423017	-1.875437	0.001042	0.001330	-0.012469	-0.834473	0.451416	0.312012	0.361444	-0.613970	-0.467174	-0.523590
07514		9.571670	0.438256	-1.856894	0.000193	0.002266	-0.013665	-0.833496	0.452148	0.308105	0.361404	-0.613935	-0.467203	-0.523634
07515		9.576578	0.411138	-1.836864	0.001072	-0.001491	-0.012342	-0.834717	0.458252	0.319336	0.361397	-0.613905	-0.467241	-0.523639
07516		9.563088	0.401184	-1.849361	-0.004363	-0.006348	-0.012502	-0.842041	0.455811	0.304932	0.361272	-0.614028	-0.467241	-0.523582
07517		9.580084	0.420521	-1.831011	-0.001348	-0.006343	-0.014175	-0.838867	0.453125	0.305908	0.361257	-0.613977	-0.467310	-0.523590
07518		9.604014	0.430088	-1.801287	0.005650	-0.007956	-0.017040	-0.837402	0.454834	0.311279	0.361243	-0.613904	-0.467455	-0.523557
07519		9.580807	0.448033	-1.784753	0.003692	-0.003838	-0.014489	-0.843018	0.453125	0.311768	0.361226	-0.613878	-0.467536	-0.523527
07520		9.605132	0.416142	-1.773936	0.001907	-0.004100	-0.016039	-0.841064	0.455322	0.312012	0.361165	-0.613827	-0.467636	-0.523539
07521		9.601035	0.420607	-1.796128	0.000761	-0.001715	-0.013661	-0.835449	0.456055	0.306885	0.361142	-0.613796	-0.467687	-0.523545
07522		9.589892	0.434949	-1.830101	0.000386	-0.005477	-0.014067	-0.838623	0.453125	0.305420	0.361139	-0.613780	-0.467743	-0.523516
07523		9.597140	0.477586	-1.826261	0.001674	-0.002727	-0.014616	-0.839111	0.448975	0.315674	0.361148	-0.613705	-0.467816	-0.523533
07524		9.563728	0.469150	-1.816908	-0.002309	-0.001113	-0.013424	-0.838135	0.459229	0.317139	0.361033	-0.613705	-0.467853	-0.523579
07525		9.567139	0.467293	-1.840324	-0.009056	-0.002294	-0.011922	-0.833496	0.450928	0.316895	0.360938	-0.613791	-0.467807	-0.523584
07526		9.575083	0.431772	-1.831609	-0.011370	-0.010048	-0.015778	-0.835205	0.449707	0.314697	0.360700	-0.613912	-0.467824	-0.523591
07527		9.573237	0.424182	-1.794069	-0.012864	-0.008682	-0.016082	-0.843994	0.449951	0.325439	0.360467	-0.614002	-0.467835	-0.523637
07528		9.598472	0.450761	-1.760077	-0.009387	-0.011961	-0.017035	-0.835693	0.444336	0.310791	0.360161	-0.614125	-0.467905	-0.523641
07529		9.591472	0.473432	-1.800992	-0.013118	-0.013138	-0.017211	-0.840088	0.446533	0.315186	0.359896	-0.614191	-0.467960	-0.523696
07530		9.608433	0.452639	-1.803935	-0.017551	-0.013810	-0.014341	-0.833740	0.448975	0.310303	0.359598	-0.614313	-0.467967	-0.523751
07531		9.621816	0.436698	-1.783784	-0.008009	-0.012643	-0.016032	-0.835938	0.445557	0.314209	0.359432	-0.614372	-0.468025	-0.523745
07532		9.607694	0.423590	-1.784392	-0.004824	-0.006695	-0.014497	-0.841797	0.454834	0.320312	0.359284	-0.614395	-0.468075	-0.523775
07533		9.617600	0.407959	-1.784027	0.000635	-0.004639	-0.014212	-0.837891	0.453369	0.314941	0.359212	-0.614421	-0.468129	-0.523745
07534		9.589238	0.455505	-1.786446	0.004635	-0.000420	-0.012853	-0.844238	0.448242	0.315674	0.359236	-0.614385	-0.468179	-0.523725
07535		9.579986	0.489326	-1.827497	0.004787	0.003307	-0.010948	-0.843750	0.451904	0.314697	0.359254	-0.614301	-0.468228	-0.523768
07536		9.575632	0.488920	-1.835612	-0.001310	-0.001939	-0.011587	-0.837646	0.447021	0.310059	0.359222	-0.614282	-0.468254	-0.523790
07537		9.572182	0.455543	-1.832992	-0.003542	-0.004485	-0.011460	-0.832275	0.452881	0.317871	0.359162	-0.614272	-0.468279	-0.523820
07538		9.571438	0.454544	-1.820960	0.003339	-0.005385	-0.013623	-0.833252	0.445557	0.307373	0.359121	-0.614314	-0.468333	-0.523751
07539		9.587012	0.457579	-1.807431	0.004291	-0.005596	-0.013208	-0.834961	0.450195	0.321289	0.359117	-0.614261	-0.468424	-0.523734
07540		9.583680	0.473647	-1.812458	0.000214	-0.008336	-0.012479	-0.835449	0.446045	0.318359	0.358999	-0.614348	-0.468471	-0.523670
07541		9.588175	0.487614	-1.832414	-0.003772	-0.006735	-0.011280	-0.839600	0.445068	0.312744	0.358865	-0.614415	-0.468491	-0.523666
07542		9.585295	0.462309	-1.799169	-0.006688	-0.006031	-0.010379	-0.830811	0.455078	0.317871	0.358754	-0.614438	-0.468502	-0.523706
07543		9.585228	0.469026	-1.813948	-0.005714	-0.007652	-0.009902	-0.838867	0.447510	0.319824	0.358676	-0.614564	-0.468465	-0.523644
07544		9.576240	0.465953	-1.832257	-0.004488	-0.007902	-0.013134	-0.834717	0.447754	0.319336	0.358522	-0.614626	-0.468502	-0.523644
07545		9.584578	0.479020	-1.830886	0.000001	-0.008372	-0.010992	-0.836426	0.452637	0.320312	0.358423	-0.614697	-0.468542	-0.523592
07546		9.571878	0.480569	-1.826804	0.001546	-0.012557	-0.010574	-0.844238	0.447998	0.315186	0.358339	-0.614801	-0.468597	-0.523479
07547		9.586153	0.471150	-1.833115	-0.001562	-0.012765	-0.011704	-0.838379	0.462158	0.317139	0.358231	-0.614834	-0.468679	-0.523440
07548		9.582492	0.487240	-1.839610	-0.003968	-0.014016	-0.012297	-0.833740	0.450439	0.319580	0.358171	-0.614953	-0.468699	-0.523323
07549		9.600377	0.473247	-1.811095	-0.003609	-0.010251	-0.011884	-0.839600	0.441650	0.321289	0.358051	-0.615051	-0.468723	-0.523270
07550		9.589614	0.449670	-1.821676	-0.006154	-0.009942	-0.008230	-0.834473	0.441406	0.317871	0.357873	-0.615143	-0.468737	-0.523271
07551		9.583795	0.437118	-1.850262	-0.006799	-0.008975	-0.010922	-0.837891	0.451172	0.320068	0.357704	-0.615212	-0.468754	-0.523289
07552		9.592041	0.450195	-1.849339	-0.002538	-0.011149	-0.012192	-0.834473	0.448730	0.322754	0.357594	-0.615293	-0.468796	-0.523232
07553		9.584686	0.467199	-1.818538	-0.002549	-0.007530	-0.010938	-0.840820	0.448730	0.320801	0.357482	-0.615380	-0.468808	-0.523195
07554		9.583183	0.457814	-1.838515	-0.003596	-0.008046	-0.010577	-0.830322	0.455566	0.316650	0.357377	-0.615438	-0.468829	-0.523180
07555		9.584982	0.439430	-1.810850	-0.000405	-0.009322	-0.011546	-0.836914	0.452881	0.325195	0.357355	-0.615516	-0.468843	-0.523090
07556		9.586398	0.466325	-1.834369	0.006213	-0.007418	-0.012348	-0.833496	0.452881	0.316650	0.357315	-0.615566	-0.468914	-0.522995
07557		9.577379	0.462799	-1.852749	0.009964	-0.007637	-0.012124	-0.834473	0.447754	0.322266	0.357363	-0.615562	-0.469008	-0.522883
07558		9.556254	0.457991	-1.864727	0.014264	-0.009010	-0.012022	-0.836426	0.448975	0.313965	0.357369	-0.615565	-0.469148	-0.522750
07559		9.579767	0.462265	-1.880632	0.019480	-0.011389	-0.012883	-0.839600	0.448975	0.331543	0.357458	-0.615500	-0.469346	-0.522587
07560		9.569690	0.495475	-1.866887	0.023611	-0.009251	-0.012188	-0.839600	0.444336	0.322266	0.357479	-0.615499	-0.469551	-0.522390
07561		9.589678	0.504554	-1.859703	0.024528	-0.010262	-0.013154	-0.839600	0.446533	0.323242	0.357529	-0.615427	-0.469794	-0.522222
07562		9.570022	0.519297	-1.880600	0.016511	-0.010622	-0.009828	-0.835938	0.450195	0.320801	0.357543	-0.615425	-0.469952	-0.522072
07563		9.577444	0.523175	-1.911399	0.011493	-0.010426	-0.011781	-0.835205	0.452393	0.314941	0.357543	-0.615441	-0.470075	-0.521943
07564		9.591104	0.501302	-1.877347	0.014550	-0.007389	-0.010786	-0.833496	0.449219	0.318604	0.357641	-0.615402	-0.470195	-0.521814
07565		9.571954	0.470615	-1.903977	0.005607	-0.008952	-0.007803	-0.843018	0.447266	0.315430	0.357639	-0.615450	-0.470243	-0.521715
07566		9.568999	0.493267	-1.935821	0.002259	-0.007790	-0.007488	-0.833496	0.450684	0.319824	0.357629	-0.615447	-0.470291	-0.521683
07567		9.557614	0.505777	-1.912508	0.003876	-0.004001	-0.005347	-0.835205	0.449463	0.326904	0.357660	-0.615494	-0.470283	-0.521613
07568		9.535974	0.487913	-1.883633	-0.001078	-0.004415	-0.005857	-0.838379	0.446777	0.320801	0.357595	-0.615593	-0.470250	-0.521570
07569		9.545013	0.458721	-1.901756	-0.009778	-0.010456	-0.009154	-0.829834	0.448242	0.319824	0.357430	-0.615696	-0.470232	-0.521578
07570		9.580156	0.407638	-1.891254	-0.006662	-0.013336	-0.012884	-0.843994	0.442139	0.315918	0.357266	-0.615810	-0.470254	-0.521535
07571		9.580920	0.431082	-1.902699	0.004620	-0.012645	-0.014452	-0.838379	0.449707	0.328613	0.357177	-0.615769	-0.470409	-0.521507
07572		9.602201	0.457325	-1.890427	0.015894	-0.006112	-0.013452	-0.838623	0.454346	0.321289	0.357181	-0.615752	-0.470554	-0.521392
07573		9.588249	0.491516	-1.896984	0.017723	-0.005032	-0.010532	-0.838867	0.450195	0.320068	0.357297	-0.615705	-0.470681	-0.521254
07574		9.571861	0.492902	-1.912831	0.015980	-0.002295	-0.009389	-0.846924	0.448975	0.322266	0.357406	-0.615637	-0.470787	-0.521163
07575		9.543238	0.489338	-1.908559	0.012100	-0.003610	-0.010202	-0.841553	0.447754	0.321045	0.357450	-0.615572	-0.470897	-0.521111
07576		9.571918	0.508894	-1.954568	0.006638	-0.005175	-0.014059	-0.843262	0.450684	0.322510	0.357419	-0.615529	-0.471002	-0.521089
07577		9.572115	0.516046	-1.911168	0.005079	-0.003735	-0.012195	-0.832520	0.450439	0.325195	0.357403	-0.615503	-0.471070	-0.521068
07578		9.587141	0.510547	-1.928367	-0.000351	-0.001395	-0.009825	-0.831543	0.444824	0.322998	0.357359	-0.615553	-0.471052	-0.521056
07579		9.577710	0.494497	-1.905589	-0.005380	-0.003062	-0.005951	-0.843994	0.448975	0.310059	0.357276	-0.615637	-0.470991	-0.521069
07580		9.562961	0.462988	-1.909254	-0.003328	-0.002833	-0.008064	-0.836426	0.444580	0.322510	0.357296	-0.615591	-0.470987	-0.521113
07581		9.552396	0.488227	-1.924649	0.001491	-0.001195	-0.010439	-0.833252	0.448730	0.318848	0.357250	-0.615585	-0.471006	-0.521134
07582		9.566120	0.512009	-1.882039	0.000454	0.000503	-0.008757	-0.834473	0.445312	0.317383	0.357262	-0.615582	-0.470988	-0.521146
07583		9.573975	0.515684	-1.910282	-0.008938	-0.001939	-0.004131	-0.833496	0.447021	0.321045	0.357208	-0.615645	-0.470896	-0.521193
07584		9.578154	0.520322	-1.902160	-0.013519	-0.000002	-0.004163	-0.832031	0.448242	0.317627	0.357118	-0.615742	-0.470755	-0.521267
07585		9.587274	0.482971	-1.891756	-0.010020	0.001696	-0.006109	-0.836426	0.444824	0.317627	0.357080	-0.615787	-0.470644	-0.521338
07586		9.572515	0.443116	-1.867153	-0.002964	0.007588	-0.003707	-0.833984	0.444824	0.320557	0.357129	-0.615756	-0.470549	-0.521429
07587		9.565582	0.457860	-1.890829	0.003707	0.001731	-0.003445	-0.839111	0.451172	0.324707	0.357177	-0.615760	-0.470512	-0.521424
07588		9.575829	0.488724	-1.895662	0.009303	0.001725	-0.003842	-0.840332	0.445312	0.320312	0.357273	-0.615754	-0.470507	-0.521369
07589		9.569323	0.507505	-1.875579	0.006871	0.001873	-0.004486	-0.837402	0.447021	0.317627	0.357341	-0.615716	-0.470508	-0.521367
07590		9.570991	0.475105	-1.863391	0.007117	0.002708	-0.004609	-0.841064	0.450928	0.321045	0.357439	-0.615668	-0.470505	-0.521359
07591		9.564735	0.448648	-1.907410	0.009841	0.001095	-0.007564	-0.839600	0.453857	0.316406	0.357527	-0.615617	-0.470543	-0.521325
07592		9.587144	0.485256	-1.932406	0.004313	0.000493	-0.005727	-0.836182	0.455078	0.328369	0.357624	-0.615590	-0.470536	-0.521297
07593		9.572942	0.506225	-1.896999	0.004450	0.006452	-0.002501	-0.833496	0.447510	0.323242	0.357712	-0.615622	-0.470452	-0.521274
07594		9.573550	0.457489	-1.888999	0.006840	0.003283	-0.004551	-0.837158	0.447266	0.319092	0.357775	-0.615619	-0.470427	-0.521256
07595		9.562640	0.419845	-1.914660	0.006835	0.001066	-0.005866	-0.835938	0.448975	0.323730	0.357838	-0.615589	-0.470434	-0.521243
07596		9.571635	0.435253	-1.924326	0.007536	0.002766	-0.007614	-0.841797	0.452637	0.319336	0.357886	-0.615567	-0.470440	-0.521231
07597		9.582821	0.479215	-1.910992	0.011931	0.002129	-0.008304	-0.841309	0.447998	0.322998	0.358002	-0.615489	-0.470494	-0.521194
07598		9.582277	0.468812	-1.870354	0.009718	0.006739	-0.007821	-0.833252	0.452637	0.319092	0.358085	-0.615409	-0.470508	-0.521220
07599		9.567980	0.436892	-1.872295	0.001418	0.002509	-0.007034	-0.833740	0.453125	0.324951	0.358130	-0.615412	-0.470467	-0.521221
07600		9.577020	0.452646	-1.881598	0.006028	0.004119	-0.007910	-0.834229	0.451904	0.320557	0.358182	-0.615410	-0.470447	-0.521206
07601		9.577198	0.454373	-1.880273	0.012015	0.007803	-0.010062	-0.837402	0.446777	0.321045	0.358306	-0.615318	-0.470474	-0.521206
07602		9.574154	0.465462	-1.868632	0.010105	0.008206	-0.010892	-0.838135	0.449707	0.319580	0.358380	-0.615211	-0.470504	-0.521253
07603		9.587435	0.480819	-1.855268	0.001380	0.008871	-0.008077	-0.843750	0.444092	0.313477	0.358432	-0.615153	-0.470451	-0.521334
07604		9.562854	0.472040	-1.871614	0.001633	0.004752	-0.007226	-0.846924	0.447754	0.317139	0.358471	-0.615067	-0.470438	-0.521420
07605		9.562542	0.466041	-1.843934	0.003409	0.005557	-0.009281	-0.840332	0.448486	0.316895	0.358512	-0.614973	-0.470442	-0.521500
07606		9.567370	0.479400	-1.860978	0.000943	0.004894	-0.011304	-0.835938	0.453125	0.320312	0.358522	-0.614905	-0.470436	-0.521579
07607		9.591545	0.484221	-1.873202	0.001376	0.004433	-0.010706	-0.834717	0.448242	0.312744	0.358540	-0.614882	-0.470412	-0.521615
07608		9.582709	0.472203	-1.861993	0.004519	0.005471	-0.008210	-0.840576	0.444336	0.320068	0.358623	-0.614809	-0.470401	-0.521653
07609		9.573946	0.459789	-1.850523	0.002643	0.006679	-0.007663	-0.839111	0.453857	0.317627	0.358639	-0.614756	-0.470367	-0.521735
07610		9.567471	0.479682	-1.829470	0.002155	0.005009	-0.007414	-0.835449	0.448975	0.319092	0.358704	-0.614726	-0.470328	-0.521762
07611		9.567798	0.485568	-1.841701	-0.000555	0.003509	-0.009313	-0.840088	0.458252	0.322998	0.358694	-0.614718	-0.470288	-0.521815
07612		9.590545	0.469990	-1.845880	0.000000	0.002357	-0.009433	-0.843994	0.452881	0.312012	0.358704	-0.614736	-0.470247	-0.521823
07613		9.605265	0.452468	-1.821922	0.001444	0.003826	-0.009268	-0.838867	0.452881	0.318604	0.358767	-0.614661	-0.470240	-0.521874
07614		9.599377	0.426455	-1.865075	0.001021	0.005988	-0.004951	-0.842041	0.443848	0.312744	0.358833	-0.614650	-0.470166	-0.521908
07615		9.575183	0.478584	-1.870277	-0.002367	0.008547	-0.004701	-0.847168	0.448975	0.314209	0.358874	-0.614587	-0.470080	-0.522032
07616		9.577668	0.512609	-1.859008	-0.000432	0.005033	-0.008722	-0.842041	0.442383	0.313965	0.358898	-0.614515	-0.470054	-0.522123
07617		9.565044	0.501706	-1.811352	-0.011682	0.005110	-0.005775	-0.835449	0.448242	0.313232	0.358825	-0.614517	-0.469928	-0.522285
07618		9.567606	0.425441	-1.805565	-0.019782	-0.004864	-0.006895	-0.840332	0.449707	0.316162	0.358659	-0.614638	-0.469791	-0.522380
07619		9.575778	0.438025	-1.861341	-0.010129	-0.006524	-0.010669	-0.837158	0.449951	0.316162	0.358526	-0.614705	-0.469753	-0.522426
07620		9.589552	0.470420	-1.845789	0.001847	0.000346	-0.011362	-0.840088	0.453613	0.315674	0.358524	-0.614678	-0.469764	-0.522449
07621		9.592738	0.463660	-1.855919	0.004658	-0.002385	-0.009268	-0.834961	0.452881	0.313477	0.358562	-0.614664	-0.469792	-0.522415
07622		9.580548	0.464161	-1.849589	0.003644	0.000119	-0.006208	-0.835938	0.451660	0.313477	0.358635	-0.614658	-0.469776	-0.522386
07623		9.580557	0.465423	-1.849224	0.004251	0.003316	-0.005862	-0.838867	0.447510	0.320312	0.358728	-0.614626	-0.469750	-0.522384
07624		9.565409	0.478814	-1.845416	0.004187	0.001702	-0.008620	-0.843262	0.447021	0.320557	0.358731	-0.614611	-0.469742	-0.522405
07625		9.577392	0.481862	-1.851916	0.000381	-0.000235	-0.007991	-0.838623	0.445557	0.319092	0.358693	-0.614618	-0.469719	-0.522444
07626		9.577071	0.483287	-1.909947	-0.000105	-0.001906	-0.007742	-0.833984	0.444336	0.317627	0.358646	-0.614643	-0.469696	-0.522468
07627		9.564214	0.472105	-1.863762	0.004899	0.000667	-0.008081	-0.833252	0.442139	0.312988	0.358653	-0.614631	-0.469693	-0.522480
07628		9.589775	0.438833	-1.852346	0.010634	-0.002747	-0.006902	-0.840576	0.449463	0.320801	0.358706	-0.614599	-0.469744	-0.522435
07629		9.574678	0.455816	-1.862730	0.012927	0.000539	-0.007830	-0.837891	0.445557	0.315674	0.358782	-0.614558	-0.469792	-0.522389
07630		9.571640	0.474256	-1.879602	0.012498	-0.001221	-0.009745	-0.832520	0.449951	0.313965	0.358840	-0.614496	-0.469869	-0.522353
07631		9.585220	0.501667	-1.850598	0.004692	-0.001583	-0.007894	-0.834473	0.442871	0.314697	0.358879	-0.614495	-0.469877	-0.522320
07632		9.571932	0.485942	-1.849183	-0.003114	-0.001945	-0.006042	-0.838379	0.449707	0.311035	0.358828	-0.614531	-0.469824	-0.522359
07633		9.585882	0.459779	-1.857674	-0.003058	-0.002035	-0.008206	-0.838623	0.458496	0.314209	0.358817	-0.614533	-0.469803	-0.522384
07634		9.584529	0.441596	-1.849103	0.004304	0.003225	-0.008032	-0.841553	0.445557	0.321533	0.358921	-0.614494	-0.469795	-0.522366
07635		9.593689	0.461344	-1.871737	0.004738	0.002766	-0.007433	-0.836914	0.446045	0.314941	0.358923	-0.614476	-0.469775	-0.522404
07636		9.593899	0.466729	-1.884668	0.005487	0.000321	-0.006827	-0.835449	0.446533	0.312012	0.358959	-0.614454	-0.469776	-0.522404
07637		9.567065	0.483193	-1.829785	0.004335	0.004032	-0.006655	-0.836182	0.453369	0.313721	0.359028	-0.614403	-0.469757	-0.522433
07638		9.582354	0.472977	-1.832190	0.001506	0.003216	-0.007837	-0.850342	0.454834	0.322510	0.359086	-0.614379	-0.469726	-0.522449
07639		9.565729	0.466385	-1.877566	0.001253	0.002891	-0.011321	-0.841553	0.447998	0.318604	0.359072	-0.614345	-0.469720	-0.522504
07640		9.568909	0.455364	-1.873610	0.002808	0.001840	-0.006037	-0.840332	0.440674	0.321533	0.359088	-0.614341	-0.469686	-0.522529
07641		9.564916	0.457914	-1.894609	0.002642	0.002234	-0.010306	-0.840332	0.449219	0.319336	0.359026	-0.614319	-0.469673	-0.522608
07642		9.576350	0.449339	-1.860800	0.004701	0.004176	-0.007502	-0.832764	0.448242	0.316650	0.359063	-0.614292	-0.469647	-0.522639
07643		9.568384	0.452650	-1.903157	0.008799	0.001101	-0.010821	-0.837646	0.445801	0.319092	0.359102	-0.614253	-0.469683	-0.522625
07644		9.577365	0.469578	-1.855108	0.007439	0.002565	-0.010460	-0.842041	0.445557	0.317627	0.359115	-0.614210	-0.469702	-0.522650
07645		9.581570	0.474903	-1.846384	0.005596	0.002358	-0.009847	-0.832275	0.448730	0.313965	0.359124	-0.614160	-0.469716	-0.522690
07646		9.585446	0.475699	-1.882016	0.004236	0.003821	-0.009486	-0.841797	0.452148	0.315430	0.359168	-0.614122	-0.469704	-0.522715
07647		9.563541	0.446446	-1.869412	0.005654	0.002265	-0.012014	-0.836670	0.446045	0.321533	0.359203	-0.614059	-0.469738	-0.522734
07648		9.568744	0.468286	-1.855916	0.005963	0.002499	-0.010695	-0.837402	0.446533	0.316406	0.359190	-0.614040	-0.469738	-0.522766
07649		9.575156	0.509913	-1.851000	0.008154	0.001531	-0.009923	-0.842285	0.445312	0.315674	0.359223	-0.613994	-0.469767	-0.522771
07650		9.582257	0.498506	-1.825923	0.003850	0.000644	-0.011336	-0.837891	0.450928	0.309082	0.359206	-0.613947	-0.469794	-0.522814
07651		9.592832	0.477938	-1.810427	0.002827	0.003154	-0.008276	-0.840088	0.445557	0.314697	0.359278	-0.613891	-0.469789	-0.522834
07652		9.584540	0.473371	-1.825772	0.001426	0.006027	-0.007982	-0.843262	0.448730	0.317383	0.359302	-0.613842	-0.469748	-0.522912
07653		9.597005	0.480070	-1.844222	0.001368	0.006120	-0.005817	-0.845703	0.451416	0.321777	0.359338	-0.613816	-0.469684	-0.522976
07654		9.581024	0.476977	-1.844061	-0.004395	0.008199	-0.004771	-0.838135	0.456055	0.311279	0.359337	-0.613828	-0.469553	-0.523080
07655		9.558587	0.500037	-1.850919	-0.002500	0.004775	-0.006629	-0.837646	0.440186	0.314941	0.359395	-0.613816	-0.469481	-0.523119
07656		9.573532	0.482149	-1.826487	-0.004865	0.004306	-0.005831	-0.840576	0.446777	0.319580	0.359347	-0.613824	-0.469385	-0.523229
07657		9.586711	0.435817	-1.825030	-0.003937	0.003299	-0.006795	-0.839111	0.444824	0.306885	0.359297	-0.613852	-0.469294	-0.523311
07658		9.561902	0.422723	-1.829159	-0.001465	0.001759	-0.006079	-0.837158	0.454834	0.309570	0.359324	-0.613819	-0.469261	-0.523360
07659		9.590032	0.426374	-1.820207	0.003002	0.004590	-0.009851	-0.844482	0.449951	0.318359	0.359406	-0.613758	-0.469256	-0.523381
07660		9.587892	0.457626	-1.817784	0.009274	0.004995	-0.009769	-0.838867	0.449463	0.319824	0.359467	-0.613687	-0.469274	-0.523405
07661		9.604736	0.471863	-1.841406	0.008279	0.006600	-0.010255	-0.831055	0.450928	0.316650	0.359517	-0.613631	-0.469266	-0.523444
07662		9.596148	0.459374	-1.829641	0.007010	0.008273	-0.007069	-0.835449	0.446045	0.311279	0.359609	-0.613597	-0.469213	-0.523468
07663		9.573293	0.473868	-1.867308	0.004171	0.009668	-0.006942	-0.841797	0.445312	0.313232	0.359696	-0.613522	-0.469162	-0.523542
07664		9.546073	0.482193	-1.841997	-0.001733	0.009402	-0.007872	-0.835693	0.455566	0.313232	0.359714	-0.613463	-0.469086	-0.523667
07665		9.530185	0.483806	-1.855686	-0.004468	-0.000001	-0.009307	-0.843994	0.440186	0.321533	0.359690	-0.613501	-0.469026	-0.523693
07666		9.568698	0.465734	-1.832599	-0.004913	-0.002578	-0.012601	-0.844727	0.452148	0.311523	0.359516	-0.613537	-0.468998	-0.523795
07667		9.587318	0.452985	-1.802208	-0.005925	-0.007544	-0.014856	-0.843750	0.449707	0.315186	0.359397	-0.613559	-0.469031	-0.523821
07668		9.628155	0.479462	-1.810575	-0.003569	-0.005357	-0.010729	-0.838623	0.447266	0.310791	0.359307	-0.613599	-0.469025	-0.523842
07669		9.619118	0.467668	-1.801096	0.001803	0.000409	-0.009225	-0.847900	0.449219	0.315186	0.359318	-0.613572	-0.469024	-0.523867
07670		9.605377	0.436210	-1.745077	0.005426	0.009715	-0.005204	-0.850830	0.451904	0.318359	0.359421	-0.613493	-0.468975	-0.523933
07671		9.578302	0.447240	-1.791117	0.008889	0.007078	-0.007616	-0.828857	0.443115	0.312256	0.359512	-0.613414	-0.468970	-0.523968
07672		9.588905	0.491012	-1.834708	0.003548	0.005658	-0.008665	-0.832764	0.446045	0.312012	0.359540	-0.613381	-0.468929	-0.524023
07673		9.598575	0.519521	-1.825260	0.005349	0.007278	-0.009348	-0.840088	0.451660	0.319336	0.359601	-0.613319	-0.468903	-0.524077
07674		9.573554	0.498830	-1.801757	0.001099	0.008004	-0.008006	-0.838623	0.453369	0.315918	0.359625	-0.613304	-0.468819	-0.524153
07675		9.571041	0.451820	-1.814522	0.001925	0.004967	-0.005944	-0.841797	0.441162	0.319336	0.359675	-0.613308	-0.468745	-0.524181
07676		9.570632	0.444795	-1.845297	0.003785	-0.000580	-0.006943	-0.839844	0.448242	0.316406	0.359633	-0.613326	-0.468721	-0.524210
07677		9.583489	0.463781	-1.847311	0.010271	-0.000140	-0.008365	-0.833984	0.456055	0.321045	0.359678	-0.613303	-0.468748	-0.524182
07678		9.593969	0.513068	-1.789962	0.008098	0.002134	-0.011382	-0.844971	0.444824	0.317383	0.359703	-0.613310	-0.468737	-0.524166
07679		9.596951	0.498400	-1.772922	-0.002963	0.000865	-0.007702	-0.844727	0.453613	0.313721	0.359638	-0.613330	-0.468679	-0.524239
07680		9.587012	0.465406	-1.811941	-0.010123	0.000041	-0.006757	-0.847168	0.443848	0.309082	0.359572	-0.613390	-0.468571	-0.524311
07681		9.573349	0.437333	-1.827997	-0.004587	0.000175	-0.004979	-0.837402	0.449463	0.312012	0.359550	-0.613388	-0.468519	-0.524375
07682		9.578022	0.454644	-1.802087	0.002176	-0.002990	-0.009151	-0.835205	0.441895	0.315918	0.359539	-0.613403	-0.468520	-0.524364
07683		9.577883	0.456683	-1.802307	0.002199	0.001358	-0.008697	-0.842285	0.440430	0.314697	0.359507	-0.613406	-0.468489	-0.524410
07684		9.578646	0.474690	-1.797697	0.003156	-0.002370	-0.007353	-0.834229	0.448486	0.314941	0.359472	-0.613409	-0.468492	-0.524429
07685		9.606899	0.486331	-1.816742	0.001786	-0.003946	-0.009687	-0.832764	0.445557	0.317383	0.359429	-0.613450	-0.468482	-0.524418
07686		9.598409	0.482640	-1.775601	0.001634	0.002504	-0.008583	-0.838623	0.449463	0.316406	0.359407	-0.613469	-0.468425	-0.524463
07687		9.600213	0.442872	-1.794321	0.001573	0.002600	-0.006414	-0.833984	0.445801	0.313965	0.359419	-0.613484	-0.468361	-0.524493
07688		9.588673	0.451007	-1.813451	0.003066	0.003984	-0.008420	-0.833740	0.456299	0.306396	0.359437	-0.613467	-0.468320	-0.524537
07689		9.570821	0.489858	-1.794424	-0.001947	0.007141	-0.007693	-0.838623	0.442871	0.318604	0.359515	-0.613436	-0.468239	-0.524592
07690		9.587620	0.503938	-1.818122	0.000618	0.002792	-0.006833	-0.842285	0.444336	0.320801	0.359482	-0.613454	-0.468172	-0.524654
07691		9.588784	0.452549	-1.797053	-0.001531	0.002339	-0.007544	-0.835938	0.450195	0.316406	0.359419	-0.613484	-0.468095	-0.524730
07692		9.584286	0.442713	-1.835816	0.002546	0.003721	-0.008237	-0.845215	0.449219	0.312012	0.359433	-0.613488	-0.468037	-0.524768
07693		9.573928	0.475538	-1.819241	0.005870	0.000470	-0.007689	-0.838135	0.447021	0.316162	0.359479	-0.613452	-0.468051	-0.524766
07694		9.573545	0.473362	-1.806366	0.004614	-0.003113	-0.008503	-0.839844	0.443115	0.310303	0.359458	-0.613477	-0.468050	-0.524752
07695		9.606548	0.500704	-1.799175	-0.001137	-0.003279	-0.008776	-0.841309	0.445557	0.320801	0.359408	-0.613486	-0.468048	-0.524777
07696		9.597035	0.476370	-1.807320	-0.001707	0.001403	-0.009589	-0.844238	0.448242	0.321045	0.359330	-0.613516	-0.467986	-0.524852
07697		9.586961	0.440205	-1.775241	0.000792	0.000687	-0.007486	-0.837891	0.441895	0.313232	0.359289	-0.613549	-0.467928	-0.524892
07698		9.590638	0.436809	-1.798296	0.004004	-0.000557	-0.008460	-0.839111	0.450928	0.312500	0.359279	-0.613537	-0.467931	-0.524911
07699		9.579106	0.448803	-1.831784	0.005678	-0.001774	-0.007495	-0.837646	0.448242	0.318604	0.359314	-0.613540	-0.467932	-0.524882
07700		9.593045	0.492639	-1.797994	0.004960	-0.000748	-0.008042	-0.838135	0.446533	0.318359	0.359304	-0.613567	-0.467905	-0.524881
07701		9.597481	0.505485	-1.816570	0.002811	-0.001204	-0.008752	-0.828613	0.448730	0.318848	0.359267	-0.613597	-0.467877	-0.524897
07702		9.596668	0.495700	-1.777143	-0.000723	-0.001513	-0.006862	-0.838623	0.449951	0.315918	0.359214	-0.613689	-0.467783	-0.524910
07703		9.586197	0.450716	-1.776731	0.001074	0.000111	-0.007547	-0.838379	0.448975	0.310791	0.359203	-0.613716	-0.467732	-0.524930
07704		9.594261	0.454452	-1.804683	0.003154	0.001162	-0.008289	-0.837891	0.449951	0.312256	0.359234	-0.613696	-0.467719	-0.524945
07705		9.593625	0.443715	-1.822513	0.004699	0.000639	-0.006605	-0.840088	0.449951	0.312744	0.359278	-0.613693	-0.467695	-0.524939
07706		9.578804	0.468970	-1.801163	0.005088	0.001595	-0.006071	-0.839111	0.442871	0.317627	0.359333	-0.613681	-0.467669	-0.524939
07707		9.580101	0.494201	-1.822262	0.002196	0.004388	-0.006016	-0.831787	0.449219	0.313721	0.359334	-0.613678	-0.467605	-0.524998
07708		9.568417	0.502967	-1.783950	-0.004759	-0.000779	-0.007029	-0.837646	0.442627	0.322266	0.359282	-0.613749	-0.467509	-0.525038
07709		9.588635	0.435237	-1.790488	-0.005181	-0.006898	-0.009398	-0.836914	0.453613	0.314941	0.359113	-0.613860	-0.467451	-0.525075
07710		9.602369	0.402095	-1.773693	0.001267	-0.008566	-0.009964	-0.831787	0.447266	0.317383	0.359052	-0.613936	-0.467450	-0.525028
07711		9.599799	0.441067	-1.800745	0.005516	-0.006242	-0.008616	-0.846436	0.454346	0.309814	0.359015	-0.613999	-0.467448	-0.524982
07712		9.612738	0.468713	-1.772442	0.010757	-0.001983	-0.007710	-0.844482	0.440186	0.312012	0.359113	-0.613950	-0.467507	-0.524920
07713		9.588650	0.471446	-1.773114	0.007134	-0.002515	-0.008653	-0.833740	0.450684	0.306152	0.359122	-0.613902	-0.467572	-0.524912
07714		9.576788	0.479437	-1.793761	0.004404	-0.003137	-0.007004	-0.845215	0.449463	0.314209	0.359173	-0.613903	-0.467580	-0.524869
07715		9.583391	0.459227	-1.801301	0.004693	-0.006751	-0.009757	-0.834717	0.442871	0.312256	0.359145	-0.613916	-0.467626	-0.524831
07716		9.595283	0.466429	-1.822528	0.005706	-0.004000	-0.008818	-0.843506	0.454102	0.313965	0.359136	-0.613918	-0.467656	-0.524808
07717		9.575276	0.472663	-1.815224	0.001972	-0.003024	-0.007656	-0.840576	0.444336	0.321777	0.359138	-0.613944	-0.467639	-0.524793
07718		9.579351	0.481385	-1.821237	-0.002032	-0.005009	-0.005506	-0.836914	0.442139	0.318359	0.359042	-0.614040	-0.467570	-0.524806
07719		9.563474	0.494568	-1.820082	-0.002532	-0.011848	-0.007084	-0.845947	0.447754	0.322510	0.358904	-0.614162	-0.467552	-0.524775
07720		9.569547	0.470702	-1.816180	-0.000662	-0.013857	-0.009015	-0.839111	0.449219	0.318359	0.358755	-0.614282	-0.467564	-0.524725
07721		9.592158	0.460521	-1.779698	-0.001557	-0.013770	-0.011608	-0.845215	0.447266	0.317627	0.358608	-0.614390	-0.467587	-0.524679
07722		9.606367	0.443448	-1.817616	0.002308	-0.015440	-0.013496	-0.833496	0.443604	0.318115	0.358471	-0.614454	-0.467682	-0.524612
07723		9.617267	0.439943	-1.801260	0.004194	-0.013592	-0.011349	-0.842285	0.451172	0.320801	0.358359	-0.614537	-0.467742	-0.524539
07724		9.624452	0.436084	-1.805195	0.009813	-0.005324	-0.007218	-0.835693	0.448486	0.314453	0.358376	-0.614567	-0.467764	-0.524472
07725		9.613125	0.455941	-1.807942	0.009970	-0.000852	-0.006104	-0.840576	0.447510	0.319336	0.358451	-0.614555	-0.467775	-0.524425
07726		9.577863	0.472915	-1.796768	0.010205	-0.000016	-0.006233	-0.841797	0.448975	0.313232	0.358505	-0.614544	-0.467779	-0.524397
07727		9.557531	0.469997	-1.820296	0.012644	-0.003172	-0.008283	-0.843506	0.445801	0.320801	0.358582	-0.614501	-0.467854	-0.524329
07728		9.564679	0.461157	-1.867495	0.012235	-0.004949	-0.010202	-0.841064	0.441650	0.318359	0.358585	-0.614486	-0.467929	-0.524277
07729		9.564221	0.462934	-1.869396	0.014147	-0.009676	-0.009820	-0.838135	0.442627	0.314941	0.358579	-0.614481	-0.468049	-0.524179
07730		9.551728	0.466900	-1.878799	0.009913	-0.012501	-0.007534	-0.829834	0.444092	0.314941	0.358558	-0.614521	-0.468142	-0.524065
07731		9.579695	0.487494	-1.869630	0.006925	-0.017338	-0.013458	-0.840088	0.445557	0.322510	0.358448	-0.614595	-0.468257	-0.523949
07732		9.610527	0.480497	-1.803814	0.004668	-0.011936	-0.011610	-0.836426	0.450928	0.319824	0.358335	-0.614666	-0.468311	-0.523895
07733		9.592860	0.458040	-1.799482	-0.001404	-0.010628	-0.008248	-0.835449	0.448486	0.317383	0.358233	-0.614783	-0.468283	-0.523853
07734		9.595931	0.450932	-1.811364	-0.001638	-0.007112	-0.007669	-0.841064	0.448730	0.314941	0.358160	-0.614864	-0.468249	-0.523838
07735		9.587461	0.453844	-1.855886	0.002717	-0.006289	-0.008438	-0.838623	0.446777	0.318115	0.358138	-0.614888	-0.468272	-0.523805
07736		9.599545	0.465700	-1.832969	0.007124	-0.006875	-0.009137	-0.833496	0.445557	0.322510	0.358119	-0.614909	-0.468316	-0.523753
07737		9.567391	0.470142	-1.819803	0.004341	-0.007395	-0.005302	-0.842285	0.442139	0.316406	0.358074	-0.615002	-0.468285	-0.523703
07738		9.570734	0.469915	-1.858162	0.003567	-0.009316	-0.006370	-0.843750	0.438965	0.315186	0.358033	-0.615042	-0.468326	-0.523648
07739		9.586402	0.476261	-1.858847	0.008497	-0.008332	-0.009505	-0.830566	0.448730	0.320312	0.358015	-0.615016	-0.468437	-0.523590
07740		9.561954	0.475028	-1.847350	0.009061	-0.006431	-0.006927	-0.842041	0.450439	0.323242	0.358020	-0.615074	-0.468440	-0.523516
07741		9.576900	0.464821	-1.852843	0.004995	-0.012184	-0.006665	-0.833740	0.452148	0.321289	0.357957	-0.615175	-0.468455	-0.523428
07742		9.591145	0.446254	-1.890476	0.006866	-0.014196	-0.008604	-0.841064	0.454346	0.313721	0.357895	-0.615284	-0.468489	-0.523311
07743		9.570646	0.448532	-1.871936	0.010311	-0.010242	-0.009274	-0.839111	0.451416	0.313721	0.357927	-0.615293	-0.468585	-0.523193
07744		9.582681	0.463850	-1.863289	0.015699	-0.010193	-0.008181	-0.842529	0.453125	0.322510	0.358001	-0.615282	-0.468710	-0.523043
07745		9.570130	0.463686	-1.859143	0.010774	-0.009874	-0.007290	-0.842041	0.453369	0.316162	0.358005	-0.615334	-0.468760	-0.522935
07746		9.561900	0.474535	-1.873485	0.004712	-0.011617	-0.006611	-0.836914	0.454590	0.315674	0.357989	-0.615397	-0.468801	-0.522834
07747		9.589416	0.482279	-1.881603	0.002927	-0.011945	-0.008163	-0.837158	0.449463	0.318848	0.357951	-0.615474	-0.468831	-0.522742
07748		9.571118	0.439033	-1.868355	0.004087	-0.009062	-0.006566	-0.839111	0.451660	0.319580	0.357923	-0.615540	-0.468844	-0.522673
07749		9.570630	0.440496	-1.870512	0.003647	-0.008613	-0.007170	-0.837646	0.449219	0.316406	0.357893	-0.615602	-0.468853	-0.522611
07750		9.573774	0.436602	-1.895647	0.011239	-0.008201	-0.007560	-0.839844	0.446045	0.321289	0.357932	-0.615609	-0.468931	-0.522508
07751		9.590179	0.458710	-1.891616	0.010227	-0.007909	-0.005799	-0.832520	0.449707	0.312256	0.357944	-0.615639	-0.468978	-0.522421
07752		9.562327	0.469865	-1.883451	0.004135	-0.006119	-0.006048	-0.832031	0.447754	0.324951	0.357970	-0.615666	-0.468993	-0.522358
07753		9.538143	0.479810	-1.911511	-0.001563	-0.007725	-0.006213	-0.835938	0.454346	0.312988	0.357875	-0.615785	-0.468928	-0.522342
07754		9.556339	0.445831	-1.873991	0.002596	-0.014325	-0.008630	-0.839111	0.450195	0.327881	0.357834	-0.615859	-0.468988	-0.522229
07755		9.573760	0.407566	-1.882186	0.007891	-0.017560	-0.013086	-0.831055	0.451416	0.324219	0.357705	-0.615957	-0.469084	-0.522116
07756		9.601672	0.432347	-1.886982	0.012214	-0.015801	-0.010311	-0.834473	0.447266	0.319580	0.357658	-0.616044	-0.469174	-0.521964
07757		9.590950	0.481170	-1.870108	0.011900	-0.014297	-0.006691	-0.830078	0.455322	0.325195	0.357655	-0.616104	-0.469266	-0.521813
07758		9.590952	0.490802	-1.841854	0.012277	-0.008978	-0.005711	-0.838379	0.446533	0.319824	0.357684	-0.616185	-0.469278	-0.521686
07759		9.585673	0.476271	-1.869781	0.006542	-0.005750	-0.009054	-0.822266	0.460693	0.317627	0.357675	-0.616187	-0.469327	-0.521647
07760		9.555807	0.450373	-1.915462	0.009455	-0.009838	-0.006881	-0.836914	0.443604	0.325684	0.357716	-0.616273	-0.469337	-0.521507
07761		9.591118	0.448272	-1.911537	0.018444	-0.008753	-0.008522	-0.833252	0.456055	0.316406	0.357749	-0.616267	-0.469452	-0.521387
07762		9.566847	0.453416	-1.926420	0.021571	-0.004585	-0.003335	-0.832520	0.454834	0.324219	0.357936	-0.616241	-0.469534	-0.521216
07763		9.543379	0.470705	-1.922757	0.020607	-0.003104	-0.006001	-0.842529	0.453125	0.320312	0.358066	-0.616230	-0.469592	-0.521089
07764		9.555063	0.480095	-1.957473	0.020046	-0.006319	-0.006332	-0.839844	0.448486	0.318604	0.358187	-0.616193	-0.469706	-0.520946
07765		9.546223	0.470169	-1.962378	0.015309	-0.008113	-0.006072	-0.841064	0.448975	0.314697	0.358258	-0.616180	-0.469807	-0.520821
07766		9.558368	0.481170	-1.940048	0.014867	-0.007667	-0.006677	-0.838379	0.447998	0.319824	0.358343	-0.616143	-0.469927	-0.520699
07767		9.569966	0.472169	-1.908417	0.011694	-0.003482	-0.005159	-0.837646	0.452637	0.334961	0.358411	-0.616130	-0.469969	-0.520629
07768		9.556354	0.442544	-1.925583	0.004870	-0.008455	-0.003261	-0.829834	0.453857	0.322021	0.358350	-0.616270	-0.469899	-0.520569
07769		9.555204	0.430536	-1.945722	0.005730	-0.010176	-0.003439	-0.835693	0.451904	0.326660	0.358345	-0.616377	-0.469881	-0.520461
07770		9.556737	0.472739	-1.907559	0.010018	-0.006640	-0.006563	-0.836426	0.447998	0.320068	0.358350	-0.616426	-0.469897	-0.520386
07771		9.558513	0.417111	-1.875314	0.012855	-0.010140	-0.005847	-0.842773	0.453857	0.325195	0.358383	-0.616448	-0.469981	-0.520260
07772		9.553012	0.402215	-1.904190	0.011541	-0.013161	-0.008102	-0.831299	0.451172	0.323242	0.358365	-0.616501	-0.470068	-0.520131
07773		9.569756	0.444699	-1.910347	0.016179	-0.012908	-0.008965	-0.830811	0.451660	0.327637	0.358379	-0.616540	-0.470179	-0.519975
07774		9.604933	0.442597	-1.907319	0.018642	-0.012183	-0.006955	-0.833740	0.456543	0.326416	0.358410	-0.616596	-0.470267	-0.519808
07775		9.566558	0.386615	-1.890146	0.013948	-0.011029	-0.006169	-0.830566	0.456543	0.322021	0.358434	-0.616666	-0.470316	-0.519664
07776		9.577378	0.376370	-1.916777	0.018429	-0.004417	-0.008125	-0.825684	0.464844	0.329102	0.358538	-0.616648	-0.470392	-0.519545
07777		9.581257	0.388155	-1.936461	0.028376	-0.003519	-0.009389	-0.836182	0.453369	0.318359	0.358699	-0.616632	-0.470480	-0.519373
07778		9.561956	0.413001	-1.937878	0.030036	-0.002483	-0.007132	-0.839600	0.455322	0.322998	0.358920	-0.616519	-0.470650	-0.519201
07779		9.565896	0.424440	-1.957274	0.028164	-0.002243	-0.010138	-0.833984	0.451904	0.324219	0.359090	-0.616412	-0.470813	-0.519062
07780		9.554403	0.444010	-1.959883	0.025177	-0.000169	-0.009269	-0.839844	0.455322	0.315430	0.359240	-0.616323	-0.470930	-0.518958
07781		9.561348	0.426730	-1.979675	0.021993	-0.001174	-0.009571	-0.826172	0.451660	0.324463	0.359404	-0.616207	-0.471076	-0.518850
07782		9.558879	0.477148	-1.987974	0.013251	0.000702	-0.008900	-0.840332	0.457275	0.317871	0.359463	-0.616189	-0.471089	-0.518819
07783		9.550440	0.464721	-1.977527	0.007185	0.000243	-0.010427	-0.836670	0.461670	0.321289	0.359507	-0.616140	-0.471125	-0.518814
07784		9.553248	0.434063	-1.965471	0.002436	-0.003673	-0.009269	-0.838135	0.453613	0.317383	0.359491	-0.616178	-0.471107	-0.518796
07785		9.549529	0.438100	-1.929923	0.003182	-0.002572	-0.009599	-0.834229	0.448486	0.315674	0.359486	-0.616166	-0.471129	-0.518794
07786		9.548618	0.423981	-1.935328	0.002339	-0.005215	-0.009856	-0.832520	0.453125	0.320068	0.359454	-0.616166	-0.471167	-0.518781
07787		9.577067	0.441438	-1.910935	-0.000435	-0.004420	-0.008242	-0.831543	0.452637	0.317871	0.359406	-0.616214	-0.471140	-0.518781
07788		9.576351	0.419944	-1.889274	0.002546	-0.000013	-0.009560	-0.832031	0.454102	0.316650	0.359408	-0.616204	-0.471132	-0.518800
07789		9.600263	0.424706	-1.902196	0.006092	0.006323	-0.008305	-0.832275	0.449951	0.319580	0.359491	-0.616141	-0.471112	-0.518836
07790		9.564027	0.412677	-1.911305	0.005552	0.007015	-0.004547	-0.837402	0.452881	0.324463	0.359575	-0.616103	-0.471050	-0.518878
07791		9.540770	0.441678	-1.945386	0.008290	0.003268	-0.006671	-0.832520	0.456055	0.320312	0.359629	-0.616081	-0.471023	-0.518892
07792		9.540726	0.439562	-1.932159	0.010032	-0.003253	-0.009713	-0.837402	0.449951	0.320312	0.359662	-0.616074	-0.471061	-0.518842
07793		9.551716	0.422813	-1.931626	0.008950	-0.008855	-0.008959	-0.839844	0.450195	0.321045	0.359646	-0.616091	-0.471134	-0.518768
07794		9.567630	0.422375	-1.904887	0.014908	-0.000041	-0.011603	-0.836670	0.455322	0.324219	0.359709	-0.616006	-0.471227	-0.518740
07795		9.559663	0.440726	-1.943074	0.013935	0.003217	-0.009325	-0.833008	0.456299	0.312500	0.359794	-0.615948	-0.471251	-0.518727
07796		9.546874	0.435424	-1.980890	0.005324	-0.004223	-0.008045	-0.843262	0.458984	0.319336	0.359829	-0.615945	-0.471286	-0.518676
07797		9.593802	0.419336	-1.987011	0.006490	-0.004399	-0.009156	-0.837891	0.452637	0.315674	0.359842	-0.615942	-0.471324	-0.518635
07798		9.558093	0.409654	-1.939732	0.012046	0.006528	-0.009643	-0.833984	0.449219	0.324219	0.359961	-0.615826	-0.471369	-0.518651
07799		9.542651	0.426374	-1.948713	0.003638	0.004290	-0.008067	-0.837402	0.455078	0.326904	0.359965	-0.615812	-0.471314	-0.518713
07800		9.538239	0.432271	-1.983458	-0.000824	-0.004118	-0.011029	-0.838867	0.450684	0.315186	0.359868	-0.615870	-0.471277	-0.518746
07801		9.575017	0.461245	-1.955900	-0.006639	-0.002918	-0.011305	-0.831299	0.460449	0.317627	0.359774	-0.615882	-0.471263	-0.518809
07802		9.571499	0.459227	-1.893009	-0.013899	0.001150	-0.011289	-0.834961	0.460449	0.324951	0.359658	-0.615945	-0.471142	-0.518926
07803		9.565950	0.429885	-1.923398	-0.021064	-0.003965	-0.008488	-0.832764	0.458496	0.316895	0.359445	-0.616112	-0.470951	-0.519048
07804		9.576650	0.394551	-1.912950	-0.019288	-0.002336	-0.009211	-0.831055	0.451904	0.320312	0.359282	-0.616222	-0.470805	-0.519162
07805		9.587925	0.378966	-1.911093	-0.007999	-0.000627	-0.009557	-0.833496	0.457031	0.322021	0.359186	-0.616275	-0.470719	-0.519243
07806		9.569852	0.434450	-1.888891	0.004510	0.004698	-0.009118	-0.831299	0.457031	0.314453	0.359226	-0.616250	-0.470678	-0.519283
07807		9.554633	0.478795	-1.933707	0.003300	0.003204	-0.010778	-0.833984	0.462158	0.321289	0.359268	-0.616203	-0.470676	-0.519311
07808		9.558362	0.461171	-1.903093	0.000399	-0.000501	-0.010256	-0.841553	0.460205	0.315430	0.359251	-0.616229	-0.470637	-0.519328
07809		9.565346	0.448810	-1.935920	0.002682	-0.000723	-0.010295	-0.834229	0.451416	0.326660	0.359272	-0.616201	-0.470656	-0.519330
07810		9.552210	0.416950	-1.938249	0.002611	-0.001431	-0.009496	-0.838379	0.457520	0.322266	0.359226	-0.616231	-0.470621	-0.519357
07811		9.563968	0.420437	-1.945430	0.005566	-0.001257	-0.009066	-0.834473	0.447998	0.321289	0.359240	-0.616232	-0.470620	-0.519347
07812		9.556230	0.420911	-1.917142	0.017426	0.002718	-0.012669	-0.835693	0.462402	0.325195	0.359327	-0.616122	-0.470716	-0.519330
07813		9.545268	0.457428	-1.914435	0.021584	0.002268	-0.009706	-0.836182	0.445801	0.315674	0.359478	-0.616051	-0.470783	-0.519250
07814		9.557313	0.487686	-1.957305	0.016424	-0.004301	-0.011836	-0.839844	0.454102	0.319824	0.359538	-0.615967	-0.470925	-0.519179
07815		9.572737	0.471104	-1.934877	0.015484	-0.003290	-0.010864	-0.841064	0.445801	0.316162	0.359604	-0.615910	-0.471027	-0.519108
07816		9.563208	0.429220	-1.947247	0.015683	-0.001488	-0.007434	-0.839600	0.448242	0.320068	0.359701	-0.615830	-0.471124	-0.519048
07817		9.563125	0.430242	-1.947428	0.009597	0.001111	-0.006265	-0.831787	0.452881	0.324707	0.359762	-0.615792	-0.471137	-0.519039
07818		9.551399	0.457348	-1.976280	0.001963	-0.001005	-0.008585	-0.840332	0.451416	0.315186	0.359727	-0.615830	-0.471087	-0.519063
07819		9.561173	0.515211	-1.946916	0.001114	0.001551	-0.007026	-0.845703	0.450684	0.314941	0.359747	-0.615805	-0.471069	-0.519095
07820		9.568091	0.471430	-1.930443	-0.008766	-0.000792	-0.005657	-0.838867	0.453613	0.323975	0.359686	-0.615836	-0.470998	-0.519166
07821		9.566130	0.400660	-1.921744	-0.015917	-0.003798	-0.003723	-0.832764	0.455811	0.317871	0.359534	-0.615985	-0.470823	-0.519254
07822		9.573176	0.384284	-1.941608	-0.006300	-0.001846	-0.008605	-0.829102	0.453613	0.320557	0.359466	-0.616038	-0.470754	-0.519299
07823		9.581965	0.409588	-1.920993	0.005099	0.002261	-0.006988	-0.827637	0.450439	0.321777	0.359506	-0.616037	-0.470713	-0.519310
07824		9.598041	0.415736	-1.919619	0.008785	-0.000693	-0.005134	-0.829590	0.454102	0.315918	0.359556	-0.616054	-0.470689	-0.519277
07825		9.571003	0.443042	-1.904905	0.001944	0.004198	-0.006775	-0.834961	0.452393	0.318604	0.359604	-0.616038	-0.470637	-0.519310
07826		9.566389	0.428214	-1.929756	0.002906	0.004022	-0.006366	-0.842773	0.457520	0.317383	0.359645	-0.616019	-0.470588	-0.519349
07827		9.554079	0.415579	-1.939538	0.009519	0.005927	-0.009491	-0.836182	0.452393	0.314941	0.359744	-0.615926	-0.470612	-0.519369
07828		9.545855	0.410301	-1.954641	0.006561	0.003629	-0.009042	-0.842773	0.451660	0.320801	0.359807	-0.615861	-0.470627	-0.519389
07829		9.554020	0.429989	-1.977906	0.007433	0.001910	-0.009217	-0.836914	0.456543	0.327393	0.359840	-0.615813	-0.470641	-0.519410
07830		9.559140	0.467980	-1.960549	0.008329	0.003145	-0.008887	-0.841064	0.457520	0.319092	0.359872	-0.615801	-0.470609	-0.519431
07831		9.563023	0.449642	-1.929754	0.007003	0.001070	-0.007558	-0.832520	0.448486	0.321045	0.359926	-0.615775	-0.470610	-0.519423
07832		9.558821	0.447768	-1.937576	0.004119	0.001595	-0.008789	-0.840576	0.453369	0.318604	0.359925	-0.615765	-0.470584	-0.519459
07833		9.558942	0.442600	-1.910612	-0.001189	0.000925	-0.008378	-0.835693	0.457764	0.314209	0.359902	-0.615766	-0.470545	-0.519510
07834		9.570021	0.410152	-1.912458	0.001594	0.002252	-0.010880	-0.833740	0.450684	0.319580	0.359919	-0.615729	-0.470543	-0.519543
07835		9.566020	0.401946	-1.893253	-0.000019	0.002867	-0.010374	-0.834961	0.449219	0.322021	0.359894	-0.615715	-0.470502	-0.519614
07836		9.577363	0.396671	-1.930522	0.005871	0.002392	-0.010902	-0.832275	0.455322	0.319092	0.359894	-0.615681	-0.470498	-0.519658
07837		9.589714	0.423919	-1.958384	0.014225	0.009021	-0.012066	-0.833984	0.462402	0.319580	0.360015	-0.615561	-0.470530	-0.519688
07838		9.558769	0.448383	-1.949933	0.009180	0.010862	-0.009024	-0.838623	0.456299	0.324707	0.360140	-0.615479	-0.470490	-0.519734
07839		9.558652	0.437376	-1.965392	0.003424	0.008513	-0.008338	-0.837891	0.460938	0.322510	0.360177	-0.615447	-0.470408	-0.519821
07840		9.542955	0.430674	-1.951365	0.005914	0.008296	-0.009901	-0.837891	0.444336	0.316162	0.360239	-0.615395	-0.470358	-0.519884
07841		9.555729	0.440133	-1.912130	0.009124	0.006228	-0.012301	-0.841309	0.450439	0.318115	0.360287	-0.615281	-0.470401	-0.519947
07842		9.563766	0.430334	-1.885996	0.005688	0.002689	-0.015226	-0.830811	0.449707	0.314941	0.360273	-0.615200	-0.470450	-0.520009
07843		9.562935	0.400770	-1.894179	0.001290	0.001975	-0.012217	-0.840576	0.447266	0.317871	0.360252	-0.615168	-0.470446	-0.520066
07844		9.583618	0.455878	-1.916068	-0.000359	-0.001206	-0.013599	-0.829346	0.461182	0.320557	0.360173	-0.615146	-0.470461	-0.520132
07845		9.608133	0.464343	-1.871143	-0.004222	0.007644	-0.012938	-0.836426	0.452881	0.313965	0.360141	-0.615138	-0.470362	-0.520253
07846		9.596257	0.445493	-1.852867	-0.012827	0.012255	-0.005252	-0.830566	0.454102	0.324707	0.360127	-0.615135	-0.470176	-0.520434
07847		9.575818	0.406143	-1.867742	-0.013204	0.013397	-0.006665	-0.833740	0.454590	0.315918	0.360069	-0.615173	-0.469933	-0.520649
07848		9.555920	0.414123	-1.927126	-0.006522	0.013900	-0.009713	-0.839111	0.455322	0.310791	0.360080	-0.615121	-0.469798	-0.520825
07849		9.576899	0.449122	-1.936835	-0.000285	0.012727	-0.012482	-0.841064	0.452148	0.318604	0.360135	-0.615003	-0.469761	-0.520960
07850		9.565831	0.466579	-1.922576	0.000331	0.013260	-0.009825	-0.827637	0.452393	0.315674	0.360177	-0.614919	-0.469675	-0.521107
07851		9.549466	0.434758	-1.943101	-0.003291	0.010556	-0.009845	-0.832275	0.451416	0.316650	0.360187	-0.614884	-0.469566	-0.521239
07852		9.542164	0.462954	-1.948698	-0.004797	0.004555	-0.011066	-0.839600	0.445312	0.312256	0.360135	-0.614883	-0.469488	-0.521347
07853		9.554119	0.429632	-1.878758	0.000941	0.003959	-0.012249	-0.837158	0.457275	0.316895	0.360121	-0.614814	-0.469497	-0.521430
07854		9.570124	0.441496	-1.890071	0.001873	0.002109	-0.014611	-0.840088	0.450928	0.323975	0.360095	-0.614778	-0.469502	-0.521486
07855		9.586571	0.462807	-1.870193	-0.000913	0.005005	-0.013881	-0.833252	0.452637	0.308838	0.360028	-0.614754	-0.469449	-0.521608
07856		9.598328	0.444097	-1.853589	-0.005173	0.003577	-0.011597	-0.830078	0.456787	0.311768	0.359998	-0.614729	-0.469411	-0.521693
07857		9.590292	0.436009	-1.855020	-0.003002	0.007864	-0.009023	-0.831787	0.450195	0.322510	0.360024	-0.614703	-0.469325	-0.521782
07858		9.589923	0.409447	-1.874905	-0.000803	0.010339	-0.011413	-0.835693	0.458252	0.319824	0.360010	-0.614669	-0.469221	-0.521926
07859		9.574699	0.419557	-1.855562	0.002537	0.014455	-0.009951	-0.842529	0.452393	0.313232	0.360082	-0.614595	-0.469119	-0.522055
07860		9.567640	0.447354	-1.859675	0.005477	0.013806	-0.010904	-0.835449	0.451904	0.310791	0.360178	-0.614462	-0.469091	-0.522169
07861		9.564494	0.482360	-1.869773	0.003477	0.008375	-0.010543	-0.833740	0.456055	0.316650	0.360237	-0.614381	-0.469069	-0.522245
07862		9.576366	0.470358	-1.879034	-0.003764	0.007188	-0.012359	-0.835449	0.457275	0.309570	0.360207	-0.614360	-0.468986	-0.522364
07863		9.576937	0.482584	-1.846117	-0.005228	0.007930	-0.011192	-0.834961	0.450684	0.310059	0.360207	-0.614321	-0.468913	-0.522476
07864		9.580156	0.420137	-1.840256	-0.007581	0.007432	-0.010357	-0.834473	0.456787	0.317871	0.360175	-0.614295	-0.468823	-0.522609
07865		9.576456	0.443027	-1.869052	-0.011644	0.005160	-0.010989	-0.843994	0.453125	0.318604	0.360078	-0.614337	-0.468682	-0.522754
07866		9.572797	0.462350	-1.884429	-0.007875	0.008001	-0.010303	-0.838867	0.446289	0.319092	0.360021	-0.614329	-0.468562	-0.522909
07867		9.585005	0.459777	-1.862708	-0.003984	0.006348	-0.012226	-0.839111	0.449219	0.309814	0.359956	-0.614306	-0.468485	-0.523050
07868		9.581698	0.484549	-1.833614	-0.004114	0.007891	-0.010117	-0.836914	0.452881	0.314697	0.359953	-0.614255	-0.468422	-0.523169
07869		9.573766	0.479973	-1.847899	-0.008752	0.007597	-0.009252	-0.840332	0.447266	0.314697	0.359908	-0.614259	-0.468294	-0.523310
07870		9.565864	0.468205	-1.835652	-0.009488	0.006490	-0.008921	-0.843994	0.451904	0.312500	0.359841	-0.614263	-0.468174	-0.523459
07871		9.573701	0.445415	-1.826626	-0.007508	0.006017	-0.010284	-0.836670	0.449463	0.313232	0.359795	-0.614244	-0.468090	-0.523587
07872		9.593708	0.444312	-1.833301	-0.002354	0.006579	-0.011345	-0.843750	0.451416	0.311523	0.359778	-0.614206	-0.468032	-0.523695
07873		9.574117	0.454309	-1.836378	0.001422	0.010263	-0.009265	-0.838135	0.450928	0.313721	0.359835	-0.614122	-0.467983	-0.523798
07874		9.562426	0.454893	-1.827747	0.002814	0.005867	-0.010130	-0.840820	0.450195	0.313232	0.359862	-0.614075	-0.467951	-0.523864
07875		9.566720	0.487891	-1.854439	0.000529	0.001006	-0.009716	-0.839111	0.454834	0.313965	0.359845	-0.614066	-0.467928	-0.523907
07876		9.570697	0.490415	-1.832893	-0.006109	-0.000498	-0.010268	-0.840576	0.453857	0.313232	0.359772	-0.614104	-0.467863	-0.523970
07877		9.594475	0.489372	-1.819743	-0.004937	-0.000668	-0.011380	-0.841797	0.452637	0.314209	0.359701	-0.614125	-0.467821	-0.524031
07878		9.589912	0.452352	-1.823003	-0.003751	0.002953	-0.010602	-0.838623	0.449951	0.321533	0.359659	-0.614122	-0.467765	-0.524115
07879		9.582063	0.464043	-1.833812	-0.003817	0.005200	-0.009297	-0.839844	0.450195	0.314697	0.359607	-0.614141	-0.467654	-0.524227
07880		9.585626	0.448010	-1.874097	0.000315	-0.001945	-0.008693	-0.848145	0.452637	0.313721	0.359574	-0.614165	-0.467627	-0.524245
07881		9.585756	0.466382	-1.869580	0.001273	0.002951	-0.008663	-0.839355	0.452393	0.310547	0.359585	-0.614138	-0.467600	-0.524293
07882		9.558356	0.486886	-1.827644	-0.003143	0.006439	-0.007437	-0.842285	0.450684	0.319580	0.359602	-0.614119	-0.467518	-0.524377
07883		9.554388	0.485304	-1.834739	-0.005060	0.001710	-0.007885	-0.832764	0.452148	0.312012	0.359538	-0.614163	-0.467417	-0.524460
07884		9.569846	0.460238	-1.842407	-0.005215	-0.004328	-0.009557	-0.837891	0.455811	0.320312	0.359457	-0.614227	-0.467370	-0.524481
07885		9.573427	0.450416	-1.839479	-0.004351	-0.002651	-0.012890	-0.836426	0.447998	0.310791	0.359350	-0.614281	-0.467319	-0.524537
07886		9.585294	0.460757	-1.802776	-0.000955	-0.005837	-0.012339	-0.833984	0.446289	0.309082	0.359272	-0.614304	-0.467344	-0.524542
07887		9.592652	0.468955	-1.846042	-0.004481	-0.009127	-0.010898	-0.838867	0.450928	0.311768	0.359161	-0.614368	-0.467354	-0.524534
07888		9.624204	0.485925	-1.858100	-0.004337	-0.003928	-0.010616	-0.844971	0.450928	0.314209	0.359083	-0.614405	-0.467333	-0.524563
07889		9.612477	0.495646	-1.819785	-0.006388	0.007641	-0.006435	-0.839111	0.447998	0.315430	0.359076	-0.614398	-0.467215	-0.524681
07890		9.596442	0.463307	-1.841039	-0.003824	0.011098	-0.008295	-0.839844	0.450928	0.310547	0.359087	-0.614357	-0.467100	-0.524823
07891		9.584748	0.447130	-1.836096	-0.006752	0.010456	-0.005073	-0.839111	0.455078	0.315674	0.359116	-0.614337	-0.466962	-0.524950
07892		9.569100	0.446902	-1.848519	0.000543	0.008587	-0.005937	-0.841309	0.452637	0.311523	0.359174	-0.614317	-0.466861	-0.525023
07893		9.577710	0.475525	-1.838888	0.009297	0.011046	-0.008353	-0.839111	0.453125	0.308350	0.359307	-0.614207	-0.466847	-0.525074
07894		9.554290	0.493784	-1.832129	0.004728	0.008490	-0.008802	-0.841797	0.442871	0.307861	0.359397	-0.614125	-0.466825	-0.525127
07895		9.558180	0.466663	-1.831567	0.000245	0.002413	-0.008281	-0.843750	0.446533	0.307861	0.359399	-0.614091	-0.466809	-0.525180
07896		9.585705	0.426948	-1.849465	0.010613	0.003434	-0.012586	-0.847412	0.448486	0.313232	0.359466	-0.613980	-0.466889	-0.525193
07897		9.621814	0.419692	-1.814794	0.018134	0.009985	-0.009803	-0.839355	0.446533	0.323975	0.359631	-0.613824	-0.466950	-0.525208
07898		9.598732	0.452145	-1.732595	0.021387	0.010459	-0.008027	-0.839355	0.449463	0.311523	0.359794	-0.613711	-0.466961	-0.525219
07899		9.587314	0.505913	-1.794908	0.013497	0.009671	-0.008950	-0.839111	0.452148	0.306885	0.359934	-0.613593	-0.466977	-0.525246
07900		9.571645	0.502430	-1.794101	0.006340	0.009990	-0.010205	-0.842773	0.447266	0.308594	0.360034	-0.613486	-0.466969	-0.525310
07901		9.575329	0.439448	-1.788869	0.000094	0.001428	-0.010344	-0.840576	0.446289	0.316162	0.360016	-0.613460	-0.466960	-0.525361
07902		9.562966	0.414632	-1.817879	-0.001217	-0.003603	-0.009509	-0.835938	0.453125	0.305420	0.359936	-0.613506	-0.466926	-0.525392
07903		9.566770	0.440395	-1.819923	0.008664	-0.006232	-0.010451	-0.844238	0.443604	0.310547	0.359965	-0.613496	-0.467008	-0.525312
07904		9.590768	0.508179	-1.803689	0.009299	-0.003288	-0.014542	-0.832520	0.450195	0.318604	0.359947	-0.613435	-0.467109	-0.525304
07905		9.622412	0.514666	-1.775212	0.006878	-0.004499	-0.012903	-0.831543	0.450684	0.322510	0.359905	-0.613456	-0.467135	-0.525286
07906		9.605935	0.448148	-1.737246	0.008517	-0.001737	-0.007843	-0.841797	0.445312	0.311279	0.359913	-0.613495	-0.467104	-0.525262
07907		9.601528	0.393635	-1.745318	0.008573	0.001076	-0.009543	-0.842285	0.450928	0.312256	0.359951	-0.613446	-0.467135	-0.525265
07908		9.605567	0.429856	-1.785767	0.010037	0.003290	-0.010214	-0.837402	0.453613	0.312500	0.360017	-0.613381	-0.467164	-0.525271
07909		9.574075	0.489651	-1.783386	0.005992	0.006473	-0.006184	-0.833252	0.443359	0.311768	0.360103	-0.613348	-0.467110	-0.525299
07910		9.574121	0.501733	-1.822509	0.003940	0.001603	-0.007292	-0.841553	0.449951	0.306152	0.360117	-0.613344	-0.467076	-0.525323
07911		9.590029	0.501959	-1.794398	-0.001074	-0.001369	-0.009737	-0.836670	0.452148	0.310059	0.360091	-0.613343	-0.467071	-0.525348
07912		9.561792	0.460918	-1.784807	0.000401	-0.001263	-0.009515	-0.842529	0.446777	0.305664	0.360071	-0.613358	-0.467049	-0.525362
07913		9.581135	0.430383	-1.816522	0.004485	-0.010777	-0.010870	-0.838867	0.448730	0.311035	0.360021	-0.613380	-0.467137	-0.525293
07914		9.576573	0.449221	-1.836070	0.009258	-0.009059	-0.013352	-0.840820	0.452393	0.317139	0.359988	-0.613381	-0.467240	-0.525223
07915		9.580143	0.468246	-1.812488	0.008234	-0.008757	-0.011573	-0.843506	0.452881	0.312256	0.359948	-0.613415	-0.467299	-0.525158
07916		9.599610	0.499464	-1.814305	0.001177	-0.010284	-0.009063	-0.830811	0.445557	0.325439	0.359878	-0.613486	-0.467323	-0.525102
07917		9.587082	0.500068	-1.810045	-0.005534	-0.010412	-0.009699	-0.837646	0.455322	0.309814	0.359696	-0.613639	-0.467245	-0.525117
07918		9.590292	0.480876	-1.839856	-0.006862	-0.011225	-0.010646	-0.835205	0.452148	0.310303	0.359566	-0.613744	-0.467233	-0.525095
07919		9.609636	0.499924	-1.859185	-0.004819	-0.007195	-0.010931	-0.839600	0.451172	0.312012	0.359467	-0.613811	-0.467217	-0.525098
07920		9.573728	0.538998	-1.800404	-0.019250	-0.003782	-0.004851	-0.840088	0.446289	0.311523	0.359309	-0.613955	-0.467046	-0.525191
07921		9.561041	0.488033	-1.865810	-0.030185	-0.009591	-0.001418	-0.837158	0.454834	0.316162	0.359047	-0.614197	-0.466810	-0.525296
07922		9.564338	0.468845	-1.895132	-0.026987	-0.009936	-0.009780	-0.842041	0.450195	0.305908	0.358760	-0.614404	-0.466635	-0.525405
07923		9.571764	0.469954	-1.911617	-0.010410	-0.005665	-0.007708	-0.837402	0.440430	0.316895	0.358663	-0.614473	-0.466586	-0.525434
07924		9.595496	0.494104	-1.864694	-0.006042	-0.009839	-0.008133	-0.837891	0.456299	0.315430	0.358516	-0.614582	-0.466546	-0.525442
07925		9.603225	0.495948	-1.823762	-0.010153	-0.007368	-0.003283	-0.838135	0.442139	0.316406	0.358426	-0.614729	-0.466429	-0.525437
07926		9.579190	0.509876	-1.806758	-0.017912	-0.001299	-0.001128	-0.838135	0.453613	0.315430	0.358292	-0.614872	-0.466224	-0.525542
07927		9.559055	0.498896	-1.803557	-0.020495	-0.006017	-0.005729	-0.835449	0.452637	0.319824	0.358109	-0.615036	-0.466056	-0.525623
07928		9.574476	0.441757	-1.821148	-0.024561	-0.007051	-0.008656	-0.842041	0.454102	0.314453	0.357855	-0.615225	-0.465870	-0.525740
07929		9.585852	0.414057	-1.838479	-0.021084	-0.009518	-0.008918	-0.841309	0.447266	0.314453	0.357633	-0.615386	-0.465750	-0.525809
07930		9.601360	0.454780	-1.830317	-0.007662	-0.009242	-0.007647	-0.834229	0.452393	0.317871	0.357511	-0.615486	-0.465712	-0.525809
07931		9.604807	0.487384	-1.859256	-0.003842	-0.003985	-0.004965	-0.835449	0.450439	0.319824	0.357470	-0.615574	-0.465631	-0.525806
07932		9.600606	0.525067	-1.885058	-0.010810	0.003893	-0.003939	-0.832275	0.450195	0.324707	0.357417	-0.615651	-0.465457	-0.525906
07933		9.569148	0.540841	-1.850721	-0.017741	0.007543	-0.001142	-0.839111	0.443848	0.312988	0.357336	-0.615770	-0.465179	-0.526068
07934		9.553476	0.500493	-1.845977	-0.025761	0.004473	-0.001848	-0.842285	0.451416	0.311768	0.357192	-0.615887	-0.464923	-0.526255
07935		9.569289	0.518583	-1.883590	-0.034719	0.000288	-0.000695	-0.840332	0.446533	0.317627	0.356983	-0.616076	-0.464622	-0.526441
07936		9.565244	0.516819	-1.891263	-0.037219	-0.000371	-0.000540	-0.837402	0.449463	0.317139	0.356725	-0.616297	-0.464288	-0.526652
07937		9.581248	0.520346	-1.876215	-0.033971	-0.000724	-0.000159	-0.832031	0.450684	0.323242	0.356502	-0.616512	-0.463972	-0.526830
07938		9.589462	0.468913	-1.833264	-0.035354	-0.000574	0.002479	-0.839355	0.444092	0.321289	0.356274	-0.616773	-0.463598	-0.527007
07939		9.581720	0.431562	-1.800405	-0.028364	0.001113	0.002179	-0.847168	0.450928	0.313965	0.356098	-0.616968	-0.463287	-0.527173
07940		9.557739	0.472495	-1.817347	-0.022921	0.000313	-0.000331	-0.834473	0.447754	0.317627	0.355980	-0.617099	-0.463067	-0.527292
07941		9.585588	0.509959	-1.800766	-0.028407	-0.007174	-0.000856	-0.842773	0.446777	0.313477	0.355758	-0.617326	-0.462822	-0.527390
07942		9.577202	0.451409	-1.818745	-0.026479	-0.006666	0.001373	-0.839355	0.451660	0.320312	0.355579	-0.617527	-0.462598	-0.527472
07943		9.592813	0.409002	-1.832133	-0.014282	-0.004491	-0.002166	-0.835693	0.446289	0.319336	0.355475	-0.617668	-0.462443	-0.527513
07944		9.588746	0.435260	-1.818511	-0.001483	-0.001779	-0.003022	-0.840088	0.448486	0.320068	0.355473	-0.617726	-0.462369	-0.527512
07945		9.580501	0.444640	-1.831204	0.003064	-0.006255	0.000884	-0.830566	0.449463	0.331055	0.355508	-0.617813	-0.462316	-0.527432
07946		9.572265	0.446292	-1.818232	0.011894	-0.008929	-0.003357	-0.833496	0.449463	0.325195	0.355538	-0.617902	-0.462318	-0.527307
07947		9.583920	0.477588	-1.804537	0.013923	-0.006558	-0.006406	-0.840332	0.454590	0.319092	0.355594	-0.617925	-0.462370	-0.527196
07948		9.595444	0.447731	-1.821948	0.015315	-0.005040	-0.006258	-0.832520	0.445557	0.315186	0.355699	-0.617909	-0.462450	-0.527074
07949		9.591104	0.444770	-1.831497	0.014592	-0.005319	-0.004534	-0.832275	0.449463	0.322754	0.355801	-0.617898	-0.462522	-0.526954
07950		9.586639	0.448804	-1.867362	0.015178	-0.002669	-0.002737	-0.838379	0.442383	0.331055	0.355920	-0.617905	-0.462544	-0.526847
07951		9.570583	0.459542	-1.864886	0.016057	-0.001423	-0.002397	-0.834717	0.447510	0.317871	0.356012	-0.617915	-0.462544	-0.526774
07952		9.570572	0.455895	-1.852141	0.014280	-0.001803	-0.003962	-0.839844	0.457520	0.315674	0.356129	-0.617893	-0.462586	-0.526683
07953		9.574224	0.483514	-1.867084	0.009148	-0.005365	-0.003426	-0.840820	0.454590	0.326660	0.356216	-0.617914	-0.462615	-0.526573
07954		9.594183	0.465733	-1.823733	0.009441	-0.006770	-0.004883	-0.843750	0.445068	0.322021	0.356248	-0.617965	-0.462629	-0.526480
07955		9.589804	0.446437	-1.837887	0.010173	-0.004821	-0.003815	-0.841553	0.447998	0.314697	0.356295	-0.617981	-0.462653	-0.526408
07956		9.577849	0.421316	-1.810240	0.012674	-0.004166	-0.003981	-0.825928	0.447021	0.318359	0.356392	-0.617963	-0.462714	-0.526310
07957		9.581204	0.440068	-1.856575	0.015619	-0.004782	-0.004934	-0.838867	0.452637	0.317139	0.356495	-0.617961	-0.462774	-0.526190
07958		9.577047	0.449440	-1.848024	0.018485	-0.003152	-0.004568	-0.840088	0.454834	0.322021	0.356642	-0.617921	-0.462861	-0.526061
07959		9.584895	0.456703	-1.833049	0.018956	-0.005702	-0.003077	-0.836182	0.456055	0.316162	0.356777	-0.617919	-0.462934	-0.525908
07960		9.580488	0.436870	-1.847444	0.017262	-0.007494	-0.004563	-0.836914	0.447021	0.324463	0.356900	-0.617915	-0.463030	-0.525743
07961		9.576024	0.417119	-1.862084	0.020511	-0.007842	-0.004181	-0.837646	0.449951	0.327637	0.357002	-0.617921	-0.463121	-0.525588
07962		9.587692	0.428356	-1.840156	0.025732	-0.010325	-0.007965	-0.834473	0.447754	0.324219	0.357101	-0.617907	-0.463276	-0.525399
07963		9.591226	0.399679	-1.843507	0.027218	-0.008538	-0.004956	-0.833008	0.452393	0.319580	0.357248	-0.617885	-0.463418	-0.525201
07964		9.582580	0.428440	-1.866400	0.026711	-0.007973	-0.003370	-0.838623	0.454346	0.309326	0.357428	-0.617861	-0.463555	-0.524985
07965		9.590100	0.459092	-1.874146	0.028802	-0.004071	-0.005849	-0.828613	0.453369	0.313721	0.357663	-0.617751	-0.463748	-0.524785
07966		9.594329	0.435433	-1.831663	0.032119	-0.002876	-0.004885	-0.831787	0.451904	0.321777	0.357923	-0.617649	-0.463924	-0.524572
07967		9.597769	0.416864	-1.873533	0.028747	-0.003942	-0.003659	-0.837646	0.452393	0.313232	0.358130	-0.617596	-0.464048	-0.524383
