// Start Time: Unknown
// Update Rate: 40.0Hz
// Filter Profile: human (46.1)
// Firmware Version: 4.6.0
PacketCounter	SampleTimeFine	Acc_X	Acc_Y	Acc_Z	Gyr_X	Gyr_Y	Gyr_Z	Mag_X	Mag_Y	Mag_Z	Quat_q0	Quat_q1	Quat_q2	Quat_q3
07338		9.631168	0.275293	-1.771530	-0.012060	0.001303	0.001064	-0.901611	0.223877	-0.367920	0.620640	-0.166116	-0.750221	-0.156143
07339		9.636907	0.225122	-1.768639	0.004801	0.001187	-0.001290	-0.901611	0.218018	-0.362793	0.620658	-0.166064	-0.750224	-0.156110
07340		9.642298	0.280160	-1.740664	0.007470	0.002786	-0.001011	-0.905273	0.218750	-0.366455	0.620702	-0.165945	-0.750223	-0.156067
07341		9.631857	0.271732	-1.741019	0.000983	0.003693	-0.003810	-0.898438	0.218506	-0.373535	0.620744	-0.165841	-0.750202	-0.156110
07342		9.659297	0.252146	-1.753705	0.003887	0.000485	-0.003061	-0.897949	0.215332	-0.366211	0.620773	-0.165696	-0.750208	-0.156121
07343		9.641824	0.270980	-1.730853	0.001774	0.001933	-0.003902	-0.902344	0.224365	-0.366943	0.620808	-0.165568	-0.750200	-0.156157
07344		9.659004	0.240076	-1.725188	0.003980	0.003241	-0.005334	-0.897949	0.220947	-0.381348	0.620840	-0.165506	-0.750187	-0.156160
07345		9.644364	0.303377	-1.735067	0.010473	0.003489	-0.006602	-0.897217	0.226807	-0.359375	0.620915	-0.165278	-0.750180	-0.156134
07346		9.634004	0.294499	-1.725947	-0.002600	0.001389	-0.005861	-0.901367	0.221436	-0.355225	0.620897	-0.165336	-0.750171	-0.156184
07347		9.649623	0.260739	-1.770197	0.002657	0.001718	-0.001375	-0.903320	0.229492	-0.372803	0.620914	-0.165350	-0.750158	-0.156163
07348		9.638750	0.256439	-1.799676	0.009212	0.003804	-0.004159	-0.903076	0.231445	-0.363281	0.621032	-0.165299	-0.750086	-0.156095
07349		9.652602	0.287799	-1.745471	0.009595	0.002436	-0.003413	-0.893311	0.224121	-0.372803	0.621058	-0.165305	-0.750083	-0.156002
07350		9.643096	0.287432	-1.735045	0.009607	0.002319	-0.001760	-0.903809	0.220703	-0.370605	0.621134	-0.165209	-0.750055	-0.155938
07351		9.648808	0.238547	-1.741417	0.002730	0.003437	-0.001240	-0.896484	0.213623	-0.369385	0.621202	-0.165147	-0.750012	-0.155936
07352		9.639935	0.250581	-1.748517	0.004076	0.004726	-0.001895	-0.897461	0.221436	-0.367188	0.621264	-0.165000	-0.749991	-0.155945
07353		9.640385	0.248466	-1.728109	0.006197	0.004430	-0.005121	-0.902588	0.227539	-0.361816	0.621318	-0.164906	-0.749972	-0.155926
07354		9.651149	0.258199	-1.725705	0.011490	0.006831	-0.005464	-0.893311	0.222656	-0.374268	0.621381	-0.164845	-0.749949	-0.155847
07355		9.650440	0.250680	-1.735228	0.007141	0.006052	-0.004114	-0.898682	0.233887	-0.366455	0.621515	-0.164743	-0.749868	-0.155808
07356		9.649844	0.242091	-1.735172	0.004943	0.005895	-0.006748	-0.895996	0.220703	-0.370850	0.621591	-0.164780	-0.749804	-0.155778
07357		9.640339	0.244478	-1.733452	0.001928	0.006520	-0.007707	-0.891357	0.218506	-0.364990	0.621684	-0.164674	-0.749741	-0.155821
07358		9.651883	0.264788	-1.729746	0.000955	0.003980	-0.007958	-0.901367	0.220215	-0.365479	0.621701	-0.164571	-0.749739	-0.155869
07359		9.651077	0.258405	-1.739696	0.000126	0.004879	-0.007938	-0.898926	0.227539	-0.370117	0.621739	-0.164500	-0.749714	-0.155917
07360		9.661296	0.256888	-1.719012	0.010212	0.008532	-0.010405	-0.901611	0.225098	-0.376221	0.621870	-0.164393	-0.749636	-0.155882
07361		9.663051	0.279008	-1.724308	0.010587	0.006016	-0.005587	-0.894775	0.222656	-0.372070	0.622032	-0.164293	-0.749538	-0.155808
07362		9.655978	0.309570	-1.718606	0.001090	0.006269	-0.003622	-0.895508	0.233643	-0.364014	0.622139	-0.164261	-0.749454	-0.155818
07363		9.651957	0.264602	-1.743063	0.001141	0.006956	-0.001072	-0.895264	0.226562	-0.364258	0.622198	-0.164408	-0.749381	-0.155781
07364		9.643342	0.275153	-1.739762	0.007226	0.007602	-0.001504	-0.900879	0.228760	-0.365723	0.622265	-0.164409	-0.749339	-0.155713
07365		9.673440	0.265852	-1.690449	0.008930	0.006550	0.000178	-0.896484	0.220459	-0.373291	0.622337	-0.164449	-0.749292	-0.155613
07366		9.663162	0.256163	-1.690193	0.013233	0.005324	0.002829	-0.902100	0.220947	-0.370850	0.622479	-0.164344	-0.749224	-0.155482
07367		9.663759	0.270001	-1.726251	0.007635	0.005948	0.003382	-0.903809	0.227295	-0.368164	0.622587	-0.164304	-0.749161	-0.155392
07368		9.660184	0.219001	-1.721492	0.013837	0.009060	0.004803	-0.893311	0.229492	-0.375244	0.622713	-0.164324	-0.749087	-0.155225
07369		9.642777	0.236966	-1.707092	0.018417	0.005148	0.002277	-0.901367	0.228760	-0.373047	0.622891	-0.164303	-0.748984	-0.155030
07370		9.664081	0.253491	-1.703794	0.009738	0.004619	0.002567	-0.891846	0.231934	-0.369385	0.623006	-0.164356	-0.748902	-0.154909
07371		9.653724	0.243283	-1.704050	0.014449	0.003002	0.004380	-0.900146	0.221191	-0.375488	0.623098	-0.164442	-0.748847	-0.154713
07372		9.663689	0.239372	-1.694154	0.019151	0.001499	0.004535	-0.898438	0.224365	-0.373291	0.623222	-0.164316	-0.748813	-0.154509
07373		9.660441	0.200260	-1.708712	0.017457	0.002437	0.004503	-0.895264	0.226074	-0.376221	0.623333	-0.164256	-0.748776	-0.154308
07374		9.659050	0.178111	-1.701122	0.024801	0.002819	0.000787	-0.898438	0.227051	-0.366699	0.623495	-0.164127	-0.748719	-0.154065
07375		9.652508	0.218927	-1.714296	0.029187	0.004458	-0.000516	-0.893066	0.233887	-0.374512	0.623560	-0.163989	-0.748757	-0.153762
07376		9.644232	0.223432	-1.672952	0.017113	0.005917	-0.001931	-0.896484	0.225098	-0.375732	0.623721	-0.164044	-0.748647	-0.153589
07377		9.651471	0.196338	-1.695506	0.015644	0.002216	-0.003948	-0.896484	0.227051	-0.369629	0.623834	-0.163938	-0.748601	-0.153466
07378		9.661276	0.195667	-1.695288	0.018243	0.002045	-0.002986	-0.896729	0.222656	-0.377197	0.623878	-0.163869	-0.748617	-0.153282
07379		9.651640	0.196780	-1.694493	0.018710	0.003537	-0.006184	-0.898193	0.221924	-0.371094	0.624019	-0.163672	-0.748569	-0.153156
07380		9.662181	0.207777	-1.702398	0.020845	0.003121	-0.007763	-0.893311	0.224365	-0.372070	0.624070	-0.163445	-0.748608	-0.153001
07381		9.643594	0.219928	-1.700191	0.016044	0.001933	-0.006456	-0.892334	0.225342	-0.370361	0.624134	-0.163324	-0.748607	-0.152869
07382		9.637124	0.260043	-1.694548	0.010420	0.001588	-0.004300	-0.898193	0.220215	-0.373779	0.624168	-0.163297	-0.748606	-0.152765
07383		9.636293	0.252260	-1.704977	0.003133	0.003095	-0.002934	-0.900146	0.221436	-0.375977	0.624218	-0.163222	-0.748584	-0.152751
07384		9.675118	0.232106	-1.648484	0.002210	0.001249	-0.000621	-0.900146	0.221680	-0.373535	0.624272	-0.163199	-0.748547	-0.152731
07385		9.657901	0.150097	-1.688437	-0.006881	0.001166	-0.000299	-0.893555	0.222656	-0.374023	0.624275	-0.163262	-0.748520	-0.152788
07386		9.647106	0.145806	-1.718208	0.012136	0.001676	-0.006695	-0.902100	0.221924	-0.371582	0.624349	-0.163136	-0.748503	-0.152704
07387		9.652174	0.202088	-1.690821	0.024716	0.002522	-0.007607	-0.900391	0.229736	-0.372803	0.624374	-0.162898	-0.748573	-0.152514
07388		9.657643	0.253522	-1.624636	0.003940	0.002468	-0.007097	-0.890625	0.221680	-0.366455	0.624390	-0.163007	-0.748540	-0.152494
07389		9.651376	0.196642	-1.700840	-0.006951	0.000738	-0.006988	-0.898438	0.225830	-0.376953	0.624318	-0.163044	-0.748577	-0.152568
07390		9.643307	0.217368	-1.688361	-0.000939	-0.000334	-0.007564	-0.900146	0.224365	-0.371338	0.624366	-0.163094	-0.748516	-0.152615
07391		9.672604	0.215399	-1.679104	-0.003864	0.001787	-0.005081	-0.892578	0.227783	-0.371094	0.624337	-0.163169	-0.748513	-0.152667
07392		9.645021	0.238239	-1.675622	-0.004755	0.000855	-0.003532	-0.896240	0.232178	-0.375000	0.624343	-0.163354	-0.748462	-0.152697
07393		9.646622	0.258296	-1.672879	-0.012100	0.000474	0.000195	-0.893066	0.221924	-0.363770	0.624379	-0.163721	-0.748335	-0.152778
07394		9.673404	0.226720	-1.677574	-0.012206	-0.003403	0.006571	-0.895996	0.224854	-0.372314	0.624229	-0.163920	-0.748416	-0.152782
07395		9.669127	0.179779	-1.704044	-0.005704	-0.003256	0.006942	-0.901611	0.229492	-0.369141	0.624215	-0.164116	-0.748390	-0.152755
07396		9.661875	0.205310	-1.681477	0.001213	-0.003560	0.007304	-0.896484	0.233887	-0.362793	0.624136	-0.164379	-0.748419	-0.152653
07397		9.649640	0.175071	-1.685955	-0.000503	-0.003648	0.009697	-0.897461	0.230469	-0.371582	0.623997	-0.164802	-0.748469	-0.152521
07398		9.664153	0.113412	-1.695080	0.010233	-0.005196	0.006854	-0.890869	0.226562	-0.373047	0.623990	-0.164994	-0.748468	-0.152345
07399		9.658048	0.163206	-1.708990	0.017198	-0.003508	0.003197	-0.897705	0.228271	-0.368164	0.624069	-0.164984	-0.748448	-0.152129
07400		9.666158	0.140592	-1.702861	0.011592	-0.002775	0.002105	-0.903076	0.229492	-0.374512	0.624024	-0.165053	-0.748504	-0.151963
07401		9.657332	0.147773	-1.682707	0.018935	-0.002398	-0.001627	-0.889648	0.222168	-0.378418	0.624055	-0.165046	-0.748515	-0.151791
07402		9.657691	0.160951	-1.711220	0.014577	-0.003067	-0.001915	-0.902344	0.233643	-0.375244	0.624210	-0.164880	-0.748449	-0.151657
07403		9.661236	0.194430	-1.668012	0.014229	-0.000843	-0.002613	-0.887695	0.232422	-0.369385	0.624258	-0.165006	-0.748407	-0.151532
07404		9.650216	0.190629	-1.708091	0.011189	-0.001194	-0.001972	-0.888916	0.226318	-0.371338	0.624298	-0.165148	-0.748372	-0.151385
07405		9.660865	0.198318	-1.697320	0.007423	0.001988	-0.001955	-0.901855	0.220703	-0.374023	0.624377	-0.165142	-0.748325	-0.151295
07406		9.658418	0.170725	-1.710372	0.002210	0.001249	-0.000625	-0.901855	0.218994	-0.369141	0.624395	-0.165030	-0.748339	-0.151277
07407		9.648141	0.159338	-1.691815	0.004353	0.000724	-0.000546	-0.895020	0.231689	-0.376953	0.624337	-0.164867	-0.748435	-0.151217
07408		9.657448	0.259025	-1.629937	-0.010908	-0.002803	0.003374	-0.897705	0.233154	-0.376953	0.624393	-0.165196	-0.748306	-0.151272
07409		9.654603	0.118260	-1.688364	-0.029566	-0.004350	0.005577	-0.902588	0.229980	-0.367920	0.624382	-0.165715	-0.748156	-0.151488
07410		9.653012	0.116255	-1.748470	-0.006154	-0.002368	0.000330	-0.900879	0.234375	-0.369385	0.624264	-0.165906	-0.748209	-0.151504
07411		9.656762	0.147739	-1.685980	0.001153	-0.002852	-0.003465	-0.894043	0.226807	-0.376953	0.624187	-0.166110	-0.748232	-0.151479
07412		9.656042	0.136426	-1.668593	-0.001890	-0.003149	-0.003652	-0.884277	0.232178	-0.370117	0.624253	-0.166139	-0.748164	-0.151515
07413		9.655752	0.138943	-1.679205	-0.004565	-0.004647	-0.005567	-0.892578	0.232178	-0.371094	0.624258	-0.166322	-0.748115	-0.151533
07414		9.644822	0.134241	-1.700464	-0.001459	-0.002521	-0.006913	-0.893311	0.232422	-0.369629	0.624251	-0.166450	-0.748088	-0.151557
07415		9.653165	0.112094	-1.674784	0.005447	-0.002717	-0.008216	-0.894775	0.232422	-0.364746	0.624229	-0.166516	-0.748099	-0.151520
07416		9.665161	0.142477	-1.671784	0.007187	-0.001662	-0.012209	-0.896484	0.233398	-0.373291	0.624136	-0.166530	-0.748182	-0.151479
07417		9.664672	0.148977	-1.701424	0.009291	-0.002992	-0.013024	-0.891113	0.222900	-0.372559	0.624148	-0.166545	-0.748170	-0.151469
07418		9.647401	0.181994	-1.697997	0.006712	-0.003041	-0.010673	-0.897217	0.229492	-0.374023	0.624178	-0.166339	-0.748195	-0.151453
07419		9.665902	0.173224	-1.700433	0.005842	-0.002950	-0.011547	-0.895020	0.235352	-0.370361	0.624190	-0.166302	-0.748190	-0.151467
07420		9.655172	0.166743	-1.702426	0.007506	-0.004798	-0.010758	-0.902588	0.234131	-0.372559	0.624154	-0.166415	-0.748202	-0.151431
07421		9.656856	0.184538	-1.672027	0.007956	-0.004387	-0.010707	-0.895752	0.217285	-0.377930	0.624108	-0.166483	-0.748228	-0.151417
07422		9.664559	0.169030	-1.695191	0.004513	-0.004399	-0.008396	-0.897217	0.220215	-0.371826	0.624168	-0.166196	-0.748236	-0.151446
07423		9.653190	0.150972	-1.688749	0.003688	-0.003555	-0.007549	-0.894531	0.223145	-0.371094	0.624142	-0.166002	-0.748300	-0.151446
07424		9.640172	0.131954	-1.751403	0.018330	-0.004828	-0.010193	-0.897217	0.225586	-0.367676	0.624140	-0.165751	-0.748385	-0.151315
07425		9.664816	0.183099	-1.687352	0.016193	-0.003179	-0.014360	-0.892090	0.241455	-0.375000	0.624078	-0.165545	-0.748499	-0.151230
07426		9.645254	0.185724	-1.678219	0.002334	-0.004740	-0.008540	-0.891357	0.231445	-0.370850	0.624127	-0.165876	-0.748386	-0.151222
07427		9.661807	0.161063	-1.712495	-0.001539	-0.004145	-0.008703	-0.895020	0.226562	-0.371094	0.624114	-0.165997	-0.748365	-0.151250
07428		9.651721	0.164890	-1.723029	-0.000243	-0.004790	-0.006182	-0.902344	0.230225	-0.371582	0.624082	-0.166015	-0.748386	-0.151260
07429		9.651377	0.150655	-1.676991	0.001475	-0.004756	-0.007756	-0.892578	0.232422	-0.376221	0.624017	-0.166084	-0.748421	-0.151278
07430		9.642541	0.176087	-1.704531	0.004074	-0.004918	-0.006799	-0.887939	0.233398	-0.371338	0.624080	-0.166192	-0.748348	-0.151262
07431		9.661923	0.174799	-1.696412	0.004973	-0.004093	-0.006695	-0.900391	0.229248	-0.374268	0.624114	-0.166316	-0.748303	-0.151206
07432		9.661142	0.165465	-1.688679	0.002025	-0.001763	-0.007519	-0.900635	0.228027	-0.371826	0.624125	-0.166348	-0.748281	-0.151235
07433		9.640642	0.160058	-1.699756	0.005871	-0.003269	-0.006592	-0.897461	0.231201	-0.368164	0.624098	-0.166334	-0.748312	-0.151208
07434		9.640360	0.162701	-1.710131	0.003311	-0.002301	-0.006658	-0.892822	0.230957	-0.372070	0.624050	-0.166408	-0.748342	-0.151179
07435		9.658919	0.153048	-1.712565	0.007145	-0.003699	-0.007391	-0.901367	0.231201	-0.364746	0.624072	-0.166443	-0.748326	-0.151126
07436		9.658743	0.154481	-1.713425	0.005006	-0.003233	-0.006637	-0.892334	0.237061	-0.372803	0.623956	-0.166499	-0.748421	-0.151072
07437		9.657685	0.147376	-1.725153	0.007600	-0.003340	-0.006511	-0.899170	0.229004	-0.372559	0.624001	-0.166668	-0.748359	-0.151007
07438		9.659967	0.176488	-1.712307	0.005965	-0.000634	-0.007241	-0.895264	0.229248	-0.374512	0.624020	-0.166659	-0.748348	-0.150992
07439		9.671520	0.192527	-1.681507	-0.002745	-0.003177	-0.002866	-0.896240	0.236328	-0.374023	0.624050	-0.166771	-0.748293	-0.151020
07440		9.656135	0.128695	-1.709828	0.001202	-0.002099	-0.001753	-0.895264	0.230713	-0.371094	0.624092	-0.167001	-0.748212	-0.150994
07441		9.651550	0.197355	-1.701540	0.006832	-0.001846	-0.002279	-0.890869	0.234131	-0.371094	0.624114	-0.167057	-0.748198	-0.150911
07442		9.667217	0.147790	-1.708439	-0.001762	-0.000789	-0.000146	-0.892334	0.231689	-0.364502	0.624156	-0.167266	-0.748121	-0.150881
07443		9.666289	0.139303	-1.719554	0.000837	-0.000948	0.000810	-0.897949	0.230957	-0.370117	0.624118	-0.167399	-0.748142	-0.150790
07444		9.658011	0.159146	-1.717123	0.003425	-0.001002	0.000106	-0.896240	0.224609	-0.370850	0.624119	-0.167491	-0.748134	-0.150727
07445		9.655889	0.128966	-1.711192	0.006483	0.000322	-0.002146	-0.897217	0.233887	-0.377441	0.624148	-0.167405	-0.748141	-0.150663
07446		9.647807	0.147859	-1.698749	0.008667	0.000611	-0.001180	-0.899658	0.233398	-0.372559	0.624261	-0.167502	-0.748039	-0.150593
07447		9.657566	0.146975	-1.698869	0.007808	0.000594	-0.000393	-0.906738	0.240479	-0.382080	0.624302	-0.167595	-0.748002	-0.150506
07448		9.655462	0.116876	-1.692832	0.006443	-0.000486	-0.003040	-0.893555	0.227295	-0.373291	0.624396	-0.167815	-0.747875	-0.150503
07449		9.655899	0.129516	-1.711099	0.011203	-0.000145	-0.004442	-0.888428	0.238525	-0.372314	0.624461	-0.167723	-0.747859	-0.150415
07450		9.667975	0.157261	-1.698192	0.011164	-0.000953	-0.005337	-0.901123	0.229980	-0.376465	0.624539	-0.167829	-0.747795	-0.150291
07451		9.658650	0.170374	-1.716368	0.008191	-0.000713	-0.000468	-0.898438	0.230469	-0.378174	0.624593	-0.167853	-0.747757	-0.150230
07452		9.657349	0.148817	-1.699940	0.007618	-0.003498	-0.004028	-0.897705	0.235352	-0.380127	0.624643	-0.167864	-0.747719	-0.150198
07453		9.656342	0.140715	-1.711476	0.010739	-0.001574	-0.002069	-0.900879	0.228760	-0.377197	0.624747	-0.167953	-0.747627	-0.150121
07454		9.658624	0.168316	-1.698732	0.011583	-0.002573	-0.000429	-0.901367	0.235107	-0.367676	0.624792	-0.167933	-0.747613	-0.150030
07455		9.657412	0.145155	-1.673011	-0.001921	-0.005144	0.000381	-0.893311	0.230225	-0.369141	0.624690	-0.168111	-0.747668	-0.149978
07456		9.652809	0.102817	-1.728308	-0.003961	-0.002097	0.001324	-0.891113	0.235107	-0.366455	0.624668	-0.168225	-0.747666	-0.149950
07457		9.651835	0.094639	-1.739641	0.002502	-0.001619	-0.003323	-0.888916	0.234619	-0.370361	0.624644	-0.168316	-0.747682	-0.149868
07458		9.656206	0.137405	-1.685652	0.009419	-0.001900	-0.002996	-0.895996	0.241455	-0.375244	0.624683	-0.168355	-0.747667	-0.149739
07459		9.656999	0.146339	-1.675289	-0.003570	-0.002338	-0.002009	-0.897461	0.232910	-0.372314	0.624710	-0.168627	-0.747581	-0.149750
07460		9.651818	0.094085	-1.721910	-0.004929	-0.003473	-0.003824	-0.894287	0.227295	-0.368896	0.624677	-0.168741	-0.747573	-0.149796
07461		9.641626	0.098557	-1.741842	0.002411	-0.003133	-0.006770	-0.895752	0.223145	-0.367920	0.624636	-0.168668	-0.747627	-0.149784
07462		9.665992	0.151933	-1.697102	0.004576	-0.002686	-0.008301	-0.898926	0.233887	-0.367432	0.624582	-0.168496	-0.747713	-0.149772
07463		9.653168	0.115886	-1.702269	-0.002335	-0.002459	-0.007796	-0.897949	0.238770	-0.367920	0.624506	-0.168564	-0.747755	-0.149805
07464		9.663627	0.125332	-1.692455	0.001071	-0.004422	-0.006095	-0.895752	0.230225	-0.368408	0.624436	-0.168703	-0.747786	-0.149781
07465		9.653208	0.131570	-1.722380	0.002319	-0.004646	-0.010222	-0.888672	0.229004	-0.370361	0.624371	-0.168654	-0.747850	-0.149792
07466		9.652710	0.120397	-1.695659	0.004061	-0.004819	-0.008479	-0.891846	0.233154	-0.372314	0.624365	-0.168590	-0.747874	-0.149766
07467		9.672543	0.131905	-1.705712	0.004945	-0.003889	-0.010041	-0.894531	0.232666	-0.366455	0.624373	-0.168574	-0.747873	-0.149755
07468		9.652732	0.136695	-1.715750	0.002390	-0.002977	-0.009271	-0.896729	0.231201	-0.370117	0.624317	-0.168574	-0.747922	-0.149749
07469		9.670725	0.116871	-1.709848	-0.003713	-0.004561	-0.008015	-0.888184	0.233154	-0.364502	0.624260	-0.168615	-0.747948	-0.149809
07470		9.651054	0.120501	-1.710303	0.001934	-0.003338	-0.010156	-0.891602	0.225586	-0.371582	0.624211	-0.168618	-0.747991	-0.149793
07471		9.651408	0.133648	-1.719792	0.005777	-0.004782	-0.010069	-0.892334	0.229004	-0.364258	0.624207	-0.168475	-0.748030	-0.149780
07472		9.653126	0.151739	-1.689329	0.001927	-0.003287	-0.010991	-0.886963	0.237305	-0.369873	0.624134	-0.168411	-0.748103	-0.149789
07473		9.659850	0.129388	-1.732863	0.000589	-0.004578	-0.010313	-0.888184	0.231445	-0.367188	0.624133	-0.168501	-0.748081	-0.149798
07474		9.637657	0.092290	-1.718636	0.002368	-0.002821	-0.011775	-0.893799	0.238525	-0.367920	0.624115	-0.168465	-0.748103	-0.149809
07475		9.646347	0.085970	-1.730569	0.006645	-0.003747	-0.013303	-0.897705	0.230469	-0.373291	0.624080	-0.168500	-0.748126	-0.149798
07476		9.651292	0.155654	-1.713366	0.006655	-0.002732	-0.015741	-0.892090	0.236572	-0.366943	0.624080	-0.168377	-0.748146	-0.149837
07477		9.659423	0.139241	-1.716797	0.000130	-0.003824	-0.015303	-0.897949	0.240234	-0.370605	0.624025	-0.168416	-0.748171	-0.149898
07478		9.637116	0.104451	-1.712164	0.001883	-0.002978	-0.015998	-0.893311	0.239502	-0.378418	0.623992	-0.168489	-0.748168	-0.149970
07479		9.645626	0.100473	-1.733804	0.002701	-0.003769	-0.017688	-0.897217	0.230713	-0.371582	0.624042	-0.168529	-0.748099	-0.150058
07480		9.657208	0.133582	-1.731506	0.006077	-0.004400	-0.023427	-0.895508	0.228760	-0.369141	0.623998	-0.168353	-0.748156	-0.150154
07481		9.657690	0.134316	-1.693533	0.000533	-0.002038	-0.023537	-0.897705	0.227783	-0.371338	0.623949	-0.168191	-0.748204	-0.150297
07482		9.647886	0.139790	-1.684469	-0.000477	-0.005293	-0.026331	-0.891113	0.236816	-0.377686	0.623874	-0.168008	-0.748272	-0.150476
07483		9.645999	0.142434	-1.735389	0.001252	-0.005357	-0.026260	-0.893799	0.229736	-0.372559	0.623893	-0.167955	-0.748237	-0.150631
07484		9.646367	0.158532	-1.735327	-0.000873	-0.003935	-0.027109	-0.892578	0.231689	-0.368164	0.623858	-0.167805	-0.748263	-0.150814
07485		9.664907	0.153975	-1.738008	0.002593	-0.004111	-0.026125	-0.890137	0.229492	-0.373291	0.623799	-0.167672	-0.748317	-0.150938
07486		9.649576	0.229892	-1.739746	0.006998	-0.002699	-0.023309	-0.892090	0.231445	-0.373047	0.623822	-0.167501	-0.748321	-0.151013
07487		9.638595	0.228021	-1.760613	0.007513	-0.001680	-0.019029	-0.887939	0.224609	-0.366455	0.623854	-0.167397	-0.748309	-0.151054
07488		9.649077	0.225519	-1.712950	0.010533	-0.002268	-0.018093	-0.897217	0.230713	-0.369141	0.623845	-0.167183	-0.748368	-0.151037
07489		9.656868	0.198089	-1.707809	0.004060	-0.003688	-0.012638	-0.894775	0.217529	-0.370117	0.623806	-0.167169	-0.748400	-0.151057
07490		9.656467	0.202063	-1.718377	-0.003698	-0.003569	-0.010487	-0.898438	0.227783	-0.365723	0.623770	-0.167045	-0.748440	-0.151144
07491		9.656583	0.216691	-1.737066	-0.004023	-0.000593	-0.009456	-0.900146	0.222168	-0.373535	0.623715	-0.167082	-0.748462	-0.151221
07492		9.665413	0.196593	-1.720159	-0.007820	0.001540	-0.006973	-0.894043	0.224609	-0.369385	0.623735	-0.167083	-0.748420	-0.151344
07493		9.634766	0.182415	-1.730951	-0.005660	0.001998	-0.008516	-0.889893	0.221436	-0.378906	0.623752	-0.167088	-0.748387	-0.151435
07494		9.654012	0.171311	-1.712999	-0.003979	0.000166	-0.007727	-0.895752	0.229980	-0.367676	0.623853	-0.167035	-0.748299	-0.151508
07495		9.657523	0.219243	-1.687581	-0.008705	0.000657	-0.006242	-0.891602	0.226074	-0.368652	0.623834	-0.167166	-0.748267	-0.151602
07496		9.669485	0.117272	-1.730260	-0.006629	-0.001466	-0.007972	-0.899414	0.229736	-0.371338	0.623819	-0.167211	-0.748253	-0.151684
07497		9.656448	0.229366	-1.736188	0.000783	0.000485	-0.008317	-0.894287	0.234131	-0.368896	0.623831	-0.167238	-0.748229	-0.151719
07498		9.664272	0.188547	-1.711844	-0.010415	0.001627	-0.007098	-0.903076	0.231934	-0.364746	0.623835	-0.167424	-0.748162	-0.151833
07499		9.662210	0.162650	-1.724922	-0.000958	-0.000418	-0.006788	-0.888184	0.215576	-0.374268	0.623768	-0.167516	-0.748189	-0.151870
07500		9.671494	0.152817	-1.716704	0.004250	0.000317	-0.007325	-0.893799	0.231445	-0.368652	0.623851	-0.167321	-0.748167	-0.151856
07501		9.645342	0.204219	-1.709928	0.012488	0.000417	-0.006083	-0.897217	0.225586	-0.364502	0.623891	-0.167301	-0.748160	-0.151748
07502		9.663948	0.182242	-1.693508	0.012460	-0.000443	-0.006148	-0.897217	0.225586	-0.372070	0.623871	-0.167212	-0.748216	-0.151648
07503		9.654547	0.194267	-1.702151	0.012438	-0.002369	-0.002930	-0.890625	0.227783	-0.371826	0.623902	-0.167146	-0.748230	-0.151526
07504		9.663119	0.186789	-1.723906	0.012340	-0.004849	-0.004790	-0.897949	0.221680	-0.375244	0.623931	-0.167096	-0.748243	-0.151397
07505		9.671678	0.179221	-1.745728	0.015451	-0.002901	-0.002829	-0.895996	0.229980	-0.370361	0.623984	-0.166951	-0.748261	-0.151251
07506		9.663238	0.184622	-1.706012	0.019857	-0.000464	-0.002454	-0.897949	0.230713	-0.374268	0.624041	-0.166891	-0.748268	-0.151051
07507		9.653606	0.183713	-1.696553	0.015467	-0.003002	-0.001163	-0.897217	0.225098	-0.371338	0.624090	-0.166884	-0.748262	-0.150882
07508		9.643491	0.185143	-1.707010	0.010651	-0.005045	-0.000694	-0.892334	0.231445	-0.370605	0.624087	-0.166856	-0.748297	-0.150753
07509		9.651986	0.163698	-1.701177	0.012381	-0.005103	-0.000619	-0.889160	0.223145	-0.371094	0.624102	-0.166896	-0.748308	-0.150591
07510		9.650902	0.154929	-1.713597	0.008840	-0.007569	-0.000957	-0.895508	0.228271	-0.371094	0.624098	-0.166856	-0.748346	-0.150460
07511		9.659900	0.143528	-1.707202	0.002340	-0.007783	-0.001274	-0.888916	0.234619	-0.376709	0.624057	-0.166930	-0.748376	-0.150401
07512		9.649031	0.136314	-1.719474	0.001906	-0.006226	-0.005383	-0.893799	0.229980	-0.365479	0.624096	-0.167031	-0.748329	-0.150362
07513		9.657417	0.129907	-1.742073	0.010009	-0.008401	-0.009361	-0.890381	0.227051	-0.369141	0.624013	-0.166999	-0.748420	-0.150286
07514		9.649304	0.147184	-1.702852	0.003928	-0.009060	-0.009688	-0.890137	0.227783	-0.373291	0.623953	-0.166969	-0.748482	-0.150265
07515		9.638889	0.151266	-1.714672	0.005586	-0.010739	-0.011411	-0.895264	0.235840	-0.362305	0.623912	-0.166914	-0.748533	-0.150237
07516		9.638546	0.165810	-1.735621	0.004694	-0.011571	-0.011513	-0.900146	0.235840	-0.376465	0.623762	-0.166992	-0.748645	-0.150220
07517		9.656695	0.158998	-1.749667	0.005139	-0.010144	-0.013916	-0.897705	0.226318	-0.374268	0.623717	-0.167011	-0.748675	-0.150234
07518		9.667194	0.167860	-1.722176	0.001679	-0.010031	-0.014067	-0.894287	0.230957	-0.370850	0.623654	-0.166944	-0.748733	-0.150284
07519		9.635189	0.159416	-1.774401	0.005146	-0.009183	-0.015536	-0.901611	0.228271	-0.373047	0.623593	-0.166898	-0.748790	-0.150301
07520		9.654488	0.160557	-1.767227	0.007819	-0.006684	-0.015245	-0.900879	0.231689	-0.369385	0.623552	-0.166795	-0.748845	-0.150315
07521		9.656176	0.178892	-1.727965	0.009912	-0.007895	-0.017763	-0.895020	0.231201	-0.376465	0.623476	-0.166704	-0.748927	-0.150318
07522		9.654970	0.173894	-1.740632	0.003068	-0.007062	-0.013809	-0.898682	0.229492	-0.375488	0.623477	-0.166686	-0.748925	-0.150349
07523		9.654148	0.179390	-1.761705	0.006963	-0.006705	-0.014456	-0.897461	0.221924	-0.365234	0.623466	-0.166614	-0.748947	-0.150358
07524		9.645095	0.190625	-1.742452	0.002219	-0.006125	-0.014627	-0.895264	0.236328	-0.363525	0.623375	-0.166508	-0.749035	-0.150413
07525		9.643119	0.151921	-1.719631	-0.002592	-0.008178	-0.014145	-0.889648	0.224609	-0.365479	0.623261	-0.166615	-0.749093	-0.150483
07526		9.642594	0.168671	-1.749432	-0.002576	-0.007267	-0.014924	-0.895264	0.221436	-0.368896	0.623183	-0.166575	-0.749150	-0.150564
07527		9.662412	0.167964	-1.722724	-0.006481	-0.007577	-0.015120	-0.902588	0.227051	-0.358887	0.623100	-0.166526	-0.749203	-0.150698
07528		9.661470	0.174283	-1.744300	-0.000969	-0.010663	-0.016785	-0.892578	0.219482	-0.370117	0.622903	-0.166508	-0.749352	-0.150792
07529		9.640328	0.160248	-1.748455	-0.003994	-0.010090	-0.017723	-0.899658	0.224121	-0.364746	0.622819	-0.166396	-0.749423	-0.150911
07530		9.642915	0.223932	-1.753667	0.003793	-0.009366	-0.019021	-0.891846	0.224609	-0.373047	0.622696	-0.166278	-0.749537	-0.150979
07531		9.650234	0.199967	-1.769392	-0.000966	-0.009703	-0.018415	-0.896240	0.221191	-0.366699	0.622651	-0.166194	-0.749575	-0.151070
07532		9.648660	0.196551	-1.792303	0.003402	-0.010030	-0.014886	-0.898193	0.229980	-0.363037	0.622557	-0.166087	-0.749671	-0.151103
07533		9.631367	0.237139	-1.770016	0.010380	-0.008563	-0.013643	-0.896973	0.229980	-0.364502	0.622466	-0.166044	-0.749764	-0.151061
07534		9.650143	0.239896	-1.782501	0.003060	-0.008975	-0.010620	-0.900391	0.225342	-0.366211	0.622378	-0.166084	-0.749828	-0.151062
07535		9.659433	0.229491	-1.766653	0.000534	-0.008236	-0.007307	-0.902588	0.226074	-0.368896	0.622299	-0.166118	-0.749884	-0.151071
07536		9.627395	0.195160	-1.781756	0.003586	-0.006984	-0.007931	-0.898682	0.226074	-0.369385	0.622250	-0.166123	-0.749925	-0.151063
07537		9.656303	0.183043	-1.766080	0.013580	-0.006032	-0.006599	-0.893799	0.229980	-0.362793	0.622251	-0.166059	-0.749962	-0.150946
07538		9.639153	0.221880	-1.743170	-0.000307	-0.007352	-0.007281	-0.893555	0.219727	-0.370361	0.622180	-0.166155	-0.749999	-0.150950
07539		9.655096	0.188282	-1.788832	-0.004152	-0.006957	-0.004888	-0.896240	0.222900	-0.358643	0.622161	-0.166175	-0.750005	-0.150977
07540		9.645272	0.201014	-1.798751	0.001879	-0.007033	-0.006326	-0.892334	0.219238	-0.364990	0.622061	-0.166192	-0.750087	-0.150963
07541		9.666023	0.218498	-1.779484	0.003609	-0.007083	-0.006259	-0.898682	0.225098	-0.369629	0.622023	-0.166142	-0.750138	-0.150925
07542		9.646165	0.220785	-1.780632	-0.001581	-0.007893	-0.004849	-0.891113	0.229248	-0.363525	0.621983	-0.166201	-0.750156	-0.150931
07543		9.632920	0.176244	-1.806813	-0.001475	-0.004499	-0.003758	-0.899170	0.227295	-0.363525	0.621962	-0.166321	-0.750149	-0.150922
07544		9.633797	0.184690	-1.787282	0.002850	-0.003664	-0.005204	-0.897949	0.223877	-0.362061	0.621929	-0.166370	-0.750170	-0.150900
07545		9.653121	0.172853	-1.770643	0.003270	-0.004106	-0.005219	-0.897949	0.229736	-0.361328	0.621886	-0.166381	-0.750209	-0.150872
07546		9.633354	0.187029	-1.789423	-0.000237	-0.005729	-0.005482	-0.907227	0.227051	-0.365723	0.621818	-0.166484	-0.750241	-0.150876
07547		9.644447	0.204834	-1.769421	0.004111	-0.004991	-0.005250	-0.899414	0.239746	-0.364258	0.621767	-0.166514	-0.750281	-0.150853
07548		9.655007	0.212802	-1.750620	0.001926	-0.006270	-0.004590	-0.893799	0.229492	-0.365234	0.621722	-0.166708	-0.750281	-0.150828
07549		9.642242	0.189966	-1.794028	-0.003287	-0.006984	-0.004857	-0.901123	0.221436	-0.364014	0.621679	-0.166826	-0.750287	-0.150846
07550		9.653569	0.206302	-1.764664	0.005410	-0.006466	-0.002777	-0.895508	0.224365	-0.363525	0.621630	-0.166809	-0.750344	-0.150779
07551		9.645319	0.246885	-1.771157	0.002408	-0.006959	-0.000407	-0.900879	0.228271	-0.367676	0.621591	-0.166871	-0.750376	-0.150712
07552		9.644534	0.225230	-1.755742	-0.001483	-0.007329	0.000250	-0.895996	0.229736	-0.361328	0.621555	-0.167001	-0.750383	-0.150684
07553		9.642546	0.207543	-1.779435	-0.001034	-0.009788	0.005148	-0.899902	0.230469	-0.358398	0.621480	-0.167204	-0.750416	-0.150602
07554		9.631325	0.187509	-1.783766	-0.006235	-0.010552	0.005722	-0.890869	0.236084	-0.367188	0.621359	-0.167463	-0.750465	-0.150569
07555		9.639766	0.177324	-1.797674	-0.003687	-0.012346	0.005692	-0.895508	0.235107	-0.360107	0.621314	-0.167744	-0.750454	-0.150496
07556		9.628170	0.158323	-1.812037	0.001537	-0.010723	0.005177	-0.895508	0.231201	-0.364990	0.621236	-0.167973	-0.750490	-0.150388
07557		9.638225	0.176935	-1.822356	0.008467	-0.010010	0.004664	-0.894043	0.229736	-0.361084	0.621209	-0.168087	-0.750519	-0.150222
07558		9.651670	0.229333	-1.789173	0.000350	-0.008731	0.008645	-0.897949	0.231934	-0.365967	0.621165	-0.168288	-0.750536	-0.150100
07559		9.627804	0.161621	-1.808059	0.001646	-0.008288	0.007885	-0.900146	0.230469	-0.352295	0.621147	-0.168481	-0.750531	-0.149980
07560		9.647847	0.167208	-1.799696	-0.003038	-0.006049	0.008704	-0.897705	0.226318	-0.359619	0.621049	-0.168715	-0.750575	-0.149903
07561		9.644719	0.106058	-1.798022	-0.006029	-0.004671	0.008684	-0.900879	0.230469	-0.358154	0.621011	-0.168910	-0.750572	-0.149854
07562		9.624515	0.130900	-1.844923	0.003307	-0.007133	0.002133	-0.897949	0.234375	-0.361084	0.620941	-0.169017	-0.750623	-0.149769
07563		9.649615	0.201008	-1.789618	0.002514	-0.004526	0.002294	-0.894775	0.234375	-0.367188	0.620924	-0.169161	-0.750620	-0.149693
07564		9.648646	0.203844	-1.818981	-0.017158	0.001878	0.005353	-0.894043	0.232178	-0.360107	0.620978	-0.169461	-0.750489	-0.149787
07565		9.643793	0.117567	-1.837094	-0.014770	0.011910	0.002817	-0.905029	0.229248	-0.365479	0.621083	-0.169684	-0.750329	-0.149898
07566		9.637358	0.142584	-1.792131	-0.008418	0.007948	0.001091	-0.896484	0.235107	-0.364014	0.621160	-0.169804	-0.750224	-0.149969
07567		9.639162	0.149463	-1.759970	-0.028338	0.007667	0.000259	-0.893311	0.236328	-0.355469	0.621207	-0.170133	-0.750060	-0.150223
07568		9.641350	0.063038	-1.847661	-0.039250	0.005021	-0.001240	-0.894531	0.232666	-0.365479	0.621158	-0.170560	-0.749932	-0.150581
07569		9.636943	0.127341	-1.790505	-0.006230	-0.002963	-0.005535	-0.890625	0.235107	-0.362549	0.621154	-0.170644	-0.749903	-0.150645
07570		9.627433	0.128125	-1.780701	-0.016462	0.000579	-0.002325	-0.905029	0.229004	-0.366943	0.621162	-0.170860	-0.749820	-0.150784
07571		9.643025	0.084864	-1.825843	-0.010891	0.000138	-0.004657	-0.899414	0.235596	-0.353271	0.621158	-0.170937	-0.749781	-0.150905
07572		9.625961	0.113017	-1.792987	0.007979	-0.003604	-0.008365	-0.897705	0.239258	-0.360596	0.621086	-0.170929	-0.749850	-0.150866
07573		9.646280	0.132977	-1.792627	0.011367	-0.006286	-0.008428	-0.897461	0.238037	-0.363281	0.621048	-0.170925	-0.749898	-0.150788
07574		9.616088	0.138274	-1.812626	0.013494	-0.007639	-0.008445	-0.908936	0.236816	-0.361572	0.621018	-0.170889	-0.749952	-0.150686
07575		9.633604	0.109673	-1.818714	0.020387	-0.007737	-0.009860	-0.901367	0.233154	-0.360840	0.620958	-0.170775	-0.750055	-0.150546
07576		9.614289	0.121867	-1.818601	0.024288	-0.006456	-0.011299	-0.905029	0.236572	-0.361328	0.620933	-0.170583	-0.750155	-0.150370
07577		9.660632	0.209349	-1.733268	0.022005	-0.010217	-0.012524	-0.889160	0.233398	-0.355225	0.620859	-0.170439	-0.750278	-0.150224
07578		9.657916	0.184632	-1.758645	0.000437	-0.010766	-0.008374	-0.892090	0.230225	-0.359863	0.620749	-0.170486	-0.750358	-0.150225
07579		9.641896	0.162261	-1.880918	-0.000698	-0.004224	-0.008776	-0.905518	0.234375	-0.370605	0.620718	-0.170485	-0.750378	-0.150255
07580		9.634830	0.166300	-1.811739	0.008569	0.002886	-0.008721	-0.893066	0.228516	-0.359375	0.620801	-0.170422	-0.750329	-0.150231
07581		9.636365	0.174222	-1.781044	-0.000952	0.001282	-0.006690	-0.895020	0.235352	-0.364014	0.620818	-0.170419	-0.750310	-0.150259
07582		9.653239	0.126508	-1.787469	-0.011805	-0.001579	-0.004806	-0.894043	0.229248	-0.365967	0.620812	-0.170581	-0.750255	-0.150374
07583		9.622258	0.135319	-1.835469	-0.008414	-0.004257	-0.004872	-0.894531	0.233887	-0.360840	0.620800	-0.170656	-0.750233	-0.150445
07584		9.652478	0.143102	-1.816869	-0.004098	-0.002456	-0.007940	-0.892822	0.234131	-0.362305	0.620779	-0.170719	-0.750224	-0.150509
07585		9.644542	0.173568	-1.803477	-0.008738	0.001499	-0.006987	-0.898682	0.232910	-0.365234	0.620800	-0.170817	-0.750163	-0.150614
07586		9.644566	0.165063	-1.793540	-0.017197	0.009533	-0.007570	-0.890381	0.231689	-0.365234	0.620878	-0.170942	-0.750027	-0.150827
07587		9.639989	0.116334	-1.856288	-0.006409	0.008856	-0.008032	-0.898926	0.236084	-0.356201	0.620992	-0.170968	-0.749907	-0.150927
07588		9.625465	0.171582	-1.798257	0.001775	0.007340	-0.007816	-0.898193	0.233154	-0.365967	0.621035	-0.170992	-0.749857	-0.150968
07589		9.635536	0.160980	-1.779142	-0.014299	0.002842	-0.005433	-0.899170	0.233887	-0.365967	0.621062	-0.171126	-0.749773	-0.151122
07590		9.639763	0.090543	-1.836574	-0.003941	0.001699	-0.005098	-0.902100	0.236816	-0.364746	0.621098	-0.171190	-0.749718	-0.151175
07591		9.630626	0.102371	-1.834402	0.011160	0.003793	-0.010233	-0.898193	0.240479	-0.365479	0.621162	-0.171113	-0.749690	-0.151137
07592		9.632415	0.086645	-1.767085	0.014105	0.001660	-0.011965	-0.895020	0.239990	-0.357422	0.621223	-0.171033	-0.749671	-0.151073
07593		9.643750	0.153112	-1.807945	0.006815	0.007753	-0.016875	-0.894531	0.236328	-0.360107	0.621279	-0.170965	-0.749628	-0.151132
07594		9.624142	0.135996	-1.788470	0.003337	0.006024	-0.015461	-0.896729	0.231201	-0.363770	0.621327	-0.170904	-0.749587	-0.151205
07595		9.633246	0.130552	-1.798564	0.009313	0.003332	-0.016267	-0.894531	0.234375	-0.362061	0.621375	-0.170742	-0.749581	-0.151222
07596		9.643214	0.121725	-1.779978	0.016614	0.002859	-0.018546	-0.902344	0.236572	-0.367432	0.621425	-0.170538	-0.749593	-0.151186
07597		9.653454	0.134630	-1.778889	0.016563	0.000227	-0.017906	-0.902344	0.232178	-0.361084	0.621461	-0.170359	-0.749612	-0.151149
07598		9.633424	0.152325	-1.806222	0.019974	-0.000623	-0.019531	-0.894287	0.239014	-0.367188	0.621457	-0.170114	-0.749682	-0.151094
07599		9.645036	0.182176	-1.784443	0.021237	-0.003817	-0.017189	-0.895264	0.237305	-0.356445	0.621485	-0.169942	-0.749719	-0.150987
07600		9.634434	0.165447	-1.777541	0.011313	-0.003184	-0.016698	-0.892090	0.236328	-0.361816	0.621438	-0.169856	-0.749779	-0.150981
07601		9.632717	0.152123	-1.799703	0.011756	-0.000896	-0.019055	-0.898438	0.229736	-0.358887	0.621445	-0.169725	-0.749802	-0.150986
07602		9.642750	0.165114	-1.799569	0.017776	-0.003725	-0.017341	-0.898682	0.231201	-0.360840	0.621409	-0.169517	-0.749891	-0.150923
07603		9.643319	0.177320	-1.789504	0.015194	-0.001842	-0.019003	-0.903809	0.226074	-0.365723	0.621393	-0.169323	-0.749953	-0.150902
07604		9.642742	0.171389	-1.790925	0.016113	-0.000190	-0.018007	-0.905762	0.227783	-0.362305	0.621408	-0.169077	-0.750002	-0.150868
07605		9.624344	0.193940	-1.778515	0.014390	-0.001106	-0.016454	-0.904297	0.229492	-0.365967	0.621391	-0.168886	-0.750064	-0.150844
07606		9.643757	0.196283	-1.779379	0.012727	0.000561	-0.014709	-0.896973	0.231689	-0.361816	0.621413	-0.168734	-0.750085	-0.150821
07607		9.653990	0.219150	-1.787337	0.009711	-0.000804	-0.012388	-0.895996	0.232666	-0.370117	0.621417	-0.168658	-0.750104	-0.150800
07608		9.642567	0.160546	-1.764263	0.007208	0.002653	-0.011388	-0.900635	0.225830	-0.361328	0.621495	-0.168600	-0.750053	-0.150792
07609		9.651384	0.166079	-1.793353	0.004982	0.000599	-0.012471	-0.895752	0.235352	-0.364258	0.621487	-0.168509	-0.750074	-0.150823
07610		9.631968	0.180116	-1.801128	0.005889	0.000435	-0.009909	-0.895508	0.229492	-0.363281	0.621514	-0.168515	-0.750051	-0.150819
07611		9.640575	0.174386	-1.822184	0.013166	-0.001790	-0.011491	-0.899170	0.237793	-0.359863	0.621526	-0.168405	-0.750079	-0.150752
07612		9.632377	0.182395	-1.782518	0.011402	-0.002564	-0.012464	-0.901123	0.233887	-0.368164	0.621501	-0.168379	-0.750112	-0.150723
07613		9.652297	0.181695	-1.764844	0.009657	-0.005250	-0.010185	-0.897461	0.234375	-0.363525	0.621488	-0.168347	-0.750138	-0.150680
07614		9.651813	0.195492	-1.784362	0.006244	-0.004406	-0.008559	-0.901611	0.225830	-0.374023	0.621464	-0.168368	-0.750158	-0.150656
07615		9.631138	0.201470	-1.813588	0.003672	-0.002578	-0.009372	-0.908203	0.230469	-0.364990	0.621493	-0.168310	-0.750147	-0.150660
07616		9.648620	0.142060	-1.802186	0.010602	-0.003689	-0.007501	-0.903076	0.224365	-0.365723	0.621469	-0.168269	-0.750188	-0.150601
07617		9.631361	0.191779	-1.787016	0.008457	-0.001394	-0.009112	-0.896973	0.226807	-0.367188	0.621473	-0.168175	-0.750212	-0.150567
07618		9.640618	0.183805	-1.788693	0.001541	-0.000332	-0.010140	-0.900879	0.229248	-0.363525	0.621493	-0.168143	-0.750196	-0.150600
07619		9.631458	0.184351	-1.769015	0.002406	-0.000351	-0.010111	-0.900146	0.229980	-0.362305	0.621487	-0.168130	-0.750197	-0.150634
07620		9.651528	0.227657	-1.794756	-0.003596	-0.001316	-0.006163	-0.902100	0.236572	-0.368164	0.621463	-0.168210	-0.750187	-0.150693
07621		9.628903	0.184680	-1.828912	0.001576	-0.002290	-0.006043	-0.895508	0.235596	-0.368408	0.621468	-0.168297	-0.750162	-0.150702
07622		9.639779	0.170395	-1.782344	0.007649	-0.001560	-0.005768	-0.896973	0.233154	-0.367920	0.621508	-0.168329	-0.750133	-0.150643
07623		9.640352	0.180109	-1.772328	0.002842	-0.004518	-0.005310	-0.899414	0.228516	-0.361572	0.621505	-0.168389	-0.750127	-0.150622
07624		9.647784	0.155066	-1.805587	0.001202	-0.000176	-0.005058	-0.904785	0.225098	-0.363770	0.621502	-0.168425	-0.750120	-0.150628
07625		9.637600	0.157939	-1.815331	0.007569	-0.003140	-0.008432	-0.899658	0.227051	-0.359863	0.621475	-0.168356	-0.750163	-0.150598
07626		9.659277	0.195355	-1.792687	0.009403	0.001081	-0.007215	-0.893555	0.225342	-0.362793	0.621488	-0.168298	-0.750176	-0.150547
07627		9.639679	0.186541	-1.783329	0.001184	-0.001037	-0.005122	-0.892334	0.226074	-0.371826	0.621495	-0.168310	-0.750169	-0.150540
07628		9.627664	0.151637	-1.806605	0.000767	0.001218	-0.006672	-0.900635	0.231445	-0.362061	0.621566	-0.168300	-0.750111	-0.150545
07629		9.659493	0.187872	-1.774167	0.002451	0.000414	-0.008366	-0.898438	0.227051	-0.366699	0.621565	-0.168318	-0.750104	-0.150570
07630		9.629496	0.182230	-1.783712	-0.001860	0.000458	-0.007672	-0.893066	0.229980	-0.367432	0.621582	-0.168335	-0.750076	-0.150619
07631		9.629885	0.204859	-1.791356	-0.001924	-0.001170	-0.009490	-0.893799	0.221924	-0.363770	0.621596	-0.168360	-0.750047	-0.150673
07632		9.639788	0.195012	-1.773814	-0.004963	-0.002445	-0.008844	-0.898926	0.228760	-0.371826	0.621572	-0.168360	-0.750052	-0.150748
07633		9.628493	0.190964	-1.804240	-0.005361	-0.003008	-0.006354	-0.898682	0.236572	-0.368652	0.621576	-0.168427	-0.750022	-0.150808
07634		9.628327	0.192392	-1.804975	-0.000142	-0.003209	-0.004481	-0.900391	0.225098	-0.361328	0.621579	-0.168536	-0.749994	-0.150812
07635		9.638617	0.190948	-1.786543	-0.007439	-0.001860	-0.002952	-0.897705	0.225586	-0.370605	0.621541	-0.168636	-0.749989	-0.150880
07636		9.637370	0.151913	-1.781343	-0.008241	-0.000215	-0.001165	-0.897461	0.228516	-0.365479	0.621571	-0.168745	-0.749930	-0.150930
07637		9.635582	0.136796	-1.812602	-0.003124	-0.000085	-0.005214	-0.895264	0.235107	-0.366211	0.621582	-0.168803	-0.749900	-0.150971
07638		9.636242	0.146631	-1.802035	0.007649	-0.001551	-0.005777	-0.907959	0.237793	-0.358887	0.621610	-0.168822	-0.749884	-0.150911
07639		9.646972	0.155340	-1.782205	0.005012	-0.000448	-0.009191	-0.900635	0.229492	-0.363281	0.621575	-0.168858	-0.749900	-0.150933
07640		9.636663	0.137235	-1.774862	0.004503	-0.004314	-0.009490	-0.900391	0.222168	-0.359131	0.621537	-0.168835	-0.749937	-0.150935
07641		9.645990	0.161970	-1.802865	0.002356	-0.001115	-0.011886	-0.903320	0.232178	-0.360107	0.621500	-0.168752	-0.749977	-0.150980
07642		9.636468	0.142563	-1.775498	0.007551	0.001505	-0.014059	-0.891846	0.228760	-0.365723	0.621495	-0.168677	-0.749992	-0.151010
07643		9.645915	0.157149	-1.793936	0.011421	0.001045	-0.014806	-0.898682	0.226807	-0.360596	0.621543	-0.168534	-0.749991	-0.150982
07644		9.656658	0.167575	-1.773841	0.010508	-0.000613	-0.015812	-0.902588	0.223145	-0.364258	0.621531	-0.168386	-0.750033	-0.150982
07645		9.638076	0.190059	-1.761652	0.008730	-0.002255	-0.016848	-0.892334	0.232178	-0.368896	0.621507	-0.168215	-0.750088	-0.151000
07646		9.645534	0.189282	-1.812456	0.001762	-0.004705	-0.017278	-0.902344	0.231689	-0.363525	0.621490	-0.168160	-0.750101	-0.151069
07647		9.634824	0.152671	-1.797759	0.006984	-0.002174	-0.017764	-0.897705	0.226562	-0.358887	0.621460	-0.168062	-0.750137	-0.151119
07648		9.633983	0.137304	-1.800317	0.007850	-0.001282	-0.018524	-0.895996	0.226807	-0.364746	0.621427	-0.167919	-0.750187	-0.151165
07649		9.635881	0.199730	-1.794478	0.008244	-0.002535	-0.019456	-0.899658	0.223389	-0.361084	0.621412	-0.167762	-0.750228	-0.151201
07650		9.645746	0.213120	-1.794571	0.005693	-0.003534	-0.016219	-0.897949	0.229980	-0.371826	0.621363	-0.167640	-0.750287	-0.151241
07651		9.634827	0.209392	-1.814968	0.007938	0.001163	-0.015807	-0.898682	0.225342	-0.365723	0.621419	-0.167527	-0.750264	-0.151254
07652		9.645275	0.231522	-1.812722	0.008043	0.003561	-0.012230	-0.902832	0.226318	-0.363037	0.621473	-0.167420	-0.750244	-0.151250
07653		9.637295	0.239818	-1.771814	0.002429	0.002277	-0.010818	-0.906250	0.228027	-0.357666	0.621484	-0.167387	-0.750232	-0.151296
07654		9.655869	0.222955	-1.783756	0.003369	0.002938	-0.007334	-0.898438	0.234131	-0.369385	0.621479	-0.167400	-0.750229	-0.151322
07655		9.635755	0.205869	-1.784656	0.002884	0.000839	-0.008353	-0.897705	0.219727	-0.368408	0.621522	-0.167435	-0.750183	-0.151335
07656		9.644182	0.168738	-1.789226	0.000260	-0.000838	-0.008566	-0.899658	0.227295	-0.358154	0.621536	-0.167389	-0.750177	-0.151357
07657		9.643450	0.162346	-1.800125	0.004115	-0.000336	-0.010951	-0.897705	0.223389	-0.371826	0.621510	-0.167363	-0.750198	-0.151388
07658		9.644659	0.193209	-1.787480	0.006635	-0.001058	-0.014324	-0.895020	0.229980	-0.366699	0.621541	-0.167235	-0.750200	-0.151391
07659		9.623693	0.190148	-1.817122	0.007104	-0.000726	-0.012583	-0.906494	0.227051	-0.358643	0.621563	-0.167176	-0.750195	-0.151389
07660		9.644522	0.188254	-1.779129	0.012702	0.000609	-0.014853	-0.902344	0.228271	-0.363037	0.621545	-0.167045	-0.750242	-0.151380
07661		9.653797	0.202803	-1.798040	0.009655	-0.001539	-0.014263	-0.893311	0.227051	-0.362793	0.621529	-0.166950	-0.750276	-0.151379
07662		9.644626	0.203960	-1.778523	0.010108	-0.000255	-0.014160	-0.896973	0.224854	-0.368896	0.621544	-0.166843	-0.750290	-0.151364
07663		9.634816	0.207162	-1.778104	0.010560	0.001030	-0.014057	-0.901855	0.220703	-0.365723	0.621591	-0.166706	-0.750287	-0.151339
07664		9.644627	0.177805	-1.752663	0.007031	-0.002313	-0.015270	-0.894287	0.231689	-0.363525	0.621572	-0.166570	-0.750329	-0.151356
07665		9.643202	0.164026	-1.774553	0.007453	-0.000938	-0.016868	-0.902832	0.216797	-0.356445	0.621571	-0.166496	-0.750339	-0.151392
07666		9.633249	0.179151	-1.783193	0.008243	-0.001631	-0.020306	-0.905518	0.231201	-0.365967	0.621508	-0.166293	-0.750425	-0.151449
07667		9.652515	0.194094	-1.793098	0.006059	-0.001983	-0.021264	-0.904541	0.225830	-0.364746	0.621475	-0.166187	-0.750458	-0.151540
07668		9.644035	0.236998	-1.779374	0.005632	-0.001545	-0.021253	-0.899902	0.224854	-0.367676	0.621441	-0.166049	-0.750498	-0.151629
07669		9.652821	0.254187	-1.808206	0.003522	-0.001218	-0.018746	-0.905273	0.225830	-0.366455	0.621433	-0.165942	-0.750513	-0.151709
07670		9.633198	0.258609	-1.807480	0.006200	0.001193	-0.015929	-0.910889	0.230469	-0.361572	0.621442	-0.165845	-0.750516	-0.151757
07671		9.642705	0.241117	-1.800134	0.009255	-0.000277	-0.013373	-0.891357	0.219727	-0.367676	0.621417	-0.165794	-0.750545	-0.151773
07672		9.643369	0.241932	-1.780573	0.006257	0.001919	-0.013320	-0.892090	0.223633	-0.362549	0.621470	-0.165679	-0.750526	-0.151776
07673		9.632579	0.206114	-1.783897	0.007564	0.001425	-0.012460	-0.899902	0.225342	-0.361572	0.621499	-0.165600	-0.750520	-0.151774
07674		9.642215	0.219279	-1.792771	0.008417	0.000552	-0.012496	-0.895752	0.229980	-0.363525	0.621502	-0.165530	-0.750533	-0.151774
07675		9.633663	0.239809	-1.770632	0.004084	0.002423	-0.014219	-0.899658	0.217285	-0.362793	0.621527	-0.165505	-0.750505	-0.151834
07676		9.632447	0.225538	-1.791704	-0.001947	0.000649	-0.011982	-0.901611	0.221924	-0.363525	0.621515	-0.165463	-0.750509	-0.151913
07677		9.650746	0.210995	-1.813572	0.002765	0.002056	-0.015148	-0.893555	0.234131	-0.358154	0.621519	-0.165385	-0.750508	-0.151985
07678		9.652973	0.228758	-1.762752	0.002758	0.000289	-0.014420	-0.901855	0.218018	-0.363770	0.621503	-0.165413	-0.750499	-0.152068
07679		9.643311	0.252499	-1.769802	0.000232	0.001911	-0.011827	-0.903076	0.229248	-0.364258	0.621507	-0.165359	-0.750495	-0.152130
07680		9.623472	0.256871	-1.778182	-0.000638	0.002828	-0.012649	-0.906006	0.219971	-0.370361	0.621518	-0.165381	-0.750460	-0.152230
07681		9.651634	0.241368	-1.800038	-0.000973	0.002996	-0.007519	-0.896240	0.221191	-0.368408	0.621557	-0.165380	-0.750419	-0.152273
07682		9.622532	0.233284	-1.789700	0.003285	0.001353	-0.010060	-0.893311	0.217529	-0.364502	0.621595	-0.165337	-0.750394	-0.152288
07683		9.642496	0.223453	-1.771895	0.002836	0.000067	-0.010166	-0.899170	0.217041	-0.364014	0.621609	-0.165280	-0.750393	-0.152300
07684		9.661927	0.225494	-1.772788	-0.000206	-0.001188	-0.010356	-0.893311	0.223633	-0.364014	0.621590	-0.165245	-0.750407	-0.152345
07685		9.651740	0.229263	-1.782208	0.004973	0.000561	-0.011775	-0.893555	0.220947	-0.359619	0.621609	-0.165201	-0.750398	-0.152362
07686		9.642626	0.260822	-1.778611	0.003315	0.001265	-0.008359	-0.895508	0.224609	-0.360596	0.621617	-0.165189	-0.750392	-0.152372
07687		9.650599	0.184952	-1.786974	0.006723	-0.000410	-0.010077	-0.895752	0.221436	-0.363281	0.621614	-0.165162	-0.750401	-0.152367
07688		9.630425	0.209961	-1.813253	0.026980	0.001770	-0.014402	-0.892090	0.226562	-0.368408	0.621676	-0.164906	-0.750440	-0.152201
07689		9.645733	0.309955	-1.714798	0.013619	0.003130	-0.013037	-0.898438	0.219482	-0.359619	0.621753	-0.164796	-0.750409	-0.152154
07690		9.634616	0.285273	-1.736564	0.001565	-0.000441	-0.008541	-0.901123	0.218018	-0.360596	0.621731	-0.164793	-0.750423	-0.152181
07691		9.642196	0.241540	-1.771157	0.001565	-0.000441	-0.008542	-0.897705	0.222412	-0.366455	0.621708	-0.164778	-0.750441	-0.152205
07692		9.642255	0.232755	-1.762676	0.004150	-0.001331	-0.008522	-0.903076	0.224854	-0.369385	0.621713	-0.164767	-0.750440	-0.152203
07693		9.642168	0.234649	-1.762901	-0.001014	-0.000456	-0.007772	-0.895508	0.222168	-0.363037	0.621719	-0.164814	-0.750415	-0.152251
07694		9.640582	0.199976	-1.786403	0.004978	-0.000347	-0.010998	-0.898926	0.218262	-0.366211	0.621720	-0.164775	-0.750419	-0.152264
07695		9.651279	0.251065	-1.781767	0.010551	0.001059	-0.014150	-0.900146	0.219238	-0.356934	0.621746	-0.164628	-0.750435	-0.152243
07696		9.642566	0.271453	-1.759899	0.004534	0.000131	-0.011840	-0.899414	0.220459	-0.359863	0.621715	-0.164576	-0.750466	-0.152272
07697		9.652246	0.273792	-1.760314	-0.001046	-0.000371	-0.009485	-0.898438	0.215576	-0.366211	0.621686	-0.164595	-0.750473	-0.152334
07698		9.650168	0.230350	-1.794389	0.002438	0.000410	-0.008463	-0.898926	0.225586	-0.368408	0.621700	-0.164549	-0.750471	-0.152336
07699		9.641136	0.251151	-1.782074	0.002837	0.001829	-0.010925	-0.897461	0.224365	-0.361328	0.621733	-0.164542	-0.750436	-0.152380
07700		9.642022	0.261116	-1.761411	0.001573	0.000419	-0.008492	-0.898438	0.220215	-0.365967	0.621728	-0.164575	-0.750425	-0.152418
07701		9.632245	0.242810	-1.753072	0.005462	0.001716	-0.009137	-0.888672	0.226318	-0.361328	0.621759	-0.164531	-0.750410	-0.152412
07702		9.661169	0.245150	-1.763607	-0.003132	0.000766	-0.006048	-0.898682	0.228027	-0.362061	0.621768	-0.164639	-0.750366	-0.152477
07703		9.640370	0.240397	-1.792936	0.001581	-0.000486	-0.007700	-0.900146	0.223633	-0.370117	0.621757	-0.164706	-0.750353	-0.152518
07704		9.650958	0.249879	-1.772971	0.001137	-0.000007	-0.008539	-0.897949	0.225098	-0.366455	0.621777	-0.164721	-0.750326	-0.152550
07705		9.651101	0.282047	-1.779564	-0.000149	0.001298	-0.008491	-0.900391	0.225098	-0.364014	0.621796	-0.164761	-0.750291	-0.152603
07706		9.650939	0.253886	-1.772506	-0.000998	0.001262	-0.007664	-0.896484	0.218018	-0.363770	0.621800	-0.164818	-0.750263	-0.152661
07707		9.642974	0.250760	-1.723289	-0.001832	0.001183	-0.005981	-0.891602	0.224365	-0.364258	0.621811	-0.164848	-0.750241	-0.152693
07708		9.631251	0.247522	-1.772320	0.000335	-0.000173	-0.005148	-0.896973	0.218750	-0.360596	0.621825	-0.164917	-0.750210	-0.152711
07709		9.651064	0.227320	-1.755849	-0.004886	-0.001803	-0.006286	-0.896240	0.226807	-0.365479	0.621787	-0.164982	-0.750215	-0.152772
07710		9.659846	0.241619	-1.784523	0.002454	0.000369	-0.007617	-0.892578	0.220947	-0.363525	0.621804	-0.165024	-0.750187	-0.152797
07711		9.650212	0.253400	-1.783118	-0.001458	0.000018	-0.008626	-0.902832	0.227051	-0.367676	0.621805	-0.165049	-0.750170	-0.152850
07712		9.630655	0.275850	-1.789906	0.000334	0.001594	-0.005886	-0.903320	0.215332	-0.368896	0.621828	-0.165117	-0.750128	-0.152885
07713		9.660323	0.255313	-1.773372	0.002501	0.000239	-0.005052	-0.894531	0.227783	-0.375244	0.621849	-0.165091	-0.750123	-0.152856
07714		9.630848	0.247153	-1.773296	-0.000102	-0.000599	-0.005194	-0.904541	0.223633	-0.366211	0.621895	-0.165169	-0.750063	-0.152878
07715		9.640041	0.239244	-1.784495	0.008134	-0.000285	-0.004052	-0.895508	0.218994	-0.368652	0.621911	-0.165172	-0.750062	-0.152814
07716		9.651508	0.255394	-1.744159	0.004659	-0.000211	-0.005016	-0.904785	0.228760	-0.365234	0.621943	-0.165159	-0.750047	-0.152771
07717		9.650614	0.228070	-1.757056	-0.000062	-0.001592	-0.002687	-0.898438	0.218018	-0.360107	0.621928	-0.165278	-0.750030	-0.152786
07718		9.650178	0.229801	-1.767093	0.000359	-0.001122	-0.003499	-0.900146	0.218262	-0.362061	0.621908	-0.165318	-0.750040	-0.152773
07719		9.650998	0.217974	-1.739398	0.007668	-0.002390	-0.005073	-0.905518	0.224854	-0.357422	0.621893	-0.165286	-0.750075	-0.152702
07720		9.650157	0.220744	-1.759386	0.007255	-0.001999	-0.004201	-0.901855	0.227539	-0.362793	0.621856	-0.165317	-0.750108	-0.152654
07721		9.649824	0.232591	-1.768662	0.005890	-0.002245	-0.007696	-0.905518	0.220947	-0.366211	0.621834	-0.165337	-0.750123	-0.152647
07722		9.639661	0.265002	-1.785365	0.005954	-0.002419	-0.004273	-0.893555	0.221680	-0.362061	0.621824	-0.165337	-0.750143	-0.152591
07723		9.649342	0.245149	-1.778623	0.009413	-0.002447	-0.004168	-0.904053	0.221924	-0.361572	0.621826	-0.165326	-0.750162	-0.152504
07724		9.649785	0.233911	-1.760840	0.011159	-0.002505	-0.003260	-0.893555	0.225098	-0.366699	0.621813	-0.165308	-0.750198	-0.152396
07725		9.638093	0.239042	-1.809644	0.013340	-0.002135	-0.002311	-0.898926	0.225098	-0.363525	0.621847	-0.165301	-0.750198	-0.152266
07726		9.629132	0.246930	-1.789295	0.006880	-0.000832	-0.001563	-0.901611	0.223633	-0.366211	0.621860	-0.165350	-0.750190	-0.152196
07727		9.639404	0.235039	-1.771585	0.010349	-0.001765	-0.000663	-0.901855	0.222412	-0.361328	0.621879	-0.165367	-0.750195	-0.152079
07728		9.648086	0.197250	-1.786151	0.010691	-0.002847	-0.005021	-0.899902	0.220703	-0.363525	0.621861	-0.165339	-0.750234	-0.151989
07729		9.649698	0.213424	-1.746088	0.015450	-0.002455	-0.004853	-0.899414	0.217285	-0.364990	0.621869	-0.165261	-0.750274	-0.151846
07730		9.638835	0.226880	-1.774638	0.010238	-0.003232	-0.005924	-0.890137	0.218262	-0.366943	0.621863	-0.165189	-0.750315	-0.151746
07731		9.639331	0.246424	-1.763743	0.010229	-0.002328	-0.006723	-0.895996	0.218994	-0.360840	0.621886	-0.165115	-0.750330	-0.151654
07732		9.657922	0.249232	-1.784801	0.005488	-0.004529	-0.005298	-0.900635	0.224609	-0.365479	0.621850	-0.165110	-0.750373	-0.151601
07733		9.638199	0.250189	-1.785062	0.000370	-0.003796	-0.001965	-0.894287	0.224121	-0.365723	0.621825	-0.165205	-0.750375	-0.151587
07734		9.647645	0.240489	-1.787291	0.005163	-0.003486	-0.000084	-0.900391	0.225342	-0.366943	0.621829	-0.165276	-0.750372	-0.151510
07735		9.647786	0.259493	-1.786220	0.005631	-0.003143	0.001670	-0.901367	0.222900	-0.369141	0.621834	-0.165364	-0.750366	-0.151420
07736		9.639674	0.244375	-1.738697	-0.000370	-0.000595	0.003384	-0.893799	0.218750	-0.361084	0.621861	-0.165487	-0.750327	-0.151367
07737		9.638034	0.237948	-1.778637	-0.014627	-0.000957	0.003798	-0.902344	0.218262	-0.369385	0.621839	-0.165709	-0.750283	-0.151435
07738		9.635579	0.152614	-1.816667	-0.003358	-0.001991	0.005777	-0.902344	0.217529	-0.368164	0.621851	-0.165841	-0.750257	-0.151370
07739		9.637233	0.187547	-1.784037	0.009110	-0.000587	0.001947	-0.890625	0.228760	-0.360352	0.621890	-0.165832	-0.750257	-0.151218
07740		9.648295	0.223519	-1.761417	0.005231	-0.001029	0.002660	-0.903809	0.228516	-0.358643	0.621908	-0.165957	-0.750230	-0.151141
07741		9.636812	0.186999	-1.794174	-0.000403	-0.000511	0.001671	-0.894043	0.227783	-0.365234	0.621889	-0.166110	-0.750214	-0.151128
07742		9.646910	0.185813	-1.785028	0.009457	-0.000812	-0.002354	-0.900391	0.229492	-0.369873	0.621921	-0.166134	-0.750200	-0.151041
07743		9.637968	0.214011	-1.772081	0.010804	0.001248	-0.000459	-0.899658	0.227539	-0.372314	0.621985	-0.166163	-0.750163	-0.150932
07744		9.647781	0.213504	-1.772207	0.003918	0.001219	0.001055	-0.902344	0.228271	-0.361816	0.622047	-0.166242	-0.750107	-0.150866
07745		9.637220	0.205508	-1.791762	0.006058	0.002578	-0.000508	-0.901611	0.229004	-0.368652	0.622080	-0.166306	-0.750077	-0.150808
07746		9.647607	0.193788	-1.773481	0.005149	-0.000819	-0.001623	-0.897705	0.233154	-0.366943	0.622102	-0.166367	-0.750055	-0.150756
07747		9.637889	0.223655	-1.780176	0.004802	-0.000594	0.002675	-0.896729	0.229492	-0.364258	0.622134	-0.166502	-0.750012	-0.150689
07748		9.637821	0.192781	-1.773377	-0.006837	-0.000153	0.004085	-0.899658	0.230225	-0.366943	0.622141	-0.166718	-0.749955	-0.150711
07749		9.657282	0.161787	-1.767231	0.000485	0.000302	0.002610	-0.900146	0.227783	-0.368896	0.622169	-0.166859	-0.749908	-0.150675
07750		9.656218	0.164240	-1.796137	0.006051	0.001716	-0.000567	-0.902344	0.226074	-0.361572	0.622222	-0.166902	-0.749868	-0.150603
07751		9.648862	0.218720	-1.751111	-0.000420	-0.000469	0.000815	-0.894531	0.226318	-0.370605	0.622214	-0.167010	-0.749857	-0.150576
07752		9.648884	0.198154	-1.743595	-0.003876	-0.002206	0.001456	-0.892822	0.223877	-0.359375	0.622227	-0.167144	-0.749817	-0.150565
07753		9.628544	0.179876	-1.755284	-0.009522	-0.005175	0.001091	-0.899658	0.231445	-0.373291	0.622164	-0.167323	-0.749822	-0.150603
07754		9.637169	0.192108	-1.784782	-0.003414	-0.002724	0.003151	-0.898193	0.230713	-0.359375	0.622179	-0.167495	-0.749775	-0.150588
07755		9.656519	0.161338	-1.779198	-0.010326	-0.001806	0.003011	-0.894287	0.228516	-0.359131	0.622141	-0.167731	-0.749741	-0.150649
07756		9.646591	0.131379	-1.772445	-0.001767	-0.002528	-0.001082	-0.895996	0.224609	-0.362793	0.622113	-0.167848	-0.749738	-0.150650
07757		9.647249	0.180375	-1.768180	-0.008662	-0.001652	-0.000365	-0.890137	0.232910	-0.362305	0.622090	-0.167989	-0.749717	-0.150693
07758		9.624535	0.128445	-1.831607	0.001261	-0.000357	-0.001705	-0.898926	0.225098	-0.362549	0.622105	-0.168096	-0.749682	-0.150687
07759		9.657185	0.170174	-1.759998	0.012065	0.000889	-0.002164	-0.884766	0.239746	-0.370850	0.622141	-0.168054	-0.749688	-0.150556
07760		9.627634	0.171691	-1.768005	0.009894	0.004005	-0.003734	-0.896484	0.224121	-0.358643	0.622248	-0.168103	-0.749597	-0.150510
07761		9.656520	0.162872	-1.779054	0.005177	0.002626	-0.001390	-0.895996	0.238525	-0.369873	0.622276	-0.168116	-0.749584	-0.150440
07762		9.627025	0.164290	-1.786785	0.003461	0.004363	-0.001322	-0.891602	0.234863	-0.361572	0.622356	-0.168224	-0.749495	-0.150433
07763		9.646705	0.134113	-1.779381	0.007353	0.006527	-0.001923	-0.904297	0.231689	-0.366211	0.622441	-0.168279	-0.749421	-0.150392
07764		9.638262	0.152173	-1.756131	0.009034	0.006638	-0.004444	-0.902588	0.227539	-0.366455	0.622521	-0.168262	-0.749369	-0.150339
07765		9.638681	0.162523	-1.753633	0.010763	0.006625	-0.004397	-0.902588	0.229492	-0.371826	0.622608	-0.168204	-0.749327	-0.150253
07766		9.658809	0.162259	-1.743246	-0.000921	0.005424	-0.004816	-0.899902	0.229004	-0.368408	0.622676	-0.168243	-0.749256	-0.150281
07767		9.629187	0.155093	-1.751753	-0.003536	0.002860	-0.005064	-0.897705	0.231201	-0.354248	0.622706	-0.168306	-0.749207	-0.150330
07768		9.658506	0.196990	-1.767276	-0.003948	0.007643	-0.005616	-0.892090	0.229736	-0.364746	0.622733	-0.168391	-0.749147	-0.150419
07769		9.658380	0.209605	-1.783145	-0.001673	0.013922	-0.001695	-0.899658	0.229980	-0.365479	0.622875	-0.168462	-0.749006	-0.150453
07770		9.641655	0.204451	-1.720627	-0.015424	0.014682	0.002242	-0.895020	0.227051	-0.366943	0.622993	-0.168672	-0.748835	-0.150587
07771		9.649719	0.149866	-1.762316	-0.018878	0.011180	0.003618	-0.904297	0.233154	-0.364014	0.623084	-0.168906	-0.748679	-0.150722
07772		9.650031	0.119883	-1.753351	-0.023677	0.005617	0.003095	-0.888916	0.234131	-0.364502	0.623087	-0.169221	-0.748565	-0.150919
07773		9.638279	0.065940	-1.796099	-0.008618	0.006140	-0.000710	-0.889160	0.232910	-0.362305	0.623144	-0.169393	-0.748462	-0.151007
07774		9.641204	0.150522	-1.747213	0.015871	0.005939	-0.008565	-0.895264	0.236572	-0.361816	0.623228	-0.169292	-0.748432	-0.150923
07775		9.651128	0.121545	-1.739340	0.008999	0.005866	-0.006206	-0.894043	0.235596	-0.364502	0.623289	-0.169292	-0.748385	-0.150901
07776		9.651437	0.122907	-1.737528	0.014151	0.009441	-0.009250	-0.887695	0.241455	-0.363525	0.623399	-0.169206	-0.748322	-0.150855
07777		9.642376	0.173834	-1.739988	0.011182	0.008866	-0.005946	-0.897705	0.234375	-0.370850	0.623508	-0.169221	-0.748232	-0.150836
07778		9.651986	0.115743	-1.734504	0.019735	0.006426	-0.010148	-0.900146	0.234863	-0.368652	0.623614	-0.169072	-0.748199	-0.150728
07779		9.642435	0.147443	-1.740041	0.024464	0.002514	-0.010270	-0.895996	0.228516	-0.365967	0.623681	-0.168899	-0.748213	-0.150573
07780		9.663415	0.175125	-1.708382	0.016690	0.001667	-0.009706	-0.901367	0.233398	-0.373291	0.623722	-0.168756	-0.748234	-0.150462
07781		9.653553	0.187532	-1.715996	0.005937	0.005538	-0.008057	-0.885742	0.231201	-0.367432	0.623795	-0.168729	-0.748179	-0.150461
07782		9.652878	0.121036	-1.721290	0.007676	0.004623	-0.007207	-0.901367	0.235840	-0.370117	0.623867	-0.168698	-0.748131	-0.150433
07783		9.662532	0.163228	-1.736735	0.003759	0.000773	-0.007575	-0.896240	0.240234	-0.369873	0.623880	-0.168722	-0.748111	-0.150453
07784		9.662381	0.125385	-1.730633	0.000265	0.000016	-0.009449	-0.900635	0.231689	-0.371826	0.623880	-0.168791	-0.748078	-0.150538
07785		9.662899	0.145857	-1.719237	0.000734	-0.001402	-0.006948	-0.895996	0.227295	-0.375488	0.623874	-0.168818	-0.748073	-0.150557
07786		9.662512	0.148216	-1.729089	-0.003534	0.000227	-0.004390	-0.892578	0.233154	-0.366699	0.623898	-0.168868	-0.748038	-0.150578
07787		9.643474	0.188181	-1.724479	-0.000469	0.001418	-0.002502	-0.892578	0.231201	-0.371338	0.623919	-0.168960	-0.747997	-0.150590
07788		9.653083	0.169135	-1.726189	0.000851	0.002661	-0.001522	-0.894775	0.235596	-0.374023	0.623972	-0.169029	-0.747942	-0.150571
07789		9.642518	0.151813	-1.746539	-0.001284	0.002162	0.000102	-0.892822	0.226562	-0.370605	0.624022	-0.169155	-0.747871	-0.150575
07790		9.652370	0.151927	-1.746357	0.000416	0.002233	-0.001563	-0.896240	0.232422	-0.366699	0.624067	-0.169194	-0.747832	-0.150539
07791		9.663782	0.167630	-1.705605	-0.012041	0.000775	0.003131	-0.895508	0.235352	-0.368652	0.624061	-0.169418	-0.747771	-0.150609
07792		9.664483	0.165296	-1.686092	-0.019340	-0.000634	0.006257	-0.897461	0.229004	-0.366211	0.624040	-0.169747	-0.747690	-0.150728
07793		9.622568	0.032805	-1.736148	-0.016329	0.004209	0.004080	-0.899902	0.228760	-0.369141	0.624058	-0.169978	-0.747605	-0.150821
07794		9.631485	0.036135	-1.764674	0.006806	0.003774	-0.007286	-0.896729	0.235352	-0.365967	0.624104	-0.169914	-0.747589	-0.150778
07795		9.633419	0.103295	-1.728228	0.020947	0.002720	-0.013809	-0.889404	0.233398	-0.379395	0.624152	-0.169731	-0.747610	-0.150683
07796		9.663704	0.133169	-1.706848	0.019151	-0.000592	-0.016667	-0.904297	0.237061	-0.368896	0.624212	-0.169516	-0.747626	-0.150596
07797		9.643775	0.177273	-1.722509	0.015687	-0.004058	-0.016142	-0.899414	0.231201	-0.372070	0.624179	-0.169373	-0.747693	-0.150561
07798		9.664790	0.215111	-1.681879	0.012728	-0.005536	-0.012029	-0.894043	0.230225	-0.361816	0.624150	-0.169257	-0.747758	-0.150491
07799		9.654142	0.188632	-1.695207	0.001631	-0.004115	-0.004521	-0.896484	0.232178	-0.362061	0.624101	-0.169304	-0.747790	-0.150479
07800		9.653354	0.101600	-1.694997	-0.004032	-0.006156	-0.006542	-0.897461	0.229248	-0.370361	0.624015	-0.169391	-0.747830	-0.150540
07801		9.652111	0.115896	-1.724860	0.002416	-0.007403	-0.008156	-0.892822	0.238525	-0.369629	0.623954	-0.169384	-0.747886	-0.150525
07802		9.662327	0.155973	-1.713177	-0.002784	-0.003847	-0.009800	-0.894531	0.242920	-0.363281	0.623915	-0.169460	-0.747882	-0.150621
07803		9.661330	0.150460	-1.734495	-0.010091	-0.004361	-0.007466	-0.890869	0.238281	-0.370361	0.623838	-0.169652	-0.747868	-0.150793
07804		9.651187	0.142804	-1.736518	0.000268	-0.007861	-0.007393	-0.892090	0.229004	-0.365234	0.623779	-0.169730	-0.747892	-0.150830
07805		9.649976	0.126968	-1.759483	0.000277	-0.006138	-0.007281	-0.895996	0.236572	-0.364258	0.623720	-0.169750	-0.747936	-0.150834
07806		9.641473	0.135052	-1.720508	0.009724	-0.003397	-0.011135	-0.892334	0.236572	-0.375732	0.623690	-0.169704	-0.747973	-0.150821
07807		9.660780	0.176814	-1.728216	-0.002309	-0.004403	-0.007244	-0.894531	0.240967	-0.368652	0.623674	-0.169780	-0.747959	-0.150873
07808		9.639417	0.123304	-1.763525	-0.001472	-0.006951	-0.008249	-0.903564	0.239258	-0.374268	0.623609	-0.169879	-0.747976	-0.150949
07809		9.669202	0.132990	-1.745683	0.005872	-0.004791	-0.008759	-0.893555	0.230957	-0.358154	0.623583	-0.169890	-0.747994	-0.150949
07810		9.648773	0.146564	-1.764850	0.004135	-0.006506	-0.008923	-0.897949	0.237549	-0.366211	0.623504	-0.169883	-0.748063	-0.150944
07811		9.639734	0.135983	-1.737633	-0.000149	-0.004845	-0.007215	-0.897461	0.229980	-0.364502	0.623453	-0.169956	-0.748080	-0.150991
07812		9.658321	0.090107	-1.753573	0.005433	-0.002594	-0.009494	-0.897705	0.242920	-0.365234	0.623427	-0.169911	-0.748114	-0.150975
07813		9.668194	0.112143	-1.752145	0.005789	0.002387	-0.014330	-0.898193	0.226074	-0.374268	0.623440	-0.169893	-0.748090	-0.151062
07814		9.639248	0.154310	-1.746895	0.015700	0.001996	-0.015804	-0.898926	0.231689	-0.371338	0.623496	-0.169666	-0.748112	-0.150979
07815		9.659563	0.165034	-1.726970	0.008842	0.001000	-0.012618	-0.903564	0.225830	-0.371094	0.623523	-0.169566	-0.748115	-0.150965
07816		9.659321	0.187999	-1.734657	0.002821	0.000942	-0.011069	-0.897705	0.230225	-0.370117	0.623534	-0.169488	-0.748123	-0.150970
07817		9.649759	0.160518	-1.726928	0.001528	0.002240	-0.011022	-0.892822	0.230957	-0.366943	0.623557	-0.169452	-0.748103	-0.151011
07818		9.649932	0.191993	-1.723989	-0.002740	-0.000491	-0.007871	-0.899658	0.230469	-0.372070	0.623549	-0.169494	-0.748088	-0.151069
07819		9.650381	0.153392	-1.708233	-0.010938	-0.000073	-0.007212	-0.906738	0.232178	-0.373291	0.623535	-0.169594	-0.748053	-0.151190
07820		9.649151	0.129059	-1.739843	-0.007040	0.002068	-0.006964	-0.899414	0.234131	-0.362793	0.623544	-0.169667	-0.748010	-0.151284
07821		9.639028	0.122002	-1.749711	0.003334	0.001174	-0.006731	-0.893311	0.236328	-0.372803	0.623545	-0.169690	-0.748000	-0.151300
07822		9.649015	0.172052	-1.745557	0.005056	-0.001416	-0.006852	-0.889160	0.231201	-0.367676	0.623564	-0.169708	-0.747983	-0.151289
07823		9.649887	0.151600	-1.718685	0.005870	-0.002160	-0.009467	-0.887207	0.230957	-0.366943	0.623562	-0.169672	-0.747996	-0.151274
07824		9.658396	0.146300	-1.749615	0.006351	-0.001851	-0.006846	-0.889648	0.233643	-0.370850	0.623570	-0.169656	-0.748001	-0.151234
07825		9.649274	0.136442	-1.730819	0.010187	0.001315	-0.009986	-0.896484	0.228516	-0.371582	0.623618	-0.169586	-0.747985	-0.151196
07826		9.648613	0.139879	-1.749775	0.006796	0.002887	-0.006528	-0.903076	0.234375	-0.367432	0.623673	-0.169537	-0.747960	-0.151144
07827		9.649651	0.119236	-1.722114	0.010632	-0.000019	-0.009201	-0.897461	0.228516	-0.373535	0.623682	-0.169478	-0.747975	-0.151104
07828		9.649603	0.121130	-1.722248	0.009749	-0.000838	-0.010145	-0.901611	0.231201	-0.370361	0.623705	-0.169378	-0.747990	-0.151041
07829		9.648838	0.125334	-1.741739	0.006677	0.000581	-0.012730	-0.896729	0.232666	-0.359863	0.623715	-0.169294	-0.747999	-0.151049
07830		9.639705	0.126379	-1.722289	0.009679	-0.003263	-0.013763	-0.903320	0.236572	-0.368652	0.623669	-0.169210	-0.748056	-0.151053
07831		9.648513	0.140931	-1.742375	0.013532	-0.006208	-0.015580	-0.894043	0.227051	-0.368652	0.623617	-0.169096	-0.748130	-0.151032
07832		9.659441	0.169873	-1.702997	0.012214	-0.008320	-0.016621	-0.901855	0.228760	-0.369141	0.623554	-0.168933	-0.748229	-0.150985
07833		9.658207	0.155676	-1.726420	0.004895	-0.009680	-0.015182	-0.897217	0.237305	-0.372559	0.623457	-0.168851	-0.748325	-0.151001
07834		9.656635	0.151848	-1.758622	0.007513	-0.008013	-0.013844	-0.893066	0.229248	-0.367676	0.623399	-0.168810	-0.748378	-0.151018
07835		9.648515	0.237998	-1.703431	0.001475	-0.006312	-0.013223	-0.893311	0.225342	-0.365479	0.623338	-0.168777	-0.748428	-0.151062
07836		9.656644	0.098117	-1.747606	-0.012766	-0.005062	-0.012266	-0.895752	0.232666	-0.369629	0.623255	-0.168841	-0.748450	-0.151222
07837		9.644779	0.095954	-1.797712	0.020017	-0.003189	-0.015202	-0.892822	0.239502	-0.363525	0.623262	-0.168657	-0.748505	-0.151127
07838		9.656705	0.161850	-1.734157	0.027287	-0.000851	-0.019055	-0.899170	0.235107	-0.360596	0.623284	-0.168428	-0.748556	-0.151040
07839		9.647607	0.192944	-1.711904	0.014323	0.000004	-0.019052	-0.893555	0.238525	-0.364990	0.623270	-0.168276	-0.748597	-0.151064
07840		9.646313	0.180266	-1.743270	0.002240	-0.003496	-0.018361	-0.900391	0.223389	-0.368896	0.623218	-0.168251	-0.748619	-0.151197
07841		9.646425	0.164395	-1.736410	0.008682	-0.005551	-0.020547	-0.899658	0.225098	-0.367188	0.623161	-0.168059	-0.748706	-0.151211
07842		9.646436	0.187503	-1.726428	0.005247	-0.006468	-0.019481	-0.888916	0.227783	-0.370117	0.623087	-0.167921	-0.748790	-0.151259
07843		9.656255	0.181261	-1.719392	0.002258	-0.005264	-0.017529	-0.901611	0.224609	-0.368408	0.623044	-0.167841	-0.748829	-0.151328
07844		9.645459	0.177296	-1.740500	0.005709	-0.004384	-0.017724	-0.892090	0.232422	-0.361816	0.622995	-0.167710	-0.748893	-0.151361
07845		9.654090	0.221821	-1.757839	0.004879	-0.003602	-0.015922	-0.897949	0.229492	-0.369873	0.622948	-0.167663	-0.748928	-0.151434
07846		9.644898	0.203772	-1.740822	0.006244	-0.005043	-0.012593	-0.888916	0.226318	-0.362549	0.622912	-0.167609	-0.748968	-0.151440
07847		9.644280	0.197277	-1.752566	0.004585	-0.004342	-0.009020	-0.896484	0.229248	-0.368896	0.622878	-0.167594	-0.749001	-0.151434
07848		9.644526	0.169515	-1.746545	0.004965	-0.004657	-0.011636	-0.899658	0.229004	-0.373779	0.622845	-0.167559	-0.749034	-0.151446
07849		9.634881	0.180703	-1.736682	0.011455	-0.004228	-0.011176	-0.899902	0.230225	-0.368652	0.622841	-0.167469	-0.749070	-0.151387
07850		9.653338	0.098115	-1.775417	0.008002	-0.004247	-0.010953	-0.887451	0.227539	-0.370117	0.622814	-0.167423	-0.749105	-0.151373
07851		9.653777	0.138095	-1.753369	0.024274	-0.002162	-0.017967	-0.891846	0.226562	-0.368408	0.622849	-0.167167	-0.749158	-0.151249
07852		9.653994	0.150580	-1.743229	0.015174	-0.000847	-0.019071	-0.897949	0.223389	-0.371826	0.622864	-0.166967	-0.749196	-0.151223
07853		9.653607	0.193597	-1.740467	0.019031	-0.003770	-0.021097	-0.899170	0.230469	-0.365479	0.622857	-0.166699	-0.749275	-0.151153
07854		9.652154	0.200713	-1.770558	0.009933	-0.003323	-0.022225	-0.899658	0.225586	-0.361816	0.622814	-0.166545	-0.749332	-0.151222
07855		9.662720	0.222820	-1.740947	0.007326	-0.003304	-0.022913	-0.895508	0.227295	-0.377197	0.622753	-0.166381	-0.749401	-0.151307
07856		9.651660	0.268279	-1.757274	0.002194	-0.001724	-0.019966	-0.891357	0.229980	-0.372803	0.622751	-0.166276	-0.749406	-0.151404
07857		9.641791	0.253496	-1.759241	-0.001681	-0.003911	-0.019766	-0.890625	0.225342	-0.362305	0.622714	-0.166232	-0.749418	-0.151550
07858		9.642041	0.237357	-1.752271	0.002744	-0.004963	-0.014904	-0.898682	0.230469	-0.364014	0.622657	-0.166188	-0.749462	-0.151613
07859		9.641302	0.193758	-1.777280	0.002336	-0.006298	-0.014045	-0.905518	0.223633	-0.370605	0.622582	-0.166184	-0.749509	-0.151691
07860		9.652061	0.184774	-1.750629	0.005364	-0.004154	-0.013326	-0.894775	0.225342	-0.369629	0.622547	-0.166109	-0.749553	-0.151701
07861		9.642378	0.196798	-1.740685	0.001013	-0.004115	-0.014767	-0.895508	0.228271	-0.364258	0.622511	-0.166070	-0.749578	-0.151771
07862		9.652161	0.209468	-1.731724	-0.000722	-0.005819	-0.015551	-0.895264	0.228516	-0.371338	0.622438	-0.166064	-0.749617	-0.151881
07863		9.649534	0.198791	-1.793231	-0.000718	-0.006683	-0.015567	-0.895264	0.225342	-0.367920	0.622377	-0.166054	-0.749650	-0.151980
07864		9.650752	0.209111	-1.754855	0.003981	-0.004411	-0.017530	-0.895752	0.228516	-0.363525	0.622334	-0.165970	-0.749690	-0.152047
07865		9.640205	0.223439	-1.764380	0.007017	-0.003990	-0.016849	-0.903564	0.226807	-0.362793	0.622291	-0.165892	-0.749733	-0.152101
07866		9.639187	0.256974	-1.772708	0.001898	-0.005009	-0.013968	-0.901367	0.220459	-0.360352	0.622221	-0.165873	-0.749780	-0.152175
07867		9.650142	0.200090	-1.759799	-0.000641	-0.004279	-0.011213	-0.895996	0.220947	-0.369873	0.622156	-0.165864	-0.749825	-0.152228
07868		9.659307	0.194168	-1.772000	0.007100	-0.005861	-0.013452	-0.895752	0.227539	-0.368652	0.622120	-0.165772	-0.749878	-0.152212
07869		9.638839	0.217059	-1.780590	0.008820	-0.004981	-0.013539	-0.899658	0.220459	-0.366699	0.622093	-0.165705	-0.749916	-0.152212
07870		9.649255	0.246813	-1.750332	0.007512	-0.002835	-0.013408	-0.903320	0.227051	-0.368896	0.622074	-0.165605	-0.749956	-0.152201
07871		9.647837	0.214145	-1.793307	0.003631	-0.003305	-0.013169	-0.896240	0.224121	-0.367188	0.622044	-0.165575	-0.749977	-0.152250
07872		9.639687	0.203914	-1.755607	0.008374	-0.002827	-0.013456	-0.902100	0.226562	-0.366699	0.622032	-0.165492	-0.750006	-0.152247
07873		9.639357	0.216551	-1.755556	0.006220	-0.003280	-0.013327	-0.896973	0.224121	-0.364746	0.622004	-0.165441	-0.750035	-0.152275
07874		9.638469	0.239934	-1.764347	0.008765	-0.002319	-0.015180	-0.897705	0.223389	-0.368408	0.621987	-0.165342	-0.750069	-0.152287
07875		9.637994	0.234294	-1.775449	0.008331	-0.001892	-0.015140	-0.897949	0.226318	-0.366943	0.621982	-0.165239	-0.750093	-0.152297
07876		9.648161	0.255586	-1.755231	0.007896	-0.001465	-0.015100	-0.900879	0.223633	-0.367920	0.621976	-0.165158	-0.750110	-0.152327
07877		9.647816	0.296772	-1.742916	0.009244	-0.003681	-0.013511	-0.901611	0.223877	-0.363770	0.621955	-0.165069	-0.750150	-0.152316
07878		9.626806	0.188353	-1.820761	-0.010591	-0.003069	-0.011394	-0.899902	0.223145	-0.360352	0.621890	-0.165160	-0.750149	-0.152483
07879		9.655746	0.230028	-1.809564	0.009658	-0.001515	-0.013491	-0.897705	0.219971	-0.364258	0.621871	-0.165070	-0.750185	-0.152480
07880		9.648283	0.237348	-1.750381	0.016145	-0.001047	-0.013028	-0.908447	0.225342	-0.365723	0.621884	-0.164912	-0.750226	-0.152396
07881		9.648757	0.257774	-1.729385	0.006204	0.000999	-0.012361	-0.892822	0.223633	-0.368164	0.621888	-0.164862	-0.750228	-0.152427
07882		9.637361	0.254035	-1.768664	0.002729	-0.000697	-0.013888	-0.898682	0.223877	-0.362061	0.621891	-0.164821	-0.750222	-0.152488
07883		9.636854	0.229576	-1.790781	0.002321	-0.001169	-0.013013	-0.892090	0.224365	-0.367188	0.621867	-0.164799	-0.750233	-0.152555
07884		9.646755	0.241922	-1.780901	0.003573	-0.000652	-0.014791	-0.893555	0.225098	-0.359375	0.621868	-0.164749	-0.750230	-0.152621
07885		9.646927	0.254392	-1.770384	0.001385	0.000652	-0.015482	-0.898682	0.217773	-0.370361	0.621853	-0.164720	-0.750227	-0.152728
07886		9.645809	0.269151	-1.788983	-0.002864	-0.000369	-0.012666	-0.892822	0.218506	-0.367188	0.621849	-0.164699	-0.750218	-0.152808
07887		9.656701	0.251422	-1.771498	0.007891	0.001094	-0.014163	-0.899658	0.221680	-0.367432	0.621877	-0.164587	-0.750220	-0.152810
07888		9.634729	0.295927	-1.806074	0.004060	0.001372	-0.011349	-0.905762	0.222900	-0.364258	0.621896	-0.164547	-0.750206	-0.152839
07889		9.645850	0.314555	-1.765636	-0.003184	0.001536	-0.006616	-0.899414	0.218750	-0.367920	0.621896	-0.164616	-0.750177	-0.152910
07890		9.638801	0.235696	-1.742428	-0.007435	-0.001178	-0.004692	-0.899658	0.222656	-0.367920	0.621882	-0.164716	-0.750153	-0.152978
07891		9.648241	0.210020	-1.764478	-0.010531	0.002738	-0.006132	-0.899902	0.227539	-0.367432	0.621895	-0.164840	-0.750087	-0.153110
07892		9.648849	0.183058	-1.766346	-0.001534	0.001700	-0.010135	-0.896729	0.221924	-0.369385	0.621908	-0.164885	-0.750048	-0.153206
07893		9.640233	0.211805	-1.724429	0.001413	-0.000243	-0.014631	-0.895508	0.224609	-0.373535	0.621909	-0.164837	-0.750042	-0.153280
07894		9.627824	0.238929	-1.771161	0.001347	-0.000966	-0.018058	-0.899658	0.214600	-0.370605	0.621908	-0.164770	-0.750036	-0.153387
07895		9.646368	0.245023	-1.791429	0.004382	0.001162	-0.016492	-0.905518	0.218750	-0.372559	0.621925	-0.164638	-0.750044	-0.153421
07896		9.637395	0.247275	-1.771460	0.004770	-0.000022	-0.019100	-0.906250	0.216309	-0.367676	0.621924	-0.164500	-0.750062	-0.153485
07897		9.648086	0.240716	-1.753320	0.009483	-0.000319	-0.021102	-0.894287	0.217285	-0.356934	0.621913	-0.164301	-0.750108	-0.153516
07898		9.657960	0.254450	-1.743138	0.010345	0.001385	-0.020262	-0.898682	0.219238	-0.365967	0.621907	-0.164122	-0.750144	-0.153554
07899		9.647271	0.278679	-1.750628	0.003936	0.000756	-0.017310	-0.897949	0.221680	-0.371094	0.621906	-0.164024	-0.750152	-0.153627
07900		9.635888	0.275760	-1.789918	0.004401	-0.000568	-0.016506	-0.899170	0.216309	-0.368652	0.621909	-0.163941	-0.750155	-0.153691
07901		9.647933	0.247370	-1.753858	0.009131	0.000797	-0.016769	-0.896729	0.217529	-0.363770	0.621926	-0.163791	-0.750172	-0.153697
07902		9.639392	0.229790	-1.735667	0.018605	-0.000720	-0.019083	-0.898193	0.221436	-0.375244	0.621934	-0.163562	-0.750227	-0.153642
07903		9.647620	0.255124	-1.754469	0.008690	-0.002994	-0.019361	-0.901611	0.214600	-0.368896	0.621927	-0.163423	-0.750255	-0.153680
07904		9.646157	0.326688	-1.739935	0.012567	-0.002503	-0.019584	-0.890137	0.218018	-0.362793	0.621913	-0.163222	-0.750313	-0.153667
07905		9.664954	0.331951	-1.751253	0.007884	-0.003111	-0.016744	-0.891846	0.221924	-0.357178	0.621885	-0.163114	-0.750353	-0.153696
07906		9.634794	0.325761	-1.771191	0.004616	-0.004334	-0.008888	-0.901611	0.215576	-0.365723	0.621838	-0.163137	-0.750383	-0.153715
07907		9.645012	0.317235	-1.763546	-0.000526	-0.002792	-0.005986	-0.903076	0.217285	-0.368896	0.621813	-0.163177	-0.750393	-0.153728
07908		9.646037	0.288408	-1.756822	0.007703	-0.002297	-0.004776	-0.901123	0.223389	-0.366943	0.621817	-0.163168	-0.750405	-0.153659
07909		9.635664	0.307989	-1.755460	0.007780	-0.002432	-0.001372	-0.892090	0.213379	-0.367188	0.621824	-0.163227	-0.750402	-0.153589
07910		9.656679	0.277704	-1.739847	0.007799	-0.002466	-0.000520	-0.901367	0.221680	-0.373779	0.621844	-0.163242	-0.750406	-0.153472
07911		9.646819	0.258653	-1.751615	0.005651	-0.004625	-0.001278	-0.896240	0.218506	-0.366943	0.621843	-0.163304	-0.750407	-0.153401
07912		9.637117	0.248512	-1.753079	0.004390	-0.004281	0.000510	-0.899902	0.217041	-0.370361	0.621835	-0.163383	-0.750413	-0.153323
07913		9.625610	0.241916	-1.793523	0.001271	-0.005424	-0.004434	-0.898682	0.216553	-0.365479	0.621805	-0.163429	-0.750432	-0.153301
07914		9.654682	0.289542	-1.763174	0.006557	-0.006371	-0.000509	-0.902344	0.220215	-0.360352	0.621774	-0.163475	-0.750468	-0.153199
07915		9.655246	0.287794	-1.745575	0.010468	-0.008468	-0.000782	-0.901855	0.222168	-0.366699	0.621714	-0.163514	-0.750535	-0.153077
07916		9.645027	0.259334	-1.768731	0.005315	-0.006061	0.002132	-0.892090	0.214355	-0.353027	0.621688	-0.163620	-0.750552	-0.152986
07917		9.645057	0.230041	-1.782330	0.012655	-0.006375	0.001680	-0.898193	0.222168	-0.367920	0.621651	-0.163639	-0.750614	-0.152813
07918		9.655258	0.219113	-1.775249	0.016461	-0.004919	-0.001084	-0.894531	0.224854	-0.370361	0.621660	-0.163624	-0.750644	-0.152643
07919		9.623492	0.072809	-1.923119	0.034860	-0.000573	-0.006387	-0.902100	0.224121	-0.367920	0.621747	-0.163420	-0.750674	-0.152357
07920		9.644006	0.351441	-1.717067	0.064514	-0.002030	-0.014137	-0.900391	0.216797	-0.365479	0.621852	-0.162913	-0.750801	-0.151849
07921		9.662495	0.400679	-1.705497	0.008149	-0.003594	-0.004801	-0.898438	0.224121	-0.367188	0.621840	-0.162902	-0.750828	-0.151773
07922		9.623054	0.306929	-1.770772	-0.010657	-0.006713	0.002243	-0.900879	0.221924	-0.373779	0.621779	-0.163148	-0.750812	-0.151839
07923		9.641522	0.271256	-1.814758	-0.013240	-0.004228	0.004141	-0.895264	0.214111	-0.363770	0.621755	-0.163406	-0.750762	-0.151903
07924		9.643193	0.267723	-1.776792	-0.007181	-0.004163	0.004632	-0.899170	0.227051	-0.364502	0.621727	-0.163589	-0.750750	-0.151885
07925		9.644473	0.246123	-1.759676	-0.016683	-0.003452	0.005217	-0.897705	0.217285	-0.365479	0.621684	-0.163914	-0.750691	-0.152000
07926		9.635239	0.169938	-1.795016	-0.020622	-0.002155	0.003775	-0.900391	0.224365	-0.364502	0.621647	-0.164199	-0.750634	-0.152126
07927		9.643101	0.173409	-1.834620	0.000397	-0.000360	-0.001735	-0.892334	0.225098	-0.363525	0.621655	-0.164300	-0.750605	-0.152126
07928		9.635302	0.217268	-1.762340	0.015389	0.000476	-0.006893	-0.901367	0.226318	-0.366455	0.621697	-0.164241	-0.750603	-0.152030
07929		9.653770	0.276497	-1.748787	0.007195	0.001607	-0.005525	-0.900146	0.220947	-0.367432	0.621733	-0.164258	-0.750574	-0.152005
07930		9.644331	0.146221	-1.826812	0.008061	-0.000074	-0.006454	-0.896484	0.222656	-0.367432	0.621757	-0.164233	-0.750570	-0.151954
07931		9.613012	0.177901	-1.851947	0.049293	0.005105	-0.013962	-0.897217	0.221191	-0.360596	0.621904	-0.163818	-0.750613	-0.151592
07932		9.652466	0.338057	-1.742535	0.060926	0.009114	-0.012855	-0.890137	0.220459	-0.361084	0.622095	-0.163315	-0.750658	-0.151122
07933		9.636194	0.323597	-1.682686	0.021468	0.004731	-0.002899	-0.899902	0.219482	-0.371338	0.622191	-0.163224	-0.750636	-0.150936
07934		9.645118	0.278729	-1.734543	-0.013819	0.002334	0.001693	-0.899414	0.220459	-0.373047	0.622215	-0.163438	-0.750551	-0.151030
07935		9.634053	0.168743	-1.839465	-0.003892	0.002064	0.001108	-0.899170	0.222168	-0.368652	0.622260	-0.163572	-0.750483	-0.151035
07936		9.642753	0.263916	-1.802534	0.018896	0.006354	-0.001019	-0.898682	0.218750	-0.368164	0.622377	-0.163511	-0.750434	-0.150861
07937		9.655817	0.343037	-1.678562	-0.012524	0.003620	0.002485	-0.891357	0.223389	-0.365967	0.622410	-0.163716	-0.750348	-0.150936
07938		9.656900	0.211071	-1.746155	-0.043511	0.002156	0.006845	-0.896729	0.219727	-0.368408	0.622375	-0.164232	-0.750193	-0.151284
07939		9.635269	0.148887	-1.837298	-0.023251	0.002085	0.004812	-0.903076	0.226562	-0.370361	0.622379	-0.164545	-0.750091	-0.151438
07940		9.644761	0.215270	-1.802358	0.001603	0.006135	-0.001709	-0.893799	0.224854	-0.370605	0.622456	-0.164623	-0.750009	-0.151439
07941		9.657511	0.257824	-1.710185	-0.010385	0.004949	0.002392	-0.900635	0.219971	-0.374023	0.622516	-0.164830	-0.749900	-0.151512
07942		9.647645	0.174252	-1.773366	-0.016873	0.006138	0.002796	-0.900146	0.225830	-0.366211	0.622575	-0.165056	-0.749779	-0.151622
07943		9.636394	0.177234	-1.810281	0.005441	0.006694	-0.003629	-0.893555	0.223633	-0.371338	0.622654	-0.165081	-0.749712	-0.151600
07944		9.638597	0.202700	-1.747945	0.004992	0.007982	-0.003582	-0.900635	0.225586	-0.370117	0.622763	-0.165095	-0.749623	-0.151573
07945		9.658941	0.184479	-1.748421	-0.003179	0.007385	-0.002256	-0.891357	0.226074	-0.361572	0.622841	-0.165193	-0.749528	-0.151618
07946		9.638962	0.167846	-1.776325	0.001008	0.008509	-0.007596	-0.895752	0.224121	-0.365479	0.622918	-0.165219	-0.749447	-0.151676
07947		9.647637	0.191015	-1.792769	0.010453	0.007897	-0.010714	-0.899658	0.228760	-0.369873	0.623006	-0.165128	-0.749397	-0.151658
07948		9.648539	0.247831	-1.737802	0.009171	0.008276	-0.009778	-0.894287	0.222656	-0.375488	0.623102	-0.165075	-0.749329	-0.151659
07949		9.648934	0.230742	-1.747123	0.008803	0.007742	-0.007207	-0.891846	0.228027	-0.368408	0.623216	-0.165016	-0.749255	-0.151617
07950		9.650126	0.230571	-1.725694	0.007509	0.008984	-0.006259	-0.897217	0.219238	-0.360596	0.623325	-0.165008	-0.749168	-0.151608
07951		9.641090	0.202932	-1.735187	0.010110	0.008164	-0.006420	-0.897461	0.222656	-0.374756	0.623408	-0.164940	-0.749126	-0.151546
07952		9.640960	0.204989	-1.743096	0.008359	0.007334	-0.008032	-0.898682	0.235840	-0.374023	0.623509	-0.164878	-0.749063	-0.151515
07953		9.650571	0.207662	-1.751453	0.009629	0.007818	-0.008947	-0.900635	0.228271	-0.363037	0.623610	-0.164864	-0.748979	-0.151529
07954		9.651144	0.227487	-1.728812	0.007053	0.006911	-0.008811	-0.902588	0.217285	-0.369629	0.623670	-0.164842	-0.748931	-0.151543
07955		9.641535	0.219802	-1.737032	0.004476	0.008531	-0.006934	-0.902344	0.219238	-0.377197	0.623757	-0.164795	-0.748872	-0.151526
07956		9.650203	0.242485	-1.753472	0.004051	0.008092	-0.006915	-0.885010	0.216309	-0.371338	0.623857	-0.164756	-0.748800	-0.151514
07957		9.661158	0.242723	-1.732227	0.007057	0.010271	-0.006199	-0.898438	0.226562	-0.375000	0.623988	-0.164693	-0.748714	-0.151469
07958		9.643129	0.231911	-1.710573	0.001974	0.007499	-0.003400	-0.900879	0.228271	-0.369141	0.624081	-0.164745	-0.748623	-0.151478
07959		9.633834	0.213464	-1.719553	0.001992	0.007468	-0.002550	-0.897949	0.229736	-0.374512	0.624158	-0.164816	-0.748541	-0.151488
07960		9.644297	0.213700	-1.708474	0.002412	0.007075	-0.003429	-0.895264	0.219727	-0.366211	0.624246	-0.164880	-0.748450	-0.151503
07961		9.664935	0.186101	-1.709759	-0.007522	0.006500	-0.003729	-0.896484	0.224609	-0.365967	0.624292	-0.164977	-0.748375	-0.151581
07962		9.644540	0.160895	-1.757977	0.007102	0.008515	-0.005370	-0.892822	0.219482	-0.370361	0.624380	-0.164963	-0.748309	-0.151556
07963		9.654847	0.208213	-1.713722	0.017388	0.009652	-0.008477	-0.892822	0.224609	-0.370117	0.624509	-0.164811	-0.748259	-0.151441
07964		9.655805	0.189851	-1.712909	0.023446	0.009728	-0.007955	-0.895996	0.227051	-0.382568	0.624650	-0.164643	-0.748210	-0.151284
07965		9.645655	0.228746	-1.697739	0.019994	0.009667	-0.007758	-0.890625	0.223633	-0.376465	0.624807	-0.164506	-0.748134	-0.151159
07966		9.664310	0.232486	-1.725533	0.012685	0.009074	-0.006510	-0.893555	0.225586	-0.369141	0.624937	-0.164429	-0.748057	-0.151085
07967		9.665289	0.213965	-1.724655	0.017410	0.010453	-0.006742	-0.896973	0.222168	-0.381348	0.625069	-0.164325	-0.747991	-0.150983
