// Start Time: Unknown
// Update Rate: 40.0Hz
// Filter Profile: human (46.1)
// Firmware Version: 4.6.0
PacketCounter	SampleTimeFine	Acc_X	Acc_Y	Acc_Z	Gyr_X	Gyr_Y	Gyr_Z	Mag_X	Mag_Y	Mag_Z	Quat_q0	Quat_q1	Quat_q2	Quat_q3
62344		4.742767	1.648223	8.357378	0.003462	-0.000817	-0.001309	-0.323975	-0.657227	-0.651123	0.731165	0.231347	-0.133501	0.627737
62345		4.743551	1.655136	8.372858	0.004692	-0.002608	-0.001675	-0.318848	-0.664307	-0.655762	0.731105	0.231482	-0.133527	0.627751
62346		4.743881	1.656452	8.372410	0.004925	-0.001577	-0.003545	-0.323486	-0.664795	-0.651123	0.731115	0.231546	-0.133494	0.627723
62347		4.737606	1.640228	8.366603	0.004673	-0.003579	-0.002117	-0.316162	-0.652344	-0.656494	0.731064	0.231679	-0.133522	0.627727
62348		4.750729	1.636177	8.367672	0.005027	-0.001686	-0.001869	-0.318848	-0.657227	-0.659912	0.731089	0.231703	-0.133473	0.627701
62349		4.730580	1.643762	8.371542	0.003662	-0.001381	-0.001009	-0.318359	-0.659424	-0.658447	0.731102	0.231718	-0.133445	0.627685
62350		4.744812	1.655239	8.354831	0.004711	-0.001636	-0.001235	-0.323730	-0.660400	-0.650391	0.731110	0.231747	-0.133414	0.627672
62351		4.739041	1.644531	8.364946	0.003527	-0.002867	-0.000516	-0.322021	-0.662109	-0.652344	0.731055	0.231845	-0.133451	0.627692
62352		4.724029	1.647912	8.376093	0.004911	-0.002200	-0.000935	-0.316162	-0.666504	-0.651611	0.731018	0.231929	-0.133455	0.627703
62353		4.747615	1.645446	8.358254	0.004294	-0.001479	-0.002278	-0.311035	-0.653076	-0.657715	0.731027	0.231979	-0.133411	0.627684
62354		4.763519	1.643984	8.346221	0.002576	-0.003066	-0.001666	-0.321289	-0.665039	-0.654541	0.731076	0.231891	-0.133434	0.627654
62355		4.735652	1.652257	8.355983	0.001365	-0.000305	-0.000860	-0.317627	-0.662354	-0.649170	0.731064	0.231917	-0.133436	0.627658
62356		4.732404	1.644125	8.353155	0.003245	-0.001223	-0.002053	-0.321045	-0.656738	-0.661865	0.731055	0.231959	-0.133434	0.627654
62357		4.745842	1.645465	8.370270	0.002279	-0.002046	-0.000592	-0.321289	-0.659180	-0.646973	0.731053	0.231912	-0.133490	0.627662
62358		4.749585	1.654869	8.372565	0.002595	-0.002095	-0.001226	-0.313721	-0.664062	-0.646729	0.731007	0.231967	-0.133529	0.627687
62359		4.744474	1.653787	8.349024	0.002929	-0.001173	-0.001419	-0.312256	-0.659180	-0.651123	0.731013	0.232006	-0.133494	0.627672
62360		4.750024	1.656435	8.372006	0.003463	-0.000816	-0.001312	-0.312012	-0.665283	-0.652100	0.731040	0.231987	-0.133477	0.627652
62361		4.723324	1.646278	8.370554	0.004044	-0.003478	-0.000850	-0.319092	-0.656738	-0.658447	0.731064	0.232022	-0.133451	0.627617
62362		4.750417	1.652215	8.355326	0.003032	-0.001281	0.000257	-0.314941	-0.666992	-0.655273	0.731053	0.231966	-0.133498	0.627640
62363		4.740132	1.651334	8.374007	0.003227	-0.002193	-0.002495	-0.318115	-0.663574	-0.659668	0.731090	0.231986	-0.133471	0.627595
62364		4.737084	1.643443	8.371025	0.002711	-0.001580	-0.002162	-0.315430	-0.656982	-0.646484	0.731116	0.231956	-0.133481	0.627574
62365		4.748116	1.646044	8.351579	0.004578	-0.003120	-0.000743	-0.324707	-0.654541	-0.654785	0.731084	0.232000	-0.133503	0.627590
62366		4.750173	1.634110	8.355869	0.002911	-0.002144	-0.001861	-0.316406	-0.660645	-0.651123	0.731026	0.231984	-0.133595	0.627644
62367		4.741774	1.654814	8.372390	0.002062	-0.002452	-0.001334	-0.315918	-0.659912	-0.654541	0.731026	0.231991	-0.133617	0.627636
62368		4.751316	1.641365	8.371080	0.001996	-0.000403	-0.002130	-0.316162	-0.657471	-0.652588	0.731055	0.231950	-0.133626	0.627616
62369		4.751492	1.642186	8.370819	0.003227	-0.002193	-0.002496	-0.308350	-0.661377	-0.653809	0.731067	0.231937	-0.133652	0.627601
62370		4.754800	1.645912	8.357181	0.002578	-0.003065	-0.001668	-0.318604	-0.655273	-0.655518	0.731158	0.231906	-0.133634	0.627511
62371		4.731603	1.644528	8.358295	0.004161	-0.002962	-0.001787	-0.315674	-0.661621	-0.657959	0.731142	0.231879	-0.133699	0.627525
62372		4.748158	1.649010	8.361994	0.002893	-0.003114	-0.002302	-0.319092	-0.666504	-0.656006	0.731188	0.231844	-0.133728	0.627479
62373		4.740956	1.651168	8.367313	0.003209	-0.003163	-0.002937	-0.318359	-0.661133	-0.653809	0.731199	0.231878	-0.133739	0.627451
62374		4.747531	1.629424	8.363070	0.004677	-0.003574	-0.002121	-0.324707	-0.651611	-0.650146	0.731186	0.231912	-0.133763	0.627448
62375		4.742521	1.659542	8.382063	0.005345	-0.001731	-0.002510	-0.319336	-0.661133	-0.651611	0.731069	0.231940	-0.133850	0.627556
62376		4.746724	1.644908	8.357360	0.004496	-0.002039	-0.001982	-0.316895	-0.660400	-0.657715	0.731037	0.231985	-0.133857	0.627575
62377		4.748872	1.633208	8.361571	0.005514	-0.003886	-0.000037	-0.310059	-0.656006	-0.653809	0.731050	0.231967	-0.133893	0.627558
62378		4.743538	1.657247	8.364647	0.004696	-0.002603	-0.001682	-0.318359	-0.668945	-0.650146	0.731143	0.231911	-0.133887	0.627473
62379		4.745476	1.645314	8.369026	0.002397	-0.001530	-0.001529	-0.325439	-0.662109	-0.655518	0.731128	0.232004	-0.133843	0.627464
62380		4.745855	1.646074	8.368662	0.003113	-0.002706	-0.001562	-0.316895	-0.662598	-0.657227	0.731039	0.232034	-0.133925	0.627540
62381		4.741303	1.651044	8.360887	0.003028	-0.001628	-0.002799	-0.313965	-0.663086	-0.655029	0.731089	0.231995	-0.133936	0.627494
62382		4.736749	1.656013	8.353111	0.003113	-0.002706	-0.001562	-0.322021	-0.655762	-0.649902	0.731153	0.231978	-0.133922	0.627428
62383		4.736020	1.641118	8.370637	0.001942	-0.003315	-0.003453	-0.320557	-0.667480	-0.655273	0.731076	0.232006	-0.134012	0.627488
62384		4.747513	1.649451	8.367056	0.002397	-0.001529	-0.001530	-0.321045	-0.659180	-0.650146	0.731061	0.232042	-0.134010	0.627494
62385		4.734946	1.655385	8.365300	0.002215	0.000005	-0.001390	-0.317139	-0.660156	-0.654785	0.730996	0.232062	-0.134041	0.627555
62386		4.744420	1.642111	8.364014	0.003229	-0.002191	-0.002498	-0.317383	-0.658691	-0.658936	0.731026	0.232033	-0.134062	0.627526
62387		4.742718	1.649952	8.343005	0.002695	-0.002549	-0.002605	-0.305908	-0.658691	-0.652100	0.731082	0.231934	-0.134126	0.627484
62388		4.740232	1.647875	8.355872	0.002397	-0.001529	-0.001530	-0.319824	-0.657227	-0.659912	0.731261	0.231845	-0.134047	0.627324
62389		4.745301	1.644610	8.363023	0.003046	-0.000657	-0.002360	-0.322998	-0.662109	-0.650146	0.731274	0.231724	-0.134133	0.627336
62390		4.737246	1.640749	8.352730	0.002913	-0.002141	-0.001864	-0.322021	-0.661377	-0.656982	0.731167	0.231821	-0.134168	0.627417
62391		4.743706	1.649346	8.391336	0.002999	-0.003219	-0.000627	-0.324463	-0.660645	-0.646973	0.731118	0.231811	-0.134252	0.627460
62392		4.736737	1.655212	8.347024	0.003429	-0.002754	-0.002198	-0.319336	-0.660156	-0.656982	0.730963	0.231958	-0.134296	0.627577
62393		4.745884	1.632567	8.379267	0.006166	-0.003010	-0.000870	-0.320801	-0.658447	-0.654297	0.730959	0.231940	-0.134337	0.627580
62394		4.732280	1.652133	8.372266	0.005730	-0.003825	-0.002353	-0.318359	-0.665771	-0.654785	0.730920	0.231957	-0.134399	0.627606
62395		4.748442	1.652031	8.359777	0.014068	-0.003458	-0.001919	-0.318359	-0.662109	-0.653076	0.730906	0.232097	-0.134299	0.627592
62396		4.742970	1.643775	8.369336	0.015217	-0.004168	-0.003525	-0.321777	-0.658936	-0.646973	0.730885	0.232238	-0.134222	0.627581
62397		4.757997	1.662851	8.367835	0.007333	-0.002748	-0.002036	-0.317627	-0.657227	-0.660645	0.730769	0.232370	-0.134232	0.627664
62398		4.733055	1.640289	8.371098	0.004584	-0.003112	-0.000750	-0.316162	-0.666748	-0.649170	0.730840	0.232214	-0.134328	0.627619
62399		4.749265	1.639090	8.358794	0.004979	-0.004591	-0.003201	-0.321045	-0.671387	-0.660645	0.730860	0.232351	-0.134243	0.627563
62400		4.751899	1.662302	8.355776	0.007402	-0.004794	-0.001240	-0.321289	-0.656738	-0.659180	0.730874	0.232411	-0.134223	0.627529
62401		4.753812	1.641384	8.393519	0.005697	-0.005765	-0.003235	-0.320312	-0.663330	-0.654785	0.730876	0.232330	-0.134362	0.627526
62402		4.749230	1.669401	8.346485	0.005888	-0.006945	-0.000320	-0.324219	-0.666016	-0.648438	0.730844	0.232388	-0.134415	0.627531
62403		4.754121	1.651010	8.370980	0.005400	-0.004744	-0.002161	-0.314941	-0.659424	-0.651367	0.730723	0.232582	-0.134423	0.627599
62404		4.737390	1.661679	8.361254	0.005619	-0.004335	-0.001420	-0.317871	-0.658691	-0.656494	0.730769	0.232581	-0.134411	0.627548
62405		4.747552	1.648831	8.359522	0.004568	-0.004081	-0.001192	-0.326660	-0.668213	-0.650146	0.730809	0.232500	-0.134475	0.627518
62406		4.741262	1.657385	8.380381	0.006870	-0.005151	-0.001349	-0.320312	-0.661865	-0.654541	0.730658	0.232720	-0.134493	0.627608
62407		4.752433	1.654688	8.344512	0.007370	-0.006734	-0.002123	-0.319824	-0.662842	-0.652832	0.730646	0.232764	-0.134539	0.627595
62408		4.742881	1.654707	8.362695	0.005952	-0.003412	-0.001618	-0.325195	-0.657471	-0.652832	0.730638	0.232801	-0.134541	0.627592
62409		4.748726	1.651753	8.369361	0.003808	-0.005464	0.000576	-0.321045	-0.665527	-0.647461	0.730525	0.232808	-0.134702	0.627685
62410		4.759718	1.648351	8.333721	0.004666	-0.004539	-0.002570	-0.314453	-0.660889	-0.645752	0.730469	0.232963	-0.134671	0.627699
62411		4.751678	1.669598	8.349879	0.004368	-0.003518	-0.001495	-0.312256	-0.656006	-0.656250	0.730500	0.233026	-0.134601	0.627655
62412		4.761142	1.650591	8.332464	0.003414	-0.003723	-0.002643	-0.320557	-0.659668	-0.646729	0.730661	0.232845	-0.134628	0.627529
62413		4.771928	1.649530	8.362657	0.004001	-0.000450	-0.001220	-0.320312	-0.665283	-0.646729	0.730600	0.232901	-0.134626	0.627580
62414		4.748362	1.648085	8.364085	0.003134	-0.001730	-0.001128	-0.317627	-0.662109	-0.656006	0.730550	0.233018	-0.134582	0.627604
62415		4.762314	1.659236	8.347387	0.002749	0.000365	-0.001292	-0.314453	-0.662354	-0.651123	0.730623	0.232908	-0.134578	0.627561
62416		4.738701	1.657510	8.348897	0.001331	-0.002245	-0.001744	-0.313232	-0.666504	-0.665527	0.730709	0.232866	-0.134541	0.627484
62417		4.747155	1.663112	8.358601	0.003896	-0.000346	-0.002898	-0.322021	-0.663086	-0.648682	0.730928	0.232649	-0.134486	0.627321
62418		4.745626	1.642773	8.360485	0.005332	-0.002695	-0.002965	-0.317383	-0.667236	-0.651611	0.730866	0.232758	-0.134488	0.627353
62419		4.749366	1.652734	8.362597	0.002916	-0.002139	-0.001869	-0.313477	-0.656494	-0.651611	0.730907	0.232801	-0.134430	0.627301
62420		4.753100	1.662431	8.364763	0.003652	-0.002342	-0.001463	-0.322266	-0.670166	-0.656738	0.730978	0.232704	-0.134431	0.627254
62421		4.759504	1.640542	8.360768	0.004186	-0.001982	-0.001359	-0.315430	-0.661133	-0.652588	0.730980	0.232745	-0.134420	0.627240
62422		4.763324	1.650367	8.362858	0.003635	-0.003313	-0.001903	-0.316162	-0.653564	-0.657471	0.731036	0.232708	-0.134412	0.627189
62423		4.755598	1.646458	8.352407	0.002164	-0.002907	-0.002715	-0.328857	-0.662598	-0.648438	0.731103	0.232509	-0.134514	0.627164
62424		4.751629	1.657066	8.360455	0.002190	-0.001580	0.000779	-0.318604	-0.659424	-0.649658	0.730913	0.232622	-0.134621	0.627320
62425		4.741306	1.656175	8.379286	0.002408	-0.000912	-0.004151	-0.321777	-0.665527	-0.645264	0.730926	0.232612	-0.134627	0.627308
62426		4.754298	1.651655	8.380522	0.001954	-0.002960	-0.000401	-0.313232	-0.660645	-0.656006	0.730841	0.232759	-0.134620	0.627353
62427		4.741808	1.657583	8.378723	0.002643	0.000469	-0.002972	-0.313965	-0.661133	-0.656738	0.730977	0.232613	-0.134576	0.627259
62428		4.751807	1.654052	8.343646	0.003451	-0.001779	-0.001766	-0.313965	-0.661377	-0.659180	0.731086	0.232494	-0.134558	0.627179
62429		4.756080	1.669843	8.361592	0.003434	-0.002750	-0.002205	-0.323730	-0.655273	-0.651611	0.731209	0.232355	-0.134558	0.627087
62430		4.740680	1.667257	8.356932	0.003837	-0.003874	-0.001602	-0.319092	-0.659180	-0.655518	0.731105	0.232350	-0.134688	0.627183
62431		4.750105	1.648018	8.339607	0.002804	-0.002650	-0.000933	-0.315918	-0.662354	-0.656006	0.731114	0.232275	-0.134749	0.627187
62432		4.743337	1.656081	8.360852	0.003451	-0.001778	-0.001767	-0.319092	-0.662109	-0.652344	0.731191	0.232206	-0.134735	0.627126
62433		4.747124	1.665856	8.362960	0.003636	-0.003311	-0.001904	-0.317139	-0.663330	-0.648926	0.731189	0.232224	-0.134750	0.627117
62434		4.730719	1.647510	8.376330	0.003410	-0.004335	-0.000029	-0.320312	-0.659668	-0.649170	0.731184	0.232293	-0.134735	0.627102
62435		4.763175	1.649580	8.368006	0.005933	-0.004992	0.000551	-0.319336	-0.656982	-0.651367	0.731108	0.232368	-0.134774	0.627154
62436		4.750200	1.644042	8.334144	0.006176	-0.002997	-0.000886	-0.322998	-0.669678	-0.654297	0.731072	0.232365	-0.134811	0.627189
62437		4.750975	1.676344	8.375995	0.005625	-0.004327	-0.001429	-0.319824	-0.666260	-0.647461	0.731042	0.232475	-0.134803	0.627185
62438		4.749588	1.649956	8.361742	0.005092	-0.004686	-0.001533	-0.320312	-0.664307	-0.659180	0.731007	0.232620	-0.134769	0.627179
62439		4.753187	1.653888	8.347800	0.004794	-0.003665	-0.000458	-0.316650	-0.653076	-0.654785	0.731030	0.232571	-0.134807	0.627162
62440		4.778080	1.663643	8.361235	0.006604	-0.002534	-0.002462	-0.315186	-0.658447	-0.653320	0.731060	0.232464	-0.134853	0.627158
62441		4.730503	1.654450	8.348373	0.005756	-0.002843	-0.001930	-0.320068	-0.664795	-0.656006	0.731113	0.232415	-0.134842	0.627116
62442		4.756523	1.644942	8.350912	0.001939	-0.003929	-0.000841	-0.322266	-0.662109	-0.649170	0.731131	0.232394	-0.134883	0.627094
62443		4.754580	1.677563	8.356382	0.005424	-0.003764	-0.001733	-0.311523	-0.659912	-0.640869	0.731066	0.232487	-0.134904	0.627131
62444		4.763001	1.643007	8.357037	0.004261	-0.004023	-0.000563	-0.314941	-0.657471	-0.653076	0.731089	0.232587	-0.134817	0.627086
62445		4.741604	1.663371	8.355904	0.004705	-0.002591	-0.001700	-0.316895	-0.663086	-0.650391	0.731142	0.232516	-0.134820	0.627049
62446		4.756365	1.646443	8.361834	0.003969	-0.002389	-0.002105	-0.313232	-0.666260	-0.651855	0.731172	0.232539	-0.134787	0.627013
62447		4.760007	1.656392	8.363972	0.004301	-0.001468	-0.002303	-0.319580	-0.650879	-0.658203	0.731271	0.232544	-0.134691	0.626916
62448		4.754816	1.655415	8.340380	0.003435	-0.002748	-0.002209	-0.317627	-0.658936	-0.653564	0.731269	0.232370	-0.134822	0.626955
62449		4.755585	1.662416	8.355864	0.002845	-0.000093	-0.002675	-0.322021	-0.661865	-0.648682	0.731303	0.232296	-0.134830	0.626941
62450		4.763403	1.662208	8.349755	0.004723	-0.001618	-0.001262	-0.315430	-0.662354	-0.645752	0.731236	0.232367	-0.134837	0.626991
62451		4.757524	1.651894	8.360099	0.005150	-0.001157	-0.002838	-0.308838	-0.661133	-0.645020	0.731258	0.232440	-0.134756	0.626956
62452		4.771496	1.663542	8.343181	0.004301	-0.001467	-0.002304	-0.307861	-0.653320	-0.651855	0.731359	0.232461	-0.134637	0.626856
62453		4.741671	1.650630	8.355465	0.002642	0.000468	-0.002978	-0.317627	-0.664307	-0.652588	0.731501	0.232291	-0.134594	0.626762
62454		4.756979	1.649195	8.343637	0.003896	-0.000344	-0.002908	-0.318848	-0.659424	-0.655273	0.731538	0.232292	-0.134557	0.626728
62455		4.745689	1.642751	8.346868	0.003289	0.001339	-0.003813	-0.320801	-0.661377	-0.647705	0.731566	0.232207	-0.134566	0.626725
62456		4.747223	1.665202	8.344455	0.000928	-0.001122	-0.002349	-0.308350	-0.662842	-0.655762	0.731520	0.232243	-0.134590	0.626759
62457		4.764811	1.656654	8.353310	0.002861	0.000879	-0.002238	-0.318359	-0.651367	-0.657471	0.731692	0.232117	-0.134498	0.626624
62458		4.758020	1.674616	8.340912	0.004527	-0.000444	-0.004182	-0.319092	-0.661865	-0.647705	0.731699	0.231969	-0.134573	0.626655
62459		4.756730	1.660162	8.358912	0.001906	0.000670	-0.003383	-0.312500	-0.659180	-0.651123	0.731683	0.232000	-0.134553	0.626667
62460		4.751683	1.665258	8.351337	0.005151	-0.001156	-0.002839	-0.313477	-0.663086	-0.652344	0.731750	0.231971	-0.134505	0.626609
62461		4.748533	1.657619	8.348475	0.003032	-0.001624	-0.002813	-0.318604	-0.658203	-0.654785	0.731827	0.231951	-0.134466	0.626535
62462		4.758177	1.644714	8.347119	0.004820	-0.002076	-0.002641	-0.319580	-0.662598	-0.653320	0.731821	0.231913	-0.134502	0.626549
62463		4.754130	1.656150	8.355020	0.005557	-0.002277	-0.002236	-0.317383	-0.665039	-0.654297	0.731804	0.231942	-0.134507	0.626557
62464		4.764311	1.649744	8.369378	0.005782	-0.001255	-0.004114	-0.318604	-0.662109	-0.644531	0.731847	0.231963	-0.134466	0.626508
62465		4.748558	1.647448	8.364897	0.003657	-0.002335	-0.001470	-0.319824	-0.657959	-0.649902	0.731792	0.232065	-0.134452	0.626537
62466		4.753331	1.673081	8.348835	0.004496	-0.002386	-0.005061	-0.311279	-0.659668	-0.659424	0.731765	0.232090	-0.134481	0.626554
62467		4.757002	1.648961	8.358094	0.005339	-0.002686	-0.002977	-0.320068	-0.657471	-0.656494	0.731887	0.231978	-0.134470	0.626455
62468		4.751197	1.638701	8.368422	0.004101	-0.000903	-0.002609	-0.318848	-0.663574	-0.652344	0.731872	0.231909	-0.134525	0.626486
62469		4.755807	1.664334	8.352439	0.004822	-0.002075	-0.002642	-0.322754	-0.659424	-0.649414	0.731867	0.231944	-0.134518	0.626480
62470		4.750061	1.654149	8.362721	0.005137	-0.002125	-0.003280	-0.317383	-0.661133	-0.642334	0.731788	0.232006	-0.134553	0.626542
62471		4.748816	1.668273	8.357336	0.003536	-0.003206	-0.003588	-0.314453	-0.666504	-0.652100	0.731750	0.232122	-0.134530	0.626549
62472		4.749749	1.675639	8.372647	0.005575	-0.001303	-0.001801	-0.322266	-0.664062	-0.655029	0.731800	0.232154	-0.134459	0.626493
62473		4.747257	1.642964	8.343083	0.003658	-0.002334	-0.001471	-0.316406	-0.662109	-0.656006	0.731764	0.232166	-0.134502	0.626522
62474		4.762594	1.666578	8.357571	0.004289	-0.002434	-0.002746	-0.317871	-0.665527	-0.652344	0.731809	0.232129	-0.134510	0.626482
62475		4.760040	1.664860	8.370518	0.002312	-0.000452	-0.002782	-0.317139	-0.659668	-0.658447	0.731833	0.232134	-0.134489	0.626456
62476		4.746825	1.665008	8.352961	0.004838	-0.001102	-0.002206	-0.318115	-0.659424	-0.645508	0.731869	0.232053	-0.134512	0.626439
62477		4.753615	1.649403	8.364946	0.003568	-0.001262	-0.002713	-0.314453	-0.665039	-0.650879	0.731833	0.232104	-0.134505	0.626464
62478		4.741031	1.655691	8.363116	0.003146	-0.001113	-0.003756	-0.324951	-0.667236	-0.655518	0.731891	0.232117	-0.134455	0.626401
62479		4.749382	1.661573	8.372793	0.003049	-0.000651	-0.002379	-0.326172	-0.658691	-0.645508	0.731846	0.232145	-0.134486	0.626437
62480		4.752141	1.665368	8.359312	0.003680	-0.000752	-0.003654	-0.328857	-0.662598	-0.653320	0.731727	0.232227	-0.134535	0.626536
62481		4.738459	1.656096	8.375659	0.003253	-0.001212	-0.002077	-0.326172	-0.656006	-0.651367	0.731618	0.232265	-0.134618	0.626631
62482		4.755151	1.670213	8.345476	0.004305	-0.001461	-0.002310	-0.317871	-0.661133	-0.656738	0.731521	0.232273	-0.134710	0.626721
62483		4.751573	1.653321	8.376497	0.005673	-0.001762	-0.003181	-0.319580	-0.656738	-0.647461	0.731556	0.232239	-0.134716	0.626692
62484		4.741923	1.662638	8.361231	0.004290	-0.002433	-0.002748	-0.314453	-0.661621	-0.650391	0.731516	0.232267	-0.134746	0.626722
62485		4.750481	1.668735	8.370745	0.003884	-0.001312	-0.003353	-0.317871	-0.661621	-0.657715	0.731562	0.232264	-0.134709	0.626676
62486		4.750559	1.669872	8.370474	0.003365	-0.000701	-0.003017	-0.319092	-0.662354	-0.661133	0.731609	0.232195	-0.134725	0.626644
62487		4.747328	1.662167	8.367705	0.003884	-0.001312	-0.003353	-0.319092	-0.655762	-0.654053	0.731660	0.232116	-0.134757	0.626607
62488		4.734970	1.668437	8.365744	0.003864	-0.002891	-0.001171	-0.322266	-0.667480	-0.652100	0.731645	0.232071	-0.134825	0.626626
62489		4.755665	1.663190	8.361050	0.004951	-0.000589	-0.003150	-0.321777	-0.652588	-0.652832	0.731615	0.232137	-0.134794	0.626644
62490		4.732613	1.668185	8.378301	0.004306	-0.001460	-0.002311	-0.318115	-0.664307	-0.651855	0.731574	0.232088	-0.134876	0.626693
62491		4.751031	1.669490	8.352975	0.003458	-0.001771	-0.001776	-0.321777	-0.662842	-0.651611	0.731576	0.232108	-0.134862	0.626685
62492		4.755702	1.660394	8.344282	0.003991	-0.001409	-0.001674	-0.316162	-0.660645	-0.654297	0.731535	0.232138	-0.134874	0.626720
62493		4.739432	1.682699	8.366499	0.003143	-0.001720	-0.001138	-0.319580	-0.659180	-0.650391	0.731565	0.232096	-0.134885	0.626698
62494		4.753388	1.659423	8.356962	0.003269	-0.000238	-0.001641	-0.318115	-0.659424	-0.645508	0.731542	0.232086	-0.134896	0.626726
62495		4.754033	1.666559	8.372477	0.004525	-0.001048	-0.001573	-0.320557	-0.654785	-0.657471	0.731503	0.232136	-0.134874	0.626757
62496		4.753551	1.661455	8.356465	0.003051	-0.000650	-0.002381	-0.319336	-0.656006	-0.650635	0.731513	0.232037	-0.134950	0.626766
62497		4.746065	1.663621	8.362005	0.003662	-0.002330	-0.001474	-0.317871	-0.660889	-0.650635	0.731487	0.232024	-0.134995	0.626792
62498		4.755784	1.650648	8.360679	0.004307	-0.001459	-0.002313	-0.318848	-0.669189	-0.658936	0.731486	0.232038	-0.134983	0.626790
62499		4.746570	1.665729	8.361298	0.003255	-0.001210	-0.002079	-0.326660	-0.664062	-0.652588	0.731525	0.232024	-0.134963	0.626754
62500		4.751735	1.662640	8.368438	0.002940	-0.001159	-0.001441	-0.314453	-0.665527	-0.656738	0.731443	0.232062	-0.135004	0.626828
62501		4.754627	1.666276	8.354893	0.003570	-0.001260	-0.002717	-0.321533	-0.656250	-0.656494	0.731516	0.232029	-0.134967	0.626762
62502		4.755393	1.673467	8.370327	0.003992	-0.001408	-0.001675	-0.312744	-0.663330	-0.656250	0.731502	0.231972	-0.135033	0.626786
62503		4.752321	1.665551	8.367526	0.002721	-0.001571	-0.002181	-0.322510	-0.661377	-0.652344	0.731586	0.231917	-0.135010	0.626713
62504		4.741591	1.658944	8.370537	0.004512	-0.002018	-0.002011	-0.314697	-0.665039	-0.654053	0.731541	0.231946	-0.135033	0.626749
62505		4.752806	1.667570	8.366849	0.003692	-0.000385	-0.000601	-0.314209	-0.665283	-0.645508	0.731581	0.231928	-0.134990	0.626719
62506		4.748630	1.678484	8.374886	0.001750	-0.002756	-0.003762	-0.316406	-0.666504	-0.661133	0.731609	0.231990	-0.134940	0.626674
62507		4.754533	1.650427	8.355324	0.003556	-0.002231	-0.003155	-0.314697	-0.665771	-0.657227	0.731681	0.231944	-0.134935	0.626608
62508		4.747715	1.658839	8.376547	0.003459	-0.001769	-0.001778	-0.328857	-0.662598	-0.657227	0.731739	0.231915	-0.134912	0.626555
62509		4.747998	1.659948	8.376167	0.005046	-0.001656	-0.001911	-0.320557	-0.653076	-0.645264	0.731659	0.231936	-0.134976	0.626628
62510		4.750954	1.663877	8.362519	0.004308	-0.001457	-0.002315	-0.315186	-0.664062	-0.648438	0.731599	0.231959	-0.135008	0.626683
62511		4.756339	1.660901	8.369518	0.002596	-0.003051	-0.001678	-0.317871	-0.660400	-0.648682	0.731610	0.231997	-0.134985	0.626660
62512		4.740781	1.658184	8.365043	0.004513	-0.002017	-0.002013	-0.318115	-0.656982	-0.647461	0.731594	0.232030	-0.134974	0.626669
62513		4.743734	1.662076	8.351402	0.003886	-0.001310	-0.003358	-0.320557	-0.667236	-0.650879	0.731582	0.232043	-0.134976	0.626678
62514		4.738490	1.657738	8.377628	0.003678	-0.001356	-0.001039	-0.319336	-0.655762	-0.654297	0.731551	0.232094	-0.134952	0.626700
62515		4.746638	1.657371	8.371350	0.003335	-0.003249	-0.001274	-0.318359	-0.665527	-0.657227	0.731543	0.232054	-0.135019	0.626710
62516		4.731787	1.660888	8.382538	0.004499	-0.002988	-0.002450	-0.317139	-0.664307	-0.652344	0.731568	0.232057	-0.135018	0.626681
62517		4.729331	1.662360	8.345678	0.003145	-0.001717	-0.001141	-0.324951	-0.658447	-0.650879	0.731576	0.232062	-0.135004	0.626672
62518		4.758960	1.667730	8.366669	0.001873	-0.001881	-0.001645	-0.321777	-0.663818	-0.653564	0.731512	0.232064	-0.135071	0.626731
62519		4.736197	1.641008	8.341563	0.004184	-0.002937	-0.001812	-0.316406	-0.660645	-0.650391	0.731485	0.232094	-0.135089	0.626748
62520		4.743829	1.665611	8.361839	0.002200	-0.001565	0.000774	-0.320312	-0.668701	-0.654541	0.731478	0.232077	-0.135095	0.626761
62521		4.754277	1.658187	8.376324	0.001544	-0.002802	-0.001444	-0.317871	-0.658691	-0.650391	0.731475	0.232097	-0.135100	0.626756
62522		4.741304	1.658039	8.358680	0.003886	-0.001309	-0.003360	-0.312988	-0.665283	-0.656006	0.731483	0.232094	-0.135097	0.626748
62523		4.746537	1.655012	8.365782	0.001874	-0.001881	-0.001646	-0.318848	-0.663086	-0.655762	0.731550	0.232051	-0.135075	0.626691
62524		4.748381	1.677336	8.363020	0.002941	-0.001157	-0.001444	-0.313721	-0.661865	-0.648682	0.731561	0.232024	-0.135082	0.626687
62525		4.753516	1.674020	8.370234	0.001150	-0.000711	-0.001613	-0.322021	-0.665283	-0.655518	0.731591	0.232007	-0.135055	0.626664
62526		4.731685	1.659204	8.376846	0.001777	-0.001417	-0.000268	-0.326416	-0.661133	-0.648926	0.731569	0.231995	-0.135082	0.626688
62527		4.750167	1.660082	8.351511	0.003665	-0.002326	-0.001478	-0.318604	-0.659180	-0.649658	0.731484	0.232051	-0.135122	0.626758
62528		4.752250	1.648034	8.356102	0.000917	-0.002096	-0.002789	-0.316406	-0.664551	-0.659424	0.731486	0.232038	-0.135149	0.626755
62529		4.736648	1.645053	8.351720	0.004089	-0.002473	-0.000436	-0.324463	-0.661621	-0.645508	0.731518	0.232004	-0.135151	0.626729
62530		4.745283	1.650905	8.361222	0.003256	-0.001207	-0.002084	-0.313477	-0.661865	-0.651611	0.731445	0.232069	-0.135157	0.626790
62531		4.753397	1.650483	8.354967	0.003021	-0.003196	-0.000637	-0.317383	-0.658447	-0.653809	0.731471	0.232063	-0.135147	0.626763
62532		4.729048	1.667558	8.367216	0.001559	-0.001830	-0.001008	-0.314697	-0.660645	-0.654785	0.731485	0.232012	-0.135182	0.626759
62533		4.727819	1.646562	8.369384	0.002927	-0.002128	-0.001882	-0.312744	-0.656982	-0.651855	0.731526	0.231974	-0.135183	0.626724
62534		4.744192	1.651167	8.373005	0.003242	-0.002179	-0.002521	-0.319336	-0.659912	-0.647217	0.731573	0.231937	-0.135181	0.626684
62535		4.747781	1.660930	8.375116	0.002723	-0.001569	-0.002185	-0.316162	-0.656006	-0.642334	0.731548	0.231961	-0.135181	0.626704
62536		4.734697	1.660804	8.357529	0.003038	-0.001619	-0.002824	-0.323242	-0.668213	-0.655029	0.731531	0.231992	-0.135166	0.626715
62537		4.749440	1.643969	8.363639	0.004296	-0.002426	-0.002757	-0.308105	-0.661621	-0.655518	0.731508	0.232039	-0.135160	0.626726
62538		4.740429	1.659334	8.364046	0.005350	-0.002674	-0.002993	-0.320557	-0.661133	-0.653564	0.731604	0.232009	-0.135109	0.626637
62539		4.744073	1.669204	8.366099	0.002093	-0.001467	-0.000908	-0.322021	-0.662354	-0.656006	0.731588	0.231988	-0.135137	0.626657
62540		4.740173	1.645733	8.381512	0.003763	-0.002788	-0.002858	-0.319092	-0.658203	-0.654297	0.731579	0.231990	-0.135166	0.626661
62541		4.745986	1.652018	8.354527	0.003570	-0.001861	-0.000102	-0.318359	-0.658203	-0.659424	0.731565	0.231959	-0.135197	0.626681
62542		4.744560	1.665726	8.349212	0.003353	-0.001670	-0.003464	-0.317627	-0.660400	-0.656250	0.731605	0.231893	-0.135231	0.626652
62543		4.742209	1.664104	8.362089	0.003448	-0.002737	-0.002219	-0.313232	-0.663574	-0.646729	0.731626	0.231867	-0.135252	0.626632
62544		4.739104	1.656293	8.359327	0.004120	0.000077	-0.002189	-0.329834	-0.659912	-0.651367	0.731647	0.231894	-0.135176	0.626614
62545		4.744257	1.653292	8.366481	0.002614	-0.002076	-0.001244	-0.317871	-0.661865	-0.657959	0.731550	0.231921	-0.135245	0.626703
62546		4.740354	1.664098	8.374367	0.003024	-0.003194	-0.000638	-0.314697	-0.656250	-0.653076	0.731565	0.231889	-0.135276	0.626691
62547		4.741938	1.645990	8.363176	0.002820	-0.002032	-0.003565	-0.320557	-0.655762	-0.651367	0.731608	0.231846	-0.135289	0.626653
62548		4.735538	1.663714	8.350395	0.003982	-0.002374	-0.002120	-0.313965	-0.658936	-0.654785	0.731584	0.231841	-0.135322	0.626676
62549		4.745846	1.656714	8.364903	0.001889	-0.000908	-0.001212	-0.323242	-0.662109	-0.647217	0.731627	0.231777	-0.135327	0.626648
62550		4.744384	1.670365	8.359607	0.004298	-0.002425	-0.002759	-0.315186	-0.649414	-0.653564	0.731570	0.231846	-0.135323	0.626690
62551		4.749766	1.667666	8.366572	0.004516	-0.002011	-0.002021	-0.317383	-0.659912	-0.652588	0.731594	0.231781	-0.135363	0.626677
62552		4.749494	1.662380	8.350477	0.002833	-0.001662	-0.000506	-0.317139	-0.651855	-0.651123	0.731592	0.231761	-0.135372	0.626685
62553		4.736631	1.659176	8.382622	0.004749	-0.000626	-0.000846	-0.328125	-0.663086	-0.652344	0.731583	0.231721	-0.135389	0.626707
62554		4.752041	1.657696	8.370681	0.002847	-0.000088	-0.002694	-0.316895	-0.652100	-0.652588	0.731515	0.231743	-0.135403	0.626775
62555		4.732906	1.646035	8.363985	0.003668	-0.002322	-0.001482	-0.313721	-0.665283	-0.653564	0.731522	0.231699	-0.135444	0.626775
62556		4.757745	1.655727	8.377323	0.004613	-0.003077	-0.000776	-0.317627	-0.652832	-0.658691	0.731549	0.231718	-0.135411	0.626743
62557		4.740489	1.665715	8.367903	0.002930	-0.002126	-0.001885	-0.324463	-0.665527	-0.656006	0.731579	0.231633	-0.135472	0.626726
62558		4.745942	1.662657	8.374905	0.003135	-0.002685	-0.001582	-0.322021	-0.662842	-0.647949	0.731542	0.231654	-0.135494	0.626756
62559		4.751561	1.668917	8.347997	0.003368	-0.000697	-0.003031	-0.316162	-0.671387	-0.657471	0.731506	0.231695	-0.135469	0.626790
62560		4.731988	1.648095	8.375345	0.003477	-0.000791	-0.001350	-0.312988	-0.657959	-0.654297	0.731541	0.231699	-0.135415	0.626759
62561		4.742746	1.650300	8.355816	0.003026	-0.003192	-0.000639	-0.326660	-0.669922	-0.657471	0.731577	0.231663	-0.135431	0.626727
62562		4.735518	1.652263	8.361278	0.002191	-0.001930	-0.002288	-0.318115	-0.662598	-0.654053	0.731542	0.231687	-0.135444	0.626756
62563		4.746801	1.660791	8.357490	0.003779	-0.001814	-0.002425	-0.314209	-0.661133	-0.654785	0.731552	0.231688	-0.135433	0.626745
62564		4.728260	1.655480	8.366510	0.003368	-0.000697	-0.003032	-0.319092	-0.656006	-0.652832	0.731602	0.231656	-0.135408	0.626705
62565		4.752095	1.658987	8.364336	0.003040	-0.001618	-0.002828	-0.313965	-0.659424	-0.651123	0.731603	0.231629	-0.135431	0.626709
62566		4.725381	1.648567	8.363465	0.002288	-0.002394	-0.003666	-0.309326	-0.654785	-0.652100	0.731644	0.231616	-0.135424	0.626667
62567		4.750074	1.658322	8.376860	0.003342	-0.002640	-0.003904	-0.314453	-0.656006	-0.645264	0.731720	0.231575	-0.135417	0.626595
62568		4.747222	1.650260	8.374029	0.001767	-0.002386	-0.000706	-0.324219	-0.662842	-0.659180	0.731711	0.231574	-0.135423	0.626605
62569		4.743106	1.661208	8.381994	0.003889	-0.001305	-0.003369	-0.322754	-0.666016	-0.659180	0.731701	0.231562	-0.135441	0.626617
62570		4.736189	1.638191	8.361095	0.002616	-0.002074	-0.001247	-0.320312	-0.663574	-0.656982	0.731689	0.231551	-0.135462	0.626630
62571		4.746526	1.665352	8.367983	0.001015	-0.003162	-0.001544	-0.316406	-0.659668	-0.654297	0.731691	0.231530	-0.135500	0.626627
62572		4.732828	1.649595	8.368542	0.004191	-0.002929	-0.001821	-0.322021	-0.656250	-0.656738	0.731703	0.231526	-0.135505	0.626613
62573		4.738412	1.646628	8.375463	0.002603	-0.003046	-0.001683	-0.324219	-0.656738	-0.652832	0.731686	0.231493	-0.135565	0.626633
62574		4.749918	1.655123	8.371540	0.003452	-0.002733	-0.002223	-0.315430	-0.667480	-0.654785	0.731640	0.231497	-0.135608	0.626676
62575		4.737618	1.661091	8.369593	0.002616	-0.002073	-0.001247	-0.324707	-0.663086	-0.650146	0.731666	0.231501	-0.135581	0.626650
62576		4.743945	1.673668	8.358294	0.005573	-0.002253	-0.002263	-0.320801	-0.655762	-0.658447	0.731606	0.231565	-0.135568	0.626699
62577		4.741924	1.637958	8.378659	0.004725	-0.002565	-0.001723	-0.318115	-0.665283	-0.653809	0.731601	0.231532	-0.135610	0.626708
62578		4.729725	1.643911	8.376660	0.001974	-0.002943	-0.000403	-0.320801	-0.662354	-0.656250	0.731596	0.231537	-0.135614	0.626710
62579		4.745940	1.648574	8.380318	0.004969	0.000393	-0.002738	-0.314697	-0.656982	-0.658447	0.731597	0.231527	-0.135587	0.626719
62580		4.733606	1.664069	8.344479	0.003986	-0.002370	-0.002125	-0.321533	-0.669189	-0.656494	0.731640	0.231478	-0.135603	0.626683
62581		4.749097	1.653395	8.366313	0.002932	-0.002124	-0.001888	-0.314209	-0.664551	-0.647949	0.731633	0.231499	-0.135591	0.626687
62582		4.745139	1.664412	8.374168	0.003877	-0.002877	-0.001182	-0.318604	-0.662109	-0.648438	0.731635	0.231543	-0.135551	0.626677
62583		4.735170	1.632484	8.350760	0.003671	-0.002319	-0.001486	-0.321777	-0.657959	-0.651367	0.730775	0.231846	-0.133704	0.627964
62584		4.742686	1.657300	8.370938	0.002411	-0.001515	-0.001551	-0.318848	-0.663818	-0.645020	0.730776	0.231831	-0.133711	0.627966
62585		4.739780	1.649157	8.368170	0.002180	-0.002901	-0.002725	-0.321777	-0.657227	-0.651367	0.730759	0.231836	-0.133716	0.627983
62586		4.740948	1.656026	8.383444	0.001975	-0.002942	-0.000404	-0.321289	-0.665527	-0.648438	0.730753	0.231825	-0.133743	0.627989
62587		4.755891	1.638857	8.389591	0.003466	-0.001760	-0.001790	-0.324707	-0.657715	-0.646729	0.730730	0.231830	-0.133733	0.628016
62588		4.725106	1.647462	8.363063	0.002303	-0.002021	-0.000608	-0.317139	-0.668701	-0.653564	0.730709	0.231820	-0.133743	0.628041
62589		4.754852	1.653122	8.383878	0.003247	-0.002174	-0.002529	-0.316650	-0.662842	-0.649658	0.730703	0.231824	-0.133738	0.628048
62590		4.741860	1.652825	8.366268	0.002617	-0.002072	-0.001249	-0.320312	-0.662109	-0.648926	0.730692	0.231819	-0.133742	0.628063
62591		4.735179	1.660951	8.387509	0.002303	-0.002021	-0.000609	-0.319336	-0.657227	-0.646729	0.730672	0.231810	-0.133750	0.628087
62592		4.750764	1.659072	8.375512	0.001999	-0.000399	-0.002159	-0.312988	-0.663574	-0.654785	0.730674	0.231786	-0.133744	0.628095
62593		4.731682	1.647240	8.368891	0.003672	-0.002317	-0.001487	-0.320557	-0.654297	-0.654785	0.730675	0.231788	-0.133745	0.628092
62594		4.747990	1.651941	8.372476	0.003260	-0.001202	-0.002094	-0.315186	-0.654541	-0.659912	0.730697	0.231773	-0.133747	0.628072
62595		4.743874	1.662903	8.380427	0.002399	-0.002486	-0.001988	-0.323730	-0.664795	-0.650635	0.730735	0.231756	-0.133773	0.628029
62596		4.727717	1.653526	8.360390	0.002509	-0.002578	-0.000306	-0.312256	-0.664307	-0.654541	0.730707	0.231754	-0.133784	0.628059
62597		4.728803	1.660715	8.375647	0.005261	-0.002199	-0.001628	-0.316895	-0.651123	-0.648193	0.730705	0.231770	-0.133771	0.628060
62598		4.748170	1.633796	8.373445	0.003139	-0.002680	-0.001586	-0.314209	-0.660889	-0.655029	0.730711	0.231768	-0.133785	0.628050
62599		4.745886	1.666405	8.378592	0.003552	-0.003795	-0.000980	-0.317627	-0.665771	-0.656494	0.730711	0.231778	-0.133805	0.628042
62600		4.734885	1.653370	8.365870	0.004317	-0.002045	0.000292	-0.320801	-0.659668	-0.657471	0.730694	0.231782	-0.133804	0.628061
62601		4.729864	1.649326	8.392084	0.004519	-0.001406	-0.004657	-0.315186	-0.661377	-0.652588	0.730726	0.231787	-0.133787	0.628025
62602		4.732070	1.646991	8.362719	0.004740	-0.001589	-0.001293	-0.321289	-0.657959	-0.652832	0.730721	0.231793	-0.133774	0.628032
62603		4.732470	1.648180	8.362258	0.004509	-0.002976	-0.002466	-0.316162	-0.663086	-0.649414	0.730723	0.231809	-0.133776	0.628022
62604		4.748977	1.653169	8.365663	0.004728	-0.002561	-0.001728	-0.310059	-0.666748	-0.658936	0.730709	0.231828	-0.133766	0.628034
62605		4.744064	1.649123	8.391825	0.004741	-0.001589	-0.001294	-0.322266	-0.666992	-0.652588	0.730716	0.231832	-0.133754	0.628027
62606		4.746474	1.646644	8.362367	0.004510	-0.002975	-0.002467	-0.319336	-0.661133	-0.655762	0.730702	0.231854	-0.133747	0.628036
62607		4.744874	1.651405	8.390919	0.003467	-0.001758	-0.001793	-0.318848	-0.661133	-0.656982	0.730709	0.231849	-0.133748	0.628030
62608		4.736448	1.640924	8.364957	0.003239	-0.003743	-0.000340	-0.313232	-0.659912	-0.645264	0.730705	0.231854	-0.133774	0.628028
62609		4.732591	1.651909	8.372749	0.003248	-0.002173	-0.002532	-0.317627	-0.661133	-0.649658	0.730701	0.231858	-0.133769	0.628032
62610		4.737394	1.642735	8.364065	0.003674	-0.002315	-0.001490	-0.315430	-0.663818	-0.647949	0.730691	0.231863	-0.133768	0.628042
62611		4.732692	1.647599	8.356252	0.003782	-0.001809	-0.002434	-0.317627	-0.661865	-0.660889	0.730683	0.231869	-0.133755	0.628052
62612		4.743112	1.640924	8.370704	0.003249	-0.002173	-0.002532	-0.320312	-0.661377	-0.648926	0.730707	0.231863	-0.133763	0.628024
62613		4.741637	1.654763	8.365282	0.004097	-0.001860	-0.003075	-0.327881	-0.662109	-0.655029	0.730705	0.231872	-0.133749	0.628026
62614		4.735392	1.638192	8.360109	0.004523	-0.002002	-0.002034	-0.312744	-0.664551	-0.649170	0.730698	0.231882	-0.133742	0.628033
62615		4.734710	1.658380	8.370272	0.003977	-0.003338	-0.002566	-0.317627	-0.657471	-0.655762	0.730692	0.231901	-0.133741	0.628032
62616		4.729156	1.647909	8.380799	0.003480	-0.000785	-0.001360	-0.306641	-0.661621	-0.651611	0.730704	0.231885	-0.133737	0.628025
62617		4.743105	1.659082	8.363593	0.003663	-0.003286	-0.001926	-0.314209	-0.665039	-0.660889	0.730712	0.231895	-0.133745	0.628011
62618		4.737734	1.648428	8.374057	0.003046	-0.002212	-0.000210	-0.309326	-0.650391	-0.654297	0.730717	0.231884	-0.133759	0.628006
62619		4.736306	1.662104	8.368630	0.004098	-0.001859	-0.003077	-0.314209	-0.661621	-0.647949	0.730753	0.231880	-0.133758	0.627965
62620		4.744234	1.661982	8.362378	0.004002	-0.001393	-0.001698	-0.321533	-0.659912	-0.649414	0.730745	0.231882	-0.133744	0.627977
62621		4.741955	1.660405	8.375287	0.003457	-0.002729	-0.002230	-0.321777	-0.663574	-0.655518	0.730738	0.231890	-0.133747	0.627982
62622		4.736472	1.649910	8.385791	0.003250	-0.002172	-0.002534	-0.321289	-0.662354	-0.645508	0.730743	0.231889	-0.133749	0.627975
62623		4.744646	1.658580	8.345519	0.002728	-0.001563	-0.002197	-0.326416	-0.657227	-0.656738	0.730729	0.231886	-0.133742	0.627995
62624		4.739787	1.654297	8.371738	0.003883	-0.002870	-0.001189	-0.325684	-0.658447	-0.657715	0.730726	0.231891	-0.133755	0.627993
62625		4.735084	1.659078	8.363932	0.003262	-0.001199	-0.002100	-0.316650	-0.663330	-0.656250	0.730736	0.231879	-0.133755	0.627986
62626		4.733865	1.638412	8.366272	0.003250	-0.002171	-0.002534	-0.317871	-0.666504	-0.657715	0.730749	0.231876	-0.133757	0.627972
62627		4.724824	1.653165	8.366720	0.002513	-0.002574	-0.000308	-0.316162	-0.662109	-0.659424	0.730743	0.231868	-0.133774	0.627978
62628		4.748856	1.656265	8.364423	0.001892	-0.000904	-0.001219	-0.317139	-0.655762	-0.653809	0.730759	0.231838	-0.133782	0.627969
62629		4.752239	1.665943	8.366571	0.003795	-0.000835	-0.002003	-0.306641	-0.655518	-0.658691	0.730771	0.231827	-0.133773	0.627961
62630		4.730571	1.651529	8.373317	0.002621	-0.002068	-0.001253	-0.317383	-0.656006	-0.657227	0.730799	0.231808	-0.133789	0.627932
62631		4.746802	1.656073	8.376940	0.002740	-0.000591	-0.001763	-0.315674	-0.661133	-0.650635	0.730817	0.231783	-0.133789	0.627920
62632		4.754746	1.655438	8.370776	0.001773	-0.002381	-0.000709	-0.316406	-0.665283	-0.654297	0.730811	0.231769	-0.133806	0.627929
62633		4.747827	1.666187	8.342194	0.001543	-0.003769	-0.001881	-0.314697	-0.664551	-0.658447	0.730814	0.231765	-0.133835	0.627920
62634		4.748028	1.657558	8.375951	0.000096	-0.000467	-0.001379	-0.320312	-0.657471	-0.657227	0.730834	0.231718	-0.133850	0.627912
62635		4.744988	1.648930	8.373404	0.001032	-0.002188	-0.001109	-0.323975	-0.660889	-0.647461	0.730843	0.231691	-0.133878	0.627905
62636		4.740291	1.653232	8.365686	0.001880	-0.001875	-0.001654	-0.317871	-0.653564	-0.649902	0.730828	0.231680	-0.133885	0.627924
62637		4.734675	1.642273	8.376381	0.001359	-0.001267	-0.001316	-0.320312	-0.664795	-0.651123	0.730832	0.231652	-0.133898	0.627928
62638		4.733214	1.655414	8.371055	0.000814	-0.002604	-0.001847	-0.316162	-0.659668	-0.653320	0.730829	0.231636	-0.133919	0.627933
62639		4.751601	1.646874	8.379595	0.001447	-0.003301	-0.000502	-0.321533	-0.663574	-0.656250	0.730825	0.231624	-0.133951	0.627935
62640		4.736099	1.643365	8.375363	0.000292	-0.001996	-0.001510	-0.311768	-0.665771	-0.659668	0.730831	0.231593	-0.133977	0.627934
62641		4.736245	1.643801	8.375194	0.002218	0.000018	-0.001427	-0.311768	-0.658936	-0.654053	0.730849	0.231561	-0.133971	0.627926
62642		4.742195	1.656181	8.364023	0.004318	-0.001442	-0.002343	-0.313721	-0.659424	-0.655762	0.730861	0.231561	-0.133958	0.627914
62643		4.736010	1.639103	8.358964	0.000499	-0.002552	-0.001206	-0.320557	-0.664062	-0.650879	0.730874	0.231533	-0.133991	0.627903
62644		4.749826	1.640656	8.375863	0.000606	-0.002047	-0.002151	-0.311035	-0.660400	-0.654541	0.730874	0.231511	-0.134008	0.627907
62645		4.734300	1.637356	8.371606	0.002077	-0.003404	-0.001785	-0.321777	-0.661865	-0.649414	0.730886	0.231506	-0.134032	0.627891
62646		4.750891	1.641814	8.375032	0.001869	-0.002847	-0.002089	-0.323242	-0.660400	-0.653809	0.730878	0.231502	-0.134047	0.627898
62647		4.733856	1.617487	8.373390	0.005896	-0.002292	-0.002923	-0.319336	-0.660400	-0.655762	0.730873	0.231529	-0.134028	0.627897
62648		4.741769	1.652117	8.359098	0.005986	-0.004326	-0.002109	-0.313721	-0.659668	-0.654785	0.730867	0.231569	-0.134030	0.627890
62649		4.739797	1.651636	8.371643	0.010652	-0.002901	-0.003793	-0.317871	-0.662842	-0.643555	0.730868	0.231641	-0.133977	0.627873
62650		4.750635	1.655177	8.351670	0.006407	-0.003871	-0.003697	-0.312988	-0.661621	-0.659180	0.730852	0.231693	-0.133957	0.627876
62651		4.740612	1.655121	8.370493	0.002752	0.000383	-0.001332	-0.320312	-0.658691	-0.656982	0.730870	0.231661	-0.133945	0.627870
62652		4.743769	1.664405	8.372827	-0.000427	0.000141	-0.001042	-0.321289	-0.663818	-0.651611	0.730884	0.231603	-0.133962	0.627872
62653		4.733857	1.637666	8.365853	-0.000949	0.000748	-0.000704	-0.313232	-0.661865	-0.656250	0.730883	0.231542	-0.133971	0.627893
62654		4.736865	1.646850	8.368292	0.002763	0.001355	-0.000898	-0.322021	-0.654541	-0.658691	0.730893	0.231504	-0.133949	0.627901
62655		4.751834	1.637091	8.390358	0.010575	0.000106	-0.004176	-0.322266	-0.662109	-0.654053	0.730902	0.231551	-0.133874	0.627889
62656		4.730608	1.656710	8.360349	0.024285	0.006380	-0.007725	-0.315918	-0.661377	-0.656982	0.730896	0.231686	-0.133616	0.627901
62657		4.755174	1.619532	8.370533	0.034620	0.002568	-0.011321	-0.320068	-0.667969	-0.657471	0.730896	0.231946	-0.133304	0.627871
62658		4.722569	1.660779	8.369483	0.031862	0.001218	-0.010429	-0.317871	-0.662842	-0.651123	0.730887	0.232194	-0.133027	0.627848
62659		4.707731	1.652038	8.369539	0.030374	0.000633	-0.011671	-0.315186	-0.661865	-0.655029	0.730887	0.232436	-0.132761	0.627815
62660		4.742435	1.676815	8.378281	0.032904	-0.000366	-0.014185	-0.316406	-0.664062	-0.652100	0.730909	0.232709	-0.132481	0.627748
62661		4.715936	1.688148	8.358208	0.026237	-0.001392	-0.010331	-0.323730	-0.670410	-0.648193	0.730911	0.232925	-0.132272	0.627709
62662		4.709856	1.716496	8.360061	0.016157	-0.004061	-0.007344	-0.316650	-0.667236	-0.645752	0.730897	0.233073	-0.132169	0.627692
62663		4.706473	1.698696	8.325026	0.015813	-0.009076	-0.003168	-0.316895	-0.660645	-0.655273	0.730850	0.233248	-0.132128	0.627692
62664		4.701268	1.694867	8.362822	0.014999	-0.017258	-0.004392	-0.321533	-0.671631	-0.654785	0.730820	0.233471	-0.132174	0.627633
62665		4.697137	1.678393	8.368008	0.018074	-0.031417	-0.002413	-0.324463	-0.663818	-0.650879	0.730731	0.233837	-0.132325	0.627569
62666		4.696402	1.718534	8.360829	0.025675	-0.039303	0.002341	-0.319336	-0.661377	-0.645996	0.730565	0.234326	-0.132504	0.627542
62667		4.710656	1.680027	8.354173	0.032266	-0.050129	-0.001043	-0.309082	-0.665283	-0.650635	0.730389	0.234965	-0.132719	0.627462
62668		4.731583	1.677490	8.423132	0.055115	-0.071108	-0.007055	-0.322510	-0.674805	-0.655762	0.730179	0.235981	-0.132930	0.627281
62669		4.774251	1.709670	8.438938	0.089176	-0.099992	-0.016430	-0.318848	-0.666992	-0.643799	0.729883	0.237553	-0.133111	0.626994
62670		4.769784	1.805220	8.526286	0.133008	-0.146439	-0.022995	-0.326904	-0.673096	-0.646484	0.729423	0.239900	-0.133349	0.626585
62671		4.408157	1.720687	9.092627	0.205693	-0.332712	-0.001553	-0.327148	-0.672852	-0.638672	0.728256	0.244329	-0.134781	0.625924
62672		2.609509	1.661466	10.821964	0.578431	-1.317046	0.181129	-0.348633	-0.682129	-0.595703	0.722740	0.259498	-0.142791	0.624434
62673		3.847812	3.651532	11.350680	0.677969	-2.254728	0.598784	-0.383545	-0.679688	-0.552246	0.711484	0.281993	-0.159737	0.623502
62674		5.622623	2.752833	11.191334	1.049350	-2.338219	0.961948	-0.409668	-0.685791	-0.484619	0.695204	0.307406	-0.175654	0.625571
62675		3.736813	7.187456	13.020770	0.663501	-1.688562	1.202026	-0.448975	-0.671143	-0.415039	0.679280	0.323571	-0.189691	0.630792
62676		0.332018	5.112732	12.228435	-0.494000	-0.297410	0.897614	-0.439453	-0.638428	-0.379395	0.673432	0.319511	-0.199723	0.636013
62677		-3.333787	1.876220	8.649278	-0.381050	0.144877	0.608690	-0.426270	-0.624512	-0.319824	0.670443	0.313565	-0.203944	0.640773
62678		-2.748370	1.820347	8.952976	-0.359756	0.337687	0.640024	-0.401611	-0.596191	-0.250244	0.667544	0.306141	-0.206475	0.646553
62679		-0.376417	0.687403	9.914865	-0.196093	0.691820	0.574233	-0.395508	-0.569824	-0.160645	0.665382	0.297352	-0.204445	0.653491
62680		2.491676	1.140422	11.068673	0.493748	1.450776	0.034284	-0.424316	-0.538574	-0.064941	0.666836	0.289404	-0.188405	0.660363
62681		3.182911	2.888054	10.130783	0.669058	2.043793	-0.565388	-0.491943	-0.517090	-0.004639	0.673617	0.279265	-0.163697	0.664420
62682		4.209871	2.522677	9.275484	0.331735	1.999063	-0.764818	-0.575684	-0.485352	-0.009521	0.682630	0.266851	-0.141345	0.665454
62683		6.125559	1.983443	9.810340	0.222127	1.824730	-0.779174	-0.635010	-0.478516	-0.071533	0.691355	0.254792	-0.121247	0.665138
62684		9.082551	1.530401	10.651239	0.240552	1.990553	-0.800124	-0.650391	-0.464355	-0.147217	0.699978	0.241370	-0.099416	0.664747
62685		9.733012	1.144918	9.347640	0.446869	2.463729	-0.949524	-0.644043	-0.471680	-0.221436	0.709159	0.225783	-0.071197	0.664113
62686		8.582357	1.049277	6.477874	0.330524	2.263277	-0.874347	-0.620850	-0.481445	-0.270752	0.717137	0.210527	-0.045864	0.662789
62687		9.196603	0.812801	5.253258	0.113937	1.678611	-0.629601	-0.605713	-0.479248	-0.310303	0.722808	0.197880	-0.028182	0.661512
62688		9.066483	0.961467	4.344567	-0.036275	1.267699	-0.484782	-0.586670	-0.479980	-0.330322	0.727223	0.187145	-0.015809	0.660207
62689		8.203329	0.695089	3.487600	-0.095425	0.667086	-0.436841	-0.575684	-0.481201	-0.351807	0.731125	0.180786	-0.009499	0.657786
62690		8.614575	0.812587	3.747371	-0.108846	0.127630	-0.349372	-0.572998	-0.484131	-0.354736	0.734231	0.178722	-0.008432	0.654898
62691		6.948879	-0.516445	2.705545	0.040570	-0.661022	-0.038256	-0.578125	-0.467529	-0.338623	0.734344	0.184448	-0.014082	0.653085
62692		4.370943	0.388266	5.429766	-0.189092	-2.059014	0.868754	-0.608398	-0.452393	-0.304443	0.727026	0.199240	-0.036527	0.656051
62693		3.234167	3.722027	9.703520	-0.122996	-2.094527	0.996887	-0.633057	-0.439941	-0.264404	0.717886	0.214705	-0.059044	0.659587
62694		7.863485	4.737391	10.591465	-0.293161	-2.420902	0.939364	-0.667969	-0.425781	-0.221680	0.708752	0.231172	-0.085679	0.660976
62695		9.984897	2.714760	11.377072	-0.340640	-1.688009	0.556882	-0.677002	-0.414062	-0.200684	0.703140	0.241394	-0.105045	0.660521
62696		8.549214	0.623472	10.604290	-0.450947	-0.511653	0.446435	-0.690186	-0.403076	-0.190674	0.700103	0.241008	-0.114621	0.662293
62697		4.903155	1.421952	8.414728	-0.126624	-0.161459	0.131908	-0.697266	-0.389893	-0.186523	0.699156	0.240998	-0.117497	0.662794
62698		4.895890	1.785509	8.258073	-0.064112	-0.049145	0.053476	-0.685303	-0.392822	-0.187988	0.698831	0.240718	-0.118637	0.663036
62699		4.970210	1.805565	8.402878	-0.123219	0.028687	0.074204	-0.688721	-0.391602	-0.201416	0.698625	0.239244	-0.119648	0.663603
62700		4.880243	1.593492	8.582789	-0.073144	0.022076	0.042850	-0.691162	-0.387695	-0.193604	0.698519	0.238310	-0.120208	0.663950
62701		4.819277	1.718475	8.468901	-0.036093	0.002361	0.018971	-0.696533	-0.387451	-0.192139	0.698470	0.237898	-0.120562	0.664085
62702		4.813299	1.749733	8.445559	-0.040902	-0.002406	0.014261	-0.690430	-0.391357	-0.202393	0.698467	0.237490	-0.120983	0.664157
62703		4.814415	1.734574	8.448051	-0.080495	-0.000137	0.024657	-0.695312	-0.380615	-0.197754	0.698499	0.236703	-0.121744	0.664266
62704		4.720540	1.658039	8.445278	-0.102828	-0.001995	0.033578	-0.687988	-0.384766	-0.196533	0.698518	0.235722	-0.122733	0.664413
62705		4.696436	1.576135	8.433403	-0.061052	-0.020870	0.029487	-0.697021	-0.388184	-0.200439	0.698418	0.235268	-0.123527	0.664531
62706		4.725372	1.671834	8.337775	-0.039991	-0.024550	0.033369	-0.694092	-0.395508	-0.203125	0.698218	0.235022	-0.124189	0.664705
62707		4.742132	1.542608	8.296109	-0.045555	-0.016980	0.032601	-0.693115	-0.384033	-0.196533	0.698052	0.234667	-0.124830	0.664885
62708		4.752471	1.520461	8.374380	-0.040506	-0.014385	0.022520	-0.690430	-0.384521	-0.199463	0.697959	0.234349	-0.125376	0.664992
62709		4.719481	1.509040	8.358344	-0.033583	-0.017806	0.018114	-0.691895	-0.386719	-0.196289	0.697876	0.234127	-0.125882	0.665062
62710		4.705525	1.497759	8.366076	-0.014547	-0.026570	0.014623	-0.693359	-0.388428	-0.196533	0.697753	0.234149	-0.126295	0.665105
62711		4.704157	1.420434	8.427737	0.020915	-0.049442	0.004073	-0.699707	-0.376465	-0.194824	0.697577	0.234687	-0.126582	0.665045
62712		4.755732	1.508147	8.424012	0.054800	-0.069321	-0.002912	-0.693359	-0.377197	-0.187988	0.697328	0.235697	-0.126740	0.664919
62713		4.772856	1.567938	8.348374	0.065675	-0.074757	-0.002560	-0.698242	-0.378174	-0.195557	0.697035	0.236846	-0.126857	0.664796
62714		4.734055	1.635596	8.309951	0.070598	-0.081018	0.001991	-0.695068	-0.383057	-0.194824	0.696678	0.238082	-0.126999	0.664702
62715		4.697988	1.587799	8.409373	0.098053	-0.121978	0.005756	-0.694336	-0.386230	-0.184082	0.696141	0.239891	-0.127282	0.664560
62716		4.770079	1.495882	8.450558	0.171179	-0.187360	-0.006164	-0.700439	-0.383789	-0.183594	0.695375	0.242897	-0.127489	0.664230
62717		4.734328	1.485226	8.624882	0.282763	-0.268589	-0.015625	-0.701416	-0.394531	-0.171875	0.694208	0.247558	-0.127445	0.663738
62718		4.393292	1.327124	8.957304	0.449432	-0.546977	-0.008825	-0.702637	-0.392822	-0.160889	0.691990	0.255951	-0.128448	0.662677
62719		4.333042	2.016996	9.031637	0.450785	-1.011731	0.059485	-0.710938	-0.388672	-0.131592	0.688362	0.268061	-0.133661	0.660633
62720		4.600182	2.024151	8.752654	0.453277	-1.515851	0.153660	-0.716309	-0.388672	-0.102783	0.682905	0.284118	-0.143466	0.657522
62721		5.043375	2.149622	8.441654	0.403829	-1.959957	0.268862	-0.720215	-0.380615	-0.063477	0.675529	0.303050	-0.157802	0.653392
62722		5.238693	2.315160	8.516127	0.335077	-2.438599	0.372437	-0.731934	-0.370117	-0.004883	0.666082	0.324861	-0.177004	0.647665
62723		5.616341	2.469219	8.283954	0.242589	-3.088197	0.492610	-0.740479	-0.364258	0.058838	0.653769	0.350486	-0.202626	0.639288
62724		6.284299	1.960034	8.595301	0.200901	-3.929664	0.622175	-0.738037	-0.348877	0.126709	0.637163	0.381456	-0.235610	0.626899
62725		6.995754	1.483042	8.847332	0.580026	-5.084301	0.556072	-0.728027	-0.332764	0.237793	0.613769	0.423411	-0.273709	0.607532
62726		10.592774	4.586176	8.658358	0.759559	-6.324688	0.885996	-0.693359	-0.310547	0.351807	0.579443	0.472766	-0.320231	0.581542
62727		15.752763	7.306548	10.874214	0.588749	-5.586146	1.906841	-0.666992	-0.255615	0.457520	0.538199	0.508623	-0.366766	0.563140
62728		14.437183	4.148119	9.736662	1.239634	-4.673586	2.138597	-0.634277	-0.196777	0.551025	0.492712	0.538879	-0.402254	0.552301
62729		4.994007	5.078439	9.578764	2.240137	-3.988898	2.272897	-0.605957	-0.118896	0.606689	0.440925	0.567626	-0.425827	0.549597
62730		13.612661	5.225535	13.915898	2.062222	-2.040576	2.634347	-0.588135	-0.029053	0.645752	0.396844	0.578266	-0.441070	0.559982
62731		5.495009	8.763862	10.514657	1.031880	1.519133	1.610397	-0.626465	0.016357	0.607910	0.386326	0.563570	-0.437724	0.584412
62732		-0.780301	5.288139	5.434543	-0.326642	2.293963	0.929806	-0.663574	0.046143	0.565186	0.394216	0.539844	-0.435335	0.603030
62733		-1.722756	3.548261	4.664246	-0.396892	2.116225	0.051602	-0.691162	0.043213	0.517090	0.407893	0.521429	-0.428050	0.615230
62734		0.870365	3.470724	7.273933	-0.095577	2.579489	-1.059040	-0.719482	0.028809	0.456299	0.430223	0.506422	-0.408428	0.625805
62735		2.565280	1.890318	8.155700	0.176049	3.511605	-2.123170	-0.764160	0.003906	0.371094	0.463073	0.490039	-0.374150	0.636739
62736		4.872655	0.449551	8.224502	0.349074	4.264077	-2.685378	-0.802979	-0.031982	0.283691	0.501307	0.469669	-0.329464	0.647731
62737		7.277020	-0.958546	8.536742	0.383163	4.814746	-2.504110	-0.837891	-0.059570	0.146729	0.537971	0.442279	-0.280702	0.660442
62738		10.102877	-0.811525	9.306417	0.655072	5.153766	-1.864382	-0.823242	-0.104248	-0.006348	0.566510	0.409587	-0.229636	0.677180
62739		11.513662	2.390449	9.471823	0.324190	5.169080	-1.313134	-0.764648	-0.155762	-0.108154	0.589504	0.370939	-0.183022	0.693825
62740		12.113621	4.883778	8.312506	-0.476172	4.425411	-1.032313	-0.716797	-0.172607	-0.156982	0.609790	0.330750	-0.149413	0.704582
62741		16.202901	6.055168	8.897066	-0.976692	3.318614	-1.284454	-0.728516	-0.156250	-0.228516	0.630653	0.296058	-0.127197	0.706008
62742		20.300217	3.616951	9.261804	-0.664384	3.092036	-2.855822	-0.695801	-0.188477	-0.330322	0.662290	0.267588	-0.097894	0.692954
62743		20.706435	2.845645	6.497649	-0.475990	3.408118	-4.360964	-0.620605	-0.254150	-0.418945	0.704168	0.238763	-0.058965	0.666080
62744		17.746435	1.560416	1.188800	-1.726382	2.714725	-3.895965	-0.524170	-0.302490	-0.476562	0.742303	0.203308	-0.037676	0.637363
62745		16.999989	-3.889067	-3.134265	-1.622200	1.418368	-1.930038	-0.488770	-0.313477	-0.492920	0.761959	0.177670	-0.032485	0.621930
62746		16.345387	-3.010466	-3.007251	-0.218371	0.390938	-0.692078	-0.483887	-0.319336	-0.505859	0.767925	0.172760	-0.028906	0.616124
62747		14.999959	-0.822744	-2.557658	0.152027	-0.778887	-0.110404	-0.474609	-0.325195	-0.489502	0.768116	0.180194	-0.034971	0.613438
62748		4.008918	0.462273	3.974006	0.401800	-1.909757	0.401633	-0.503662	-0.318115	-0.448242	0.763052	0.198413	-0.051129	0.613000
62749		1.511398	4.863965	8.738436	-0.122424	-2.624494	1.105665	-0.537109	-0.309814	-0.411133	0.752720	0.216470	-0.079817	0.616590
62750		11.529597	4.666843	12.152624	-0.252430	-3.065428	0.847561	-0.571533	-0.280762	-0.372559	0.743212	0.236650	-0.112838	0.615548
62751		15.121292	0.680589	14.013454	-0.513711	-1.242405	0.620996	-0.582520	-0.271729	-0.354492	0.738074	0.240474	-0.130165	0.616828
62752		4.783158	2.051723	8.056195	-0.096103	-0.281465	0.079469	-0.589111	-0.264404	-0.354004	0.737287	0.241581	-0.133763	0.616566
62753		5.410054	2.164748	8.215011	-0.017475	-0.068371	0.030310	-0.595703	-0.266357	-0.352295	0.736993	0.241851	-0.134641	0.616621
62754		4.897555	1.782414	8.348330	-0.006846	-0.015353	0.047953	-0.589600	-0.265869	-0.347168	0.736619	0.241780	-0.135003	0.617016
62755		5.002404	1.714916	8.373788	-0.003123	-0.006472	0.037339	-0.593018	-0.259766	-0.347412	0.736331	0.241693	-0.135222	0.617346
62756		5.005200	1.606946	8.424262	0.022535	-0.006514	0.004136	-0.595703	-0.264893	-0.351807	0.736221	0.241899	-0.135143	0.617414
62757		4.939455	1.628620	8.395895	0.087053	-0.028677	-0.045068	-0.597900	-0.255859	-0.342041	0.736258	0.242952	-0.134621	0.617070
62758		4.890964	2.013509	8.224022	0.080506	-0.036541	-0.044197	-0.592529	-0.268311	-0.349365	0.736294	0.244003	-0.134225	0.616699
62759		4.934854	1.926829	8.254002	0.061483	-0.024872	-0.034288	-0.601562	-0.273926	-0.345947	0.736329	0.244773	-0.133898	0.616422
62760		4.961560	1.732050	8.271930	0.070515	-0.012523	-0.051272	-0.591553	-0.267822	-0.344238	0.736488	0.245559	-0.133336	0.616041
62761		4.929996	1.813315	8.250933	0.095599	-0.002628	-0.083090	-0.590820	-0.275391	-0.346680	0.736831	0.246552	-0.132391	0.615439
62762		4.733195	2.152710	8.120403	0.075000	-0.004515	-0.067899	-0.592529	-0.269287	-0.348877	0.737115	0.247345	-0.131670	0.614935
62763		4.765224	2.148356	8.098411	0.004196	-0.009896	-0.009787	-0.595215	-0.269043	-0.344727	0.737162	0.247430	-0.131721	0.614833
62764		4.871574	1.970480	8.212011	-0.028697	-0.011128	0.017789	-0.589600	-0.271240	-0.349121	0.737097	0.247177	-0.132122	0.614928
62765		4.858582	1.934996	8.212213	-0.037638	-0.012853	0.024293	-0.594238	-0.277344	-0.341309	0.737006	0.246844	-0.132627	0.615062
62766		4.855593	1.925007	8.218225	-0.040586	-0.019621	0.026391	-0.601807	-0.272705	-0.345459	0.736896	0.246532	-0.133224	0.615189
62767		4.913338	1.882096	8.241007	-0.029233	-0.023699	0.017447	-0.600342	-0.268066	-0.341064	0.736814	0.246371	-0.133743	0.615240
62768		4.871413	2.076764	8.252609	-0.024025	-0.025667	0.013955	-0.600342	-0.267334	-0.354004	0.736738	0.246278	-0.134229	0.615261
62769		4.780809	2.079317	8.159145	-0.030494	-0.033114	0.030937	-0.592773	-0.276855	-0.343750	0.736539	0.246155	-0.134887	0.615405
62770		4.699416	1.989532	8.317266	-0.024001	-0.073393	0.056155	-0.599121	-0.271729	-0.340332	0.736057	0.246358	-0.135942	0.615668
62771		4.800471	2.052319	8.312633	-0.036979	-0.104904	0.093005	-0.593994	-0.268555	-0.341064	0.735277	0.246622	-0.137500	0.616149
62772		4.993509	1.898618	8.230475	-0.026127	-0.125312	0.113931	-0.594482	-0.265137	-0.339355	0.734264	0.247105	-0.139225	0.616776
62773		5.158086	1.646839	8.325856	0.029367	-0.141772	0.087846	-0.597656	-0.259033	-0.337158	0.733248	0.248269	-0.140593	0.617206
62774		5.138923	1.739709	8.102349	0.047903	-0.145139	0.070164	-0.604004	-0.259277	-0.337402	0.732302	0.249659	-0.141793	0.617494
62775		5.175211	1.955608	7.646332	-0.001538	-0.065987	0.072821	-0.600830	-0.256592	-0.337646	0.731628	0.249979	-0.142658	0.617964
62776		5.084635	1.941609	7.896312	-0.133980	0.114305	0.077107	-0.608154	-0.248535	-0.335693	0.731654	0.247688	-0.142911	0.618797
62777		4.774733	1.743441	8.518426	-0.124892	0.105549	0.099859	-0.591797	-0.257812	-0.339355	0.731455	0.245505	-0.143243	0.619824
62778		4.539152	1.439111	8.854385	-0.012461	-0.114098	0.105822	-0.605957	-0.242676	-0.333008	0.730468	0.246040	-0.144729	0.620430
62779		4.488394	1.443924	9.046294	0.136011	-0.530846	0.116868	-0.614258	-0.250977	-0.326904	0.728166	0.251135	-0.148899	0.620108
62780		5.261128	1.681665	7.866614	0.122205	-0.784595	0.134551	-0.625000	-0.249756	-0.310547	0.725243	0.258019	-0.155530	0.619080
62781		6.816162	1.719057	6.036156	-0.036676	-0.270185	0.081371	-0.618896	-0.248291	-0.313721	0.724202	0.259571	-0.158546	0.618884
62782		6.565875	2.343494	6.229874	-0.265347	0.678888	0.023802	-0.612305	-0.246338	-0.325928	0.726196	0.251813	-0.154547	0.620762
62783		4.512256	2.213834	8.995815	-0.422038	1.007732	0.089045	-0.609619	-0.245361	-0.346191	0.728713	0.239923	-0.148964	0.623878
62784		3.554646	0.532530	10.653524	-0.076575	0.067982	0.057606	-0.616943	-0.246094	-0.348633	0.728620	0.238544	-0.149138	0.624474
62785		3.274106	0.836948	11.295728	0.545240	-1.163041	-0.063246	-0.618896	-0.233643	-0.322266	0.725226	0.252628	-0.155288	0.621379
62786		1.235442	2.132112	13.871488	0.659887	-3.533600	0.205193	-0.643066	-0.248047	-0.252441	0.713959	0.285343	-0.182698	0.612751
62787		1.802031	2.229263	13.876289	0.765597	-7.023245	0.741093	-0.687256	-0.242676	-0.118164	0.686735	0.343024	-0.241373	0.593691
62788		12.206184	1.616448	13.867040	1.770843	-8.773053	0.535727	-0.702637	-0.239258	0.061279	0.644476	0.419345	-0.304199	0.562374
62789		25.505463	3.359330	11.504312	1.740660	-5.553693	-0.183501	-0.683838	-0.237793	0.180176	0.613856	0.471894	-0.334917	0.536962
62790		20.766713	6.709486	-8.453577	1.616866	-2.089620	0.466954	-0.683350	-0.224121	0.233643	0.592111	0.496046	-0.342673	0.534713
62791		8.432872	1.176531	-6.482177	0.996538	1.742720	0.158682	-0.701904	-0.209717	0.211426	0.592164	0.490890	-0.324012	0.550804
62792		0.859207	-2.314495	-3.080447	1.545877	2.374673	-1.181341	-0.699951	-0.220215	0.163574	0.600005	0.490362	-0.288341	0.562493
62793		-1.221231	-0.071575	-0.727481	0.730231	1.435376	-1.253746	-0.686523	-0.243896	0.152588	0.609334	0.490062	-0.264698	0.564346
62794		-1.768242	0.753591	0.002828	-1.847956	0.444287	0.425996	-0.693848	-0.245117	0.130127	0.618948	0.471256	-0.276912	0.564040
62795		-2.827902	-1.210603	1.333111	-2.575301	-0.324047	1.375208	-0.699951	-0.223877	0.119141	0.622893	0.448499	-0.305513	0.563485
62796		0.150134	-0.072618	3.269902	-2.062465	-0.389026	1.351894	-0.712402	-0.203369	0.108398	0.623155	0.429755	-0.330523	0.563687
62797		1.491191	-0.170311	-0.332316	-1.473169	0.652667	0.979537	-0.717041	-0.193359	0.090088	0.626700	0.409468	-0.341013	0.568589
62798		-0.043332	0.547423	-5.013505	-1.065854	0.319669	0.605275	-0.718262	-0.179688	0.077393	0.629147	0.396167	-0.349165	0.570359
62799		3.372213	-1.315165	-6.292386	-1.390096	-1.288285	0.621169	-0.716553	-0.176514	0.103516	0.625794	0.391539	-0.372200	0.562625
62800		33.892375	-2.011689	-2.779290	-0.047066	0.770689	-0.029026	-0.719238	-0.163818	0.069336	0.629794	0.385822	-0.366378	0.565922
62801		23.978875	1.035859	11.433974	1.458782	7.072682	-2.455790	-0.693359	-0.216309	-0.068359	0.669605	0.356771	-0.287041	0.584766
62802		1.209582	5.405238	17.247231	-0.233803	7.387860	-2.343924	-0.655273	-0.258057	-0.186279	0.711082	0.307586	-0.215276	0.594482
62803		0.830281	7.007714	14.713765	-0.450573	5.001040	-0.746119	-0.623779	-0.263184	-0.281738	0.730376	0.267793	-0.170939	0.604664
62804		2.273945	2.992430	12.892832	-0.775968	2.297405	0.139088	-0.603760	-0.254150	-0.336670	0.736495	0.242887	-0.156245	0.611693
62805		3.226306	-1.241069	12.035170	-0.066758	0.029341	0.086916	-0.603760	-0.252930	-0.331055	0.736090	0.241835	-0.156771	0.612462
62806		2.872485	2.381570	12.133892	0.697975	-1.780636	-0.004990	-0.616211	-0.258789	-0.294434	0.730320	0.261781	-0.167771	0.608241
62807		1.508286	2.867795	14.000920	0.651414	-4.197371	0.610871	-0.655029	-0.259521	-0.207520	0.713699	0.297916	-0.202894	0.600594
62808		3.407624	2.401641	12.226027	0.505595	-7.055296	1.224537	-0.690918	-0.229736	-0.074463	0.681902	0.350964	-0.265710	0.584151
62809		13.675167	2.156782	12.314534	0.809059	-7.739719	1.035307	-0.699463	-0.220215	0.070312	0.641875	0.409098	-0.328941	0.558957
62810		23.455268	5.177101	10.123771	0.686023	-4.443373	0.371211	-0.694580	-0.208008	0.156494	0.616510	0.443399	-0.361164	0.541178
62811		17.884362	1.362486	-7.067461	0.660247	-2.138956	0.726372	-0.701660	-0.195312	0.199951	0.598034	0.459430	-0.377054	0.537690
62812		10.859127	-1.492535	-0.540396	0.654177	2.006061	0.439820	-0.706787	-0.182373	0.168945	0.600573	0.448551	-0.360070	0.555395
62813		1.867545	-2.057570	-1.345055	0.580758	3.453843	0.067952	-0.717773	-0.170410	0.097900	0.611824	0.428154	-0.330178	0.577355
62814		-2.263697	0.598068	-5.467649	0.485309	2.400144	-0.018895	-0.726074	-0.177002	0.060547	0.618991	0.414374	-0.308094	0.591796
62815		-3.425836	2.542226	-5.631697	-0.274129	0.023464	0.330944	-0.726807	-0.179199	0.069092	0.618052	0.410753	-0.311679	0.593422
62816		0.394301	3.616715	-0.743519	-1.286693	-1.548739	0.390928	-0.729248	-0.157471	0.090820	0.615531	0.410599	-0.335120	0.583288
62817		3.734222	1.455203	3.464841	-1.909046	-0.835095	-0.135474	-0.717285	-0.162598	0.096924	0.622619	0.402388	-0.354679	0.569765
62818		1.319283	-1.105345	2.082850	-1.323242	0.709499	-0.796401	-0.716553	-0.187744	0.069092	0.637962	0.390436	-0.354519	0.561142
62819		-1.871696	-1.871507	-2.796768	-0.220744	0.196476	-0.898426	-0.714600	-0.208740	0.068115	0.646179	0.391209	-0.350114	0.553921
62820		4.963946	0.560263	0.075543	0.100348	-0.642862	-0.340042	-0.704102	-0.210205	0.085449	0.645213	0.397900	-0.352959	0.548449
62821		30.409371	-1.237143	-6.000498	0.022546	1.464270	0.545544	-0.711182	-0.211426	0.047852	0.647708	0.385519	-0.343667	0.560127
62822		24.519909	-0.740054	14.298424	0.776081	6.515444	-1.181291	-0.693359	-0.225098	-0.072998	0.677950	0.349927	-0.278717	0.583312
62823		2.489703	1.984354	17.988607	-0.066734	6.502751	-1.932090	-0.655029	-0.260498	-0.198242	0.712508	0.307436	-0.214770	0.593034
62824		1.183466	7.149405	14.212835	-0.297082	3.447944	-0.665925	-0.635498	-0.267578	-0.247803	0.727148	0.280688	-0.183544	0.598983
62825		3.588646	3.556356	11.147763	-0.284629	1.154889	0.223557	-0.625488	-0.262207	-0.274170	0.729041	0.268867	-0.175968	0.604355
62826		4.835749	-1.075973	10.208690	0.025716	-0.105006	0.140691	-0.626953	-0.259033	-0.276367	0.727660	0.269541	-0.177225	0.605351
62827		3.214620	2.529351	12.050486	0.403803	-1.700686	-0.037765	-0.636230	-0.263428	-0.239502	0.722646	0.286053	-0.189489	0.600042
62828		1.599577	3.333336	14.198074	0.522969	-4.501647	0.690482	-0.672852	-0.255371	-0.156738	0.703760	0.322367	-0.228384	0.590459
62829		5.379148	0.713750	12.294124	0.788904	-7.595035	0.985559	-0.694580	-0.237549	-0.012207	0.668425	0.380913	-0.292199	0.568096
62830		19.327251	2.517058	13.412394	1.576295	-7.308055	0.292935	-0.693115	-0.232178	0.139648	0.629293	0.443095	-0.342116	0.539086
62831		23.343599	2.841721	1.311743	2.263847	-2.844246	-0.160537	-0.681641	-0.221191	0.207520	0.605048	0.480227	-0.347995	0.531223
62832		19.748559	5.846638	-4.371856	0.908106	-0.085754	0.838659	-0.691162	-0.202881	0.208252	0.593600	0.483905	-0.347620	0.540958
62833		5.484682	-0.444411	-0.602781	-0.387787	3.135349	-0.457675	-0.694580	-0.221436	0.154785	0.612201	0.461387	-0.323961	0.554420
62834		-1.891316	-2.076801	-2.002588	0.057181	2.985469	-0.947937	-0.690918	-0.234863	0.093262	0.630067	0.444576	-0.295035	0.564200
62835		-5.627456	-0.608806	-3.471012	0.111878	1.462173	-0.060034	-0.700928	-0.228516	0.067627	0.635165	0.435245	-0.282374	0.572183
62836		-3.140286	0.545393	-1.406569	0.033050	-0.441904	1.123758	-0.707520	-0.209717	0.079346	0.625324	0.434604	-0.291753	0.578765
62837		1.111725	2.509357	2.023196	-0.068860	-0.631909	0.993111	-0.715088	-0.190430	0.096436	0.616151	0.434922	-0.302579	0.582792
62838		2.012855	1.768107	2.437728	-0.430866	0.310273	0.227643	-0.719482	-0.189453	0.081299	0.618003	0.428425	-0.304581	0.584598
62839		-0.734422	-0.364283	-1.883016	-0.495774	0.519465	-0.205353	-0.702881	-0.185547	0.071777	0.624120	0.421516	-0.303098	0.583892
62840		-1.545916	-0.758574	-4.586689	-0.813089	-0.814061	0.243757	-0.712402	-0.192383	0.081055	0.623484	0.420100	-0.316656	0.578371
62841		6.532992	-2.241332	-3.725009	-1.177124	-1.812963	0.410207	-0.702637	-0.185059	0.113770	0.619298	0.422206	-0.341351	0.567179
62842		66.822234	-3.852547	-6.767849	-0.322905	4.299328	-1.012359	-0.702393	-0.208496	0.012939	0.645570	0.392871	-0.304542	0.579781
62843		-7.946516	9.573450	20.747783	-0.432284	11.702698	-3.001575	-0.656982	-0.263672	-0.199951	0.706379	0.311790	-0.195507	0.604642
62844		-3.765515	6.163043	16.475545	-1.646520	6.548832	-0.491726	-0.600586	-0.255615	-0.317627	0.729958	0.247887	-0.147614	0.619616
62845		-1.720498	-1.349793	18.402075	-1.423946	1.623120	0.069417	-0.590088	-0.246094	-0.353027	0.736559	0.222072	-0.144022	0.622433
62846		5.612361	1.605568	7.587340	0.515885	-0.097019	0.384453	-0.592529	-0.242432	-0.350098	0.731935	0.226829	-0.141984	0.626626
62847		6.298779	0.505861	7.156168	0.227122	-0.153856	-0.115858	-0.597412	-0.245850	-0.335693	0.731918	0.230269	-0.141304	0.625544
62848		4.667400	1.618460	9.015915	0.365216	-0.260997	-0.151689	-0.594971	-0.255127	-0.335449	0.731577	0.235869	-0.140421	0.624053
62849		5.287589	1.653400	8.219774	0.384198	-0.244060	-0.205479	-0.594238	-0.256348	-0.338379	0.731603	0.241596	-0.139071	0.622132
62850		5.114759	1.599677	7.921666	0.241522	-0.111497	-0.232465	-0.598877	-0.262451	-0.319824	0.732478	0.245028	-0.137533	0.620098
62851		4.558431	2.599201	7.538478	0.134990	0.034355	-0.200992	-0.592529	-0.265137	-0.334229	0.733676	0.246296	-0.135580	0.618608
62852		4.257919	3.154838	7.823525	-0.081033	0.109731	0.027639	-0.599121	-0.276367	-0.324219	0.733895	0.244612	-0.135309	0.619075
62853		5.180425	2.434137	8.104486	-0.193628	0.172106	0.141757	-0.592529	-0.260010	-0.325439	0.733674	0.241218	-0.135683	0.620585
62854		4.863850	1.287090	8.821155	-0.199339	0.199034	0.081629	-0.594971	-0.259521	-0.341553	0.733973	0.237663	-0.135671	0.621605
62855		4.606326	0.792224	8.666898	-0.039299	0.095706	0.014903	-0.593994	-0.261230	-0.346191	0.734134	0.236489	-0.135164	0.621974
62856		4.680566	1.602721	8.381679	0.042713	0.013363	-0.006810	-0.594482	-0.266113	-0.336914	0.734081	0.236743	-0.134712	0.622038
62857		4.767554	1.740629	8.339247	0.047206	-0.005549	-0.015356	-0.591309	-0.255371	-0.337646	0.734049	0.237200	-0.134373	0.621975
62858		4.773796	1.725642	8.346701	0.033043	-0.018174	-0.014220	-0.591553	-0.257568	-0.348145	0.734028	0.237623	-0.134263	0.621861
62859		4.763556	1.999844	8.210070	0.014766	-0.013770	-0.010101	-0.586914	-0.260010	-0.340088	0.734037	0.237836	-0.134267	0.621768
62860		4.808687	2.010030	8.183909	-0.030750	0.004446	0.012434	-0.590820	-0.261963	-0.340332	0.734037	0.237453	-0.134524	0.621859
62861		4.705496	1.768300	8.279914	-0.065243	0.019499	0.027209	-0.591064	-0.257568	-0.346680	0.734050	0.236612	-0.134955	0.622071
62862		4.714960	1.536437	8.418528	-0.066767	-0.001857	0.030662	-0.590576	-0.255371	-0.344727	0.734003	0.235917	-0.135603	0.622250
62863		4.778181	1.530843	8.443118	-0.014353	-0.033602	0.013881	-0.599365	-0.256104	-0.340820	0.733878	0.235977	-0.136086	0.622269
62864		4.874013	1.667106	8.363127	0.028797	-0.042698	-0.001875	-0.600342	-0.257812	-0.336914	0.733733	0.236531	-0.136270	0.622190
62865		4.895622	1.828713	8.266025	0.038193	-0.027301	-0.010966	-0.580811	-0.252197	-0.337646	0.733656	0.237066	-0.136213	0.622089
62866		4.806290	1.865551	8.267045	0.009463	-0.006424	-0.003135	-0.596680	-0.257812	-0.334473	0.733639	0.237162	-0.136211	0.622073
62867		4.797702	1.752738	8.309607	-0.009832	0.002491	0.006087	-0.595947	-0.255127	-0.345459	0.733623	0.236997	-0.136304	0.622135
62868		4.804656	1.671376	8.319007	-0.011112	0.000358	0.004742	-0.593750	-0.254395	-0.341553	0.733617	0.236838	-0.136423	0.622176
62869		4.819037	1.671782	8.335794	0.000254	-0.005004	0.001214	-0.590332	-0.255859	-0.341553	0.733596	0.236832	-0.136492	0.622188
62870		4.822119	1.715802	8.328542	0.006808	-0.007311	-0.003133	-0.591797	-0.267090	-0.337891	0.733585	0.236910	-0.136518	0.622165
62871		4.840703	1.733083	8.283108	0.011770	-0.005882	-0.005571	-0.591797	-0.255859	-0.337402	0.733581	0.237028	-0.136486	0.622132
62872		4.821372	1.748621	8.302619	0.009173	0.001095	-0.006133	-0.588867	-0.262207	-0.342529	0.733601	0.237068	-0.136408	0.622110
62873		4.807939	1.755280	8.301215	0.003022	0.001910	-0.004258	-0.587158	-0.260254	-0.339600	0.733626	0.237042	-0.136376	0.622098
62874		4.794263	1.730976	8.337585	-0.000163	0.003562	-0.003039	-0.591064	-0.260742	-0.340332	0.733654	0.236972	-0.136357	0.622096
62875		4.807751	1.706930	8.329104	-0.002690	0.002598	-0.001342	-0.587402	-0.257812	-0.333496	0.733674	0.236883	-0.136372	0.622102
62876		4.804107	1.712601	8.308669	-0.000878	0.002194	-0.001215	-0.594238	-0.259033	-0.337891	0.733687	0.236814	-0.136376	0.622112
62877		4.797203	1.735544	8.311638	0.000404	-0.000521	-0.002041	-0.593262	-0.257568	-0.338379	0.733699	0.236779	-0.136393	0.622108
62878		4.825114	1.714229	8.319453	0.004650	0.000510	-0.002220	-0.597412	-0.259521	-0.339844	0.733701	0.236776	-0.136367	0.622113
62879		4.802375	1.733912	8.318702	0.003809	-0.000781	-0.002089	-0.599365	-0.259521	-0.340332	0.733702	0.236774	-0.136360	0.622114
62880		4.811230	1.714144	8.302304	0.001373	0.000693	-0.000480	-0.595459	-0.254150	-0.335693	0.733700	0.236736	-0.136362	0.622130
62881		4.806643	1.724739	8.310448	0.001154	0.000271	-0.001217	-0.589355	-0.260498	-0.341553	0.733704	0.236700	-0.136369	0.622138
62882		4.800576	1.706900	8.306138	-0.000529	-0.002311	-0.000954	-0.589355	-0.260986	-0.339844	0.733707	0.236668	-0.136412	0.622137
62883		4.812304	1.721818	8.317500	0.001870	-0.000300	-0.003910	-0.590332	-0.254395	-0.337646	0.733729	0.236648	-0.136409	0.622120
62884		4.796395	1.718290	8.313882	0.001905	-0.001845	-0.001695	-0.593506	-0.264404	-0.345459	0.733730	0.236636	-0.136428	0.622118
62885		4.810447	1.735603	8.311751	0.000405	-0.001491	-0.002475	-0.603516	-0.256592	-0.337402	0.733743	0.236609	-0.136451	0.622108
62886		4.796564	1.703850	8.332394	-0.003220	0.001256	-0.001862	-0.590332	-0.252930	-0.335205	0.733767	0.236527	-0.136481	0.622105
62887		4.799347	1.727391	8.316045	-0.002908	0.001206	-0.002514	-0.588623	-0.257080	-0.342529	0.733794	0.236448	-0.136506	0.622097
62888		4.802255	1.735867	8.318364	-0.004373	0.000015	-0.001079	-0.591797	-0.260254	-0.339355	0.733813	0.236363	-0.136557	0.622096
62889		4.799850	1.732971	8.332004	-0.002470	0.001079	-0.001473	-0.589111	-0.250488	-0.331299	0.733831	0.236288	-0.136583	0.622097
62890		4.788115	1.717761	8.320706	-0.004778	0.000536	0.000961	-0.596680	-0.254639	-0.337891	0.733836	0.236191	-0.136638	0.622116
62891		4.814617	1.728908	8.320452	-0.003843	0.001356	-0.000560	-0.596191	-0.251465	-0.335693	0.733852	0.236100	-0.136675	0.622124
62892		4.782269	1.704211	8.332777	-0.007214	0.002009	0.002570	-0.593262	-0.258789	-0.332275	0.733854	0.235967	-0.136740	0.622158
62893		4.800318	1.708885	8.323273	-0.007836	0.001139	0.003439	-0.584961	-0.259766	-0.336182	0.733849	0.235834	-0.136821	0.622196
62894		4.788061	1.718405	8.338002	-0.007651	0.002137	0.001528	-0.597412	-0.256836	-0.340576	0.733861	0.235697	-0.136885	0.622219
62895		4.781731	1.713300	8.315593	-0.007489	0.000513	0.005434	-0.593750	-0.261230	-0.339355	0.733839	0.235568	-0.136975	0.622274
62896		4.793968	1.699694	8.301712	-0.007488	-0.000456	0.004999	-0.593506	-0.259766	-0.344238	0.733819	0.235447	-0.137072	0.622322
62897		4.806783	1.703727	8.347707	-0.006830	-0.001132	0.006343	-0.601562	-0.253418	-0.332031	0.733786	0.235335	-0.137174	0.622382
62898		4.785108	1.693849	8.321602	-0.010014	-0.001419	0.006692	-0.596436	-0.253662	-0.339844	0.733757	0.235196	-0.137305	0.622439
62899		4.802473	1.687022	8.359507	-0.008952	-0.000676	0.006864	-0.584229	-0.264160	-0.339600	0.733726	0.235060	-0.137421	0.622501
62900		4.796742	1.681696	8.336791	-0.005456	-0.001408	0.005428	-0.596436	-0.256836	-0.347656	0.733696	0.234965	-0.137512	0.622553
62901		4.797519	1.680499	8.336585	-0.000241	-0.004014	0.004641	-0.591064	-0.253418	-0.333496	0.733651	0.234938	-0.137584	0.622600
62902		4.807425	1.660101	8.319665	0.004407	-0.004475	0.001989	-0.599609	-0.255615	-0.343506	0.733612	0.234962	-0.137616	0.622630
62903		4.801840	1.683755	8.321782	0.006219	-0.004881	0.002117	-0.583984	-0.251953	-0.345215	0.733566	0.235006	-0.137638	0.622662
62904		4.811729	1.690392	8.330179	0.006750	-0.008387	0.000464	-0.589355	-0.251709	-0.337891	0.733526	0.235085	-0.137683	0.622670
62905		4.812275	1.670259	8.332202	0.006715	-0.005871	-0.001314	-0.595703	-0.258545	-0.339355	0.733504	0.235147	-0.137701	0.622669
62906		4.802672	1.679330	8.316470	0.009022	-0.005328	-0.003747	-0.596191	-0.256104	-0.341064	0.733494	0.235230	-0.137688	0.622651
62907		4.799475	1.691881	8.323440	0.010339	-0.007649	-0.001495	-0.594238	-0.261230	-0.332764	0.733460	0.235339	-0.137692	0.622650
62908		4.813834	1.689434	8.323425	0.010120	-0.007100	-0.001799	-0.588623	-0.254639	-0.340820	0.733429	0.235443	-0.137693	0.622647
62909		4.806431	1.686223	8.312903	0.008272	-0.004179	-0.003706	-0.598145	-0.252686	-0.341064	0.733424	0.235510	-0.137675	0.622631
62910		4.798266	1.693937	8.347059	0.008273	-0.004179	-0.003706	-0.589844	-0.261230	-0.339600	0.733419	0.235577	-0.137657	0.622616
62911		4.798196	1.689512	8.330608	0.009024	-0.005325	-0.003752	-0.591553	-0.252197	-0.339600	0.733410	0.235660	-0.137644	0.622599
62912		4.811960	1.702179	8.312183	0.011367	-0.004388	-0.003107	-0.594971	-0.255127	-0.340820	0.733390	0.235755	-0.137605	0.622594
62913		4.816985	1.694063	8.303261	0.005400	-0.002577	-0.003138	-0.589600	-0.257812	-0.341064	0.733392	0.235782	-0.137597	0.622584
62914		4.805528	1.692399	8.335520	0.007524	-0.004000	-0.004098	-0.604492	-0.253418	-0.337646	0.733392	0.235841	-0.137581	0.622564
62915		4.808284	1.697547	8.321201	0.012796	-0.003590	-0.007628	-0.587646	-0.260498	-0.342529	0.733405	0.235952	-0.137512	0.622523
62916		4.803172	1.703813	8.313144	0.006114	-0.001208	-0.004965	-0.591553	-0.256104	-0.346191	0.733421	0.235977	-0.137479	0.622501
62917		4.810501	1.689507	8.325578	0.004484	0.001161	-0.006568	-0.592773	-0.255859	-0.344482	0.733459	0.235972	-0.137432	0.622469
62918		4.782178	1.698562	8.336208	0.006206	-0.000710	-0.005921	-0.596191	-0.256348	-0.345215	0.733483	0.235996	-0.137391	0.622441
62919		4.802666	1.709532	8.312263	0.007398	-0.001981	-0.004926	-0.597412	-0.254395	-0.336182	0.733493	0.236039	-0.137356	0.622420
62920		4.811401	1.716475	8.321241	0.001997	-0.002316	-0.003088	-0.594727	-0.250977	-0.343750	0.733504	0.236033	-0.137372	0.622406
62921		4.796393	1.719640	8.333163	0.001776	0.000171	-0.002523	-0.598145	-0.260254	-0.338623	0.733517	0.236003	-0.137367	0.622404
62922		4.812822	1.683897	8.329415	0.002839	-0.001025	-0.003221	-0.601318	-0.253418	-0.336670	0.733529	0.235995	-0.137363	0.622393
62923		4.794650	1.692889	8.320556	0.001154	-0.000698	-0.001653	-0.597900	-0.254395	-0.348389	0.733534	0.235966	-0.137375	0.622395
62924		4.792398	1.690931	8.333943	0.000402	0.000448	-0.001608	-0.596191	-0.253418	-0.348877	0.733544	0.235920	-0.137381	0.622400
62925		4.794801	1.694034	8.320236	0.004343	-0.003316	-0.003311	-0.588867	-0.260010	-0.336914	0.733549	0.235941	-0.137386	0.622385
62926		4.796273	1.702171	8.335119	0.005405	-0.003542	-0.003575	-0.591553	-0.255615	-0.335938	0.733552	0.235977	-0.137383	0.622368
62927		4.811949	1.701468	8.322304	0.006998	-0.003396	-0.003755	-0.589111	-0.239746	-0.339355	0.733553	0.236025	-0.137367	0.622353
62928		4.812598	1.703870	8.321438	0.010058	-0.004968	-0.006674	-0.589111	-0.250244	-0.340332	0.733564	0.236118	-0.137333	0.622312
62929		4.801154	1.718549	8.334651	0.013023	-0.003157	-0.006904	-0.595703	-0.254395	-0.344727	0.733571	0.236225	-0.137258	0.622279
62930		4.794810	1.697592	8.313812	0.016472	-0.006893	-0.005612	-0.584961	-0.261475	-0.342285	0.733552	0.236390	-0.137194	0.622253
62931		4.821949	1.707949	8.295838	0.022503	-0.009561	-0.010066	-0.595947	-0.255127	-0.333008	0.733545	0.236640	-0.137094	0.622188
62932		4.817593	1.743285	8.312080	0.021753	-0.008413	-0.010026	-0.589844	-0.258789	-0.336914	0.733542	0.236873	-0.136990	0.622126
62933		4.805776	1.753134	8.309070	0.016971	-0.005942	-0.008189	-0.599365	-0.257568	-0.334473	0.733543	0.237040	-0.136905	0.622080
62934		4.795894	1.734362	8.330673	0.011656	-0.003845	-0.006433	-0.589844	-0.256348	-0.354248	0.733549	0.237139	-0.136848	0.622047
62935		4.768229	1.758745	8.321988	0.005939	-0.002195	-0.003065	-0.600586	-0.253662	-0.342041	0.733550	0.237166	-0.136830	0.622041
62936		4.800318	1.705433	8.324806	-0.001553	-0.001687	0.002400	-0.594727	-0.255615	-0.335449	0.733530	0.237112	-0.136882	0.622073
62937		4.834847	1.716083	8.317892	0.000973	-0.000721	0.000692	-0.589355	-0.251709	-0.335205	0.733518	0.237076	-0.136900	0.622096
62938		4.821058	1.713963	8.301109	-0.002474	0.000100	-0.001900	-0.591064	-0.252441	-0.336670	0.733538	0.237007	-0.136930	0.622093
62939		4.811328	1.712544	8.320700	-0.002124	-0.000520	0.000098	-0.603027	-0.258301	-0.339600	0.733541	0.236942	-0.136969	0.622106
62940		4.813588	1.714988	8.307177	0.002748	-0.000551	-0.001837	-0.594727	-0.257080	-0.339355	0.733544	0.236926	-0.136964	0.622110
62941		4.811439	1.713776	8.320383	0.004434	-0.000876	-0.003408	-0.589844	-0.267334	-0.331543	0.733553	0.236930	-0.136944	0.622101
62942		4.798605	1.720010	8.318725	0.006249	-0.001275	-0.003286	-0.587158	-0.262695	-0.337891	0.733556	0.236954	-0.136914	0.622096
62943		4.804012	1.718381	8.325689	0.007621	-0.000580	-0.003772	-0.591553	-0.261719	-0.335449	0.733560	0.236985	-0.136865	0.622090
62944		4.804900	1.741942	8.321923	0.007312	-0.001499	-0.003553	-0.587158	-0.251709	-0.335449	0.733561	0.237021	-0.136828	0.622083
62945		4.793582	1.728562	8.310105	0.001598	-0.001792	-0.001047	-0.588867	-0.258301	-0.339600	0.733559	0.237002	-0.136846	0.622088
62946		4.799222	1.725688	8.317193	0.001780	-0.001769	-0.003395	-0.591553	-0.260254	-0.331787	0.733576	0.236988	-0.136854	0.622073
62947		4.807897	1.732118	8.326287	0.003062	-0.001571	-0.002924	-0.592041	-0.253418	-0.335449	0.733584	0.236984	-0.136853	0.622064
62948		4.815671	1.731937	8.319865	0.003814	-0.001744	-0.002536	-0.595459	-0.251221	-0.337402	0.733587	0.236987	-0.136848	0.622060
62949		4.810510	1.736376	8.312172	0.002970	-0.001097	-0.001534	-0.595947	-0.252441	-0.339600	0.733586	0.236975	-0.136847	0.622066
62950		4.807769	1.728120	8.309783	0.002664	-0.002986	-0.001746	-0.590820	-0.259521	-0.334229	0.733584	0.236976	-0.136865	0.622064
62951		4.815776	1.727863	8.303240	0.005007	-0.002041	-0.001108	-0.594727	-0.258545	-0.338135	0.733573	0.236990	-0.136858	0.622074
62952		4.797286	1.715494	8.297337	0.002888	-0.004502	-0.001875	-0.595215	-0.250732	-0.340332	0.733569	0.237005	-0.136887	0.622067
62953		4.809553	1.716071	8.327043	0.002662	-0.002016	-0.001314	-0.586426	-0.261230	-0.346924	0.733565	0.236997	-0.136897	0.622072
62954		4.808888	1.710119	8.311257	0.003282	-0.001147	-0.002188	-0.587891	-0.257812	-0.335938	0.733569	0.236990	-0.136891	0.622071
62955		4.807099	1.723633	8.305414	0.004171	-0.004303	-0.001404	-0.589844	-0.253174	-0.335938	0.733559	0.237014	-0.136910	0.622071
62956		4.808949	1.720246	8.275913	0.004348	-0.002341	-0.002887	-0.593262	-0.259277	-0.338379	0.733562	0.237027	-0.136905	0.622063
62957		4.793058	1.728268	8.316508	0.003636	-0.002735	-0.000623	-0.588623	-0.260742	-0.340576	0.733549	0.237033	-0.136915	0.622073
62958		4.802006	1.734587	8.325461	0.001472	-0.002689	-0.003175	-0.600342	-0.256592	-0.343750	0.733564	0.237022	-0.136934	0.622056
62959		4.811320	1.714877	8.308869	0.003726	-0.002239	-0.001581	-0.591309	-0.250488	-0.326660	0.733558	0.237026	-0.136937	0.622060
62960		4.794393	1.716106	8.334075	0.005447	-0.001192	0.000362	-0.596924	-0.259521	-0.337646	0.733535	0.237035	-0.136923	0.622087
62961		4.797666	1.741233	8.316829	0.004971	-0.002442	-0.004196	-0.596436	-0.263916	-0.331055	0.733547	0.237057	-0.136910	0.622068
62962		4.810284	1.716083	8.320953	0.003547	-0.003230	0.000334	-0.598877	-0.256836	-0.340088	0.733526	0.237065	-0.136928	0.622086
62963		4.803147	1.733053	8.307709	0.004348	-0.002340	-0.002889	-0.594727	-0.252930	-0.345703	0.733529	0.237078	-0.136923	0.622078
62964		4.798068	1.722691	8.318859	0.002657	-0.000075	-0.000450	-0.595947	-0.260010	-0.346924	0.733523	0.237052	-0.136917	0.622097
62965		4.803551	1.719976	8.326015	0.003724	-0.001268	-0.001150	-0.594727	-0.264648	-0.345703	0.733516	0.237047	-0.136911	0.622107
62966		4.803802	1.720839	8.325691	0.003193	-0.001642	-0.001232	-0.591309	-0.259033	-0.333252	0.733512	0.237041	-0.136912	0.622115
62967		4.814678	1.729588	8.321283	0.004035	-0.001319	-0.001804	-0.592041	-0.255371	-0.336670	0.733510	0.237041	-0.136903	0.622119
62968		4.810332	1.740859	8.329098	0.003061	-0.000600	-0.002495	-0.587891	-0.258057	-0.341064	0.733517	0.237028	-0.136892	0.622118
62969		4.811941	1.722408	8.318688	0.002225	-0.002862	-0.002788	-0.593994	-0.248535	-0.331543	0.733526	0.237024	-0.136908	0.622105
62970		4.803891	1.717588	8.308912	0.002663	-0.002014	-0.001316	-0.597656	-0.264160	-0.341553	0.733523	0.237016	-0.136917	0.622111
62971		4.804244	1.718371	8.308546	0.002974	-0.002065	-0.001970	-0.585693	-0.260742	-0.335938	0.733524	0.237013	-0.136922	0.622110
62972		4.787294	1.734331	8.314885	0.004260	-0.002835	-0.001932	-0.598877	-0.260498	-0.337891	0.733520	0.237027	-0.136923	0.622108
62973		4.824418	1.719012	8.331712	0.002977	-0.003035	-0.002402	-0.593506	-0.262207	-0.336426	0.733523	0.237031	-0.136936	0.622101
62974		4.807895	1.723600	8.293607	0.004702	-0.002956	-0.000892	-0.593262	-0.257080	-0.338867	0.733509	0.237049	-0.136938	0.622110
62975		4.788801	1.737214	8.313415	0.002883	-0.001590	-0.000580	-0.597900	-0.260010	-0.331299	0.733500	0.237038	-0.136943	0.622123
62976		4.798924	1.724282	8.312375	0.003505	-0.001691	-0.001888	-0.588867	-0.263428	-0.336670	0.733499	0.237036	-0.136941	0.622125
62977		4.815338	1.714612	8.334196	0.001159	-0.001668	-0.002090	-0.596191	-0.265381	-0.339600	0.733508	0.237013	-0.136955	0.622121
62978		4.806910	1.724367	8.305762	0.002219	-0.000922	-0.001925	-0.595703	-0.257812	-0.343262	0.733513	0.236993	-0.136954	0.622122
62979		4.801794	1.713636	8.317037	0.001597	-0.000820	-0.000617	-0.590332	-0.260498	-0.341309	0.733510	0.236964	-0.136962	0.622135
62980		4.796453	1.717820	8.309489	0.003591	-0.000226	-0.002415	-0.593262	-0.256836	-0.338379	0.733517	0.236952	-0.136943	0.622137
62981		4.786848	1.717689	8.328799	0.002442	-0.001468	-0.001621	-0.592529	-0.260986	-0.339111	0.733518	0.236937	-0.136947	0.622140
62982		4.809748	1.714846	8.310211	0.003286	-0.002115	-0.002625	-0.598633	-0.256348	-0.330566	0.733523	0.236937	-0.136947	0.622133
62983		4.808017	1.713637	8.323214	0.004922	-0.002530	-0.000157	-0.588623	-0.254150	-0.337891	0.733503	0.236952	-0.136947	0.622152
62984		4.800725	1.730604	8.310021	0.003506	-0.001691	-0.001889	-0.593506	-0.259766	-0.343262	0.733503	0.236949	-0.136944	0.622154
62985		4.783114	1.725015	8.319675	0.004176	-0.004298	-0.001408	-0.589844	-0.254883	-0.339600	0.733493	0.236972	-0.136960	0.622154
62986		4.810642	1.723742	8.337010	0.005859	-0.003652	-0.002553	-0.591064	-0.262451	-0.338867	0.733487	0.237007	-0.136955	0.622148
62987		4.818676	1.723735	8.330385	0.003948	-0.001812	-0.000849	-0.593994	-0.258301	-0.339844	0.733478	0.237007	-0.136952	0.622159
62988		4.805454	1.722653	8.313059	0.004710	-0.004894	-0.001758	-0.598145	-0.256836	-0.333252	0.733467	0.237040	-0.136969	0.622155
62989		4.796938	1.722855	8.331687	0.005820	-0.006652	0.000195	-0.595459	-0.258545	-0.338867	0.733435	0.237094	-0.136999	0.622166
62990		4.806158	1.723049	8.324333	0.007866	-0.009532	-0.000247	-0.590820	-0.252930	-0.325195	0.733395	0.237190	-0.137039	0.622168
62991		4.815527	1.723575	8.316819	0.008705	-0.008239	-0.000389	-0.586670	-0.263916	-0.338135	0.733356	0.237284	-0.137060	0.622173
62992		4.811821	1.728649	8.308130	0.006358	-0.008217	-0.000589	-0.600098	-0.254639	-0.339844	0.733328	0.237356	-0.137097	0.622172
62993		4.800149	1.734550	8.305869	0.004178	-0.004296	-0.001411	-0.589355	-0.258301	-0.335938	0.733316	0.237378	-0.137114	0.622172
62994		4.816959	1.739700	8.308499	0.002050	-0.003850	-0.000874	-0.591309	-0.255615	-0.338867	0.733309	0.237377	-0.137144	0.622175
62995		4.826132	1.719396	8.292144	-0.000665	0.000666	-0.001345	-0.595703	-0.260498	-0.339355	0.733321	0.237316	-0.137153	0.622182
62996		4.807372	1.739101	8.327934	-0.000354	0.000615	-0.001999	-0.595703	-0.264648	-0.344238	0.733337	0.237260	-0.137157	0.622183
62997		4.813827	1.716417	8.325419	-0.001330	0.001332	-0.002689	-0.590332	-0.253906	-0.330566	0.733364	0.237191	-0.137161	0.622178
62998		4.805666	1.732368	8.312908	-0.000891	0.002182	-0.001217	-0.600342	-0.261475	-0.340088	0.733378	0.237116	-0.137158	0.622190
62999		4.810558	1.728612	8.320637	-0.002577	0.002506	0.000361	-0.595947	-0.250488	-0.334717	0.733385	0.237021	-0.137169	0.622215
63000		4.796017	1.711586	8.323296	-0.000410	0.005060	-0.002926	-0.598389	-0.256592	-0.341064	0.733415	0.236932	-0.137131	0.622222
63001		4.810870	1.745443	8.289284	-0.001421	0.001808	-0.001299	-0.585205	-0.263184	-0.340576	0.733430	0.236855	-0.137135	0.622233
63002		4.817197	1.707751	8.305870	-0.001428	0.003748	-0.000436	-0.593506	-0.260010	-0.334717	0.733444	0.236762	-0.137123	0.622254
63003		4.815084	1.727194	8.316324	0.000792	0.002827	-0.002363	-0.583252	-0.259033	-0.343994	0.733464	0.236700	-0.137098	0.622260
63004		4.800468	1.725677	8.299895	0.001944	0.003099	-0.003591	-0.595947	-0.263428	-0.341797	0.733491	0.236648	-0.137056	0.622257
63005		4.805374	1.708292	8.326354	0.002079	0.002059	-0.002328	-0.596191	-0.259277	-0.341064	0.733506	0.236603	-0.137027	0.622264
63006		4.797422	1.710358	8.332512	0.002174	0.000614	-0.004150	-0.586670	-0.256836	-0.338623	0.733531	0.236574	-0.137005	0.622250
63007		4.799367	1.713402	8.318990	0.001556	-0.000255	-0.003273	-0.595947	-0.258057	-0.334473	0.733550	0.236544	-0.136999	0.622240
63008		4.799822	1.735635	8.315603	0.001107	0.001806	-0.003450	-0.598389	-0.262451	-0.339844	0.733575	0.236495	-0.136977	0.622234
63009		4.791266	1.715603	8.325204	-0.000972	-0.000253	-0.001122	-0.590820	-0.254883	-0.346436	0.733585	0.236438	-0.136996	0.622240
63010		4.806285	1.713568	8.312971	0.002839	-0.000052	-0.002805	-0.591309	-0.266602	-0.334961	0.733597	0.236417	-0.136979	0.622238
63011		4.780618	1.709146	8.329056	0.003285	-0.001143	-0.002196	-0.592285	-0.251709	-0.344971	0.733602	0.236409	-0.136970	0.622237
63012		4.789846	1.737123	8.334813	0.001775	0.000170	-0.002537	-0.588867	-0.259277	-0.334473	0.733615	0.236375	-0.136960	0.622237
63013		4.793490	1.705784	8.330110	0.000403	-0.000527	-0.002046	-0.594971	-0.261719	-0.340332	0.733627	0.236335	-0.136968	0.622235
63014		4.794110	1.727635	8.326698	0.000177	0.000989	-0.001919	-0.595947	-0.250244	-0.348389	0.733642	0.236281	-0.136965	0.622239
63015		4.792941	1.721130	8.311323	0.000711	0.000393	-0.002269	-0.592529	-0.250000	-0.338135	0.733656	0.236235	-0.136962	0.622241
63016		4.798257	1.718099	8.318662	0.001376	-0.000273	-0.000923	-0.590332	-0.262451	-0.349854	0.733656	0.236199	-0.136964	0.622253
63017		4.781563	1.692704	8.318680	0.002221	-0.000920	-0.001928	-0.589111	-0.259766	-0.335205	0.733663	0.236177	-0.136961	0.622254
63018		4.798722	1.704788	8.337081	0.003289	-0.002112	-0.002628	-0.592773	-0.253418	-0.337402	0.733669	0.236177	-0.136960	0.622247
63019		4.783772	1.722859	8.330024	0.003197	-0.001636	-0.001238	-0.583252	-0.264648	-0.338135	0.733665	0.236169	-0.136959	0.622256
63020		4.809881	1.714459	8.332270	0.004039	-0.001313	-0.001811	-0.590088	-0.266846	-0.342773	0.733665	0.236167	-0.136946	0.622259
63021		4.783492	1.703322	8.332777	0.003820	-0.001738	-0.002547	-0.593262	-0.260498	-0.343750	0.733671	0.236168	-0.136937	0.622253
63022		4.792062	1.724691	8.322868	0.003290	-0.002112	-0.002629	-0.587402	-0.258545	-0.340332	0.733677	0.236167	-0.136935	0.622247
63023		4.794697	1.713106	8.327913	0.003198	-0.001636	-0.001238	-0.595703	-0.258789	-0.333984	0.733674	0.236159	-0.136934	0.622254
63024		4.800083	1.710623	8.335103	0.004119	0.001122	-0.001909	-0.603027	-0.262695	-0.339844	0.733677	0.236140	-0.136899	0.622266
63025		4.805202	1.722900	8.323443	0.003286	-0.001142	-0.002198	-0.584473	-0.257324	-0.344482	0.733680	0.236132	-0.136889	0.622267
63026		4.788404	1.712320	8.304533	0.001599	-0.000818	-0.000619	-0.590088	-0.258057	-0.342285	0.733679	0.236101	-0.136894	0.622280
63027		4.797014	1.704028	8.332631	0.003900	0.000697	-0.002645	-0.596191	-0.254639	-0.339600	0.733688	0.236083	-0.136862	0.622282
63028		4.788143	1.714019	8.304333	0.002748	0.000425	-0.001417	-0.595215	-0.261963	-0.342529	0.733689	0.236056	-0.136845	0.622295
63029		4.807357	1.713290	8.328363	0.001065	-0.000222	-0.000269	-0.590576	-0.250244	-0.330811	0.733687	0.236016	-0.136850	0.622312
63030		4.797318	1.727124	8.329113	-0.000669	0.001635	-0.000914	-0.588135	-0.259766	-0.339111	0.733696	0.235947	-0.136851	0.622327
63031		4.784245	1.716948	8.346927	-0.001511	0.001312	-0.000341	-0.595703	-0.260498	-0.348145	0.733705	0.235871	-0.136861	0.622343
63032		4.798840	1.714160	8.335091	-0.003152	0.002693	-0.002377	-0.588623	-0.256592	-0.330322	0.733736	0.235773	-0.136866	0.622342
63033		4.795961	1.726394	8.330046	-0.001423	0.001806	-0.001301	-0.593750	-0.263184	-0.346680	0.733752	0.235697	-0.136869	0.622352
63034		4.787957	1.727500	8.336428	-0.001864	0.001926	-0.002342	-0.591309	-0.252686	-0.345703	0.733779	0.235616	-0.136870	0.622350
63035		4.782839	1.690035	8.322695	-0.000135	0.001039	-0.001265	-0.593262	-0.250977	-0.336426	0.733789	0.235556	-0.136870	0.622361
63036		4.797385	1.713982	8.335966	0.001288	-0.000767	0.000036	-0.591309	-0.261475	-0.343262	0.733781	0.235522	-0.136880	0.622381
63037		4.779336	1.707678	8.346059	0.000404	-0.000527	-0.002046	-0.592529	-0.256592	-0.336914	0.733795	0.235481	-0.136887	0.622380
63038		4.779107	1.722618	8.327147	-0.000130	0.000069	-0.001696	-0.594238	-0.256104	-0.343994	0.733807	0.235430	-0.136895	0.622383
63039		4.787117	1.706779	8.339765	0.000144	-0.002980	0.000402	-0.590820	-0.264160	-0.338379	0.733796	0.235402	-0.136934	0.622397
63040		4.778030	1.694347	8.314797	0.000311	-0.000051	-0.000655	-0.590820	-0.256592	-0.341797	0.733800	0.235354	-0.136941	0.622408
63041		4.780116	1.708611	8.345422	0.004175	-0.002351	-0.000547	-0.594238	-0.257812	-0.344971	0.733787	0.235359	-0.136941	0.622422
63042		4.785144	1.699011	8.336908	0.002492	-0.002998	0.000600	-0.583008	-0.246338	-0.339355	0.733769	0.235352	-0.136962	0.622442
63043		4.781017	1.710195	8.344581	0.004440	-0.000868	-0.003427	-0.599609	-0.263916	-0.342529	0.733779	0.235352	-0.136937	0.622435
63044		4.788775	1.710349	8.338081	0.006081	-0.002248	-0.001391	-0.596680	-0.253906	-0.337891	0.733767	0.235376	-0.136918	0.622445
63045		4.777353	1.712005	8.307368	0.007765	-0.001601	-0.002539	-0.591553	-0.259766	-0.343506	0.733759	0.235412	-0.136877	0.622450
63046		4.787245	1.711498	8.350518	0.004668	-0.002383	-0.003554	-0.590820	-0.254639	-0.338135	0.733768	0.235427	-0.136864	0.622436
63047		4.776286	1.698156	8.338616	0.004808	-0.004392	-0.002721	-0.592529	-0.247070	-0.339111	0.733766	0.235458	-0.136870	0.622425
63048		4.792698	1.703971	8.341342	0.004751	-0.000918	-0.004084	-0.588867	-0.256104	-0.349121	0.733779	0.235463	-0.136842	0.622414
63049		4.800692	1.704254	8.334677	0.006315	-0.004732	-0.001950	-0.593750	-0.252441	-0.343750	0.733767	0.235508	-0.136841	0.622412
63050		4.802514	1.712558	8.349300	0.005251	-0.004510	-0.001681	-0.591553	-0.265381	-0.340576	0.733755	0.235541	-0.136849	0.622412
63051		4.780690	1.705926	8.322699	0.004352	-0.001361	-0.002470	-0.593506	-0.255859	-0.339111	0.733760	0.235544	-0.136831	0.622409
63052		4.771189	1.720750	8.322917	0.003739	-0.003200	-0.002022	-0.590088	-0.257812	-0.341797	0.733757	0.235555	-0.136837	0.622407
63053		4.779740	1.705946	8.335045	0.005164	-0.005003	-0.000721	-0.585693	-0.257324	-0.349121	0.733738	0.235590	-0.136852	0.622412
63054		4.792297	1.721723	8.345517	0.003880	-0.005208	-0.001188	-0.587158	-0.252686	-0.341553	0.733728	0.235614	-0.136877	0.622410
63055		4.798678	1.707796	8.307940	0.004800	-0.002450	-0.001862	-0.596191	-0.261475	-0.338623	0.733723	0.235627	-0.136868	0.622413
63056		4.789613	1.707838	8.326967	0.003341	-0.003642	-0.000407	-0.596191	-0.255615	-0.349121	0.733709	0.235636	-0.136885	0.622423
63057		4.791159	1.715841	8.341810	0.005865	-0.002670	-0.002132	-0.591553	-0.258789	-0.347168	0.733702	0.235660	-0.136869	0.622425
63058		4.801759	1.703086	8.340541	0.003385	-0.004202	0.002250	-0.590332	-0.260254	-0.343506	0.733667	0.235667	-0.136899	0.622457
63059		4.781143	1.702586	8.329371	0.002806	-0.003046	-0.000057	-0.595459	-0.257812	-0.341309	0.733654	0.235664	-0.136916	0.622470
63060		4.779661	1.701007	8.342361	0.002806	-0.003045	-0.000057	-0.593750	-0.251221	-0.345703	0.733639	0.235661	-0.136933	0.622484
63061		4.788034	1.700164	8.335700	0.000909	-0.005089	-0.000073	-0.589844	-0.262695	-0.342041	0.733626	0.235656	-0.136984	0.622490
63062		4.789215	1.700407	8.334972	0.002330	-0.005921	0.001658	-0.589111	-0.246826	-0.341553	0.733597	0.235669	-0.137036	0.622509
63063		4.816083	1.705880	8.317885	0.000068	-0.005412	0.000502	-0.589600	-0.260986	-0.340332	0.733581	0.235657	-0.137098	0.622518
63064		4.791479	1.700362	8.333680	-0.000028	-0.003965	0.002324	-0.591309	-0.260498	-0.348877	0.733556	0.235632	-0.137153	0.622545
63065		4.799813	1.699264	8.327085	0.001614	-0.003727	-0.001914	-0.589844	-0.255127	-0.335938	0.733561	0.235625	-0.137179	0.622536
63066		4.787688	1.689552	8.344339	-0.000521	-0.002315	-0.000942	-0.588867	-0.250732	-0.347168	0.733564	0.235588	-0.137213	0.622539
63067		4.795728	1.703185	8.318836	0.001975	-0.005309	-0.000345	-0.592529	-0.253662	-0.333740	0.733550	0.235595	-0.137257	0.622543
63068		4.794612	1.701549	8.331635	0.003255	-0.004133	0.000551	-0.599365	-0.253906	-0.337891	0.733527	0.235604	-0.137282	0.622561
63069		4.787856	1.703589	8.337133	0.004183	-0.003317	-0.000986	-0.596436	-0.257812	-0.337402	0.733514	0.235618	-0.137289	0.622570
63070		4.796808	1.725050	8.326871	0.004809	-0.004389	-0.002729	-0.590332	-0.256592	-0.345459	0.733512	0.235650	-0.137295	0.622559
63071		4.794767	1.702420	8.343196	0.002679	-0.003948	-0.002186	-0.586426	-0.253418	-0.337158	0.733514	0.235655	-0.137315	0.622550
63072		4.792330	1.694251	8.340720	0.003959	-0.002772	-0.001291	-0.591797	-0.249756	-0.337646	0.733507	0.235663	-0.137317	0.622555
63073		4.788033	1.720185	8.329388	0.003292	-0.002109	-0.002637	-0.594238	-0.259521	-0.335938	0.733511	0.235662	-0.137314	0.622551
63074		4.787751	1.699672	8.332450	0.003297	-0.003080	-0.003068	-0.598633	-0.254639	-0.344971	0.733519	0.235670	-0.137319	0.622537
63075		4.793352	1.711984	8.320423	0.004046	-0.002278	-0.002253	-0.589844	-0.256592	-0.343750	0.733519	0.235676	-0.137313	0.622537
63076		4.781198	1.702975	8.337579	0.003873	-0.003264	-0.000331	-0.590088	-0.251465	-0.344971	0.733504	0.235684	-0.137322	0.622549
63077		4.797015	1.701459	8.324722	0.003970	-0.004711	-0.002154	-0.594727	-0.254883	-0.343018	0.733500	0.235707	-0.137339	0.622542
63078		4.791363	1.710663	8.345505	0.004633	-0.004403	-0.000379	-0.588867	-0.257812	-0.337402	0.733480	0.235732	-0.137353	0.622553
63079		4.796738	1.701489	8.336712	0.005699	-0.004623	-0.000651	-0.589111	-0.251221	-0.339844	0.733460	0.235769	-0.137360	0.622560
63080		4.789933	1.703728	8.342208	0.002895	-0.002550	-0.001021	-0.587891	-0.256104	-0.338867	0.733453	0.235765	-0.137369	0.622568
63081		4.792857	1.706614	8.328094	0.004461	-0.005387	0.001542	-0.592041	-0.262207	-0.343750	0.733419	0.235792	-0.137399	0.622592
63082		4.802859	1.686970	8.311202	0.006143	-0.004740	0.000388	-0.594727	-0.251221	-0.338135	0.733390	0.235832	-0.137407	0.622608
63083		4.803816	1.699768	8.354640	0.004109	-0.005747	-0.000890	-0.588623	-0.260986	-0.342285	0.733373	0.235864	-0.137436	0.622611
63084		4.811002	1.707134	8.313459	0.003655	-0.003689	-0.001069	-0.594971	-0.255127	-0.336426	0.733365	0.235875	-0.137449	0.622613
63085		4.805173	1.716374	8.334346	0.005251	-0.003534	-0.001263	-0.595459	-0.260010	-0.339844	0.733351	0.235901	-0.137448	0.622619
63086		4.794332	1.702812	8.322485	0.004721	-0.003909	-0.001342	-0.590820	-0.258789	-0.343018	0.733341	0.235925	-0.137454	0.622621
63087		4.794899	1.703940	8.321928	0.004047	-0.002278	-0.002256	-0.596436	-0.256348	-0.339600	0.733343	0.235931	-0.137447	0.622618
63088		4.805201	1.691294	8.320817	0.003517	-0.002653	-0.002336	-0.591797	-0.260010	-0.345947	0.733345	0.235935	-0.137448	0.622614
63089		4.799048	1.700355	8.341933	0.002227	-0.001889	-0.002368	-0.588379	-0.258545	-0.342773	0.733354	0.235921	-0.137451	0.622608
63090		4.818758	1.688246	8.321401	0.002666	-0.001035	-0.000897	-0.591797	-0.263428	-0.338867	0.733352	0.235902	-0.137448	0.622618
63091		4.793980	1.705198	8.334051	0.002532	-0.000970	-0.002594	-0.593262	-0.257568	-0.336670	0.733364	0.235885	-0.137440	0.622612
63092		4.812018	1.712713	8.323567	0.003368	0.000324	-0.002741	-0.593018	-0.251465	-0.343262	0.733375	0.235867	-0.137414	0.622611
63093		4.808084	1.683206	8.325100	0.003679	0.000273	-0.003397	-0.588867	-0.264648	-0.344971	0.733389	0.235851	-0.137384	0.622608
63094		4.800890	1.707167	8.327625	0.002785	0.001477	-0.005047	-0.596680	-0.251953	-0.335938	0.733425	0.235820	-0.137344	0.622586
63095		4.799464	1.701272	8.312273	0.002388	0.001036	-0.003430	-0.594971	-0.258301	-0.341553	0.733443	0.235788	-0.137317	0.622582
63096		4.785065	1.711849	8.339863	0.004739	0.001024	-0.003240	-0.585938	-0.257324	-0.342773	0.733456	0.235777	-0.137272	0.622582
63097		4.791274	1.704784	8.318313	0.002833	0.000920	-0.002390	-0.595703	-0.254395	-0.343994	0.733468	0.235747	-0.137245	0.622585
63098		4.791432	1.690939	8.337202	0.002662	-0.000064	-0.000467	-0.590332	-0.259766	-0.341553	0.733462	0.235719	-0.137234	0.622605
63099		4.793441	1.693911	8.323583	0.003149	-0.000102	-0.003477	-0.597900	-0.247070	-0.346924	0.733480	0.235702	-0.137211	0.622595
63100		4.789162	1.705405	8.331257	0.004585	-0.002871	-0.002609	-0.588623	-0.256836	-0.343018	0.733478	0.235717	-0.137204	0.622594
63101		4.801512	1.694947	8.316684	0.003513	-0.001681	-0.001906	-0.589600	-0.250977	-0.335938	0.733479	0.235712	-0.137197	0.622595
63102		4.791918	1.709556	8.316962	0.002983	-0.002056	-0.001985	-0.589355	-0.262207	-0.338379	0.733480	0.235707	-0.137198	0.622596
63103		4.787156	1.699031	8.328200	0.001388	-0.002212	-0.001790	-0.591064	-0.260498	-0.333008	0.733488	0.235688	-0.137213	0.622591
63104		4.795835	1.705331	8.337248	0.001998	-0.000374	-0.002243	-0.586914	-0.262451	-0.339355	0.733499	0.235662	-0.137205	0.622590
63105		4.794880	1.699211	8.321673	0.002844	-0.001020	-0.003252	-0.590576	-0.257080	-0.343994	0.733516	0.235650	-0.137193	0.622577
63106		4.797731	1.709464	8.323448	0.004515	0.001568	-0.003548	-0.588867	-0.259521	-0.344727	0.733533	0.235631	-0.137144	0.622575
63107		4.794423	1.701480	8.321473	0.002309	-0.000425	-0.002900	-0.598877	-0.257080	-0.342285	0.733549	0.235608	-0.137131	0.622568
63108		4.781617	1.692446	8.339088	0.003144	0.000869	-0.003048	-0.595215	-0.262939	-0.337891	0.733563	0.235582	-0.137101	0.622567
63109		4.796585	1.690994	8.326684	0.004044	-0.001304	-0.001828	-0.591064	-0.260254	-0.339600	0.733564	0.235581	-0.137087	0.622570
63110		4.794397	1.704669	8.320836	0.004447	-0.001834	-0.003877	-0.591797	-0.253174	-0.342041	0.733578	0.235591	-0.137068	0.622553
63111		4.789505	1.694515	8.332086	0.002449	-0.001460	-0.001634	-0.594238	-0.252197	-0.337891	0.733579	0.235575	-0.137068	0.622558
63112		4.795092	1.692371	8.339132	0.005818	-0.001134	-0.004378	-0.593018	-0.263184	-0.341553	0.733591	0.235592	-0.137032	0.622546
63113		4.784915	1.721988	8.320476	0.002845	-0.001020	-0.003253	-0.593262	-0.247559	-0.346191	0.733607	0.235579	-0.137020	0.622534
63114		4.782667	1.699482	8.337055	0.005263	-0.004497	-0.001696	-0.588623	-0.260254	-0.340332	0.733593	0.235611	-0.137026	0.622537
63115		4.785288	1.702833	8.322994	0.004801	-0.001470	-0.001446	-0.586182	-0.256836	-0.338135	0.733589	0.235617	-0.137008	0.622544
63116		4.796509	1.697382	8.337298	0.005118	-0.002492	-0.002534	-0.590088	-0.257812	-0.339111	0.733590	0.235635	-0.136994	0.622539
63117		4.788107	1.707438	8.308557	0.004496	-0.002389	-0.001220	-0.587891	-0.258057	-0.334961	0.733581	0.235645	-0.136988	0.622546
63118		4.797324	1.699653	8.336366	0.003296	-0.002106	-0.002644	-0.589355	-0.260010	-0.339844	0.733589	0.235644	-0.136985	0.622539
63119		4.782526	1.703234	8.348248	0.004576	-0.000926	-0.001753	-0.584961	-0.255127	-0.340332	0.733588	0.235644	-0.136963	0.622544
63120		4.793384	1.712288	8.343595	0.004588	-0.002867	-0.002613	-0.591553	-0.246094	-0.341064	0.733590	0.235660	-0.136956	0.622538
63121		4.795867	1.715388	8.329654	0.002675	-0.002002	-0.001330	-0.594971	-0.255127	-0.337646	0.733584	0.235649	-0.136961	0.622548
63122		4.786037	1.693849	8.352485	0.003741	-0.002221	-0.001604	-0.589600	-0.258057	-0.345947	0.733579	0.235651	-0.136958	0.622553
63123		4.788437	1.696849	8.338615	0.003205	-0.001626	-0.001252	-0.596191	-0.252686	-0.348145	0.733577	0.235642	-0.136955	0.622560
63124		4.801128	1.707464	8.320702	0.001462	0.000221	-0.001894	-0.593750	-0.253418	-0.340332	0.733585	0.235602	-0.136946	0.622567
63125		4.791564	1.707387	8.340151	0.004265	-0.000874	-0.001097	-0.587891	-0.254150	-0.341309	0.733577	0.235598	-0.136928	0.622582
63126		4.781096	1.700459	8.344154	0.002754	-0.000540	-0.001863	-0.594971	-0.254639	-0.341309	0.733582	0.235577	-0.136917	0.622587
63127		4.783385	1.703571	8.330321	0.004808	-0.002439	-0.001879	-0.586426	-0.251221	-0.349854	0.733576	0.235591	-0.136907	0.622591
63128		4.796510	1.700012	8.331274	0.003504	0.000264	-0.001051	-0.590576	-0.258301	-0.340332	0.733573	0.235567	-0.136884	0.622608
63129		4.780637	1.696309	8.327902	0.002676	-0.002002	-0.001330	-0.599365	-0.250244	-0.342041	0.733573	0.235557	-0.136888	0.622612
63130		4.793959	1.692427	8.328809	0.002676	-0.002002	-0.001330	-0.593994	-0.256348	-0.341797	0.733567	0.235547	-0.136893	0.622622
63131		4.786756	1.694589	8.334566	0.003827	-0.001729	-0.002568	-0.594238	-0.260498	-0.344482	0.733571	0.235547	-0.136882	0.622619
63132		4.784604	1.708056	8.328703	0.003517	-0.001677	-0.001910	-0.585693	-0.252686	-0.341553	0.733573	0.235543	-0.136875	0.622619
63133		4.779869	1.697590	8.339972	0.001835	-0.002326	-0.000751	-0.590332	-0.258057	-0.343262	0.733569	0.235525	-0.136890	0.622628
63134		4.793192	1.693711	8.340878	0.003517	-0.001677	-0.001911	-0.593750	-0.263184	-0.337158	0.733571	0.235521	-0.136883	0.622629
63135		4.796510	1.703962	8.342354	0.004894	-0.001947	-0.002843	-0.596436	-0.248291	-0.341064	0.733577	0.235534	-0.136865	0.622621
63136		4.788526	1.699270	8.332596	0.003354	-0.003629	-0.000415	-0.597168	-0.255127	-0.338623	0.733558	0.235541	-0.136882	0.622636
63137		4.791913	1.709454	8.334042	0.004973	-0.000485	-0.003377	-0.585205	-0.257080	-0.342041	0.733566	0.235545	-0.136849	0.622633
63138		4.786999	1.699482	8.345323	0.003743	-0.002219	-0.001606	-0.591797	-0.256836	-0.341797	0.733565	0.235546	-0.136845	0.622635
63139		4.794585	1.713797	8.319723	0.004280	-0.002813	-0.001958	-0.588135	-0.262451	-0.341309	0.733563	0.235557	-0.136842	0.622634
63140		4.805952	1.708134	8.334010	0.002768	-0.002481	-0.002724	-0.590332	-0.253418	-0.345459	0.733574	0.235554	-0.136846	0.622621
63141		4.777721	1.694663	8.348237	0.003298	-0.002104	-0.002647	-0.593994	-0.251709	-0.348145	0.733580	0.235551	-0.136842	0.622616
63142		4.808962	1.697711	8.338774	0.003602	-0.001186	-0.002875	-0.587158	-0.252686	-0.341064	0.733587	0.235544	-0.136826	0.622614
63143		4.775587	1.709231	8.342122	0.003376	-0.000643	-0.003181	-0.601318	-0.257080	-0.342773	0.733599	0.235532	-0.136807	0.622608
63144		4.792868	1.709856	8.316037	0.003525	-0.002646	-0.002342	-0.592041	-0.254150	-0.339600	0.733600	0.235536	-0.136808	0.622605
63145		4.783505	1.709856	8.335380	0.002218	0.000055	-0.001514	-0.594727	-0.256592	-0.337158	0.733603	0.235506	-0.136797	0.622615
63146		4.793796	1.696894	8.334422	0.003136	-0.004055	-0.001150	-0.593750	-0.261230	-0.335205	0.733594	0.235517	-0.136817	0.622617
63147		4.776745	1.712871	8.340712	0.004663	-0.000432	-0.002722	-0.596191	-0.256104	-0.340576	0.733601	0.235517	-0.136788	0.622615
63148		4.797219	1.708080	8.335631	0.002755	-0.000539	-0.001866	-0.588379	-0.259277	-0.339111	0.733605	0.235498	-0.136776	0.622621
63149		4.771700	1.703579	8.351950	0.003731	-0.000276	-0.000749	-0.593262	-0.263184	-0.344971	0.733600	0.235483	-0.136758	0.622636
63150		4.794306	1.700656	8.333361	0.002981	-0.001081	-0.001561	-0.588623	-0.254639	-0.340088	0.733604	0.235469	-0.136750	0.622639
63151		4.794591	1.701475	8.333030	0.003434	-0.002165	-0.000950	-0.590576	-0.253662	-0.337646	0.733597	0.235466	-0.136751	0.622648
63152		4.781962	1.706953	8.331396	0.003519	-0.001675	-0.001914	-0.593262	-0.259033	-0.340576	0.733596	0.235462	-0.136744	0.622652
63153		4.787631	1.704583	8.338461	0.003292	-0.001133	-0.002219	-0.595459	-0.258301	-0.332031	0.733602	0.235453	-0.136733	0.622651
63154		4.787047	1.698388	8.322701	0.003576	-0.003197	0.000319	-0.585449	-0.251709	-0.337158	0.733582	0.235460	-0.136747	0.622669
63155		4.781993	1.702541	8.314917	0.003292	-0.001133	-0.002220	-0.591309	-0.251953	-0.343018	0.733585	0.235450	-0.136736	0.622671
63156		4.791836	1.716127	8.339138	0.002374	-0.002918	-0.001104	-0.589600	-0.253174	-0.335205	0.733579	0.235443	-0.136751	0.622677
63157		4.768783	1.713610	8.341743	0.002989	-0.002051	-0.001991	-0.587891	-0.255615	-0.331787	0.733580	0.235439	-0.136752	0.622678
63158		4.794059	1.698356	8.328518	0.003300	-0.002103	-0.002649	-0.592041	-0.254150	-0.340820	0.733586	0.235439	-0.136749	0.622672
63159		4.777425	1.699939	8.353804	0.004593	-0.002862	-0.002620	-0.588379	-0.259766	-0.343994	0.733586	0.235455	-0.136742	0.622667
63160		4.801373	1.704290	8.350305	0.004411	-0.001901	0.000165	-0.592773	-0.257324	-0.344482	0.733571	0.235457	-0.136736	0.622686
63161		4.792257	1.692560	8.325289	0.004367	-0.002320	-0.002926	-0.596191	-0.260498	-0.340332	0.733577	0.235466	-0.136725	0.622678
63162		4.788197	1.704015	8.332800	0.004192	-0.002329	-0.000570	-0.585938	-0.250488	-0.344238	0.733565	0.235472	-0.136723	0.622690
63163		4.798702	1.691202	8.331708	0.002912	-0.003512	-0.001457	-0.592529	-0.259033	-0.337891	0.733560	0.235474	-0.136738	0.622692
63164		4.789931	1.727145	8.328122	0.002905	-0.002541	-0.001028	-0.592285	-0.256836	-0.334473	0.733555	0.235471	-0.136746	0.622697
63165		4.781261	1.700571	8.322201	0.002679	-0.001999	-0.001334	-0.596436	-0.249512	-0.339844	0.733552	0.235462	-0.136751	0.622702
63166		4.787225	1.697911	8.329162	0.002821	-0.003030	-0.000065	-0.593750	-0.259521	-0.338379	0.733534	0.235459	-0.136768	0.622721
63167		4.794442	1.702350	8.351314	0.004561	-0.003902	0.001004	-0.589111	-0.253418	-0.337158	0.733506	0.235478	-0.136782	0.622744
63168		4.775774	1.704130	8.326702	0.003980	-0.003728	-0.001734	-0.595703	-0.261230	-0.343994	0.733499	0.235495	-0.136791	0.622743
63169		4.783911	1.704172	8.319941	0.005442	-0.003508	-0.003633	-0.592773	-0.252197	-0.341309	0.733507	0.235525	-0.136780	0.622725
63170		4.798717	1.707693	8.335843	0.002972	-0.005031	0.000775	-0.592041	-0.250732	-0.334717	0.733480	0.235538	-0.136816	0.622744
63171		4.783695	1.704008	8.332023	0.004964	-0.004434	-0.001048	-0.595215	-0.262451	-0.338135	0.733462	0.235568	-0.136826	0.622752
63172		4.792125	1.703712	8.325158	0.003813	-0.004706	0.000192	-0.591553	-0.259766	-0.346436	0.733442	0.235588	-0.136851	0.622762
63173		4.788932	1.700519	8.351503	0.003981	-0.003727	-0.001736	-0.596191	-0.252930	-0.335449	0.733440	0.235603	-0.136859	0.622758
63174		4.791570	1.703507	8.337447	0.003663	-0.002704	-0.000649	-0.587646	-0.256592	-0.342041	0.733425	0.235607	-0.136865	0.622772
63175		4.804086	1.692816	8.322841	0.003754	-0.003186	-0.002042	-0.585205	-0.255371	-0.335693	0.733425	0.235617	-0.136869	0.622767
63176		4.808805	1.709718	8.339470	0.002739	-0.003518	0.000897	-0.589844	-0.255859	-0.341553	0.733404	0.235616	-0.136893	0.622787
63177		4.793927	1.691335	8.354932	0.003133	-0.003081	-0.000725	-0.592285	-0.259766	-0.344971	0.733395	0.235616	-0.136905	0.622795
63178		4.810994	1.706433	8.309580	0.005435	-0.002536	-0.003208	-0.584229	-0.259033	-0.342773	0.733402	0.235638	-0.136887	0.622783
63179		4.793710	1.686663	8.338652	0.003073	-0.001561	-0.002959	-0.588379	-0.249756	-0.351807	0.733417	0.235629	-0.136878	0.622771
63180		4.796642	1.711346	8.320990	0.004595	-0.002860	-0.002626	-0.596924	-0.256104	-0.338135	0.733417	0.235641	-0.136870	0.622768
63181		4.791918	1.701279	8.332273	0.003959	-0.000814	-0.000451	-0.593506	-0.261475	-0.344727	0.733405	0.235633	-0.136857	0.622788
63182		4.786745	1.705456	8.324540	0.003217	-0.002591	-0.001690	-0.584717	-0.259277	-0.341309	0.733406	0.235633	-0.136861	0.622785
63183		4.800364	1.701885	8.325208	0.005186	-0.004002	-0.000317	-0.594482	-0.251221	-0.333984	0.733390	0.235659	-0.136866	0.622794
63184		4.795456	1.706481	8.317234	0.005655	-0.002106	-0.002476	-0.602783	-0.258057	-0.340576	0.733383	0.235680	-0.136845	0.622798
63185		4.786630	1.706728	8.336286	0.002529	-0.004916	-0.000266	-0.597168	-0.260742	-0.335693	0.733367	0.235691	-0.136881	0.622805
63186		4.788474	1.702450	8.306792	0.004649	-0.003408	0.000035	-0.591309	-0.259521	-0.345459	0.733347	0.235710	-0.136888	0.622820
63187		4.788078	1.708444	8.335103	0.004195	-0.002325	-0.000576	-0.588135	-0.263672	-0.343018	0.733337	0.235714	-0.136885	0.622831
63188		4.793074	1.698913	8.326669	0.003135	-0.003079	-0.000727	-0.599121	-0.258789	-0.343750	0.733334	0.235714	-0.136896	0.622832
63189		4.780628	1.704354	8.324947	0.003528	-0.002643	-0.002350	-0.587402	-0.256104	-0.345703	0.733336	0.235719	-0.136897	0.622827
63190		4.797050	1.709657	8.327604	0.001393	-0.002210	-0.001794	-0.595459	-0.260254	-0.345947	0.733343	0.235697	-0.136911	0.622824
63191		4.796489	1.703451	8.311828	0.005043	-0.002971	-0.001589	-0.591553	-0.256104	-0.335205	0.733337	0.235715	-0.136904	0.622826
63192		4.787560	1.703591	8.330975	0.001401	-0.003181	-0.002223	-0.593262	-0.257568	-0.342529	0.733344	0.235706	-0.136927	0.622817
63193		4.792392	1.694100	8.322630	0.004361	-0.001347	-0.002506	-0.592285	-0.255859	-0.336670	0.733348	0.235708	-0.136909	0.622815
63194		4.788289	1.705192	8.330228	0.001000	-0.002646	-0.000171	-0.589355	-0.259033	-0.333008	0.733340	0.235686	-0.136936	0.622826
63195		4.794193	1.702697	8.337203	0.004899	-0.001941	-0.002860	-0.593994	-0.258789	-0.340332	0.733346	0.235701	-0.136918	0.622818
63196		4.797447	1.713091	8.338618	0.004361	-0.001347	-0.002507	-0.588379	-0.250244	-0.345215	0.733350	0.235704	-0.136900	0.622816
63197		4.805255	1.712864	8.332079	0.003219	-0.002590	-0.001692	-0.593018	-0.258301	-0.340576	0.733347	0.235701	-0.136903	0.622820
63198		4.786612	1.700217	8.326799	0.003612	-0.002154	-0.003316	-0.594971	-0.250732	-0.345947	0.733358	0.235705	-0.136896	0.622807
63199		4.794519	1.700215	8.320158	0.005355	-0.003022	-0.002250	-0.588379	-0.255127	-0.345947	0.733351	0.235727	-0.136886	0.622810
63200		4.787432	1.702657	8.325829	0.003522	-0.001671	-0.001924	-0.597168	-0.254395	-0.347168	0.733353	0.235720	-0.136878	0.622812
63201		4.793010	1.714915	8.313560	0.005280	-0.004480	-0.001714	-0.589111	-0.258545	-0.336426	0.733340	0.235752	-0.136883	0.622813
63202		4.783824	1.693845	8.336263	0.004213	-0.004264	-0.001436	-0.594482	-0.251709	-0.337646	0.733333	0.235775	-0.136896	0.622810
63203		4.795088	1.702800	8.331260	0.004295	-0.003776	-0.002401	-0.591553	-0.254883	-0.342529	0.733328	0.235796	-0.136901	0.622807
63204		4.793488	1.716118	8.324993	0.003291	-0.005076	0.000113	-0.590332	-0.259521	-0.339355	0.733307	0.235812	-0.136933	0.622818
63205		4.773598	1.701117	8.332898	0.003519	-0.005617	0.000419	-0.589844	-0.259033	-0.344482	0.733286	0.235836	-0.136968	0.622827
63206		4.798516	1.705180	8.328799	0.004740	-0.007832	0.000981	-0.589844	-0.253906	-0.340088	0.733253	0.235884	-0.137016	0.622836
63207		4.787295	1.710663	8.326369	0.005727	-0.008535	0.001666	-0.594482	-0.257568	-0.336914	0.733207	0.235948	-0.137065	0.622856
63208		4.803922	1.709020	8.312927	0.004733	-0.006860	0.001408	-0.591064	-0.260010	-0.336426	0.733170	0.235991	-0.137106	0.622874
63209		4.803445	1.707725	8.325436	0.003446	-0.007074	0.000953	-0.588867	-0.255371	-0.340576	0.733142	0.236025	-0.137158	0.622883
63210		4.799113	1.690214	8.320716	0.005867	-0.008591	0.003362	-0.594238	-0.257080	-0.341064	0.733083	0.236087	-0.137211	0.622916
63211		4.803915	1.700653	8.321211	0.009006	-0.007722	0.000286	-0.587891	-0.257080	-0.342773	0.733041	0.236176	-0.137223	0.622930
63212		4.812795	1.701141	8.313885	0.007564	-0.005938	-0.001011	-0.586426	-0.253906	-0.335693	0.733018	0.236239	-0.137226	0.622932
63213		4.808411	1.705869	8.305566	0.004980	-0.005396	-0.001490	-0.589600	-0.256104	-0.336914	0.733005	0.236277	-0.137243	0.622929
63214		4.799876	1.706337	8.324480	0.004744	-0.003885	-0.001367	-0.593018	-0.261963	-0.341553	0.732995	0.236302	-0.137248	0.622931
63215		4.821803	1.708730	8.334384	0.003823	-0.000753	-0.002161	-0.591553	-0.255859	-0.340820	0.733002	0.236294	-0.137229	0.622929
63216		4.808969	1.714163	8.332902	0.002454	-0.001455	-0.001649	-0.594971	-0.259277	-0.341553	0.733005	0.236277	-0.137229	0.622932
63217		4.801661	1.689615	8.313984	0.001923	0.002110	-0.004067	-0.587646	-0.255859	-0.340332	0.733036	0.236233	-0.137193	0.622921
63218		4.799587	1.710094	8.323876	0.003432	0.002756	-0.002881	-0.592773	-0.262451	-0.346191	0.733053	0.236194	-0.137143	0.622926
63219		4.813085	1.713529	8.340535	0.001312	0.001246	-0.003176	-0.591797	-0.247559	-0.336426	0.733081	0.236148	-0.137121	0.622916
63220		4.813648	1.709125	8.311753	0.001850	0.000653	-0.003531	-0.596680	-0.254639	-0.338379	0.733097	0.236114	-0.137102	0.622914
63221		4.804557	1.704243	8.302728	0.002535	0.002976	-0.004960	-0.592529	-0.252686	-0.339355	0.733130	0.236071	-0.137052	0.622903
63222		4.793448	1.697295	8.307274	0.001313	0.001246	-0.003177	-0.591797	-0.256592	-0.341797	0.733149	0.236026	-0.137031	0.622901
63223		4.795643	1.685795	8.312859	0.002699	0.000007	-0.004545	-0.590088	-0.258301	-0.334229	0.733177	0.236005	-0.137007	0.622882
63224		4.802193	1.726511	8.312405	0.003963	-0.000808	-0.000462	-0.600098	-0.258789	-0.335693	0.733168	0.235998	-0.136994	0.622898
63225		4.799732	1.704067	8.329517	0.003906	-0.000264	-0.003127	-0.593750	-0.254883	-0.334961	0.733178	0.235992	-0.136968	0.622894
63226		4.791140	1.699529	8.320135	0.004974	-0.000479	-0.003408	-0.592773	-0.258545	-0.335938	0.733186	0.235997	-0.136935	0.622890
63227		4.807339	1.705409	8.322752	0.003842	-0.002693	-0.003018	-0.587158	-0.257080	-0.341064	0.733194	0.236008	-0.136933	0.622877
63228		4.807678	1.706544	8.322323	0.003833	-0.001722	-0.002590	-0.592529	-0.251709	-0.347900	0.733202	0.236007	-0.136921	0.622871
63229		4.797600	1.700009	8.326198	0.006117	-0.003178	-0.001881	-0.590820	-0.252441	-0.340576	0.733190	0.236035	-0.136907	0.622878
63230		4.808582	1.709320	8.321232	0.006109	-0.002207	-0.001453	-0.583008	-0.261963	-0.342041	0.733176	0.236058	-0.136886	0.622890
63231		4.797539	1.695668	8.309756	0.005498	-0.003072	-0.000561	-0.601562	-0.255859	-0.334229	0.733166	0.236079	-0.136879	0.622895
63232		4.797278	1.702107	8.337951	0.004609	-0.003825	-0.003067	-0.590088	-0.255127	-0.336670	0.733165	0.236108	-0.136881	0.622885
63233		4.799748	1.705375	8.323863	0.004372	-0.002314	-0.002946	-0.593262	-0.263428	-0.343994	0.733169	0.236119	-0.136871	0.622878
63234		4.794621	1.709874	8.316010	0.004821	-0.002423	-0.001907	-0.591309	-0.256104	-0.346191	0.733170	0.236132	-0.136860	0.622874
63235		4.797549	1.698429	8.321183	0.002154	-0.002371	-0.001418	-0.598145	-0.247803	-0.340820	0.733171	0.236118	-0.136871	0.622876
63236		4.793521	1.709755	8.328666	0.004822	-0.002422	-0.001907	-0.596436	-0.258545	-0.338623	0.733159	0.236131	-0.136861	0.622888
63237		4.795973	1.712853	8.314617	0.003762	-0.003179	-0.002054	-0.594727	-0.257080	-0.343506	0.733158	0.236143	-0.136866	0.622884
63238		4.789241	1.715086	8.320151	0.004359	-0.004313	0.000257	-0.589111	-0.259277	-0.340576	0.733135	0.236163	-0.136883	0.622899
63239		4.816388	1.707125	8.321683	0.006653	-0.006739	0.000537	-0.589111	-0.256592	-0.337891	0.733102	0.236223	-0.136905	0.622910
63240		4.811500	1.690432	8.317190	0.007646	-0.004470	-0.001555	-0.593018	-0.267090	-0.345703	0.733084	0.236278	-0.136893	0.622913
63241		4.806520	1.722019	8.333909	0.006807	-0.004794	-0.000969	-0.595947	-0.254395	-0.344727	0.733072	0.236326	-0.136890	0.622910
63242		4.795622	1.708419	8.322363	0.004373	-0.002314	-0.002949	-0.597412	-0.259277	-0.342529	0.733075	0.236335	-0.136879	0.622905
63243		4.800682	1.699025	8.313893	0.003601	-0.004150	-0.000123	-0.595947	-0.261475	-0.341553	0.733058	0.236348	-0.136900	0.622915
63244		4.791508	1.713631	8.313773	0.004751	-0.003878	-0.001372	-0.592285	-0.253174	-0.342041	0.733050	0.236372	-0.136905	0.622914
63245		4.787519	1.703981	8.324706	0.007576	-0.005925	-0.001020	-0.591553	-0.256104	-0.339111	0.733023	0.236436	-0.136908	0.622922
63246		4.809587	1.721251	8.314911	0.007258	-0.004900	0.000068	-0.592041	-0.256592	-0.345459	0.732992	0.236488	-0.136907	0.622939
63247		4.805654	1.711953	8.325744	0.008946	-0.005221	-0.001537	-0.586914	-0.252197	-0.336914	0.732969	0.236558	-0.136891	0.622943
63248		4.803865	1.704749	8.322900	0.009016	-0.006731	0.000701	-0.596436	-0.252441	-0.334473	0.732923	0.236640	-0.136895	0.622965
63249		4.809429	1.696097	8.313989	0.007870	-0.004035	-0.000829	-0.597900	-0.258301	-0.341797	0.732893	0.236694	-0.136880	0.622983
63250		4.803239	1.720349	8.315510	0.005732	-0.003606	-0.000264	-0.590088	-0.255615	-0.339355	0.732871	0.236723	-0.136879	0.622998
63251		4.813032	1.700697	8.298941	0.005661	-0.005062	0.000275	-0.593018	-0.250977	-0.342529	0.732843	0.236761	-0.136893	0.623014
63252		4.805569	1.708386	8.333195	0.004523	-0.003338	-0.001681	-0.590820	-0.257812	-0.338379	0.732832	0.236777	-0.136894	0.623020
63253		4.810925	1.720244	8.320990	0.001387	-0.001239	-0.001371	-0.591064	-0.254150	-0.343262	0.732838	0.236749	-0.136901	0.623022
63254		4.819194	1.705209	8.333759	0.001476	-0.001725	-0.002764	-0.586182	-0.253418	-0.332764	0.732851	0.236726	-0.136907	0.623014
63255		4.802747	1.715741	8.311383	0.003826	-0.000750	-0.002171	-0.590088	-0.250488	-0.350586	0.732853	0.236720	-0.136889	0.623018
63256		4.808461	1.713381	8.318472	0.002907	-0.001560	-0.000616	-0.593262	-0.261230	-0.330566	0.732844	0.236702	-0.136888	0.623036
63257		4.790902	1.707656	8.328690	0.004205	-0.002312	-0.000594	-0.593506	-0.258057	-0.338867	0.732834	0.236711	-0.136887	0.623045
63258		4.801247	1.730645	8.304625	0.002245	-0.002856	-0.002814	-0.594482	-0.261963	-0.333008	0.732844	0.236707	-0.136898	0.623031
