// Start Time: Unknown
// Update Rate: 40.0Hz
// Filter Profile: human (46.1)
// Firmware Version: 4.6.0
PacketCounter	SampleTimeFine	Acc_X	Acc_Y	Acc_Z	Gyr_X	Gyr_Y	Gyr_Z	Mag_X	Mag_Y	Mag_Z	Quat_q0	Quat_q1	Quat_q2	Quat_q3
48166		4.738969	1.630446	8.389273	0.005026	-0.002011	-0.002761	-0.540039	0.469482	-0.729004	0.593599	-0.144913	-0.223041	-0.759535
48167		4.737948	1.620845	8.380497	0.005615	-0.004195	-0.002141	-0.539062	0.461426	-0.725830	0.593577	-0.144906	-0.223130	-0.759528
48168		4.740767	1.629969	8.368864	0.004039	-0.001782	-0.001064	-0.545654	0.469727	-0.720459	0.593548	-0.144906	-0.223205	-0.759528
48169		4.738778	1.623257	8.379561	0.005104	-0.001619	-0.003225	-0.536133	0.466064	-0.724121	0.593448	-0.144953	-0.223336	-0.759559
48170		4.737192	1.615192	8.380554	0.005651	-0.002402	-0.001410	-0.541016	0.468750	-0.726562	0.593444	-0.144924	-0.223405	-0.759547
48171		4.741147	1.636882	8.386789	0.004066	-0.002717	-0.001860	-0.541260	0.472412	-0.727539	0.593414	-0.144930	-0.223476	-0.759548
48172		4.742189	1.634989	8.367078	0.005009	-0.001543	-0.002363	-0.537598	0.471680	-0.727783	0.593393	-0.144907	-0.223541	-0.759550
48173		4.742233	1.637983	8.376214	0.006463	-0.002945	-0.001782	-0.537842	0.470703	-0.726318	0.593399	-0.144864	-0.223611	-0.759533
48174		4.729856	1.620774	8.368191	0.005519	-0.004119	-0.001279	-0.535645	0.465088	-0.730957	0.593396	-0.144849	-0.223688	-0.759516
48175		4.753048	1.639009	8.375581	0.005821	-0.002087	-0.002735	-0.537842	0.467041	-0.728271	0.593403	-0.144768	-0.223748	-0.759508
48176		4.737899	1.615215	8.388441	0.003201	-0.003500	-0.001821	-0.538818	0.469482	-0.726562	0.593395	-0.144766	-0.223796	-0.759500
48177		4.740243	1.625849	8.386512	0.005100	-0.001620	-0.003225	-0.537842	0.468262	-0.722656	0.593380	-0.144754	-0.223843	-0.759500
48178		4.731517	1.627793	8.375635	0.007301	-0.004423	-0.002950	-0.532227	0.477295	-0.725830	0.593350	-0.144753	-0.223945	-0.759494
48179		4.744018	1.635530	8.364459	0.006367	-0.002867	-0.000920	-0.540039	0.465820	-0.729248	0.593415	-0.144741	-0.223937	-0.759448
48180		4.752143	1.625745	8.365996	0.006524	-0.002085	-0.001847	-0.533691	0.469238	-0.722900	0.593403	-0.144699	-0.224021	-0.759441
48181		4.733039	1.632472	8.373865	0.005033	-0.002478	-0.003159	-0.534180	0.469971	-0.724609	0.593397	-0.144673	-0.224072	-0.759435
48182		4.727401	1.607169	8.387365	0.006537	-0.002553	-0.002245	-0.537598	0.467041	-0.729004	0.593411	-0.144642	-0.224126	-0.759414
48183		4.743617	1.634271	8.373217	0.009864	-0.004335	-0.004197	-0.540527	0.458984	-0.730957	0.593395	-0.144589	-0.224237	-0.759404
48184		4.747801	1.656316	8.369452	0.013593	-0.001433	-0.006943	-0.540771	0.466553	-0.733643	0.593326	-0.144442	-0.224422	-0.759431
48185		4.742183	1.631659	8.373087	0.015017	-0.001898	-0.005565	-0.537598	0.462891	-0.724609	0.593315	-0.144328	-0.224566	-0.759419
48186		4.740034	1.627805	8.383362	0.016767	-0.001266	-0.006441	-0.533691	0.467529	-0.728516	0.593269	-0.144202	-0.224755	-0.759423
48187		4.744039	1.649276	8.370036	0.015924	0.000213	-0.005274	-0.536865	0.472168	-0.720703	0.593301	-0.144056	-0.224862	-0.759393
48188		4.734611	1.653300	8.359134	0.014261	-0.000495	-0.005259	-0.535400	0.463623	-0.728027	0.593298	-0.144028	-0.224954	-0.759374
48189		4.724634	1.659903	8.367539	0.011603	-0.000504	-0.003149	-0.544434	0.476807	-0.725342	0.593309	-0.143918	-0.225057	-0.759356
48190		4.733547	1.663997	8.386883	0.010817	-0.000897	-0.003572	-0.534668	0.467041	-0.725830	0.593307	-0.143982	-0.225098	-0.759333
48191		4.722518	1.657584	8.377496	0.012333	-0.001437	-0.003056	-0.537109	0.470703	-0.720459	0.593328	-0.143897	-0.225190	-0.759305
48192		4.730530	1.648310	8.379040	0.004057	-0.002717	-0.001855	-0.539062	0.464355	-0.728027	0.593322	-0.143970	-0.225199	-0.759294
48193		4.731085	1.648998	8.378592	0.002108	-0.002722	0.001142	-0.539307	0.458984	-0.726562	0.593328	-0.143984	-0.225227	-0.759278
48194		4.729440	1.641248	8.389367	-0.000193	-0.002576	0.000202	-0.531250	0.465820	-0.723633	0.593285	-0.143984	-0.225280	-0.759296
48195		4.742611	1.643645	8.359304	-0.003605	-0.003915	0.001095	-0.544678	0.464844	-0.728760	0.593329	-0.144036	-0.225208	-0.759273
48196		4.733222	1.648124	8.377557	-0.000336	-0.003825	0.000734	-0.540283	0.463135	-0.718506	0.593284	-0.144122	-0.225239	-0.759283
48197		4.743921	1.644515	8.368145	-0.001748	-0.003831	-0.001041	-0.539551	0.468506	-0.722900	0.593194	-0.144248	-0.225265	-0.759321
48198		4.722668	1.643237	8.396881	-0.001042	-0.003828	-0.000154	-0.540771	0.456299	-0.725098	0.593173	-0.144372	-0.225232	-0.759324
48199		4.735758	1.647559	8.376234	0.000318	-0.005148	0.001292	-0.535156	0.466309	-0.727295	0.593103	-0.144383	-0.225344	-0.759344
48200		4.747012	1.642447	8.357041	-0.001722	-0.004767	-0.001835	-0.540283	0.463135	-0.722168	0.593122	-0.144417	-0.225299	-0.759336
48201		4.727149	1.636381	8.356669	-0.001315	-0.006793	0.000513	-0.537598	0.469727	-0.720459	0.593059	-0.144540	-0.225337	-0.759350
48202		4.749634	1.641730	8.355692	-0.002205	-0.006640	0.001349	-0.537598	0.463623	-0.728516	0.593058	-0.144723	-0.225275	-0.759335
48203		4.750666	1.642950	8.364625	0.000945	-0.005535	0.002643	-0.543945	0.468994	-0.729736	0.593097	-0.144729	-0.225298	-0.759296
48204		4.720892	1.640489	8.373244	0.001101	-0.004755	0.001714	-0.532227	0.471924	-0.721924	0.593097	-0.144821	-0.225305	-0.759276
48205		4.741166	1.636924	8.373831	0.001820	-0.005220	0.002204	-0.538086	0.469238	-0.718506	0.593204	-0.144916	-0.225204	-0.759205
48206		4.753826	1.644911	8.372206	0.003506	-0.005448	0.001393	-0.540039	0.465088	-0.731201	0.593200	-0.145064	-0.225201	-0.759180
48207		4.740901	1.631768	8.393090	0.005244	-0.004350	0.000912	-0.536621	0.463135	-0.731934	0.593233	-0.145012	-0.225265	-0.759145
48208		4.752012	1.627631	8.373765	0.003034	-0.004281	-0.000887	-0.533203	0.467285	-0.723877	0.593278	-0.144909	-0.225306	-0.759118
48209		4.747475	1.647874	8.359772	0.006236	-0.005049	-0.001183	-0.539551	0.460205	-0.729248	0.593342	-0.144899	-0.225308	-0.759069
48210		4.744164	1.631683	8.371737	0.003176	-0.003032	-0.001419	-0.537842	0.468018	-0.731201	0.593310	-0.144812	-0.225401	-0.759083
48211		4.743006	1.623173	8.372641	0.004627	-0.004431	-0.000836	-0.531982	0.468750	-0.729492	0.593381	-0.144772	-0.225407	-0.759034
48212		4.747627	1.643116	8.368956	0.003908	-0.003965	-0.001326	-0.541992	0.471680	-0.721924	0.593516	-0.144704	-0.225346	-0.758959
48213		4.758406	1.639303	8.349743	0.005017	-0.002480	-0.003160	-0.538086	0.468018	-0.720459	0.593488	-0.144843	-0.225340	-0.758956
48214		4.744742	1.626708	8.370971	0.004900	-0.001465	-0.001505	-0.533691	0.461914	-0.723389	0.593485	-0.144917	-0.225333	-0.758947
48215		4.744324	1.630844	8.389932	0.001802	-0.001244	-0.002467	-0.541260	0.468506	-0.729004	0.593490	-0.144855	-0.225332	-0.758954
48216		4.747470	1.636517	8.359153	0.004938	-0.002870	-0.002695	-0.537842	0.469971	-0.728027	0.593497	-0.144860	-0.225355	-0.758942
48217		4.735835	1.633259	8.378826	0.004037	-0.002248	-0.001462	-0.540527	0.468262	-0.735107	0.593566	-0.144864	-0.225313	-0.758899
48218		4.746197	1.630746	8.369361	0.002468	-0.003036	-0.002306	-0.534668	0.472656	-0.719971	0.593618	-0.144793	-0.225309	-0.758873
48219		4.739519	1.639813	8.347564	0.004899	-0.001464	-0.001505	-0.538086	0.464844	-0.725342	0.593702	-0.144896	-0.225209	-0.758817
48220		4.756285	1.632714	8.378707	0.004768	-0.003181	-0.001369	-0.541260	0.463135	-0.729004	0.593698	-0.144886	-0.225252	-0.758810
48221		4.738307	1.634329	8.357684	0.004846	-0.002791	-0.001833	-0.534180	0.457764	-0.728760	0.593660	-0.144832	-0.225343	-0.758823
48222		4.748076	1.635412	8.367384	0.004936	-0.002870	-0.002695	-0.547363	0.466797	-0.725586	0.593652	-0.144646	-0.225437	-0.758837
48223		4.750362	1.646236	8.365372	0.005000	-0.002012	-0.002763	-0.539307	0.465088	-0.720703	0.593544	-0.144744	-0.225529	-0.758875
48224		4.739215	1.639900	8.365847	0.004910	-0.001933	-0.001902	-0.535400	0.468262	-0.725342	0.593501	-0.144811	-0.225561	-0.758886
48225		4.754659	1.620387	8.379246	0.005809	-0.002555	-0.003135	-0.545166	0.465088	-0.725342	0.593563	-0.144798	-0.225528	-0.758850
48226		4.752916	1.660965	8.372202	0.000822	-0.001012	-0.000768	-0.542725	0.467529	-0.716797	0.593484	-0.144882	-0.225568	-0.758884
48227		4.736644	1.622591	8.358130	0.005089	-0.002090	-0.003625	-0.540527	0.470703	-0.722168	0.593376	-0.145064	-0.225601	-0.758924
48228		4.741105	1.641320	8.344956	0.004934	-0.002870	-0.002695	-0.538818	0.467285	-0.725586	0.593371	-0.145186	-0.225572	-0.758913
48229		4.738617	1.638071	8.374918	0.005063	-0.001153	-0.002832	-0.540771	0.467529	-0.734375	0.593388	-0.145176	-0.225563	-0.758904
48230		4.748698	1.635870	8.365545	0.003404	-0.001862	-0.002813	-0.547363	0.458252	-0.718750	0.593436	-0.145081	-0.225561	-0.758886
48231		4.729112	1.643547	8.383325	0.001786	-0.000776	-0.002070	-0.535645	0.464111	-0.720703	0.593225	-0.145183	-0.225718	-0.758984
48232		4.746876	1.629630	8.376181	0.003314	-0.001783	-0.001951	-0.545166	0.464355	-0.731689	0.593233	-0.145196	-0.225697	-0.758982
48233		4.744645	1.622617	8.387202	0.001993	0.001331	-0.002673	-0.533203	0.466797	-0.729736	0.593196	-0.145128	-0.225737	-0.759012
48234		4.731444	1.653867	8.371598	0.004033	-0.002247	-0.001461	-0.540527	0.468994	-0.727051	0.593326	-0.145017	-0.225667	-0.758953
48235		4.747899	1.629001	8.356185	0.003159	-0.002562	-0.001021	-0.532227	0.468994	-0.729492	0.593358	-0.145061	-0.225634	-0.758929
48236		4.737816	1.636454	8.384075	0.003224	-0.001704	-0.001090	-0.533936	0.464600	-0.725342	0.593513	-0.144974	-0.225517	-0.758859
48237		4.747616	1.635465	8.384395	0.003288	-0.000845	-0.001158	-0.540771	0.469238	-0.723389	0.593580	-0.144909	-0.225471	-0.758833
48238		4.740529	1.646056	8.372270	0.004045	-0.002716	-0.001857	-0.540039	0.464111	-0.731689	0.593579	-0.145007	-0.225454	-0.758820
48239		4.737510	1.626635	8.365248	0.005523	-0.001847	-0.000153	-0.535645	0.465576	-0.721680	0.593615	-0.144901	-0.225504	-0.758797
48240		4.740748	1.653028	8.400098	0.002346	-0.005222	-0.002562	-0.536377	0.466309	-0.724121	0.593617	-0.144966	-0.225486	-0.758788
48241		4.738094	1.631771	8.383460	0.003455	-0.000535	-0.002486	-0.536377	0.468994	-0.724365	0.593648	-0.144956	-0.225444	-0.758779
48242		4.749878	1.640396	8.382150	0.004584	-0.003020	0.000356	-0.534668	0.470215	-0.725586	0.593726	-0.144995	-0.225392	-0.758725
48243		4.729504	1.635666	8.381892	0.004864	-0.003728	-0.002625	-0.539307	0.468750	-0.721924	0.593812	-0.145008	-0.225325	-0.758675
48244		4.749314	1.633247	8.382494	0.004673	-0.003100	-0.000506	-0.536133	0.465332	-0.724121	0.593828	-0.145104	-0.225312	-0.758649
48245		4.740345	1.636208	8.381322	0.004851	-0.003259	-0.002229	-0.532959	0.468750	-0.721924	0.593845	-0.145093	-0.225317	-0.758636
48246		4.748560	1.626037	8.382964	0.003941	-0.002167	-0.000600	-0.538818	0.463623	-0.721680	0.593935	-0.145121	-0.225230	-0.758586
48247		4.751416	1.634852	8.371216	0.003924	-0.004901	-0.002115	-0.534912	0.462646	-0.715576	0.593882	-0.145175	-0.225286	-0.758600
48248		4.752543	1.634383	8.360892	0.005480	-0.003642	-0.000877	-0.538330	0.463867	-0.724365	0.593849	-0.145246	-0.225316	-0.758603
48249		4.745212	1.648192	8.367812	0.002990	-0.002871	0.000307	-0.532471	0.468506	-0.721924	0.593853	-0.145251	-0.225335	-0.758594
48250		4.751934	1.626410	8.361430	0.002282	-0.002877	-0.000579	-0.537109	0.466797	-0.720947	0.593946	-0.145286	-0.225238	-0.758544
48251		4.732768	1.634064	8.379002	0.005365	-0.002624	0.000777	-0.546875	0.469482	-0.723633	0.593976	-0.145338	-0.225232	-0.758511
48252		4.745160	1.641005	8.367880	0.003797	-0.003414	-0.000065	-0.541504	0.466553	-0.729736	0.593919	-0.145490	-0.225278	-0.758513
48253		4.753877	1.629138	8.359795	0.005478	-0.003642	-0.000877	-0.539307	0.469482	-0.726807	0.593933	-0.145457	-0.225331	-0.758493
48254		4.744715	1.633660	8.368208	0.003885	-0.003494	-0.000926	-0.540283	0.459717	-0.723145	0.593977	-0.145487	-0.225311	-0.758459
48255		4.743165	1.626713	8.378867	0.003861	-0.002556	-0.000134	-0.540039	0.466553	-0.721924	0.593915	-0.145467	-0.225404	-0.758483
48256		4.751213	1.617990	8.390108	0.004592	-0.003488	-0.000040	-0.534668	0.466797	-0.721436	0.593908	-0.145537	-0.225425	-0.758470
48257		4.737125	1.638337	8.365924	0.004781	-0.004117	-0.002159	-0.541016	0.462646	-0.728760	0.593940	-0.145562	-0.225404	-0.758445
48258		4.745812	1.626646	8.357823	0.004757	-0.003179	-0.001367	-0.542969	0.471924	-0.729004	0.593921	-0.145498	-0.225485	-0.758449
48259		4.745940	1.630933	8.376474	0.003807	-0.003883	-0.000460	-0.540039	0.458984	-0.716309	0.593961	-0.145560	-0.225469	-0.758410
48260		4.749126	1.637992	8.355076	0.003883	-0.003494	-0.000926	-0.541260	0.465576	-0.726074	0.593852	-0.145628	-0.225565	-0.758454
48261		4.747246	1.632730	8.375385	0.003937	-0.002166	-0.000600	-0.536133	0.471191	-0.721436	0.593851	-0.145628	-0.225591	-0.758447
48262		4.749646	1.643011	8.373363	0.003783	-0.002944	0.000332	-0.543213	0.471191	-0.728760	0.593927	-0.145711	-0.225508	-0.758396
48263		4.758251	1.630985	8.365374	0.003960	-0.003105	-0.001391	-0.536377	0.474365	-0.723389	0.593951	-0.145753	-0.225501	-0.758372
48264		4.737845	1.626058	8.365221	0.003175	-0.003500	-0.001811	-0.544678	0.464355	-0.725098	0.594032	-0.145843	-0.225394	-0.758323
48265		4.740266	1.636483	8.363156	0.004731	-0.002240	-0.000576	-0.538818	0.468750	-0.715576	0.593982	-0.145861	-0.225474	-0.758335
48266		4.742446	1.648580	8.370682	0.003186	-0.003970	-0.002207	-0.542725	0.467041	-0.724609	0.593948	-0.146015	-0.225451	-0.758338
48267		4.746956	1.619362	8.375480	0.004012	-0.001777	-0.001066	-0.538330	0.470459	-0.718018	0.593932	-0.146043	-0.225474	-0.758338
48268		4.751622	1.635966	8.352701	0.004024	-0.002247	-0.001462	-0.532471	0.464111	-0.724121	0.593943	-0.146151	-0.225424	-0.758325
48269		4.749876	1.629093	8.363480	0.003228	-0.002173	-0.001486	-0.540527	0.467529	-0.721924	0.593999	-0.146078	-0.225390	-0.758304
48270		4.757676	1.621961	8.384352	0.003727	-0.004271	0.000007	-0.532227	0.468262	-0.719727	0.593996	-0.146152	-0.225404	-0.758289
48271		4.753188	1.640295	8.360748	0.004676	-0.003567	-0.000901	-0.544434	0.463379	-0.728271	0.594064	-0.146174	-0.225346	-0.758248
48272		4.739900	1.627680	8.381983	0.004210	-0.002877	-0.003580	-0.540283	0.459717	-0.725098	0.593998	-0.146135	-0.225441	-0.758279
48273		4.742380	1.636287	8.370443	0.001525	-0.001006	0.000119	-0.532959	0.466064	-0.726562	0.593970	-0.146081	-0.225490	-0.758297
48274		4.740633	1.629054	8.381301	0.003161	-0.003031	-0.001415	-0.535400	0.469238	-0.717285	0.594048	-0.146014	-0.225448	-0.758261
48275		4.752882	1.636069	8.370197	0.004121	-0.002797	-0.002719	-0.546387	0.465088	-0.716064	0.594062	-0.146093	-0.225398	-0.758250
48276		4.741694	1.631151	8.380293	0.003956	-0.003104	-0.001391	-0.538086	0.477783	-0.723633	0.593943	-0.146241	-0.225473	-0.758292
48277		4.753701	1.639866	8.378777	0.004740	-0.002709	-0.000972	-0.543457	0.465088	-0.725830	0.594037	-0.146335	-0.225363	-0.758233
48278		4.752987	1.628169	8.360563	0.003967	-0.003574	-0.001786	-0.549316	0.468018	-0.724609	0.593998	-0.146342	-0.225428	-0.758244
48279		4.755127	1.640393	8.368075	0.004816	-0.002320	-0.001438	-0.542725	0.473633	-0.726562	0.593928	-0.146415	-0.225503	-0.758262
48280		4.752135	1.620801	8.361162	0.003149	-0.002561	-0.001019	-0.545410	0.471924	-0.727783	0.593962	-0.146479	-0.225457	-0.758236
48281		4.743087	1.623395	8.360122	0.003160	-0.003031	-0.001415	-0.539551	0.471924	-0.720947	0.593963	-0.146535	-0.225455	-0.758225
48282		4.752531	1.627492	8.389001	0.003889	-0.003962	-0.001320	-0.535400	0.471191	-0.717773	0.593982	-0.146626	-0.225419	-0.758204
48283		4.743912	1.628683	8.378203	0.004749	-0.003178	-0.001367	-0.538818	0.466309	-0.718262	0.594019	-0.146700	-0.225360	-0.758178
48284		4.754392	1.626550	8.368551	0.006339	-0.003325	-0.001320	-0.542236	0.464600	-0.728516	0.594006	-0.146738	-0.225392	-0.758171
48285		4.745165	1.631324	8.376980	0.004748	-0.003178	-0.001367	-0.539062	0.466797	-0.719238	0.593999	-0.146684	-0.225455	-0.758169
48286		4.755601	1.629306	8.367328	0.007209	-0.003010	-0.001762	-0.537109	0.470703	-0.730713	0.593990	-0.146707	-0.225489	-0.758161
48287		4.764007	1.619571	8.368813	0.005477	-0.004109	-0.001272	-0.542969	0.467285	-0.721191	0.594067	-0.146651	-0.225469	-0.758117
48288		4.737349	1.639001	8.384046	0.005465	-0.003639	-0.000877	-0.537842	0.461670	-0.722900	0.594042	-0.146706	-0.225516	-0.758112
48289		4.748215	1.635122	8.364717	0.004768	-0.004117	-0.002157	-0.543457	0.467773	-0.732178	0.594020	-0.146667	-0.225576	-0.758119
48290		4.748989	1.636234	8.364060	0.003886	-0.003962	-0.001319	-0.544189	0.468018	-0.721191	0.594036	-0.146627	-0.225613	-0.758104
48291		4.751862	1.644980	8.352233	0.004582	-0.003484	-0.000039	-0.542969	0.471191	-0.724609	0.594014	-0.146702	-0.225646	-0.758096
48292		4.750111	1.639990	8.372483	0.005529	-0.002781	-0.000948	-0.543945	0.471191	-0.722900	0.594030	-0.146741	-0.225649	-0.758075
48293		4.739585	1.631926	8.363270	0.006171	-0.003631	0.000008	-0.542725	0.471191	-0.727783	0.594039	-0.146808	-0.225670	-0.758049
48294		4.751726	1.640837	8.361604	0.005452	-0.003169	-0.000482	-0.533691	0.479248	-0.728027	0.594072	-0.146817	-0.225675	-0.758020
48295		4.750522	1.632521	8.362610	0.005365	-0.003087	0.000380	-0.539062	0.472900	-0.728027	0.594218	-0.146831	-0.225544	-0.757941
48296		4.748937	1.627660	8.382754	0.006191	-0.004570	-0.000781	-0.542969	0.463623	-0.729004	0.594278	-0.146834	-0.225531	-0.757898
48297		4.752540	1.633056	8.351561	0.003557	-0.004575	0.001338	-0.541748	0.463379	-0.732422	0.594279	-0.146807	-0.225597	-0.757883
48298		4.753115	1.637196	8.370021	0.004459	-0.005670	-0.000289	-0.542236	0.469971	-0.723877	0.594282	-0.146737	-0.225676	-0.757870
48299		4.760112	1.615880	8.363485	0.005439	-0.002699	-0.000087	-0.540527	0.465088	-0.720947	0.594303	-0.146768	-0.225686	-0.757845
48300		4.745347	1.639416	8.358536	0.003185	-0.004441	-0.002598	-0.535889	0.464844	-0.726318	0.594263	-0.146806	-0.225719	-0.757859
48301		4.763410	1.627117	8.360711	0.002196	-0.003264	-0.000108	-0.537842	0.471924	-0.732422	0.594298	-0.146767	-0.225702	-0.757844
48302		4.763997	1.627458	8.360310	0.001381	-0.002250	0.000658	-0.544189	0.476074	-0.729980	0.594388	-0.146734	-0.225628	-0.757802
48303		4.745176	1.633502	8.368296	0.005546	-0.003721	-0.001738	-0.538574	0.465088	-0.721680	0.594432	-0.146766	-0.225618	-0.757764
48304		4.767054	1.638770	8.357652	0.003142	-0.002561	-0.001019	-0.539551	0.467773	-0.735596	0.594426	-0.146773	-0.225623	-0.757766
48305		4.753691	1.625760	8.379147	0.002424	-0.002100	-0.001509	-0.535645	0.467529	-0.728516	0.594469	-0.146677	-0.225610	-0.757755
48306		4.756360	1.632918	8.357918	0.005752	-0.001617	-0.002350	-0.538574	0.462891	-0.719482	0.594510	-0.146593	-0.225601	-0.757742
48307		4.747053	1.635700	8.357000	0.002327	-0.001548	-0.000253	-0.542969	0.481201	-0.725586	0.594492	-0.146606	-0.225605	-0.757752
48308		4.772120	1.614057	8.371204	0.004958	-0.001544	-0.002373	-0.541748	0.468262	-0.718750	0.594559	-0.146689	-0.225530	-0.757706
48309		4.757240	1.636162	8.356782	0.005599	-0.002392	-0.001416	-0.540771	0.462891	-0.712158	0.594544	-0.146741	-0.225555	-0.757701
48310		4.757715	1.637443	8.356261	0.004815	-0.002789	-0.001834	-0.538574	0.460693	-0.719727	0.594476	-0.146817	-0.225606	-0.757724
48311		4.763338	1.623047	8.388388	0.004107	-0.002799	-0.002718	-0.540771	0.462402	-0.721436	0.594424	-0.146800	-0.225657	-0.757752
48312		4.761640	1.616509	8.399157	0.004880	-0.001931	-0.001906	-0.545166	0.463867	-0.726074	0.594387	-0.146781	-0.225708	-0.757770
48313		4.756506	1.634981	8.375755	0.003454	-0.001480	-0.003281	-0.534912	0.477295	-0.728271	0.594332	-0.146757	-0.225760	-0.757802
48314		4.755182	1.624874	8.367402	0.003302	-0.002255	-0.002347	-0.542480	0.468750	-0.724121	0.594427	-0.146762	-0.225655	-0.757758
48315		4.747687	1.637344	8.364839	0.005117	-0.001238	-0.003702	-0.539795	0.469727	-0.723633	0.594408	-0.146759	-0.225669	-0.757769
48316		4.757839	1.633368	8.345900	0.003347	-0.000457	-0.001631	-0.539795	0.472656	-0.723633	0.594428	-0.146763	-0.225634	-0.757763
48317		4.747667	1.639488	8.364430	0.002791	0.000309	-0.003449	-0.540527	0.471680	-0.725830	0.594447	-0.146778	-0.225570	-0.757765
48318		4.745257	1.634527	8.385105	0.003529	-0.001092	-0.003748	-0.538574	0.460693	-0.729004	0.594456	-0.146778	-0.225538	-0.757767
48319		4.753564	1.621000	8.367813	0.002735	-0.001019	-0.003771	-0.540771	0.466553	-0.718506	0.594426	-0.146676	-0.225566	-0.757802
48320		4.755486	1.631351	8.365969	0.002563	-0.000854	-0.002048	-0.538574	0.469727	-0.729004	0.594399	-0.146717	-0.225553	-0.757819
48321		4.755024	1.635774	8.384976	0.003604	-0.000705	-0.004215	-0.540771	0.467529	-0.722900	0.594416	-0.146663	-0.225524	-0.757824
48322		4.745662	1.636957	8.374597	0.002724	-0.000549	-0.003376	-0.546143	0.470703	-0.724854	0.594397	-0.146666	-0.225509	-0.757844
48323		4.755275	1.636263	8.374934	0.003527	-0.001092	-0.003748	-0.537354	0.477051	-0.727295	0.594365	-0.146696	-0.225514	-0.757861
48324		4.744469	1.626320	8.356481	0.003452	-0.001480	-0.003280	-0.538574	0.474121	-0.717773	0.594426	-0.146709	-0.225430	-0.757836
48325		4.733028	1.621360	8.366831	0.003290	-0.001784	-0.001952	-0.541016	0.469238	-0.723389	0.594449	-0.146793	-0.225368	-0.757820
48326		4.744518	1.631689	8.375015	0.003998	-0.001774	-0.001067	-0.541016	0.468750	-0.727783	0.594458	-0.146808	-0.225361	-0.757813
48327		4.752908	1.619852	8.367160	0.005509	-0.002307	-0.000554	-0.530518	0.459229	-0.728516	0.594481	-0.146781	-0.225377	-0.757794
48328		4.743318	1.626485	8.385264	0.006483	-0.003015	-0.002648	-0.543457	0.465576	-0.721680	0.594494	-0.146635	-0.225418	-0.757800
48329		4.747708	1.645160	8.371830	0.004886	-0.002400	-0.002300	-0.535156	0.463623	-0.727051	0.594453	-0.146651	-0.225461	-0.757816
48330		4.734852	1.629464	8.374030	0.005764	-0.002555	-0.003138	-0.538330	0.468018	-0.723145	0.594458	-0.146568	-0.225487	-0.757821
48331		4.756995	1.633474	8.353631	0.005558	-0.004658	-0.002524	-0.540771	0.464111	-0.732910	0.594457	-0.146580	-0.225511	-0.757813
48332		4.757397	1.636647	8.362588	0.005678	-0.002472	-0.002277	-0.539062	0.468262	-0.721436	0.594458	-0.146485	-0.225562	-0.757815
48333		4.747963	1.641483	8.371148	0.004176	-0.002411	-0.003184	-0.537109	0.468994	-0.724365	0.594447	-0.146504	-0.225557	-0.757821
48334		4.756108	1.631542	8.372877	0.004884	-0.002400	-0.002300	-0.543457	0.471680	-0.721924	0.594469	-0.146493	-0.225545	-0.757809
48335		4.735648	1.625127	8.363380	0.004156	-0.001469	-0.002396	-0.540771	0.461914	-0.732178	0.594463	-0.146542	-0.225533	-0.757809
48336		4.737507	1.637495	8.370961	0.004873	-0.001929	-0.001906	-0.537598	0.469238	-0.718506	0.594454	-0.146443	-0.225583	-0.757820
48337		4.742049	1.608276	8.376023	0.002269	-0.002874	-0.000571	-0.535645	0.468506	-0.722168	0.594468	-0.146510	-0.225544	-0.757808
48338		4.748040	1.637686	8.370601	0.005761	-0.002555	-0.003138	-0.542480	0.470947	-0.719971	0.594482	-0.146498	-0.225538	-0.757801
48339		4.739050	1.639056	8.359971	0.004080	-0.001856	-0.001929	-0.539551	0.469971	-0.728271	0.594474	-0.146557	-0.225525	-0.757799
48340		4.739168	1.641825	8.369172	0.004004	-0.002244	-0.001461	-0.533203	0.464600	-0.723633	0.594504	-0.146540	-0.225511	-0.757784
48341		4.737788	1.633411	8.370364	0.004014	-0.002714	-0.001855	-0.534180	0.462402	-0.728027	0.594523	-0.146502	-0.225501	-0.757779
48342		4.755818	1.619810	8.363052	0.004089	-0.002327	-0.002322	-0.539551	0.464111	-0.729004	0.594535	-0.146420	-0.225510	-0.757783
48343		4.738689	1.635622	8.369422	0.004721	-0.002703	-0.000970	-0.536865	0.467529	-0.733398	0.594541	-0.146367	-0.225541	-0.757779
48344		4.748927	1.633146	8.359938	0.003285	-0.001784	-0.001951	-0.536377	0.473877	-0.726074	0.594584	-0.146291	-0.225524	-0.757765
48345		4.745127	1.618788	8.382062	0.004172	-0.002411	-0.003183	-0.539307	0.463379	-0.731689	0.594631	-0.146298	-0.225480	-0.757740
48346		4.749635	1.635339	8.359107	0.003295	-0.002255	-0.002345	-0.536377	0.462158	-0.727783	0.594624	-0.146227	-0.225500	-0.757753
48347		4.757790	1.625120	8.360900	0.004003	-0.002243	-0.001461	-0.543213	0.466553	-0.729248	0.594627	-0.146163	-0.225517	-0.757758
48348		4.757879	1.627954	8.370108	0.004860	-0.001457	-0.001512	-0.540771	0.468994	-0.724609	0.594623	-0.146129	-0.225543	-0.757760
48349		4.758197	1.629118	8.369701	0.004087	-0.002327	-0.002322	-0.535645	0.467529	-0.721924	0.594622	-0.146143	-0.225541	-0.757759
48350		4.759120	1.626830	8.350000	0.004804	-0.002786	-0.001831	-0.533447	0.468750	-0.725586	0.594640	-0.146146	-0.225534	-0.757746
48351		4.745865	1.614412	8.371479	0.004879	-0.002399	-0.002299	-0.539062	0.474121	-0.725586	0.594685	-0.146116	-0.225512	-0.757723
48352		4.738718	1.625172	8.359191	0.005577	-0.001916	-0.001022	-0.541748	0.468018	-0.723877	0.594741	-0.146131	-0.225486	-0.757684
48353		4.750699	1.634132	8.357512	0.004748	-0.004114	-0.002150	-0.534668	0.468750	-0.722168	0.594724	-0.146161	-0.225514	-0.757684
48354		4.749465	1.625954	8.358593	0.004877	-0.002399	-0.002299	-0.535645	0.478027	-0.725830	0.594750	-0.146159	-0.225496	-0.757669
48355		4.742045	1.640082	8.365422	0.003954	-0.004043	-0.002172	-0.541504	0.466309	-0.732178	0.594827	-0.146207	-0.225439	-0.757616
48356		4.740854	1.631929	8.366477	0.005678	-0.002941	-0.002670	-0.533203	0.461670	-0.723877	0.594822	-0.146151	-0.225481	-0.757618
48357		4.750895	1.631493	8.366515	0.004084	-0.002327	-0.002322	-0.538086	0.470947	-0.727295	0.594817	-0.146101	-0.225488	-0.757630
48358		4.751255	1.634364	8.375565	0.004662	-0.004030	-0.001288	-0.535889	0.472656	-0.726318	0.594854	-0.146111	-0.225485	-0.757600
48359		4.749688	1.627779	8.386349	0.003440	-0.001482	-0.003280	-0.540771	0.472656	-0.725098	0.594895	-0.146106	-0.225438	-0.757582
48360		4.740479	1.628893	8.375894	0.004139	-0.000998	-0.002004	-0.541748	0.476807	-0.725586	0.594922	-0.146122	-0.225411	-0.757566
48361		4.761881	1.634083	8.365423	0.003272	-0.001313	-0.001558	-0.538574	0.471924	-0.724609	0.594970	-0.146169	-0.225361	-0.757534
48362		4.752400	1.636774	8.364628	0.003420	-0.000540	-0.002494	-0.538330	0.464111	-0.728027	0.594996	-0.146174	-0.225320	-0.757524
48363		4.739251	1.622455	8.376648	0.004726	-0.003172	-0.001363	-0.545410	0.464600	-0.733154	0.594991	-0.146137	-0.225349	-0.757527
48364		4.749196	1.621671	8.376809	0.002553	-0.000855	-0.002048	-0.538086	0.469482	-0.723877	0.594961	-0.146088	-0.225369	-0.757554
48365		4.743661	1.641555	8.363003	0.004156	-0.001940	-0.002790	-0.542725	0.467041	-0.727539	0.594968	-0.146092	-0.225356	-0.757552
48366		4.751741	1.633191	8.374317	0.003868	-0.003958	-0.001310	-0.540283	0.461914	-0.729492	0.594954	-0.146104	-0.225383	-0.757553
48367		4.743123	1.632217	8.354115	0.001696	-0.001641	-0.001996	-0.534180	0.458252	-0.722900	0.594924	-0.146062	-0.225391	-0.757582
48368		4.742961	1.636493	8.373006	0.003988	-0.001771	-0.001067	-0.546631	0.467285	-0.724609	0.594903	-0.146009	-0.225410	-0.757603
48369		4.751190	1.626334	8.374774	0.004016	-0.003184	-0.002246	-0.539551	0.470947	-0.725342	0.594856	-0.146044	-0.225444	-0.757623
48370		4.742609	1.625661	8.354492	0.003307	-0.003198	-0.003130	-0.543213	0.468994	-0.725098	0.594859	-0.146069	-0.225431	-0.757619
48371		4.753988	1.637940	8.372114	0.004071	-0.001855	-0.001929	-0.536865	0.471680	-0.724854	0.594849	-0.146083	-0.225435	-0.757624
48372		4.744954	1.639014	8.361564	0.003371	-0.002340	-0.003205	-0.540771	0.465088	-0.723633	0.594869	-0.146096	-0.225402	-0.757615
48373		4.733932	1.632357	8.362282	0.003996	-0.002242	-0.001460	-0.546875	0.472900	-0.727783	0.594850	-0.146097	-0.225416	-0.757626
48374		4.743842	1.633532	8.371895	0.004815	-0.003727	-0.002617	-0.540771	0.473389	-0.723877	0.594837	-0.146136	-0.225438	-0.757622
48375		4.751792	1.625512	8.383231	0.005093	-0.001238	-0.003704	-0.545410	0.463379	-0.728271	0.594845	-0.146149	-0.225419	-0.757618
48376		4.742332	1.628723	8.382328	0.005718	-0.001140	-0.001960	-0.540527	0.473633	-0.728516	0.594808	-0.146105	-0.225469	-0.757642
48377		4.750062	1.620423	8.393847	0.002560	-0.001326	-0.002441	-0.539551	0.472412	-0.727051	0.594835	-0.146115	-0.225425	-0.757631
48378		4.752512	1.627340	8.372649	0.004143	-0.001469	-0.002397	-0.536865	0.474609	-0.721436	0.594860	-0.146114	-0.225399	-0.757619
48379		4.745068	1.639691	8.369996	0.004087	-0.002798	-0.002714	-0.541016	0.462402	-0.726318	0.594889	-0.146160	-0.225360	-0.757599
48380		4.743472	1.633159	8.380819	0.004078	-0.002326	-0.002321	-0.541016	0.471191	-0.720947	0.594853	-0.146130	-0.225390	-0.757625
48381		4.753079	1.634197	8.390632	0.002633	-0.000940	-0.002910	-0.541016	0.465576	-0.727783	0.594845	-0.146168	-0.225353	-0.757635
48382		4.744352	1.631856	8.360934	0.005734	-0.002082	-0.002745	-0.540283	0.469727	-0.720703	0.594827	-0.146129	-0.225384	-0.757647
48383		4.750578	1.612461	8.364486	0.002641	-0.001411	-0.003302	-0.542725	0.464600	-0.728760	0.594809	-0.146163	-0.225355	-0.757663
48384		4.733879	1.622800	8.342183	0.003985	-0.001769	-0.001067	-0.537109	0.466309	-0.722412	0.594796	-0.146134	-0.225375	-0.757674
48385		4.756349	1.644460	8.368304	0.002576	-0.002269	-0.003226	-0.539307	0.470215	-0.725830	0.594778	-0.146140	-0.225357	-0.757692
48386		4.734064	1.628328	8.360643	0.004850	-0.001454	-0.001514	-0.545654	0.465088	-0.723877	0.594798	-0.146132	-0.225344	-0.757681
48387		4.724482	1.633083	8.369329	0.004932	-0.001539	-0.002375	-0.540771	0.468994	-0.725342	0.594752	-0.146130	-0.225376	-0.757708
48388		4.732696	1.621483	8.361590	0.004306	-0.001639	-0.004119	-0.540039	0.472900	-0.719238	0.594733	-0.146122	-0.225373	-0.757726
48389		4.741538	1.628115	8.400214	0.003505	-0.001096	-0.003749	-0.540527	0.462891	-0.726318	0.594724	-0.146165	-0.225332	-0.757737
48390		4.753795	1.631728	8.369899	0.004858	-0.001925	-0.001906	-0.538330	0.468506	-0.719727	0.594701	-0.146128	-0.225360	-0.757753
48391		4.746307	1.644127	8.367244	0.004148	-0.001939	-0.002789	-0.535400	0.469238	-0.726318	0.594689	-0.146150	-0.225344	-0.757764
48392		4.743001	1.626292	8.370278	0.003274	-0.001783	-0.001950	-0.541748	0.464844	-0.729492	0.594716	-0.146135	-0.225311	-0.757755
48393		4.735654	1.638642	8.367552	0.005592	-0.003324	-0.002200	-0.532959	0.470215	-0.724121	0.594698	-0.146101	-0.225354	-0.757763
48394		4.745508	1.639581	8.377246	0.000827	-0.001957	-0.001547	-0.534424	0.471436	-0.722656	0.594734	-0.146117	-0.225285	-0.757752
48395		4.736597	1.640346	8.366684	0.004800	-0.003254	-0.002222	-0.540283	0.465820	-0.725098	0.594763	-0.146132	-0.225263	-0.757733
48396		4.746742	1.639720	8.366694	0.003918	-0.002626	-0.000991	-0.538330	0.476074	-0.723145	0.594756	-0.146130	-0.225271	-0.757737
48397		4.734119	1.623681	8.369035	0.005509	-0.003239	-0.001339	-0.541992	0.463135	-0.714844	0.594797	-0.146171	-0.225247	-0.757704
48398		4.744107	1.625022	8.378576	0.004799	-0.003254	-0.002222	-0.538086	0.473877	-0.729492	0.594733	-0.146214	-0.225276	-0.757736
48399		4.734681	1.631378	8.396693	0.003844	-0.003011	-0.000522	-0.532471	0.457764	-0.721191	0.594785	-0.146221	-0.225247	-0.757703
48400		4.745289	1.625434	8.368003	0.005001	-0.001153	-0.002844	-0.540771	0.472168	-0.723877	0.594758	-0.146155	-0.225265	-0.757732
48401		4.747220	1.637765	8.375475	0.003134	-0.003027	-0.001404	-0.540283	0.470703	-0.723633	0.594766	-0.146196	-0.225242	-0.757724
48402		4.745789	1.631067	8.386274	0.004007	-0.003183	-0.002244	-0.543213	0.464844	-0.726807	0.594763	-0.146224	-0.225234	-0.757724
48403		4.739131	1.638105	8.354703	0.005571	-0.002380	-0.001416	-0.534180	0.473389	-0.727295	0.594741	-0.146201	-0.225268	-0.757735
48404		4.737379	1.633424	8.375120	0.003998	-0.002711	-0.001851	-0.542236	0.470459	-0.727539	0.594791	-0.146199	-0.225231	-0.757707
48405		4.745937	1.621631	8.367239	0.004797	-0.003253	-0.002222	-0.532959	0.464355	-0.725342	0.594788	-0.146205	-0.225241	-0.757706
48406		4.738217	1.637593	8.383660	0.004779	-0.002310	-0.001438	-0.540771	0.478271	-0.726318	0.594807	-0.146163	-0.225240	-0.757699
48407		4.739054	1.635247	8.363988	0.004861	-0.002396	-0.002299	-0.546387	0.474365	-0.729248	0.594843	-0.146195	-0.225207	-0.757675
48408		4.739729	1.634791	8.353866	0.005578	-0.002852	-0.001808	-0.536377	0.464600	-0.723877	0.594848	-0.146211	-0.225218	-0.757664
48409		4.749440	1.637729	8.373079	0.002423	-0.003042	-0.002286	-0.538086	0.466797	-0.727539	0.594832	-0.146211	-0.225209	-0.757679
48410		4.738727	1.631181	8.373662	0.006312	-0.004251	-0.002101	-0.535645	0.463623	-0.731201	0.594832	-0.146188	-0.225244	-0.757673
48411		4.748765	1.632567	8.383165	0.003995	-0.002711	-0.001851	-0.538574	0.468750	-0.719971	0.594841	-0.146131	-0.225255	-0.757674
48412		4.751559	1.639549	8.361689	0.004721	-0.003639	-0.001752	-0.535156	0.466797	-0.734619	0.594833	-0.146165	-0.225256	-0.757674
48413		4.738935	1.625358	8.373554	0.005357	-0.004008	-0.000400	-0.537354	0.465332	-0.721924	0.594878	-0.146109	-0.225277	-0.757643
48414		4.745413	1.651313	8.348535	0.004793	-0.003253	-0.002221	-0.537842	0.467041	-0.732422	0.594862	-0.146110	-0.225289	-0.757652
48415		4.749881	1.625947	8.372870	0.003848	-0.003482	-0.000913	-0.544678	0.467285	-0.728271	0.594885	-0.146079	-0.225296	-0.757637
48416		4.750656	1.626909	8.372243	0.003865	-0.004426	-0.001696	-0.538574	0.468506	-0.731445	0.594858	-0.146096	-0.225323	-0.757647
48417		4.753273	1.637501	8.369815	0.005437	-0.004094	-0.001261	-0.532227	0.472412	-0.722656	0.594880	-0.146072	-0.225345	-0.757628
48418		4.744680	1.638846	8.358958	0.006308	-0.004251	-0.002101	-0.536865	0.462646	-0.720215	0.594922	-0.146082	-0.225340	-0.757594
48419		4.734118	1.632187	8.359495	0.002202	-0.004199	-0.000877	-0.537109	0.470459	-0.724365	0.594899	-0.146112	-0.225339	-0.757607
48420		4.744116	1.634897	8.378596	0.003936	-0.004041	-0.002165	-0.542725	0.468262	-0.720459	0.594909	-0.146134	-0.225332	-0.757597
48421		4.746847	1.643777	8.366596	0.006217	-0.003692	-0.000849	-0.541016	0.473145	-0.722900	0.594893	-0.146165	-0.225357	-0.757596
48422		4.753602	1.624414	8.369944	0.004636	-0.003552	-0.000891	-0.542969	0.464844	-0.723877	0.594908	-0.146208	-0.225347	-0.757579
48423		4.738691	1.647869	8.364789	0.004015	-0.004127	-0.003026	-0.541748	0.473145	-0.726074	0.594858	-0.146223	-0.225376	-0.757607
48424		4.737511	1.641196	8.375484	0.002991	-0.004269	-0.000855	-0.539307	0.469971	-0.720215	0.594871	-0.146271	-0.225360	-0.757592
48425		4.740038	1.649790	8.363647	0.004837	-0.001451	-0.001517	-0.544678	0.462402	-0.726807	0.594875	-0.146285	-0.225342	-0.757592
48426		4.755889	1.630291	8.377338	0.003127	-0.003026	-0.001403	-0.538818	0.463135	-0.730957	0.594831	-0.146280	-0.225367	-0.757620
48427		4.746865	1.632968	8.376305	0.003998	-0.003183	-0.002243	-0.537354	0.467285	-0.732910	0.594820	-0.146236	-0.225391	-0.757630
48428		4.749004	1.643453	8.374152	0.004038	-0.000909	-0.001147	-0.544678	0.464844	-0.722900	0.594854	-0.146177	-0.225380	-0.757618
48429		4.747534	1.634948	8.375540	0.003199	-0.002641	-0.001872	-0.547363	0.464844	-0.735107	0.594807	-0.146196	-0.225388	-0.757648
48430		4.740230	1.647019	8.372802	0.003207	-0.003113	-0.002264	-0.545898	0.461182	-0.721436	0.594772	-0.146167	-0.225419	-0.757672
48431		4.758169	1.635350	8.375057	0.004940	-0.002955	-0.003552	-0.546631	0.468750	-0.718018	0.594689	-0.146167	-0.225462	-0.757725
48432		4.741337	1.647608	8.362218	0.003973	-0.001766	-0.001069	-0.533936	0.464844	-0.725342	0.594649	-0.146215	-0.225452	-0.757750
48433		4.749327	1.640904	8.383199	0.002981	-0.003796	-0.000463	-0.539307	0.461670	-0.729492	0.594671	-0.146212	-0.225444	-0.757736
48434		4.748136	1.630490	8.374969	0.003400	-0.000541	-0.002499	-0.541748	0.465088	-0.718262	0.594656	-0.146150	-0.225447	-0.757758
48435		4.738894	1.631508	8.364547	0.004842	-0.001923	-0.001909	-0.532471	0.463379	-0.731934	0.594618	-0.146164	-0.225451	-0.757785
48436		4.750587	1.640256	8.362929	0.003182	-0.001696	-0.001090	-0.541504	0.468506	-0.736084	0.594661	-0.146099	-0.225441	-0.757767
48437		4.739200	1.636901	8.383001	0.001698	-0.002589	-0.002775	-0.538574	0.467285	-0.721924	0.594666	-0.146071	-0.225431	-0.757771
48438		4.741723	1.643585	8.361679	0.004052	-0.001853	-0.001930	-0.534424	0.465576	-0.723877	0.594659	-0.146075	-0.225417	-0.757780
48439		4.749472	1.637071	8.382769	0.003262	-0.001783	-0.001951	-0.547119	0.471680	-0.731201	0.594670	-0.146058	-0.225397	-0.757780
48440		4.731056	1.637851	8.362128	0.004696	-0.002692	-0.000969	-0.541260	0.465332	-0.723877	0.594669	-0.146062	-0.225404	-0.757778
48441		4.748654	1.626117	8.364599	0.003543	0.000229	-0.003439	-0.536865	0.470947	-0.730225	0.594637	-0.146036	-0.225387	-0.757814
48442		4.740903	1.638158	8.362108	0.001690	-0.002117	-0.002383	-0.535400	0.469971	-0.723389	0.594663	-0.146030	-0.225348	-0.757805
48443		4.737554	1.620119	8.365353	0.004108	-0.000523	-0.001617	-0.536377	0.470703	-0.727051	0.594692	-0.146017	-0.225312	-0.757796
48444		4.750965	1.638347	8.361988	0.003986	-0.002710	-0.001851	-0.536865	0.466309	-0.719971	0.594719	-0.146014	-0.225295	-0.757781
48445		4.730295	1.635054	8.371859	0.003117	-0.002553	-0.001011	-0.538818	0.471924	-0.725098	0.594715	-0.146035	-0.225275	-0.757786
48446		4.740290	1.634192	8.371984	0.003261	-0.001783	-0.001950	-0.536133	0.463379	-0.727539	0.594730	-0.146047	-0.225242	-0.757782
48447		4.749925	1.635160	8.381798	0.001833	-0.001347	-0.003323	-0.541992	0.462891	-0.721680	0.594716	-0.146013	-0.225223	-0.757805
48448		4.750804	1.630594	8.352664	0.003985	-0.002710	-0.001851	-0.534424	0.468506	-0.723145	0.594671	-0.146018	-0.225235	-0.757835
48449		4.731875	1.638684	8.370256	0.004558	-0.003934	-0.000420	-0.540039	0.459473	-0.715576	0.594700	-0.146030	-0.225231	-0.757811
48450		4.751757	1.634362	8.361229	0.002542	-0.001329	-0.002441	-0.542969	0.469482	-0.724365	0.594632	-0.146041	-0.225221	-0.757866
48451		4.742145	1.639098	8.369975	0.006482	-0.001203	-0.001946	-0.541504	0.464600	-0.716064	0.594622	-0.146026	-0.225228	-0.757874
48452		4.740241	1.634712	8.390521	0.004128	-0.001940	-0.002790	-0.539062	0.464355	-0.725342	0.594565	-0.146049	-0.225223	-0.757916
48453		4.752356	1.638080	8.360161	0.003403	-0.001014	-0.002890	-0.544678	0.466309	-0.723877	0.594545	-0.146021	-0.225214	-0.757940
48454		4.741088	1.633146	8.370660	0.003195	-0.002640	-0.001871	-0.532471	0.467041	-0.724121	0.594504	-0.146040	-0.225212	-0.757969
48455		4.730205	1.624706	8.361941	0.004981	-0.001152	-0.002849	-0.542236	0.468750	-0.723877	0.594527	-0.146002	-0.225198	-0.757962
48456		4.730215	1.627664	8.371203	0.002549	-0.001802	-0.002832	-0.538574	0.472168	-0.723633	0.594499	-0.146018	-0.225174	-0.757989
48457		4.760925	1.632947	8.370696	0.003395	-0.000541	-0.002500	-0.534668	0.469727	-0.728760	0.594508	-0.146021	-0.225130	-0.757994
48458		4.749835	1.626237	8.371603	0.003281	-0.003201	-0.003122	-0.541504	0.466309	-0.727539	0.594529	-0.146009	-0.225117	-0.757984
48459		4.742519	1.636696	8.359311	0.004901	-0.001064	-0.001988	-0.543457	0.472900	-0.724609	0.594519	-0.145977	-0.225120	-0.757996
48460		4.742462	1.639632	8.368614	0.003322	-0.000925	-0.002030	-0.542725	0.464844	-0.727295	0.594512	-0.145995	-0.225084	-0.758009
48461		4.738960	1.623516	8.381462	0.003258	-0.001783	-0.001950	-0.543457	0.468506	-0.725342	0.594487	-0.145981	-0.225083	-0.758032
48462		4.729692	1.626008	8.380610	0.002397	-0.002098	-0.001500	-0.542236	0.464355	-0.731201	0.594466	-0.146000	-0.225061	-0.758051
48463		4.739674	1.625134	8.380744	0.003265	-0.002256	-0.002341	-0.539307	0.470459	-0.724854	0.594447	-0.145970	-0.225070	-0.758069
48464		4.740289	1.622340	8.361251	0.003242	-0.000837	-0.001169	-0.541992	0.468994	-0.723633	0.594461	-0.145971	-0.225034	-0.758069
48465		4.742301	1.632527	8.359183	0.002396	-0.002098	-0.001500	-0.531494	0.467773	-0.729736	0.594444	-0.145995	-0.225006	-0.758086
48466		4.742136	1.638875	8.387575	0.003264	-0.002256	-0.002341	-0.544678	0.464355	-0.725586	0.594485	-0.145960	-0.224989	-0.758066
48467		4.731166	1.632253	8.388409	0.004842	-0.002393	-0.002299	-0.541992	0.465576	-0.719482	0.594441	-0.145948	-0.225009	-0.758097
48468		4.731792	1.629897	8.368823	0.004977	-0.001152	-0.002849	-0.542969	0.470215	-0.722656	0.594397	-0.145945	-0.225006	-0.758133
48469		4.743141	1.640753	8.376792	0.004117	-0.001467	-0.002400	-0.533936	0.466553	-0.725342	0.594373	-0.145958	-0.224986	-0.758155
48470		4.733973	1.641848	8.366307	0.004912	-0.002009	-0.002770	-0.535645	0.466797	-0.724609	0.594386	-0.145926	-0.224984	-0.758151
48471		4.742393	1.629993	8.358570	0.003192	-0.002640	-0.001870	-0.538086	0.468750	-0.714844	0.594393	-0.145924	-0.224969	-0.758151
48472		4.740670	1.627118	8.388600	0.003995	-0.003654	-0.002630	-0.536377	0.463623	-0.723145	0.594359	-0.145973	-0.224953	-0.758172
48473		4.741282	1.626417	8.378544	0.004115	-0.001467	-0.002400	-0.537354	0.469238	-0.725342	0.594349	-0.145947	-0.224948	-0.758187
48474		4.739917	1.616274	8.370406	0.004115	-0.001467	-0.002400	-0.541748	0.476074	-0.710938	0.594357	-0.145934	-0.224929	-0.758189
48475		4.735655	1.651209	8.383216	0.004782	-0.003723	-0.002609	-0.528076	0.459229	-0.727051	0.594318	-0.146026	-0.224896	-0.758211
48476		4.742180	1.633702	8.396314	0.004689	-0.002688	-0.000968	-0.531982	0.472656	-0.720947	0.594358	-0.145963	-0.224914	-0.758187
48477		4.744707	1.642352	8.384388	0.003915	-0.003566	-0.001769	-0.540039	0.465332	-0.729492	0.594392	-0.145990	-0.224885	-0.758163
48478		4.743982	1.629953	8.366480	0.002180	-0.003251	-0.000088	-0.534424	0.466797	-0.728027	0.594398	-0.145990	-0.224878	-0.758161
48479		4.736559	1.643795	8.373258	0.005477	-0.002757	-0.000948	-0.547363	0.463135	-0.716553	0.594433	-0.145957	-0.224888	-0.758137
48480		4.735755	1.631566	8.355362	0.002258	-0.003340	-0.000949	-0.532715	0.459961	-0.724121	0.594352	-0.146014	-0.224881	-0.758192
48481		4.745449	1.634599	8.374592	0.004980	-0.001625	-0.003241	-0.538086	0.463379	-0.722900	0.594345	-0.145957	-0.224896	-0.758204
48482		4.746211	1.633862	8.364453	0.003700	-0.004718	-0.000357	-0.536377	0.471436	-0.723145	0.594334	-0.145974	-0.224910	-0.758205
48483		4.745034	1.629054	8.384727	0.003848	-0.004423	-0.001688	-0.535889	0.466797	-0.722900	0.594346	-0.146006	-0.224899	-0.758192
48484		4.747818	1.637719	8.372639	0.004636	-0.004491	-0.001668	-0.531494	0.457275	-0.729736	0.594347	-0.146017	-0.224910	-0.758186
48485		4.740902	1.647938	8.360130	0.003046	-0.003408	-0.000928	-0.535156	0.464844	-0.715576	0.594368	-0.145964	-0.224932	-0.758173
48486		4.747371	1.629953	8.373378	0.002392	-0.002098	-0.001500	-0.537842	0.461426	-0.728027	0.594351	-0.145990	-0.224898	-0.758191
48487		4.746133	1.621308	8.374738	0.004537	-0.002983	0.000363	-0.534424	0.474365	-0.721680	0.594363	-0.145960	-0.224919	-0.758182
48488		4.738838	1.633548	8.371901	0.004841	-0.002866	-0.002690	-0.529297	0.464355	-0.727295	0.594389	-0.145978	-0.224896	-0.758165
48489		4.749145	1.630936	8.362327	0.002250	-0.002866	-0.000558	-0.542480	0.468750	-0.724854	0.594441	-0.145956	-0.224880	-0.758133
48490		4.740660	1.629585	8.342080	0.004408	-0.004697	0.000525	-0.539795	0.475830	-0.726318	0.594439	-0.145990	-0.224889	-0.758126
48491		4.738858	1.630537	8.391165	0.005473	-0.002756	-0.000948	-0.539307	0.465820	-0.722656	0.594471	-0.146004	-0.224876	-0.758101
48492		4.741605	1.637370	8.369588	0.004549	-0.003929	-0.000417	-0.538574	0.470459	-0.723145	0.594463	-0.146018	-0.224886	-0.758102
48493		4.751568	1.642320	8.398151	0.004555	-0.004402	-0.000806	-0.537842	0.463623	-0.726318	0.594471	-0.146048	-0.224887	-0.758090
48494		4.749352	1.620805	8.381856	0.005272	-0.004854	-0.000315	-0.544922	0.468750	-0.722900	0.594474	-0.146042	-0.224921	-0.758079
48495		4.744027	1.644408	8.386554	0.005342	-0.004470	-0.000786	-0.535400	0.467285	-0.718994	0.594443	-0.146073	-0.224938	-0.758092
48496		4.764099	1.640446	8.377305	0.004838	-0.002867	-0.002690	-0.538086	0.465820	-0.726074	0.594433	-0.146079	-0.224934	-0.758099
48497		4.743857	1.635425	8.377530	0.002984	-0.004738	-0.001236	-0.538818	0.470947	-0.721924	0.594429	-0.146095	-0.224941	-0.758097
48498		4.754524	1.631049	8.358226	0.004133	-0.003361	-0.003961	-0.538086	0.473877	-0.723389	0.594407	-0.146114	-0.224933	-0.758114
48499		4.745418	1.633618	8.357281	0.001531	-0.002414	-0.001048	-0.532715	0.466797	-0.722656	0.594427	-0.146154	-0.224881	-0.758106
48500		4.734140	1.632120	8.386927	0.002408	-0.003519	-0.002668	-0.543701	0.471436	-0.720947	0.594434	-0.146162	-0.224864	-0.758103
48501		4.735087	1.629512	8.367182	0.006264	-0.003297	-0.001319	-0.541748	0.471924	-0.720947	0.594414	-0.146186	-0.224872	-0.758112
48502		4.737332	1.642293	8.374283	0.005559	-0.003792	-0.002589	-0.539795	0.471924	-0.721191	0.594391	-0.146214	-0.224876	-0.758123
48503		4.745749	1.632417	8.376038	0.003964	-0.002235	-0.001460	-0.542236	0.469971	-0.721191	0.594392	-0.146236	-0.224851	-0.758126
48504		4.759367	1.650685	8.372364	0.003983	-0.003655	-0.002629	-0.538818	0.471924	-0.720703	0.594358	-0.146268	-0.224846	-0.758148
48505		4.745232	1.623250	8.367257	0.003963	-0.002235	-0.001460	-0.542236	0.467773	-0.721436	0.594362	-0.146290	-0.224819	-0.758149
48506		4.745694	1.622441	8.357292	0.004104	-0.001468	-0.002402	-0.539062	0.470215	-0.717041	0.594331	-0.146292	-0.224805	-0.758176
48507		4.736230	1.625131	8.356530	0.002600	-0.000948	-0.002913	-0.534912	0.463867	-0.735352	0.594306	-0.146315	-0.224758	-0.758205
48508		4.756826	1.637859	8.384161	0.004098	-0.000994	-0.002013	-0.540283	0.472168	-0.723389	0.594343	-0.146238	-0.224767	-0.758189
48509		4.747438	1.638841	8.373826	0.004245	-0.000700	-0.003345	-0.547852	0.469482	-0.729736	0.594333	-0.146232	-0.224739	-0.758206
48510		4.747748	1.636134	8.354454	0.002593	-0.000474	-0.002523	-0.543701	0.465820	-0.726318	0.594300	-0.146221	-0.224715	-0.758242
48511		4.734607	1.623654	8.376469	0.003969	-0.002708	-0.001849	-0.544189	0.472900	-0.723145	0.594270	-0.146217	-0.224722	-0.758264
48512		4.736940	1.630366	8.355108	0.003386	-0.001016	-0.002893	-0.541504	0.467041	-0.726074	0.594244	-0.146232	-0.224687	-0.758291
48513		4.748228	1.642930	8.372577	0.003962	-0.002234	-0.001459	-0.538818	0.474609	-0.713867	0.594234	-0.146225	-0.224684	-0.758302
48514		4.737461	1.636123	8.373414	0.003122	-0.003970	-0.002176	-0.536621	0.466553	-0.726562	0.594213	-0.146299	-0.224646	-0.758315
48515		4.730181	1.648288	8.370553	0.005460	-0.002280	-0.000560	-0.543701	0.471191	-0.721680	0.594237	-0.146271	-0.224655	-0.758299
48516		4.746551	1.627162	8.374624	0.003833	-0.003948	-0.001295	-0.544434	0.472412	-0.723633	0.594213	-0.146312	-0.224646	-0.758312
48517		4.748839	1.637633	8.372271	0.004742	-0.001828	-0.001051	-0.540283	0.464355	-0.729492	0.594204	-0.146326	-0.224630	-0.758322
48518		4.757324	1.627531	8.374048	0.003762	-0.004331	-0.000824	-0.538574	0.464355	-0.719727	0.594201	-0.146318	-0.224652	-0.758319
48519		4.757981	1.630565	8.382948	0.006187	-0.003678	-0.000847	-0.530518	0.467529	-0.728760	0.594187	-0.146318	-0.224676	-0.758323
48520		4.747471	1.621874	8.374155	0.001540	-0.003361	-0.001825	-0.539062	0.469238	-0.722900	0.594228	-0.146310	-0.224655	-0.758298
48521		4.749818	1.632288	8.371774	0.005546	-0.003317	-0.002199	-0.537109	0.465088	-0.725342	0.594221	-0.146312	-0.224665	-0.758301
48522		4.738975	1.629575	8.391604	0.004554	-0.004873	-0.001193	-0.541016	0.463379	-0.724121	0.594221	-0.146314	-0.224688	-0.758293
48523		4.757251	1.617846	8.393755	0.003895	-0.003091	-0.001377	-0.527100	0.466309	-0.715088	0.594197	-0.146310	-0.224698	-0.758310
48524		4.742081	1.639175	8.379083	0.004029	-0.001851	-0.001931	-0.539062	0.465088	-0.721191	0.594225	-0.146306	-0.224671	-0.758297
48525		4.750441	1.628962	8.380960	0.002326	-0.003429	-0.001805	-0.535645	0.465576	-0.719482	0.594199	-0.146327	-0.224659	-0.758317
48526		4.751012	1.627844	8.370988	0.003236	-0.001309	-0.001562	-0.543457	0.466553	-0.734863	0.594198	-0.146323	-0.224633	-0.758326
48527		4.753125	1.636322	8.359241	0.003317	-0.001874	-0.002811	-0.549072	0.469482	-0.729492	0.594186	-0.146285	-0.224640	-0.758341
48528		4.749189	1.626173	8.400980	0.003521	-0.000250	-0.003837	-0.539062	0.473145	-0.728271	0.594136	-0.146263	-0.224624	-0.758388
48529		4.732074	1.634466	8.369237	0.004238	-0.000701	-0.003346	-0.539551	0.469727	-0.729736	0.594148	-0.146240	-0.224601	-0.758391
48530		4.741740	1.631972	8.359974	0.002652	0.000382	-0.002607	-0.538086	0.461182	-0.726318	0.594158	-0.146207	-0.224565	-0.758400
48531		4.749230	1.627373	8.390859	0.001743	-0.001738	-0.002850	-0.537109	0.468506	-0.725586	0.594133	-0.146184	-0.224554	-0.758427
48532		4.732093	1.639067	8.378195	0.003311	-0.001399	-0.002422	-0.541504	0.467529	-0.728271	0.594139	-0.146169	-0.224534	-0.758431
48533		4.749939	1.625468	8.371096	0.004097	-0.001467	-0.002403	-0.531982	0.470459	-0.725586	0.594128	-0.146145	-0.224529	-0.758445
48534		4.738624	1.620640	8.381759	0.003304	-0.000926	-0.002033	-0.529541	0.463867	-0.722656	0.594170	-0.146124	-0.224498	-0.758426
48535		4.732548	1.642216	8.377321	0.003455	-0.001107	-0.003754	-0.534180	0.465576	-0.730713	0.594181	-0.146086	-0.224484	-0.758429
48536		4.750322	1.630551	8.379757	0.003252	-0.002730	-0.002728	-0.530762	0.474365	-0.720947	0.594198	-0.146055	-0.224488	-0.758420
48537		4.731717	1.630984	8.359287	0.003234	-0.001308	-0.001561	-0.537842	0.464355	-0.719727	0.594250	-0.146064	-0.224441	-0.758392
48538		4.738159	1.613091	8.372675	0.002955	-0.002840	0.000326	-0.533447	0.463623	-0.726807	0.594245	-0.146083	-0.224425	-0.758397
48539		4.761644	1.625551	8.350306	0.003175	-0.002639	-0.001867	-0.536865	0.473633	-0.725342	0.594257	-0.146059	-0.224424	-0.758392
48540		4.740946	1.624106	8.369907	0.003105	-0.003022	-0.001395	-0.543701	0.469971	-0.723389	0.594283	-0.146080	-0.224400	-0.758375
48541		4.751184	1.623229	8.369873	0.003035	-0.003405	-0.000923	-0.543213	0.467285	-0.731934	0.594261	-0.146113	-0.224385	-0.758390
48542		4.732633	1.627427	8.368378	0.003897	-0.003564	-0.001765	-0.541260	0.468506	-0.719971	0.594248	-0.146104	-0.224400	-0.758398
48543		4.742799	1.630878	8.387280	0.006198	-0.005096	-0.002013	-0.540771	0.465820	-0.721436	0.594217	-0.146129	-0.224428	-0.758409
48544		4.762945	1.627573	8.377825	0.009541	-0.003268	-0.002575	-0.535645	0.470947	-0.725342	0.594190	-0.146097	-0.224482	-0.758420
48545		4.747808	1.651852	8.362499	0.023417	-0.003627	-0.007110	-0.534180	0.472168	-0.719727	0.594195	-0.145947	-0.224672	-0.758389
48546		4.755138	1.594733	8.393854	0.045986	-0.003391	-0.011131	-0.541016	0.466797	-0.729736	0.594202	-0.145636	-0.225067	-0.758326
48547		4.732703	1.691149	8.344102	0.043681	-0.003280	-0.012046	-0.541260	0.467773	-0.730225	0.594173	-0.145307	-0.225469	-0.758293
48548		4.743238	1.650287	8.352669	0.035063	0.000212	-0.010788	-0.533936	0.462891	-0.726807	0.594155	-0.145018	-0.225756	-0.758277
48549		4.733279	1.659081	8.350975	0.022854	-0.000605	-0.007850	-0.540283	0.461670	-0.730957	0.594154	-0.144824	-0.225931	-0.758263
48550		4.721719	1.661066	8.380239	0.008028	-0.003226	-0.003467	-0.530029	0.468018	-0.726807	0.594136	-0.144773	-0.225986	-0.758270
48551		4.724427	1.667120	8.358677	-0.004312	-0.004333	0.000804	-0.543457	0.459473	-0.728271	0.594194	-0.144851	-0.225900	-0.758235
48552		4.723962	1.653353	8.350866	-0.017140	-0.005747	0.001615	-0.546875	0.465820	-0.728760	0.594142	-0.145032	-0.225728	-0.758292
48553		4.726211	1.610243	8.408461	-0.017829	-0.010040	0.005955	-0.534912	0.463867	-0.725342	0.594122	-0.145291	-0.225561	-0.758308
48554		4.705897	1.640586	8.400000	-0.005448	-0.021179	0.001169	-0.541016	0.465332	-0.726318	0.594092	-0.145534	-0.225602	-0.758273
48555		4.654732	1.665063	8.450043	0.034720	-0.047261	0.001786	-0.544434	0.462402	-0.724854	0.594045	-0.145735	-0.226215	-0.758088
48556		4.720154	1.740820	8.407929	0.074098	-0.075252	0.008676	-0.541992	0.466064	-0.726807	0.594032	-0.145930	-0.227401	-0.757706
48557		4.907437	1.662031	8.207484	0.046165	-0.070066	0.014304	-0.546387	0.462646	-0.724854	0.594073	-0.146300	-0.228264	-0.757343
48558		4.903945	1.635369	8.176436	0.021232	-0.033874	0.002004	-0.539307	0.463623	-0.724121	0.594026	-0.146480	-0.228651	-0.757229
48559		4.749719	1.652283	8.180858	-0.034830	0.022213	0.008604	-0.540527	0.463623	-0.725342	0.594140	-0.146557	-0.228074	-0.757299
48560		4.619656	1.770422	8.435689	-0.019474	0.002966	0.025142	-0.542480	0.468506	-0.717285	0.594375	-0.146746	-0.227759	-0.757172
48561		4.633843	1.954892	8.399362	-0.070602	0.048485	0.098680	-0.539551	0.467041	-0.727051	0.595323	-0.147131	-0.226466	-0.756741
48562		4.861815	1.217276	8.366633	-0.084217	0.054496	0.094429	-0.533447	0.469482	-0.728271	0.596235	-0.147505	-0.225030	-0.756378
48563		4.804117	1.439416	8.293438	-0.059630	0.026076	0.063216	-0.550049	0.481445	-0.722900	0.596837	-0.147865	-0.224098	-0.756109
48564		4.842003	1.654178	8.292663	-0.062573	0.034636	0.041430	-0.533691	0.477295	-0.725342	0.597183	-0.148173	-0.223087	-0.756075
48565		4.615110	1.695596	8.337177	-0.124054	0.078924	0.084562	-0.533203	0.473389	-0.713623	0.598006	-0.148595	-0.221100	-0.755925
48566		4.757485	1.622194	8.578443	-0.205001	0.067059	0.127235	-0.533936	0.476562	-0.716309	0.598987	-0.149868	-0.218355	-0.755695
48567		4.808321	1.490735	8.644112	-0.139141	-0.014834	0.105095	-0.530273	0.489258	-0.717285	0.599641	-0.151345	-0.216897	-0.755302
48568		4.805805	1.367454	8.656717	0.028651	-0.129993	0.022471	-0.531738	0.488281	-0.721924	0.599561	-0.152438	-0.218026	-0.754820
48569		4.224844	1.368296	9.420506	0.225424	-0.363052	-0.028464	-0.535400	0.480713	-0.711914	0.598746	-0.154093	-0.222863	-0.753718
48570		1.368988	1.423433	13.475904	0.706602	-1.843435	0.044115	-0.571289	0.477783	-0.696777	0.595212	-0.166256	-0.243091	-0.747655
48571		0.871529	3.095658	14.673289	0.571118	-5.090536	0.810276	-0.652832	0.476318	-0.613281	0.587258	-0.211690	-0.283966	-0.727790
48572		5.134242	2.883993	12.840682	0.522023	-7.733095	1.435928	-0.748535	0.489502	-0.491699	0.571312	-0.282266	-0.340050	-0.691588
48573		16.705611	1.126759	13.849707	0.952648	-7.291391	0.820440	-0.811768	0.491211	-0.356689	0.548176	-0.340788	-0.395790	-0.653235
48574		20.978502	0.712629	3.917636	0.821738	-3.457459	0.043059	-0.843750	0.468994	-0.297363	0.534129	-0.363405	-0.425478	-0.633728
48575		24.485736	0.759243	-4.807074	-0.058986	0.603320	1.389329	-0.804443	0.504150	-0.324707	0.547580	-0.366321	-0.414608	-0.627746
48576		2.799352	-3.233477	-8.812792	1.314208	2.989480	0.592300	-0.765625	0.507568	-0.397705	0.573267	-0.336445	-0.401373	-0.630135
48577		0.493451	-1.313351	-5.306956	2.251222	1.757153	-0.168784	-0.731445	0.472412	-0.460205	0.589921	-0.305302	-0.406939	-0.627045
48578		0.666243	1.076067	-1.879615	1.572292	1.191977	-0.495318	-0.722168	0.448975	-0.494141	0.598125	-0.281519	-0.412195	-0.626968
48579		-0.050532	2.024480	-0.798593	0.248354	0.636663	-0.264955	-0.713135	0.438965	-0.514160	0.600329	-0.273239	-0.410254	-0.629791
48580		-0.676827	2.739509	0.525602	-1.043681	-0.116722	0.121340	-0.717041	0.460938	-0.488770	0.597195	-0.282532	-0.402441	-0.633699
48581		-0.273842	1.966020	1.337357	-1.792075	-0.661407	0.143309	-0.729248	0.487549	-0.456543	0.588547	-0.301832	-0.392547	-0.639075
48582		0.650729	0.874053	1.023231	-1.800778	-0.774945	-0.115485	-0.739990	0.512207	-0.423096	0.576884	-0.320640	-0.384163	-0.645611
48583		-0.014672	-0.027884	-1.512258	-1.364969	-1.003372	-0.518125	-0.766602	0.512695	-0.383545	0.562323	-0.336031	-0.382349	-0.651679
48584		3.697024	1.491605	-0.372586	-1.933109	-1.729125	-0.424666	-0.791992	0.528809	-0.312988	0.542200	-0.361512	-0.380318	-0.656267
48585		32.337709	-7.108674	4.277387	-1.782995	1.664605	0.258347	-0.778320	0.556641	-0.329590	0.543892	-0.361072	-0.353042	-0.670202
48586		21.243073	4.463927	19.952806	0.625904	7.857137	-2.133866	-0.723633	0.513428	-0.482910	0.560694	-0.279904	-0.312748	-0.713768
48587		4.001805	3.813443	6.320024	-0.146648	7.833288	-1.633882	-0.631104	0.493408	-0.617676	0.573458	-0.203492	-0.260768	-0.749491
48588		-5.400257	2.461732	21.594119	-0.900425	5.363210	-0.323412	-0.553955	0.500977	-0.684814	0.584415	-0.158320	-0.214085	-0.766526
48589		2.292722	3.110692	13.138273	-0.179781	-0.068057	0.224588	-0.552734	0.512695	-0.676758	0.586033	-0.160976	-0.212333	-0.765223
48590		5.527348	-0.773968	8.730798	0.478696	-1.049211	0.221838	-0.567383	0.508301	-0.671387	0.586272	-0.168180	-0.224021	-0.760142
48591		3.152253	0.569996	11.560651	0.699311	-2.064882	-0.106768	-0.603760	0.492432	-0.640869	0.580733	-0.182366	-0.245839	-0.754357
48592		2.480375	2.709846	12.286349	0.637814	-3.952141	0.311308	-0.664062	0.483154	-0.584229	0.572216	-0.215771	-0.279408	-0.740231
48593		3.700903	3.731529	10.972495	0.477440	-6.104198	0.910974	-0.732178	0.481934	-0.492432	0.558850	-0.271357	-0.324030	-0.713482
48594		13.150154	2.057861	10.950784	0.628259	-6.626675	0.752585	-0.797852	0.499023	-0.368164	0.538851	-0.328081	-0.372049	-0.680868
48595		23.990152	2.236025	9.107772	0.128971	-3.066369	-0.053935	-0.827637	0.486572	-0.308594	0.524199	-0.352857	-0.393591	-0.667678
48596		22.443632	1.132983	0.694574	0.190237	0.988593	0.634948	-0.797363	0.497803	-0.339355	0.535041	-0.346458	-0.385729	-0.667017
48597		9.568864	0.116005	-3.463171	0.349067	4.469559	0.528518	-0.740234	0.500488	-0.445557	0.561639	-0.308854	-0.355757	-0.680153
48598		-3.009376	-1.800963	-12.320097	1.020247	3.046842	0.240074	-0.701660	0.489014	-0.503418	0.580799	-0.276504	-0.341759	-0.685142
48599		-3.591591	1.654247	-9.660701	0.972920	-1.136485	0.484946	-0.709961	0.487061	-0.495361	0.583409	-0.281145	-0.356573	-0.673385
48600		5.340330	3.362698	-1.525004	-0.185374	-2.480118	0.366690	-0.731445	0.501709	-0.450195	0.574574	-0.304840	-0.371631	-0.662441
48601		6.677533	1.893889	2.497661	-1.412592	-1.228454	-0.205297	-0.741699	0.508057	-0.396240	0.561736	-0.324108	-0.369456	-0.665514
48602		2.476497	-0.238869	0.780458	-1.464631	-0.304308	-0.654126	-0.760742	0.518311	-0.379639	0.548904	-0.333869	-0.362013	-0.675413
48603		0.907071	-0.089211	-2.707960	-1.115451	-1.156233	-0.801603	-0.771484	0.520020	-0.334961	0.532197	-0.347593	-0.363819	-0.680868
48604		9.604589	1.303499	-0.647000	-1.048899	-1.376491	-1.091636	-0.794922	0.515137	-0.284668	0.512027	-0.361253	-0.368739	-0.686554
48605		10.062236	-4.691307	5.620143	-1.109173	-1.487098	0.195287	-0.806885	0.541992	-0.235352	0.501771	-0.381967	-0.367829	-0.683395
48606		29.749013	2.577235	23.372776	0.678285	5.553866	-0.341998	-0.755127	0.542480	-0.352295	0.526412	-0.327855	-0.339577	-0.707170
48607		-1.311400	-0.658545	11.639302	-0.162502	7.018198	-1.816045	-0.703369	0.507324	-0.482178	0.537377	-0.257960	-0.298085	-0.745538
48608		1.201536	4.200674	14.598816	-0.178769	4.125877	-1.013712	-0.657471	0.486572	-0.552002	0.542019	-0.216613	-0.271545	-0.765217
48609		1.602915	4.838281	13.904391	-0.162597	0.881704	0.091249	-0.647217	0.496338	-0.564697	0.545442	-0.209589	-0.263701	-0.767481
48610		3.613623	-0.877839	11.978113	0.294859	-1.636506	0.346463	-0.665527	0.507568	-0.535645	0.544032	-0.224376	-0.276645	-0.759705
48611		4.330596	1.915800	10.885331	0.423698	-3.506629	0.272112	-0.706055	0.496094	-0.475586	0.535142	-0.255508	-0.303374	-0.745857
48612		4.769186	3.611859	10.970772	0.470195	-5.497105	0.794327	-0.760498	0.504150	-0.378174	0.521893	-0.305970	-0.341106	-0.719483
48613		12.107141	2.328110	11.047800	0.861048	-6.523240	0.814258	-0.815186	0.512695	-0.251709	0.502886	-0.361392	-0.386922	-0.683222
48614		21.592002	4.575913	13.215545	0.736471	-5.024248	0.445406	-0.836426	0.505615	-0.168945	0.484644	-0.401101	-0.421799	-0.652935
48615		13.178817	8.022615	-3.106303	0.620218	-1.972508	-0.179172	-0.853027	0.493896	-0.136963	0.475660	-0.412401	-0.439377	-0.640797
48616		20.455877	5.392690	0.310422	-1.960196	0.789484	-0.651294	-0.848389	0.480713	-0.146240	0.464436	-0.414030	-0.422022	-0.659375
48617		3.507480	-9.828541	-0.762000	-0.826175	2.653283	-0.177658	-0.851318	0.468750	-0.200684	0.472405	-0.395773	-0.400380	-0.678154
48618		-1.290600	-7.741924	-2.588402	1.105766	2.542682	1.094523	-0.821045	0.472412	-0.268799	0.499538	-0.372899	-0.388946	-0.678329
48619		-1.624105	0.439449	-0.745228	0.917758	1.393028	1.879199	-0.788818	0.499756	-0.307617	0.526264	-0.364317	-0.378974	-0.668355
48620		0.235714	2.099164	1.498047	-0.323634	0.923461	2.043190	-0.750732	0.548828	-0.325195	0.546012	-0.368272	-0.360637	-0.660445
48621		-0.337947	2.068539	1.800493	-0.089697	1.390132	1.119698	-0.724609	0.572998	-0.354980	0.560973	-0.362368	-0.345064	-0.659491
48622		-1.813541	2.240198	-0.490398	0.397621	1.490726	-0.012378	-0.715820	0.572510	-0.384521	0.569002	-0.347168	-0.337779	-0.664542
48623		0.686837	0.622696	-1.540324	0.630773	1.036712	-0.652159	-0.714844	0.558105	-0.418701	0.570617	-0.331263	-0.338325	-0.670967
48624		1.589684	0.500181	-1.615552	0.392853	0.650876	-0.704753	-0.716309	0.541504	-0.420166	0.569071	-0.319979	-0.339785	-0.676992
48625		1.984015	0.532065	-3.452800	-0.276613	0.103328	-0.485284	-0.741699	0.538574	-0.424072	0.564316	-0.318998	-0.338570	-0.682025
48626		72.025383	-3.215356	9.015600	1.221874	3.843468	-1.631075	-0.716309	0.489014	-0.507080	0.570739	-0.270259	-0.327814	-0.702677
48627		-13.276785	7.856808	14.993633	-0.685871	8.426100	-2.435143	-0.616211	0.473877	-0.640137	0.578150	-0.189766	-0.268081	-0.746903
48628		-4.211979	6.321417	18.293943	-1.415407	4.702097	-0.120727	-0.536621	0.509521	-0.698730	0.588410	-0.155452	-0.220649	-0.762183
48629		3.843293	-2.046569	11.946484	-0.371073	0.325292	0.191365	-0.534912	0.507324	-0.691895	0.590519	-0.155676	-0.214212	-0.762342
48630		6.583014	2.573183	6.190271	0.028625	0.034220	0.143843	-0.541748	0.506836	-0.697998	0.592039	-0.155580	-0.213870	-0.761278
48631		4.351205	-0.052147	9.493633	-0.157892	0.192462	-0.069753	-0.533691	0.510010	-0.698730	0.591555	-0.154775	-0.211032	-0.762609
48632		4.518598	1.523972	8.651771	0.296161	-0.175282	-0.075083	-0.539062	0.510010	-0.693604	0.590953	-0.154082	-0.215229	-0.762043
48633		4.715414	1.284816	8.542552	0.378334	-0.316178	-0.078976	-0.542725	0.496582	-0.701172	0.590074	-0.154140	-0.221240	-0.760991
48634		4.744897	1.923625	8.512125	0.296027	-0.344944	-0.115813	-0.544434	0.495605	-0.693604	0.588596	-0.154926	-0.226754	-0.760352
48635		4.501615	1.837560	8.526946	0.243495	-0.446094	-0.043466	-0.553955	0.488281	-0.686768	0.587413	-0.157275	-0.232350	-0.759094
48636		5.167841	1.765894	7.846833	0.226411	-0.476717	-0.007800	-0.564697	0.479004	-0.679199	0.586406	-0.160138	-0.237936	-0.757542
48637		5.510859	1.843485	7.444823	0.141546	-0.230538	-0.005031	-0.567139	0.474121	-0.692627	0.585952	-0.161297	-0.240912	-0.756707
48638		5.657833	1.839302	7.331243	0.045081	0.090157	-0.026768	-0.569824	0.484375	-0.682373	0.586084	-0.160026	-0.240677	-0.756949
48639		5.615299	2.085334	7.337557	-0.074920	0.463062	-0.038097	-0.549316	0.477783	-0.695312	0.586974	-0.156116	-0.236584	-0.758365
48640		4.122726	1.227256	8.750151	-0.106722	0.468806	0.007744	-0.551514	0.483398	-0.693848	0.588267	-0.152475	-0.232056	-0.759502
48641		4.875388	1.642817	8.726538	-0.087726	0.179686	0.001578	-0.546875	0.481934	-0.693359	0.588654	-0.151446	-0.229839	-0.760082
48642		4.636605	1.550809	8.761915	0.000575	0.069939	0.003132	-0.541748	0.487549	-0.701660	0.588901	-0.150810	-0.229266	-0.760190
48643		4.821848	1.694920	8.404148	0.084172	-0.022435	-0.007557	-0.546875	0.483887	-0.697998	0.588964	-0.150396	-0.230181	-0.759947
48644		4.895040	1.795654	8.229535	0.062566	-0.032546	-0.012712	-0.544678	0.482910	-0.694092	0.588887	-0.150230	-0.230979	-0.759797
48645		4.898880	1.742482	8.218768	0.014107	-0.007406	-0.005659	-0.549805	0.480225	-0.700684	0.588862	-0.150206	-0.231116	-0.759780
48646		4.824864	1.668090	8.285601	-0.013341	0.014342	0.001875	-0.548584	0.478760	-0.697754	0.588911	-0.150191	-0.230825	-0.759833
48647		4.862788	1.666450	8.276969	-0.011519	0.007309	0.002636	-0.560547	0.487793	-0.697754	0.588948	-0.150233	-0.230602	-0.759864
48648		4.915170	1.748674	8.250079	-0.021553	0.011257	0.003461	-0.545166	0.478516	-0.695312	0.588970	-0.150335	-0.230251	-0.759933
48649		4.882594	1.690822	8.274885	-0.039049	0.027490	-0.000545	-0.545166	0.487305	-0.701416	0.588988	-0.150376	-0.229624	-0.760101
48650		4.819098	1.640878	8.358292	-0.019967	0.016137	-0.002704	-0.552246	0.482666	-0.703613	0.589005	-0.150380	-0.229261	-0.760197
48651		4.814417	1.682817	8.360147	0.022812	-0.004374	-0.003305	-0.552979	0.477783	-0.703369	0.589015	-0.150260	-0.229464	-0.760151
48652		4.868553	1.697791	8.296058	0.034457	-0.011872	-0.007659	-0.546387	0.484375	-0.697998	0.588977	-0.150108	-0.229844	-0.760096
48653		4.861792	1.708655	8.263016	0.016601	-0.004448	-0.004644	-0.541504	0.486572	-0.698242	0.588976	-0.150037	-0.229985	-0.760068
48654		4.887259	1.693789	8.296343	0.001608	0.006780	-0.004629	-0.550049	0.484375	-0.703613	0.588995	-0.149967	-0.229899	-0.760093
48655		4.857462	1.709057	8.304609	-0.013704	0.015632	-0.002623	-0.547363	0.476562	-0.694336	0.589011	-0.149929	-0.229604	-0.760177
48656		4.851632	1.687070	8.271756	-0.029935	0.023787	0.000322	-0.543945	0.475586	-0.694336	0.589034	-0.149943	-0.229092	-0.760311
48657		4.813461	1.668916	8.338320	-0.034054	0.022006	0.000918	-0.548096	0.477539	-0.697998	0.589055	-0.150001	-0.228554	-0.760445
48658		4.801930	1.676149	8.348720	-0.021935	0.011120	-0.002201	-0.539062	0.484619	-0.699219	0.589032	-0.150065	-0.228218	-0.760551
48659		4.814517	1.695541	8.325563	-0.012868	0.004193	-0.003148	-0.550537	0.491943	-0.701660	0.589030	-0.150124	-0.228014	-0.760602
48660		4.818172	1.655675	8.294748	-0.008166	0.006675	-0.000760	-0.542480	0.487305	-0.704102	0.589050	-0.150146	-0.227831	-0.760637
48661		4.844256	1.644805	8.317708	-0.002562	0.005100	-0.003165	-0.551270	0.482178	-0.699707	0.589069	-0.150119	-0.227720	-0.760661
48662		4.815947	1.661447	8.324788	0.003700	0.002702	-0.004608	-0.547852	0.482666	-0.697510	0.589045	-0.150072	-0.227693	-0.760697
48663		4.824832	1.657058	8.306172	0.002133	0.002350	-0.005018	-0.545898	0.481445	-0.699463	0.589020	-0.150040	-0.227652	-0.760735
48664		4.807667	1.679087	8.302124	-0.005695	0.005822	-0.002830	-0.547607	0.488525	-0.694336	0.589017	-0.150033	-0.227509	-0.760782
48665		4.820044	1.644393	8.339789	0.001879	-0.000599	-0.004276	-0.541748	0.486816	-0.708252	0.588996	-0.150044	-0.227482	-0.760804
48666		4.812843	1.658084	8.336433	0.018000	-0.009982	-0.006652	-0.550049	0.482178	-0.694580	0.588982	-0.149992	-0.227687	-0.760763
48667		4.826846	1.673403	8.302522	0.014275	-0.004726	-0.005054	-0.551514	0.488525	-0.699951	0.588951	-0.149943	-0.227813	-0.760760
48668		4.807885	1.680724	8.310829	0.003319	0.000419	-0.001760	-0.543701	0.489502	-0.698486	0.588957	-0.149937	-0.227789	-0.760764
48669		4.816085	1.668706	8.303319	0.004632	-0.002177	-0.000606	-0.545410	0.478760	-0.699463	0.588989	-0.149945	-0.227793	-0.760736
48670		4.824517	1.661105	8.314727	0.006385	-0.001635	-0.002392	-0.540039	0.480225	-0.701172	0.588989	-0.149918	-0.227821	-0.760733
48671		4.826238	1.675845	8.331497	0.003255	-0.000437	-0.001671	-0.541748	0.491943	-0.701904	0.589012	-0.149899	-0.227809	-0.760722
48672		4.814996	1.668973	8.333016	0.003442	-0.000248	-0.003866	-0.542236	0.483398	-0.700684	0.589029	-0.149886	-0.227793	-0.760716
48673		4.814634	1.665811	8.313923	0.001880	0.002254	-0.001965	-0.544189	0.486328	-0.705078	0.589053	-0.149858	-0.227746	-0.760718
48674		4.823905	1.665029	8.314298	0.002598	0.000385	-0.002633	-0.546875	0.490234	-0.690430	0.589069	-0.149840	-0.227721	-0.760716
48675		4.817403	1.690255	8.328914	0.002409	-0.001232	-0.001593	-0.545166	0.479492	-0.703369	0.589074	-0.149868	-0.227696	-0.760714
48676		4.822424	1.658953	8.325562	0.001628	0.000257	-0.000450	-0.542480	0.478760	-0.707520	0.589094	-0.149858	-0.227662	-0.760711
48677		4.825503	1.680241	8.331037	0.000907	-0.000253	-0.001708	-0.552734	0.486328	-0.709229	0.589108	-0.149847	-0.227631	-0.760711
48678		4.843096	1.662308	8.304936	0.003318	0.000419	-0.001760	-0.545166	0.489502	-0.706543	0.589115	-0.149827	-0.227612	-0.760715
48679		4.820473	1.653335	8.337012	0.001095	0.001364	-0.002748	-0.545166	0.483887	-0.697266	0.589134	-0.149814	-0.227565	-0.760717
48680		4.803947	1.673745	8.322900	0.001753	0.001018	-0.001400	-0.536621	0.488525	-0.699951	0.589147	-0.149808	-0.227524	-0.760721
48681		4.811637	1.665691	8.334841	0.003568	0.001940	-0.003660	-0.550049	0.481445	-0.705566	0.589179	-0.149769	-0.227496	-0.760712
48682		4.811529	1.664718	8.325131	0.003190	-0.002245	-0.002351	-0.541992	0.494385	-0.695801	0.589166	-0.149770	-0.227499	-0.760721
48683		4.813401	1.674989	8.322762	0.002408	-0.001708	-0.001978	-0.537598	0.479736	-0.705078	0.589192	-0.149797	-0.227478	-0.760702
48684		4.802295	1.665607	8.314746	0.001628	0.000258	-0.000450	-0.540527	0.483887	-0.701660	0.589232	-0.149780	-0.227446	-0.760684
48685		4.820218	1.656033	8.326660	0.005475	-0.002333	-0.001453	-0.541504	0.489746	-0.701904	0.589258	-0.149769	-0.227468	-0.760659
48686		4.822239	1.665138	8.314468	0.008666	-0.003150	-0.002648	-0.547363	0.477295	-0.702637	0.589284	-0.149747	-0.227525	-0.760626
48687		4.821273	1.661677	8.334891	0.005597	-0.003477	-0.003943	-0.545166	0.491943	-0.699951	0.589252	-0.149735	-0.227563	-0.760642
48688		4.823394	1.668263	8.313172	0.003063	-0.003481	-0.001785	-0.544434	0.487061	-0.702393	0.589267	-0.149768	-0.227565	-0.760623
48689		4.803123	1.671065	8.352285	0.003312	-0.002437	-0.004070	-0.548584	0.484131	-0.699707	0.589260	-0.149773	-0.227569	-0.760627
48690		4.824581	1.674662	8.331137	0.006066	-0.004962	-0.001170	-0.548096	0.488770	-0.707275	0.589257	-0.149792	-0.227612	-0.760612
48691		4.806088	1.675025	8.310661	0.005471	-0.003761	-0.002608	-0.550781	0.479248	-0.704346	0.589262	-0.149796	-0.227645	-0.760598
48692		4.816229	1.676734	8.320001	0.003188	-0.001769	-0.001965	-0.544189	0.480225	-0.696533	0.589245	-0.149793	-0.227643	-0.760612
48693		4.823144	1.659360	8.333520	0.003908	-0.002210	-0.001478	-0.538086	0.489746	-0.708984	0.589246	-0.149797	-0.227648	-0.760609
48694		4.805844	1.668752	8.311301	0.003906	-0.003162	-0.002247	-0.539307	0.483887	-0.701660	0.589287	-0.149800	-0.227664	-0.760572
48695		4.835142	1.669098	8.330962	0.001625	-0.000694	-0.001220	-0.540283	0.486084	-0.703369	0.589317	-0.149802	-0.227637	-0.760556
48696		4.815934	1.672726	8.330188	0.001747	-0.000887	-0.002940	-0.546631	0.482178	-0.703125	0.589334	-0.149802	-0.227616	-0.760550
48697		4.814524	1.664085	8.331983	0.003188	-0.001293	-0.001581	-0.547363	0.479736	-0.698730	0.589337	-0.149798	-0.227608	-0.760550
48698		4.806457	1.676063	8.329421	0.004878	0.000298	-0.001737	-0.541016	0.481934	-0.700195	0.589335	-0.149769	-0.227604	-0.760559
48699		4.813038	1.656715	8.333572	0.002467	-0.001328	-0.002453	-0.538086	0.485107	-0.706787	0.589342	-0.149768	-0.227592	-0.760557
48700		4.824328	1.667368	8.341206	0.001687	-0.000315	-0.001696	-0.546875	0.483154	-0.703125	0.589381	-0.149760	-0.227566	-0.760537
48701		4.796912	1.681778	8.338187	0.000184	-0.000289	-0.002580	-0.549072	0.489258	-0.701172	0.589372	-0.149767	-0.227524	-0.760554
48702		4.820832	1.645381	8.326200	0.001937	0.002634	-0.002443	-0.544189	0.485596	-0.700684	0.589380	-0.149746	-0.227471	-0.760568
48703		4.786674	1.682529	8.328404	0.003188	-0.001292	-0.001580	-0.544434	0.482178	-0.706055	0.589394	-0.149748	-0.227461	-0.760560
48704		4.813044	1.658036	8.323338	0.004501	-0.004362	-0.000808	-0.545410	0.485352	-0.700928	0.589407	-0.149761	-0.227489	-0.760539
48705		4.804241	1.662591	8.331911	0.003781	-0.003921	-0.001296	-0.541504	0.487305	-0.693604	0.589413	-0.149785	-0.227503	-0.760525
48706		4.803123	1.656353	8.343039	0.004875	-0.000654	-0.002507	-0.542969	0.484375	-0.699707	0.589427	-0.149776	-0.227502	-0.760517
48707		4.804802	1.660674	8.312030	0.003124	-0.002148	-0.001489	-0.546143	0.485596	-0.697998	0.589439	-0.149785	-0.227498	-0.760507
48708		4.803703	1.656139	8.332779	0.003063	-0.002052	-0.000629	-0.547119	0.483643	-0.697754	0.589450	-0.149803	-0.227487	-0.760498
48709		4.817091	1.668322	8.299733	0.006000	-0.005339	-0.000692	-0.542725	0.479980	-0.702148	0.589449	-0.149828	-0.227529	-0.760482
48710		4.810040	1.686703	8.325204	0.005281	-0.004422	-0.000795	-0.550781	0.481689	-0.695801	0.589459	-0.149836	-0.227565	-0.760461
48711		4.807800	1.666938	8.319015	0.003839	-0.004495	-0.002540	-0.538574	0.486328	-0.696533	0.589421	-0.149865	-0.227581	-0.760480
48712		4.808522	1.672299	8.337472	0.005467	-0.002807	-0.001838	-0.544678	0.486084	-0.698975	0.589448	-0.149867	-0.227604	-0.760452
48713		4.815536	1.651353	8.331751	0.006310	-0.002488	-0.002301	-0.545410	0.483154	-0.701416	0.589455	-0.149858	-0.227632	-0.760440
48714		4.798359	1.663148	8.318931	0.005341	-0.004042	-0.001271	-0.546387	0.484863	-0.698730	0.589460	-0.149867	-0.227662	-0.760425
48715		4.818523	1.667471	8.347477	0.004498	-0.003885	-0.000423	-0.543701	0.486816	-0.697266	0.589469	-0.149890	-0.227679	-0.760409
48716		4.818967	1.660239	8.308769	0.004686	-0.001793	-0.001081	-0.542480	0.477051	-0.698730	0.589490	-0.149892	-0.227683	-0.760391
48717		4.808114	1.657438	8.329260	0.003184	-0.001292	-0.001581	-0.549072	0.484375	-0.703369	0.589489	-0.149883	-0.227676	-0.760396
48718		4.809886	1.669868	8.336445	0.003965	-0.001353	-0.001569	-0.543701	0.484619	-0.694824	0.589488	-0.149877	-0.227673	-0.760398
48719		4.808677	1.661470	8.338106	0.004623	-0.002172	-0.000605	-0.543457	0.489258	-0.700195	0.589504	-0.149885	-0.227677	-0.760383
48720		4.809243	1.662737	8.337527	0.006182	-0.003723	-0.001734	-0.549072	0.480469	-0.700439	0.589525	-0.149892	-0.227711	-0.760355
48721		4.819375	1.658466	8.318144	0.004743	-0.002367	-0.002325	-0.549072	0.483398	-0.697998	0.589504	-0.149886	-0.227724	-0.760369
48722		4.821356	1.669384	8.315528	0.008469	-0.002377	0.000314	-0.547119	0.483398	-0.704590	0.589518	-0.149867	-0.227763	-0.760350
48723		4.822167	1.675103	8.333866	0.006056	-0.004958	-0.001166	-0.543213	0.488770	-0.693848	0.589521	-0.149877	-0.227808	-0.760332
48724		4.813350	1.678353	8.332741	0.009306	-0.003488	-0.001302	-0.553223	0.478760	-0.704346	0.589545	-0.149868	-0.227865	-0.760299
48725		4.802888	1.668729	8.314482	0.012426	-0.004683	-0.002023	-0.553711	0.482666	-0.702637	0.589521	-0.149823	-0.227967	-0.760295
48726		4.812090	1.660631	8.315646	0.013020	-0.006358	-0.000967	-0.552979	0.483643	-0.702393	0.589509	-0.149801	-0.228082	-0.760275
48727		4.816460	1.686452	8.329309	0.013019	-0.005881	-0.000583	-0.548340	0.478516	-0.699951	0.589506	-0.149777	-0.228193	-0.760248
48728		4.814577	1.670347	8.332223	0.011575	-0.005956	-0.002326	-0.541260	0.484375	-0.708496	0.589487	-0.149753	-0.228297	-0.760236
48729		4.826962	1.681026	8.329181	0.013014	-0.006357	-0.000966	-0.536621	0.486328	-0.697998	0.589533	-0.149720	-0.228424	-0.760169
48730		4.819945	1.690505	8.306495	0.012294	-0.005441	-0.001071	-0.537598	0.483154	-0.698975	0.589586	-0.149696	-0.228532	-0.760100
48731		4.819618	1.687833	8.326486	0.010729	-0.005797	-0.001477	-0.538330	0.483398	-0.705566	0.589623	-0.149682	-0.228629	-0.760046
48732		4.819038	1.674171	8.298919	0.007608	-0.005079	-0.001140	-0.550293	0.481934	-0.700684	0.589665	-0.149677	-0.228696	-0.759993
48733		4.820078	1.680051	8.317102	0.006888	-0.004640	-0.001627	-0.537842	0.483887	-0.697998	0.589649	-0.149683	-0.228741	-0.759991
48734		4.838560	1.669430	8.318984	0.007853	-0.003087	-0.002662	-0.545898	0.488281	-0.697266	0.589677	-0.149663	-0.228791	-0.759958
48735		4.814766	1.703734	8.311214	0.005332	-0.003087	-0.000500	-0.545166	0.479736	-0.700195	0.589699	-0.149680	-0.228806	-0.759933
48736		4.820471	1.677104	8.326763	0.004494	-0.002451	0.000732	-0.542725	0.479248	-0.701416	0.589721	-0.149683	-0.228812	-0.759914
48737		4.822528	1.685418	8.314596	0.005331	-0.003087	-0.000500	-0.542480	0.489258	-0.702881	0.589740	-0.149680	-0.228836	-0.759892
48738		4.811962	1.679059	8.315741	0.007128	-0.003603	-0.003917	-0.544189	0.490967	-0.699951	0.589755	-0.149671	-0.228884	-0.759869
48739		4.814121	1.689978	8.312973	0.004548	-0.003504	-0.000894	-0.548828	0.480713	-0.700195	0.589787	-0.149696	-0.228897	-0.759835
48740		4.824311	1.689503	8.312732	0.003892	-0.002210	-0.001476	-0.546875	0.488525	-0.692139	0.589775	-0.149698	-0.228896	-0.759844
48741		4.823315	1.685305	8.333450	0.003169	-0.002726	-0.002730	-0.549561	0.475098	-0.703369	0.589763	-0.149728	-0.228885	-0.759851
48742		4.822067	1.674614	8.325659	0.002395	-0.001234	-0.001592	-0.547363	0.483154	-0.702637	0.589738	-0.149721	-0.228867	-0.759877
48743		4.825412	1.694262	8.321119	0.002448	-0.002765	-0.003601	-0.548340	0.489502	-0.701416	0.589716	-0.149733	-0.228863	-0.759893
48744		4.824016	1.683535	8.313420	0.002460	0.000099	-0.001303	-0.543457	0.484375	-0.697754	0.589734	-0.149735	-0.228828	-0.759889
48745		4.826952	1.700918	8.299580	0.001737	-0.000417	-0.002557	-0.544189	0.484375	-0.704346	0.589738	-0.149739	-0.228796	-0.759895
48746		4.819174	1.656306	8.319682	-0.001978	0.001495	-0.003660	-0.538818	0.487061	-0.701904	0.589736	-0.149740	-0.228721	-0.759918
48747		4.823185	1.684480	8.313711	-0.002033	0.002549	-0.002034	-0.539062	0.484863	-0.699951	0.589776	-0.149741	-0.228637	-0.759913
48748		4.817959	1.658080	8.330016	-0.003472	0.003425	-0.003010	-0.548584	0.485596	-0.699219	0.589797	-0.149740	-0.228533	-0.759928
48749		4.820201	1.674505	8.316773	-0.002755	0.002510	-0.002905	-0.545654	0.479980	-0.698242	0.589780	-0.149750	-0.228433	-0.759969
48750		4.808172	1.666173	8.319171	-0.005632	0.004263	-0.004857	-0.548096	0.485596	-0.694580	0.589740	-0.149750	-0.228301	-0.760039
48751		4.819634	1.678486	8.297006	-0.006529	0.004998	-0.002766	-0.543701	0.479492	-0.690918	0.589719	-0.149770	-0.228142	-0.760099
48752		4.808827	1.682603	8.316838	-0.014096	0.005200	-0.006319	-0.546387	0.484863	-0.697266	0.589648	-0.149827	-0.227921	-0.760210
48753		4.804078	1.657356	8.303336	-0.013247	0.008383	-0.004484	-0.546875	0.485352	-0.697510	0.589614	-0.149853	-0.227681	-0.760303
48754		4.802680	1.663376	8.342862	-0.014339	0.005118	-0.003263	-0.541992	0.483398	-0.700439	0.589580	-0.149921	-0.227453	-0.760384
48755		4.801550	1.661341	8.343918	-0.009600	0.004185	-0.004437	-0.543457	0.487793	-0.701660	0.589558	-0.149951	-0.227286	-0.760445
48756		4.803324	1.670374	8.302519	-0.008819	0.004602	-0.004042	-0.546143	0.489258	-0.702637	0.589549	-0.149977	-0.227121	-0.760497
48757		4.799417	1.656729	8.336086	-0.005819	0.003606	-0.003043	-0.546387	0.482178	-0.700684	0.589545	-0.149995	-0.226989	-0.760536
48758		4.789093	1.655150	8.326819	-0.006064	0.001614	-0.001522	-0.549805	0.480469	-0.708496	0.589527	-0.150030	-0.226866	-0.760579
48759		4.800079	1.662551	8.325238	-0.000723	-0.000516	-0.001255	-0.541748	0.489502	-0.701660	0.589509	-0.150036	-0.226814	-0.760607
48760		4.790490	1.664389	8.324844	0.001738	-0.000890	-0.002940	-0.543701	0.485596	-0.700684	0.589523	-0.150040	-0.226789	-0.760603
48761		4.805542	1.642328	8.369569	0.003179	-0.001290	-0.001581	-0.543945	0.481201	-0.697998	0.589532	-0.150038	-0.226777	-0.760600
48762		4.797310	1.649570	8.348034	-0.000541	0.000621	-0.002684	-0.540771	0.477783	-0.699951	0.589513	-0.150038	-0.226716	-0.760633
48763		4.806667	1.646364	8.338858	0.001743	0.001018	-0.001406	-0.544189	0.483887	-0.697998	0.589520	-0.150013	-0.226678	-0.760644
48764		4.798447	1.664135	8.365099	0.001740	0.000064	-0.002173	-0.539062	0.493896	-0.701172	0.589513	-0.150007	-0.226640	-0.760662
48765		4.804836	1.636047	8.331328	0.001740	0.000064	-0.002173	-0.543945	0.493164	-0.698242	0.589557	-0.150010	-0.226607	-0.760637
48766		4.796555	1.647628	8.328906	0.002522	0.000481	-0.001777	-0.542969	0.489502	-0.699219	0.589580	-0.150010	-0.226569	-0.760631
48767		4.796536	1.652748	8.347851	0.003359	-0.000630	-0.003393	-0.552246	0.480713	-0.699219	0.589582	-0.150002	-0.226554	-0.760635
48768		4.796457	1.651675	8.338135	0.003301	-0.000055	-0.002149	-0.543945	0.487061	-0.698975	0.589537	-0.149983	-0.226526	-0.760682
48769		4.796412	1.650866	8.328347	0.006422	-0.000770	-0.002486	-0.539551	0.485107	-0.706299	0.589542	-0.149953	-0.226539	-0.760680
48770		4.785208	1.644187	8.329919	0.003302	0.000422	-0.001766	-0.544434	0.484863	-0.704590	0.589577	-0.149923	-0.226525	-0.760663
48771		4.786864	1.654633	8.327545	0.003955	-0.002781	-0.002719	-0.541504	0.490723	-0.696045	0.589571	-0.149919	-0.226536	-0.760666
48772		4.785906	1.648486	8.338641	0.003953	-0.003258	-0.003102	-0.537598	0.483398	-0.698975	0.589573	-0.149938	-0.226542	-0.760658
48773		4.795988	1.645919	8.328924	0.003116	-0.002146	-0.001487	-0.549316	0.493896	-0.692139	0.589595	-0.149940	-0.226540	-0.760641
48774		4.798103	1.660354	8.345440	0.003715	-0.003341	-0.000046	-0.538086	0.484131	-0.698242	0.589594	-0.149983	-0.226525	-0.760638
48775		4.797132	1.653740	8.356640	0.002337	-0.001609	-0.001115	-0.541748	0.483154	-0.700928	0.589618	-0.149989	-0.226509	-0.760623
48776		4.796125	1.640911	8.339170	0.003771	-0.004394	-0.001673	-0.547607	0.478027	-0.697754	0.589618	-0.150005	-0.226527	-0.760615
48777		4.809436	1.661376	8.344261	0.003896	-0.002205	-0.001476	-0.541504	0.488281	-0.693848	0.589582	-0.150000	-0.226523	-0.760645
48778		4.798632	1.652285	8.336116	0.003174	-0.002244	-0.002347	-0.546143	0.487793	-0.690918	0.589583	-0.150015	-0.226511	-0.760645
48779		4.797499	1.643589	8.337852	0.001554	-0.002027	-0.001510	-0.548828	0.485107	-0.701172	0.589562	-0.150048	-0.226473	-0.760665
48780		4.797781	1.644405	8.337529	0.004016	-0.001447	-0.002429	-0.544922	0.493652	-0.692139	0.589538	-0.150039	-0.226465	-0.760688
48781		4.797967	1.647598	8.346766	0.003295	-0.001010	-0.002917	-0.535645	0.484863	-0.703613	0.589532	-0.150052	-0.226439	-0.760698
48782		4.809214	1.654302	8.335172	0.002396	-0.001231	-0.001592	-0.537842	0.487305	-0.700439	0.589575	-0.150044	-0.226430	-0.760669
48783		4.788473	1.650728	8.346064	0.003300	0.000422	-0.001767	-0.539551	0.487549	-0.701416	0.589613	-0.150022	-0.226410	-0.760650
48784		4.806189	1.637064	8.339061	0.001734	-0.000892	-0.002939	-0.545898	0.493408	-0.698730	0.589627	-0.150021	-0.226387	-0.760646
48785		4.798235	1.653078	8.355505	0.003293	-0.001487	-0.003300	-0.549072	0.482910	-0.692871	0.589621	-0.150029	-0.226371	-0.760654
48786		4.787196	1.642141	8.337894	0.004853	-0.001605	-0.003277	-0.544434	0.487793	-0.702393	0.589567	-0.150020	-0.226364	-0.760700
48787		4.790467	1.664247	8.342869	0.003174	-0.001767	-0.001963	-0.537842	0.480957	-0.694092	0.589571	-0.150020	-0.226354	-0.760699
48788		4.797433	1.640813	8.327839	0.004731	-0.002839	-0.002707	-0.545654	0.487549	-0.697021	0.589566	-0.150015	-0.226370	-0.760700
48789		4.788353	1.647902	8.346069	0.005510	-0.002898	-0.002695	-0.546143	0.482178	-0.705322	0.589549	-0.150014	-0.226384	-0.760708
48790		4.790112	1.652370	8.314865	0.004792	-0.001983	-0.002800	-0.541504	0.479248	-0.703613	0.589531	-0.149991	-0.226397	-0.760723
48791		4.797216	1.644032	8.366616	0.005575	-0.001087	-0.002023	-0.541748	0.482666	-0.697266	0.589536	-0.149950	-0.226414	-0.760723
48792		4.789155	1.649868	8.335244	0.004733	-0.001884	-0.001940	-0.537842	0.484619	-0.708496	0.589533	-0.149939	-0.226419	-0.760726
48793		4.789442	1.653001	8.344435	0.002453	-0.001330	-0.002451	-0.539551	0.477539	-0.706055	0.589566	-0.149923	-0.226416	-0.760704
48794		4.797879	1.642993	8.346491	0.003171	-0.002244	-0.002346	-0.544922	0.484619	-0.699219	0.589568	-0.149903	-0.226424	-0.760704
48795		4.789914	1.650663	8.324672	0.004012	-0.001447	-0.002429	-0.550049	0.480225	-0.704834	0.589553	-0.149893	-0.226417	-0.760719
48796		4.799916	1.652463	8.334083	0.004672	-0.002262	-0.001464	-0.538086	0.480225	-0.691650	0.589522	-0.149877	-0.226423	-0.760745
48797		4.790764	1.656945	8.342894	0.002995	-0.002424	-0.000150	-0.543701	0.481201	-0.705322	0.589532	-0.149890	-0.226410	-0.760739
48798		4.789659	1.646296	8.335048	0.005395	-0.001744	-0.000210	-0.542725	0.484375	-0.702881	0.589549	-0.149865	-0.226424	-0.760726
48799		4.790142	1.647191	8.334593	0.001547	-0.003460	-0.002657	-0.537354	0.491699	-0.705322	0.589539	-0.149885	-0.226416	-0.760733
48800		4.808449	1.635966	8.336761	0.007012	-0.001961	-0.001047	-0.546875	0.489990	-0.708008	0.589607	-0.149861	-0.226452	-0.760674
48801		4.791241	1.651835	8.343022	0.004605	-0.004073	-0.002135	-0.537842	0.486572	-0.703613	0.589610	-0.149870	-0.226475	-0.760663
48802		4.780854	1.644793	8.344245	0.002208	-0.003798	-0.001309	-0.543701	0.486328	-0.700684	0.589643	-0.149892	-0.226479	-0.760632
48803		4.791152	1.644101	8.344000	0.003107	-0.003100	-0.002251	-0.543945	0.488525	-0.700684	0.589636	-0.149905	-0.226477	-0.760635
48804		4.783557	1.655999	8.341079	0.004608	-0.003118	-0.001370	-0.536621	0.489990	-0.698975	0.589645	-0.149913	-0.226486	-0.760624
48805		4.803398	1.652132	8.331530	0.004666	-0.003217	-0.002229	-0.541260	0.475342	-0.697998	0.589682	-0.149921	-0.226505	-0.760588
48806		4.789800	1.626612	8.337064	0.005449	-0.002320	-0.001453	-0.541260	0.487061	-0.693848	0.589665	-0.149896	-0.226523	-0.760601
48807		4.793417	1.650957	8.351327	0.004605	-0.003595	-0.001752	-0.547363	0.489502	-0.694336	0.589666	-0.149914	-0.226531	-0.760594
48808		4.792608	1.638506	8.333698	0.005323	-0.004510	-0.001646	-0.544189	0.489746	-0.702637	0.589643	-0.149941	-0.226545	-0.760602
48809		4.793392	1.641997	8.342540	0.005443	-0.003276	-0.002218	-0.542480	0.482666	-0.697266	0.589652	-0.149941	-0.226567	-0.760589
48810		4.806460	1.658453	8.328507	0.004611	-0.002162	-0.000604	-0.545898	0.482422	-0.693115	0.589656	-0.149937	-0.226568	-0.760587
48811		4.794335	1.637643	8.312913	0.002928	-0.003757	-0.000437	-0.544678	0.482666	-0.703613	0.589628	-0.149968	-0.226555	-0.760606
48812		4.796546	1.652187	8.329320	0.003886	-0.002681	-0.001857	-0.542480	0.487549	-0.700928	0.589619	-0.149962	-0.226560	-0.760612
48813		4.784569	1.640147	8.351844	0.003883	-0.003159	-0.002240	-0.543945	0.489258	-0.692871	0.589624	-0.149971	-0.226567	-0.760605
48814		4.794692	1.637606	8.342078	0.003885	-0.002681	-0.001857	-0.547607	0.489014	-0.699219	0.589615	-0.149990	-0.226557	-0.760611
48815		4.788463	1.661046	8.346645	0.004612	-0.001684	-0.000222	-0.540771	0.488770	-0.704590	0.589620	-0.149992	-0.226547	-0.760610
48816		4.803791	1.628827	8.343536	0.004602	-0.003595	-0.001752	-0.541504	0.487549	-0.695557	0.589648	-0.149997	-0.226569	-0.760581
48817		4.797882	1.652473	8.347874	0.005322	-0.004031	-0.001263	-0.537842	0.485596	-0.700439	0.589656	-0.150012	-0.226588	-0.760565
48818		4.796857	1.642128	8.339945	0.004727	-0.001406	-0.001559	-0.540527	0.482666	-0.704102	0.589690	-0.149994	-0.226595	-0.760540
48819		4.789042	1.654178	8.337103	0.004663	-0.002740	-0.001846	-0.542969	0.480957	-0.701904	0.589704	-0.149980	-0.226614	-0.760527
48820		4.796257	1.637217	8.350671	0.004665	-0.002261	-0.001464	-0.543213	0.489746	-0.701416	0.589701	-0.149964	-0.226624	-0.760530
48821		4.798121	1.643686	8.328927	0.006218	-0.003334	-0.002207	-0.544434	0.485107	-0.696777	0.589712	-0.149960	-0.226653	-0.760513
48822		4.798674	1.651623	8.356995	0.005564	-0.001086	-0.002026	-0.551758	0.481445	-0.708008	0.589703	-0.149940	-0.226652	-0.760524
48823		4.789121	1.650136	8.337281	0.004780	-0.001984	-0.002801	-0.544922	0.481201	-0.700928	0.589658	-0.149913	-0.226659	-0.760562
48824		4.799275	1.650097	8.336980	0.006157	-0.003711	-0.001729	-0.540039	0.485596	-0.700928	0.589640	-0.149903	-0.226690	-0.760569
48825		4.798648	1.648620	8.367023	0.006159	-0.003233	-0.001347	-0.539551	0.491699	-0.696533	0.589665	-0.149893	-0.226721	-0.760543
48826		4.789748	1.649498	8.356453	0.007593	-0.005061	-0.001135	-0.540039	0.485107	-0.693359	0.589699	-0.149907	-0.226770	-0.760499
48827		4.798727	1.640798	8.357979	0.010946	-0.003305	-0.002621	-0.542236	0.486084	-0.700684	0.589702	-0.149869	-0.226839	-0.760483
48828		4.792643	1.661601	8.342970	0.012383	-0.004176	-0.001644	-0.547363	0.480957	-0.697021	0.589723	-0.149825	-0.226933	-0.760448
48829		4.800089	1.641864	8.337016	0.011603	-0.004117	-0.001655	-0.545410	0.484619	-0.705322	0.589694	-0.149785	-0.227009	-0.760455
48830		4.794150	1.664589	8.331515	0.010045	-0.004001	-0.001675	-0.540527	0.484863	-0.700684	0.589701	-0.149749	-0.227082	-0.760435
48831		4.791802	1.648027	8.335036	0.010111	-0.002189	-0.001008	-0.548096	0.475830	-0.700439	0.589736	-0.149701	-0.227140	-0.760400
48832		4.792381	1.652496	8.343808	0.010826	-0.003102	-0.000901	-0.547363	0.483887	-0.702148	0.589706	-0.149648	-0.227206	-0.760414
48833		4.795932	1.671206	8.329165	0.006260	-0.004393	-0.003828	-0.545166	0.485840	-0.713867	0.589666	-0.149642	-0.227243	-0.760436
48834		4.793515	1.654174	8.332833	0.007832	-0.001637	-0.001518	-0.545654	0.482666	-0.700928	0.589700	-0.149590	-0.227288	-0.760405
48835		4.803549	1.652042	8.323020	0.005318	-0.003073	-0.000497	-0.551270	0.481445	-0.703613	0.589697	-0.149588	-0.227300	-0.760405
48836		4.804133	1.655514	8.331986	0.005491	-0.002421	-0.002312	-0.541016	0.479248	-0.698486	0.589652	-0.149570	-0.227310	-0.760440
48837		4.794942	1.658425	8.331167	0.006210	-0.002856	-0.001824	-0.541016	0.490234	-0.706787	0.589649	-0.149551	-0.227336	-0.760439
48838		4.802462	1.644052	8.354121	0.006145	-0.004190	-0.002108	-0.547607	0.483643	-0.707520	0.589686	-0.149550	-0.227378	-0.760397
48839		4.807583	1.671653	8.337325	0.006867	-0.004146	-0.001238	-0.541504	0.487793	-0.706787	0.589683	-0.149537	-0.227421	-0.760389
48840		4.786093	1.659258	8.350011	0.005319	-0.002594	-0.000115	-0.542236	0.482666	-0.702148	0.589734	-0.149529	-0.227440	-0.760346
48841		4.807455	1.664924	8.338190	0.006143	-0.004190	-0.002108	-0.548584	0.480225	-0.696289	0.589734	-0.149524	-0.227478	-0.760335
48842		4.787359	1.659429	8.339256	0.002204	-0.002842	-0.000537	-0.538574	0.483643	-0.707764	0.589694	-0.149547	-0.227449	-0.760371
48843		4.797541	1.658764	8.339055	0.003874	-0.002682	-0.001854	-0.540771	0.493408	-0.699707	0.589731	-0.149535	-0.227466	-0.760339
48844		4.807831	1.658467	8.338717	0.005309	-0.004030	-0.001259	-0.538086	0.487061	-0.699219	0.589770	-0.149557	-0.227486	-0.760298
48845		4.798756	1.656739	8.318766	0.004589	-0.003596	-0.001747	-0.537354	0.483887	-0.700439	0.589800	-0.149568	-0.227503	-0.760268
48846		4.799481	1.662276	8.337239	0.003928	-0.002784	-0.002714	-0.545898	0.490479	-0.701904	0.589820	-0.149565	-0.227513	-0.760250
48847		4.811030	1.668942	8.325325	0.002259	-0.002944	-0.001396	-0.545654	0.482422	-0.701416	0.589825	-0.149593	-0.227494	-0.760247
48848		4.811464	1.669730	8.324916	0.003879	-0.001725	-0.001092	-0.538818	0.479980	-0.699707	0.589817	-0.149586	-0.227484	-0.760257
48849		4.800775	1.662746	8.326402	0.003147	-0.003206	-0.003105	-0.536865	0.476562	-0.706543	0.589810	-0.149587	-0.227490	-0.760261
48850		4.802664	1.677411	8.342919	0.002443	-0.000377	-0.001688	-0.542236	0.497070	-0.703857	0.589839	-0.149553	-0.227481	-0.760247
48851		4.799678	1.657115	8.337621	0.002443	-0.000377	-0.001688	-0.547607	0.479736	-0.701416	0.589891	-0.149560	-0.227448	-0.760215
48852		4.790115	1.659172	8.337192	0.001604	-0.001175	-0.001601	-0.540527	0.483643	-0.702881	0.589857	-0.149559	-0.227412	-0.760253
48853		4.798536	1.651247	8.348917	0.003217	-0.000914	-0.002059	-0.545166	0.487305	-0.701904	0.589873	-0.149543	-0.227400	-0.760247
48854		4.806731	1.641093	8.351219	0.000946	0.000114	-0.002187	-0.541992	0.492432	-0.696533	0.589871	-0.149543	-0.227349	-0.760264
48855		4.790118	1.660937	8.336839	-0.000554	0.000127	-0.003066	-0.542480	0.473145	-0.700684	0.589876	-0.149567	-0.227279	-0.760277
48856		4.789796	1.656497	8.317914	-0.002942	0.000402	-0.002237	-0.536621	0.482422	-0.700928	0.589836	-0.149570	-0.227199	-0.760331
48857		4.797910	1.649635	8.339601	-0.004384	0.000791	-0.003595	-0.543457	0.487793	-0.697754	0.589841	-0.149588	-0.227108	-0.760351
48858		4.799311	1.660592	8.347138	-0.005339	-0.000760	-0.002551	-0.539551	0.484375	-0.697266	0.589819	-0.149648	-0.227000	-0.760388
48859		4.799005	1.657684	8.337895	-0.005101	0.001704	-0.003702	-0.538818	0.481689	-0.703613	0.589804	-0.149671	-0.226886	-0.760429
48860		4.787414	1.649273	8.340187	-0.002823	0.001634	-0.002813	-0.540283	0.481201	-0.696045	0.589812	-0.149666	-0.226803	-0.760449
48861		4.808049	1.657941	8.348160	-0.000671	-0.000626	-0.002110	-0.542236	0.489014	-0.702393	0.589796	-0.149681	-0.226744	-0.760475
48862		4.788623	1.658898	8.338104	0.000946	0.000115	-0.002187	-0.544922	0.489746	-0.699707	0.589812	-0.149680	-0.226697	-0.760478
48863		4.795175	1.636756	8.333212	-0.000610	0.000230	-0.002207	-0.543701	0.486572	-0.699219	0.589805	-0.149696	-0.226626	-0.760501
48864		4.785461	1.640872	8.342456	0.001833	-0.000146	-0.003895	-0.543457	0.485840	-0.698975	0.589782	-0.149688	-0.226587	-0.760532
48865		4.794975	1.635996	8.323485	0.002547	-0.001538	-0.004169	-0.543945	0.479492	-0.693848	0.589752	-0.149686	-0.226566	-0.760562
48866		4.795098	1.641024	8.342408	0.000171	0.000651	-0.001816	-0.541504	0.487549	-0.695068	0.589714	-0.149685	-0.226497	-0.760612
48867		4.795145	1.643722	8.351842	0.001714	-0.001378	-0.003320	-0.537109	0.488037	-0.701660	0.589697	-0.149698	-0.226462	-0.760634
48868		4.784066	1.634337	8.344041	0.001772	-0.001002	-0.003798	-0.545898	0.486572	-0.690918	0.589717	-0.149692	-0.226440	-0.760626
48869		4.788309	1.663490	8.337370	0.001945	0.000128	-0.005233	-0.549316	0.494141	-0.705811	0.589650	-0.149691	-0.226387	-0.760693
48870		4.804876	1.644865	8.351545	0.002321	-0.002086	-0.001494	-0.540527	0.485352	-0.706543	0.589650	-0.149710	-0.226360	-0.760697
48871		4.785688	1.644274	8.331663	0.004046	-0.001549	-0.003289	-0.543213	0.487061	-0.706055	0.589663	-0.149684	-0.226368	-0.760691
48872		4.784624	1.640162	8.352569	0.001601	-0.001653	-0.001982	-0.549561	0.490967	-0.702393	0.589672	-0.149686	-0.226344	-0.760690
48873		4.786222	1.648221	8.340570	0.003991	-0.001447	-0.002430	-0.550781	0.484863	-0.702637	0.589650	-0.149684	-0.226327	-0.760713
48874		4.796427	1.650002	8.349867	0.003031	-0.003957	-0.002148	-0.549805	0.485840	-0.702637	0.589599	-0.149703	-0.226320	-0.760751
48875		4.795316	1.641511	8.351682	0.003277	-0.000056	-0.002157	-0.541016	0.492676	-0.696533	0.589567	-0.149685	-0.226288	-0.760788
48876		4.796704	1.651642	8.349384	0.000941	-0.000364	-0.002568	-0.549316	0.483398	-0.698242	0.589578	-0.149701	-0.226235	-0.760792
48877		4.785535	1.639933	8.332109	0.003158	-0.001288	-0.001581	-0.541992	0.483154	-0.698975	0.589534	-0.149700	-0.226206	-0.760836
48878		4.785809	1.643174	8.341306	0.004044	-0.001549	-0.003289	-0.539307	0.483887	-0.699951	0.589515	-0.149683	-0.226201	-0.760855
48879		4.787443	1.653762	8.338773	0.003990	-0.001447	-0.002430	-0.545166	0.489014	-0.704346	0.589523	-0.149666	-0.226198	-0.760853
48880		4.794293	1.632403	8.333589	0.003270	-0.001013	-0.002919	-0.537598	0.479736	-0.704590	0.589518	-0.149654	-0.226182	-0.760864
48881		4.778225	1.659558	8.347398	0.003260	-0.002450	-0.004061	-0.542725	0.488525	-0.696289	0.589516	-0.149632	-0.226194	-0.760866
48882		4.772746	1.620477	8.346301	0.000765	-0.001973	-0.001513	-0.542480	0.486328	-0.698730	0.589510	-0.149663	-0.226149	-0.760878
48883		4.788287	1.659708	8.347104	0.004891	0.000687	-0.002235	-0.547852	0.482178	-0.697266	0.589514	-0.149627	-0.226131	-0.760888
48884		4.785343	1.642053	8.351300	0.003269	-0.001013	-0.002919	-0.538330	0.486816	-0.706055	0.589459	-0.149617	-0.226104	-0.760940
48885		4.788208	1.657476	8.327599	0.003934	-0.001344	-0.001571	-0.541504	0.487061	-0.696045	0.589502	-0.149597	-0.226107	-0.760910
48886		4.795506	1.642678	8.350858	0.003870	-0.002678	-0.001854	-0.540039	0.483643	-0.704590	0.589498	-0.149607	-0.226099	-0.760913
48887		4.787437	1.649977	8.329033	0.001711	-0.001379	-0.003319	-0.548096	0.486816	-0.696777	0.589500	-0.149596	-0.226082	-0.760919
48888		4.784785	1.634286	8.342679	0.003991	-0.000967	-0.002050	-0.541748	0.483154	-0.700684	0.589464	-0.149592	-0.226055	-0.760956
48889		4.776798	1.648415	8.349440	0.003988	-0.001446	-0.002430	-0.540039	0.485840	-0.698242	0.589457	-0.149574	-0.226051	-0.760966
48890		4.796503	1.646551	8.349522	0.003035	-0.002998	-0.001385	-0.538574	0.487549	-0.698975	0.589465	-0.149589	-0.226043	-0.760959
48891		4.787266	1.651251	8.358379	0.004822	-0.001127	-0.002899	-0.536377	0.488281	-0.702148	0.589482	-0.149568	-0.226043	-0.760950
48892		4.787361	1.647997	8.338978	0.003872	-0.002199	-0.001473	-0.546143	0.495605	-0.700195	0.589528	-0.149564	-0.226047	-0.760914
48893		4.786176	1.639460	8.340866	0.002436	-0.000854	-0.002069	-0.536865	0.491943	-0.695312	0.589532	-0.149578	-0.226006	-0.760921
48894		4.787662	1.649817	8.338445	0.004047	-0.000591	-0.002528	-0.549316	0.488037	-0.696777	0.589563	-0.149571	-0.225988	-0.760903
48895		4.785029	1.636602	8.361605	0.004043	-0.001070	-0.002909	-0.533691	0.486084	-0.701172	0.589514	-0.149568	-0.225962	-0.760949
48896		4.786405	1.642714	8.340094	0.003989	-0.000967	-0.002050	-0.538330	0.484619	-0.701904	0.589564	-0.149545	-0.225962	-0.760915
48897		4.787990	1.655390	8.347149	0.003992	-0.000488	-0.001669	-0.537842	0.484863	-0.703613	0.589591	-0.149518	-0.225953	-0.760902
48898		4.796090	1.641449	8.330302	0.005654	-0.000807	-0.003368	-0.547119	0.482666	-0.703369	0.589611	-0.149474	-0.225969	-0.760890
48899		4.785358	1.641516	8.360454	0.004039	-0.001549	-0.003289	-0.537598	0.483398	-0.701904	0.589569	-0.149453	-0.225963	-0.760929
48900		4.788133	1.659231	8.346304	0.003329	0.000321	-0.002637	-0.545166	0.491211	-0.707031	0.589588	-0.149419	-0.225946	-0.760926
48901		4.775511	1.640650	8.340776	0.003988	-0.000967	-0.002049	-0.538574	0.485352	-0.695557	0.589603	-0.149403	-0.225935	-0.760921
48902		4.785511	1.642633	8.350153	0.004701	-0.002358	-0.002321	-0.537109	0.492188	-0.693848	0.589604	-0.149399	-0.225937	-0.760920
48903		4.785725	1.644054	8.349751	0.005652	-0.000806	-0.003368	-0.541504	0.486328	-0.700195	0.589624	-0.149384	-0.225933	-0.760909
48904		4.785728	1.643321	8.339900	0.005541	-0.001079	-0.002030	-0.543701	0.480225	-0.704834	0.589630	-0.149359	-0.225936	-0.760908
48905		4.766868	1.649773	8.348422	0.006140	-0.003222	-0.001344	-0.538086	0.492676	-0.702637	0.589621	-0.149335	-0.225967	-0.760911
48906		4.786443	1.646275	8.338907	0.006374	-0.000759	-0.002499	-0.545166	0.484375	-0.695312	0.589667	-0.149304	-0.225979	-0.760877
48907		4.778457	1.660706	8.345580	0.003980	-0.001926	-0.002810	-0.547852	0.489502	-0.701416	0.589623	-0.149304	-0.225963	-0.760916
48908		4.785721	1.641857	8.349734	0.006192	-0.003325	-0.002202	-0.539795	0.485352	-0.701416	0.589600	-0.149303	-0.225979	-0.760930
48909		4.787363	1.646331	8.318374	0.007862	-0.002206	-0.002761	-0.543701	0.489746	-0.709473	0.589611	-0.149264	-0.226018	-0.760917
48910		4.794829	1.634674	8.350990	0.007028	-0.002526	-0.002292	-0.544434	0.481689	-0.704834	0.589634	-0.149233	-0.226054	-0.760895
48911		4.778794	1.660048	8.355055	0.004755	-0.001982	-0.002800	-0.544434	0.483154	-0.700195	0.589612	-0.149208	-0.226063	-0.760914
48912		4.777471	1.647375	8.337876	0.002532	-0.002022	-0.004547	-0.538818	0.479980	-0.701904	0.589561	-0.149204	-0.226046	-0.760959
48913		4.766708	1.643000	8.348958	0.006363	-0.001718	-0.003259	-0.540283	0.477051	-0.702881	0.589558	-0.149161	-0.226073	-0.760962
48914		4.779709	1.664086	8.353728	0.005307	-0.003061	-0.000493	-0.543213	0.483643	-0.701172	0.589562	-0.149141	-0.226097	-0.760956
48915		4.787021	1.640653	8.338791	0.005356	-0.003644	-0.001732	-0.541504	0.489746	-0.692871	0.589550	-0.149139	-0.226116	-0.760960
48916		4.781109	1.664589	8.342825	0.006845	-0.005091	-0.001993	-0.540771	0.491455	-0.700684	0.589539	-0.149162	-0.226145	-0.760955
48917		4.790539	1.655399	8.344296	0.007394	-0.006649	-0.000067	-0.545654	0.483154	-0.705811	0.589573	-0.149190	-0.226200	-0.760908
48918		4.771240	1.652643	8.354465	0.008173	-0.006225	0.000323	-0.540039	0.494629	-0.697510	0.589576	-0.149190	-0.226266	-0.760885
48919		4.801544	1.648082	8.344494	0.009716	-0.007296	-0.000418	-0.542236	0.480957	-0.708496	0.589613	-0.149216	-0.226341	-0.760829
48920		4.781999	1.640845	8.335698	0.005180	-0.005251	-0.000674	-0.545654	0.492188	-0.710449	0.589625	-0.149216	-0.226384	-0.760807
48921		4.786053	1.663123	8.339830	0.006622	-0.005633	0.000684	-0.534912	0.486084	-0.698975	0.589668	-0.149230	-0.226430	-0.760758
48922		4.775133	1.651335	8.362073	0.004949	-0.007232	0.000865	-0.551758	0.481934	-0.701172	0.589718	-0.149274	-0.226473	-0.760697
48923		4.787508	1.654155	8.330333	0.011154	-0.007678	0.000939	-0.543945	0.487061	-0.700928	0.589681	-0.149278	-0.226562	-0.760698
48924		4.796070	1.636080	8.333642	0.010317	-0.008478	0.001030	-0.533203	0.487549	-0.695801	0.589698	-0.149299	-0.226655	-0.760653
48925		4.778600	1.645219	8.350878	0.008105	-0.007080	0.000423	-0.545410	0.485596	-0.699951	0.589758	-0.149324	-0.226724	-0.760582
48926		4.784382	1.672987	8.333319	0.010313	-0.008477	0.001030	-0.540039	0.484863	-0.698486	0.589761	-0.149345	-0.226815	-0.760547
48927		4.802764	1.651195	8.327221	0.010243	-0.010292	0.000373	-0.538574	0.479492	-0.698730	0.589778	-0.149381	-0.226926	-0.760495
48928		4.792136	1.635925	8.330019	0.011150	-0.007197	0.001318	-0.538818	0.482666	-0.694824	0.589808	-0.149372	-0.227026	-0.760443
48929		4.807639	1.671313	8.350870	0.006726	-0.004883	-0.000275	-0.544922	0.482178	-0.699707	0.589820	-0.149381	-0.227062	-0.760421
48930		4.796038	1.651026	8.335210	0.008267	-0.005954	-0.001016	-0.535400	0.485107	-0.708008	0.589802	-0.149383	-0.227122	-0.760417
48931		4.808501	1.662828	8.341624	0.005828	-0.006537	-0.000082	-0.542969	0.487305	-0.701172	0.589869	-0.149394	-0.227184	-0.760344
48932		4.806806	1.643418	8.335614	0.009097	-0.005635	-0.001487	-0.541016	0.489502	-0.700439	0.589878	-0.149390	-0.227251	-0.760318
48933		4.790026	1.659965	8.341409	0.009156	-0.004780	-0.001588	-0.546143	0.482178	-0.702637	0.589904	-0.149381	-0.227312	-0.760282
48934		4.812981	1.675784	8.326855	0.009155	-0.004780	-0.001588	-0.539062	0.484375	-0.709717	0.589887	-0.149359	-0.227376	-0.760280
48935		4.806586	1.626176	8.318327	0.007609	-0.004188	-0.001226	-0.546875	0.482910	-0.708252	0.589936	-0.149331	-0.227438	-0.760229
48936		4.794158	1.674772	8.336491	0.003720	-0.005351	-0.002405	-0.547363	0.483398	-0.698242	0.589913	-0.149345	-0.227462	-0.760237
48937		4.812944	1.661512	8.328888	0.005274	-0.004982	-0.002010	-0.544922	0.479004	-0.701172	0.589871	-0.149364	-0.227481	-0.760260
48938		4.794789	1.667852	8.337098	0.005161	-0.005731	-0.001049	-0.541260	0.484619	-0.697266	0.589846	-0.149379	-0.227515	-0.760266
48939		4.794285	1.657722	8.328983	0.007653	-0.004774	-0.002464	-0.534912	0.485352	-0.705322	0.589840	-0.149376	-0.227561	-0.760258
48940		4.795317	1.659564	8.328022	0.007535	-0.006003	-0.001882	-0.541748	0.489990	-0.703369	0.589893	-0.149370	-0.227635	-0.760195
48941		4.806186	1.662128	8.336769	0.006769	-0.004987	-0.001134	-0.548584	0.484619	-0.704346	0.589926	-0.149378	-0.227677	-0.760156
48942		4.818075	1.669500	8.324323	0.007599	-0.004668	-0.001606	-0.546631	0.482178	-0.695557	0.589907	-0.149370	-0.227723	-0.760158
48943		4.806187	1.651380	8.318471	0.005397	-0.002791	-0.001834	-0.541504	0.486572	-0.704102	0.589870	-0.149370	-0.227725	-0.760187
48944		4.799872	1.675142	8.322684	0.005406	-0.001830	-0.001077	-0.548584	0.483643	-0.692139	0.589904	-0.149351	-0.227735	-0.760161
48945		4.797408	1.655116	8.317287	0.003740	-0.002948	-0.000511	-0.543701	0.483887	-0.703613	0.589860	-0.149379	-0.227711	-0.760197
48946		4.799495	1.665686	8.314368	0.006104	-0.004182	-0.002102	-0.547852	0.480469	-0.701660	0.589858	-0.149373	-0.227745	-0.760189
48947		4.809748	1.668047	8.323507	0.005517	-0.001081	-0.002039	-0.537598	0.483154	-0.703369	0.589829	-0.149343	-0.227745	-0.760218
48948		4.808497	1.661958	8.335075	0.001706	0.000050	-0.002182	-0.542480	0.488037	-0.701904	0.589862	-0.149323	-0.227714	-0.760205
48949		4.798517	1.661898	8.325318	0.003366	0.000688	-0.003126	-0.545410	0.476807	-0.706543	0.589872	-0.149297	-0.227684	-0.760211
48950		4.806748	1.654721	8.337140	0.005628	-0.000333	-0.002999	-0.535889	0.483887	-0.700439	0.589851	-0.149240	-0.227695	-0.760236
48951		4.825868	1.651272	8.327786	0.005005	-0.000597	-0.005584	-0.541992	0.490723	-0.706543	0.589858	-0.149197	-0.227703	-0.760236
48952		4.788532	1.668674	8.324219	0.011299	-0.001252	-0.007235	-0.540527	0.488770	-0.698975	0.589860	-0.149116	-0.227775	-0.760229
48953		4.799051	1.680178	8.361447	0.017151	-0.004419	-0.004664	-0.542236	0.483398	-0.699707	0.589873	-0.149038	-0.227913	-0.760193
48954		4.825768	1.649943	8.317714	0.016272	-0.009065	-0.007593	-0.540527	0.478516	-0.700439	0.589820	-0.148994	-0.228085	-0.760191
48955		4.771266	1.683133	8.359999	0.014636	-0.007298	-0.004758	-0.547607	0.492188	-0.700195	0.589797	-0.148943	-0.228230	-0.760175
48956		4.800922	1.668385	8.302194	0.012146	-0.008254	-0.003340	-0.539307	0.484131	-0.700195	0.589779	-0.148953	-0.228336	-0.760156
48957		4.793019	1.677494	8.319479	0.013752	-0.007509	-0.003427	-0.547852	0.477051	-0.705322	0.589788	-0.148924	-0.228468	-0.760114
48958		4.822098	1.667210	8.320894	0.013694	-0.007883	-0.002946	-0.541260	0.486816	-0.708984	0.589751	-0.148886	-0.228605	-0.760110
48959		4.796356	1.688406	8.335416	0.012084	-0.008628	-0.002858	-0.545166	0.478271	-0.704834	0.589781	-0.148873	-0.228737	-0.760049
48960		4.815808	1.674212	8.317611	0.011099	-0.009104	-0.000186	-0.547607	0.478271	-0.706055	0.589779	-0.148875	-0.228854	-0.760015
48961		4.827446	1.677450	8.325767	0.010379	-0.008676	-0.000675	-0.547852	0.480469	-0.705322	0.589764	-0.148878	-0.228961	-0.759994
48962		4.837979	1.668148	8.286914	0.002054	-0.005509	-0.001071	-0.541504	0.484375	-0.697021	0.589742	-0.148916	-0.228963	-0.760003
48963		4.831800	1.703397	8.348852	-0.012128	0.008736	0.003717	-0.551025	0.489014	-0.698730	0.589803	-0.148952	-0.228708	-0.760025
48964		4.881136	1.636279	8.285153	-0.013149	0.010655	-0.002620	-0.541016	0.479004	-0.706055	0.589771	-0.148971	-0.228429	-0.760130
48965		4.820477	1.647900	8.344677	-0.006596	0.006948	-0.011313	-0.546143	0.484375	-0.703857	0.589703	-0.148915	-0.228287	-0.760237
48966		4.773716	1.674496	8.369285	0.019407	-0.011539	-0.022542	-0.544922	0.485840	-0.700928	0.589504	-0.148828	-0.228535	-0.760334
48967		4.749457	1.774182	8.354456	0.033225	-0.013146	-0.009686	-0.546387	0.481201	-0.699951	0.589454	-0.148697	-0.228899	-0.760288
48968		4.707319	1.660002	8.291131	0.018201	-0.020114	-0.000574	-0.543457	0.475830	-0.706787	0.589423	-0.148767	-0.229153	-0.760222
48969		4.834869	1.630503	8.314267	0.010490	-0.019444	0.011105	-0.541016	0.487793	-0.703369	0.589512	-0.148896	-0.229327	-0.760075
48970		4.927982	1.776414	8.116268	-0.035237	0.034751	0.014028	-0.541016	0.486328	-0.700195	0.589735	-0.148880	-0.228649	-0.760110
48971		4.711626	1.658494	8.463858	-0.045154	0.036583	0.012487	-0.546143	0.490234	-0.703613	0.589912	-0.148917	-0.227863	-0.760202
48972		4.808779	1.727790	8.387108	-0.007043	0.010665	0.022668	-0.545166	0.477295	-0.697754	0.590166	-0.148951	-0.227606	-0.760075
48973		4.834056	1.758407	8.299396	-0.003562	0.013177	0.031087	-0.543213	0.491455	-0.701904	0.590465	-0.148949	-0.227352	-0.759919
48974		4.830654	1.747112	8.353062	0.013026	0.016897	0.053771	-0.534912	0.485840	-0.697998	0.591074	-0.148866	-0.227181	-0.759513
48975		4.885584	1.652586	8.296030	0.046638	0.022518	0.055776	-0.545898	0.482178	-0.700928	0.591792	-0.148479	-0.227291	-0.758996
48976		4.831225	1.515405	8.352525	0.044813	0.022444	0.036167	-0.543213	0.487061	-0.705811	0.592251	-0.148051	-0.227414	-0.758685
48977		4.661222	1.730911	8.374000	0.013267	0.024922	0.033608	-0.541260	0.487305	-0.702148	0.592667	-0.147825	-0.227227	-0.758460
48978		4.737646	1.590051	8.328964	-0.008482	0.023897	0.054605	-0.538330	0.484131	-0.710205	0.593233	-0.147835	-0.226797	-0.758144
48979		4.704860	1.645652	8.366594	-0.012217	0.017512	0.057123	-0.535156	0.481201	-0.702393	0.593818	-0.147919	-0.226393	-0.757791
48980		4.752133	1.679019	8.337003	-0.027692	0.009376	0.080749	-0.542480	0.486084	-0.703369	0.594555	-0.148267	-0.225852	-0.757306
48981		4.789515	1.579429	8.319911	-0.047756	0.021007	0.077534	-0.530273	0.492676	-0.704346	0.595222	-0.148655	-0.225030	-0.756951
48982		4.766297	1.569144	8.393793	-0.060247	0.038263	0.071486	-0.529053	0.493408	-0.706543	0.595928	-0.148951	-0.223982	-0.756647
48983		4.799690	1.599035	8.337948	-0.055073	0.039709	0.054332	-0.536865	0.502197	-0.708496	0.596486	-0.149141	-0.223008	-0.756458
48984		4.776494	1.558306	8.382283	-0.082883	0.069652	0.056319	-0.525879	0.499512	-0.709473	0.597066	-0.149276	-0.221530	-0.756408
48985		4.803675	1.490860	8.385585	-0.116690	0.103067	0.046553	-0.528564	0.498047	-0.705566	0.597620	-0.149302	-0.219517	-0.756552
48986		4.724529	1.402143	8.435947	-0.094084	0.083872	0.017560	-0.517822	0.496338	-0.707520	0.597840	-0.149264	-0.217908	-0.756852
48987		4.635952	1.471751	8.505697	-0.065783	0.032690	0.009735	-0.531982	0.507812	-0.707275	0.597942	-0.149462	-0.216979	-0.756998
48988		4.792359	1.621536	8.312218	-0.084738	0.039558	0.055899	-0.520020	0.503174	-0.699951	0.598408	-0.149888	-0.215706	-0.756910
48989		4.760972	1.477758	8.380259	-0.105241	0.088370	0.086827	-0.518799	0.509521	-0.705078	0.599281	-0.150082	-0.213825	-0.756715
48990		4.697294	1.300580	8.448859	-0.124242	0.115007	0.088506	-0.519531	0.514648	-0.705078	0.600215	-0.150166	-0.211563	-0.756593
48991		4.618933	0.987790	8.526582	-0.111192	0.082368	0.043898	-0.514160	0.519775	-0.705322	0.600646	-0.150348	-0.209746	-0.756721
48992		4.735119	0.902723	8.568957	-0.088776	0.009519	-0.074705	-0.512695	0.519775	-0.705078	0.599829	-0.150741	-0.208913	-0.757521
48993		4.623823	1.478028	8.601512	-0.042271	-0.061984	-0.171470	-0.517334	0.515381	-0.702637	0.598007	-0.151204	-0.209241	-0.758777
48994		4.500285	1.914004	8.402519	0.000879	-0.055961	-0.074110	-0.526855	0.516357	-0.695312	0.597186	-0.151540	-0.209749	-0.759216
48995		4.765891	1.368295	8.397158	0.034953	-0.027391	0.059453	-0.523682	0.513428	-0.703369	0.597717	-0.151721	-0.210093	-0.758667
48996		4.667616	1.191650	8.474343	0.019587	0.011204	0.009848	-0.525146	0.518799	-0.701416	0.597879	-0.151498	-0.210116	-0.758578
48997		4.568266	1.198818	8.561823	0.048198	-0.050027	-0.062973	-0.517822	0.515137	-0.690918	0.597239	-0.151465	-0.210994	-0.758844
48998		4.455212	1.529173	8.680057	0.112921	-0.159632	-0.072672	-0.522949	0.509766	-0.707764	0.596356	-0.151971	-0.213316	-0.758789
48999		3.997473	1.452793	9.425965	0.140714	-0.384333	-0.102849	-0.532959	0.503662	-0.694580	0.594661	-0.154284	-0.217661	-0.758419
49000		1.918739	2.737909	12.671496	0.558645	-1.589814	0.136931	-0.561035	0.490479	-0.681641	0.592580	-0.165548	-0.234395	-0.752663
49001		-0.266301	3.920124	17.062181	0.403471	-4.643047	1.024386	-0.627686	0.508301	-0.605957	0.588371	-0.208920	-0.269957	-0.733005
49002		0.728037	3.701910	20.137521	0.264872	-9.935623	2.292073	-0.734619	0.540771	-0.429443	0.571712	-0.303849	-0.336956	-0.683580
49003		40.393466	0.559952	33.430059	2.313808	-11.746982	1.112251	-0.824219	0.529053	-0.233643	0.533925	-0.388891	-0.432097	-0.613987
49004		54.223919	-0.996829	-1.808955	4.870252	-3.359443	-0.636293	-0.836182	0.468750	-0.248047	0.532620	-0.377924	-0.493692	-0.574245
49005		-4.468176	-10.439308	-22.843758	5.356672	5.835822	-0.753361	-0.788330	0.393311	-0.417236	0.585772	-0.293871	-0.494364	-0.571066
49006		-0.859605	3.612517	-16.186148	1.550356	0.130580	1.458337	-0.770264	0.398193	-0.426025	0.602482	-0.290518	-0.498874	-0.551126
49007		4.173057	7.479512	-4.795312	-3.139001	0.322298	1.036909	-0.750244	0.441895	-0.401855	0.599716	-0.318186	-0.470582	-0.563606
49008		0.167648	3.392490	1.098345	-4.210275	-0.067161	-0.136881	-0.754883	0.492676	-0.350098	0.580805	-0.348979	-0.441299	-0.588331
49009		-3.916303	-1.389951	4.156584	-2.918804	-1.278038	-1.664667	-0.787109	0.467285	-0.303223	0.548213	-0.370047	-0.435897	-0.610345
49010		-3.029665	-1.212504	4.919130	-1.075111	-1.845869	-2.526144	-0.817871	0.410156	-0.243408	0.513468	-0.377424	-0.451614	-0.624457
49011		-1.604649	-0.869651	4.934307	-0.364160	-1.775341	-2.186696	-0.863037	0.366943	-0.200928	0.484349	-0.381050	-0.470142	-0.631802
49012		1.264331	-1.613109	4.272678	-0.057436	-0.790663	-1.354667	-0.869873	0.330078	-0.196289	0.468639	-0.379624	-0.480774	-0.636490
49013		2.838151	-1.919410	2.409404	0.342515	0.910275	-0.629863	-0.871582	0.316650	-0.213135	0.470682	-0.366561	-0.481039	-0.642413
49014		2.208133	-2.018631	-0.074412	0.748451	2.118199	-0.208569	-0.866211	0.312012	-0.258301	0.484988	-0.343764	-0.475280	-0.648630
49015		-0.544494	-1.287383	-1.714162	0.872188	2.008003	0.082702	-0.848389	0.310547	-0.318604	0.501154	-0.322581	-0.469574	-0.651373
49016		-1.409053	-0.130338	-1.594095	0.348652	0.854305	0.435979	-0.835449	0.318848	-0.326416	0.511102	-0.315984	-0.465203	-0.650011
49017		1.137658	0.306740	-0.118945	-0.589061	0.172335	0.612669	-0.832764	0.345703	-0.340820	0.514727	-0.321916	-0.456802	-0.650199
49018		2.659038	-1.133918	1.429716	-1.107574	0.589000	0.567472	-0.826660	0.375732	-0.344727	0.518227	-0.327432	-0.441617	-0.655136
49019		0.657009	-1.982443	1.530721	-0.970761	1.151127	0.838532	-0.814209	0.407227	-0.363281	0.527414	-0.328832	-0.422636	-0.659608
49020		-2.548108	-0.969264	-0.434672	-0.182418	0.812023	0.872666	-0.805908	0.440430	-0.371582	0.538159	-0.327894	-0.412103	-0.658060
49021		-0.771031	3.139558	-1.960673	-0.633451	-0.856380	0.695913	-0.817627	0.459717	-0.341064	0.536837	-0.342751	-0.409691	-0.653055
49022		81.582434	6.252610	-1.082669	-2.826694	4.572518	-0.988292	-0.802246	0.467285	-0.422363	0.538793	-0.318589	-0.359176	-0.692240
49023		-44.422133	6.961435	18.205463	-1.649840	15.194497	-2.864794	-0.627930	0.441162	-0.659912	0.565353	-0.180237	-0.247877	-0.765798
49024		-6.947474	0.351078	26.988350	-1.629852	3.769055	0.001530	-0.571289	0.471924	-0.706543	0.572579	-0.155480	-0.205261	-0.778362
49025		9.109408	4.136065	6.630035	0.888173	-0.816304	0.665056	-0.573975	0.467041	-0.700195	0.578516	-0.158761	-0.218320	-0.769708
49026		5.896585	-0.186049	7.376987	-0.421710	0.405335	0.009757	-0.569336	0.472656	-0.706787	0.578812	-0.157944	-0.211220	-0.771633
49027		3.837542	2.340478	9.689616	0.184116	-0.101233	0.138108	-0.571777	0.471680	-0.704346	0.580195	-0.157964	-0.213372	-0.769996
49028		5.163005	0.452940	8.292951	0.316381	-0.168829	-0.024645	-0.567139	0.468506	-0.706787	0.580072	-0.157245	-0.217605	-0.769051
49029		4.918764	1.681647	8.303962	0.289312	-0.199698	-0.172530	-0.577881	0.458740	-0.701660	0.578413	-0.156603	-0.222092	-0.769148
49030		4.978407	1.846092	7.926729	0.156212	-0.035752	-0.206568	-0.583496	0.450439	-0.711914	0.576586	-0.155262	-0.224178	-0.770186
49031		4.418705	2.007895	8.222640	-0.072844	-0.007662	-0.100284	-0.572998	0.448486	-0.706299	0.575425	-0.155596	-0.223651	-0.771140
49032		4.669465	1.694051	8.458994	-0.156466	-0.034010	-0.036995	-0.580078	0.450928	-0.697998	0.574660	-0.156954	-0.222388	-0.771800
49033		4.884252	1.680956	8.432842	-0.003249	-0.051947	-0.007246	-0.574951	0.458496	-0.700439	0.574407	-0.157477	-0.222672	-0.771800
49034		5.039920	1.493877	8.116169	0.073753	-0.049206	-0.045269	-0.587402	0.449951	-0.695312	0.573975	-0.157305	-0.223757	-0.771842
49035		4.825437	1.751979	8.210281	0.042653	-0.022503	-0.070740	-0.588379	0.451904	-0.703857	0.573272	-0.157042	-0.224398	-0.772232
49036		4.657504	1.768545	8.271499	-0.051825	0.023219	-0.019774	-0.576416	0.448486	-0.705811	0.573023	-0.157153	-0.223703	-0.772597
49037		4.922396	1.632458	8.339819	-0.054705	0.030844	0.000263	-0.589111	0.456299	-0.708496	0.573011	-0.157256	-0.222889	-0.772819
49038		4.906437	1.700609	8.267266	-0.013652	0.011904	-0.013014	-0.579834	0.451904	-0.699463	0.572879	-0.157219	-0.222632	-0.772998
49039		4.909515	1.742714	8.268512	0.014623	-0.006429	-0.019347	-0.578125	0.448975	-0.702637	0.572697	-0.157138	-0.222794	-0.773103
49040		4.826437	1.809239	8.286120	-0.003319	0.012772	-0.015763	-0.583252	0.448975	-0.701172	0.572577	-0.157007	-0.222640	-0.773263
49041		4.855716	1.755412	8.339989	-0.019122	0.023650	0.000045	-0.580811	0.453857	-0.703125	0.572598	-0.156933	-0.222225	-0.773382
49042		4.838039	1.636723	8.319877	-0.020281	0.027530	-0.004730	-0.577393	0.447754	-0.697266	0.572590	-0.156813	-0.221781	-0.773539
49043		4.828679	1.598232	8.341635	-0.013378	0.022005	-0.008053	-0.577881	0.456055	-0.703613	0.572545	-0.156690	-0.221451	-0.773692
49044		4.786210	1.600833	8.254032	-0.011262	0.014066	-0.011962	-0.574951	0.455322	-0.700195	0.572456	-0.156615	-0.221206	-0.773843
49045		4.730135	1.655530	8.384143	-0.001862	0.003730	-0.006495	-0.569336	0.454834	-0.698730	0.572410	-0.156588	-0.221117	-0.773908
49046		4.813398	1.698896	8.343057	0.006995	-0.005239	-0.004657	-0.574707	0.455322	-0.699951	0.572383	-0.156586	-0.221175	-0.773912
49047		4.783882	1.782245	8.334461	0.004342	-0.004241	0.003067	-0.582031	0.451172	-0.698730	0.572422	-0.156618	-0.221185	-0.773874
49048		4.860294	1.759358	8.318149	-0.004851	0.006174	0.010201	-0.581299	0.448486	-0.705322	0.572525	-0.156640	-0.221018	-0.773841
49049		4.818241	1.645484	8.294672	-0.007043	0.004383	0.004752	-0.580322	0.452393	-0.707520	0.572575	-0.156677	-0.220854	-0.773844
49050		4.796078	1.628964	8.349035	0.003861	0.001892	0.003259	-0.579346	0.449707	-0.709473	0.572630	-0.156655	-0.220816	-0.773818
49051		4.798359	1.549017	8.376073	0.036067	-0.018060	-0.004185	-0.583984	0.461670	-0.703857	0.572624	-0.156574	-0.221249	-0.773715
49052		4.813338	1.638803	8.362412	0.065544	-0.048846	-0.016501	-0.585449	0.448486	-0.694092	0.572465	-0.156550	-0.222210	-0.773562
49053		4.849731	1.721420	8.268238	0.056968	-0.044091	-0.013086	-0.578369	0.455566	-0.698242	0.572321	-0.156553	-0.223047	-0.773427
49054		4.853834	1.796519	8.277254	0.035532	-0.029197	-0.006850	-0.584473	0.453125	-0.701416	0.572257	-0.156578	-0.223559	-0.773322
49055		4.853876	1.767859	8.291700	0.029130	-0.009654	0.001404	-0.580322	0.453369	-0.700684	0.572309	-0.156485	-0.223854	-0.773217
49056		4.842928	1.754469	8.294624	0.018668	0.003607	0.006033	-0.581299	0.448486	-0.697754	0.572428	-0.156349	-0.223944	-0.773130
49057		4.845508	1.689450	8.309557	0.010594	-0.000639	0.006987	-0.579346	0.451172	-0.695312	0.572523	-0.156316	-0.223986	-0.773054
49058		4.862358	1.658729	8.305914	0.013724	-0.003871	0.002992	-0.583008	0.441406	-0.697021	0.572579	-0.156281	-0.224089	-0.772990
49059		4.873228	1.658535	8.295029	0.014542	-0.009570	-0.004626	-0.581787	0.450684	-0.704834	0.572539	-0.156274	-0.224256	-0.772972
49060		4.844518	1.745937	8.254716	0.003827	-0.006043	-0.005416	-0.583252	0.448242	-0.707275	0.572495	-0.156306	-0.224296	-0.772988
49061		4.845265	1.752290	8.283227	-0.011403	0.002789	-0.003747	-0.576660	0.448242	-0.698975	0.572460	-0.156366	-0.224123	-0.773051
49062		4.836099	1.672304	8.292258	-0.012191	0.004364	-0.001749	-0.578125	0.450684	-0.705811	0.572450	-0.156421	-0.223927	-0.773104
49063		4.839311	1.703092	8.345225	-0.002490	-0.004934	-0.002471	-0.587402	0.449219	-0.700439	0.572430	-0.156494	-0.223894	-0.773114
49064		4.849617	1.696626	8.315778	0.007680	-0.008637	-0.007314	-0.573486	0.445801	-0.699707	0.572358	-0.156522	-0.223993	-0.773133
49065		4.824088	1.723431	8.319472	0.010007	-0.007227	-0.005311	-0.582275	0.452637	-0.700195	0.572329	-0.156518	-0.224104	-0.773123
49066		4.853668	1.716726	8.289775	0.014662	-0.004406	-0.001305	-0.567383	0.452148	-0.702637	0.572349	-0.156471	-0.224229	-0.773081
49067		4.872867	1.706521	8.281214	0.014754	-0.006718	-0.006261	-0.577148	0.453125	-0.704102	0.572333	-0.156423	-0.224384	-0.773058
49068		4.866214	1.734447	8.294681	0.011166	-0.002432	-0.008475	-0.588379	0.447754	-0.704834	0.572292	-0.156357	-0.224477	-0.773075
49069		4.871413	1.696270	8.293614	0.006697	0.001717	-0.008495	-0.579834	0.440918	-0.705811	0.572239	-0.156288	-0.224497	-0.773122
49070		4.856247	1.752167	8.301756	0.003069	0.005623	-0.010231	-0.580078	0.447266	-0.699219	0.572181	-0.156196	-0.224460	-0.773194
49071		4.944499	1.677599	8.308165	0.019709	0.004821	-0.017177	-0.587158	0.437744	-0.695557	0.572085	-0.155978	-0.224601	-0.773269
49072		5.208237	1.524157	8.330864	0.039080	0.018365	-0.053191	-0.586182	0.449951	-0.703857	0.571703	-0.155392	-0.224903	-0.773581
49073		5.330624	1.354917	8.528398	0.067305	0.090756	-0.103004	-0.588135	0.441895	-0.703857	0.571110	-0.153763	-0.225056	-0.774300
49074		4.992328	0.543048	8.550812	0.193035	0.242047	0.010433	-0.585693	0.442627	-0.710449	0.572271	-0.150091	-0.225126	-0.774142
49075		4.720793	2.722400	8.325383	0.277080	0.322060	0.042380	-0.567627	0.442139	-0.715332	0.574113	-0.145131	-0.225371	-0.773653
49076		4.569386	2.129830	8.276464	0.213532	0.320586	-0.086042	-0.565918	0.434814	-0.723877	0.574590	-0.140272	-0.225240	-0.774234
49077		3.993128	2.456668	8.160960	0.122953	0.212145	-0.053649	-0.565674	0.436035	-0.730713	0.574903	-0.137201	-0.224952	-0.774635
49078		3.926717	2.076994	8.100370	0.030882	0.058937	-0.017523	-0.565674	0.431885	-0.731201	0.574973	-0.136378	-0.224809	-0.774770
49079		3.899374	2.533615	7.938573	-0.122005	-0.127886	0.093519	-0.565674	0.427490	-0.730713	0.575328	-0.138773	-0.224339	-0.774217
