// Start Time: Unknown
// Update Rate: 40.0Hz
// Filter Profile: human (46.1)
// Firmware Version: 4.6.0
PacketCounter	SampleTimeFine	Acc_X	Acc_Y	Acc_Z	Gyr_X	Gyr_Y	Gyr_Z	Mag_X	Mag_Y	Mag_Z	Quat_q0	Quat_q1	Quat_q2	Quat_q3
48166		9.662730	0.695737	-1.508725	-0.003343	0.004411	-0.010047	-0.736328	-0.294922	0.600098	-0.179816	-0.743155	0.157131	-0.625058
48167		9.663629	0.648601	-1.511133	0.010243	0.001449	-0.012179	-0.733643	-0.302979	0.605713	-0.179819	-0.743190	0.156935	-0.625064
48168		9.661262	0.682475	-1.529226	0.016094	-0.000986	-0.009445	-0.743408	-0.298584	0.612061	-0.179814	-0.743242	0.156713	-0.625059
48169		9.658400	0.728943	-1.549923	0.011450	0.000741	-0.004367	-0.731934	-0.298340	0.602051	-0.179714	-0.743278	0.156586	-0.625077
48170		9.666300	0.712610	-1.526768	0.001810	0.002892	0.000204	-0.739014	-0.295166	0.603271	-0.179732	-0.743255	0.156563	-0.625106
48171		9.664790	0.669651	-1.489062	-0.008895	0.006446	0.004266	-0.740479	-0.294434	0.602051	-0.179780	-0.743183	0.156658	-0.625153
48172		9.669500	0.666459	-1.503750	-0.003836	0.004177	0.001198	-0.733154	-0.293213	0.598633	-0.179796	-0.743145	0.156694	-0.625185
48173		9.648827	0.655543	-1.482963	0.002248	0.003196	-0.003522	-0.731445	-0.293457	0.603760	-0.179792	-0.743135	0.156642	-0.625211
48174		9.669629	0.645097	-1.510006	0.000367	0.003918	-0.004099	-0.734131	-0.302734	0.601318	-0.179785	-0.743122	0.156604	-0.625238
48175		9.659087	0.646975	-1.500220	0.000117	0.005126	-0.001812	-0.735352	-0.295898	0.599365	-0.179867	-0.743069	0.156582	-0.625283
48176		9.668226	0.664339	-1.523342	0.004511	0.003732	-0.001874	-0.738770	-0.299316	0.598633	-0.179831	-0.743031	0.156546	-0.625348
48177		9.658352	0.697285	-1.495120	0.006342	0.005718	-0.001952	-0.735352	-0.297607	0.605469	-0.179819	-0.742979	0.156491	-0.625426
48178		9.690530	0.656054	-1.459667	-0.008031	0.007069	-0.001685	-0.730469	-0.288086	0.598389	-0.179898	-0.742929	0.156543	-0.625450
48179		9.656387	0.646580	-1.466313	-0.008780	0.001896	0.001344	-0.741455	-0.302979	0.598877	-0.179874	-0.742870	0.156660	-0.625498
48180		9.639177	0.682234	-1.458628	-0.007786	0.004107	0.001480	-0.729004	-0.296631	0.605469	-0.179987	-0.742779	0.156763	-0.625548
48181		9.665775	0.686639	-1.480093	-0.014458	0.006754	-0.002548	-0.730957	-0.294922	0.599609	-0.180117	-0.742719	0.156857	-0.625558
48182		9.677770	0.659712	-1.481548	-0.013677	0.010131	-0.004637	-0.737061	-0.299072	0.598145	-0.180265	-0.742598	0.156930	-0.625641
48183		9.644929	0.669391	-1.465797	0.006064	0.011379	-0.007267	-0.736816	-0.305420	0.598877	-0.180289	-0.742495	0.156831	-0.625780
48184		9.676599	0.687957	-1.416372	-0.008361	0.004884	-0.006046	-0.737305	-0.297852	0.596680	-0.180489	-0.742411	0.156872	-0.625812
48185		9.667704	0.695765	-1.382405	-0.025854	0.007731	-0.008157	-0.737305	-0.298584	0.603516	-0.180796	-0.742253	0.157022	-0.625873
48186		9.682446	0.664306	-1.422742	-0.014458	0.013859	-0.018329	-0.730957	-0.299805	0.600586	-0.181066	-0.742126	0.156955	-0.625963
48187		9.643062	0.630865	-1.430963	-0.003606	0.003084	-0.021646	-0.736328	-0.292725	0.601074	-0.181266	-0.742113	0.156798	-0.625959
48188		9.676025	0.672773	-1.427081	-0.000739	0.003693	-0.018204	-0.736084	-0.301270	0.594238	-0.181307	-0.742084	0.156648	-0.626020
48189		9.667556	0.638816	-1.475567	-0.016194	0.002914	-0.007556	-0.741699	-0.287598	0.597900	-0.181543	-0.741955	0.156755	-0.626077
48190		9.681578	0.625572	-1.444563	-0.023482	0.001064	-0.001260	-0.734863	-0.297852	0.598389	-0.181579	-0.741831	0.156949	-0.626165
48191		9.679290	0.642194	-1.394053	-0.035734	-0.001265	0.004241	-0.734131	-0.296143	0.608643	-0.181816	-0.741711	0.157314	-0.626147
48192		9.665826	0.621844	-1.429742	-0.052905	-0.003203	0.003218	-0.737305	-0.301025	0.599121	-0.182117	-0.741635	0.157753	-0.626039
48193		9.659041	0.612720	-1.447512	-0.049154	-0.001943	0.000720	-0.740967	-0.307373	0.601562	-0.182515	-0.741481	0.158208	-0.625990
48194		9.669707	0.613248	-1.455639	-0.035492	0.001162	-0.001409	-0.729248	-0.301514	0.599609	-0.182852	-0.741332	0.158547	-0.625982
48195		9.672918	0.601881	-1.416512	-0.023483	-0.002298	-0.012421	-0.743652	-0.304443	0.595947	-0.183109	-0.741321	0.158663	-0.625891
48196		9.682656	0.641724	-1.419741	-0.014867	-0.003046	-0.022006	-0.736328	-0.306152	0.605225	-0.183381	-0.741243	0.158697	-0.625896
48197		9.677130	0.641808	-1.414545	-0.008215	-0.001230	-0.027081	-0.737061	-0.300781	0.600830	-0.183595	-0.741281	0.158556	-0.625824
48198		9.672820	0.615499	-1.404000	-0.015317	0.002020	-0.028590	-0.741699	-0.314453	0.595703	-0.183836	-0.741251	0.158457	-0.625813
48199		9.687162	0.587993	-1.447043	-0.014646	0.000276	-0.028875	-0.734375	-0.303467	0.592285	-0.184300	-0.741150	0.158451	-0.625799
48200		9.680048	0.562868	-1.473453	-0.003325	-0.003186	-0.032659	-0.737793	-0.310059	0.599121	-0.184540	-0.741149	0.158291	-0.625769
48201		9.680551	0.587905	-1.452979	0.017349	-0.001482	-0.029697	-0.738037	-0.300537	0.599854	-0.184593	-0.741196	0.157995	-0.625772
48202		9.669742	0.625989	-1.426631	0.022770	-0.005156	-0.023534	-0.736084	-0.309570	0.593750	-0.184358	-0.741295	0.157676	-0.625806
48203		9.665631	0.667414	-1.458878	0.026719	-0.005069	-0.023814	-0.740234	-0.302246	0.593994	-0.184319	-0.741343	0.157413	-0.625826
48204		9.690788	0.696234	-1.409465	0.028303	-0.001882	-0.023094	-0.727295	-0.300781	0.600342	-0.184114	-0.741355	0.157105	-0.625950
48205		9.662544	0.724288	-1.392548	0.027997	-0.004041	-0.027458	-0.733643	-0.304199	0.603271	-0.183904	-0.741545	0.156670	-0.625895
48206		9.669313	0.775374	-1.423251	0.026518	-0.007241	-0.035687	-0.734619	-0.305664	0.593994	-0.183782	-0.741736	0.156188	-0.625826
48207		9.660159	0.822877	-1.439781	0.031914	-0.003705	-0.042267	-0.736084	-0.310059	0.592773	-0.183804	-0.741821	0.155681	-0.625844
48208		9.665030	0.809029	-1.376110	0.029167	-0.000047	-0.044776	-0.730225	-0.307861	0.598877	-0.183980	-0.741842	0.155190	-0.625890
48209		9.645085	0.805027	-1.409904	0.021410	-0.004736	-0.044127	-0.739258	-0.314941	0.593018	-0.184118	-0.741990	0.154685	-0.625798
48210		9.649504	0.823528	-1.482696	0.018769	-0.006499	-0.043836	-0.734863	-0.307617	0.596436	-0.184451	-0.741992	0.154308	-0.625791
48211		9.652526	0.827656	-1.434676	0.018982	-0.001592	-0.037117	-0.729980	-0.306396	0.595459	-0.184544	-0.742035	0.153886	-0.625817
48212		9.670090	0.809060	-1.431794	0.010422	-0.001829	-0.032328	-0.737061	-0.305908	0.601807	-0.184677	-0.742085	0.153560	-0.625799
48213		9.670469	0.780068	-1.438117	-0.003712	-0.003552	-0.027399	-0.734619	-0.306641	0.603760	-0.184779	-0.742110	0.153348	-0.625791
48214		9.668210	0.782392	-1.462184	-0.002309	-0.001888	-0.026757	-0.728271	-0.313232	0.601074	-0.184862	-0.742164	0.153111	-0.625760
48215		9.677406	0.744470	-1.434683	0.006487	0.000565	-0.021174	-0.736328	-0.307129	0.596191	-0.185029	-0.742222	0.152902	-0.625693
48216		9.658852	0.752838	-1.447375	0.008365	-0.007989	-0.018143	-0.732422	-0.303711	0.597168	-0.185007	-0.742232	0.152743	-0.625727
48217		9.684257	0.783272	-1.464144	0.012611	-0.005710	-0.014067	-0.734863	-0.309082	0.592041	-0.184836	-0.742278	0.152548	-0.625770
48218		9.648578	0.842912	-1.449480	0.019824	-0.004641	-0.011631	-0.729736	-0.301514	0.602783	-0.184774	-0.742233	0.152405	-0.625876
48219		9.644034	0.888563	-1.406038	0.014298	-0.006137	-0.014491	-0.732910	-0.310303	0.598877	-0.184480	-0.742381	0.152122	-0.625857
48220		9.663218	0.892839	-1.372104	-0.008825	-0.003133	-0.017380	-0.737305	-0.312988	0.597900	-0.184703	-0.742356	0.152088	-0.625828
48221		9.661511	0.871007	-1.403635	-0.021354	0.000076	-0.020188	-0.728027	-0.320312	0.596924	-0.185123	-0.742225	0.152144	-0.625846
48222		9.640091	0.824727	-1.412377	-0.016125	0.000315	-0.022903	-0.739746	-0.314209	0.594238	-0.185734	-0.742175	0.152157	-0.625721
48223		9.655962	0.822883	-1.424396	-0.009916	-0.004179	-0.025746	-0.731689	-0.314453	0.602539	-0.186097	-0.742055	0.152093	-0.625771
48224		9.671286	0.844245	-1.428742	-0.006807	-0.002048	-0.029754	-0.729736	-0.309326	0.599609	-0.186392	-0.742108	0.151886	-0.625671
48225		9.663561	0.863563	-1.439028	-0.004279	-0.002684	-0.030393	-0.740479	-0.312500	0.598877	-0.186556	-0.742169	0.151634	-0.625611
48226		9.659479	0.869353	-1.410609	-0.001314	-0.002978	-0.033250	-0.735596	-0.311035	0.607422	-0.186752	-0.742127	0.151373	-0.625665
48227		9.659053	0.886517	-1.400509	-0.008632	-0.001334	-0.033328	-0.734375	-0.312256	0.601074	-0.186889	-0.742204	0.151084	-0.625603
48228		9.665598	0.820037	-1.427902	-0.020488	-0.001681	-0.030970	-0.732178	-0.314209	0.596191	-0.187215	-0.742186	0.150959	-0.625557
48229		9.664010	0.841701	-1.430384	-0.016947	-0.001897	-0.030537	-0.733643	-0.312500	0.589844	-0.187599	-0.742138	0.150851	-0.625525
48230		9.672927	0.821651	-1.470870	-0.018820	-0.002991	-0.027173	-0.742676	-0.328613	0.603027	-0.187980	-0.742006	0.150831	-0.625573
48231		9.673767	0.792190	-1.476957	-0.017836	-0.003474	-0.021879	-0.729492	-0.318848	0.601074	-0.188496	-0.741916	0.150850	-0.625519
48232		9.669277	0.777196	-1.469717	-0.006260	-0.004630	-0.015295	-0.738037	-0.318604	0.592773	-0.188655	-0.741973	0.150779	-0.625420
48233		9.693185	0.778295	-1.451370	-0.003966	-0.001650	-0.008793	-0.728027	-0.317139	0.593994	-0.188793	-0.741825	0.150814	-0.625546
48234		9.670309	0.785965	-1.447717	-0.011195	-0.006352	-0.000349	-0.732910	-0.314941	0.598877	-0.188901	-0.741795	0.150962	-0.625514
48235		9.668189	0.813427	-1.454203	-0.006547	-0.008871	0.000298	-0.726562	-0.313477	0.594482	-0.188823	-0.741809	0.151053	-0.625498
48236		9.679645	0.839676	-1.433023	-0.003920	-0.006169	-0.001207	-0.727295	-0.320312	0.599365	-0.188775	-0.741821	0.151115	-0.625483
48237		9.644820	0.852206	-1.433834	-0.000241	-0.003054	-0.004644	-0.735596	-0.316162	0.599609	-0.188840	-0.741861	0.151115	-0.625417
48238		9.659187	0.872866	-1.451395	0.000680	-0.004166	-0.008146	-0.735352	-0.320312	0.588867	-0.188786	-0.741850	0.151073	-0.625457
48239		9.660846	0.888303	-1.418183	0.000652	-0.002357	-0.010579	-0.732422	-0.315918	0.598389	-0.188980	-0.741702	0.151094	-0.625568
48240		9.661999	0.855313	-1.424477	-0.010071	-0.003218	-0.013434	-0.731934	-0.319092	0.596680	-0.189079	-0.741689	0.151079	-0.625557
48241		9.668587	0.806683	-1.444530	-0.017944	-0.004372	-0.011642	-0.730225	-0.318359	0.596680	-0.189328	-0.741644	0.151170	-0.625513
48242		9.667856	0.800908	-1.455887	-0.009647	-0.004678	-0.010215	-0.731445	-0.315674	0.594971	-0.189462	-0.741637	0.151202	-0.625473
48243		9.645413	0.787763	-1.460466	0.002418	-0.003669	-0.014297	-0.732666	-0.316895	0.601074	-0.189459	-0.741633	0.151099	-0.625504
48244		9.676774	0.785930	-1.421994	0.014381	-0.001760	-0.013590	-0.731934	-0.320068	0.593506	-0.189300	-0.741697	0.150876	-0.625530
48245		9.668345	0.814075	-1.435101	0.015690	-0.003429	-0.013588	-0.724365	-0.314209	0.598877	-0.189293	-0.741690	0.150715	-0.625579
48246		9.649765	0.820991	-1.447876	0.017217	-0.003562	-0.018020	-0.730469	-0.323242	0.600586	-0.189129	-0.741833	0.150423	-0.625529
48247		9.643682	0.841256	-1.435784	0.024654	-0.006069	-0.022738	-0.725830	-0.320801	0.604492	-0.189110	-0.741968	0.150079	-0.625457
48248		9.644950	0.858998	-1.403849	0.036500	-0.005663	-0.023602	-0.730713	-0.322510	0.593506	-0.188904	-0.742212	0.149593	-0.625347
48249		9.675320	0.874670	-1.434313	0.026466	-0.004042	-0.022810	-0.726807	-0.317383	0.600830	-0.188937	-0.742241	0.149277	-0.625378
48250		9.658878	0.864505	-1.431910	0.016645	-0.003613	-0.019801	-0.734375	-0.316162	0.602539	-0.188855	-0.742357	0.148995	-0.625332
48251		9.657075	0.872434	-1.446118	0.008451	-0.004513	-0.011501	-0.741455	-0.315918	0.600098	-0.188717	-0.742397	0.148860	-0.625359
48252		9.657623	0.861305	-1.445237	0.007087	-0.007082	-0.010920	-0.732178	-0.320801	0.593018	-0.188586	-0.742364	0.148778	-0.625456
48253		9.643096	0.896519	-1.456178	0.013759	-0.006037	-0.014788	-0.731689	-0.314941	0.597168	-0.188639	-0.742343	0.148645	-0.625497
48254		9.648981	0.910862	-1.440004	0.014634	-0.005337	-0.019222	-0.733643	-0.325439	0.598389	-0.188546	-0.742384	0.148415	-0.625531
48255		9.638748	0.902195	-1.430109	0.010797	-0.003043	-0.018582	-0.732910	-0.319824	0.600342	-0.188702	-0.742379	0.148245	-0.625531
48256		9.657046	0.880382	-1.427790	0.008000	-0.005473	-0.019570	-0.727539	-0.321045	0.599854	-0.188740	-0.742422	0.148061	-0.625512
48257		9.647878	0.901112	-1.452150	0.007816	-0.006095	-0.019353	-0.733154	-0.324219	0.594727	-0.188822	-0.742505	0.147879	-0.625432
48258		9.653107	0.898165	-1.456816	0.009629	-0.004979	-0.018215	-0.737305	-0.316406	0.596924	-0.188975	-0.742476	0.147737	-0.625453
48259		9.658957	0.912962	-1.440533	0.009259	-0.006227	-0.017780	-0.732422	-0.326660	0.606689	-0.188919	-0.742456	0.147573	-0.625533
48260		9.641820	0.924962	-1.430170	0.004224	-0.004984	-0.017993	-0.731445	-0.324707	0.598389	-0.189055	-0.742540	0.147418	-0.625429
48261		9.649176	0.937479	-1.466176	0.003197	-0.005401	-0.017561	-0.726318	-0.316650	0.599121	-0.189227	-0.742549	0.147308	-0.625392
48262		9.655830	0.929855	-1.457480	-0.003323	-0.004026	-0.016343	-0.734375	-0.316650	0.595947	-0.189290	-0.742585	0.147223	-0.625349
48263		9.651584	0.913970	-1.450255	-0.004165	-0.003818	-0.016128	-0.727051	-0.316895	0.600098	-0.189360	-0.742524	0.147173	-0.625413
48264		9.640438	0.918491	-1.442340	-0.005443	-0.003961	-0.013696	-0.737793	-0.323486	0.597412	-0.189407	-0.742555	0.147123	-0.625373
48265		9.645867	0.914742	-1.446268	-0.005053	-0.003612	-0.012911	-0.732666	-0.320557	0.606934	-0.189568	-0.742467	0.147125	-0.625429
48266		9.657133	0.903775	-1.453666	-0.005338	-0.006667	-0.013042	-0.729492	-0.322754	0.600098	-0.189593	-0.742539	0.147070	-0.625349
48267		9.670143	0.897124	-1.437138	-0.004190	0.000420	-0.012213	-0.729736	-0.316895	0.604248	-0.189723	-0.742511	0.147032	-0.625351
48268		9.637276	0.884388	-1.432149	-0.000095	-0.003038	-0.012135	-0.722656	-0.325195	0.594971	-0.189653	-0.742564	0.146939	-0.625331
48269		9.650971	0.897321	-1.460288	0.006135	-0.003225	-0.011072	-0.734619	-0.323242	0.599609	-0.189777	-0.742586	0.146858	-0.625287
48270		9.654686	0.886025	-1.422751	0.008772	-0.006547	-0.011063	-0.724854	-0.320557	0.599365	-0.189755	-0.742597	0.146758	-0.625304
48271		9.646416	0.882033	-1.455185	0.019304	-0.004420	-0.011946	-0.735596	-0.327148	0.595215	-0.189625	-0.742689	0.146543	-0.625284
48272		9.636695	0.932322	-1.461265	0.024852	-0.006193	-0.015734	-0.731934	-0.327148	0.597900	-0.189601	-0.742690	0.146305	-0.625347
48273		9.643098	0.964537	-1.424106	0.015210	-0.003381	-0.018372	-0.725830	-0.322754	0.594971	-0.189681	-0.742701	0.146092	-0.625359
48274		9.661370	0.933496	-1.431923	0.002245	-0.002471	-0.016495	-0.729248	-0.321045	0.606689	-0.189825	-0.742692	0.145991	-0.625350
48275		9.650297	0.888539	-1.463317	0.008503	-0.002645	-0.016934	-0.737793	-0.324463	0.606445	-0.189776	-0.742782	0.145790	-0.625303
48276		9.648927	0.914510	-1.456534	0.021471	-0.004448	-0.016091	-0.730469	-0.315430	0.602295	-0.189637	-0.742849	0.145520	-0.625330
48277		9.663451	0.963655	-1.443710	0.017131	-0.005859	-0.013860	-0.735107	-0.325195	0.600586	-0.189416	-0.742931	0.145303	-0.625349
48278		9.657063	0.973409	-1.442087	-0.001277	-0.004997	-0.010257	-0.740234	-0.322754	0.600830	-0.189515	-0.742900	0.145288	-0.625360
48279		9.648020	0.940421	-1.440054	-0.012062	-0.006868	-0.007368	-0.735107	-0.316895	0.597900	-0.189628	-0.742822	0.145393	-0.625394
48280		9.633342	0.923568	-1.424473	-0.002921	-0.005490	-0.010108	-0.736572	-0.318359	0.595215	-0.189613	-0.742777	0.145394	-0.625452
48281		9.650318	0.895902	-1.445814	0.006741	-0.006467	-0.012910	-0.731689	-0.318848	0.603516	-0.189571	-0.742734	0.145312	-0.625535
48282		9.662374	0.911940	-1.422156	0.010449	-0.004216	-0.016644	-0.725098	-0.321777	0.605469	-0.189484	-0.742794	0.145115	-0.625535
48283		9.645490	0.934442	-1.466615	0.009035	-0.004985	-0.016993	-0.729492	-0.325195	0.602295	-0.189461	-0.742914	0.144911	-0.625447
48284		9.653665	0.922105	-1.445217	0.005931	-0.005352	-0.016912	-0.730713	-0.324219	0.594482	-0.189536	-0.742968	0.144760	-0.625395
48285		9.644571	0.890407	-1.443263	0.010044	-0.004558	-0.015926	-0.729736	-0.325684	0.606201	-0.189606	-0.742948	0.144625	-0.625429
48286		9.654437	0.884083	-1.463965	0.018614	-0.005045	-0.016514	-0.727783	-0.322998	0.595703	-0.189533	-0.743058	0.144364	-0.625381
48287		9.653186	0.918878	-1.447237	0.023188	-0.004797	-0.016526	-0.730957	-0.322754	0.602295	-0.189461	-0.743100	0.144110	-0.625411
48288		9.650419	0.958464	-1.443702	0.019769	-0.006413	-0.019005	-0.727539	-0.331299	0.601562	-0.189379	-0.743184	0.143842	-0.625398
48289		9.638578	0.945316	-1.457816	0.013995	-0.006803	-0.021058	-0.734131	-0.321777	0.594727	-0.189513	-0.743269	0.143605	-0.625311
48290		9.662292	0.948567	-1.440644	0.010980	-0.004744	-0.020635	-0.735840	-0.323730	0.603760	-0.189556	-0.743237	0.143421	-0.625378
48291		9.647286	0.924684	-1.435490	0.005129	-0.005143	-0.018188	-0.730713	-0.318604	0.600342	-0.189595	-0.743251	0.143275	-0.625383
48292		9.638833	0.922078	-1.467776	0.004329	-0.006746	-0.015532	-0.735107	-0.319580	0.600586	-0.189574	-0.743279	0.143165	-0.625382
48293		9.655284	0.935919	-1.460385	0.000946	-0.005945	-0.014671	-0.732422	-0.318604	0.595703	-0.189582	-0.743264	0.143095	-0.625413
48294		9.655926	0.925927	-1.459504	0.004151	-0.007368	-0.015313	-0.724854	-0.313965	0.600342	-0.189587	-0.743248	0.143014	-0.625449
48295		9.640033	0.934416	-1.502080	0.008542	-0.007738	-0.015108	-0.729248	-0.318604	0.596436	-0.189460	-0.743332	0.142860	-0.625423
48296		9.652151	0.959646	-1.468804	0.017119	-0.008202	-0.015701	-0.731201	-0.328613	0.598389	-0.189351	-0.743378	0.142670	-0.625445
48297		9.653300	0.967067	-1.447139	0.011207	-0.003478	-0.012076	-0.728516	-0.328369	0.594971	-0.189413	-0.743361	0.142559	-0.625470
48298		9.634145	0.954667	-1.480714	0.002934	-0.005093	-0.011038	-0.732910	-0.323242	0.602539	-0.189566	-0.743326	0.142539	-0.625470
48299		9.649174	0.972152	-1.486340	0.001618	-0.007672	-0.011942	-0.729248	-0.330078	0.601807	-0.189588	-0.743347	0.142487	-0.625451
48300		9.658197	0.996920	-1.489024	0.010305	-0.005699	-0.013699	-0.726074	-0.327881	0.602295	-0.189662	-0.743387	0.142358	-0.625411
48301		9.640861	0.998590	-1.489031	0.010669	-0.004444	-0.014138	-0.727051	-0.317383	0.593506	-0.189707	-0.743441	0.142209	-0.625367
48302		9.632735	0.993228	-1.455424	0.007669	-0.003299	-0.012494	-0.733398	-0.317139	0.594971	-0.189666	-0.743412	0.142111	-0.625436
48303		9.635968	1.024671	-1.454058	0.009010	-0.001619	-0.010370	-0.726807	-0.327148	0.604248	-0.189571	-0.743344	0.142020	-0.625566
48304		9.652235	1.019194	-1.466479	0.004619	-0.001254	-0.010572	-0.729980	-0.320312	0.589844	-0.189626	-0.743364	0.141935	-0.625545
48305		9.633469	1.004833	-1.433655	-0.001673	-0.001124	-0.008624	-0.726318	-0.326904	0.593994	-0.189708	-0.743245	0.141966	-0.625654
48306		9.649745	0.999506	-1.445970	-0.003011	-0.002802	-0.010747	-0.726807	-0.329346	0.604980	-0.189895	-0.743189	0.141986	-0.625660
48307		9.646406	1.011344	-1.472183	-0.001465	0.000410	-0.013063	-0.733643	-0.310547	0.598389	-0.190050	-0.743192	0.141925	-0.625622
48308		9.659158	0.977336	-1.486162	-0.006294	-0.000486	-0.008327	-0.730469	-0.324463	0.608643	-0.189949	-0.743114	0.141925	-0.625746
48309		9.655606	0.958950	-1.478111	0.000152	-0.001797	-0.003556	-0.729492	-0.329834	0.615723	-0.189900	-0.743134	0.141915	-0.625739
48310		9.660542	0.984060	-1.463448	0.006163	-0.001654	-0.002007	-0.727783	-0.332520	0.604248	-0.189819	-0.743216	0.141853	-0.625680
48311		9.630596	1.019723	-1.448489	0.004519	-0.002160	-0.001854	-0.729004	-0.330078	0.603516	-0.189865	-0.743223	0.141857	-0.625658
48312		9.642424	1.005886	-1.455169	0.001540	-0.001019	-0.001710	-0.732422	-0.326904	0.601807	-0.189907	-0.743203	0.141883	-0.625663
48313		9.645516	1.017236	-1.473950	-0.000180	0.000278	-0.002500	-0.724365	-0.314453	0.596680	-0.189933	-0.743142	0.141919	-0.625720
48314		9.655568	0.979238	-1.458738	0.000387	0.001255	-0.001939	-0.729248	-0.323975	0.602783	-0.189830	-0.743090	0.141941	-0.625807
48315		9.644376	0.942416	-1.425941	0.009994	0.001241	-0.002972	-0.729004	-0.322754	0.601318	-0.189730	-0.743075	0.141877	-0.625870
48316		9.646141	0.967057	-1.447598	0.014128	-0.002172	-0.002886	-0.729980	-0.319092	0.603271	-0.189580	-0.743089	0.141794	-0.625918
48317		9.655518	0.989233	-1.449354	0.016186	-0.001311	-0.003757	-0.731689	-0.319824	0.599121	-0.189363	-0.743111	0.141674	-0.625984
48318		9.666236	0.997623	-1.448487	0.019477	-0.001197	-0.001342	-0.727539	-0.329590	0.594238	-0.189133	-0.743099	0.141571	-0.626092
48319		9.641403	0.969065	-1.433782	0.018785	-0.001275	0.002874	-0.728516	-0.325928	0.607422	-0.189045	-0.743061	0.141540	-0.626170
48320		9.647188	1.039264	-1.433166	0.008067	-0.004122	0.004008	-0.730225	-0.322754	0.593994	-0.188921	-0.743104	0.141557	-0.626152
48321		9.649813	1.011276	-1.428590	-0.012517	-0.001555	0.004841	-0.734375	-0.322754	0.604004	-0.189021	-0.742980	0.141783	-0.626218
48322		9.645532	0.945175	-1.472224	-0.015907	-0.000766	0.005703	-0.732422	-0.319580	0.601562	-0.189082	-0.742888	0.142010	-0.626258
48323		9.634566	0.926877	-1.484294	-0.002905	-0.001565	0.003808	-0.730957	-0.311768	0.599121	-0.189011	-0.742834	0.142120	-0.626318
48324		9.657777	0.938385	-1.468388	-0.001671	-0.001410	0.004374	-0.730957	-0.314697	0.605713	-0.188845	-0.742777	0.142222	-0.626413
48325		9.636209	0.920366	-1.471713	-0.009891	-0.000616	0.007252	-0.731934	-0.321045	0.602539	-0.188738	-0.742733	0.142391	-0.626459
48326		9.663633	0.899625	-1.437420	-0.016520	-0.002642	0.010864	-0.734619	-0.322998	0.596680	-0.188758	-0.742654	0.142673	-0.626482
48327		9.639480	0.908241	-1.446071	-0.015209	-0.002482	0.006931	-0.720947	-0.325928	0.594238	-0.188851	-0.742534	0.142940	-0.626535
48328		9.634050	0.864312	-1.482185	-0.005701	-0.000699	0.006453	-0.733887	-0.325195	0.600342	-0.188934	-0.742476	0.143115	-0.626539
48329		9.638741	0.869735	-1.488296	0.008860	-0.002527	0.001345	-0.726318	-0.323486	0.598389	-0.188851	-0.742454	0.143127	-0.626588
48330		9.651486	0.890884	-1.453658	0.021504	-0.001260	0.002001	-0.730469	-0.322754	0.599854	-0.188654	-0.742475	0.143040	-0.626642
48331		9.650605	0.921403	-1.436316	0.025308	-0.001694	0.000420	-0.730957	-0.324707	0.591553	-0.188415	-0.742501	0.142909	-0.626713
48332		9.654132	0.949676	-1.435134	0.013463	-0.002257	-0.000173	-0.729004	-0.319580	0.601074	-0.188361	-0.742448	0.142903	-0.626793
48333		9.651954	0.916205	-1.424890	0.009686	-0.000917	-0.002812	-0.730713	-0.320312	0.602051	-0.188260	-0.742453	0.142854	-0.626829
48334		9.656514	0.922777	-1.431200	0.014518	-0.001825	-0.002108	-0.734131	-0.316650	0.601318	-0.188110	-0.742472	0.142777	-0.626869
48335		9.653818	0.949609	-1.437285	0.008710	-0.003146	0.000069	-0.729248	-0.322998	0.597656	-0.187953	-0.742465	0.142770	-0.626926
48336		9.653670	0.949675	-1.438236	0.002307	-0.003646	-0.002258	-0.729492	-0.316162	0.606934	-0.187978	-0.742448	0.142810	-0.626930
48337		9.654641	0.927367	-1.446519	0.000231	-0.000275	-0.000498	-0.726562	-0.319336	0.600830	-0.187888	-0.742455	0.142833	-0.626943
48338		9.662216	0.925490	-1.426638	-0.003940	-0.003520	-0.003306	-0.733643	-0.317871	0.604980	-0.187927	-0.742458	0.142892	-0.626914
48339		9.655402	0.905969	-1.455629	-0.006201	-0.005003	-0.000713	-0.730957	-0.316406	0.597656	-0.187914	-0.742456	0.142990	-0.626899
48340		9.664005	0.881118	-1.444111	-0.004811	-0.004222	0.001130	-0.723389	-0.325684	0.599365	-0.187899	-0.742416	0.143112	-0.626922
48341		9.640900	0.877518	-1.450946	-0.003320	-0.005241	0.002419	-0.726074	-0.322754	0.595215	-0.187968	-0.742428	0.143232	-0.626860
48342		9.679411	0.904560	-1.440251	0.000327	-0.006304	-0.000441	-0.730225	-0.319336	0.597412	-0.188006	-0.742426	0.143314	-0.626832
48343		9.651323	0.885791	-1.452214	0.008424	-0.005299	-0.001270	-0.731689	-0.318359	0.592041	-0.187921	-0.742432	0.143317	-0.626850
48344		9.655980	0.901497	-1.448923	0.008629	-0.004672	-0.002990	-0.727783	-0.312012	0.600586	-0.187863	-0.742398	0.143318	-0.626907
48345		9.655728	0.902077	-1.450241	0.000325	-0.005404	-0.003162	-0.731689	-0.323975	0.595215	-0.187777	-0.742422	0.143343	-0.626898
48346		9.657071	0.897941	-1.438288	0.002440	-0.003018	0.000519	-0.727295	-0.326660	0.596436	-0.187804	-0.742371	0.143424	-0.626932
48347		9.650469	0.887017	-1.457129	0.008063	-0.005649	-0.003549	-0.732422	-0.318848	0.595459	-0.187838	-0.742388	0.143425	-0.626902
48348		9.657231	0.857786	-1.469475	0.015931	-0.004366	-0.003882	-0.729980	-0.318848	0.598389	-0.187710	-0.742388	0.143352	-0.626957
48349		9.650179	0.897026	-1.449632	0.014698	-0.004519	-0.004446	-0.725342	-0.319336	0.601318	-0.187593	-0.742415	0.143275	-0.626978
48350		9.643745	0.895485	-1.458276	0.011127	-0.004357	-0.003360	-0.729004	-0.318604	0.596924	-0.187504	-0.742466	0.143226	-0.626955
48351		9.645300	0.900729	-1.435965	0.013544	-0.002246	-0.004678	-0.730469	-0.313965	0.597900	-0.187413	-0.742468	0.143155	-0.626996
48352		9.643525	0.905838	-1.450113	0.012849	-0.004749	-0.005291	-0.731934	-0.320312	0.601318	-0.187272	-0.742490	0.143079	-0.627030
48353		9.646766	0.935904	-1.449613	0.013953	-0.005221	-0.007504	-0.726562	-0.317139	0.601074	-0.187195	-0.742531	0.142982	-0.627027
48354		9.652179	0.920909	-1.464388	0.007167	-0.003649	-0.005776	-0.728516	-0.308350	0.598877	-0.187146	-0.742563	0.142941	-0.627013
48355		9.645774	0.900270	-1.427663	-0.003605	-0.002272	-0.002243	-0.732422	-0.317871	0.589355	-0.187081	-0.742536	0.143001	-0.627050
48356		9.643590	0.887194	-1.462140	-0.005766	-0.004660	-0.002920	-0.726074	-0.324219	0.601074	-0.187180	-0.742451	0.143131	-0.627091
48357		9.650846	0.876560	-1.453367	0.002824	-0.005092	-0.003527	-0.731201	-0.318359	0.596191	-0.187233	-0.742479	0.143165	-0.627034
48358		9.655214	0.883923	-1.460330	0.008865	-0.004039	-0.006209	-0.729492	-0.314209	0.595947	-0.187198	-0.742473	0.143128	-0.627061
48359		9.650324	0.878451	-1.455687	0.010257	-0.003253	-0.004368	-0.733154	-0.315186	0.598633	-0.187095	-0.742469	0.143084	-0.627106
48360		9.636554	0.897739	-1.464035	0.010901	-0.007401	-0.004967	-0.732666	-0.310303	0.600098	-0.186979	-0.742499	0.143038	-0.627116
48361		9.642696	0.909416	-1.447929	0.008358	-0.003484	-0.002215	-0.731934	-0.312500	0.603271	-0.186814	-0.742499	0.143012	-0.627171
48362		9.650469	0.916727	-1.418330	0.004652	-0.003957	-0.003904	-0.727783	-0.320312	0.596191	-0.186712	-0.742516	0.142997	-0.627185
48363		9.656005	0.901182	-1.432670	0.001026	-0.002899	-0.002542	-0.737305	-0.321777	0.590332	-0.186762	-0.742488	0.143060	-0.627189
48364		9.644774	0.884212	-1.445346	0.002724	-0.003290	-0.002974	-0.729004	-0.317871	0.604980	-0.186824	-0.742397	0.143136	-0.627260
48365		9.643216	0.898315	-1.449153	0.000770	-0.005951	-0.002648	-0.735596	-0.317383	0.598389	-0.186804	-0.742437	0.143177	-0.627209
48366		9.656487	0.879984	-1.443618	0.002319	-0.004537	0.000469	-0.731689	-0.324219	0.597412	-0.186759	-0.742403	0.143254	-0.627246
48367		9.656113	0.870519	-1.455113	0.004173	-0.004300	0.001313	-0.724609	-0.324707	0.601807	-0.186779	-0.742376	0.143344	-0.627251
48368		9.638077	0.891334	-1.447146	0.006540	-0.005511	0.000887	-0.738037	-0.317139	0.600586	-0.186779	-0.742416	0.143403	-0.627190
48369		9.646952	0.894184	-1.470482	0.012334	-0.005073	0.002921	-0.732910	-0.313477	0.599609	-0.186608	-0.742407	0.143421	-0.627247
48370		9.642433	0.895864	-1.455865	0.016090	-0.004602	0.001611	-0.734863	-0.314209	0.601562	-0.186391	-0.742423	0.143387	-0.627301
48371		9.652487	0.944445	-1.427565	0.005335	-0.006565	0.001550	-0.729736	-0.310303	0.601318	-0.186272	-0.742430	0.143441	-0.627315
48372		9.642603	0.913307	-1.437763	-0.012402	-0.002473	0.000098	-0.732422	-0.320801	0.602539	-0.186308	-0.742388	0.143598	-0.627319
48373		9.647274	0.861039	-1.492779	-0.004327	-0.000554	-0.001968	-0.737305	-0.312256	0.598389	-0.186391	-0.742343	0.143698	-0.627325
48374		9.648976	0.866217	-1.469920	0.013970	-0.002773	-0.002685	-0.732178	-0.311523	0.599609	-0.186220	-0.742326	0.143639	-0.627409
48375		9.655791	0.895601	-1.432415	0.012199	-0.001478	-0.000478	-0.739258	-0.320557	0.600098	-0.186052	-0.742316	0.143605	-0.627478
48376		9.661699	0.888216	-1.436020	-0.005759	-0.002230	0.001916	-0.733887	-0.308594	0.594971	-0.186114	-0.742238	0.143766	-0.627516
48377		9.653280	0.843195	-1.442859	-0.010823	-0.001954	0.004440	-0.732422	-0.313477	0.599121	-0.186106	-0.742143	0.143962	-0.627585
48378		9.647051	0.840293	-1.450799	-0.002945	-0.004882	0.004717	-0.728760	-0.311523	0.600342	-0.186057	-0.742115	0.144111	-0.627599
48379		9.647190	0.848582	-1.441670	0.006081	-0.004960	0.001882	-0.734375	-0.317139	0.597900	-0.185929	-0.742134	0.144154	-0.627605
48380		9.660813	0.838634	-1.425569	0.010992	-0.002535	0.000182	-0.734375	-0.312012	0.604004	-0.185834	-0.742112	0.144163	-0.627656
48381		9.651851	0.863106	-1.439120	0.011662	-0.003355	0.000189	-0.733887	-0.316895	0.595947	-0.185658	-0.742131	0.144140	-0.627692
48382		9.653662	0.896251	-1.451427	0.006127	-0.004965	-0.001116	-0.731201	-0.314209	0.603027	-0.185626	-0.742111	0.144188	-0.627713
48383		9.647112	0.866098	-1.425331	0.004831	-0.003331	-0.004127	-0.736084	-0.314453	0.600342	-0.185584	-0.742127	0.144188	-0.627707
48384		9.644825	0.853017	-1.459855	0.006888	-0.002471	-0.005007	-0.729004	-0.314209	0.601807	-0.185536	-0.742111	0.144171	-0.627744
48385		9.652447	0.851452	-1.440279	0.000795	-0.002625	-0.002042	-0.734619	-0.313721	0.599121	-0.185527	-0.742110	0.144224	-0.627735
48386		9.643163	0.867784	-1.463953	0.001256	-0.003175	-0.003037	-0.739014	-0.316406	0.599365	-0.185516	-0.742084	0.144272	-0.627759
48387		9.653698	0.848455	-1.428716	-0.001679	-0.002943	-0.003165	-0.734131	-0.314941	0.597900	-0.185553	-0.742033	0.144351	-0.627790
48388		9.662269	0.843654	-1.461617	-0.005433	-0.003413	-0.001851	-0.736816	-0.308838	0.606445	-0.185612	-0.741987	0.144470	-0.627799
48389		9.649444	0.831335	-1.486955	-0.005493	-0.001620	-0.004301	-0.734863	-0.319092	0.597168	-0.185599	-0.741966	0.144527	-0.627815
48390		9.663044	0.823065	-1.470168	0.000378	-0.002082	-0.004045	-0.731201	-0.318848	0.606445	-0.185665	-0.741920	0.144591	-0.627835
48391		9.641742	0.825396	-1.452931	0.008483	-0.001057	-0.004893	-0.731689	-0.312744	0.594727	-0.185635	-0.741944	0.144561	-0.627823
48392		9.650546	0.830110	-1.475375	0.009406	-0.002155	-0.006883	-0.737061	-0.319580	0.595947	-0.185590	-0.741929	0.144515	-0.627864
48393		9.661636	0.858424	-1.453857	0.003148	-0.002049	-0.007917	-0.726318	-0.313232	0.599365	-0.185666	-0.741883	0.144527	-0.627892
48394		9.640043	0.852231	-1.446861	-0.004464	-0.001192	-0.004740	-0.729492	-0.309570	0.601807	-0.185734	-0.741865	0.144600	-0.627877
48395		9.643801	0.832602	-1.483568	-0.009359	0.000599	-0.005161	-0.736572	-0.314697	0.599854	-0.185803	-0.741825	0.144689	-0.627884
48396		9.662974	0.799216	-1.489815	-0.008762	0.000683	-0.003381	-0.731201	-0.306396	0.598877	-0.185896	-0.741746	0.144808	-0.627922
48397		9.647724	0.794475	-1.475090	0.001742	-0.000396	-0.003432	-0.731934	-0.320557	0.608643	-0.185821	-0.741720	0.144823	-0.627971
48398		9.648413	0.822434	-1.444073	0.004782	0.000903	-0.001754	-0.731934	-0.308838	0.594238	-0.185810	-0.741723	0.144851	-0.627964
48399		9.651433	0.833507	-1.462625	0.005370	0.001880	-0.002698	-0.725342	-0.324707	0.600098	-0.185739	-0.741663	0.144858	-0.628056
48400		9.657386	0.826871	-1.465533	0.001899	0.000233	-0.002156	-0.734131	-0.310791	0.600830	-0.185835	-0.741648	0.144935	-0.628027
48401		9.653217	0.839217	-1.439123	0.006712	0.000241	-0.002685	-0.733643	-0.309570	0.599609	-0.185745	-0.741625	0.144931	-0.628081
48402		9.647432	0.856345	-1.425579	0.004178	0.001714	-0.006258	-0.736572	-0.316162	0.596436	-0.185703	-0.741589	0.144909	-0.628142
48403		9.657893	0.857345	-1.434195	0.001548	0.000765	-0.008657	-0.727295	-0.309082	0.596680	-0.185770	-0.741532	0.144912	-0.628189
48404		9.665301	0.847891	-1.424158	-0.001356	0.000097	-0.007560	-0.738770	-0.312500	0.593994	-0.185800	-0.741508	0.144928	-0.628204
48405		9.653895	0.822968	-1.446058	-0.004575	0.001500	-0.006916	-0.729736	-0.319092	0.597168	-0.185880	-0.741413	0.144987	-0.628279
48406		9.667134	0.796895	-1.449115	-0.002511	0.001470	-0.005072	-0.732178	-0.306885	0.595215	-0.185990	-0.741362	0.145060	-0.628290
48407		9.667567	0.816456	-1.427941	0.001399	0.002574	-0.005110	-0.740479	-0.308594	0.594482	-0.185954	-0.741301	0.145067	-0.628370
48408		9.655296	0.822871	-1.431946	0.002870	-0.000868	-0.007144	-0.729248	-0.317871	0.597656	-0.185920	-0.741244	0.145058	-0.628449
48409		9.664570	0.846375	-1.433334	0.004285	-0.000081	-0.006806	-0.732910	-0.312744	0.595459	-0.185965	-0.741231	0.145062	-0.628451
48410		9.647642	0.846929	-1.431575	0.000053	0.001779	-0.009945	-0.730469	-0.320312	0.592285	-0.186030	-0.741181	0.145055	-0.628493
48411		9.659879	0.853627	-1.416685	-0.000951	0.001345	-0.011004	-0.733398	-0.316162	0.599609	-0.186195	-0.741124	0.145075	-0.628505
48412		9.667030	0.835907	-1.416806	-0.006947	0.000272	-0.011311	-0.728027	-0.317383	0.584473	-0.186349	-0.741088	0.145118	-0.628493
48413		9.655575	0.783551	-1.404196	-0.006149	0.000980	-0.011253	-0.732178	-0.316406	0.600342	-0.186557	-0.741001	0.145179	-0.628520
48414		9.664370	0.789993	-1.425760	0.003864	0.001363	-0.011532	-0.731689	-0.316650	0.589844	-0.186611	-0.740990	0.145132	-0.628528
48415		9.655388	0.826426	-1.428139	0.013166	-0.000757	-0.010917	-0.734619	-0.315674	0.596924	-0.186601	-0.740974	0.145036	-0.628572
48416		9.666122	0.846182	-1.416905	0.009466	-0.002135	-0.009878	-0.733887	-0.316406	0.592041	-0.186582	-0.740979	0.144971	-0.628586
48417		9.664056	0.842976	-1.440983	0.007543	-0.002369	-0.006223	-0.728516	-0.312500	0.599854	-0.186573	-0.740957	0.144964	-0.628617
48418		9.659662	0.856066	-1.415341	0.010480	-0.002592	-0.006095	-0.726562	-0.315430	0.603516	-0.186488	-0.740994	0.144917	-0.628609
48419		9.646459	0.903673	-1.391780	-0.004796	-0.001559	-0.008515	-0.732422	-0.314941	0.596924	-0.186588	-0.741011	0.144972	-0.628547
48420		9.648846	0.870212	-1.396544	-0.017244	0.001050	-0.010259	-0.739502	-0.316406	0.599854	-0.186822	-0.740936	0.145104	-0.628535
48421		9.644654	0.817023	-1.428818	-0.006153	0.001872	-0.013976	-0.734863	-0.309814	0.599854	-0.186975	-0.740878	0.145111	-0.628556
48422		9.673377	0.816884	-1.425980	0.004179	0.000195	-0.013802	-0.736816	-0.314941	0.596924	-0.186973	-0.740876	0.145023	-0.628580
48423		9.677672	0.826071	-1.432100	0.000309	-0.002709	-0.009815	-0.737549	-0.311279	0.593506	-0.187020	-0.740860	0.145027	-0.628584
48424		9.663680	0.808623	-1.415479	0.001705	-0.002814	-0.005255	-0.735840	-0.315430	0.600342	-0.186993	-0.740826	0.145055	-0.628626
48425		9.660367	0.827894	-1.432176	0.011877	-0.004219	-0.009080	-0.736816	-0.323486	0.595215	-0.186921	-0.740864	0.144978	-0.628619
48426		9.659176	0.870334	-1.405339	0.016933	-0.005365	-0.007382	-0.734131	-0.319580	0.590576	-0.186871	-0.740893	0.144911	-0.628616
48427		9.665407	0.892083	-1.379051	0.013380	-0.005224	-0.007790	-0.733154	-0.313965	0.588623	-0.186840	-0.740904	0.144862	-0.628624
48428		9.652321	0.871068	-1.415340	0.006956	-0.002440	-0.008002	-0.738525	-0.317139	0.597900	-0.186833	-0.740876	0.144839	-0.628664
48429		9.652184	0.881966	-1.406190	0.008415	-0.005874	-0.008535	-0.740723	-0.317627	0.587158	-0.186807	-0.740898	0.144808	-0.628652
48430		9.661087	0.905844	-1.409155	0.007236	-0.006936	-0.009369	-0.740234	-0.323242	0.597900	-0.186823	-0.740879	0.144791	-0.628674
48431		9.663401	0.871808	-1.415351	0.006363	-0.002522	-0.009782	-0.739502	-0.314453	0.599854	-0.186884	-0.740864	0.144778	-0.628676
48432		9.670703	0.862716	-1.406357	0.008355	-0.004076	-0.010985	-0.729004	-0.319092	0.596924	-0.186851	-0.740883	0.144709	-0.628680
48433		9.655191	0.897030	-1.417177	0.002978	-0.005084	-0.011008	-0.733398	-0.323730	0.594482	-0.186932	-0.740914	0.144710	-0.628619
48434		9.665378	0.861040	-1.402926	-0.000682	-0.004045	-0.008144	-0.735840	-0.320068	0.602783	-0.187064	-0.740898	0.144778	-0.628583
48435		9.655718	0.840842	-1.403052	0.001374	-0.007392	-0.006897	-0.727295	-0.318604	0.593018	-0.187105	-0.740938	0.144831	-0.628512
48436		9.658065	0.843799	-1.433890	0.000676	-0.006572	-0.005406	-0.735840	-0.316406	0.586914	-0.187164	-0.740955	0.144907	-0.628457
48437		9.667011	0.866927	-1.436822	0.002355	-0.006950	-0.004341	-0.737793	-0.312500	0.603027	-0.187174	-0.740930	0.144967	-0.628469
48438		9.657595	0.855062	-1.426773	0.004971	-0.005096	-0.004670	-0.728760	-0.318359	0.599365	-0.187099	-0.740954	0.144980	-0.628460
48439		9.669741	0.860204	-1.413542	0.003037	-0.004442	-0.003739	-0.740479	-0.310303	0.592285	-0.187110	-0.740976	0.145045	-0.628416
48440		9.644974	0.871235	-1.423354	-0.003616	-0.008046	-0.006139	-0.734619	-0.320068	0.595947	-0.187118	-0.740959	0.145113	-0.628418
48441		9.654998	0.862714	-1.444116	-0.004837	-0.005782	-0.003380	-0.731445	-0.315430	0.596191	-0.187208	-0.740942	0.145249	-0.628380
48442		9.659144	0.823265	-1.437223	-0.002573	-0.005181	-0.003262	-0.730225	-0.313965	0.598145	-0.187241	-0.740938	0.145353	-0.628351
48443		9.653067	0.840377	-1.424997	0.002419	-0.004523	-0.004020	-0.731201	-0.314209	0.592773	-0.187220	-0.740952	0.145404	-0.628328
48444		9.654254	0.827956	-1.423624	0.006289	-0.005828	-0.005884	-0.729248	-0.315186	0.602783	-0.187187	-0.740967	0.145413	-0.628318
48445		9.673548	0.841382	-1.445719	0.011340	-0.006068	-0.006916	-0.732666	-0.314209	0.596680	-0.187108	-0.741039	0.145375	-0.628266
48446		9.658100	0.836923	-1.432627	0.012544	-0.005004	-0.007582	-0.731445	-0.321045	0.593018	-0.187024	-0.741074	0.145317	-0.628264
48447		9.650079	0.849593	-1.443996	0.008346	-0.004953	-0.006767	-0.738525	-0.322021	0.600586	-0.187040	-0.741083	0.145326	-0.628245
48448		9.660347	0.850044	-1.454158	0.012232	-0.003827	-0.005313	-0.729248	-0.313965	0.598633	-0.186994	-0.741097	0.145311	-0.628247
48449		9.649559	0.851646	-1.446258	0.015490	-0.001890	-0.006865	-0.735840	-0.321777	0.604248	-0.186885	-0.741128	0.145233	-0.628260
48450		9.651172	0.857756	-1.423934	0.015607	-0.003685	-0.007409	-0.733887	-0.312500	0.598145	-0.186823	-0.741172	0.145175	-0.628240
48451		9.673665	0.853542	-1.429870	0.013520	-0.003661	-0.007750	-0.731445	-0.317383	0.604248	-0.186721	-0.741200	0.145101	-0.628255
48452		9.653855	0.889230	-1.424380	0.009007	-0.002439	-0.004667	-0.733398	-0.317139	0.594971	-0.186674	-0.741227	0.145107	-0.628236
48453		9.659844	0.892353	-1.418061	0.001363	-0.004064	-0.004798	-0.738525	-0.314697	0.598877	-0.186706	-0.741211	0.145173	-0.628229
48454		9.660922	0.870685	-1.426583	-0.006594	-0.004514	-0.002662	-0.729248	-0.313965	0.598145	-0.186760	-0.741177	0.145311	-0.628221
48455		9.657507	0.842621	-1.429090	-0.008332	-0.003240	-0.003454	-0.737305	-0.316650	0.601074	-0.186849	-0.741154	0.145457	-0.628188
48456		9.668041	0.852233	-1.428438	-0.008063	-0.004408	-0.002724	-0.730957	-0.310303	0.597656	-0.186930	-0.741127	0.145612	-0.628160
48457		9.655554	0.811481	-1.419464	-0.004691	-0.004267	-0.004821	-0.729492	-0.312744	0.594482	-0.186961	-0.741119	0.145706	-0.628139
48458		9.682595	0.813570	-1.431184	0.001866	-0.005502	-0.004568	-0.737305	-0.316162	0.594482	-0.186953	-0.741128	0.145762	-0.628118
48459		9.657803	0.824554	-1.440845	0.005237	-0.005360	-0.006665	-0.736328	-0.311035	0.600342	-0.186945	-0.741124	0.145777	-0.628120
48460		9.660853	0.817470	-1.416289	0.005915	-0.006174	-0.006658	-0.736084	-0.318115	0.596680	-0.186882	-0.741154	0.145774	-0.628105
48461		9.662975	0.810816	-1.457264	0.005426	-0.005626	-0.004165	-0.739258	-0.311035	0.596436	-0.186867	-0.741158	0.145820	-0.628094
48462		9.660279	0.819191	-1.419207	0.008694	-0.004580	-0.002995	-0.738281	-0.321045	0.590576	-0.186755	-0.741153	0.145825	-0.628132
48463		9.644534	0.842336	-1.440679	0.011775	-0.006587	-0.004914	-0.736084	-0.311523	0.597656	-0.186718	-0.741153	0.145828	-0.628142
48464		9.659246	0.849137	-1.457080	0.008181	-0.005566	-0.006542	-0.736816	-0.312744	0.595703	-0.186646	-0.741173	0.145811	-0.628143
48465		9.662531	0.850948	-1.422241	0.008778	-0.005478	-0.004764	-0.727295	-0.313721	0.593506	-0.186568	-0.741182	0.145810	-0.628157
48466		9.668256	0.845065	-1.426700	0.005416	-0.004732	-0.006889	-0.739502	-0.318115	0.597656	-0.186567	-0.741198	0.145826	-0.628135
48467		9.653987	0.855563	-1.445090	0.005183	-0.004458	-0.006392	-0.737061	-0.317627	0.603027	-0.186573	-0.741189	0.145853	-0.628137
48468		9.650678	0.836935	-1.437996	0.008454	-0.006730	-0.005811	-0.738281	-0.314209	0.600342	-0.186532	-0.741230	0.145865	-0.628099
48469		9.635427	0.887877	-1.428774	0.010230	-0.005574	-0.003205	-0.729736	-0.315918	0.598389	-0.186432	-0.741250	0.145872	-0.628103
48470		9.656453	0.896609	-1.437399	-0.008333	-0.003251	-0.003443	-0.729492	-0.314209	0.595703	-0.186542	-0.741223	0.146031	-0.628065
48471		9.654508	0.846296	-1.446603	-0.017990	0.000874	-0.004498	-0.730469	-0.312988	0.608643	-0.186746	-0.741136	0.146239	-0.628058
48472		9.659863	0.757267	-1.475988	-0.005971	0.003096	-0.005421	-0.729736	-0.319092	0.597900	-0.186819	-0.741103	0.146333	-0.628054
48473		9.687390	0.665519	-1.457832	0.002845	0.001587	-0.000834	-0.729736	-0.313477	0.596191	-0.186833	-0.741058	0.146426	-0.628081
48474		9.685526	0.716182	-1.485363	0.025938	-0.002839	-0.000958	-0.738037	-0.307861	0.609863	-0.186587	-0.741100	0.146329	-0.628127
48475		9.687858	0.747974	-1.432550	0.043969	-0.002815	-0.002180	-0.723145	-0.324219	0.598145	-0.186113	-0.741210	0.146059	-0.628201
48476		9.660301	0.792597	-1.437799	0.045724	-0.004071	-0.001386	-0.723389	-0.306885	0.604248	-0.185782	-0.741324	0.145850	-0.628213
48477		9.645516	0.860175	-1.408506	0.030764	-0.006087	-0.000580	-0.735352	-0.313721	0.593750	-0.185447	-0.741442	0.145720	-0.628203
48478		9.658477	0.860081	-1.448074	0.018987	-0.001949	-0.000482	-0.729736	-0.316162	0.593994	-0.185278	-0.741433	0.145685	-0.628272
48479		9.657307	0.845047	-1.417147	0.016805	-0.003462	-0.002362	-0.743164	-0.319336	0.605713	-0.185171	-0.741447	0.145667	-0.628291
48480		9.663488	0.856764	-1.401161	0.017802	-0.005450	-0.004616	-0.729248	-0.317627	0.597168	-0.185059	-0.741485	0.145627	-0.628288
48481		9.669375	0.860522	-1.395363	0.002313	-0.004279	-0.010998	-0.734131	-0.314453	0.602295	-0.185163	-0.741498	0.145652	-0.628237
48482		9.662600	0.851882	-1.413542	-0.010146	-0.002661	-0.011492	-0.731445	-0.307129	0.600342	-0.185352	-0.741475	0.145754	-0.628185
48483		9.649786	0.794658	-1.424297	-0.013264	-0.003084	-0.011386	-0.731689	-0.314697	0.600098	-0.185518	-0.741451	0.145860	-0.628139
48484		9.655233	0.781797	-1.438451	-0.004262	-0.005493	-0.014558	-0.728271	-0.321777	0.592773	-0.185674	-0.741469	0.145893	-0.628063
48485		9.666994	0.780693	-1.435704	0.012330	-0.005352	-0.017345	-0.729004	-0.314209	0.603271	-0.185760	-0.741513	0.145791	-0.628010
48486		9.667192	0.821451	-1.396208	0.013745	-0.004550	-0.017015	-0.731689	-0.317627	0.595459	-0.185764	-0.741586	0.145662	-0.627953
48487		9.652137	0.871508	-1.439996	0.001146	-0.011095	-0.015710	-0.729248	-0.307617	0.599365	-0.185890	-0.741646	0.145661	-0.627845
48488		9.651974	0.903494	-1.411356	-0.008741	-0.006732	-0.017772	-0.720215	-0.315674	0.596436	-0.186059	-0.741674	0.145682	-0.627757
48489		9.664700	0.862594	-1.436128	-0.022476	-0.004407	-0.020044	-0.738281	-0.311768	0.600342	-0.186449	-0.741665	0.145815	-0.627621
48490		9.641283	0.808620	-1.438029	-0.025626	-0.003936	-0.021164	-0.731689	-0.306641	0.594482	-0.186812	-0.741617	0.145930	-0.627543
48491		9.648795	0.781094	-1.501597	-0.012174	-0.004194	-0.022352	-0.732178	-0.315674	0.597412	-0.187032	-0.741606	0.145912	-0.627494
48492		9.642132	0.793438	-1.499595	0.003382	-0.005353	-0.020478	-0.731934	-0.313477	0.598145	-0.187150	-0.741641	0.145824	-0.627438
48493		9.676210	0.800946	-1.438916	0.008358	-0.004659	-0.019751	-0.734375	-0.319336	0.594727	-0.187199	-0.741685	0.145694	-0.627402
48494		9.663408	0.809878	-1.444121	0.000483	-0.003621	-0.016058	-0.733887	-0.317871	0.597168	-0.187334	-0.741676	0.145673	-0.627377
48495		9.655191	0.834407	-1.444997	0.011308	-0.004846	-0.019632	-0.731201	-0.316162	0.605225	-0.187381	-0.741718	0.145533	-0.627346
48496		9.646950	0.859100	-1.445802	0.025323	-0.000787	-0.021193	-0.730713	-0.319580	0.595947	-0.187301	-0.741794	0.145261	-0.627343
48497		9.652919	0.884069	-1.419261	0.023233	-0.004087	-0.020612	-0.732178	-0.312500	0.597412	-0.187264	-0.741862	0.145025	-0.627329
48498		9.647122	0.910016	-1.449421	0.018927	-0.002271	-0.020747	-0.731201	-0.312256	0.600342	-0.187217	-0.741908	0.144792	-0.627341
48499		9.640370	0.912045	-1.457419	0.014041	-0.001441	-0.019931	-0.728516	-0.313232	0.601807	-0.187208	-0.741946	0.144605	-0.627343
48500		9.647712	0.905372	-1.448202	0.012253	-0.002599	-0.021032	-0.737549	-0.310059	0.604980	-0.187230	-0.742000	0.144431	-0.627312
48501		9.658640	0.890504	-1.412960	0.004286	-0.003106	-0.018878	-0.734131	-0.312744	0.602051	-0.187270	-0.742025	0.144321	-0.627296
48502		9.647258	0.867445	-1.435431	-0.002274	-0.002812	-0.016397	-0.731689	-0.311279	0.602051	-0.187377	-0.742025	0.144295	-0.627270
48503		9.646985	0.880060	-1.425835	0.003484	-0.002275	-0.011399	-0.731689	-0.316162	0.603027	-0.187384	-0.742033	0.144266	-0.627266
48504		9.649396	0.902385	-1.435168	0.005341	-0.002007	-0.010566	-0.730225	-0.314209	0.599854	-0.187399	-0.742042	0.144244	-0.627256
48505		9.664068	0.919978	-1.440717	0.003039	-0.005050	-0.010983	-0.733154	-0.320068	0.601074	-0.187426	-0.742065	0.144237	-0.627222
48506		9.659504	0.934853	-1.415222	0.000091	-0.001550	-0.012021	-0.732178	-0.319580	0.602539	-0.187528	-0.742050	0.144252	-0.627206
48507		9.652826	0.926395	-1.432915	-0.006185	-0.001540	-0.013031	-0.725586	-0.323730	0.588379	-0.187692	-0.742028	0.144305	-0.627170
48508		9.647124	0.899554	-1.405695	-0.011262	-0.003772	-0.013793	-0.734619	-0.314697	0.597168	-0.187955	-0.741988	0.144411	-0.627115
48509		9.655369	0.906946	-1.428352	-0.012497	-0.003948	-0.014348	-0.742920	-0.317383	0.595703	-0.188147	-0.741954	0.144486	-0.627079
48510		9.643173	0.849997	-1.438936	-0.011245	-0.001345	-0.011986	-0.737061	-0.319092	0.600586	-0.188320	-0.741876	0.144569	-0.627101
48511		9.659682	0.864188	-1.430773	-0.004665	-0.002518	-0.011742	-0.736572	-0.312500	0.597900	-0.188440	-0.741849	0.144616	-0.627086
48512		9.648574	0.849236	-1.443105	0.004504	-0.004233	-0.013653	-0.732910	-0.316406	0.596191	-0.188445	-0.741857	0.144554	-0.627089
48513		9.660724	0.875687	-1.409589	0.007544	-0.005312	-0.015302	-0.730713	-0.312988	0.605469	-0.188466	-0.741885	0.144472	-0.627068
48514		9.672472	0.864881	-1.417135	-0.000448	-0.005837	-0.011647	-0.729492	-0.319092	0.595947	-0.188499	-0.741925	0.144474	-0.627011
48515		9.651644	0.873805	-1.442963	0.000188	-0.006641	-0.008644	-0.737061	-0.315918	0.600586	-0.188555	-0.741940	0.144525	-0.626965
48516		9.620340	0.882578	-1.459959	0.008726	-0.006016	-0.007529	-0.738281	-0.315430	0.597656	-0.188487	-0.741965	0.144502	-0.626961
48517		9.639643	0.943688	-1.431044	0.004576	-0.005123	-0.013921	-0.736328	-0.322998	0.590088	-0.188509	-0.741973	0.144450	-0.626956
48518		9.644368	0.907411	-1.423452	-0.004773	-0.002256	-0.018729	-0.733154	-0.323975	0.599854	-0.188722	-0.741926	0.144451	-0.626947
48519		9.657804	0.875479	-1.437306	0.001014	-0.000821	-0.019458	-0.727295	-0.320312	0.594482	-0.188885	-0.741918	0.144394	-0.626921
48520		9.640584	0.878363	-1.435997	0.005980	-0.002520	-0.020544	-0.730713	-0.317627	0.598633	-0.188995	-0.741936	0.144284	-0.626892
48521		9.652246	0.869342	-1.443221	0.006425	-0.005475	-0.021845	-0.729248	-0.321777	0.598633	-0.189076	-0.741986	0.144151	-0.626839
48522		9.656003	0.880079	-1.450583	0.010298	-0.005196	-0.016187	-0.731689	-0.325439	0.595703	-0.189106	-0.742034	0.144055	-0.626796
48523		9.640814	0.905377	-1.406680	0.007845	-0.006450	-0.014568	-0.717041	-0.322266	0.603516	-0.189168	-0.742067	0.144011	-0.626748
48524		9.642709	0.919226	-1.427641	0.016168	-0.007960	-0.016264	-0.731445	-0.319336	0.601807	-0.189149	-0.742190	0.143879	-0.626638
48525		9.646418	0.929147	-1.435646	0.016915	-0.006343	-0.017444	-0.728516	-0.321777	0.601074	-0.189101	-0.742268	0.143711	-0.626599
48526		9.639667	0.939637	-1.434342	0.015137	-0.005088	-0.016737	-0.734619	-0.320068	0.592041	-0.189087	-0.742332	0.143570	-0.626559
48527		9.641563	0.962885	-1.445206	0.012727	-0.009658	-0.015691	-0.741211	-0.320312	0.594482	-0.189070	-0.742387	0.143464	-0.626524
48528		9.637262	0.983343	-1.463238	0.007355	-0.005904	-0.012075	-0.731201	-0.317627	0.593262	-0.189072	-0.742385	0.143421	-0.626535
48529		9.654749	0.969411	-1.421439	0.011074	-0.004461	-0.014639	-0.732666	-0.323486	0.594238	-0.189059	-0.742405	0.143317	-0.626540
48530		9.625145	0.985171	-1.414882	0.007418	-0.005011	-0.019292	-0.730957	-0.328125	0.594971	-0.189150	-0.742425	0.143222	-0.626510
48531		9.649787	0.995007	-1.440279	-0.001888	-0.007277	-0.017718	-0.727295	-0.318604	0.597168	-0.189341	-0.742442	0.143237	-0.626428
48532		9.655257	0.983119	-1.454778	-0.017208	-0.004998	-0.015530	-0.734131	-0.325684	0.598145	-0.189598	-0.742419	0.143347	-0.626353
48533		9.640959	0.906790	-1.456600	-0.027817	-0.004134	-0.012437	-0.723877	-0.318115	0.599609	-0.189965	-0.742344	0.143590	-0.626275
48534		9.642863	0.911939	-1.486474	-0.023652	-0.006532	-0.012077	-0.721924	-0.325195	0.597900	-0.190243	-0.742327	0.143780	-0.626168
48535		9.635547	0.898851	-1.462912	-0.008208	-0.007278	-0.015727	-0.726807	-0.326660	0.591797	-0.190452	-0.742355	0.143846	-0.626055
48536		9.651797	0.923283	-1.445525	0.001164	-0.003479	-0.015766	-0.719971	-0.319824	0.603027	-0.190589	-0.742349	0.143836	-0.626023
48537		9.669352	0.891315	-1.423579	-0.012682	-0.004609	-0.011096	-0.727295	-0.326416	0.600830	-0.190765	-0.742358	0.143946	-0.625934
48538		9.665094	0.883511	-1.470905	-0.016968	-0.004629	-0.005772	-0.725830	-0.327148	0.596191	-0.190973	-0.742323	0.144164	-0.625862
48539		9.633839	0.900819	-1.477121	-0.003229	-0.006816	-0.002038	-0.728027	-0.318604	0.600586	-0.191031	-0.742322	0.144320	-0.625810
48540		9.642755	0.976065	-1.471817	0.014046	-0.008798	-0.009397	-0.736816	-0.322266	0.601562	-0.190918	-0.742401	0.144238	-0.625769
48541		9.638048	1.009599	-1.426953	0.013869	-0.004309	-0.018534	-0.733887	-0.324951	0.592041	-0.190900	-0.742443	0.144074	-0.625762
48542		9.645564	1.012694	-1.407561	0.001725	-0.000684	-0.023667	-0.734375	-0.323730	0.601562	-0.191073	-0.742416	0.143968	-0.625765
48543		9.641902	0.928107	-1.428014	-0.012663	0.000503	-0.021954	-0.733398	-0.326416	0.598145	-0.191347	-0.742368	0.143973	-0.625738
48544		9.624504	0.894962	-1.467061	-0.020926	-0.003740	-0.022627	-0.725830	-0.324463	0.599609	-0.191713	-0.742326	0.144059	-0.625655
48545		9.672369	0.732113	-1.520096	-0.034538	-0.003642	-0.012420	-0.729248	-0.321045	0.601807	-0.192116	-0.742254	0.144335	-0.625554
48546		9.677710	0.657346	-1.553039	-0.028422	-0.004532	0.001778	-0.732666	-0.325928	0.593262	-0.192317	-0.742179	0.144678	-0.625502
48547		9.674702	0.396630	-1.600126	-0.026384	-0.016295	0.020790	-0.730957	-0.323486	0.596191	-0.192365	-0.742135	0.145240	-0.625409
48548		9.668786	0.259377	-1.735679	-0.034278	-0.053960	0.075465	-0.725586	-0.329590	0.599609	-0.191973	-0.742279	0.146452	-0.625076
48549		9.698550	0.197285	-1.553696	-0.150135	-0.074472	0.194398	-0.732910	-0.326172	0.595459	-0.191737	-0.742098	0.149753	-0.624581
48550		9.597563	-0.027527	-1.900717	-0.242908	-0.095767	0.316798	-0.722412	-0.315918	0.601074	-0.191347	-0.741593	0.154963	-0.624030
48551		9.450613	-0.481820	-1.994967	-0.223141	-0.114770	0.415468	-0.739746	-0.319092	0.598389	-0.189916	-0.741111	0.160938	-0.623527
48552		9.273561	-0.866350	-1.946950	-0.206522	-0.143538	0.512736	-0.741455	-0.307861	0.596191	-0.187544	-0.740618	0.167792	-0.623024
48553		9.190127	-1.671909	-2.218381	-0.157493	-0.179248	0.629621	-0.732178	-0.301514	0.604248	-0.183696	-0.740219	0.175413	-0.622544
48554		8.779510	-2.806149	-2.527139	0.053672	-0.202660	0.761248	-0.736084	-0.282471	0.606445	-0.176826	-0.740173	0.182667	-0.622503
48555		8.237133	-4.187816	-2.621202	0.477780	-0.237947	0.927627	-0.742432	-0.259521	0.619141	-0.164610	-0.740845	0.188220	-0.623398
48556		7.675712	-5.660495	-2.036672	1.212484	-0.354519	1.286079	-0.739990	-0.212402	0.630127	-0.142474	-0.742837	0.191577	-0.625454
48557		7.935288	-6.241318	-2.411123	2.516126	-0.606964	1.780116	-0.736816	-0.140869	0.650391	-0.103609	-0.747172	0.189607	-0.628528
48558		7.856092	-2.957832	-0.910116	3.162385	-0.096857	2.311141	-0.729248	-0.042480	0.658203	-0.055568	-0.745590	0.186538	-0.637347
48559		6.621160	0.637487	-0.366717	2.739330	-0.291163	2.243870	-0.726807	0.044678	0.657227	-0.011390	-0.743804	0.185953	-0.641909
48560		6.483122	2.204751	0.631570	1.411751	-0.592447	1.895537	-0.714844	0.109131	0.680176	0.018399	-0.743940	0.192522	-0.639648
48561		7.087915	2.353877	-3.784788	0.677299	-0.609576	1.606535	-0.695312	0.145508	0.677734	0.039142	-0.744571	0.202146	-0.634996
48562		9.775227	0.739405	-1.973886	-1.070208	-0.316658	1.818079	-0.675781	0.161377	0.696045	0.044522	-0.742707	0.227580	-0.628181
48563		10.173143	-2.545967	-1.560045	-1.762882	-0.001408	2.095662	-0.679932	0.182617	0.716309	0.044744	-0.737310	0.261048	-0.621471
48564		10.394838	-3.604814	-2.285684	-1.356811	0.132076	1.789739	-0.659668	0.184570	0.713623	0.045971	-0.730901	0.288290	-0.616895
48565		13.001100	-6.889032	-2.379813	-0.253208	0.124445	0.680865	-0.659424	0.185303	0.729004	0.048632	-0.727583	0.296752	-0.616600
48566		19.583172	-2.943131	-3.053255	0.540366	0.297421	-0.348630	-0.667969	0.188965	0.716309	0.049809	-0.726184	0.289776	-0.621455
48567		22.962122	1.340417	-4.141850	-0.336605	0.446661	-0.807819	-0.684814	0.172852	0.708984	0.038896	-0.725744	0.285414	-0.624758
48568		23.956508	1.960946	-5.769732	-1.493106	0.245153	-1.426808	-0.689453	0.123047	0.702881	0.013371	-0.729368	0.284172	-0.622165
48569		25.399255	-0.541909	-7.279197	-1.451983	0.328180	-2.212452	-0.702148	0.057129	0.707520	-0.018168	-0.734504	0.275120	-0.620067
48570		23.681974	-7.670132	-7.119113	-0.696033	0.558944	-2.557115	-0.718262	0.003174	0.687744	-0.046141	-0.738414	0.256555	-0.621929
48571		16.984250	-9.551674	-2.718820	0.287058	0.748035	-2.259017	-0.732178	-0.039062	0.669678	-0.063131	-0.739749	0.232544	-0.628258
48572		9.376815	-2.777238	-0.039809	0.808965	0.871178	-1.803340	-0.743896	-0.065186	0.632324	-0.072104	-0.738545	0.208489	-0.637091
48573		3.108706	1.539058	-0.716352	-0.358567	0.474106	-1.588948	-0.744629	-0.100342	0.623779	-0.089207	-0.738392	0.196093	-0.639036
48574		-1.086150	0.266110	-2.694760	-1.735725	0.332499	-1.674020	-0.752441	-0.169922	0.607666	-0.119289	-0.737535	0.193939	-0.635767
48575		-2.706284	-6.524111	1.821008	-2.647607	0.262903	-1.218286	-0.743896	-0.227783	0.584961	-0.154012	-0.733879	0.203294	-0.629582
48576		0.027364	-8.740888	0.204373	-3.636863	-0.600067	-0.295413	-0.737305	-0.279541	0.581299	-0.188045	-0.731489	0.230201	-0.613653
48577		2.654881	-3.345995	-6.308978	-1.716144	-0.320025	0.235122	-0.722900	-0.302979	0.571289	-0.200944	-0.728997	0.246258	-0.606253
48578		0.840197	-2.887488	-2.867081	0.723354	0.514521	0.133552	-0.732910	-0.280518	0.568115	-0.194917	-0.726397	0.240789	-0.613494
48579		-0.071825	-2.996026	0.149810	1.291745	0.244756	0.237005	-0.734863	-0.259521	0.562256	-0.182045	-0.726799	0.232503	-0.620133
48580		-0.512712	-2.480578	0.031716	1.443838	-0.162343	0.315478	-0.733887	-0.231201	0.583252	-0.165976	-0.730235	0.224642	-0.623494
48581		-0.000950	-1.390075	-0.732242	1.650356	-0.211830	0.418062	-0.742676	-0.202148	0.599854	-0.147001	-0.733912	0.216122	-0.626941
48582		0.315517	-0.223066	-0.916956	1.319418	0.074474	0.604745	-0.745361	-0.166504	0.598877	-0.130317	-0.733939	0.211304	-0.632219
48583		0.161562	-0.353570	0.243299	1.416302	0.228986	0.778924	-0.753662	-0.143555	0.599854	-0.111714	-0.732171	0.206974	-0.639223
48584		-0.056095	-0.563263	-0.708377	0.849476	-0.126154	0.911509	-0.753906	-0.110107	0.614990	-0.096305	-0.731858	0.208832	-0.641482
48585		-0.020964	-1.721426	-3.570903	1.012549	-0.532649	0.976621	-0.750732	-0.073730	0.631104	-0.077761	-0.734619	0.210385	-0.640332
48586		6.014514	-3.379707	0.988649	-0.033331	-0.609967	1.107297	-0.746826	-0.053223	0.653809	-0.067535	-0.736419	0.221526	-0.635651
48587		27.559026	4.022339	-2.096081	-0.033559	-0.605328	0.695658	-0.736328	-0.036621	0.672363	-0.060561	-0.739186	0.228831	-0.630534
48588		31.418859	-21.721889	-10.169476	-0.468612	-0.640927	1.680822	-0.733398	-0.017334	0.690186	-0.049683	-0.738857	0.248532	-0.624383
48589		35.545110	-3.033903	-1.412300	1.584726	0.272665	2.257044	-0.735352	0.057373	0.687500	-0.018212	-0.730200	0.256901	-0.632834
48590		27.119594	29.370366	-4.565481	-1.008986	0.330549	0.058504	-0.739990	0.046387	0.680420	-0.027947	-0.727061	0.265469	-0.632557
48591		34.917987	-3.586383	-7.174256	-2.780698	0.198674	-1.622508	-0.745361	-0.033691	0.678467	-0.066572	-0.729316	0.272333	-0.624100
48592		25.039270	-10.434824	-2.525537	0.473516	0.844866	-1.812831	-0.756104	-0.066895	0.651367	-0.079117	-0.729069	0.251143	-0.631764
48593		12.761466	-3.865830	-2.172413	-0.051804	0.970602	-1.633754	-0.759277	-0.106934	0.611328	-0.095368	-0.726289	0.235425	-0.638737
48594		4.983091	0.778817	-3.121883	-0.221775	0.685325	-1.612761	-0.764893	-0.129395	0.592773	-0.112210	-0.725087	0.221566	-0.642314
48595		-1.433520	0.064365	-2.062257	-1.522413	0.098176	-1.614781	-0.761719	-0.186279	0.590332	-0.139112	-0.726326	0.218779	-0.636580
48596		-3.002439	-9.012000	-3.097812	-3.235187	-0.013384	-0.693872	-0.754395	-0.241211	0.571289	-0.173805	-0.722041	0.237976	-0.625951
48597		-0.535900	-9.198720	-2.065228	-1.458611	-0.205092	-0.038778	-0.749023	-0.263184	0.558838	-0.186600	-0.720419	0.249431	-0.619646
48598		2.527026	-2.329348	-2.748335	0.902917	-0.134451	0.150934	-0.751709	-0.248291	0.572510	-0.176872	-0.722975	0.244160	-0.621618
48599		2.005928	-2.882849	0.432701	1.602734	0.331214	-0.025070	-0.759521	-0.227295	0.568359	-0.163549	-0.723808	0.230778	-0.629361
48600		0.649665	-1.697563	2.078948	0.591887	0.047780	0.074909	-0.757568	-0.215820	0.564697	-0.157754	-0.724328	0.226799	-0.631684
48601		-0.794561	0.574176	-0.988901	0.676227	-0.147090	0.252781	-0.748779	-0.212158	0.581543	-0.149225	-0.725998	0.224130	-0.632791
48602		-0.777673	0.440599	-1.946108	0.888832	-0.045808	0.385961	-0.763428	-0.187988	0.581543	-0.137988	-0.726823	0.220796	-0.635560
48603		0.362898	-1.149960	-0.614936	0.515118	-0.038650	0.503250	-0.754883	-0.169434	0.588867	-0.129210	-0.726532	0.221440	-0.637511
48604		0.461886	-2.572055	-0.406242	0.091939	-0.136192	0.649891	-0.761963	-0.154785	0.599121	-0.122808	-0.725885	0.226938	-0.637580
48605		-0.160123	-2.430946	-1.966482	0.688358	-0.330732	0.836280	-0.765625	-0.127930	0.614014	-0.108927	-0.727079	0.229648	-0.637772
48606		1.163045	2.460394	2.040235	0.816285	-0.328890	1.087812	-0.753906	-0.088623	0.629395	-0.091842	-0.727528	0.233569	-0.638525
48607		21.317354	-5.639489	-5.045353	-1.260454	-1.079961	0.035220	-0.750244	-0.115479	0.650146	-0.099771	-0.734411	0.245237	-0.624935
48608		30.680279	-10.632415	-5.980001	-0.053584	-0.480351	1.586207	-0.741699	-0.087646	0.663818	-0.086339	-0.733032	0.260889	-0.622211
48609		33.231044	1.458485	-5.929358	0.296902	-0.285232	1.106031	-0.743408	-0.060303	0.670410	-0.074054	-0.731830	0.269181	-0.621677
48610		35.046940	6.911096	-3.842609	-0.675380	0.084645	-0.052475	-0.739014	-0.059814	0.669189	-0.080895	-0.730651	0.273992	-0.620108
48611		32.118979	-0.627340	-5.429377	-0.044651	0.473461	-1.368060	-0.743652	-0.094971	0.654053	-0.093424	-0.731487	0.261329	-0.622821
48612		21.238241	-1.694338	-5.390020	0.476382	0.730848	-1.781107	-0.748535	-0.123535	0.634521	-0.105222	-0.731931	0.240367	-0.628832
48613		10.905271	-1.743860	-4.529020	-0.435364	0.611928	-1.580057	-0.759766	-0.158447	0.617432	-0.123359	-0.731106	0.228395	-0.630954
48614		5.235095	-4.204604	-2.451502	-0.845147	0.270178	-1.318643	-0.747559	-0.199219	0.595459	-0.142155	-0.731266	0.222457	-0.628931
48615		0.603921	-5.575569	0.191956	-1.038891	-0.000669	-0.993897	-0.747559	-0.231201	0.590332	-0.159415	-0.732025	0.221463	-0.624244
48616		-0.698360	-8.543947	1.459598	-1.243192	0.079948	-0.242916	-0.734131	-0.246582	0.578369	-0.172881	-0.729443	0.228758	-0.621044
48617		-0.673412	-8.677106	-3.628999	-0.669545	-0.444877	0.486963	-0.741455	-0.247070	0.588867	-0.173899	-0.729948	0.239400	-0.616136
48618		1.115144	-0.742486	-2.158229	1.920249	0.005513	0.511516	-0.743164	-0.219727	0.588135	-0.152379	-0.732259	0.229303	-0.622894
48619		1.336621	1.949188	1.594222	1.318830	0.305869	0.215483	-0.748535	-0.196045	0.589844	-0.139531	-0.731579	0.220532	-0.629833
48620		0.079560	2.309417	1.608517	0.251330	0.022839	0.113087	-0.748535	-0.183838	0.588867	-0.136440	-0.731441	0.219671	-0.630969
48621		-0.934374	0.824188	0.916969	-0.505158	-0.122759	0.240034	-0.743164	-0.187988	0.582275	-0.138827	-0.730797	0.226143	-0.628905
48622		-0.648605	-1.810715	-0.497187	-0.463533	-0.132618	0.413956	-0.747070	-0.185791	0.588867	-0.139439	-0.729769	0.233877	-0.627133
48623		0.396790	-2.604847	-0.774754	0.044230	-0.094991	0.529195	-0.749512	-0.174316	0.587646	-0.134602	-0.728960	0.238620	-0.627344
48624		1.045018	-1.489077	-0.732100	0.823130	-0.054479	0.498765	-0.746094	-0.157959	0.605713	-0.123014	-0.729163	0.236899	-0.630133
48625		-0.110411	0.704086	-1.493695	1.458709	-0.082742	0.543017	-0.756836	-0.125244	0.608887	-0.105168	-0.730253	0.230599	-0.634425
48626		-1.273337	1.910022	0.093319	0.610534	-0.365986	0.387073	-0.750488	-0.117920	0.628906	-0.095462	-0.732742	0.229897	-0.633344
48627		7.053608	-13.306619	-7.436711	-0.630057	-0.496188	0.447040	-0.743164	-0.109375	0.647217	-0.096282	-0.734524	0.239732	-0.627482
48628		36.698094	-16.317963	-10.972906	-0.281402	-1.829375	1.294820	-0.712891	-0.073975	0.681885	-0.083163	-0.744301	0.256167	-0.611128
48629		28.411568	-25.408031	0.785252	3.716790	0.326475	3.643411	-0.720947	0.044189	0.683350	-0.021570	-0.732373	0.261023	-0.628515
48630		18.183892	35.058111	-4.196057	0.935115	0.575482	2.067177	-0.731934	0.099121	0.667236	0.001415	-0.720972	0.272703	-0.637049
48631		20.042281	12.023302	-6.610645	-3.420829	-0.591960	-1.644632	-0.719971	0.012695	0.690918	-0.040419	-0.730482	0.284931	-0.619336
48632		30.286684	-17.401732	-2.923202	-0.989712	0.439937	-0.819491	-0.735840	-0.015381	0.687988	-0.057274	-0.729396	0.284910	-0.619295
48633		15.073097	-0.849910	-2.356587	2.105323	1.002817	-1.592148	-0.746582	-0.016113	0.653564	-0.053857	-0.728339	0.253280	-0.634406
48634		8.178877	3.855191	-4.271268	0.610350	0.679738	-1.943638	-0.749268	-0.040527	0.642334	-0.065814	-0.729212	0.230233	-0.641024
48635		5.822111	1.539549	-1.974486	0.578438	0.355412	-2.774720	-0.756348	-0.090088	0.631104	-0.083704	-0.734334	0.199892	-0.643266
48636		9.288513	0.246388	-1.174220	0.446026	0.117983	-2.021832	-0.755371	-0.126953	0.635254	-0.096119	-0.738616	0.177549	-0.643183
48637		5.228435	-0.285704	-0.179888	-0.566707	0.007791	-1.585508	-0.752686	-0.170166	0.615723	-0.114091	-0.741191	0.167414	-0.639993
48638		4.059547	-1.663687	-0.875887	-1.391145	0.040292	-1.548511	-0.743896	-0.215088	0.619141	-0.139436	-0.741807	0.164044	-0.635113
48639		5.765984	-1.688053	-0.099282	-1.290405	0.149440	-1.113258	-0.734131	-0.258057	0.601318	-0.160505	-0.740437	0.163664	-0.631827
48640		6.269358	-1.360161	-0.091248	-0.893701	-0.087007	-0.802779	-0.735107	-0.287109	0.605469	-0.174931	-0.740835	0.163454	-0.627572
48641		10.075388	-1.691123	-1.439265	-0.215864	-0.181100	-0.475509	-0.727539	-0.302734	0.613037	-0.180284	-0.742686	0.161152	-0.624455
48642		14.313264	-3.925560	-0.673004	-0.272353	0.010318	-0.218528	-0.728760	-0.311523	0.601074	-0.184541	-0.742383	0.161268	-0.623542
48643		11.135799	-1.711805	-2.255518	0.208959	0.240812	-0.469888	-0.729492	-0.315186	0.602539	-0.186759	-0.741856	0.154772	-0.625153
48644		8.847173	1.238844	-2.146182	0.916866	0.152574	-0.580677	-0.724854	-0.312500	0.606689	-0.183075	-0.743805	0.141925	-0.626973
48645		8.373321	1.184921	-1.557041	0.333909	-0.041860	-0.578152	-0.723145	-0.322021	0.604980	-0.184424	-0.745847	0.134100	-0.625872
48646		9.066827	2.247271	-1.730092	-0.178511	-0.125079	-0.419377	-0.720703	-0.332275	0.605957	-0.189175	-0.747045	0.131945	-0.623480
48647		9.505984	2.206437	-1.887436	-0.288888	0.062114	-0.244615	-0.731934	-0.331543	0.602783	-0.193893	-0.746213	0.131828	-0.623052
48648		9.158291	2.393787	-1.788405	-0.391517	0.209962	-0.199754	-0.717041	-0.355469	0.598877	-0.199424	-0.743875	0.132546	-0.623948
48649		9.190931	1.686808	-1.171526	-0.368027	0.110589	-0.210573	-0.720459	-0.355957	0.588379	-0.204691	-0.742383	0.133250	-0.623870
48650		9.701509	1.236068	-0.552189	-0.285990	-0.021728	-0.301982	-0.721924	-0.370850	0.583740	-0.209660	-0.742255	0.132786	-0.622469
48651		9.861904	1.367390	-0.853010	-0.215066	0.013872	-0.380294	-0.721191	-0.381592	0.583740	-0.214648	-0.742139	0.130950	-0.621296
48652		9.615154	1.139176	-1.032323	-0.167480	0.072202	-0.395071	-0.713867	-0.388672	0.584717	-0.219394	-0.741701	0.128449	-0.620682
48653		9.208552	0.693400	-1.390989	-0.004163	0.048799	-0.368028	-0.707764	-0.391357	0.583008	-0.222363	-0.741841	0.124995	-0.620164
48654		9.272764	0.689962	-1.714102	0.207850	0.030037	-0.317137	-0.711426	-0.398438	0.580811	-0.222930	-0.742623	0.120421	-0.619929
48655		9.536823	0.960764	-1.581389	0.273659	0.037079	-0.248443	-0.708740	-0.406738	0.589844	-0.222372	-0.743406	0.115967	-0.620041
48656		9.729817	0.963670	-1.501055	0.181785	0.019761	-0.150585	-0.705322	-0.408936	0.588135	-0.221892	-0.743923	0.113189	-0.620106
48657		9.862450	0.826141	-1.503569	0.046937	0.015676	-0.038117	-0.709229	-0.406006	0.584473	-0.221793	-0.743934	0.112523	-0.620249
48658		9.925302	1.027228	-1.518463	0.057146	0.012418	0.024082	-0.701172	-0.399658	0.588135	-0.221105	-0.743906	0.112373	-0.620555
48659		9.669609	1.023763	-1.457581	0.125209	0.002465	0.033079	-0.714111	-0.392822	0.579834	-0.219685	-0.744141	0.111799	-0.620882
48660		9.489920	1.285508	-1.368914	0.226898	-0.025362	0.024576	-0.707275	-0.392578	0.584473	-0.217343	-0.744864	0.110449	-0.621081
48661		9.524894	1.688401	-1.316585	0.264857	-0.040244	0.036765	-0.715576	-0.391357	0.592041	-0.214536	-0.745788	0.108957	-0.621210
48662		9.499295	1.973740	-1.326192	0.235009	-0.016782	0.034727	-0.711914	-0.386963	0.593018	-0.212053	-0.746446	0.107617	-0.621507
48663		9.555996	2.005726	-1.271557	0.179050	-0.007284	0.017435	-0.711914	-0.383789	0.592529	-0.210237	-0.746901	0.106521	-0.621766
48664		9.604615	1.998470	-1.364966	0.124626	-0.032082	-0.001217	-0.709961	-0.378174	0.602051	-0.209041	-0.747427	0.105739	-0.621670
48665		9.553784	1.864597	-1.504208	0.051750	-0.029588	-0.009267	-0.705811	-0.382324	0.586670	-0.208579	-0.747760	0.105425	-0.621479
48666		9.505036	1.678187	-1.478273	-0.004074	-0.009351	-0.005236	-0.716064	-0.384521	0.600830	-0.208654	-0.747776	0.105551	-0.621413
48667		9.529143	1.524460	-1.415257	-0.038265	-0.005979	0.011439	-0.714111	-0.375244	0.596924	-0.208914	-0.747658	0.106081	-0.621377
48668		9.621392	1.516487	-1.385255	-0.018232	-0.028627	0.019954	-0.706787	-0.375732	0.601318	-0.208878	-0.747758	0.106589	-0.621182
48669		9.625056	1.587928	-1.511696	0.039595	-0.030670	-0.001062	-0.709473	-0.389893	0.597900	-0.208461	-0.748058	0.106447	-0.620986
48670		9.563880	1.624928	-1.514088	0.091517	-0.017845	-0.013694	-0.704346	-0.384521	0.599609	-0.207698	-0.748404	0.105774	-0.620938
48671		9.526026	1.658973	-1.521247	0.076744	-0.023089	-0.004818	-0.704590	-0.370850	0.596436	-0.206991	-0.748743	0.105305	-0.620846
48672		9.591432	1.593390	-1.433664	0.038713	-0.021444	0.017474	-0.708984	-0.378418	0.599121	-0.206452	-0.748940	0.105330	-0.620784
48673		9.622917	1.629669	-1.391831	0.011650	-0.027168	0.025163	-0.710205	-0.374023	0.593262	-0.206110	-0.749099	0.105660	-0.620648
48674		9.585350	1.671390	-1.429562	0.013339	-0.021338	0.027760	-0.710693	-0.371582	0.606934	-0.205739	-0.749211	0.105993	-0.620580
48675		9.514565	1.711538	-1.409929	0.014045	-0.018136	0.026562	-0.708008	-0.377930	0.600830	-0.205363	-0.749309	0.106280	-0.620538
48676		9.536290	1.724740	-1.442605	-0.012222	-0.024571	0.032803	-0.705322	-0.380127	0.595215	-0.205191	-0.749377	0.106861	-0.620412
48677		9.544454	1.728046	-1.554455	-0.038948	-0.025317	0.042815	-0.717041	-0.371582	0.592285	-0.205198	-0.749367	0.107753	-0.620268
48678		9.546853	1.656251	-1.516396	-0.037807	-0.017476	0.047901	-0.710938	-0.371338	0.595703	-0.205155	-0.749286	0.108668	-0.620221
48679		9.565308	1.639580	-1.532245	-0.041841	-0.028949	0.053652	-0.708984	-0.375977	0.605957	-0.205086	-0.749280	0.109686	-0.620071
48680		9.564958	1.646910	-1.517158	-0.047341	-0.025825	0.059720	-0.702881	-0.369385	0.599365	-0.205026	-0.749233	0.110783	-0.619953
48681		9.516905	1.655273	-1.418708	-0.066897	-0.018558	0.058362	-0.718750	-0.375000	0.592529	-0.205166	-0.749079	0.111998	-0.619874
48682		9.553541	1.725121	-1.514153	-0.082050	-0.020969	0.052832	-0.708252	-0.365723	0.606934	-0.205499	-0.748902	0.113315	-0.619738
48683		9.546902	1.658206	-1.537731	-0.071444	-0.024483	0.044427	-0.704102	-0.374756	0.593994	-0.205768	-0.748803	0.114434	-0.619563
48684		9.536064	1.562110	-1.504422	-0.055722	-0.021822	0.036511	-0.706055	-0.375488	0.598633	-0.205978	-0.748728	0.115378	-0.619409
48685		9.542600	1.535137	-1.448599	-0.035270	-0.016408	0.028287	-0.705322	-0.366699	0.597900	-0.206064	-0.748678	0.116066	-0.619313
48686		9.557521	1.611764	-1.431653	-0.034805	-0.015627	0.019087	-0.712158	-0.380127	0.595703	-0.206206	-0.748636	0.116654	-0.619206
48687		9.568569	1.546098	-1.496902	-0.047963	-0.016986	0.012649	-0.712891	-0.363037	0.598389	-0.206540	-0.748575	0.117312	-0.619044
48688		9.591630	1.487521	-1.547435	-0.056540	-0.012040	0.016176	-0.712402	-0.370361	0.593994	-0.206905	-0.748450	0.118031	-0.618936
48689		9.569609	1.449781	-1.553272	-0.046909	-0.004345	0.016853	-0.718018	-0.379150	0.599121	-0.207201	-0.748287	0.118678	-0.618910
48690		9.551550	1.388245	-1.566084	-0.029553	-0.007305	0.022361	-0.715576	-0.373535	0.592041	-0.207295	-0.748184	0.119256	-0.618892
48691		9.557493	1.480032	-1.504643	-0.003818	-0.003047	0.016783	-0.715576	-0.379639	0.596924	-0.207195	-0.748121	0.119576	-0.618941
48692		9.583163	1.504469	-1.444073	0.010720	-0.001594	0.008054	-0.707031	-0.379639	0.602783	-0.207034	-0.748099	0.119696	-0.618997
48693		9.574641	1.532511	-1.464625	0.008923	-0.006460	0.004180	-0.707275	-0.370605	0.590332	-0.206908	-0.748123	0.119784	-0.618993
48694		9.566913	1.546023	-1.547942	0.004157	-0.005643	0.010271	-0.707031	-0.375244	0.598877	-0.206778	-0.748113	0.119980	-0.619012
48695		9.558507	1.577936	-1.515611	-0.008542	-0.001828	0.014406	-0.707275	-0.366943	0.595947	-0.206741	-0.748038	0.120290	-0.619054
48696		9.565881	1.510103	-1.520658	-0.011478	-0.003301	0.012793	-0.712891	-0.374268	0.596436	-0.206731	-0.747969	0.120608	-0.619079
48697		9.567336	1.493508	-1.489287	-0.012153	-0.007978	0.012449	-0.715820	-0.376221	0.594971	-0.206734	-0.747932	0.120956	-0.619055
48698		9.582619	1.542369	-1.471565	-0.017896	-0.006706	0.014777	-0.707275	-0.375000	0.599365	-0.206780	-0.747864	0.121376	-0.619039
48699		9.596538	1.526988	-1.477249	-0.026865	0.002759	0.013642	-0.705811	-0.370850	0.591553	-0.206926	-0.747709	0.121806	-0.619093
48700		9.557025	1.475188	-1.460285	-0.031376	0.001258	0.014968	-0.714111	-0.373291	0.597656	-0.207102	-0.747547	0.122297	-0.619133
48701		9.574211	1.442085	-1.514398	-0.021418	0.001720	0.013302	-0.718750	-0.366943	0.599121	-0.207196	-0.747411	0.122693	-0.619188
48702		9.559913	1.500829	-1.486332	-0.004101	0.001524	0.009119	-0.713623	-0.369385	0.595703	-0.207149	-0.747326	0.122910	-0.619263
48703		9.591390	1.500288	-1.512913	-0.002309	0.003744	0.004477	-0.713623	-0.375000	0.591553	-0.207132	-0.747236	0.123068	-0.619345
48704		9.583823	1.465835	-1.490563	0.001030	0.005601	0.005364	-0.712646	-0.371094	0.596191	-0.207092	-0.747137	0.123222	-0.619448
48705		9.567082	1.470894	-1.477165	-0.010729	0.003306	0.004696	-0.714355	-0.368652	0.601807	-0.207154	-0.747030	0.123446	-0.619512
48706		9.581448	1.452175	-1.439370	-0.016282	0.005807	0.009545	-0.710693	-0.374512	0.596191	-0.207224	-0.746884	0.123737	-0.619606
48707		9.581301	1.460190	-1.427422	-0.017336	0.004719	0.007248	-0.715820	-0.371338	0.597168	-0.207334	-0.746746	0.124033	-0.619676
48708		9.564718	1.431609	-1.467050	-0.010394	0.004610	0.002734	-0.717773	-0.371582	0.596924	-0.207408	-0.746632	0.124234	-0.619749
48709		9.595458	1.471066	-1.481801	-0.010134	0.004363	0.002240	-0.713379	-0.377930	0.594727	-0.207484	-0.746521	0.124432	-0.619818
48710		9.594056	1.435212	-1.504662	-0.002121	0.004965	0.007000	-0.723389	-0.375244	0.601074	-0.207461	-0.746419	0.124617	-0.619911
48711		9.553467	1.427208	-1.424854	0.002744	0.004374	0.009144	-0.707275	-0.367188	0.594971	-0.207365	-0.746330	0.124782	-0.620017
48712		9.587882	1.476157	-1.394183	-0.003865	-0.000242	0.008596	-0.716309	-0.367920	0.594482	-0.207319	-0.746265	0.124981	-0.620070
48713		9.605827	1.522295	-1.361086	-0.008512	0.005548	0.006303	-0.716064	-0.371338	0.597412	-0.207346	-0.746143	0.125199	-0.620164
48714		9.569697	1.445531	-1.403500	-0.012428	0.006999	-0.001779	-0.714355	-0.369629	0.596436	-0.207478	-0.746013	0.125362	-0.620243
48715		9.573460	1.482517	-1.406928	-0.010361	0.002566	-0.003038	-0.713379	-0.367920	0.596680	-0.207589	-0.745926	0.125504	-0.620282
48716		9.605937	1.494721	-1.452372	-0.009588	0.002382	-0.000273	-0.711182	-0.375488	0.594971	-0.207669	-0.745839	0.125660	-0.620328
48717		9.588362	1.422217	-1.432300	-0.007358	0.003676	0.004063	-0.717773	-0.369141	0.591064	-0.207710	-0.745741	0.125847	-0.620395
48718		9.607231	1.425421	-1.368435	-0.007155	-0.002070	0.006209	-0.714600	-0.370361	0.595215	-0.207717	-0.745678	0.126083	-0.620420
48719		9.592903	1.450915	-1.394825	-0.006123	-0.002501	0.008479	-0.718018	-0.365234	0.595947	-0.207694	-0.745623	0.126314	-0.620447
48720		9.580988	1.472222	-1.408484	-0.011933	-0.005777	0.010720	-0.721680	-0.374268	0.593994	-0.207693	-0.745573	0.126617	-0.620445
48721		9.576495	1.477363	-1.435167	-0.030967	-0.005276	0.015340	-0.722168	-0.373047	0.593262	-0.207853	-0.745459	0.127135	-0.620423
48722		9.596529	1.493775	-1.432805	-0.026539	-0.000814	0.018562	-0.720703	-0.373291	0.588867	-0.207952	-0.745316	0.127637	-0.620459
48723		9.566113	1.455607	-1.458334	-0.019555	-0.000347	0.016806	-0.715820	-0.367676	0.599365	-0.208005	-0.745188	0.128078	-0.620504
48724		9.561716	1.464271	-1.431924	-0.014907	-0.003685	0.016394	-0.725830	-0.375244	0.587158	-0.207989	-0.745110	0.128431	-0.620530
48725		9.585422	1.486570	-1.436697	-0.021444	-0.008640	0.021319	-0.726807	-0.370361	0.591309	-0.208018	-0.745030	0.128968	-0.620505
48726		9.587631	1.458239	-1.415964	-0.028602	-0.009750	0.024803	-0.724854	-0.371094	0.588135	-0.208071	-0.744937	0.129575	-0.620472
48727		9.620474	1.440152	-1.411768	-0.033158	-0.004844	0.023757	-0.719238	-0.375977	0.591309	-0.208188	-0.744794	0.130201	-0.620473
48728		9.574164	1.388075	-1.446147	-0.022416	-0.003100	0.024891	-0.716064	-0.366943	0.584473	-0.208201	-0.744670	0.130731	-0.620506
48729		9.570609	1.385261	-1.430319	-0.008988	-0.004171	0.025055	-0.710449	-0.363770	0.590332	-0.208077	-0.744586	0.131163	-0.620557
48730		9.597194	1.430675	-1.421084	-0.007185	-0.007808	0.028528	-0.713867	-0.368896	0.589600	-0.207890	-0.744539	0.131583	-0.620588
48731		9.600682	1.479133	-1.406962	-0.024339	-0.008936	0.028198	-0.714844	-0.368652	0.588379	-0.207875	-0.744452	0.132155	-0.620575
48732		9.597066	1.442192	-1.445298	-0.037083	-0.007138	0.031068	-0.722412	-0.372070	0.588867	-0.207961	-0.744312	0.132853	-0.620565
48733		9.626656	1.444997	-1.433418	-0.030841	-0.004430	0.030829	-0.716064	-0.367920	0.592529	-0.208003	-0.744163	0.133513	-0.620589
48734		9.570707	1.415859	-1.414988	-0.028479	-0.002118	0.027965	-0.717529	-0.364258	0.592529	-0.208034	-0.744015	0.134085	-0.620633
48735		9.593013	1.367773	-1.401960	-0.029771	-0.001963	0.021942	-0.718750	-0.370850	0.590088	-0.208117	-0.743872	0.134606	-0.620664
48736		9.608592	1.390350	-1.425784	-0.019599	-0.004298	0.022464	-0.718750	-0.372803	0.587891	-0.208113	-0.743769	0.135080	-0.620685
48737		9.584826	1.378059	-1.401528	-0.017952	-0.000675	0.023848	-0.719238	-0.358887	0.585449	-0.208096	-0.743638	0.135554	-0.620744
48738		9.614446	1.343639	-1.400820	-0.025352	-0.003537	0.022047	-0.718750	-0.359375	0.591309	-0.208133	-0.743512	0.136064	-0.620771
48739		9.605532	1.359157	-1.400335	-0.023140	-0.001869	0.019415	-0.723389	-0.368408	0.590332	-0.208166	-0.743389	0.136503	-0.620811
48740		9.599925	1.353208	-1.406901	-0.016227	0.000435	0.012210	-0.718506	-0.362061	0.597412	-0.208214	-0.743274	0.136844	-0.620858
48741		9.590505	1.303524	-1.419070	-0.005745	0.001298	0.003838	-0.724854	-0.372314	0.587891	-0.208208	-0.743205	0.136971	-0.620915
48742		9.567464	1.306675	-1.413497	0.007645	0.002068	-0.002947	-0.722656	-0.365723	0.586426	-0.208166	-0.743162	0.136999	-0.620974
48743		9.631492	1.318571	-1.392204	0.014536	0.003392	-0.005936	-0.724854	-0.360107	0.586914	-0.208074	-0.743133	0.136933	-0.621055
48744		9.600467	1.279862	-1.376161	0.013884	0.003254	-0.004713	-0.717773	-0.367188	0.589600	-0.207968	-0.743100	0.136878	-0.621141
48745		9.600359	1.280637	-1.376192	0.018436	0.000796	-0.006372	-0.720459	-0.368164	0.583496	-0.207836	-0.743108	0.136759	-0.621202
48746		9.609878	1.325966	-1.416276	0.029695	0.002954	-0.010448	-0.712891	-0.362793	0.589355	-0.207647	-0.743128	0.136544	-0.621288
48747		9.597886	1.316431	-1.388481	0.038497	0.003706	-0.011394	-0.716309	-0.363770	0.593262	-0.207364	-0.743178	0.136196	-0.621399
48748		9.604318	1.379495	-1.379494	0.024966	-0.001231	-0.011693	-0.723877	-0.362061	0.589355	-0.207199	-0.743233	0.135960	-0.621440
48749		9.600216	1.375183	-1.373586	0.008023	0.005317	-0.013337	-0.721436	-0.368408	0.592041	-0.207221	-0.743186	0.135860	-0.621511
48750		9.594299	1.366225	-1.389927	0.000503	0.003327	-0.014871	-0.721924	-0.362305	0.594971	-0.207329	-0.743142	0.135799	-0.621541
48751		9.628569	1.314405	-1.382807	0.012723	0.005416	-0.022161	-0.723389	-0.371338	0.596191	-0.207367	-0.743128	0.135549	-0.621600
48752		9.600933	1.316994	-1.371236	0.021632	0.002706	-0.033404	-0.721924	-0.364990	0.590332	-0.207420	-0.743178	0.135144	-0.621610
48753		9.632686	1.301172	-1.376563	0.014772	0.002896	-0.030380	-0.724854	-0.364502	0.588867	-0.207510	-0.743198	0.134833	-0.621624
48754		9.651067	1.267394	-1.377430	0.005637	-0.003538	-0.017849	-0.716309	-0.365479	0.590088	-0.207579	-0.743220	0.134740	-0.621596
48755		9.615130	1.267679	-1.387930	0.010211	-0.007346	-0.008308	-0.722412	-0.364502	0.589600	-0.207520	-0.743274	0.134680	-0.621562
48756		9.625277	1.298475	-1.397756	0.020432	-0.005137	-0.006185	-0.721924	-0.360596	0.587646	-0.207356	-0.743329	0.134576	-0.621574
48757		9.625562	1.323267	-1.356659	0.019434	-0.009585	-0.004567	-0.725098	-0.368896	0.588623	-0.207177	-0.743412	0.134509	-0.621550
48758		9.613669	1.341651	-1.330164	0.013244	-0.010209	-0.000041	-0.725098	-0.365723	0.581787	-0.207037	-0.743473	0.134554	-0.621513
48759		9.617256	1.372997	-1.390364	0.012748	-0.011203	-0.000576	-0.717285	-0.361572	0.585938	-0.206910	-0.743534	0.134628	-0.621467
48760		9.604658	1.370891	-1.355171	0.017897	-0.010550	0.001097	-0.720459	-0.367188	0.587646	-0.206704	-0.743611	0.134627	-0.621443
48761		9.604821	1.360891	-1.368673	0.005865	-0.014038	0.000894	-0.720947	-0.368164	0.590820	-0.206618	-0.743684	0.134738	-0.621361
48762		9.605646	1.371138	-1.391385	0.006379	-0.014533	-0.000098	-0.717529	-0.372803	0.591064	-0.206532	-0.743766	0.134828	-0.621272
48763		9.589193	1.358719	-1.402855	0.015587	-0.010912	-0.004473	-0.719482	-0.367432	0.591309	-0.206409	-0.743853	0.134793	-0.621216
48764		9.604860	1.333528	-1.409364	0.015534	-0.011491	-0.007229	-0.716553	-0.356934	0.589600	-0.206296	-0.743948	0.134733	-0.621152
48765		9.599933	1.337759	-1.396399	0.021614	-0.009978	-0.011498	-0.720703	-0.355469	0.589355	-0.206143	-0.744055	0.134564	-0.621112
48766		9.599225	1.339753	-1.399351	0.019157	-0.008934	-0.011055	-0.718262	-0.361328	0.590088	-0.206010	-0.744142	0.134430	-0.621081
48767		9.632762	1.358565	-1.425469	0.015146	-0.009414	-0.009193	-0.726562	-0.367920	0.594482	-0.205911	-0.744222	0.134346	-0.621036
48768		9.594973	1.351563	-1.459843	0.014250	-0.006293	-0.005919	-0.724121	-0.362549	0.593262	-0.205811	-0.744266	0.134310	-0.621024
48769		9.584600	1.313370	-1.463772	0.011134	-0.005392	-0.004251	-0.717773	-0.362305	0.587891	-0.205719	-0.744294	0.134300	-0.621023
48770		9.576182	1.377828	-1.430837	0.004416	-0.006084	-0.002973	-0.721191	-0.361084	0.588135	-0.205684	-0.744307	0.134363	-0.621005
48771		9.624619	1.397994	-1.428895	-0.004690	-0.008697	-0.005794	-0.716309	-0.358398	0.590820	-0.205751	-0.744319	0.134485	-0.620943
48772		9.595606	1.322720	-1.454749	-0.010796	-0.006823	-0.006941	-0.714844	-0.364014	0.590820	-0.205872	-0.744310	0.134604	-0.620887
48773		9.593708	1.284675	-1.438472	-0.006708	-0.009697	-0.004878	-0.725098	-0.355225	0.598633	-0.205947	-0.744332	0.134723	-0.620810
48774		9.611524	1.319553	-1.471398	-0.001992	-0.013950	-0.004070	-0.714600	-0.364014	0.589600	-0.205934	-0.744398	0.134803	-0.620719
48775		9.604215	1.297204	-1.472177	0.007780	-0.008186	-0.000923	-0.720947	-0.362305	0.591309	-0.205848	-0.744437	0.134849	-0.620690
48776		9.601557	1.305435	-1.435361	0.005379	-0.011066	-0.000800	-0.721924	-0.371094	0.593262	-0.205776	-0.744487	0.134934	-0.620635
48777		9.604905	1.341721	-1.443262	-0.000667	-0.013111	-0.002266	-0.718262	-0.359375	0.596680	-0.205785	-0.744542	0.135068	-0.620537
48778		9.584352	1.332397	-1.437275	-0.008218	-0.006692	-0.001867	-0.724365	-0.360352	0.598145	-0.205837	-0.744535	0.135197	-0.620501
48779		9.604781	1.308773	-1.405661	-0.015585	-0.007524	0.000642	-0.723145	-0.362061	0.589111	-0.205939	-0.744506	0.135424	-0.620452
48780		9.614637	1.304962	-1.468547	-0.007646	-0.006602	-0.000104	-0.718262	-0.354248	0.597168	-0.205995	-0.744482	0.135624	-0.620418
48781		9.585096	1.305520	-1.471887	0.002259	-0.007714	-0.001830	-0.712891	-0.366455	0.588135	-0.205932	-0.744511	0.135660	-0.620396
48782		9.592769	1.339182	-1.494851	0.002003	-0.007466	-0.001334	-0.716064	-0.363037	0.589111	-0.205914	-0.744529	0.135756	-0.620359
48783		9.596423	1.350685	-1.449911	0.004073	-0.003430	-0.002192	-0.717285	-0.362793	0.590332	-0.205881	-0.744522	0.135816	-0.620366
48784		9.595515	1.331562	-1.441788	-0.003029	-0.003549	-0.004396	-0.723145	-0.353516	0.590576	-0.205929	-0.744500	0.135909	-0.620356
48785		9.595315	1.332619	-1.442138	-0.002622	-0.000154	-0.003570	-0.726807	-0.368896	0.597656	-0.205953	-0.744447	0.135998	-0.620392
48786		9.607816	1.301079	-1.439258	0.001926	0.001357	-0.006400	-0.721191	-0.361816	0.591309	-0.205983	-0.744404	0.136026	-0.620428
48787		9.609101	1.274714	-1.469845	0.000808	-0.002760	-0.008757	-0.717041	-0.368408	0.596191	-0.206028	-0.744392	0.136051	-0.620422
48788		9.606323	1.280052	-1.483500	0.013130	-0.000432	-0.006360	-0.721680	-0.361328	0.592285	-0.205947	-0.744400	0.135968	-0.620457
48789		9.579474	1.306425	-1.471822	0.013751	-0.002769	-0.003395	-0.720459	-0.364746	0.587402	-0.205827	-0.744413	0.135938	-0.620488
48790		9.607461	1.325592	-1.450787	-0.002060	-0.003076	-0.003360	-0.717285	-0.370605	0.589111	-0.205872	-0.744382	0.136062	-0.620483
48791		9.590357	1.332707	-1.438430	-0.013611	0.001357	-0.002611	-0.721436	-0.366455	0.594482	-0.206035	-0.744291	0.136262	-0.620494
48792		9.601530	1.286350	-1.468148	-0.014040	0.001907	-0.004608	-0.714111	-0.364014	0.582764	-0.206198	-0.744202	0.136420	-0.620512
48793		9.610449	1.248635	-1.458493	-0.002703	0.003209	-0.007495	-0.717773	-0.372803	0.585693	-0.206294	-0.744129	0.136490	-0.620552
48794		9.613490	1.266278	-1.453671	-0.002058	0.002387	-0.004501	-0.721924	-0.366211	0.595215	-0.206376	-0.744059	0.136600	-0.620585
48795		9.602041	1.256401	-1.424282	-0.006134	0.005813	-0.002308	-0.729248	-0.367188	0.585693	-0.206451	-0.743958	0.136701	-0.620659
48796		9.599853	1.289923	-1.434574	-0.004340	0.006127	-0.000005	-0.715820	-0.371338	0.597412	-0.206517	-0.743833	0.136886	-0.620746
48797		9.576875	1.293326	-1.428117	0.003448	0.003411	-0.002076	-0.720459	-0.368164	0.588867	-0.206500	-0.743785	0.136894	-0.620806
48798		9.611736	1.335465	-1.408121	0.006533	-0.002006	-0.005334	-0.721924	-0.361572	0.589600	-0.206483	-0.743776	0.136918	-0.620818
48799		9.618689	1.291303	-1.422614	0.000249	0.002207	-0.003191	-0.714600	-0.359131	0.586670	-0.206496	-0.743715	0.136985	-0.620873
48800		9.613856	1.274353	-1.397209	0.004580	0.000578	-0.000104	-0.725098	-0.360352	0.580811	-0.206438	-0.743676	0.137035	-0.620927
48801		9.614439	1.294245	-1.406585	0.000207	-0.003281	-0.000557	-0.716064	-0.361572	0.586182	-0.206438	-0.743637	0.137196	-0.620939
48802		9.593686	1.293852	-1.388797	0.002506	-0.001007	-0.001941	-0.722412	-0.363037	0.592529	-0.206419	-0.743606	0.137261	-0.620967
48803		9.603345	1.274893	-1.388565	0.000555	0.004995	-0.003626	-0.721680	-0.359131	0.587158	-0.206436	-0.743529	0.137301	-0.621046
48804		9.603322	1.275464	-1.388198	-0.000991	-0.001992	-0.001065	-0.713867	-0.359375	0.590820	-0.206434	-0.743491	0.137411	-0.621067
48805		9.618450	1.322268	-1.422236	-0.002745	-0.005698	0.002052	-0.719482	-0.372070	0.592285	-0.206407	-0.743487	0.137524	-0.621056
48806		9.617765	1.331590	-1.413179	0.006310	-0.002695	-0.002113	-0.718994	-0.365234	0.598389	-0.206369	-0.743484	0.137563	-0.621063
48807		9.590723	1.299475	-1.403454	0.007096	0.000536	-0.006266	-0.725098	-0.357178	0.594238	-0.206329	-0.743476	0.137497	-0.621100
48808		9.599419	1.261569	-1.395689	0.009151	-0.006899	-0.009093	-0.721924	-0.359375	0.584961	-0.206270	-0.743523	0.137434	-0.621078
48809		9.612430	1.309255	-1.401326	0.019530	-0.003055	-0.011460	-0.719727	-0.366699	0.591064	-0.206163	-0.743560	0.137307	-0.621097
48810		9.611276	1.292194	-1.393376	0.017516	-0.000640	-0.017456	-0.724121	-0.369873	0.599609	-0.206133	-0.743595	0.137108	-0.621109
48811		9.608146	1.269995	-1.408430	0.008860	-0.003259	-0.014016	-0.723877	-0.364258	0.585693	-0.206145	-0.743630	0.136991	-0.621090
48812		9.614951	1.286017	-1.421469	0.005657	-0.002421	-0.009356	-0.721436	-0.364502	0.586914	-0.206167	-0.743620	0.137006	-0.621091
48813		9.631858	1.286287	-1.382028	0.006110	-0.001451	-0.007330	-0.723145	-0.361084	0.596436	-0.206167	-0.743606	0.137018	-0.621105
48814		9.603448	1.298434	-1.403497	0.000380	-0.003174	-0.006530	-0.724121	-0.359375	0.588623	-0.206181	-0.743601	0.137030	-0.621103
48815		9.591441	1.343281	-1.426426	0.000872	-0.005184	-0.007551	-0.716553	-0.355225	0.585693	-0.206208	-0.743603	0.137078	-0.621082
48816		9.603259	1.351234	-1.413549	0.004295	-0.003283	-0.009661	-0.720215	-0.362061	0.593262	-0.206212	-0.743607	0.137052	-0.621082
48817		9.598618	1.327072	-1.399075	-0.002431	-0.001542	-0.011068	-0.718018	-0.362793	0.587158	-0.206298	-0.743589	0.137048	-0.621075
48818		9.598154	1.329797	-1.399667	-0.004213	-0.004313	-0.010672	-0.721680	-0.366699	0.587158	-0.206407	-0.743581	0.137097	-0.621038
48819		9.613588	1.345108	-1.392371	-0.005573	-0.002171	-0.009425	-0.723145	-0.369385	0.588379	-0.206535	-0.743545	0.137185	-0.621018
48820		9.606524	1.325015	-1.390254	-0.007182	0.001181	-0.011901	-0.720459	-0.356934	0.588867	-0.206709	-0.743484	0.137258	-0.621018
48821		9.611382	1.306843	-1.426600	-0.012299	-0.003436	-0.012384	-0.720703	-0.364502	0.591064	-0.206885	-0.743452	0.137331	-0.620982
48822		9.617587	1.333046	-1.428726	-0.015139	-0.001279	-0.011177	-0.730469	-0.368652	0.583740	-0.207098	-0.743396	0.137438	-0.620954
48823		9.598820	1.298045	-1.450555	-0.014998	-0.000641	-0.011411	-0.722656	-0.368408	0.584717	-0.207346	-0.743312	0.137628	-0.620930
48824		9.599859	1.286899	-1.418043	-0.006706	0.000670	-0.011398	-0.717773	-0.366211	0.588623	-0.207511	-0.743251	0.137713	-0.620929
48825		9.611711	1.296068	-1.403853	-0.000838	0.000032	-0.013985	-0.720215	-0.359131	0.588867	-0.207620	-0.743228	0.137680	-0.620928
48826		9.613512	1.261839	-1.444666	0.004313	-0.002295	-0.013884	-0.718262	-0.367432	0.593750	-0.207654	-0.743234	0.137602	-0.620926
48827		9.579942	1.345668	-1.438018	0.002173	-0.006397	-0.010035	-0.721436	-0.364990	0.588379	-0.207684	-0.743270	0.137573	-0.620880
48828		9.633730	1.380117	-1.418074	-0.014564	-0.001194	-0.009413	-0.724854	-0.370361	0.591797	-0.207880	-0.743207	0.137704	-0.620859
48829		9.614059	1.334423	-1.420084	-0.025946	0.003867	-0.010385	-0.724121	-0.364990	0.581299	-0.208208	-0.743079	0.137906	-0.620858
48830		9.605404	1.250845	-1.442137	-0.012677	0.003164	-0.012764	-0.718506	-0.367676	0.590088	-0.208435	-0.742979	0.138026	-0.620875
48831		9.622899	1.243413	-1.411631	0.003392	0.000279	-0.014857	-0.725098	-0.375244	0.587158	-0.208506	-0.742970	0.137940	-0.620881
48832		9.637630	1.298039	-1.392349	0.004710	0.001116	-0.013058	-0.723877	-0.373291	0.586426	-0.208587	-0.742940	0.137921	-0.620894
48833		9.634741	1.304913	-1.405042	-0.002807	0.002068	-0.013004	-0.722412	-0.363770	0.575195	-0.208734	-0.742884	0.137953	-0.620905
48834		9.612025	1.272046	-1.410445	0.005040	0.002965	-0.010767	-0.725098	-0.369873	0.587402	-0.208785	-0.742821	0.137975	-0.620957
48835		9.598167	1.316367	-1.402971	0.015149	0.000115	-0.011533	-0.727539	-0.367920	0.585449	-0.208736	-0.742825	0.137872	-0.620992
48836		9.625821	1.337473	-1.381574	0.022734	0.000719	-0.013050	-0.720703	-0.373047	0.589600	-0.208629	-0.742841	0.137711	-0.621045
48837		9.611256	1.328357	-1.419189	0.024539	0.002014	-0.014967	-0.719727	-0.360596	0.581299	-0.208526	-0.742870	0.137478	-0.621096
48838		9.612566	1.365866	-1.395520	0.027091	0.000088	-0.014184	-0.723633	-0.366943	0.581299	-0.208369	-0.742908	0.137250	-0.621155
48839		9.623939	1.354183	-1.373207	0.018217	0.000708	-0.010187	-0.721680	-0.360840	0.581055	-0.208288	-0.742904	0.137160	-0.621206
48840		9.615149	1.327454	-1.394799	0.005303	-0.001255	-0.008598	-0.719727	-0.367920	0.582764	-0.208291	-0.742882	0.137166	-0.621230
48841		9.611359	1.321875	-1.389048	0.008501	0.000513	-0.003238	-0.728760	-0.371094	0.591797	-0.208245	-0.742851	0.137196	-0.621276
48842		9.603562	1.318099	-1.366605	0.017697	0.004755	-0.003396	-0.718018	-0.367920	0.580811	-0.208116	-0.742813	0.137131	-0.621378
48843		9.606898	1.354378	-1.371804	0.020991	-0.000940	-0.004153	-0.720947	-0.355957	0.588135	-0.207963	-0.742827	0.137064	-0.621429
48844		9.606091	1.364310	-1.362508	0.014854	-0.000623	-0.005321	-0.717773	-0.364990	0.589355	-0.207820	-0.742834	0.136964	-0.621490
48845		9.613065	1.378892	-1.374881	0.009878	0.002354	-0.007155	-0.716553	-0.364990	0.586914	-0.207770	-0.742813	0.136887	-0.621548
48846		9.607445	1.367499	-1.391829	0.005939	0.000928	-0.004052	-0.724609	-0.360840	0.587646	-0.207736	-0.742786	0.136883	-0.621593
48847		9.613025	1.351507	-1.375682	0.002106	0.001075	-0.003910	-0.724854	-0.367432	0.588135	-0.207725	-0.742738	0.136922	-0.621646
48848		9.600088	1.355621	-1.379476	0.003450	0.000429	-0.003633	-0.717041	-0.367920	0.587646	-0.207720	-0.742697	0.136973	-0.621684
48849		9.613243	1.372960	-1.384599	0.003588	0.001065	-0.003868	-0.716064	-0.373779	0.579834	-0.207715	-0.742664	0.136992	-0.621722
48850		9.611418	1.372729	-1.355634	-0.001424	-0.002968	-0.003085	-0.722412	-0.350342	0.583984	-0.207783	-0.742633	0.137131	-0.621705
48851		9.622807	1.355168	-1.385320	-0.011564	-0.001658	-0.002355	-0.727539	-0.372803	0.585449	-0.207851	-0.742567	0.137275	-0.621729
48852		9.603396	1.336317	-1.386742	-0.012446	0.001475	-0.000579	-0.721191	-0.364746	0.585449	-0.207998	-0.742464	0.137515	-0.621751
48853		9.618387	1.309788	-1.360131	-0.002947	0.001536	-0.000057	-0.723389	-0.360840	0.585938	-0.208019	-0.742395	0.137632	-0.621800
48854		9.611616	1.316400	-1.357050	-0.000720	-0.002242	-0.001557	-0.723389	-0.358887	0.589600	-0.208010	-0.742362	0.137720	-0.621823
48855		9.638180	1.320559	-1.369228	0.001219	-0.004287	-0.001039	-0.722168	-0.377686	0.586182	-0.207959	-0.742357	0.137773	-0.621834
48856		9.619126	1.320902	-1.380777	-0.000886	-0.001390	0.000199	-0.714600	-0.366943	0.587402	-0.208000	-0.742314	0.137923	-0.621838
48857		9.625197	1.323666	-1.374313	0.005116	-0.002338	0.001600	-0.722656	-0.360107	0.589844	-0.207925	-0.742308	0.137970	-0.621861
48858		9.615119	1.371593	-1.373787	0.003071	-0.001868	0.004043	-0.717773	-0.365479	0.589844	-0.207825	-0.742281	0.138049	-0.621908
48859		9.630501	1.363789	-1.357573	0.004367	-0.003091	0.001565	-0.718750	-0.365234	0.584473	-0.207748	-0.742279	0.138096	-0.621926
48860		9.611714	1.334540	-1.370025	-0.006338	-0.001870	0.000534	-0.722412	-0.368164	0.589844	-0.207794	-0.742230	0.138251	-0.621935
48861		9.612522	1.295899	-1.381252	-0.007330	-0.000861	0.001023	-0.721436	-0.361816	0.583252	-0.207846	-0.742173	0.138404	-0.621951
48862		9.619252	1.289409	-1.384485	0.000947	-0.001037	0.001006	-0.724121	-0.358398	0.589111	-0.207814	-0.742130	0.138509	-0.621990
48863		9.615874	1.252755	-1.380085	0.010645	-0.002768	0.002497	-0.724854	-0.362549	0.588379	-0.207651	-0.742131	0.138519	-0.622041
48864		9.635124	1.271614	-1.379772	0.018110	-0.005791	-0.000337	-0.723633	-0.360596	0.588867	-0.207455	-0.742177	0.138474	-0.622062
48865		9.621890	1.303453	-1.384660	0.020420	-0.005953	0.000972	-0.724609	-0.368408	0.592529	-0.207219	-0.742230	0.138412	-0.622091
48866		9.601982	1.341182	-1.386544	0.019112	-0.006242	0.003424	-0.719238	-0.361572	0.591797	-0.206997	-0.742282	0.138392	-0.622107
48867		9.619679	1.358650	-1.356841	0.005350	-0.001091	0.002625	-0.715820	-0.361084	0.588623	-0.206893	-0.742267	0.138422	-0.622153
48868		9.619548	1.309033	-1.348603	-0.005207	0.002279	0.001388	-0.725586	-0.360840	0.595947	-0.206908	-0.742200	0.138520	-0.622206
48869		9.634931	1.267972	-1.384462	-0.001466	0.001526	-0.000015	-0.729492	-0.356445	0.583008	-0.206883	-0.742151	0.138566	-0.622263
48870		9.633847	1.257885	-1.365362	0.011239	-0.000744	-0.004183	-0.720703	-0.362793	0.581299	-0.206791	-0.742128	0.138566	-0.622320
48871		9.636651	1.274570	-1.361985	0.012326	-0.001143	-0.003412	-0.723877	-0.359619	0.579346	-0.206704	-0.742120	0.138561	-0.622360
48872		9.648343	1.261160	-1.339501	-0.000368	-0.001880	-0.000790	-0.728271	-0.358643	0.583496	-0.206710	-0.742072	0.138697	-0.622385
48873		9.618399	1.236003	-1.384770	0.003350	-0.000590	0.003575	-0.731934	-0.361572	0.584229	-0.206638	-0.742018	0.138827	-0.622445
48874		9.614833	1.228146	-1.379642	0.016428	-0.004946	0.002873	-0.734131	-0.360107	0.581543	-0.206454	-0.742028	0.138879	-0.622482
48875		9.625700	1.251878	-1.347694	0.022724	-0.007621	0.002257	-0.723633	-0.354980	0.588623	-0.206217	-0.742068	0.138906	-0.622507
48876		9.632862	1.234834	-1.363215	0.021520	-0.006337	0.001746	-0.729492	-0.363281	0.592773	-0.205953	-0.742126	0.138832	-0.622542
48877		9.628742	1.285385	-1.357575	0.024963	-0.006867	0.002332	-0.719238	-0.361572	0.589844	-0.205677	-0.742194	0.138765	-0.622567
48878		9.628437	1.312883	-1.359173	0.019897	-0.007915	0.006164	-0.722412	-0.361572	0.583008	-0.205414	-0.742260	0.138751	-0.622578
48879		9.631860	1.318056	-1.367806	0.010596	-0.008814	0.002402	-0.727783	-0.355957	0.583984	-0.205290	-0.742296	0.138838	-0.622556
48880		9.612921	1.288061	-1.381530	0.003429	-0.006012	0.003244	-0.718262	-0.364014	0.582764	-0.205211	-0.742285	0.138978	-0.622564
48881		9.622227	1.248214	-1.374006	0.008361	-0.005596	-0.000353	-0.725342	-0.356445	0.588623	-0.205143	-0.742301	0.139043	-0.622553
48882		9.614894	1.234415	-1.363505	0.013287	-0.006135	0.000272	-0.721191	-0.357666	0.591064	-0.204984	-0.742334	0.139043	-0.622566
48883		9.634622	1.244209	-1.373931	0.012444	-0.007498	-0.001018	-0.728760	-0.356445	0.590576	-0.204837	-0.742389	0.139014	-0.622556
48884		9.626073	1.264349	-1.405187	0.007477	-0.006983	-0.000148	-0.719238	-0.356689	0.582275	-0.204733	-0.742412	0.139062	-0.622551
48885		9.612210	1.227721	-1.392362	0.006363	-0.005094	0.000597	-0.725586	-0.354980	0.592041	-0.204656	-0.742415	0.139139	-0.622556
48886		9.631993	1.237466	-1.402393	0.007832	-0.006616	0.000615	-0.723389	-0.361816	0.582764	-0.204533	-0.742443	0.139165	-0.622557
48887		9.636717	1.259255	-1.377220	0.004511	-0.006966	-0.000228	-0.731201	-0.359131	0.593994	-0.204500	-0.742450	0.139286	-0.622533
48888		9.638255	1.230914	-1.408752	0.000608	-0.004404	-0.001294	-0.724365	-0.361816	0.586182	-0.204480	-0.742440	0.139370	-0.622533
48889		9.637104	1.220694	-1.390568	0.002187	-0.003800	0.000004	-0.722656	-0.358398	0.590088	-0.204464	-0.742421	0.139486	-0.622534
48890		9.619944	1.226729	-1.379457	0.002431	-0.005562	-0.000513	-0.718262	-0.356445	0.593750	-0.204421	-0.742429	0.139556	-0.622523
48891		9.626236	1.249821	-1.383203	0.009676	-0.005304	-0.002809	-0.719727	-0.352783	0.585693	-0.204308	-0.742473	0.139501	-0.622520
48892		9.632488	1.273145	-1.387000	0.010073	-0.004914	-0.003540	-0.727051	-0.350830	0.586670	-0.204209	-0.742497	0.139482	-0.622528
48893		9.625124	1.260291	-1.375976	-0.000220	-0.004254	-0.002559	-0.716553	-0.351074	0.593994	-0.204194	-0.742478	0.139567	-0.622537
48894		9.619970	1.238904	-1.403612	-0.004779	-0.001837	-0.002397	-0.730957	-0.356934	0.591797	-0.204197	-0.742461	0.139594	-0.622550
48895		9.606562	1.223314	-1.398593	0.003474	-0.001070	-0.005158	-0.715820	-0.356201	0.587158	-0.204186	-0.742435	0.139620	-0.622579
48896		9.608848	1.221207	-1.386250	0.014233	-0.002807	-0.009882	-0.720215	-0.357422	0.590332	-0.204108	-0.742474	0.139491	-0.622587
48897		9.648543	1.214263	-1.404998	0.015898	-0.002153	-0.011574	-0.721680	-0.358154	0.586670	-0.204029	-0.742513	0.139334	-0.622601
48898		9.626044	1.229181	-1.419721	0.010803	-0.001711	-0.006219	-0.729736	-0.358643	0.583008	-0.203971	-0.742517	0.139298	-0.622624
48899		9.622619	1.243134	-1.423730	0.005503	-0.004009	-0.003399	-0.722168	-0.358154	0.587891	-0.203957	-0.742498	0.139394	-0.622630
48900		9.628178	1.227036	-1.408466	0.000409	-0.002619	-0.002268	-0.729004	-0.351318	0.585693	-0.203961	-0.742477	0.139472	-0.622636
48901		9.617731	1.227301	-1.399960	-0.000953	-0.003494	-0.002565	-0.724121	-0.359131	0.595703	-0.203963	-0.742445	0.139578	-0.622650
48902		9.638798	1.204312	-1.367440	-0.001457	-0.001487	-0.001554	-0.719482	-0.351562	0.597412	-0.203963	-0.742422	0.139635	-0.622664
48903		9.617988	1.169295	-1.402340	0.003186	-0.000280	0.001077	-0.724121	-0.357178	0.589111	-0.203862	-0.742411	0.139620	-0.622714
48904		9.617490	1.227584	-1.401366	0.014996	-0.002428	-0.001383	-0.726074	-0.362305	0.583008	-0.203718	-0.742424	0.139589	-0.622752
48905		9.629935	1.253690	-1.397967	0.023636	-0.002779	-0.004900	-0.721680	-0.351807	0.589600	-0.203564	-0.742450	0.139525	-0.622786
48906		9.652308	1.260017	-1.394675	0.017532	-0.002845	0.000922	-0.727295	-0.359131	0.593994	-0.203356	-0.742475	0.139469	-0.622837
48907		9.611170	1.271662	-1.420637	0.012597	-0.004207	0.008752	-0.729980	-0.353760	0.583496	-0.203153	-0.742482	0.139547	-0.622877
48908		9.607480	1.306614	-1.352391	0.002966	-0.001901	0.008529	-0.722412	-0.357178	0.589844	-0.203059	-0.742421	0.139753	-0.622935
48909		9.611395	1.282794	-1.359353	-0.008857	0.000622	0.002518	-0.725830	-0.353760	0.583252	-0.203116	-0.742347	0.139931	-0.622964
48910		9.622278	1.273671	-1.378220	0.000315	0.001291	-0.001970	-0.727295	-0.358643	0.584473	-0.203132	-0.742280	0.140035	-0.623015
48911		9.627988	1.257800	-1.361743	0.008356	0.002331	-0.005734	-0.727051	-0.356934	0.590088	-0.203121	-0.742231	0.140053	-0.623072
48912		9.641275	1.246221	-1.367872	-0.003472	-0.001561	-0.004847	-0.723389	-0.361572	0.588379	-0.203182	-0.742195	0.140137	-0.623077
48913		9.628793	1.191542	-1.373088	-0.020397	-0.000487	0.002950	-0.722168	-0.361328	0.585449	-0.203362	-0.742096	0.140435	-0.623069
48914		9.632870	1.138909	-1.380698	-0.021597	-0.004111	0.009353	-0.724609	-0.356934	0.587646	-0.203503	-0.742007	0.140821	-0.623042
48915		9.616341	1.163065	-1.378453	-0.013586	-0.007046	0.009772	-0.725586	-0.350342	0.595459	-0.203536	-0.741962	0.141134	-0.623014
48916		9.632581	1.194089	-1.381127	-0.012657	-0.005632	0.008071	-0.723145	-0.347656	0.586670	-0.203527	-0.741929	0.141350	-0.623007
48917		9.637756	1.185885	-1.356007	-0.023374	-0.007444	0.005524	-0.729492	-0.357178	0.582031	-0.203646	-0.741873	0.141667	-0.622963
48918		9.623445	1.159201	-1.332259	-0.032274	-0.006450	0.001070	-0.724854	-0.349854	0.591309	-0.203942	-0.741772	0.142096	-0.622890
48919		9.623878	1.122360	-1.343838	-0.031901	-0.007181	-0.008155	-0.725586	-0.360107	0.578857	-0.204241	-0.741724	0.142331	-0.622795
48920		9.653666	1.107616	-1.363368	-0.027948	-0.007803	-0.017036	-0.726807	-0.350830	0.579834	-0.204649	-0.741676	0.142571	-0.622663
48921		9.651423	1.097271	-1.397947	-0.023641	-0.009967	-0.016709	-0.717529	-0.356934	0.591309	-0.204966	-0.741658	0.142748	-0.622540
48922		9.645650	1.080303	-1.426333	-0.021078	-0.006404	-0.018584	-0.735840	-0.362061	0.585693	-0.205262	-0.741662	0.142790	-0.622427
48923		9.637625	1.101625	-1.413906	-0.017265	-0.004092	-0.021442	-0.726807	-0.357666	0.586426	-0.205598	-0.741618	0.142892	-0.622346
48924		9.640280	1.079857	-1.349905	-0.013166	-0.003511	-0.026315	-0.717529	-0.353516	0.593750	-0.205905	-0.741607	0.142857	-0.622265
48925		9.647282	1.110993	-1.382075	-0.012573	-0.005453	-0.030320	-0.728516	-0.360840	0.583496	-0.206185	-0.741654	0.142688	-0.622156
48926		9.640612	1.155870	-1.408230	-0.011571	-0.005486	-0.035032	-0.722656	-0.359863	0.590088	-0.206559	-0.741667	0.142599	-0.622036
48927		9.629794	1.155011	-1.409679	-0.017347	-0.003305	-0.035391	-0.721436	-0.364990	0.587158	-0.206962	-0.741675	0.142476	-0.621921
48928		9.634798	1.167150	-1.403052	-0.011274	-0.002680	-0.035477	-0.719482	-0.366211	0.592041	-0.207336	-0.741688	0.142334	-0.621814
48929		9.620123	1.188801	-1.397337	0.004512	-0.002779	-0.038324	-0.726562	-0.364258	0.589111	-0.207571	-0.741761	0.142006	-0.621722
48930		9.611040	1.243066	-1.384163	0.019213	-0.002470	-0.041940	-0.715088	-0.364258	0.578125	-0.207702	-0.741858	0.141568	-0.621663
48931		9.621283	1.268481	-1.361065	0.027268	0.001650	-0.045660	-0.720947	-0.359619	0.586426	-0.207820	-0.741944	0.141050	-0.621638
48932		9.620870	1.308684	-1.389869	0.022049	0.000886	-0.044308	-0.721191	-0.363525	0.586670	-0.207932	-0.742029	0.140539	-0.621615
48933		9.600602	1.338150	-1.410275	0.024114	0.000992	-0.042509	-0.725830	-0.363281	0.582275	-0.208025	-0.742114	0.140043	-0.621595
48934		9.608805	1.357340	-1.409987	0.019635	0.000976	-0.041126	-0.717773	-0.365967	0.576172	-0.208164	-0.742166	0.139638	-0.621577
48935		9.628944	1.323537	-1.367922	0.015728	0.003529	-0.042182	-0.726562	-0.365723	0.579590	-0.208376	-0.742190	0.139266	-0.621562
48936		9.625490	1.287627	-1.372535	0.019709	0.002550	-0.042596	-0.724121	-0.369385	0.588135	-0.208545	-0.742224	0.138870	-0.621553
48937		9.607856	1.293552	-1.370205	0.025573	0.003488	-0.043682	-0.726562	-0.371582	0.585693	-0.208654	-0.742290	0.138365	-0.621550
48938		9.624365	1.306726	-1.402653	0.039498	-0.001872	-0.037428	-0.720459	-0.367432	0.588379	-0.208595	-0.742412	0.137856	-0.621537
48939		9.616308	1.339969	-1.410756	0.046367	-0.002885	-0.034778	-0.717041	-0.363525	0.582520	-0.208419	-0.742572	0.137270	-0.621534
48940		9.604223	1.413959	-1.421731	0.048469	-0.004666	-0.026025	-0.719971	-0.362793	0.584961	-0.208154	-0.742729	0.136766	-0.621547
48941		9.606427	1.458873	-1.377921	0.049131	-0.006422	-0.018802	-0.726807	-0.363525	0.584473	-0.207818	-0.742887	0.136326	-0.621568
48942		9.597397	1.505737	-1.367419	0.037682	-0.007425	-0.008629	-0.720947	-0.366943	0.589600	-0.207519	-0.742991	0.136106	-0.621591
48943		9.576545	1.543730	-1.370672	0.027881	-0.008723	0.004076	-0.721191	-0.365479	0.586670	-0.207210	-0.743078	0.136048	-0.621603
48944		9.570229	1.611865	-1.346332	0.010870	-0.010892	0.013355	-0.726318	-0.364746	0.596436	-0.206988	-0.743115	0.136231	-0.621593
48945		9.593080	1.634042	-1.353558	-0.043514	-0.014925	0.029178	-0.720947	-0.362305	0.589111	-0.207114	-0.743027	0.136949	-0.621497
48946		9.608357	1.525751	-1.334188	-0.063557	-0.016571	0.045621	-0.726074	-0.366699	0.589111	-0.207303	-0.742867	0.137994	-0.621395
48947		9.602832	1.373370	-1.402634	-0.074524	-0.025073	0.061950	-0.720703	-0.361572	0.586426	-0.207474	-0.742705	0.139329	-0.621233
48948		9.635236	1.252606	-1.398199	-0.078908	-0.027902	0.074519	-0.721191	-0.357666	0.586426	-0.207563	-0.742537	0.140797	-0.621073
48949		9.647182	1.132216	-1.448133	-0.081031	-0.033392	0.095576	-0.721924	-0.364746	0.581055	-0.207481	-0.742369	0.142475	-0.620919
48950		9.709766	1.051728	-1.482812	-0.094020	-0.038804	0.127347	-0.716553	-0.361816	0.589355	-0.207314	-0.742135	0.144626	-0.620757
48951		9.738118	0.985013	-1.483596	-0.138389	-0.045385	0.163372	-0.719971	-0.353027	0.584717	-0.207226	-0.741799	0.147389	-0.620539
48952		9.723330	0.784446	-1.446944	-0.226433	-0.059379	0.213012	-0.722656	-0.354248	0.584961	-0.207521	-0.741230	0.151335	-0.620170
48953		9.704911	0.405603	-1.586550	-0.288921	-0.058570	0.268275	-0.724609	-0.358887	0.589600	-0.207969	-0.740373	0.156279	-0.619817
48954		9.687572	0.196185	-1.605986	-0.217379	-0.078430	0.308167	-0.724365	-0.359619	0.585449	-0.207407	-0.739773	0.161070	-0.619496
48955		9.623397	-0.054485	-1.688542	-0.121485	-0.075549	0.348063	-0.732178	-0.340332	0.586670	-0.205674	-0.739295	0.165505	-0.619475
48956		9.533505	-0.264317	-1.694049	0.027243	-0.101921	0.392050	-0.725586	-0.339355	0.585938	-0.202104	-0.739290	0.169226	-0.619651
48957		9.490914	-0.367848	-1.756682	0.170962	-0.119072	0.441308	-0.734131	-0.336670	0.586670	-0.196813	-0.739660	0.172340	-0.620054
48958		9.455942	-0.480417	-1.707711	0.292892	-0.118822	0.510248	-0.732910	-0.308350	0.588135	-0.189902	-0.740123	0.175211	-0.620851
48959		9.402346	-0.557908	-1.888774	0.396432	-0.141484	0.591284	-0.740479	-0.299805	0.598389	-0.181283	-0.740780	0.178027	-0.621842
48960		9.266259	-0.614672	-2.026494	0.532481	-0.149476	0.670630	-0.739258	-0.279785	0.602539	-0.170779	-0.741556	0.180544	-0.623164
48961		9.180277	-0.855738	-1.956345	0.686167	-0.164851	0.762924	-0.743652	-0.250977	0.611816	-0.158079	-0.742465	0.182729	-0.624793
48962		8.991948	-1.008689	-2.422756	1.024315	-0.216906	0.844822	-0.739258	-0.218994	0.628174	-0.141423	-0.744095	0.183081	-0.626741
48963		9.240727	-0.213404	-1.322152	1.193772	-0.141080	0.951702	-0.748291	-0.175781	0.634277	-0.122452	-0.744974	0.182848	-0.629750
48964		9.140082	0.421508	-0.021160	0.773124	-0.141584	0.947435	-0.738770	-0.156006	0.635010	-0.107372	-0.744977	0.185847	-0.631618
48965		9.179535	-0.177007	-0.753135	0.329997	-0.141100	0.971698	-0.746094	-0.123291	0.642334	-0.096259	-0.744184	0.192548	-0.632336
48966		9.101097	-1.307628	-0.904615	0.714350	-0.097041	1.073365	-0.740967	-0.089600	0.646973	-0.080798	-0.743097	0.197032	-0.634395
48967		9.513088	-2.764839	-0.421482	0.572634	-0.118999	1.185532	-0.745117	-0.061279	0.650391	-0.065660	-0.741587	0.203616	-0.635829
48968		9.087061	-2.592887	-0.677978	0.569934	-0.086424	1.364406	-0.741455	-0.033691	0.646240	-0.049213	-0.739119	0.211822	-0.637505
48969		8.149364	-0.885205	-0.659591	0.141954	-0.079084	1.587953	-0.737793	0.012451	0.653076	-0.034995	-0.735449	0.225464	-0.638009
48970		7.934794	-0.687123	-1.669808	-0.571348	-0.113887	1.580756	-0.728516	0.035645	0.659424	-0.027168	-0.731483	0.244574	-0.635908
48971		8.296898	-2.309059	-2.480029	-0.880748	-0.085393	1.351720	-0.737305	0.049316	0.663086	-0.024069	-0.727587	0.263930	-0.632755
48972		9.114004	-4.161217	-2.892828	-0.609678	-0.181015	1.246027	-0.728516	0.053467	0.669678	-0.019085	-0.724567	0.280180	-0.629395
48973		8.634171	-4.054324	-2.840498	-0.245896	-0.189232	1.291947	-0.721436	0.089111	0.674805	-0.010460	-0.721322	0.293927	-0.627050
48974		7.967315	-2.794646	-2.459814	-0.077881	-0.203726	1.327907	-0.707520	0.106689	0.685303	0.000032	-0.717870	0.306598	-0.625028
48975		7.738884	-2.994472	-2.594589	-0.239973	-0.194276	1.279649	-0.710205	0.123779	0.691650	0.008645	-0.714329	0.320016	-0.622294
48976		7.661025	-3.773687	-2.559273	-0.066800	-0.143441	1.295791	-0.700684	0.150879	0.690674	0.018721	-0.710112	0.332152	-0.620536
48977		7.524816	-4.167402	-2.308444	0.099137	-0.095037	1.389158	-0.694824	0.179443	0.696777	0.030791	-0.704890	0.343743	-0.619695
48978		7.432026	-4.075228	-1.625273	0.141071	0.005250	1.476069	-0.681396	0.203857	0.688721	0.043464	-0.698272	0.355699	-0.619681
48979		7.770350	-4.178226	-2.150057	0.103199	0.092864	1.451604	-0.668457	0.230469	0.698975	0.055212	-0.690866	0.367661	-0.620065
48980		8.701639	-4.931040	-2.349635	0.203734	0.108960	1.393907	-0.670166	0.263916	0.691406	0.067295	-0.683311	0.378228	-0.620887
48981		9.500421	-5.304693	-2.570489	0.370891	0.138789	1.369161	-0.651123	0.297852	0.690430	0.080449	-0.675283	0.387192	-0.622578
48982		9.270975	-5.253011	-2.431709	0.428266	0.188465	1.400779	-0.640625	0.329346	0.678223	0.094074	-0.666439	0.395887	-0.624726
48983		8.653947	-6.106986	-2.320789	0.438189	0.148404	1.381974	-0.637207	0.363770	0.674561	0.107800	-0.657765	0.404164	-0.626399
48984		8.393269	-6.550833	-2.087636	0.595894	0.151947	1.294288	-0.620117	0.393311	0.668945	0.122082	-0.649079	0.410356	-0.628809
48985		8.113069	-6.383391	-2.189863	0.524755	0.135785	1.208216	-0.612305	0.418945	0.664307	0.135161	-0.640878	0.416256	-0.630664
48986		7.489018	-6.912280	-2.329574	0.332632	0.121371	1.072960	-0.592285	0.437012	0.662109	0.145676	-0.633667	0.422463	-0.631482
48987		6.692602	-8.331142	-2.172614	0.158137	-0.006803	0.928378	-0.595215	0.463867	0.656006	0.154323	-0.628445	0.428592	-0.630516
48988		6.641979	-8.946695	-1.961515	0.216207	-0.113531	0.753672	-0.570557	0.475830	0.660400	0.162599	-0.624808	0.432640	-0.629284
48989		7.341770	-8.640911	-1.577887	0.359697	-0.081348	0.437811	-0.566895	0.486572	0.655029	0.169330	-0.622291	0.433123	-0.629672
48990		8.015628	-8.831074	-1.001351	0.168927	-0.094130	0.140077	-0.570557	0.489258	0.657959	0.172296	-0.621869	0.432753	-0.629538
48991		8.834266	-8.335213	-0.793997	-0.256494	-0.030751	-0.027140	-0.563965	0.491699	0.664062	0.170292	-0.622761	0.434564	-0.627951
48992		9.193371	-8.629998	-1.725113	-0.526628	0.068239	-0.226096	-0.568359	0.478271	0.667236	0.164086	-0.624519	0.437134	-0.626071
48993		8.909205	-7.838679	-2.714842	-0.789411	0.076170	-0.516130	-0.578125	0.454834	0.674072	0.153501	-0.628281	0.439466	-0.623354
48994		8.392130	-8.020251	-3.702453	-1.193159	-0.113581	-0.937973	-0.590820	0.422119	0.697510	0.137460	-0.636457	0.441155	-0.617583
48995		8.705474	-10.099911	-3.162976	-1.038884	-0.325327	-1.286362	-0.596924	0.381592	0.704102	0.121072	-0.647671	0.438337	-0.611330
48996		10.279452	-10.396994	-2.073230	-0.397911	-0.308111	-1.905256	-0.613770	0.347900	0.716064	0.104984	-0.660833	0.425411	-0.609347
48997		12.935735	-7.554479	-1.198545	-0.281698	-0.247593	-2.579786	-0.626953	0.298340	0.726562	0.084315	-0.676419	0.405751	-0.608864
48998		16.472181	-4.947735	-2.033592	-0.778289	-0.097246	-3.106076	-0.648193	0.227051	0.717041	0.054581	-0.693159	0.385022	-0.606885
48999		21.730750	-3.586590	-2.675158	-1.061111	0.338717	-3.779733	-0.680176	0.141846	0.716797	0.015087	-0.708635	0.360110	-0.606572
49000		27.559489	-2.943183	-2.886398	-0.749309	1.350934	-4.199593	-0.718262	0.047363	0.684326	-0.029384	-0.716322	0.328252	-0.615036
49001		27.592783	0.336040	-6.565410	-0.399424	1.991344	-4.334263	-0.754883	-0.035889	0.637207	-0.074253	-0.717374	0.291112	-0.628581
49002		20.721333	3.668062	-10.244047	-0.853709	1.517236	-4.199396	-0.766357	-0.129883	0.598877	-0.120174	-0.718774	0.258195	-0.634237
49003		9.323567	1.495540	-6.101518	-3.197685	0.443225	-4.422952	-0.748291	-0.266113	0.565430	-0.184983	-0.723028	0.242448	-0.619863
49004		6.160797	-15.650617	-1.843724	-7.119166	1.448791	-2.928629	-0.735840	-0.415771	0.468262	-0.275340	-0.700747	0.266534	-0.601748
49005		-1.813690	-38.803329	-15.693633	-1.396089	-0.420034	0.284381	-0.735840	-0.419922	0.469482	-0.283985	-0.697972	0.280940	-0.594357
49006		0.848902	-5.189711	-3.143657	1.574472	0.760656	1.077581	-0.751953	-0.377686	0.462646	-0.264784	-0.693842	0.275937	-0.610190
49007		-2.189224	-7.774304	1.811649	1.119876	-0.479471	0.679492	-0.740479	-0.351074	0.478760	-0.248173	-0.698693	0.274952	-0.612078
49008		1.263550	6.384166	-4.528410	2.267423	-0.911243	1.280254	-0.741943	-0.282227	0.509033	-0.215287	-0.707811	0.271591	-0.615544
49009		1.298767	3.185338	0.131455	1.584878	0.226890	1.118845	-0.752686	-0.248291	0.503906	-0.193339	-0.706259	0.268731	-0.625781
49010		1.709253	1.986924	0.830504	2.273076	-0.121232	0.519744	-0.743408	-0.215088	0.528564	-0.168714	-0.710586	0.255856	-0.633357
49011		-0.215044	3.655857	0.241554	2.304642	-0.032287	-0.134297	-0.758301	-0.185547	0.533203	-0.149125	-0.715772	0.236512	-0.639917
49012		0.125038	3.303631	2.059724	1.882496	-0.140496	-0.244473	-0.743896	-0.169678	0.529053	-0.133773	-0.720865	0.219588	-0.643614
49013		0.731006	2.968888	0.890655	1.449867	-0.192911	-0.120856	-0.744385	-0.152588	0.546387	-0.121123	-0.724994	0.207240	-0.645573
49014		0.398332	1.323556	1.117799	0.862169	-0.277104	0.032035	-0.750000	-0.137939	0.561035	-0.112318	-0.728350	0.201088	-0.645333
49015		0.469889	0.302487	0.080155	-0.254890	-0.176081	0.235648	-0.743408	-0.134033	0.556885	-0.112284	-0.728757	0.205638	-0.643443
49016		-0.175804	1.150271	0.255493	-0.707111	-0.005378	0.464431	-0.742920	-0.138672	0.572021	-0.114962	-0.726517	0.215655	-0.642223
49017		-0.315524	0.414371	0.781138	-1.277533	0.093038	0.569352	-0.750000	-0.145508	0.554688	-0.122213	-0.722232	0.231009	-0.640374
49018		-0.365000	-1.735021	0.120578	-1.551248	-0.063085	0.696498	-0.752686	-0.151367	0.561768	-0.130445	-0.718126	0.249873	-0.636272
49019		-0.037159	-3.733591	-0.486464	-1.072986	-0.253132	0.809753	-0.759521	-0.157471	0.566895	-0.132806	-0.715699	0.266138	-0.631908
49020		0.739726	-4.363395	-1.709527	0.281352	-0.387579	0.949858	-0.760010	-0.129150	0.588135	-0.121488	-0.715936	0.273150	-0.630924
49021		1.103681	-0.215893	0.207620	0.783809	-0.244454	1.059726	-0.757568	-0.103760	0.600830	-0.105217	-0.715285	0.276867	-0.632962
49022		0.294376	-0.629453	1.420619	0.580305	-0.407753	1.134098	-0.758545	-0.075684	0.610596	-0.089592	-0.715196	0.283003	-0.632754
49023		13.112055	-20.279119	-8.347427	-0.120428	-0.546795	1.440752	-0.753418	-0.046387	0.643799	-0.077298	-0.714095	0.297497	-0.628959
49024		39.328808	-12.149952	-20.615164	-2.104857	-2.677152	2.134658	-0.717041	-0.030273	0.693359	-0.069170	-0.724223	0.335384	-0.598526
49025		47.359409	-25.550844	1.998905	3.655726	0.555545	5.101688	-0.711914	0.125000	0.682861	0.000022	-0.699586	0.352749	-0.621407
49026		10.969954	34.574665	-4.489494	-0.512737	0.878310	3.705993	-0.707275	0.182617	0.669678	0.020489	-0.675549	0.388851	-0.626106
49027		10.642758	-16.061312	-4.270221	-2.995680	-1.622299	-1.573355	-0.692383	0.109375	0.724365	-0.009212	-0.695868	0.398222	-0.597580
49028		34.564362	-18.872368	-2.240713	1.916149	0.412598	-0.242460	-0.695801	0.138916	0.701172	0.003623	-0.693949	0.381713	-0.610505
49029		10.020392	4.429697	-4.941548	2.149966	1.009281	-0.287952	-0.718750	0.166748	0.674561	0.015290	-0.687163	0.362753	-0.629272
49030		4.477920	2.177592	-5.036713	-0.462821	0.067235	-0.863307	-0.724609	0.140381	0.667725	0.004251	-0.690541	0.359020	-0.627885
49031		12.437446	-2.981874	-4.080961	-0.593090	-0.454091	-2.136233	-0.715332	0.089844	0.683105	-0.015570	-0.703402	0.345126	-0.621185
49032		12.875356	-7.192993	-3.121982	-0.272998	0.097307	-1.463818	-0.725586	0.053955	0.685059	-0.029723	-0.708747	0.334345	-0.620490
49033		8.432333	-4.653560	-2.714423	0.568074	0.255119	-1.346806	-0.727051	0.046387	0.670654	-0.036169	-0.712444	0.317908	-0.624539
49034		5.689877	-0.997239	-1.617501	0.817255	0.141957	-1.657379	-0.741211	0.021240	0.669678	-0.042353	-0.718059	0.296675	-0.628157
49035		6.479967	-2.166954	-0.645095	0.527085	-0.023746	-1.724888	-0.748779	-0.001953	0.657959	-0.051042	-0.724695	0.277054	-0.628850
49036		9.514087	-3.948858	-0.402773	0.487807	-0.033067	-1.484441	-0.733398	-0.030273	0.660156	-0.058147	-0.730223	0.259808	-0.629200
49037		9.812981	-2.161210	-0.777559	1.011110	0.037506	-1.260394	-0.744873	-0.032227	0.653076	-0.058922	-0.734562	0.240341	-0.631810
49038		8.889966	-0.005835	-2.200525	0.826173	0.084378	-1.244144	-0.742188	-0.049805	0.661865	-0.061385	-0.738066	0.222357	-0.634072
49039		9.445915	0.541878	-2.219054	0.228206	0.032676	-1.189438	-0.736328	-0.071289	0.656738	-0.068773	-0.741160	0.209592	-0.634053
49040		9.775496	0.402804	-2.351135	-0.129814	0.034254	-1.121165	-0.743896	-0.092285	0.651367	-0.078928	-0.743597	0.200249	-0.633036
49041		9.393182	-1.036037	-1.596864	-0.277288	0.061785	-1.029810	-0.739502	-0.116211	0.651855	-0.089785	-0.745301	0.192855	-0.631879
49042		9.198202	-1.083017	-1.145309	-0.405908	0.052498	-0.966507	-0.738281	-0.144531	0.653809	-0.101303	-0.746653	0.187043	-0.630287
49043		8.893533	-1.079690	-1.037574	-0.429856	0.099566	-0.968117	-0.736816	-0.165527	0.639893	-0.113150	-0.747478	0.181315	-0.628967
49044		8.761427	-1.309269	-0.477707	-0.199422	0.090660	-0.858496	-0.732422	-0.185303	0.643311	-0.121945	-0.748336	0.174785	-0.628150
49045		8.891496	-1.565021	-0.698297	-0.296978	0.090672	-0.650104	-0.726074	-0.204834	0.637451	-0.130004	-0.748516	0.170954	-0.627373
49046		8.962677	-1.542978	-1.804623	-0.260713	0.080036	-0.495779	-0.731934	-0.217041	0.635254	-0.136485	-0.748458	0.168294	-0.626786
49047		9.484996	-1.141204	-2.010010	-0.341335	0.064315	-0.416853	-0.738037	-0.235352	0.634277	-0.143061	-0.748183	0.167025	-0.625986
49048		9.523044	-0.017852	-1.889687	-0.421573	0.082467	-0.413188	-0.736084	-0.249512	0.626709	-0.150392	-0.747577	0.166383	-0.625162
49049		9.236971	0.684299	-1.604429	-0.631629	0.097348	-0.452609	-0.732666	-0.267334	0.615479	-0.160015	-0.746484	0.166976	-0.623919
49050		9.370761	0.360424	-1.413375	-0.770445	0.115747	-0.454288	-0.733887	-0.288086	0.609131	-0.170967	-0.744891	0.168581	-0.622486
49051		9.599144	0.118517	-1.587741	-0.850038	0.093996	-0.365385	-0.734131	-0.294678	0.604492	-0.181901	-0.743011	0.171657	-0.620790
49052		9.571137	0.170927	-1.527543	-0.765636	0.047235	-0.324129	-0.736816	-0.324951	0.603516	-0.191600	-0.741509	0.174541	-0.618861
49053		9.315604	0.017937	-1.796978	-0.587290	0.036100	-0.376498	-0.724121	-0.333496	0.596191	-0.200015	-0.740565	0.175577	-0.617034
49054		9.343125	0.250073	-1.585867	-0.296243	0.019509	-0.381169	-0.731445	-0.345215	0.593994	-0.205721	-0.740445	0.174355	-0.615646
49055		9.613018	0.551677	-1.693334	-0.229052	0.013167	-0.336169	-0.719238	-0.355225	0.590088	-0.210439	-0.740426	0.173045	-0.614443
49056		9.690671	0.671113	-1.676743	-0.237653	0.030825	-0.282785	-0.719727	-0.367432	0.588623	-0.214861	-0.740116	0.172247	-0.613510
49057		9.688258	0.357053	-1.516514	-0.340831	0.017830	-0.143649	-0.715576	-0.372314	0.589600	-0.219139	-0.739313	0.173560	-0.612594
49058		9.666374	0.035486	-1.660138	-0.436577	-0.021257	0.006145	-0.720459	-0.390625	0.586670	-0.223062	-0.738204	0.177093	-0.611504
49059		9.603555	-0.259011	-1.664694	-0.410447	-0.053521	0.080007	-0.721680	-0.383789	0.576660	-0.226107	-0.737227	0.181200	-0.610360
49060		9.541098	-0.176957	-1.782480	-0.121847	-0.057894	0.102077	-0.722412	-0.385986	0.572021	-0.226306	-0.737036	0.183317	-0.609883
49061		9.607490	0.344635	-1.786517	0.167956	-0.070733	0.117018	-0.717041	-0.381836	0.583252	-0.223693	-0.737725	0.183403	-0.609989
49062		9.522162	0.886507	-1.737154	0.283721	-0.087387	0.106587	-0.717529	-0.375732	0.580078	-0.220050	-0.738881	0.182554	-0.610170
49063		9.757574	1.335001	-1.654906	0.269985	-0.087825	0.126404	-0.723145	-0.370361	0.591797	-0.216380	-0.739944	0.181994	-0.610361
49064		9.660157	1.451948	-1.481985	0.188931	-0.063074	0.147082	-0.715088	-0.366211	0.592041	-0.213354	-0.740545	0.182172	-0.610645
49065		9.636644	1.345524	-1.493471	0.060843	-0.055822	0.179625	-0.722168	-0.354004	0.590820	-0.211281	-0.740668	0.183608	-0.610786
49066		9.534870	0.970372	-1.649477	0.002732	-0.067820	0.219633	-0.707764	-0.352051	0.592773	-0.209408	-0.740632	0.185885	-0.610786
49067		9.580762	0.683652	-1.734827	-0.020793	-0.079667	0.253918	-0.718994	-0.342773	0.593262	-0.207463	-0.740539	0.188688	-0.610703
49068		9.573969	0.461201	-1.797105	0.006229	-0.055201	0.276561	-0.731445	-0.343262	0.591309	-0.205147	-0.740266	0.191427	-0.610964
49069		9.537676	0.242202	-1.568243	0.122767	-0.051217	0.307227	-0.725098	-0.342773	0.597412	-0.201530	-0.740174	0.193553	-0.611609
49070		9.692666	0.076253	-1.565004	0.160925	-0.066279	0.359195	-0.725830	-0.327148	0.599854	-0.197124	-0.740153	0.195902	-0.612322
49071		9.579459	0.292942	-1.735925	0.175216	-0.048863	0.405130	-0.739258	-0.324463	0.608887	-0.192267	-0.739901	0.198516	-0.613328
49072		9.445425	0.183244	-1.758734	0.214145	-0.066134	0.412194	-0.740967	-0.301025	0.605469	-0.186949	-0.739832	0.200934	-0.614267
