// Start Time: Unknown
// Update Rate: 40.0Hz
// Filter Profile: human (46.1)
// Firmware Version: 4.6.0
PacketCounter	SampleTimeFine	Acc_X	Acc_Y	Acc_Z	Gyr_X	Gyr_Y	Gyr_Z	Mag_X	Mag_Y	Mag_Z	Quat_q0	Quat_q1	Quat_q2	Quat_q3
48166		9.789421	0.489531	-0.212344	-0.001439	0.005252	-0.013439	-0.795166	-0.166016	0.502441	-0.112867	-0.710245	0.080093	-0.690216
48167		9.800705	0.487970	-0.217229	0.016923	0.008286	-0.010106	-0.793945	-0.175293	0.505127	-0.112813	-0.710207	0.079846	-0.690292
48168		9.805660	0.506169	-0.231596	0.024131	0.014960	-0.007882	-0.799805	-0.166260	0.510986	-0.112806	-0.710108	0.079519	-0.690434
48169		9.793552	0.522053	-0.274750	0.012207	0.010998	-0.005063	-0.791504	-0.171631	0.505859	-0.112722	-0.710040	0.079359	-0.690536
48170		9.802967	0.521908	-0.225772	-0.007595	0.006205	-0.001043	-0.797363	-0.172363	0.502930	-0.112866	-0.709973	0.079393	-0.690577
48171		9.803382	0.478883	-0.208689	-0.014243	0.006598	0.000554	-0.797363	-0.164795	0.503418	-0.113067	-0.709892	0.079493	-0.690616
48172		9.786552	0.425906	-0.200001	-0.007036	0.010875	-0.001240	-0.789062	-0.164062	0.499023	-0.113124	-0.709799	0.079532	-0.690697
48173		9.782731	0.425260	-0.187919	0.002649	0.015133	-0.003962	-0.794189	-0.166016	0.503174	-0.113125	-0.709683	0.079464	-0.690825
48174		9.776362	0.447143	-0.194427	0.010799	0.018386	-0.007564	-0.789307	-0.171631	0.498779	-0.113088	-0.709555	0.079295	-0.690981
48175		9.809072	0.463860	-0.216622	0.004256	0.017845	-0.005613	-0.790771	-0.166260	0.501221	-0.113162	-0.709401	0.079193	-0.691139
48176		9.797688	0.469441	-0.206218	-0.000630	0.014897	-0.004140	-0.795898	-0.166748	0.500488	-0.113190	-0.709284	0.079169	-0.691257
48177		9.795973	0.490621	-0.189614	-0.000388	0.015174	-0.004982	-0.791748	-0.167969	0.504395	-0.113224	-0.709163	0.079139	-0.691379
48178		9.804274	0.484645	-0.151320	-0.003456	0.013166	-0.006746	-0.788818	-0.159424	0.498291	-0.113305	-0.709082	0.079117	-0.691452
48179		9.811067	0.482022	-0.177251	-0.004636	0.018525	-0.003935	-0.795898	-0.172852	0.498779	-0.113303	-0.708907	0.079143	-0.691628
48180		9.773969	0.476458	-0.189887	-0.004881	0.018243	-0.003092	-0.790039	-0.169922	0.502686	-0.113427	-0.708738	0.079158	-0.691779
48181		9.779653	0.458958	-0.206981	-0.008875	0.019475	-0.006909	-0.788330	-0.167725	0.498535	-0.113584	-0.708590	0.079172	-0.691904
48182		9.795455	0.447832	-0.164748	-0.004025	0.020361	-0.009119	-0.790527	-0.168945	0.495605	-0.113699	-0.708422	0.079137	-0.692060
48183		9.794565	0.476745	-0.134973	-0.005644	0.017724	-0.009775	-0.791992	-0.175781	0.497314	-0.113841	-0.708258	0.079124	-0.692207
48184		9.807405	0.531274	-0.127883	-0.014790	0.018287	-0.011875	-0.795654	-0.167236	0.497314	-0.114147	-0.708086	0.079162	-0.692328
48185		9.789312	0.466857	-0.108537	-0.031803	0.020215	-0.016654	-0.795166	-0.171875	0.502441	-0.114547	-0.707876	0.079307	-0.692460
48186		9.774455	0.407371	-0.129116	-0.023474	0.029024	-0.026842	-0.789795	-0.171143	0.495850	-0.115000	-0.707641	0.079269	-0.692629
48187		9.779185	0.496319	-0.064898	0.009538	0.024545	-0.027712	-0.794678	-0.164307	0.500488	-0.115163	-0.707458	0.078964	-0.692825
48188		9.788154	0.528606	-0.105528	0.005715	0.019555	-0.025405	-0.791016	-0.174072	0.495117	-0.115229	-0.707332	0.078716	-0.692970
48189		9.793451	0.506672	-0.103038	-0.018343	0.013278	-0.015990	-0.800537	-0.159668	0.498291	-0.115561	-0.707182	0.078762	-0.693063
48190		9.793043	0.501267	-0.080034	-0.039074	0.006805	-0.007364	-0.793457	-0.170898	0.496338	-0.115778	-0.707061	0.079077	-0.693114
48191		9.812591	0.490998	-0.049066	-0.042439	0.009448	-0.004855	-0.793457	-0.167969	0.507568	-0.116165	-0.706905	0.079430	-0.693168
48192		9.786628	0.431502	-0.066603	-0.047801	0.012654	-0.003104	-0.794922	-0.172607	0.497559	-0.116492	-0.706792	0.079803	-0.693186
48193		9.767768	0.409711	-0.097149	-0.051825	0.007113	-0.005543	-0.797119	-0.179932	0.498047	-0.116956	-0.706639	0.080239	-0.693213
48194		9.787613	0.407791	-0.086876	-0.041127	0.005180	-0.006563	-0.790527	-0.175293	0.499268	-0.117403	-0.706516	0.080586	-0.693223
48195		9.794774	0.396309	-0.062875	-0.024911	0.003479	-0.014384	-0.802246	-0.177490	0.495850	-0.117712	-0.706473	0.080723	-0.693198
48196		9.787883	0.412903	-0.052256	-0.008499	0.002492	-0.022072	-0.796143	-0.179932	0.502197	-0.117938	-0.706400	0.080691	-0.693237
48197		9.787361	0.429725	-0.103868	-0.003403	0.003863	-0.029710	-0.796875	-0.174072	0.498779	-0.118199	-0.706399	0.080517	-0.693214
48198		9.797926	0.457661	-0.052259	-0.004988	-0.001166	-0.034409	-0.795410	-0.188232	0.496094	-0.118429	-0.706419	0.080342	-0.693175
48199		9.797041	0.426548	-0.101946	-0.006852	0.000425	-0.031756	-0.791016	-0.179199	0.491699	-0.118877	-0.706391	0.080217	-0.693142
48200		9.802369	0.406974	-0.103841	0.003565	-0.001417	-0.028666	-0.794678	-0.180908	0.499512	-0.119093	-0.706383	0.080050	-0.693132
48201		9.817424	0.451679	-0.102051	0.024089	-0.000253	-0.022794	-0.797363	-0.173828	0.499268	-0.119039	-0.706440	0.079737	-0.693119
48202		9.799989	0.488090	-0.094054	0.022226	0.001340	-0.020143	-0.794922	-0.180420	0.494629	-0.118847	-0.706470	0.079460	-0.693154
48203		9.767528	0.493750	-0.108722	0.016784	-0.003832	-0.016799	-0.799072	-0.173828	0.496338	-0.118822	-0.706496	0.079289	-0.693150
48204		9.790733	0.528479	-0.073484	0.022754	-0.007572	-0.015272	-0.788818	-0.174805	0.500732	-0.118581	-0.706564	0.079073	-0.693147
48205		9.781036	0.516852	-0.081837	0.028843	-0.003288	-0.018613	-0.794678	-0.176270	0.502197	-0.118359	-0.706703	0.078731	-0.693083
48206		9.777079	0.529010	-0.093915	0.029520	0.000175	-0.024009	-0.794434	-0.177979	0.493896	-0.118174	-0.706793	0.078328	-0.693068
48207		9.779822	0.580349	-0.118697	0.030793	-0.003397	-0.031652	-0.794189	-0.182617	0.493652	-0.118138	-0.706838	0.077900	-0.693077
48208		9.802874	0.628270	-0.103325	0.038404	-0.002568	-0.038877	-0.791260	-0.178467	0.497314	-0.118192	-0.706887	0.077337	-0.693080
48209		9.767914	0.658648	-0.104888	0.039473	0.004177	-0.038659	-0.798584	-0.188477	0.490723	-0.118145	-0.706941	0.076720	-0.693102
48210		9.785054	0.653562	-0.152917	0.028058	0.002798	-0.039137	-0.795166	-0.179199	0.498291	-0.118418	-0.706860	0.076239	-0.693191
48211		9.782276	0.682837	-0.140478	0.019772	-0.003705	-0.037423	-0.788574	-0.179199	0.494141	-0.118504	-0.706943	0.075793	-0.693141
48212		9.791860	0.655431	-0.099293	0.013141	-0.001464	-0.030508	-0.796875	-0.175293	0.500977	-0.118649	-0.706989	0.075473	-0.693103
48213		9.771888	0.624263	-0.125294	-0.000973	-0.003181	-0.026928	-0.795898	-0.179688	0.501953	-0.118701	-0.707049	0.075266	-0.693056
48214		9.793613	0.607189	-0.130664	-0.000718	-0.003049	-0.023168	-0.791016	-0.185791	0.496338	-0.118804	-0.707117	0.075086	-0.692988
48215		9.797948	0.620411	-0.127817	0.005546	-0.000324	-0.020233	-0.795410	-0.179443	0.495605	-0.119026	-0.707131	0.074909	-0.692955
48216		9.797682	0.624568	-0.127937	0.011511	0.000431	-0.013932	-0.793457	-0.177246	0.495605	-0.118972	-0.707108	0.074733	-0.693007
48217		9.780696	0.625442	-0.157232	0.012803	0.001107	-0.009905	-0.794189	-0.182129	0.490967	-0.118832	-0.707094	0.074576	-0.693062
48218		9.775527	0.669409	-0.163790	0.011288	0.000017	-0.008491	-0.790283	-0.173584	0.502441	-0.118842	-0.707021	0.074477	-0.693146
48219		9.771891	0.660251	-0.103044	0.005751	-0.004083	-0.010090	-0.794189	-0.186035	0.495850	-0.118632	-0.707160	0.074337	-0.693055
48220		9.771657	0.663550	-0.103961	-0.004271	-0.003319	-0.016940	-0.798340	-0.186523	0.495117	-0.118910	-0.707156	0.074273	-0.693018
48221		9.782875	0.664178	-0.110728	-0.015251	-0.001537	-0.021984	-0.793213	-0.189453	0.495850	-0.119316	-0.707083	0.074259	-0.693024
48222		9.768372	0.637932	-0.100599	-0.013819	-0.002017	-0.025469	-0.800537	-0.183350	0.493896	-0.119813	-0.707069	0.074196	-0.692960
48223		9.791072	0.635826	-0.113318	-0.009147	0.000190	-0.024750	-0.789307	-0.187256	0.501221	-0.120074	-0.706966	0.074095	-0.693031
48224		9.777599	0.633468	-0.131183	-0.004389	-0.000452	-0.029018	-0.791504	-0.183838	0.500244	-0.120410	-0.707060	0.073888	-0.692898
48225		9.787123	0.663386	-0.112167	-0.003917	0.002212	-0.032250	-0.802734	-0.186279	0.498291	-0.120668	-0.707106	0.073646	-0.692832
48226		9.766609	0.674539	-0.120591	-0.002613	-0.003648	-0.033729	-0.798340	-0.185059	0.505615	-0.120929	-0.707091	0.073397	-0.692829
48227		9.782921	0.693465	-0.112255	-0.005720	-0.003161	-0.036083	-0.795410	-0.185791	0.502197	-0.121161	-0.707198	0.073123	-0.692708
48228		9.797759	0.699418	-0.127965	-0.011347	-0.002316	-0.034246	-0.791748	-0.186523	0.498291	-0.121469	-0.707263	0.072926	-0.692608
48229		9.794086	0.665002	-0.136236	-0.013044	0.000055	-0.033771	-0.796143	-0.188477	0.491455	-0.121835	-0.707281	0.072761	-0.692543
48230		9.783627	0.650521	-0.154875	-0.009640	-0.000664	-0.030926	-0.801270	-0.199219	0.505127	-0.122206	-0.707184	0.072626	-0.692590
48231		9.799265	0.652796	-0.137844	-0.007054	-0.001343	-0.023622	-0.789795	-0.190674	0.502197	-0.122589	-0.707226	0.072462	-0.692498
48232		9.791227	0.663301	-0.141026	-0.007078	-0.005220	-0.017247	-0.798584	-0.192871	0.492432	-0.122777	-0.707349	0.072387	-0.692346
48233		9.818670	0.658020	-0.131243	-0.010234	-0.004123	-0.008466	-0.787109	-0.187744	0.491699	-0.122987	-0.707254	0.072452	-0.692399
48234		9.799305	0.668792	-0.127859	-0.014432	-0.001450	-0.001503	-0.794922	-0.187988	0.500244	-0.123106	-0.707207	0.072621	-0.692408
48235		9.780875	0.628569	-0.120955	-0.017257	-0.000878	0.002199	-0.789062	-0.187256	0.496582	-0.123129	-0.707198	0.072817	-0.692393
48236		9.779475	0.615363	-0.145135	-0.011881	0.000124	-0.000348	-0.787842	-0.194824	0.501465	-0.123158	-0.707189	0.072958	-0.692382
48237		9.782418	0.658556	-0.136823	-0.006746	-0.001205	-0.002804	-0.795166	-0.186523	0.498779	-0.123302	-0.707273	0.073006	-0.692266
48238		9.763777	0.675585	-0.121035	-0.003126	-0.001508	-0.005399	-0.796875	-0.192139	0.486084	-0.123235	-0.707276	0.073031	-0.692272
48239		9.774506	0.667117	-0.139718	-0.006318	-0.000465	-0.011377	-0.791016	-0.188965	0.498535	-0.123458	-0.707092	0.073068	-0.692416
48240		9.794971	0.673838	-0.119534	-0.009613	-0.002745	-0.014609	-0.791504	-0.192383	0.497803	-0.123590	-0.707139	0.073061	-0.692345
48241		9.797135	0.657514	-0.132844	-0.006282	-0.000835	-0.014645	-0.790283	-0.188721	0.497314	-0.123769	-0.707158	0.073022	-0.692298
48242		9.773200	0.597769	-0.121247	-0.009177	0.000226	-0.012269	-0.788330	-0.185791	0.495361	-0.123870	-0.707166	0.073034	-0.692271
48243		9.780778	0.603607	-0.139115	-0.002745	-0.002462	-0.011450	-0.794189	-0.187500	0.500732	-0.123853	-0.707197	0.073015	-0.692244
48244		9.794325	0.630213	-0.129897	0.008413	-0.003335	-0.010885	-0.790039	-0.192871	0.497559	-0.123708	-0.707274	0.072886	-0.692205
48245		9.803250	0.640336	-0.103862	0.012050	-0.001640	-0.010434	-0.784912	-0.187256	0.502441	-0.123690	-0.707328	0.072733	-0.692169
48246		9.761642	0.627722	-0.125022	0.019541	0.000031	-0.013418	-0.790527	-0.196045	0.500244	-0.123489	-0.707483	0.072470	-0.692074
48247		9.770581	0.655595	-0.139092	0.026609	-0.001343	-0.016441	-0.788818	-0.193359	0.507080	-0.123445	-0.707584	0.072122	-0.692015
48248		9.767111	0.664678	-0.119238	0.031935	-0.004092	-0.017213	-0.791260	-0.192627	0.498535	-0.123253	-0.707813	0.071700	-0.691859
48249		9.796711	0.713309	-0.154491	0.035145	-0.005446	-0.016800	-0.784424	-0.189697	0.500977	-0.123074	-0.707925	0.071303	-0.691817
48250		9.791485	0.756723	-0.130442	0.018634	-0.005647	-0.012518	-0.791992	-0.187744	0.505127	-0.122953	-0.708087	0.071078	-0.691696
48251		9.789157	0.731694	-0.148090	0.004643	-0.004142	-0.011681	-0.802002	-0.189941	0.503174	-0.122857	-0.708204	0.070974	-0.691604
48252		9.791422	0.697421	-0.121423	-0.000598	-0.001948	-0.007285	-0.792725	-0.192139	0.494141	-0.122802	-0.708187	0.070962	-0.691633
48253		9.780787	0.670373	-0.152924	0.006414	-0.002890	-0.009338	-0.790283	-0.187744	0.498047	-0.122844	-0.708147	0.070900	-0.691672
48254		9.762655	0.703714	-0.146326	0.016822	-0.006529	-0.011593	-0.795410	-0.195557	0.499023	-0.122699	-0.708225	0.070725	-0.691636
48255		9.771489	0.731322	-0.161839	0.016782	-0.006423	-0.016187	-0.792969	-0.193359	0.502441	-0.122728	-0.708276	0.070485	-0.691603
48256		9.785951	0.709540	-0.150333	0.007690	-0.004464	-0.016219	-0.788086	-0.190918	0.501953	-0.122776	-0.708354	0.070310	-0.691532
48257		9.781784	0.720231	-0.162720	0.006117	-0.003009	-0.015389	-0.794189	-0.195801	0.497803	-0.122803	-0.708443	0.070161	-0.691452
48258		9.789911	0.725122	-0.148940	0.006116	-0.003012	-0.015388	-0.796387	-0.188477	0.497070	-0.122930	-0.708435	0.070021	-0.691451
48259		9.778027	0.740795	-0.163756	0.006262	-0.003989	-0.012733	-0.793945	-0.197754	0.506348	-0.122887	-0.708411	0.069934	-0.691492
48260		9.764833	0.726552	-0.162538	0.004073	-0.004166	-0.013622	-0.794922	-0.196289	0.500244	-0.122987	-0.708511	0.069783	-0.691387
48261		9.782023	0.755410	-0.162588	0.002066	-0.003637	-0.014380	-0.789307	-0.187256	0.502686	-0.123119	-0.708523	0.069677	-0.691362
48262		9.777202	0.750914	-0.166879	-0.001928	-0.004693	-0.014341	-0.796143	-0.187256	0.497559	-0.123119	-0.708607	0.069625	-0.691282
48263		9.780803	0.747673	-0.156360	-0.004426	-0.002594	-0.014974	-0.789062	-0.189941	0.503662	-0.123161	-0.708560	0.069614	-0.691323
48264		9.787599	0.739153	-0.166809	-0.004946	-0.004768	-0.013067	-0.794922	-0.196777	0.498535	-0.123214	-0.708649	0.069583	-0.691226
48265		9.775106	0.731669	-0.152848	-0.006979	-0.000063	-0.014636	-0.792725	-0.189941	0.513184	-0.123440	-0.708594	0.069555	-0.691244
48266		9.781935	0.723021	-0.162667	-0.007190	-0.002452	-0.012242	-0.791016	-0.193115	0.501709	-0.123425	-0.708739	0.069512	-0.691103
48267		9.790125	0.727242	-0.148541	-0.005799	-0.002553	-0.012459	-0.790771	-0.188965	0.509766	-0.123536	-0.708765	0.069495	-0.691058
48268		9.776352	0.706011	-0.159030	-0.003716	-0.003568	-0.010374	-0.783691	-0.197754	0.496826	-0.123483	-0.708892	0.069461	-0.690941
48269		9.780066	0.701715	-0.148416	0.004937	-0.002313	-0.010447	-0.792236	-0.193115	0.504395	-0.123610	-0.708921	0.069367	-0.690898
48270		9.788850	0.728460	-0.162404	0.009776	0.000654	-0.009608	-0.784180	-0.189697	0.504150	-0.123534	-0.708957	0.069230	-0.690888
48271		9.780327	0.721152	-0.156998	0.014333	-0.000344	-0.008445	-0.795898	-0.195801	0.499512	-0.123375	-0.709057	0.069072	-0.690830
48272		9.771810	0.713744	-0.151963	0.020025	-0.001664	-0.008956	-0.792480	-0.200195	0.501221	-0.123273	-0.709047	0.068872	-0.690878
48273		9.772766	0.746215	-0.169488	0.018722	-0.006522	-0.014457	-0.786865	-0.193848	0.499512	-0.123293	-0.709123	0.068610	-0.690823
48274		9.768625	0.748266	-0.162405	0.016349	-0.005350	-0.014732	-0.786865	-0.189453	0.506348	-0.123264	-0.709200	0.068396	-0.690770
48275		9.782552	0.727766	-0.182875	0.014282	-0.002326	-0.013779	-0.799805	-0.196533	0.510986	-0.123133	-0.709317	0.068192	-0.690694
48276		9.779713	0.750690	-0.170698	0.014971	-0.001174	-0.010736	-0.789307	-0.186523	0.501465	-0.123021	-0.709385	0.067972	-0.690665
48277		9.787715	0.825262	-0.156114	0.010464	-0.002340	-0.008046	-0.794678	-0.197021	0.503418	-0.122865	-0.709419	0.067895	-0.690666
48278		9.785643	0.799300	-0.173028	-0.005882	-0.003824	-0.008957	-0.800293	-0.194092	0.504150	-0.122994	-0.709427	0.067898	-0.690635
48279		9.770155	0.741545	-0.179036	-0.010778	-0.000508	-0.012164	-0.794678	-0.188477	0.500488	-0.123132	-0.709374	0.067929	-0.690661
48280		9.769380	0.729453	-0.171503	-0.007578	-0.005581	-0.009967	-0.794189	-0.187744	0.498047	-0.123173	-0.709367	0.067997	-0.690654
48281		9.768630	0.717038	-0.164394	0.006087	-0.002703	-0.009821	-0.791504	-0.188477	0.506104	-0.123098	-0.709335	0.067958	-0.690704
48282		9.787815	0.710399	-0.169027	0.009331	-0.002361	-0.011935	-0.784180	-0.190918	0.509521	-0.122977	-0.709405	0.067822	-0.690668
48283		9.769368	0.744349	-0.161807	0.007296	-0.001794	-0.014988	-0.790771	-0.196777	0.508545	-0.122929	-0.709544	0.067636	-0.690551
48284		9.787814	0.732242	-0.178534	0.008019	-0.003098	-0.015951	-0.793213	-0.197266	0.498047	-0.122957	-0.709644	0.067428	-0.690464
48285		9.774732	0.718306	-0.177058	0.011852	-0.002788	-0.013825	-0.791504	-0.194336	0.509277	-0.123005	-0.709625	0.067266	-0.690491
48286		9.762347	0.710441	-0.163617	0.018597	-0.003594	-0.011776	-0.788818	-0.191162	0.497803	-0.122862	-0.709741	0.067019	-0.690421
48287		9.774914	0.730649	-0.167451	0.018317	-0.005495	-0.010705	-0.796387	-0.192383	0.504395	-0.122753	-0.709772	0.066859	-0.690424
48288		9.774529	0.741933	-0.188734	0.019739	-0.000190	-0.015237	-0.790039	-0.198486	0.507080	-0.122635	-0.709783	0.066609	-0.690458
48289		9.763401	0.747939	-0.150814	0.016067	-0.003540	-0.015443	-0.796631	-0.190430	0.497314	-0.122625	-0.709879	0.066343	-0.690387
48290		9.779013	0.764330	-0.175651	0.013088	-0.006085	-0.018168	-0.795898	-0.193359	0.508057	-0.122608	-0.709861	0.066181	-0.690424
48291		9.778501	0.776714	-0.197593	0.008686	-0.006063	-0.016675	-0.790771	-0.191406	0.503662	-0.122588	-0.709940	0.066001	-0.690363
48292		9.781693	0.758515	-0.179705	0.002463	-0.006517	-0.010988	-0.794189	-0.192871	0.501465	-0.122586	-0.709995	0.065950	-0.690312
48293		9.764092	0.743706	-0.202079	-0.002512	-0.004442	-0.010701	-0.792480	-0.191162	0.499268	-0.122654	-0.709983	0.065952	-0.690312
48294		9.783278	0.737309	-0.207193	0.004798	-0.005583	-0.012270	-0.786621	-0.182617	0.504639	-0.122662	-0.709984	0.065895	-0.690315
48295		9.774747	0.730752	-0.203094	0.008737	-0.006145	-0.012083	-0.791260	-0.191650	0.501221	-0.122496	-0.710077	0.065798	-0.690258
48296		9.783918	0.764080	-0.206303	0.008837	-0.004593	-0.007723	-0.794678	-0.196289	0.503662	-0.122430	-0.710093	0.065732	-0.690259
48297		9.784832	0.787440	-0.204330	0.005490	-0.010226	-0.008174	-0.790527	-0.197998	0.498535	-0.122432	-0.710156	0.065676	-0.690199
48298		9.784148	0.774982	-0.198038	0.000263	-0.004647	-0.011134	-0.794922	-0.194824	0.504639	-0.122575	-0.710140	0.065647	-0.690193
48299		9.763227	0.773200	-0.219084	0.002027	-0.001293	-0.008066	-0.793457	-0.198242	0.505859	-0.122587	-0.710127	0.065609	-0.690208
48300		9.778677	0.764701	-0.214519	0.003468	-0.001833	-0.009252	-0.788574	-0.200195	0.505371	-0.122634	-0.710141	0.065531	-0.690193
48301		9.767555	0.808585	-0.245300	0.009512	-0.001723	-0.009509	-0.788574	-0.191406	0.497314	-0.122665	-0.710185	0.065390	-0.690156
48302		9.768633	0.824185	-0.221659	0.010228	-0.000959	-0.009734	-0.795898	-0.189209	0.499023	-0.122626	-0.710152	0.065304	-0.690204
48303		9.776043	0.829316	-0.239900	0.003466	-0.001837	-0.009251	-0.789795	-0.196777	0.506348	-0.122590	-0.710094	0.065285	-0.690272
48304		9.768238	0.828654	-0.222389	-0.004465	-0.000280	-0.008654	-0.789551	-0.189941	0.496094	-0.122688	-0.710107	0.065277	-0.690243
48305		9.783685	0.820407	-0.217105	-0.004505	0.001825	-0.010215	-0.790039	-0.195557	0.500000	-0.122769	-0.710016	0.065314	-0.690318
48306		9.774409	0.783588	-0.194317	-0.001478	0.003934	-0.008461	-0.787842	-0.199707	0.508545	-0.122859	-0.709943	0.065308	-0.690378
48307		9.770215	0.792693	-0.205037	0.001052	0.001437	-0.011087	-0.793457	-0.183594	0.503662	-0.122955	-0.709983	0.065210	-0.690329
48308		9.786513	0.814175	-0.215916	-0.000442	0.002418	-0.008934	-0.791992	-0.194580	0.511719	-0.122847	-0.709941	0.065200	-0.690392
48309		9.777526	0.799579	-0.221687	-0.003161	0.002541	-0.003907	-0.791504	-0.198730	0.516113	-0.122823	-0.709965	0.065197	-0.690372
48310		9.788721	0.781416	-0.218953	-0.000954	0.004772	0.000008	-0.790283	-0.202393	0.506836	-0.122775	-0.710009	0.065176	-0.690338
48311		9.782388	0.823034	-0.224218	-0.001048	0.007319	-0.000585	-0.790771	-0.200684	0.506104	-0.122834	-0.709959	0.065180	-0.690378
48312		9.765292	0.797597	-0.223438	0.000353	0.005152	-0.001538	-0.795898	-0.198975	0.502930	-0.122869	-0.709923	0.065175	-0.690409
48313		9.770519	0.804768	-0.186888	-0.001823	0.002887	-0.003158	-0.789307	-0.186035	0.500000	-0.122922	-0.709856	0.065203	-0.690466
48314		9.766656	0.804165	-0.177098	-0.000393	0.004419	-0.003608	-0.791260	-0.193604	0.507324	-0.122841	-0.709788	0.065249	-0.690545
48315		9.774022	0.784742	-0.165491	0.006895	0.003696	-0.001913	-0.791504	-0.193848	0.505371	-0.122728	-0.709788	0.065198	-0.690571
48316		9.780614	0.766451	-0.185834	0.013631	0.008719	-0.000922	-0.791016	-0.189209	0.505615	-0.122567	-0.709737	0.065098	-0.690662
48317		9.781064	0.781300	-0.192307	0.018730	0.007799	-0.000111	-0.791992	-0.190918	0.502441	-0.122301	-0.709706	0.064971	-0.690752
48318		9.779782	0.837420	-0.182224	0.014021	0.008029	0.000893	-0.789062	-0.203125	0.497314	-0.122109	-0.709637	0.064904	-0.690864
48319		9.772054	0.841933	-0.183230	0.009612	0.006390	0.004913	-0.790039	-0.191162	0.509766	-0.122095	-0.709547	0.064902	-0.690959
48320		9.760714	0.836468	-0.155596	0.001300	0.002828	0.004747	-0.791016	-0.190918	0.500488	-0.121950	-0.709570	0.064947	-0.690956
48321		9.773851	0.806304	-0.218271	-0.004650	0.003900	0.003798	-0.793457	-0.195068	0.507080	-0.121914	-0.709499	0.065075	-0.691024
48322		9.769410	0.766642	-0.171302	-0.007861	0.006880	0.000854	-0.794434	-0.191406	0.503906	-0.121945	-0.709440	0.065163	-0.691070
48323		9.779456	0.734440	-0.191954	-0.005487	0.005711	0.001134	-0.788086	-0.183594	0.500977	-0.121925	-0.709368	0.065259	-0.691139
48324		9.800007	0.746426	-0.190615	-0.005218	0.003874	0.001855	-0.791016	-0.186523	0.506836	-0.121831	-0.709321	0.065381	-0.691192
48325		9.776636	0.761463	-0.197197	-0.016295	0.002542	0.005148	-0.791504	-0.193604	0.505859	-0.121806	-0.709297	0.065600	-0.691200
48326		9.791498	0.720210	-0.174464	-0.024134	0.005276	0.004535	-0.794189	-0.194580	0.501221	-0.121941	-0.709230	0.065866	-0.691220
48327		9.769613	0.670551	-0.168690	-0.020737	0.004659	0.005078	-0.781006	-0.201904	0.497803	-0.122071	-0.709127	0.066132	-0.691277
48328		9.772944	0.664355	-0.187688	-0.005742	0.009578	0.003450	-0.795410	-0.195312	0.504150	-0.122199	-0.709042	0.066229	-0.691332
48329		9.773641	0.670109	-0.173597	0.008142	0.006956	0.003814	-0.790771	-0.196045	0.499512	-0.122074	-0.708986	0.066219	-0.691413
48330		9.779222	0.698573	-0.164931	0.012567	0.006898	0.004621	-0.788818	-0.192871	0.504150	-0.121941	-0.708923	0.066190	-0.691504
48331		9.784926	0.719104	-0.136379	0.010447	0.004194	0.002031	-0.791504	-0.195557	0.493896	-0.121797	-0.708927	0.066145	-0.691529
48332		9.773776	0.737371	-0.137294	0.008976	0.004766	0.000919	-0.793945	-0.191650	0.506104	-0.121752	-0.708838	0.066143	-0.691629
48333		9.769220	0.737482	-0.159736	0.011905	0.005314	-0.001680	-0.790283	-0.191895	0.503174	-0.121603	-0.708831	0.066052	-0.691671
48334		9.786470	0.755381	-0.137799	0.015667	0.004048	-0.001615	-0.797119	-0.190186	0.503906	-0.121443	-0.708835	0.065937	-0.691706
48335		9.786931	0.770260	-0.145344	0.006207	0.002888	0.000616	-0.793213	-0.197021	0.498779	-0.121319	-0.708808	0.065934	-0.691755
48336		9.761412	0.743189	-0.160164	-0.002508	0.002087	-0.000642	-0.790039	-0.186523	0.507080	-0.121384	-0.708758	0.065998	-0.691790
48337		9.777596	0.739743	-0.142485	-0.004949	0.001662	-0.002986	-0.788574	-0.191650	0.502441	-0.121348	-0.708782	0.066047	-0.691766
48338		9.785832	0.749815	-0.147465	-0.002952	0.003214	-0.001490	-0.794678	-0.188965	0.506836	-0.121359	-0.708768	0.066096	-0.691774
48339		9.761467	0.736390	-0.138210	-0.005275	0.000211	-0.000946	-0.791016	-0.187500	0.501709	-0.121329	-0.708782	0.066170	-0.691758
48340		9.792595	0.723239	-0.148119	-0.009958	0.000410	0.002348	-0.783936	-0.196289	0.503174	-0.121325	-0.708763	0.066331	-0.691763
48341		9.782729	0.685173	-0.158158	-0.009729	0.000676	0.001508	-0.788086	-0.197266	0.499756	-0.121417	-0.708783	0.066451	-0.691714
48342		9.786733	0.678014	-0.146489	-0.000649	0.000827	0.002287	-0.791016	-0.189941	0.496582	-0.121442	-0.708774	0.066516	-0.691713
48343		9.764371	0.715069	-0.150059	0.003805	0.000362	-0.000167	-0.791260	-0.192383	0.492432	-0.121385	-0.708743	0.066552	-0.691751
48344		9.775891	0.719324	-0.177079	0.005962	-0.003141	0.000219	-0.786865	-0.186035	0.498291	-0.121346	-0.708717	0.066588	-0.691782
48345		9.788249	0.714005	-0.151471	-0.000310	0.000210	-0.000488	-0.792725	-0.196045	0.498535	-0.121287	-0.708712	0.066650	-0.691791
48346		9.779385	0.697956	-0.157743	-0.000984	0.001071	-0.000497	-0.788818	-0.196777	0.500488	-0.121332	-0.708675	0.066709	-0.691815
48347		9.802677	0.690410	-0.170334	0.004709	-0.000233	-0.000998	-0.795166	-0.191406	0.498047	-0.121335	-0.708689	0.066707	-0.691800
48348		9.762692	0.687397	-0.166842	0.014328	-0.000027	-0.000571	-0.792969	-0.191895	0.502197	-0.121194	-0.708673	0.066645	-0.691847
48349		9.799276	0.703930	-0.170111	0.013248	-0.000141	0.000133	-0.787842	-0.189941	0.503906	-0.121051	-0.708693	0.066584	-0.691858
48350		9.780264	0.728009	-0.174516	0.005290	0.001448	-0.001583	-0.787109	-0.189453	0.500977	-0.120979	-0.708720	0.066567	-0.691844
48351		9.771516	0.703960	-0.160726	0.004843	-0.001153	-0.000637	-0.791504	-0.183105	0.502441	-0.120909	-0.708751	0.066575	-0.691824
48352		9.795966	0.709928	-0.149313	0.012413	0.001669	-0.002532	-0.793213	-0.190430	0.501953	-0.120715	-0.708763	0.066501	-0.691853
48353		9.763503	0.718461	-0.183186	0.012373	0.003769	-0.004093	-0.786133	-0.189697	0.503174	-0.120614	-0.708747	0.066407	-0.691896
48354		9.784533	0.738374	-0.170566	0.006113	0.001324	-0.003741	-0.789551	-0.180420	0.499512	-0.120563	-0.708779	0.066366	-0.691876
48355		9.784598	0.731121	-0.150217	-0.004625	-0.000618	-0.003233	-0.795898	-0.192383	0.494873	-0.120517	-0.708773	0.066444	-0.691882
48356		9.786889	0.697106	-0.154631	-0.008388	0.000647	-0.003300	-0.786621	-0.194580	0.501221	-0.120638	-0.708696	0.066565	-0.691929
48357		9.778000	0.681544	-0.160835	0.000460	0.000531	-0.001680	-0.791260	-0.187988	0.497803	-0.120676	-0.708710	0.066596	-0.691905
48358		9.770150	0.687393	-0.163262	0.007272	0.000963	-0.003116	-0.785645	-0.186523	0.500488	-0.120604	-0.708692	0.066572	-0.691938
48359		9.790617	0.700190	-0.163199	0.009361	-0.000028	-0.001026	-0.793213	-0.186279	0.500732	-0.120479	-0.708724	0.066538	-0.691931
48360		9.787207	0.713859	-0.162434	0.006853	0.002057	-0.001670	-0.794678	-0.184814	0.502686	-0.120373	-0.708706	0.066522	-0.691969
48361		9.791480	0.730346	-0.179451	0.003143	-0.000847	-0.000909	-0.792480	-0.186279	0.507324	-0.120268	-0.708714	0.066544	-0.691977
48362		9.779334	0.719915	-0.165131	0.000878	-0.000566	-0.003126	-0.791260	-0.190918	0.495850	-0.120205	-0.708756	0.066550	-0.691945
48363		9.779420	0.712405	-0.144867	0.000460	0.000530	-0.001680	-0.798340	-0.192871	0.493896	-0.120228	-0.708717	0.066605	-0.691975
48364		9.767613	0.724696	-0.158651	0.000945	0.001029	-0.001065	-0.790039	-0.188721	0.506104	-0.120259	-0.708637	0.066670	-0.692046
48365		9.774397	0.697998	-0.159849	-0.001079	-0.000112	0.000703	-0.793701	-0.188721	0.500488	-0.120216	-0.708670	0.066729	-0.692013
48366		9.782235	0.692396	-0.157258	-0.001674	0.000276	0.002022	-0.794189	-0.196289	0.499512	-0.120183	-0.708649	0.066823	-0.692031
48367		9.778183	0.706626	-0.188515	-0.000972	0.003109	0.002530	-0.786865	-0.196533	0.502930	-0.120223	-0.708597	0.066916	-0.692069
48368		9.789446	0.687335	-0.185998	0.005205	0.002301	0.002647	-0.798584	-0.190918	0.503662	-0.120208	-0.708609	0.066946	-0.692056
48369		9.774458	0.703847	-0.178633	0.007753	0.001840	0.003058	-0.790527	-0.187744	0.502930	-0.120092	-0.708590	0.066961	-0.692094
48370		9.787129	0.728242	-0.200900	0.009233	0.003306	0.007200	-0.793457	-0.187744	0.503662	-0.119913	-0.708584	0.066997	-0.692128
48371		9.775106	0.716201	-0.185990	0.002129	0.000635	0.001856	-0.791016	-0.182373	0.502441	-0.119838	-0.708588	0.067051	-0.692132
48372		9.773488	0.688191	-0.201539	-0.003382	0.002271	-0.003078	-0.795654	-0.189941	0.505615	-0.119812	-0.708576	0.067107	-0.692143
48373		9.784776	0.662058	-0.178700	0.000676	0.002864	-0.001788	-0.798340	-0.182373	0.503418	-0.119798	-0.708565	0.067135	-0.692154
48374		9.785361	0.668790	-0.166006	0.009777	0.002979	0.001291	-0.796143	-0.184570	0.502197	-0.119609	-0.708543	0.067118	-0.692211
48375		9.786763	0.712926	-0.190033	0.005044	0.003247	-0.000009	-0.799072	-0.192627	0.499756	-0.119503	-0.708513	0.067131	-0.692258
48376		9.787353	0.719644	-0.177076	-0.010437	0.003647	-0.000072	-0.792969	-0.183105	0.497070	-0.119617	-0.708432	0.067283	-0.692307
48377		9.786561	0.682041	-0.139093	-0.014740	0.004857	0.000210	-0.790039	-0.184814	0.501221	-0.119692	-0.708342	0.067476	-0.692367
48378		9.768352	0.642515	-0.162750	-0.004656	0.003900	0.003788	-0.787842	-0.184082	0.505371	-0.119652	-0.708309	0.067604	-0.692396
48379		9.784039	0.631135	-0.156668	0.003315	0.003966	0.002981	-0.791504	-0.190430	0.501953	-0.119533	-0.708320	0.067645	-0.692401
48380		9.785694	0.658771	-0.139849	0.003600	0.003788	0.001174	-0.795410	-0.184570	0.502686	-0.119495	-0.708301	0.067679	-0.692423
48381		9.782804	0.686676	-0.146581	0.001726	0.003387	0.000773	-0.794189	-0.188232	0.498047	-0.119417	-0.708275	0.067727	-0.692459
48382		9.797770	0.677409	-0.173062	0.005045	0.003247	-0.000007	-0.790283	-0.185547	0.506592	-0.119366	-0.708233	0.067748	-0.692508
48383		9.765578	0.669493	-0.166226	0.008084	0.002903	-0.004537	-0.797363	-0.187012	0.501221	-0.119284	-0.708266	0.067685	-0.692495
48384		9.774919	0.693484	-0.147093	0.008799	0.003666	-0.004761	-0.790527	-0.186768	0.501953	-0.119219	-0.708238	0.067627	-0.692541
48385		9.766031	0.678123	-0.152816	-0.001197	0.002461	-0.002189	-0.794922	-0.184814	0.500244	-0.119225	-0.708231	0.067675	-0.692542
48386		9.781069	0.661288	-0.158980	-0.005730	0.003408	-0.001070	-0.799316	-0.188721	0.500000	-0.119244	-0.708184	0.067777	-0.692577
48387		9.783864	0.641925	-0.170946	-0.003635	0.002035	-0.004535	-0.794189	-0.188965	0.496582	-0.119304	-0.708140	0.067833	-0.692606
48388		9.781064	0.655043	-0.137222	-0.002745	0.003506	-0.004632	-0.792969	-0.183594	0.506104	-0.119375	-0.708083	0.067885	-0.692647
48389		9.775470	0.634722	-0.163526	-0.004269	0.004521	-0.004780	-0.789307	-0.189941	0.496338	-0.119389	-0.708073	0.067929	-0.692650
48390		9.770991	0.627864	-0.165755	-0.003230	0.003007	-0.005248	-0.792725	-0.188232	0.508057	-0.119483	-0.708037	0.067979	-0.692666
48391		9.783155	0.631773	-0.159379	0.001637	0.001823	-0.003583	-0.791016	-0.185059	0.497314	-0.119468	-0.708070	0.067986	-0.692634
48392		9.784191	0.646399	-0.134543	0.007560	0.004504	-0.006712	-0.795166	-0.188965	0.496582	-0.119431	-0.708039	0.067927	-0.692678
48393		9.772252	0.667981	-0.167601	0.004281	0.006267	-0.006169	-0.785889	-0.184570	0.499512	-0.119452	-0.707969	0.067901	-0.692748
48394		9.787797	0.658946	-0.161088	-0.004349	0.004990	-0.006110	-0.790039	-0.179688	0.502441	-0.119514	-0.707945	0.067947	-0.692758
48395		9.791116	0.647153	-0.160507	-0.008637	0.004129	-0.006564	-0.794922	-0.184570	0.500977	-0.119560	-0.707926	0.068021	-0.692762
48396		9.793984	0.620549	-0.151867	-0.006629	0.003614	-0.005799	-0.790771	-0.178711	0.500488	-0.119621	-0.707890	0.068090	-0.692782
48397		9.782264	0.625368	-0.144382	-0.002200	0.005596	-0.001955	-0.791016	-0.191650	0.507324	-0.119566	-0.707851	0.068151	-0.692825
48398		9.785587	0.620510	-0.163786	-0.000152	0.006706	-0.001425	-0.792969	-0.182861	0.497559	-0.119583	-0.707842	0.068187	-0.692828
48399		9.782715	0.640918	-0.149587	0.002762	0.005596	-0.001489	-0.785889	-0.198242	0.501221	-0.119523	-0.707789	0.068217	-0.692889
48400		9.795445	0.651068	-0.130205	0.002238	0.007194	-0.003668	-0.795410	-0.179443	0.500488	-0.119618	-0.707765	0.068222	-0.692897
48401		9.783203	0.648964	-0.134476	0.000579	0.005401	-0.002381	-0.794678	-0.183105	0.500732	-0.119546	-0.707720	0.068261	-0.692951
48402		9.767086	0.645532	-0.129989	-0.000659	0.006235	-0.004336	-0.798096	-0.187744	0.495605	-0.119535	-0.707672	0.068290	-0.692999
48403		9.772905	0.683422	-0.109193	-0.001380	0.007153	-0.008937	-0.787598	-0.179688	0.497314	-0.119618	-0.707582	0.068292	-0.693077
48404		9.783938	0.674998	-0.125981	0.002693	0.005683	-0.008373	-0.795654	-0.183594	0.497559	-0.119597	-0.707554	0.068259	-0.693112
48405		9.786714	0.657076	-0.137107	-0.002231	0.007303	-0.009075	-0.787598	-0.188721	0.497314	-0.119651	-0.707482	0.068263	-0.693176
48406		9.785636	0.637652	-0.139167	-0.008195	0.006714	-0.007515	-0.794678	-0.177979	0.494385	-0.119796	-0.707429	0.068332	-0.693198
48407		9.781672	0.637903	-0.128812	-0.003502	0.004829	-0.005972	-0.798340	-0.182373	0.493164	-0.119790	-0.707362	0.068380	-0.693262
48408		9.790892	0.662068	-0.108920	0.003990	0.006444	-0.004354	-0.789795	-0.191650	0.500244	-0.119742	-0.707275	0.068379	-0.693360
48409		9.774180	0.660428	-0.136585	0.000822	0.007315	-0.005748	-0.793701	-0.186768	0.493652	-0.119806	-0.707240	0.068383	-0.693384
48410		9.790655	0.673342	-0.125896	-0.002349	0.006147	-0.010169	-0.788574	-0.193359	0.490967	-0.119905	-0.707169	0.068386	-0.693439
48411		9.794421	0.669433	-0.112929	-0.006174	0.005809	-0.012307	-0.794678	-0.183838	0.502686	-0.120123	-0.707100	0.068411	-0.693469
48412		9.797667	0.659167	-0.112177	-0.003568	0.004909	-0.012857	-0.789551	-0.189941	0.485596	-0.120203	-0.707086	0.068388	-0.693472
48413		9.789212	0.652775	-0.105371	-0.000480	0.004510	-0.012791	-0.793213	-0.191406	0.500488	-0.120351	-0.707009	0.068367	-0.693527
48414		9.779807	0.632618	-0.122762	0.000874	0.004830	-0.009741	-0.792480	-0.189697	0.492432	-0.120433	-0.706993	0.068343	-0.693531
48415		9.784548	0.649419	-0.106275	0.006880	0.005367	-0.006707	-0.796631	-0.187256	0.497559	-0.120439	-0.706942	0.068301	-0.693587
48416		9.785306	0.680692	-0.121487	0.007959	0.005479	-0.007407	-0.795410	-0.187744	0.492188	-0.120404	-0.706906	0.068236	-0.693636
48417		9.785692	0.688933	-0.108420	0.005222	0.003573	-0.005423	-0.787354	-0.184570	0.500488	-0.120392	-0.706858	0.068221	-0.693689
48418		9.789984	0.698194	-0.104530	0.003738	0.002488	-0.004012	-0.790527	-0.191650	0.501221	-0.120345	-0.706882	0.068221	-0.693672
48419		9.777265	0.682051	-0.101904	-0.007380	-0.000837	-0.008379	-0.790039	-0.186523	0.497559	-0.120489	-0.706915	0.068291	-0.693606
48420		9.760111	0.658940	-0.102480	-0.008915	0.001847	-0.013353	-0.796143	-0.187744	0.500977	-0.120653	-0.706910	0.068326	-0.693579
48421		9.775120	0.637185	-0.088539	0.000677	0.002102	-0.015190	-0.795898	-0.181885	0.500000	-0.120743	-0.706918	0.068258	-0.693562
48422		9.800045	0.683870	-0.113252	0.004717	0.001059	-0.011361	-0.797852	-0.190430	0.497314	-0.120714	-0.706934	0.068186	-0.693558
48423		9.791170	0.670043	-0.119561	-0.003407	0.000234	-0.008407	-0.796875	-0.182373	0.496094	-0.120805	-0.706923	0.068222	-0.693551
48424		9.795463	0.671891	-0.095730	-0.008003	0.001609	-0.006329	-0.794678	-0.186768	0.500000	-0.120855	-0.706888	0.068308	-0.693568
48425		9.779313	0.668828	-0.092171	0.003735	0.002490	-0.004011	-0.798584	-0.192383	0.494873	-0.120813	-0.706888	0.068312	-0.693576
48426		9.756629	0.706819	-0.095622	0.013659	0.002520	-0.003064	-0.795654	-0.194092	0.489746	-0.120728	-0.706864	0.068248	-0.693621
48427		9.776526	0.713356	-0.107516	0.011408	-0.000928	-0.003491	-0.792236	-0.188477	0.489258	-0.120692	-0.706852	0.068212	-0.693643
48428		9.775969	0.707918	-0.119840	0.002175	-0.000168	-0.006955	-0.797607	-0.191406	0.496094	-0.120727	-0.706830	0.068220	-0.693658
48429		9.788496	0.719126	-0.101888	0.002829	0.001040	-0.006211	-0.801758	-0.191406	0.489746	-0.120757	-0.706815	0.068223	-0.693668
48430		9.779165	0.705784	-0.140782	0.007814	-0.001012	-0.006470	-0.801270	-0.192627	0.498535	-0.120748	-0.706785	0.068189	-0.693704
48431		9.791275	0.702467	-0.114994	0.009353	-0.000374	-0.008847	-0.801025	-0.185059	0.503906	-0.120743	-0.706796	0.068115	-0.693701
48432		9.779006	0.693636	-0.100851	0.004530	-0.001305	-0.008959	-0.787354	-0.191895	0.500488	-0.120710	-0.706834	0.068070	-0.693672
48433		9.775276	0.717248	-0.120895	0.003679	-0.001156	-0.009098	-0.796143	-0.192871	0.494141	-0.120764	-0.706892	0.068045	-0.693607
48434		9.778618	0.705994	-0.121918	0.004299	-0.001569	-0.008120	-0.796631	-0.190674	0.503418	-0.120811	-0.706898	0.068026	-0.693594
48435		9.774231	0.691432	-0.105479	0.002898	-0.003122	-0.005380	-0.786621	-0.188965	0.494141	-0.120811	-0.706954	0.068039	-0.693535
48436		9.797599	0.684908	-0.118457	0.000886	-0.000572	-0.003121	-0.797852	-0.185059	0.484619	-0.120824	-0.706968	0.068090	-0.693514
48437		9.785377	0.682563	-0.124500	-0.002835	-0.001414	-0.001638	-0.795898	-0.188232	0.501221	-0.120824	-0.706908	0.068184	-0.693566
48438		9.768906	0.663834	-0.113968	-0.004772	-0.005068	-0.001575	-0.789307	-0.191406	0.503418	-0.120843	-0.706959	0.068299	-0.693500
48439		9.785377	0.675422	-0.105719	-0.002777	-0.001859	-0.002604	-0.801025	-0.184082	0.494385	-0.120887	-0.707012	0.068389	-0.693429
48440		9.780988	0.668006	-0.109193	0.000035	-0.000423	-0.003261	-0.795166	-0.192139	0.498047	-0.120851	-0.706985	0.068437	-0.693458
48441		9.797271	0.696024	-0.141043	0.000542	-0.001989	-0.003376	-0.792236	-0.185059	0.492432	-0.120879	-0.707004	0.068493	-0.693428
48442		9.792124	0.659304	-0.128323	-0.004901	-0.002510	-0.004465	-0.793213	-0.187500	0.501221	-0.120918	-0.707004	0.068580	-0.693413
48443		9.787352	0.637336	-0.123909	-0.004820	-0.002979	-0.003137	-0.792725	-0.186279	0.496826	-0.120950	-0.707043	0.068680	-0.693357
48444		9.775124	0.635032	-0.130315	0.003034	-0.001990	-0.001993	-0.791748	-0.189697	0.503906	-0.120901	-0.707066	0.068721	-0.693338
48445		9.779307	0.652005	-0.147915	0.011463	-0.001368	-0.004460	-0.793213	-0.185303	0.497314	-0.120819	-0.707132	0.068669	-0.693291
48446		9.767984	0.663284	-0.129816	0.010839	0.001088	-0.002412	-0.791504	-0.193115	0.491699	-0.120700	-0.707140	0.068633	-0.693307
48447		9.780021	0.674992	-0.144219	0.009197	0.000939	-0.003656	-0.797363	-0.194092	0.500732	-0.120680	-0.707127	0.068615	-0.693325
48448		9.767897	0.664559	-0.129785	0.006098	-0.000314	-0.001194	-0.787354	-0.183838	0.496826	-0.120654	-0.707142	0.068645	-0.693311
48449		9.779953	0.675901	-0.144570	0.012506	-0.000835	-0.001899	-0.795410	-0.196777	0.508057	-0.120514	-0.707182	0.068604	-0.693299
48450		9.780904	0.682006	-0.100618	0.014721	-0.001058	-0.004264	-0.796875	-0.185059	0.498291	-0.120456	-0.707255	0.068537	-0.693241
48451		9.797148	0.710120	-0.132484	0.011434	0.000692	-0.003728	-0.794434	-0.190186	0.505859	-0.120342	-0.707262	0.068487	-0.693259
48452		9.781501	0.713110	-0.117468	0.005786	-0.000111	-0.001683	-0.792725	-0.190430	0.500732	-0.120296	-0.707304	0.068512	-0.693222
48453		9.781454	0.713792	-0.117200	-0.003162	0.002501	-0.003926	-0.797852	-0.186768	0.500977	-0.120361	-0.707293	0.068592	-0.693214
48454		9.787982	0.681326	-0.130077	-0.007165	-0.000203	-0.003661	-0.786621	-0.191895	0.497314	-0.120422	-0.707288	0.068707	-0.693197
48455		9.780616	0.686178	-0.100284	-0.009036	-0.000614	-0.004066	-0.795654	-0.188721	0.499512	-0.120557	-0.707297	0.068844	-0.693151
48456		9.782816	0.645664	-0.116725	-0.009886	-0.000466	-0.004205	-0.793945	-0.182861	0.500244	-0.120664	-0.707289	0.068981	-0.693126
48457		9.783207	0.653266	-0.104752	-0.006716	-0.001324	-0.002809	-0.789551	-0.185059	0.495117	-0.120687	-0.707301	0.069099	-0.693099
48458		9.790090	0.635645	-0.126403	-0.001379	-0.000313	-0.005343	-0.796143	-0.187988	0.493164	-0.120710	-0.707303	0.069149	-0.693087
48459		9.773959	0.632461	-0.123566	0.003721	-0.001206	-0.004509	-0.796387	-0.181885	0.499023	-0.120697	-0.707295	0.069165	-0.693096
48460		9.786397	0.651358	-0.126460	0.005479	-0.001951	-0.005197	-0.798828	-0.187988	0.494873	-0.120623	-0.707321	0.069154	-0.693084
48461		9.774146	0.649426	-0.132760	0.002952	-0.001525	-0.003320	-0.796875	-0.184326	0.495117	-0.120603	-0.707313	0.069188	-0.693091
48462		9.790269	0.646217	-0.115869	0.003458	-0.001042	-0.000410	-0.794189	-0.189697	0.492188	-0.120528	-0.707306	0.069239	-0.693106
48463		9.765900	0.640511	-0.127673	0.004397	-0.000015	-0.001472	-0.796387	-0.184326	0.498779	-0.120503	-0.707287	0.069280	-0.693127
48464		9.782703	0.666810	-0.127314	0.007513	-0.002475	-0.002135	-0.793457	-0.186279	0.498535	-0.120405	-0.707317	0.069283	-0.693113
48465		9.786974	0.675562	-0.124813	0.007741	-0.002214	-0.002974	-0.788330	-0.189209	0.495117	-0.120333	-0.707351	0.069281	-0.693091
48466		9.786471	0.669488	-0.137491	0.004962	-0.002030	-0.002552	-0.799561	-0.188721	0.500244	-0.120314	-0.707377	0.069313	-0.693064
48467		9.786422	0.670171	-0.137649	0.004174	0.001363	-0.003163	-0.795898	-0.189697	0.506104	-0.120289	-0.707366	0.069337	-0.693078
48468		9.790573	0.687173	-0.154627	0.006782	0.000469	-0.003712	-0.797852	-0.184326	0.500000	-0.120252	-0.707400	0.069339	-0.693049
48469		9.775723	0.711424	-0.135937	0.008417	-0.001022	0.000063	-0.787842	-0.189209	0.499023	-0.120131	-0.707416	0.069353	-0.693052
48470		9.774459	0.683610	-0.152181	-0.004957	-0.002072	-0.003495	-0.791504	-0.187256	0.498535	-0.120207	-0.707445	0.069464	-0.692998
48471		9.773126	0.656867	-0.168266	-0.012035	-0.001108	-0.008356	-0.792480	-0.185547	0.508301	-0.120370	-0.707448	0.069587	-0.692955
48472		9.774773	0.579770	-0.148399	-0.006598	-0.004275	-0.007762	-0.790283	-0.190186	0.499023	-0.120454	-0.707523	0.069673	-0.692855
48473		9.797833	0.558551	-0.153367	0.013125	-0.001239	-0.000922	-0.790527	-0.184570	0.500244	-0.120349	-0.707562	0.069648	-0.692836
48474		9.821550	0.534716	-0.125275	0.015333	0.002640	0.002759	-0.795654	-0.178955	0.513428	-0.120157	-0.707572	0.069626	-0.692861
48475		9.810546	0.566791	-0.135148	0.027145	0.003073	0.006401	-0.782471	-0.194336	0.497314	-0.119778	-0.707632	0.069530	-0.692875
48476		9.789961	0.644105	-0.098439	0.031939	0.007708	0.004708	-0.784912	-0.180908	0.505127	-0.119512	-0.707628	0.069388	-0.692939
48477		9.758189	0.656733	-0.119516	0.023971	0.007608	0.005497	-0.794922	-0.186523	0.494141	-0.119212	-0.707637	0.069311	-0.692989
48478		9.770332	0.666606	-0.133626	0.016483	-0.001420	0.002902	-0.789062	-0.184570	0.495605	-0.119032	-0.707648	0.069288	-0.693011
48479		9.794824	0.664057	-0.102046	0.007137	0.000222	0.001367	-0.800781	-0.190674	0.505371	-0.118944	-0.707652	0.069331	-0.693018
48480		9.781862	0.639664	-0.111507	0.008590	0.001315	-0.002341	-0.790771	-0.190674	0.499756	-0.118901	-0.707661	0.069335	-0.693016
48481		9.782661	0.654613	-0.087189	0.005430	0.001752	-0.009291	-0.792725	-0.185059	0.500488	-0.118961	-0.707670	0.069305	-0.693000
48482		9.758897	0.672967	-0.094989	-0.007370	-0.001308	-0.013928	-0.792969	-0.181152	0.502441	-0.119131	-0.707688	0.069343	-0.692948
48483		9.772403	0.616385	-0.109417	-0.014198	-0.001739	-0.014805	-0.793457	-0.187500	0.501221	-0.119338	-0.707708	0.069430	-0.692883
48484		9.794891	0.590811	-0.125931	0.000673	-0.001684	-0.013385	-0.788086	-0.194580	0.492920	-0.119442	-0.707742	0.069406	-0.692833
48485		9.791556	0.614263	-0.114259	0.011352	-0.005024	-0.014116	-0.789062	-0.187500	0.506348	-0.119511	-0.707801	0.069293	-0.692772
48486		9.796822	0.653947	-0.096411	0.010414	-0.002357	-0.012564	-0.793945	-0.190186	0.498047	-0.119523	-0.707883	0.069202	-0.692695
48487		9.788896	0.685147	-0.128107	-0.003351	-0.000690	-0.014921	-0.791992	-0.177979	0.498535	-0.119693	-0.707888	0.069199	-0.692661
48488		9.767844	0.669744	-0.140891	-0.012529	-0.005738	-0.017303	-0.780762	-0.191162	0.496094	-0.119878	-0.707932	0.069248	-0.692579
48489		9.774925	0.662827	-0.151472	-0.015074	-0.005723	-0.023272	-0.797852	-0.185791	0.502686	-0.120237	-0.707993	0.069286	-0.692451
48490		9.793155	0.623524	-0.151059	-0.012585	-0.000395	-0.023932	-0.794189	-0.180176	0.496582	-0.120523	-0.707997	0.069278	-0.692398
48491		9.780199	0.619487	-0.168872	-0.006468	-0.000724	-0.022831	-0.794189	-0.186768	0.501953	-0.120709	-0.707998	0.069215	-0.692371
48492		9.791447	0.628931	-0.195820	-0.003609	-0.003007	-0.019393	-0.791504	-0.184570	0.500732	-0.120878	-0.708039	0.069175	-0.692304
48493		9.795339	0.618716	-0.164969	0.001659	-0.004815	-0.015900	-0.794189	-0.194336	0.496826	-0.120955	-0.708102	0.069120	-0.692231
48494		9.788450	0.647947	-0.132031	0.001141	0.000442	-0.015299	-0.796875	-0.188477	0.499268	-0.121098	-0.708097	0.069075	-0.692216
48495		9.767508	0.632042	-0.144374	0.006696	-0.001554	-0.013611	-0.789062	-0.189209	0.505859	-0.121131	-0.708119	0.068993	-0.692196
48496		9.787800	0.662916	-0.152995	0.019698	-0.000241	-0.015133	-0.791748	-0.193359	0.499512	-0.121075	-0.708192	0.068795	-0.692150
48497		9.784970	0.708132	-0.137086	0.024341	-0.000010	-0.015150	-0.791748	-0.187012	0.498535	-0.121004	-0.708240	0.068555	-0.692137
48498		9.776788	0.717147	-0.140089	0.022072	0.000229	-0.017370	-0.789795	-0.184814	0.500488	-0.120931	-0.708281	0.068304	-0.692133
48499		9.784592	0.730937	-0.146007	0.016742	0.000842	-0.017365	-0.789062	-0.187256	0.501465	-0.120893	-0.708319	0.068098	-0.692121
48500		9.776369	0.740274	-0.149145	0.010716	-0.003004	-0.017621	-0.798096	-0.186279	0.507080	-0.120923	-0.708387	0.067952	-0.692061
48501		9.791436	0.727581	-0.156576	0.007650	-0.001004	-0.017928	-0.795654	-0.186279	0.500732	-0.120967	-0.708432	0.067824	-0.692020
48502		9.787287	0.730058	-0.148085	0.004137	-0.001145	-0.014024	-0.794678	-0.184814	0.502197	-0.121011	-0.708451	0.067756	-0.691999
48503		9.774721	0.715108	-0.145851	-0.001300	-0.001252	-0.009560	-0.794678	-0.187256	0.502686	-0.121055	-0.708467	0.067774	-0.691973
48504		9.782670	0.726785	-0.151424	-0.003152	0.002019	-0.007186	-0.791260	-0.185791	0.502930	-0.121112	-0.708451	0.067828	-0.691974
48505		9.754747	0.728114	-0.142074	0.000995	-0.001941	-0.010595	-0.794434	-0.187500	0.501709	-0.121152	-0.708487	0.067821	-0.691931
48506		9.782520	0.723543	-0.131544	-0.000081	-0.002053	-0.009895	-0.794678	-0.190674	0.509033	-0.121204	-0.708511	0.067829	-0.691897
48507		9.766100	0.729677	-0.149292	-0.004217	-0.002235	-0.012519	-0.785400	-0.192871	0.490479	-0.121331	-0.708556	0.067859	-0.691825
48508		9.773977	0.719928	-0.126637	-0.008244	-0.001254	-0.014054	-0.795654	-0.187988	0.500488	-0.121535	-0.708543	0.067904	-0.691799
48509		9.788764	0.699841	-0.145424	-0.008477	0.000112	-0.015747	-0.801758	-0.188232	0.496338	-0.121711	-0.708532	0.067927	-0.691777
48510		9.784637	0.702285	-0.136670	-0.008668	-0.002222	-0.015632	-0.796631	-0.191650	0.500000	-0.121880	-0.708512	0.067951	-0.691764
48511		9.779991	0.682880	-0.132112	-0.004016	-0.003605	-0.013118	-0.797852	-0.187500	0.502930	-0.122009	-0.708534	0.067970	-0.691718
48512		9.779628	0.670983	-0.124757	0.001117	-0.004476	-0.009991	-0.791504	-0.188965	0.498779	-0.122035	-0.708576	0.067967	-0.691670
48513		9.792127	0.697955	-0.116346	0.005703	-0.003776	-0.009046	-0.793701	-0.187500	0.508057	-0.122028	-0.708617	0.067934	-0.691633
48514		9.795550	0.709763	-0.146355	0.003767	-0.002121	-0.011016	-0.788574	-0.192139	0.499023	-0.122043	-0.708670	0.067898	-0.691580
48515		9.767403	0.718824	-0.157708	0.000534	-0.000390	-0.005899	-0.796143	-0.185547	0.501221	-0.122080	-0.708677	0.067939	-0.691562
48516		9.759106	0.695740	-0.143816	-0.000228	-0.000703	-0.004709	-0.796387	-0.188965	0.500732	-0.122064	-0.708676	0.067984	-0.691561
48517		9.774436	0.680666	-0.151475	-0.000235	-0.006469	-0.010503	-0.796631	-0.193604	0.495361	-0.122115	-0.708728	0.067993	-0.691498
48518		9.754108	0.685861	-0.161599	0.000981	-0.007716	-0.016387	-0.790771	-0.195557	0.501221	-0.122237	-0.708777	0.067949	-0.691430
48519		9.770269	0.678926	-0.125616	0.010109	-0.004683	-0.019323	-0.787354	-0.190918	0.500977	-0.122318	-0.708849	0.067803	-0.691357
48520		9.797803	0.699115	-0.144239	0.011566	-0.001533	-0.017722	-0.789795	-0.188232	0.501465	-0.122348	-0.708900	0.067645	-0.691314
48521		9.793874	0.731218	-0.152775	0.007157	-0.003155	-0.016007	-0.787598	-0.192871	0.500000	-0.122380	-0.708953	0.067535	-0.691265
48522		9.761274	0.718743	-0.159613	0.003543	-0.004464	-0.013191	-0.791260	-0.199219	0.502197	-0.122450	-0.709009	0.067494	-0.691200
48523		9.772794	0.718279	-0.166984	0.005410	-0.004040	-0.012789	-0.780029	-0.190918	0.510010	-0.122536	-0.709062	0.067454	-0.691134
48524		9.761434	0.723687	-0.129717	0.010124	-0.005866	-0.011241	-0.790527	-0.192139	0.504883	-0.122518	-0.709187	0.067375	-0.691017
48525		9.768947	0.744063	-0.157248	0.016708	-0.004024	-0.012064	-0.788574	-0.194580	0.502686	-0.122450	-0.709265	0.067228	-0.690962
48526		9.785130	0.772997	-0.157758	0.012875	-0.002346	-0.011181	-0.794189	-0.193115	0.493164	-0.122429	-0.709319	0.067124	-0.690921
48527		9.776670	0.788496	-0.181760	0.011783	-0.004082	-0.010239	-0.803467	-0.191895	0.498291	-0.122397	-0.709340	0.067033	-0.690914
48528		9.776732	0.783170	-0.162954	0.007014	-0.007127	-0.011062	-0.792236	-0.188232	0.499756	-0.122395	-0.709379	0.066977	-0.690880
48529		9.768026	0.754943	-0.162550	0.003205	-0.005907	-0.013434	-0.790771	-0.192871	0.496582	-0.122433	-0.709431	0.066924	-0.690825
48530		9.767777	0.773247	-0.172400	0.007498	-0.005459	-0.016237	-0.790527	-0.195801	0.500977	-0.122490	-0.709480	0.066821	-0.690774
48531		9.772019	0.807117	-0.167214	0.001896	-0.006743	-0.017438	-0.788330	-0.191162	0.499756	-0.122621	-0.709547	0.066765	-0.690687
48532		9.790682	0.803896	-0.204675	-0.015268	-0.006237	-0.017798	-0.791748	-0.196045	0.503662	-0.122879	-0.709584	0.066841	-0.690596
48533		9.781855	0.747613	-0.186729	-0.024431	-0.003969	-0.016904	-0.781494	-0.190674	0.503662	-0.123236	-0.709592	0.067011	-0.690509
48534		9.781462	0.722518	-0.170551	-0.023362	-0.003863	-0.017604	-0.784424	-0.197266	0.501709	-0.123560	-0.709622	0.067152	-0.690406
48535		9.776605	0.711678	-0.186633	-0.011928	-0.006357	-0.016282	-0.786377	-0.196045	0.497314	-0.123806	-0.709677	0.067227	-0.690298
48536		9.772850	0.720839	-0.166959	-0.008252	-0.005043	-0.014517	-0.784668	-0.190430	0.505859	-0.123996	-0.709706	0.067278	-0.690229
48537		9.796881	0.759877	-0.173317	-0.011064	-0.006041	-0.010596	-0.790283	-0.197510	0.504639	-0.124134	-0.709768	0.067373	-0.690131
48538		9.796706	0.776740	-0.182195	-0.016815	-0.000642	-0.006371	-0.788818	-0.200684	0.498291	-0.124332	-0.709754	0.067566	-0.690091
48539		9.771979	0.705920	-0.172239	-0.012988	-0.000234	-0.004243	-0.788086	-0.189209	0.501953	-0.124501	-0.709722	0.067753	-0.690075
48540		9.755592	0.695694	-0.181035	0.002072	0.000227	-0.005985	-0.796875	-0.192871	0.501465	-0.124475	-0.709726	0.067759	-0.690075
48541		9.760249	0.749602	-0.171035	0.007284	-0.004070	-0.015647	-0.793945	-0.196289	0.494873	-0.124499	-0.709764	0.067650	-0.690042
48542		9.763976	0.777680	-0.177407	0.004471	-0.004836	-0.026312	-0.793457	-0.195312	0.505371	-0.124668	-0.709797	0.067486	-0.689995
48543		9.756181	0.773632	-0.140286	-0.006862	-0.003288	-0.029553	-0.791016	-0.199707	0.502930	-0.124952	-0.709836	0.067381	-0.689913
48544		9.777891	0.716928	-0.184709	-0.018877	-0.002051	-0.027022	-0.788330	-0.195068	0.506836	-0.125349	-0.709839	0.067414	-0.689834
48545		9.808427	0.667777	-0.202289	-0.013587	-0.001714	-0.020525	-0.787354	-0.192871	0.507324	-0.125610	-0.709861	0.067441	-0.689762
48546		9.827933	0.567651	-0.168217	-0.023966	-0.001000	-0.007715	-0.794189	-0.195557	0.500000	-0.125835	-0.709853	0.067660	-0.689707
48547		9.845860	0.488587	-0.225070	-0.031886	0.017804	0.012523	-0.792969	-0.197021	0.501221	-0.125987	-0.709616	0.068110	-0.689879
48548		9.902175	0.759405	-0.175899	-0.039388	0.061586	0.068627	-0.787109	-0.200684	0.500977	-0.125769	-0.708950	0.069059	-0.690509
48549		9.901390	0.973524	-0.273189	-0.135138	0.036428	0.155560	-0.796387	-0.197266	0.496094	-0.125661	-0.708289	0.071660	-0.690942
48550		9.849601	0.655768	-0.276450	-0.289654	0.033866	0.269737	-0.784912	-0.188721	0.498047	-0.125914	-0.707267	0.076603	-0.691412
48551		9.659513	0.130762	-0.266788	-0.378805	0.027840	0.379599	-0.799072	-0.192871	0.495117	-0.125958	-0.706066	0.083268	-0.691861
48552		9.483836	-0.135884	-0.209806	-0.383023	-0.013369	0.489262	-0.802002	-0.179932	0.489990	-0.125081	-0.705036	0.091027	-0.692093
48553		9.411520	-0.429432	-0.278665	-0.331616	-0.039020	0.635484	-0.792236	-0.177002	0.496582	-0.122400	-0.704078	0.099644	-0.692361
48554		9.054267	-0.792115	-0.223194	-0.164135	-0.060100	0.838029	-0.797363	-0.156494	0.494873	-0.116494	-0.703283	0.108635	-0.692835
48555		8.484668	-1.118888	0.070841	0.214337	-0.092686	1.099608	-0.802979	-0.131348	0.501953	-0.104897	-0.702843	0.116667	-0.693828
48556		7.638989	-1.558678	0.054398	0.756050	-0.021378	1.468684	-0.800049	-0.090088	0.500000	-0.085408	-0.701742	0.123119	-0.696495
48557		7.006543	-1.743008	-0.839940	1.414806	0.265839	1.952670	-0.804199	-0.031494	0.492920	-0.056305	-0.697622	0.127697	-0.702743
48558		6.137317	-1.465633	-0.799319	1.750794	0.188941	2.412601	-0.794434	0.043945	0.489014	-0.020037	-0.692857	0.133248	-0.708373
48559		5.207507	-0.511178	0.487607	1.932564	0.779842	2.324563	-0.797852	0.113770	0.458984	0.016122	-0.682063	0.136089	-0.718338
48560		5.416157	-0.432498	2.919735	1.509545	1.474024	2.124926	-0.807373	0.177490	0.432617	0.045693	-0.664415	0.140951	-0.732528
48561		5.946712	0.135288	1.706069	0.517099	0.841989	1.779159	-0.802002	0.218994	0.406494	0.064949	-0.653073	0.151549	-0.739128
48562		8.951177	-0.775983	-0.625319	-0.931352	0.229842	1.748061	-0.784668	0.250977	0.409912	0.073196	-0.648182	0.174654	-0.737563
48563		9.680409	-1.479276	1.057861	-1.742210	0.123422	1.705321	-0.791016	0.276611	0.430908	0.074624	-0.644617	0.204622	-0.732823
48564		9.964563	-9.008003	1.048506	-1.216413	0.223425	1.624987	-0.764648	0.296143	0.431396	0.079222	-0.639346	0.229017	-0.729734
48565		13.350703	-13.345877	1.729449	-0.189365	0.291701	0.884853	-0.762695	0.302979	0.441650	0.084967	-0.634269	0.238189	-0.730582
48566		18.906497	-10.164636	2.231322	0.959613	0.540583	-0.030795	-0.774658	0.311523	0.415771	0.090750	-0.628329	0.229814	-0.737667
48567		23.955663	-5.750225	3.274312	0.411292	0.303891	-0.915027	-0.786133	0.306396	0.403320	0.084722	-0.627615	0.219255	-0.742192
48568		24.073304	-5.362783	2.712961	-0.974605	-0.170547	-1.580246	-0.791748	0.260742	0.406250	0.062945	-0.634384	0.215708	-0.739639
48569		24.808713	-7.739876	0.917527	-1.303187	-0.536556	-2.499477	-0.802246	0.193604	0.435791	0.031027	-0.646707	0.207374	-0.733351
48570		22.721949	-7.835320	0.052574	-0.860812	-0.643304	-2.905394	-0.812256	0.127197	0.447510	-0.000701	-0.660018	0.191273	-0.726492
48571		16.569368	-6.712031	1.222684	0.068375	-0.482604	-2.459642	-0.818848	0.072510	0.454346	-0.020949	-0.670025	0.170019	-0.722303
48572		8.803694	-2.280052	0.617281	0.518606	-0.258715	-1.982890	-0.817627	0.030762	0.443359	-0.033680	-0.676525	0.148589	-0.720486
48573		1.443964	0.616754	0.727109	0.562694	-0.046041	-1.941903	-0.813232	-0.004150	0.449707	-0.046174	-0.680573	0.127040	-0.720104
48574		-3.110737	2.115389	1.354653	-0.738196	-0.339335	-1.972627	-0.822266	-0.068604	0.454102	-0.069512	-0.686102	0.117021	-0.714659
48575		-2.764104	2.484386	0.487882	-2.172319	-0.315413	-1.709099	-0.807129	-0.120605	0.449951	-0.102989	-0.689089	0.122135	-0.706847
48576		0.895552	-0.698327	-1.089188	-2.037762	0.318627	-0.780383	-0.813965	-0.154541	0.442383	-0.127886	-0.684561	0.133035	-0.705211
48577		3.266434	-3.137936	-2.949885	-0.944598	0.556612	0.056224	-0.805420	-0.171631	0.424316	-0.136342	-0.677978	0.140983	-0.708435
48578		1.281819	-2.790676	-2.050148	-0.171839	0.044315	0.243957	-0.808594	-0.156982	0.427002	-0.135725	-0.676844	0.144601	-0.708909
48579		0.166468	-1.153180	0.363612	0.429214	-0.226173	0.310458	-0.803711	-0.147461	0.424805	-0.128877	-0.678995	0.143886	-0.708275
48580		-0.333464	-0.285719	1.730959	0.838464	0.259262	0.502890	-0.808838	-0.123779	0.429932	-0.117735	-0.677081	0.140402	-0.712732
48581		-0.265843	-0.106151	0.623939	0.870200	0.207251	0.711854	-0.822266	-0.102051	0.429932	-0.104326	-0.675192	0.138440	-0.716984
48582		0.116063	0.059416	-1.797816	1.140638	-0.349900	0.930107	-0.813721	-0.064941	0.433838	-0.085692	-0.678078	0.136583	-0.717086
48583		0.208416	0.593375	-1.384774	1.094215	-0.187273	0.963739	-0.817627	-0.045654	0.437012	-0.067376	-0.679164	0.135192	-0.718276
48584		0.169842	0.808836	0.744320	0.856046	0.148964	1.053235	-0.819824	-0.011475	0.442627	-0.050847	-0.676662	0.136372	-0.721766
48585		-0.355136	0.971279	2.395414	0.387844	-0.221628	1.322758	-0.817383	0.023926	0.448975	-0.035159	-0.676554	0.144220	-0.721276
48586		4.525236	-0.807648	2.486230	-0.436139	-0.120077	1.644539	-0.818115	0.057617	0.459229	-0.023684	-0.674335	0.162097	-0.720025
48587		28.113118	-1.268695	-2.006949	-0.084596	0.151170	0.957877	-0.817627	0.076660	0.460449	-0.015930	-0.670977	0.170872	-0.721345
48588		31.812912	-8.655269	1.045960	-0.140056	0.600285	1.496779	-0.824951	0.104248	0.453613	-0.004735	-0.662229	0.184519	-0.726212
48589		33.399670	-15.574277	1.957810	0.437770	0.571547	2.767968	-0.820312	0.175293	0.439941	0.022784	-0.650273	0.203355	-0.731624
48590		28.483971	-1.687530	4.617440	0.553578	0.460662	-0.061714	-0.822510	0.180420	0.428223	0.025667	-0.646043	0.197994	-0.736728
48591		31.929388	1.651751	0.468902	-2.827663	-0.706546	-2.304798	-0.828125	0.098389	0.456055	-0.016528	-0.658480	0.205014	-0.723948
48592		27.365576	-13.640593	0.138836	-1.791514	-0.585690	-1.970570	-0.823730	0.035645	0.468262	-0.047436	-0.668119	0.204953	-0.713696
48593		12.484086	-9.139198	0.107081	0.814420	0.398191	-1.510525	-0.819092	0.003906	0.440430	-0.054903	-0.668806	0.184688	-0.718035
48594		3.719047	1.208276	-0.861963	0.665453	0.396742	-1.922512	-0.825439	-0.024414	0.426270	-0.067380	-0.669921	0.162244	-0.721347
48595		-2.262912	4.522845	0.509663	-0.171135	0.152507	-2.182609	-0.828369	-0.072266	0.433838	-0.088654	-0.672568	0.145237	-0.720208
48596		-3.658899	1.206819	0.094813	-2.205411	-0.395907	-1.227038	-0.816895	-0.122803	0.437500	-0.117401	-0.675573	0.155110	-0.711167
48597		0.164631	-4.386766	-0.280973	-2.006530	-0.078076	-0.182865	-0.815186	-0.147705	0.426270	-0.135739	-0.673463	0.171465	-0.706132
48598		2.475466	-5.134982	-1.518855	-0.011762	0.019511	0.214027	-0.820068	-0.145020	0.434570	-0.133969	-0.672790	0.173360	-0.706648
48599		2.417609	-1.694236	-1.857129	1.437032	-0.306026	0.137056	-0.818359	-0.122314	0.436035	-0.119962	-0.677484	0.162371	-0.707291
48600		1.159973	1.060676	0.925868	0.873012	0.133628	0.149323	-0.815430	-0.110840	0.428467	-0.111485	-0.677242	0.155770	-0.710387
48601		-1.200795	1.677686	2.238093	0.278548	0.256061	0.279247	-0.815674	-0.110840	0.434814	-0.107131	-0.674769	0.155351	-0.713496
48602		-0.831003	0.659813	-1.449789	0.286179	-0.281829	0.459579	-0.824219	-0.095459	0.437744	-0.100074	-0.676745	0.157108	-0.712263
48603		0.590281	-0.505241	-2.655570	0.603154	-0.150783	0.591269	-0.813721	-0.075684	0.443848	-0.089392	-0.677622	0.156951	-0.712884
48604		0.711110	-0.666888	-0.418077	0.687073	0.097767	0.755460	-0.817383	-0.052246	0.449219	-0.076995	-0.675977	0.157153	-0.715842
48605		-0.230037	0.791210	1.603892	0.632373	-0.027130	1.051045	-0.827637	-0.020020	0.450439	-0.062131	-0.674692	0.160433	-0.717769
48606		0.537522	-0.042145	1.540269	0.423277	-0.028058	1.253964	-0.818115	0.017334	0.456055	-0.047140	-0.672675	0.167206	-0.719256
48607		12.921855	-5.519093	2.601120	-0.898223	0.337375	0.885016	-0.825439	0.021729	0.450195	-0.047290	-0.667199	0.182522	-0.720621
48608		40.013893	-6.807482	-1.733122	-0.151567	0.340381	0.790388	-0.832275	0.030762	0.444824	-0.042087	-0.662220	0.190299	-0.723519
48609		32.329074	-6.023151	3.876326	-0.036532	0.048730	1.665578	-0.827148	0.072510	0.441650	-0.027402	-0.657658	0.204432	-0.724530
48610		34.803559	-11.398771	2.879152	-0.725719	-0.294395	-0.257039	-0.824463	0.068604	0.452881	-0.034875	-0.660700	0.209054	-0.720108
48611		32.422422	-6.233381	-0.113597	0.341702	-0.054979	-1.551462	-0.823486	0.030762	0.454834	-0.045752	-0.665276	0.193246	-0.719702
48612		20.944748	-1.838829	0.430075	0.040607	-0.247174	-1.756122	-0.819580	-0.009277	0.454102	-0.060504	-0.671623	0.178442	-0.716533
48613		11.656560	-2.549259	-0.561148	-0.774968	-0.389794	-1.483153	-0.823242	-0.043457	0.461914	-0.079299	-0.677705	0.173185	-0.710236
48614		4.805055	-2.478706	-1.254018	-0.831705	-0.297683	-1.554612	-0.804932	-0.089600	0.456299	-0.099347	-0.682735	0.167635	-0.704202
48615		-0.175844	-0.285848	0.294943	-0.418885	-0.062445	-1.431494	-0.807617	-0.123047	0.458984	-0.115290	-0.685648	0.159145	-0.700905
48616		-1.288595	-0.134844	1.612648	-0.566498	0.148883	-0.618979	-0.796875	-0.136475	0.449463	-0.125807	-0.684711	0.158602	-0.700135
48617		-0.274635	-2.889602	1.237962	-0.422960	0.279165	0.291903	-0.808594	-0.135498	0.447998	-0.127370	-0.680994	0.164404	-0.702136
48618		1.166947	-4.194945	-1.636460	0.458652	-0.101790	0.786115	-0.809814	-0.122803	0.448242	-0.116294	-0.680948	0.167290	-0.703420
48619		1.484959	-0.690963	-1.209308	0.799126	-0.300881	0.552942	-0.806885	-0.109375	0.453125	-0.103992	-0.683523	0.165476	-0.703278
48620		-0.009933	2.889631	1.263908	0.490755	0.086995	0.167432	-0.808105	-0.090088	0.453857	-0.098545	-0.683009	0.162547	-0.705242
48621		-1.194698	1.968830	2.025273	-0.042821	0.077245	0.152067	-0.802979	-0.089111	0.443848	-0.097705	-0.681944	0.164193	-0.706007
48622		-0.702002	-0.154268	0.523624	-0.506542	-0.139686	0.273871	-0.806396	-0.083984	0.454346	-0.099307	-0.681948	0.171190	-0.704116
48623		0.531743	-1.842848	-1.321768	-0.219085	-0.216521	0.439760	-0.804199	-0.080078	0.452393	-0.096788	-0.682611	0.177186	-0.702339
48624		1.204931	-1.161825	-1.124221	0.624762	0.040130	0.560819	-0.800537	-0.064941	0.462891	-0.086580	-0.681710	0.176463	-0.704724
48625		0.103166	0.806761	-0.246504	0.977413	0.238499	0.667889	-0.816162	-0.039307	0.451904	-0.072845	-0.679118	0.173356	-0.709535
48626		-1.252417	-0.248183	-0.417049	0.719468	0.040729	0.509851	-0.814453	-0.031006	0.463135	-0.062229	-0.678252	0.171245	-0.711882
48627		4.979726	-2.603308	0.331297	-0.337157	0.114535	0.796577	-0.816895	-0.004883	0.464844	-0.058219	-0.675233	0.180953	-0.712690
48628		40.527373	-7.794149	0.943590	0.845539	-0.029825	0.982456	-0.811523	0.037109	0.460449	-0.042170	-0.673813	0.181808	-0.714943
48629		30.339926	-20.450933	-2.125005	1.808296	0.955353	4.751698	-0.809326	0.152832	0.439941	0.013507	-0.654023	0.204901	-0.728071
48630		9.943249	3.353820	4.829034	1.587332	1.150806	2.849973	-0.809326	0.225342	0.406494	0.049530	-0.635352	0.214009	-0.740320
48631		19.545052	-1.221303	2.220462	-2.457829	-0.735035	-2.245214	-0.813965	0.156738	0.441406	0.011252	-0.649087	0.218455	-0.728585
48632		33.011505	-8.395104	0.408018	-2.266328	-0.588658	-1.890604	-0.819580	0.093018	0.468994	-0.022633	-0.659486	0.223725	-0.717295
48633		15.713190	-10.786148	0.015323	0.548956	-0.278639	-0.769240	-0.812744	0.080078	0.463135	-0.024105	-0.664282	0.212753	-0.716160
48634		6.657327	-5.415356	-0.580488	1.914345	-0.108706	-1.777689	-0.812256	0.069336	0.460693	-0.023739	-0.670215	0.180973	-0.719373
48635		3.565715	5.134719	0.266021	1.254307	-0.771404	-2.883055	-0.812012	0.016602	0.475342	-0.037286	-0.683506	0.145857	-0.714252
48636		8.310264	5.616191	0.346189	0.138398	-1.112751	-2.117123	-0.803955	-0.034668	0.501953	-0.052919	-0.697072	0.127121	-0.703655
48637		4.898638	0.354478	-0.781204	-0.612211	-0.815141	-1.592896	-0.796631	-0.076172	0.505371	-0.070979	-0.706197	0.119181	-0.694293
48638		2.618671	-0.631403	0.534997	-0.600291	-0.523282	-1.627192	-0.789062	-0.109375	0.526611	-0.089640	-0.712410	0.110395	-0.687204
48639		5.296658	1.921699	0.560928	-0.849415	-0.559882	-1.060348	-0.769531	-0.146973	0.525879	-0.105503	-0.717614	0.108900	-0.679735
48640		6.746360	1.873527	-0.900686	-0.758776	-0.328649	-0.703200	-0.772949	-0.171631	0.538818	-0.117861	-0.720285	0.109455	-0.674773
48641		9.770278	-0.624021	-0.325176	-0.512692	-0.116652	-0.584297	-0.769531	-0.191650	0.546387	-0.127254	-0.721277	0.108687	-0.672125
48642		14.708325	-1.805969	-0.335847	-0.101869	-0.028744	-0.224302	-0.769287	-0.195557	0.534912	-0.130032	-0.721682	0.107615	-0.671331
48643		11.531672	-2.180761	0.151169	0.241485	-0.014772	-0.390731	-0.766357	-0.201660	0.543213	-0.131118	-0.722690	0.102090	-0.670898
48644		9.106655	-0.760312	-1.294890	0.806878	-0.062118	-0.578104	-0.762207	-0.199463	0.546875	-0.128596	-0.725219	0.090257	-0.670354
48645		8.674457	1.390930	-1.460103	0.975562	0.012779	-0.622892	-0.765381	-0.204590	0.543213	-0.124966	-0.727307	0.076480	-0.670492
48646		9.046655	3.119990	-1.264861	0.640382	0.117504	-0.420767	-0.764160	-0.205078	0.548828	-0.122795	-0.727660	0.067128	-0.671510
48647		9.322316	2.787256	-1.401236	0.143817	0.047778	-0.163612	-0.780029	-0.195801	0.546631	-0.122907	-0.727603	0.064408	-0.671818
48648		9.269628	1.758696	-1.269096	-0.329438	-0.065799	-0.180015	-0.759766	-0.218262	0.551758	-0.127315	-0.727764	0.065666	-0.670700
48649		9.523593	1.228809	-0.468570	-0.519977	0.007308	-0.356167	-0.762695	-0.222900	0.543457	-0.135026	-0.727148	0.066836	-0.669743
48650		9.822185	0.722525	-0.138027	-0.226729	0.131677	-0.377604	-0.767822	-0.238281	0.536377	-0.140323	-0.725963	0.065130	-0.670109
48651		9.835596	0.854555	-0.189464	0.051878	0.178183	-0.402406	-0.770264	-0.252686	0.534668	-0.143342	-0.724872	0.060788	-0.671058
48652		9.651830	1.151586	-0.219255	0.096799	0.145062	-0.452841	-0.762939	-0.252930	0.534180	-0.146353	-0.724155	0.055678	-0.671625
48653		9.375217	1.006665	-0.542559	0.120194	0.127896	-0.430619	-0.757324	-0.256348	0.530518	-0.148940	-0.723587	0.050596	-0.672071
48654		9.423926	0.849671	-0.614089	0.178386	0.093371	-0.346346	-0.765625	-0.263184	0.528564	-0.150264	-0.723343	0.045851	-0.672379
48655		9.674587	1.320959	-0.507831	0.230880	0.042837	-0.230169	-0.761475	-0.272461	0.535156	-0.150109	-0.723540	0.041817	-0.672465
48656		9.976867	1.559082	-0.497324	0.151986	0.042674	-0.137114	-0.762695	-0.274170	0.532471	-0.149890	-0.723535	0.039293	-0.672671
48657		10.040721	1.375947	-0.327839	0.023453	0.026471	-0.047169	-0.765381	-0.272949	0.532227	-0.150070	-0.723377	0.038696	-0.672835
48658		10.088370	1.043252	-0.365149	-0.047346	-0.014688	0.020630	-0.754150	-0.268311	0.533447	-0.150298	-0.723400	0.039384	-0.672719
48659		9.847687	0.889621	-0.401994	0.015038	-0.001120	0.036911	-0.767334	-0.259521	0.528564	-0.149828	-0.723419	0.039669	-0.672787
48660		9.621094	1.120516	-0.363765	0.166230	0.027052	0.049102	-0.760254	-0.261719	0.524414	-0.147896	-0.723475	0.038739	-0.673209
48661		9.599556	1.463832	-0.449864	0.208953	0.029557	0.066292	-0.771240	-0.262451	0.532959	-0.145441	-0.723576	0.037610	-0.673699
48662		9.571982	1.591546	-0.488820	0.185685	0.013721	0.063749	-0.769775	-0.257080	0.531738	-0.143211	-0.723765	0.036684	-0.674024
48663		9.649030	1.529244	-0.440482	0.167735	0.019276	0.048138	-0.765137	-0.254150	0.532227	-0.141276	-0.723878	0.035755	-0.674361
48664		9.725947	1.628145	-0.361627	0.158633	0.025411	0.017798	-0.765381	-0.245850	0.535400	-0.139681	-0.723934	0.034618	-0.674692
48665		9.673302	1.548611	-0.502670	0.104008	0.003881	-0.000942	-0.761230	-0.249512	0.525391	-0.138723	-0.724083	0.033802	-0.674772
48666		9.630357	1.498079	-0.636749	0.009949	-0.013519	-0.004067	-0.768799	-0.253418	0.537109	-0.138644	-0.724214	0.033791	-0.674648
48667		9.692966	1.468765	-0.556440	-0.060248	-0.008475	0.005304	-0.771240	-0.247803	0.532715	-0.139123	-0.724179	0.034447	-0.674554
48668		9.782433	1.276573	-0.446319	-0.053925	0.025717	0.013686	-0.762451	-0.247314	0.535645	-0.139483	-0.723861	0.035062	-0.674789
48669		9.752051	1.202797	-0.453563	0.016052	0.022092	0.010302	-0.769531	-0.257080	0.534668	-0.139236	-0.723699	0.035060	-0.675014
48670		9.693503	1.290946	-0.521808	0.078046	0.004338	0.001646	-0.759766	-0.253662	0.529541	-0.138505	-0.723797	0.034502	-0.675089
48671		9.655891	1.518770	-0.510648	0.090812	-0.012078	0.004007	-0.760742	-0.239014	0.530029	-0.137631	-0.724053	0.033887	-0.675023
48672		9.710560	1.490580	-0.510532	0.057104	-0.013027	0.027161	-0.765137	-0.249023	0.531494	-0.136850	-0.724249	0.033752	-0.674979
48673		9.759012	1.446450	-0.428414	0.027788	-0.005237	0.040381	-0.764893	-0.241211	0.527588	-0.136240	-0.724323	0.033984	-0.675011
48674		9.716157	1.428479	-0.522776	0.003249	-0.009216	0.042173	-0.766113	-0.241211	0.538086	-0.135829	-0.724386	0.034441	-0.675003
48675		9.641496	1.478345	-0.511688	-0.002498	-0.005910	0.034879	-0.765869	-0.246582	0.533447	-0.135529	-0.724418	0.034869	-0.675007
48676		9.677587	1.543963	-0.580855	-0.008049	0.007220	0.036438	-0.762451	-0.249268	0.525879	-0.135282	-0.724326	0.035347	-0.675130
48677		9.685462	1.493524	-0.593563	-0.020651	0.008519	0.038125	-0.774658	-0.241699	0.525879	-0.135143	-0.724201	0.035953	-0.675261
48678		9.684884	1.444681	-0.535561	-0.039837	-0.001458	0.045930	-0.769043	-0.239990	0.526611	-0.135097	-0.724121	0.036801	-0.675310
48679		9.720933	1.461226	-0.528351	-0.050582	-0.011507	0.051518	-0.768555	-0.242188	0.536621	-0.135093	-0.724107	0.037801	-0.675270
48680		9.715427	1.410002	-0.569209	-0.068549	-0.004239	0.058013	-0.761475	-0.238525	0.531250	-0.135201	-0.724000	0.038994	-0.675296
48681		9.647230	1.363166	-0.577620	-0.080839	0.006427	0.059114	-0.773926	-0.246094	0.523682	-0.135413	-0.723780	0.040281	-0.675414
48682		9.710355	1.351978	-0.549222	-0.092985	0.011164	0.046013	-0.764893	-0.232422	0.538818	-0.135861	-0.723500	0.041565	-0.675545
48683		9.714756	1.321710	-0.515550	-0.085587	0.002030	0.032608	-0.759277	-0.242920	0.525635	-0.136324	-0.723323	0.042641	-0.675575
48684		9.659719	1.236642	-0.538024	-0.069851	-0.004523	0.024028	-0.760742	-0.242676	0.528564	-0.136734	-0.723229	0.043545	-0.675535
48685		9.669126	1.241426	-0.510372	-0.061784	-0.000585	0.024056	-0.764648	-0.239258	0.529053	-0.137071	-0.723115	0.044372	-0.675535
48686		9.703049	1.286539	-0.497242	-0.050334	0.004688	0.013533	-0.768311	-0.249268	0.527100	-0.137390	-0.722981	0.044993	-0.675573
48687		9.744141	1.277994	-0.488978	-0.038604	0.021537	0.003169	-0.770996	-0.233154	0.528320	-0.137715	-0.722729	0.045410	-0.675748
48688		9.740523	1.247854	-0.521843	-0.035604	0.016634	0.005748	-0.768799	-0.241455	0.524414	-0.137963	-0.722522	0.045807	-0.675891
48689		9.736514	1.200168	-0.506900	-0.046124	0.004650	0.009710	-0.770996	-0.245361	0.529053	-0.138280	-0.722396	0.046367	-0.675924
48690		9.713880	1.153637	-0.543903	-0.049028	-0.007322	0.016724	-0.771729	-0.241699	0.521484	-0.138560	-0.722362	0.047035	-0.675856
48691		9.704094	1.152019	-0.505424	-0.023209	-0.004762	0.016783	-0.776123	-0.250732	0.525879	-0.138605	-0.722348	0.047487	-0.675830
48692		9.717809	1.211500	-0.477259	0.010426	0.010521	0.011191	-0.765625	-0.246826	0.534424	-0.138415	-0.722268	0.047590	-0.675948
48693		9.715593	1.318163	-0.466382	0.030295	0.014481	0.008198	-0.765381	-0.239258	0.520264	-0.138062	-0.722196	0.047467	-0.676105
48694		9.691096	1.338842	-0.533777	0.009331	0.004200	0.009294	-0.764893	-0.246338	0.526123	-0.137881	-0.722168	0.047557	-0.676166
48695		9.708147	1.320600	-0.540193	-0.018784	0.000004	0.012703	-0.762939	-0.238525	0.526123	-0.137931	-0.722128	0.047927	-0.676172
48696		9.725964	1.263745	-0.500033	-0.016117	0.003175	0.011747	-0.771973	-0.243408	0.525635	-0.137953	-0.722067	0.048244	-0.676211
48697		9.715609	1.235227	-0.507350	-0.001680	0.007374	0.011957	-0.772461	-0.247314	0.528564	-0.137855	-0.721993	0.048449	-0.676295
48698		9.713862	1.282214	-0.486184	-0.011404	0.009294	0.013312	-0.764404	-0.245117	0.530518	-0.137839	-0.721885	0.048749	-0.676391
48699		9.732776	1.269811	-0.446519	-0.034426	0.005023	0.013032	-0.765869	-0.238037	0.518066	-0.138026	-0.721778	0.049236	-0.676433
48700		9.705065	1.223052	-0.504244	-0.028176	0.018660	0.007257	-0.772705	-0.240967	0.527100	-0.138209	-0.721563	0.049602	-0.676598
48701		9.723655	1.197822	-0.485964	-0.013646	0.017315	0.010384	-0.774414	-0.236328	0.525879	-0.138232	-0.721386	0.049868	-0.676763
48702		9.699233	1.222739	-0.464945	-0.011259	0.015698	0.007409	-0.769287	-0.238037	0.524170	-0.138252	-0.721227	0.050084	-0.676912
48703		9.735038	1.206414	-0.492373	-0.002768	0.016828	0.003995	-0.771729	-0.244873	0.519775	-0.138228	-0.721076	0.050198	-0.677069
48704		9.734246	1.234461	-0.472689	-0.011341	0.015709	-0.000278	-0.772949	-0.241699	0.525879	-0.138332	-0.720920	0.050373	-0.677200
48705		9.720655	1.234735	-0.420315	-0.020214	0.017512	0.001198	-0.769043	-0.239746	0.529541	-0.138495	-0.720736	0.050614	-0.677346
48706		9.725688	1.221347	-0.416263	-0.013739	0.016169	0.003904	-0.770020	-0.242188	0.523682	-0.138567	-0.720575	0.050811	-0.677487
48707		9.727029	1.192297	-0.427206	-0.014452	0.018139	0.002691	-0.770508	-0.239990	0.525391	-0.138667	-0.720394	0.051017	-0.677643
48708		9.715428	1.194320	-0.416386	-0.005446	0.014778	0.003747	-0.773926	-0.245117	0.528564	-0.138669	-0.720258	0.051152	-0.677778
48709		9.740458	1.226370	-0.438596	-0.003143	0.022031	-0.000334	-0.771484	-0.245117	0.520996	-0.138696	-0.720067	0.051227	-0.677969
48710		9.746526	1.250919	-0.448421	0.003328	0.015083	0.002993	-0.777344	-0.245361	0.526855	-0.138638	-0.719942	0.051302	-0.678109
48711		9.698293	1.222401	-0.405438	-0.001752	0.011233	0.009317	-0.767822	-0.238770	0.524902	-0.138566	-0.719838	0.051476	-0.678221
48712		9.710845	1.238205	-0.373037	-0.012909	0.011483	0.008842	-0.775635	-0.236572	0.521973	-0.138587	-0.719714	0.051720	-0.678329
48713		9.716006	1.230789	-0.358278	-0.022856	0.011548	0.003574	-0.775635	-0.242920	0.524414	-0.138741	-0.719572	0.052009	-0.678426
48714		9.701797	1.203630	-0.354830	-0.006513	0.014174	-0.004185	-0.772949	-0.235840	0.524658	-0.138826	-0.719443	0.052093	-0.678539
48715		9.694449	1.239842	-0.379604	0.000681	0.013142	-0.002664	-0.775146	-0.234131	0.523926	-0.138816	-0.719335	0.052110	-0.678654
48716		9.755434	1.299019	-0.362637	-0.004525	0.013126	-0.001279	-0.770264	-0.246338	0.524658	-0.138840	-0.719216	0.052183	-0.678770
48717		9.728099	1.222706	-0.363852	-0.013892	0.006486	0.002595	-0.777100	-0.236328	0.520020	-0.138933	-0.719138	0.052404	-0.678817
48718		9.738972	1.240886	-0.364625	-0.007792	0.008088	0.003380	-0.769775	-0.241943	0.522705	-0.138951	-0.719050	0.052571	-0.678893
48719		9.734559	1.266721	-0.337162	-0.014523	0.012986	0.004256	-0.775635	-0.237793	0.519287	-0.139032	-0.718913	0.052792	-0.679004
48720		9.692879	1.273659	-0.370172	-0.013874	0.010353	0.007631	-0.776855	-0.240723	0.520264	-0.139073	-0.718793	0.053047	-0.679103
48721		9.724081	1.262749	-0.409255	-0.028779	0.015065	0.011177	-0.778076	-0.242676	0.518066	-0.139226	-0.718606	0.053457	-0.679238
48722		9.740030	1.259120	-0.420501	-0.030798	0.011533	0.013080	-0.778809	-0.240479	0.515625	-0.139384	-0.718442	0.053919	-0.679343
48723		9.713237	1.200508	-0.384735	-0.025889	0.013408	0.013257	-0.774658	-0.234375	0.523193	-0.139496	-0.718268	0.054337	-0.679470
48724		9.706535	1.232795	-0.409099	-0.026382	0.010564	0.015055	-0.782471	-0.247314	0.513184	-0.139572	-0.718124	0.054735	-0.679575
48725		9.712073	1.289191	-0.392071	-0.030792	0.010907	0.017525	-0.783447	-0.240967	0.515381	-0.139707	-0.717958	0.055265	-0.679680
48726		9.729445	1.230812	-0.350073	-0.038333	0.006497	0.016113	-0.783936	-0.240723	0.515381	-0.139902	-0.717818	0.055830	-0.679741
48727		9.737108	1.223647	-0.376111	-0.036150	0.015729	0.018191	-0.777832	-0.247559	0.518555	-0.140065	-0.717601	0.056377	-0.679891
48728		9.724614	1.184227	-0.352543	-0.030345	0.005814	0.018732	-0.773193	-0.240234	0.508789	-0.140173	-0.717485	0.056894	-0.679949
48729		9.708553	1.181637	-0.366229	-0.028167	0.013901	0.022017	-0.771973	-0.234863	0.517578	-0.140234	-0.717296	0.057411	-0.680092
48730		9.739352	1.209170	-0.364651	-0.027387	0.016421	0.026117	-0.773438	-0.241455	0.515869	-0.140231	-0.717091	0.057908	-0.680267
48731		9.717733	1.239919	-0.372183	-0.025798	0.017761	0.023860	-0.768799	-0.237793	0.512695	-0.140251	-0.716877	0.058393	-0.680446
48732		9.731732	1.223956	-0.352236	-0.045032	0.023575	0.022309	-0.781006	-0.243652	0.514893	-0.140455	-0.716582	0.059009	-0.680662
48733		9.737404	1.219256	-0.322925	-0.047180	0.013220	0.023691	-0.773193	-0.238525	0.518555	-0.140672	-0.716366	0.059698	-0.680784
48734		9.705423	1.137849	-0.347266	-0.040190	0.009238	0.019807	-0.777344	-0.232910	0.515381	-0.140836	-0.716206	0.060258	-0.680869
48735		9.731046	1.120136	-0.335579	-0.033852	0.017815	0.018009	-0.777100	-0.240479	0.513428	-0.140957	-0.715981	0.060732	-0.681039
48736		9.747750	1.194911	-0.318967	-0.019977	0.017442	0.015793	-0.780029	-0.244629	0.513184	-0.140991	-0.715784	0.061095	-0.681206
48737		9.731314	1.147412	-0.297896	-0.026970	0.014791	0.016045	-0.771973	-0.232422	0.507324	-0.141095	-0.715597	0.061539	-0.681342
48738		9.722012	1.103572	-0.294708	-0.031126	0.016037	0.015515	-0.777100	-0.231689	0.512695	-0.141217	-0.715391	0.061983	-0.681492
48739		9.728715	1.125362	-0.303717	-0.035701	0.016262	0.013412	-0.779785	-0.240479	0.513428	-0.141389	-0.715179	0.062431	-0.681638
48740		9.722862	1.084413	-0.309577	-0.012569	0.015108	0.009048	-0.778809	-0.232178	0.514893	-0.141412	-0.715020	0.062669	-0.681778
48741		9.715376	1.020023	-0.278552	-0.005081	0.016787	0.001959	-0.783691	-0.245361	0.508301	-0.141405	-0.714869	0.062745	-0.681931
48742		9.716007	1.079691	-0.283934	-0.000449	0.013417	-0.003162	-0.776367	-0.238037	0.506836	-0.141442	-0.714750	0.062813	-0.682041
48743		9.741420	1.126788	-0.283005	0.023203	0.011192	-0.006672	-0.785156	-0.232422	0.510254	-0.141277	-0.714698	0.062621	-0.682148
48744		9.739840	1.096634	-0.254781	0.019088	0.018551	-0.004523	-0.775879	-0.237305	0.510986	-0.141121	-0.714573	0.062457	-0.682327
48745		9.745542	1.063101	-0.255011	0.019806	0.022156	-0.003889	-0.776123	-0.239258	0.505859	-0.140963	-0.714423	0.062280	-0.682532
48746		9.733609	1.066727	-0.244770	0.030072	0.014755	-0.004974	-0.772217	-0.230713	0.509277	-0.140730	-0.714352	0.062045	-0.682676
48747		9.746014	1.124635	-0.257623	0.042466	0.016510	-0.006210	-0.774902	-0.234863	0.512207	-0.140371	-0.714293	0.061645	-0.682848
48748		9.720992	1.139574	-0.262733	0.036301	0.012083	-0.007890	-0.782715	-0.233154	0.510742	-0.140086	-0.714264	0.061296	-0.682969
48749		9.723368	1.158194	-0.278766	0.016571	0.002897	-0.010773	-0.778320	-0.239746	0.513428	-0.139996	-0.714274	0.061123	-0.682991
48750		9.715230	1.118694	-0.214105	0.006294	0.010390	-0.017393	-0.783203	-0.234375	0.513428	-0.140072	-0.714214	0.060966	-0.683053
48751		9.741851	1.053361	-0.235661	0.022438	0.015453	-0.020231	-0.781006	-0.241943	0.514648	-0.140018	-0.714137	0.060629	-0.683175
48752		9.732910	1.083754	-0.199679	0.040339	0.010414	-0.028243	-0.781738	-0.237549	0.514648	-0.139886	-0.714143	0.060089	-0.683242
48753		9.751892	1.143448	-0.244294	0.035261	0.007179	-0.024132	-0.780762	-0.238037	0.508789	-0.139751	-0.714165	0.059624	-0.683289
48754		9.766777	1.174380	-0.211356	0.014912	-0.001216	-0.017052	-0.775391	-0.239502	0.511963	-0.139742	-0.714212	0.059435	-0.683258
48755		9.769661	1.132933	-0.187178	0.002883	-0.001560	-0.005602	-0.778809	-0.234375	0.509033	-0.139738	-0.714238	0.059432	-0.683231
48756		9.738621	1.094842	-0.229164	0.006821	0.000767	0.000838	-0.782471	-0.231689	0.505615	-0.139639	-0.714242	0.059453	-0.683246
48757		9.737472	1.129443	-0.201879	0.018078	-0.002719	0.001858	-0.783936	-0.237061	0.508057	-0.139429	-0.714288	0.059408	-0.683244
48758		9.731735	1.156370	-0.211299	0.016620	-0.007790	0.003623	-0.787842	-0.235840	0.502197	-0.139226	-0.714375	0.059410	-0.683194
48759		9.725013	1.190598	-0.241827	0.010510	-0.009996	0.007240	-0.779053	-0.232666	0.505371	-0.139054	-0.714459	0.059531	-0.683131
48760		9.727316	1.146023	-0.253072	0.003308	-0.018989	0.005659	-0.776855	-0.234131	0.510986	-0.138936	-0.714617	0.059676	-0.682977
48761		9.738137	1.184068	-0.223195	0.005021	-0.009715	0.002704	-0.779297	-0.242188	0.512695	-0.138830	-0.714708	0.059741	-0.682898
48762		9.738242	1.156253	-0.273354	-0.000615	-0.006320	0.003100	-0.776123	-0.245361	0.510498	-0.138795	-0.714759	0.059878	-0.682839
48763		9.724819	1.120739	-0.255748	0.002477	-0.011550	-0.000705	-0.779297	-0.237061	0.510742	-0.138772	-0.714864	0.059977	-0.682726
48764		9.739197	1.121257	-0.306542	0.021838	-0.011616	-0.002797	-0.775879	-0.225586	0.511230	-0.138573	-0.715001	0.059873	-0.682632
48765		9.729232	1.102109	-0.274831	0.009869	-0.011736	-0.004429	-0.779785	-0.227539	0.510742	-0.138461	-0.715122	0.059812	-0.682533
48766		9.734095	1.142810	-0.299634	0.013127	-0.005683	-0.004847	-0.778320	-0.231934	0.511963	-0.138337	-0.715193	0.059728	-0.682491
48767		9.756707	1.153216	-0.321901	0.013854	-0.000929	-0.005429	-0.784668	-0.239014	0.514648	-0.138225	-0.715228	0.059632	-0.682485
48768		9.744591	1.163909	-0.304481	0.004676	-0.005031	-0.004858	-0.783691	-0.236084	0.512695	-0.138208	-0.715280	0.059653	-0.682432
48769		9.710848	1.102876	-0.342041	-0.005560	-0.004825	-0.002976	-0.775391	-0.232422	0.504883	-0.138260	-0.715310	0.059775	-0.682380
48770		9.727708	1.153862	-0.347964	-0.010077	-0.006818	-0.000406	-0.778809	-0.236572	0.510010	-0.138330	-0.715344	0.059967	-0.682314
48771		9.748971	1.146109	-0.320353	-0.007177	-0.002267	-0.003358	-0.773193	-0.229492	0.512695	-0.138406	-0.715350	0.060099	-0.682280
48772		9.740178	1.099164	-0.301841	-0.010208	-0.005795	-0.006173	-0.775146	-0.237549	0.510254	-0.138502	-0.715389	0.060188	-0.682212
48773		9.755554	1.092803	-0.329595	-0.010983	-0.000043	-0.004613	-0.787109	-0.226318	0.520264	-0.138625	-0.715373	0.060331	-0.682191
48774		9.762676	1.117431	-0.311385	-0.004332	-0.002288	-0.001512	-0.775146	-0.235107	0.509521	-0.138612	-0.715387	0.060389	-0.682174
48775		9.735162	1.094101	-0.338574	-0.002113	-0.004720	0.000800	-0.779053	-0.235840	0.511719	-0.138600	-0.715421	0.060508	-0.682130
48776		9.736264	1.092718	-0.307230	-0.002500	-0.004066	0.001276	-0.783936	-0.247559	0.513672	-0.138589	-0.715448	0.060635	-0.682093
48777		9.743493	1.102667	-0.313748	-0.006847	-0.003053	0.001572	-0.778809	-0.231934	0.517090	-0.138650	-0.715458	0.060844	-0.682052
48778		9.726849	1.118161	-0.307182	-0.012997	-0.003028	0.000518	-0.785156	-0.232422	0.518066	-0.138716	-0.715464	0.061013	-0.682016
48779		9.743477	1.102643	-0.314306	-0.010783	-0.000408	-0.001005	-0.783936	-0.237061	0.510986	-0.138781	-0.715450	0.061156	-0.682005
48780		9.763713	1.082197	-0.341949	-0.010169	0.000861	-0.000272	-0.776367	-0.228516	0.515625	-0.138863	-0.715418	0.061345	-0.682005
48781		9.747071	1.091161	-0.346457	-0.002818	0.001697	0.000202	-0.773193	-0.236084	0.508301	-0.138834	-0.715403	0.061403	-0.682022
48782		9.735144	1.093938	-0.339629	0.001872	0.001654	-0.000809	-0.775146	-0.234131	0.508057	-0.138810	-0.715391	0.061469	-0.682034
48783		9.722080	1.104833	-0.353267	-0.006150	0.000024	-0.001054	-0.776855	-0.232422	0.507812	-0.138854	-0.715377	0.061602	-0.682027
48784		9.739796	1.081828	-0.339381	-0.005310	0.003828	-0.003554	-0.777588	-0.227295	0.510010	-0.138910	-0.715332	0.061698	-0.682054
48785		9.739685	1.096530	-0.314721	-0.008685	-0.000669	-0.005659	-0.786865	-0.238525	0.520508	-0.138989	-0.715324	0.061782	-0.682039
48786		9.748947	1.072648	-0.314495	-0.001316	0.011957	-0.010799	-0.781250	-0.232422	0.511719	-0.139076	-0.715231	0.061747	-0.682122
48787		9.753501	1.048749	-0.336229	0.008951	0.013444	-0.010637	-0.776367	-0.239990	0.516602	-0.139066	-0.715136	0.061629	-0.682234
48788		9.739147	1.096433	-0.320441	0.018556	0.004641	-0.007028	-0.782471	-0.234863	0.513672	-0.138943	-0.715142	0.061468	-0.682267
48789		9.746249	1.107896	-0.325451	0.007059	0.004445	-0.003603	-0.778809	-0.236572	0.508301	-0.138887	-0.715117	0.061446	-0.682306
48790		9.749815	1.110426	-0.333161	-0.003168	0.005779	-0.002919	-0.780029	-0.239746	0.510010	-0.138933	-0.715059	0.061541	-0.682349
48791		9.724498	1.078822	-0.305724	-0.014520	0.002470	-0.004426	-0.781250	-0.236084	0.513916	-0.139098	-0.715013	0.061731	-0.682347
48792		9.744381	1.027563	-0.273830	-0.008785	0.012060	-0.009357	-0.774658	-0.236572	0.503662	-0.139240	-0.714902	0.061778	-0.682430
48793		9.740880	1.073609	-0.296551	0.005270	0.004602	-0.006150	-0.775146	-0.245605	0.503662	-0.139242	-0.714870	0.061783	-0.682463
48794		9.752747	1.065517	-0.313720	0.003779	0.006737	-0.005208	-0.779297	-0.236084	0.511719	-0.139283	-0.714816	0.061842	-0.682506
48795		9.768132	1.092713	-0.279010	-0.003403	0.008294	-0.003517	-0.784668	-0.237061	0.505127	-0.139326	-0.714742	0.061905	-0.682569
48796		9.752579	1.081049	-0.285835	-0.009178	0.006515	-0.003855	-0.774414	-0.240479	0.517334	-0.139442	-0.714660	0.062066	-0.682616
48797		9.721451	1.070302	-0.277487	0.001088	0.008009	-0.003684	-0.782959	-0.240723	0.508789	-0.139446	-0.714609	0.062064	-0.682669
48798		9.723834	1.101174	-0.268606	0.003475	0.008589	-0.003644	-0.780518	-0.236572	0.509521	-0.139452	-0.714539	0.062106	-0.682738
48799		9.754810	1.120519	-0.261533	0.005341	0.004659	-0.003864	-0.775391	-0.231201	0.504150	-0.139422	-0.714508	0.062109	-0.682775
48800		9.759494	1.114784	-0.248822	0.002003	0.006817	-0.000069	-0.783203	-0.233398	0.502686	-0.139381	-0.714448	0.062163	-0.682842
48801		9.740458	1.093607	-0.259453	-0.003255	0.003965	0.000437	-0.775146	-0.235107	0.507080	-0.139395	-0.714393	0.062306	-0.682883
48802		9.733297	1.076797	-0.264699	-0.002796	0.003977	-0.002198	-0.782227	-0.232666	0.512939	-0.139420	-0.714355	0.062386	-0.682910
48803		9.729647	1.075328	-0.255364	0.008266	0.000262	-0.000342	-0.784180	-0.234131	0.509033	-0.139310	-0.714369	0.062371	-0.682920
48804		9.735589	1.120822	-0.232394	0.010951	0.009011	-0.001836	-0.772949	-0.232178	0.509033	-0.139211	-0.714306	0.062337	-0.683009
48805		9.744035	1.109450	-0.240006	0.011090	0.009127	0.002731	-0.778564	-0.242920	0.513184	-0.139058	-0.714250	0.062306	-0.683102
48806		9.748974	1.082541	-0.263314	0.005868	0.004119	0.000229	-0.777344	-0.234375	0.513428	-0.139005	-0.714231	0.062344	-0.683129
48807		9.715350	1.048360	-0.251540	0.004470	-0.001360	-0.006654	-0.784912	-0.228760	0.515625	-0.138985	-0.714262	0.062301	-0.683104
48808		9.739096	1.044637	-0.264377	0.015886	0.002612	-0.007292	-0.781250	-0.230957	0.502930	-0.138851	-0.714276	0.062133	-0.683132
48809		9.749545	1.079045	-0.242866	0.015204	0.001279	-0.010309	-0.775391	-0.239502	0.513428	-0.138784	-0.714287	0.062014	-0.683145
48810		9.745623	1.079875	-0.234081	0.013546	0.001009	-0.011538	-0.782471	-0.239258	0.512695	-0.138746	-0.714320	0.061866	-0.683132
48811		9.740608	1.088846	-0.245743	0.015320	0.000315	-0.012230	-0.783447	-0.237793	0.505615	-0.138704	-0.714354	0.061719	-0.683118
48812		9.758326	1.120094	-0.254595	0.005656	-0.001647	-0.006031	-0.778809	-0.234131	0.506348	-0.138705	-0.714372	0.061747	-0.683097
48813		9.739133	1.100175	-0.266971	0.002822	-0.001095	-0.004638	-0.784912	-0.231201	0.515381	-0.138702	-0.714384	0.061780	-0.683082
48814		9.739011	1.101255	-0.266985	0.000142	0.001320	-0.004320	-0.784912	-0.232910	0.509033	-0.138693	-0.714378	0.061789	-0.683088
48815		9.740300	1.126797	-0.304519	-0.000221	-0.001327	-0.005651	-0.774902	-0.226074	0.506592	-0.138718	-0.714386	0.061835	-0.683071
48816		9.729291	1.116247	-0.290207	-0.001549	-0.001771	-0.006394	-0.779297	-0.234619	0.512695	-0.138733	-0.714402	0.061845	-0.683051
48817		9.733640	1.125508	-0.254984	-0.003724	-0.000970	-0.008472	-0.775635	-0.235596	0.508057	-0.138809	-0.714414	0.061869	-0.683020
48818		9.745343	1.125148	-0.261295	-0.000270	0.000888	-0.010332	-0.775879	-0.238525	0.506104	-0.138883	-0.714414	0.061863	-0.683006
48819		9.740478	1.120356	-0.296665	-0.006369	-0.000720	-0.011159	-0.779297	-0.239258	0.507812	-0.139033	-0.714415	0.061928	-0.682969
48820		9.746097	1.095765	-0.287903	-0.011901	0.007280	-0.013282	-0.779053	-0.231934	0.509766	-0.139257	-0.714338	0.062009	-0.682996
48821		9.733723	1.108625	-0.267329	-0.010176	0.008207	-0.014212	-0.780029	-0.237549	0.511475	-0.139438	-0.714261	0.062019	-0.683039
48822		9.750068	1.103179	-0.260632	-0.012615	0.002521	-0.012702	-0.789551	-0.242188	0.503174	-0.139640	-0.714229	0.062088	-0.683025
48823		9.739127	1.080568	-0.268679	-0.016747	0.005442	-0.011206	-0.781738	-0.237549	0.505615	-0.139913	-0.714140	0.062290	-0.683043
48824		9.754544	1.075733	-0.294916	-0.009334	0.000238	-0.011089	-0.778320	-0.236328	0.509033	-0.140083	-0.714121	0.062380	-0.683020
48825		9.755226	1.077624	-0.261447	0.000987	0.007990	-0.013655	-0.776855	-0.231201	0.511719	-0.140171	-0.714066	0.062312	-0.683066
48826		9.756222	1.112045	-0.284323	0.008650	0.014252	-0.013268	-0.780762	-0.237549	0.514160	-0.140163	-0.713976	0.062127	-0.683178
48827		9.734366	1.143309	-0.274325	0.000517	0.006839	-0.009823	-0.779785	-0.234619	0.504883	-0.140215	-0.713933	0.062080	-0.683217
48828		9.765438	1.137592	-0.315311	-0.018356	0.003531	-0.012204	-0.785156	-0.241943	0.512207	-0.140461	-0.713873	0.062212	-0.683217
48829		9.742404	1.072329	-0.283283	-0.025905	0.003013	-0.016301	-0.784668	-0.238037	0.500244	-0.140825	-0.713814	0.062377	-0.683189
48830		9.742044	1.023646	-0.260409	-0.014407	0.002638	-0.015258	-0.778076	-0.241211	0.507080	-0.141085	-0.713758	0.062498	-0.683182
48831		9.742865	1.064833	-0.272813	0.001873	0.003989	-0.010883	-0.785889	-0.248291	0.509033	-0.141155	-0.713735	0.062473	-0.683194
48832		9.760345	1.103202	-0.267857	0.007189	0.006916	-0.009099	-0.782227	-0.240723	0.507568	-0.141195	-0.713690	0.062456	-0.683234
48833		9.761211	1.097384	-0.246334	0.001942	0.004049	-0.008600	-0.784912	-0.235352	0.494629	-0.141243	-0.713662	0.062455	-0.683254
48834		9.722972	1.070378	-0.245241	0.000163	0.004732	-0.007909	-0.784912	-0.239014	0.507812	-0.141310	-0.713598	0.062526	-0.683300
48835		9.729809	1.089328	-0.238173	0.013303	0.002964	-0.007679	-0.789795	-0.239014	0.504883	-0.141241	-0.713596	0.062433	-0.683325
48836		9.752388	1.100764	-0.258866	0.024011	0.003359	-0.008926	-0.781006	-0.241699	0.509521	-0.141097	-0.713600	0.062266	-0.683367
48837		9.734117	1.132945	-0.260065	0.023480	0.003283	-0.008575	-0.779297	-0.232910	0.502686	-0.140952	-0.713621	0.062074	-0.683392
48838		9.734860	1.179532	-0.261119	0.024751	0.005343	-0.008066	-0.784912	-0.239990	0.505127	-0.140769	-0.713616	0.061863	-0.683454
48839		9.750169	1.187229	-0.263678	0.016816	0.004879	-0.007250	-0.780762	-0.233887	0.500488	-0.140681	-0.713598	0.061764	-0.683499
48840		9.737077	1.146576	-0.255069	0.012592	0.005455	-0.005645	-0.778076	-0.239014	0.505127	-0.140598	-0.713564	0.061700	-0.683558
48841		9.722870	1.119877	-0.254596	0.008101	0.005137	-0.001045	-0.788574	-0.237793	0.510742	-0.140527	-0.713532	0.061709	-0.683605
48842		9.749789	1.150660	-0.215100	0.012591	0.004866	-0.001202	-0.777832	-0.239990	0.500488	-0.140405	-0.713508	0.061668	-0.683659
48843		9.730810	1.136153	-0.213951	0.014659	0.007309	0.000400	-0.778320	-0.228027	0.508057	-0.140282	-0.713461	0.061661	-0.683735
48844		9.719130	1.125121	-0.230621	0.014306	0.004658	-0.000930	-0.775146	-0.232666	0.509277	-0.140098	-0.713449	0.061548	-0.683794
48845		9.739322	1.171292	-0.255194	0.009893	0.006715	-0.004132	-0.776855	-0.238037	0.511719	-0.140001	-0.713421	0.061451	-0.683852
48846		9.738927	1.185966	-0.229639	0.007126	0.007915	-0.004904	-0.783447	-0.230469	0.505127	-0.139956	-0.713381	0.061387	-0.683909
48847		9.736726	1.156765	-0.235118	0.004061	0.004267	-0.002322	-0.782471	-0.236572	0.504150	-0.139899	-0.713345	0.061393	-0.683957
48848		9.729855	1.133348	-0.252517	0.002536	0.003577	-0.002231	-0.776611	-0.240967	0.508057	-0.139885	-0.713312	0.061448	-0.683990
48849		9.743619	1.175072	-0.226966	0.001295	0.005467	-0.003094	-0.776855	-0.244385	0.499268	-0.139899	-0.713276	0.061488	-0.684021
48850		9.740087	1.167076	-0.228811	-0.004590	0.004637	-0.001526	-0.779297	-0.222900	0.504395	-0.139990	-0.713218	0.061661	-0.684047
48851		9.733060	1.150556	-0.233834	-0.004329	0.004395	-0.003322	-0.785889	-0.243408	0.504395	-0.139977	-0.713172	0.061680	-0.684096
48852		9.741375	1.146749	-0.230288	-0.014987	0.001255	-0.000646	-0.779053	-0.233887	0.504883	-0.140138	-0.713124	0.061943	-0.684090
48853		9.742753	1.125438	-0.233014	-0.009089	0.003772	-0.000171	-0.782715	-0.233398	0.504883	-0.140191	-0.713074	0.062083	-0.684118
48854		9.733187	1.098731	-0.208458	-0.003245	0.007905	0.000066	-0.779297	-0.230713	0.508545	-0.140192	-0.712995	0.062174	-0.684192
48855		9.751195	1.120991	-0.227228	0.000433	0.004987	0.001214	-0.781982	-0.244385	0.504639	-0.140124	-0.712957	0.062204	-0.684242
48856		9.746392	1.133583	-0.225608	0.002012	0.004060	0.001364	-0.774414	-0.235840	0.506836	-0.140119	-0.712920	0.062324	-0.684272
48857		9.732758	1.137691	-0.282797	-0.002466	0.006015	0.003561	-0.781982	-0.230225	0.511230	-0.140084	-0.712870	0.062422	-0.684322
48858		9.750298	1.133765	-0.231880	-0.001087	0.004848	0.004547	-0.775391	-0.234863	0.508789	-0.139993	-0.712832	0.062483	-0.684375
48859		9.746584	1.137982	-0.209842	-0.002678	0.004088	0.002354	-0.780762	-0.235840	0.504395	-0.139960	-0.712803	0.062561	-0.684405
48860		9.738635	1.128415	-0.235641	-0.000446	0.002268	0.000234	-0.780273	-0.237793	0.510742	-0.139945	-0.712779	0.062648	-0.684424
48861		9.753052	1.096580	-0.224457	-0.005786	0.003774	-0.000950	-0.782471	-0.233887	0.502686	-0.139981	-0.712748	0.062740	-0.684441
48862		9.734081	1.082007	-0.223491	-0.004141	0.002917	0.001483	-0.782959	-0.227051	0.507568	-0.139984	-0.712706	0.062873	-0.684472
48863		9.743705	1.062350	-0.212181	0.007206	0.000696	0.003625	-0.782959	-0.233154	0.505859	-0.139818	-0.712711	0.062868	-0.684501
48864		9.755858	1.058635	-0.217899	0.011738	0.006063	0.005161	-0.779785	-0.232910	0.508057	-0.139640	-0.712673	0.062872	-0.684576
48865		9.759460	1.118327	-0.235412	0.016302	0.006993	0.006093	-0.783936	-0.242432	0.512939	-0.139407	-0.712644	0.062823	-0.684659
48866		9.729744	1.142914	-0.241575	0.018142	0.005822	0.004448	-0.780518	-0.231201	0.510254	-0.139209	-0.712633	0.062779	-0.684714
48867		9.731217	1.120561	-0.244879	0.004555	-0.000203	0.002132	-0.777100	-0.229248	0.505615	-0.139097	-0.712651	0.062791	-0.684717
48868		9.724082	1.110024	-0.238996	-0.000912	0.001718	-0.000378	-0.783691	-0.232910	0.512939	-0.139059	-0.712641	0.062833	-0.684732
48869		9.744327	1.057458	-0.208004	0.006711	0.005158	-0.000824	-0.790283	-0.223633	0.501465	-0.138963	-0.712621	0.062793	-0.684776
48870		9.756162	1.061884	-0.201400	0.012450	0.004128	-0.001309	-0.781494	-0.231934	0.499023	-0.138810	-0.712588	0.062740	-0.684846
48871		9.765998	1.081976	-0.235623	0.007431	0.004331	-0.000810	-0.783691	-0.230225	0.501221	-0.138741	-0.712551	0.062769	-0.684896
48872		9.758302	1.092142	-0.192850	0.002349	0.005018	0.000649	-0.788574	-0.228271	0.503906	-0.138693	-0.712500	0.062838	-0.684952
48873		9.759739	1.070133	-0.195794	0.005624	0.001620	0.003477	-0.788330	-0.230225	0.503906	-0.138574	-0.712481	0.062896	-0.684991
48874		9.730574	1.021828	-0.217262	0.009035	-0.001058	0.006427	-0.792969	-0.229004	0.500488	-0.138409	-0.712488	0.062966	-0.685010
48875		9.733859	1.042526	-0.190264	0.014941	0.002582	0.005707	-0.783936	-0.222168	0.507080	-0.138209	-0.712462	0.063001	-0.685074
48876		9.736360	1.064062	-0.195622	0.019081	0.000210	0.007473	-0.788330	-0.232422	0.509766	-0.137896	-0.712488	0.062921	-0.685117
48877		9.750942	1.082439	-0.207584	0.017757	0.000313	0.009968	-0.781982	-0.233154	0.507812	-0.137625	-0.712509	0.062929	-0.685150
48878		9.749231	1.095568	-0.248972	0.016485	-0.001752	0.009463	-0.781738	-0.231934	0.505859	-0.137375	-0.712549	0.062949	-0.685156
48879		9.738394	1.088477	-0.223079	0.008565	-0.001614	0.005820	-0.784180	-0.227539	0.500732	-0.137230	-0.712574	0.063012	-0.685154
48880		9.736167	1.064081	-0.218637	0.005314	-0.003780	0.003594	-0.778076	-0.237549	0.498291	-0.137127	-0.712599	0.063102	-0.685140
48881		9.729225	1.046187	-0.225704	0.006848	-0.001964	0.002303	-0.783203	-0.227539	0.510498	-0.137080	-0.712615	0.063220	-0.685122
48882		9.742093	1.042118	-0.200354	0.012394	-0.002111	0.001455	-0.783447	-0.228271	0.508545	-0.136906	-0.712661	0.063168	-0.685113
48883		9.756664	1.055378	-0.224400	0.013473	0.000842	0.001593	-0.790771	-0.229980	0.506836	-0.136735	-0.712679	0.063123	-0.685133
48884		9.753210	1.046236	-0.227996	0.010805	-0.002315	0.002504	-0.780273	-0.229248	0.501465	-0.136599	-0.712705	0.063155	-0.685130
48885		9.756937	1.047345	-0.237476	0.004413	-0.000931	0.002012	-0.781494	-0.226074	0.510986	-0.136532	-0.712711	0.063238	-0.685130
48886		9.744992	1.049285	-0.231383	0.002573	0.000244	0.003654	-0.780762	-0.228516	0.502441	-0.136424	-0.712722	0.063278	-0.685137
48887		9.729693	1.035899	-0.240632	0.001290	-0.003505	0.001113	-0.787598	-0.229736	0.509521	-0.136385	-0.712747	0.063377	-0.685109
48888		9.765418	1.041377	-0.236199	0.001566	-0.002062	0.001356	-0.780273	-0.232422	0.503662	-0.136335	-0.712765	0.063457	-0.685092
48889		9.754742	1.022323	-0.233873	-0.004434	-0.001331	0.000393	-0.779541	-0.227539	0.507080	-0.136374	-0.712765	0.063611	-0.685070
48890		9.743716	1.017199	-0.207251	-0.003101	0.000246	-0.000063	-0.777344	-0.224609	0.509277	-0.136370	-0.712763	0.063696	-0.685066
48891		9.739246	1.016277	-0.230128	0.004066	0.004806	0.000915	-0.780518	-0.223389	0.504883	-0.136273	-0.712742	0.063686	-0.685108
48892		9.745291	1.041252	-0.243227	0.002287	0.004941	-0.001643	-0.786133	-0.222168	0.506836	-0.136223	-0.712704	0.063697	-0.685156
48893		9.755941	1.060661	-0.245093	-0.002688	0.001854	-0.002940	-0.777832	-0.221680	0.509766	-0.136218	-0.712682	0.063741	-0.685176
48894		9.734505	1.023601	-0.239350	-0.004551	0.000210	-0.002134	-0.790283	-0.225830	0.510254	-0.136203	-0.712688	0.063767	-0.685170
48895		9.744064	0.998961	-0.239782	0.001755	0.003759	-0.007776	-0.774658	-0.227783	0.505371	-0.136215	-0.712663	0.063737	-0.685197
48896		9.752047	1.003457	-0.224290	0.006580	0.004435	-0.008639	-0.779541	-0.227539	0.508789	-0.136204	-0.712653	0.063655	-0.685217
48897		9.757888	1.030374	-0.237113	0.014802	0.009128	-0.008359	-0.781738	-0.230713	0.502686	-0.136114	-0.712616	0.063488	-0.685289
48898		9.749208	1.043460	-0.225940	0.009976	0.008448	-0.007496	-0.788086	-0.229248	0.500977	-0.136097	-0.712560	0.063432	-0.685355
48899		9.764007	1.044667	-0.272537	0.005290	0.000668	-0.003494	-0.780518	-0.230713	0.506836	-0.136083	-0.712547	0.063484	-0.685367
48900		9.734060	1.018951	-0.257460	-0.004932	0.001992	-0.002868	-0.789307	-0.223389	0.503418	-0.136141	-0.712529	0.063579	-0.685366
48901		9.754002	1.026331	-0.236535	-0.006519	0.001791	-0.001820	-0.778076	-0.231201	0.513672	-0.136179	-0.712488	0.063699	-0.685389
48902		9.767161	1.009541	-0.233663	-0.002615	0.003056	-0.001861	-0.777344	-0.222168	0.516113	-0.136187	-0.712484	0.063735	-0.685389
48903		9.751642	1.003843	-0.229459	-0.003462	0.004849	0.000039	-0.781494	-0.226318	0.505371	-0.136129	-0.712468	0.063725	-0.685417
48904		9.732497	0.995883	-0.216300	0.003660	0.004330	0.002590	-0.787842	-0.233398	0.498291	-0.136045	-0.712436	0.063776	-0.685462
48905		9.753139	1.033939	-0.253131	0.015881	0.005372	0.001283	-0.781006	-0.221924	0.504150	-0.135933	-0.712392	0.063811	-0.685528
48906		9.780403	1.102847	-0.259587	0.020852	0.008456	0.002582	-0.788574	-0.228760	0.509033	-0.135680	-0.712352	0.063691	-0.685630
48907		9.751721	1.119487	-0.244966	0.013453	0.009210	0.009510	-0.789307	-0.223389	0.503662	-0.135466	-0.712289	0.063725	-0.685736
48908		9.723849	1.055610	-0.256140	-0.005854	0.004262	0.007671	-0.782227	-0.228271	0.504883	-0.135424	-0.712223	0.063922	-0.685793
48909		9.728858	1.041625	-0.254615	-0.009757	0.010259	0.001449	-0.785645	-0.223389	0.498047	-0.135494	-0.712118	0.064088	-0.685873
48910		9.742829	1.023680	-0.217484	-0.003354	0.009442	-0.002495	-0.785645	-0.229736	0.501221	-0.135536	-0.712014	0.064187	-0.685964
48911		9.742327	1.038799	-0.191272	0.007748	0.009708	-0.008621	-0.783447	-0.228027	0.504883	-0.135556	-0.711940	0.064149	-0.686040
48912		9.771119	1.074950	-0.224598	0.001315	0.006015	-0.007551	-0.780273	-0.234131	0.503174	-0.135599	-0.711897	0.064144	-0.686076
48913		9.764983	1.051364	-0.208271	-0.011270	0.010139	-0.002910	-0.782471	-0.231934	0.502930	-0.135754	-0.711795	0.064317	-0.686135
48914		9.767750	1.008456	-0.212823	-0.018301	0.007420	0.002707	-0.784424	-0.228516	0.502441	-0.135909	-0.711697	0.064597	-0.686180
48915		9.743754	0.960512	-0.175284	-0.030423	0.011524	0.004716	-0.784912	-0.224365	0.511230	-0.136140	-0.711539	0.064977	-0.686263
48916		9.743882	0.959759	-0.172255	-0.033756	0.007018	0.002609	-0.783691	-0.219238	0.503418	-0.136362	-0.711436	0.065297	-0.686295
48917		9.759927	0.971602	-0.128794	-0.039650	0.003950	-0.001119	-0.789795	-0.227783	0.497803	-0.136657	-0.711337	0.065649	-0.686305
48918		9.734979	0.926580	-0.124634	-0.046899	0.004305	-0.008242	-0.780273	-0.219727	0.509033	-0.137146	-0.711206	0.066093	-0.686301
48919		9.741171	0.888337	-0.138533	-0.039414	0.005890	-0.015280	-0.782471	-0.230225	0.494629	-0.137536	-0.711122	0.066265	-0.686293
48920		9.779707	0.914176	-0.115503	-0.025309	0.009169	-0.021810	-0.784424	-0.225830	0.497559	-0.137962	-0.711002	0.066398	-0.686319
48921		9.764154	0.900301	-0.133960	-0.027309	0.006238	-0.024378	-0.778809	-0.230469	0.506592	-0.138387	-0.710911	0.066487	-0.686319
48922		9.783085	0.907341	-0.156365	-0.039443	0.000237	-0.024653	-0.791748	-0.235352	0.500732	-0.138907	-0.710881	0.066641	-0.686231
48923		9.760073	0.890389	-0.159515	-0.049809	-0.007595	-0.024414	-0.788330	-0.231934	0.504395	-0.139561	-0.710866	0.066990	-0.686080
48924		9.762775	0.859445	-0.123688	-0.042758	-0.009865	-0.026182	-0.775635	-0.230957	0.506836	-0.140125	-0.710898	0.067211	-0.685910
48925		9.771603	0.899573	-0.135338	-0.025477	-0.003339	-0.026263	-0.788330	-0.232422	0.501465	-0.140514	-0.710929	0.067215	-0.685797
48926		9.759231	0.948387	-0.174650	-0.021949	0.000304	-0.031457	-0.779541	-0.232422	0.504639	-0.140949	-0.710907	0.067205	-0.685732
48927		9.736109	0.979312	-0.211368	-0.022888	-0.002492	-0.034727	-0.781494	-0.241943	0.502197	-0.141397	-0.710931	0.067133	-0.685622
48928		9.748022	0.983769	-0.186238	-0.019627	-0.009836	-0.031560	-0.780518	-0.237305	0.508545	-0.141843	-0.711011	0.067143	-0.685446
48929		9.745925	1.006432	-0.196873	0.002052	-0.011474	-0.033378	-0.786133	-0.239258	0.502686	-0.142057	-0.711162	0.066884	-0.685270
48930		9.740359	1.020574	-0.211074	0.018783	-0.008912	-0.032767	-0.775146	-0.234863	0.491211	-0.142152	-0.711296	0.066543	-0.685145
48931		9.733210	1.056353	-0.221127	0.023946	-0.006114	-0.035525	-0.781982	-0.234619	0.500488	-0.142230	-0.711405	0.066145	-0.685054
48932		9.732512	1.116508	-0.211625	0.031897	0.002260	-0.037006	-0.780029	-0.233643	0.500732	-0.142229	-0.711469	0.065612	-0.685039
48933		9.738293	1.142357	-0.206039	0.031812	-0.001226	-0.035696	-0.786865	-0.239258	0.498779	-0.142206	-0.711564	0.065085	-0.684995
48934		9.752264	1.151424	-0.254970	0.035171	-0.002839	-0.036226	-0.779541	-0.239014	0.494141	-0.142200	-0.711663	0.064588	-0.684940
48935		9.728959	1.097870	-0.214499	0.026829	-0.007215	-0.037853	-0.787109	-0.240723	0.498047	-0.142287	-0.711785	0.064165	-0.684835
48936		9.751409	1.115824	-0.204843	0.026827	-0.002159	-0.039401	-0.785156	-0.242432	0.506836	-0.142393	-0.711861	0.063725	-0.684775
48937		9.757402	1.135121	-0.211843	0.040825	-0.000579	-0.034897	-0.786133	-0.245605	0.501709	-0.142317	-0.711969	0.063154	-0.684732
48938		9.751736	1.148913	-0.224681	0.052969	0.000468	-0.030793	-0.779053	-0.239502	0.506348	-0.142134	-0.712070	0.062567	-0.684718
48939		9.743476	1.190445	-0.254085	0.058504	0.003168	-0.023109	-0.776367	-0.236572	0.500000	-0.141784	-0.712174	0.061919	-0.684742
48940		9.741481	1.260748	-0.253844	0.061598	-0.002134	-0.013796	-0.781006	-0.235352	0.502441	-0.141327	-0.712309	0.061354	-0.684747
48941		9.740015	1.322085	-0.266342	0.059474	-0.001295	-0.005918	-0.787598	-0.236084	0.502441	-0.140814	-0.712424	0.060870	-0.684776
48942		9.731429	1.378320	-0.260326	0.049693	0.003880	-0.000615	-0.784912	-0.241455	0.507568	-0.140361	-0.712462	0.060535	-0.684859
48943		9.715041	1.430157	-0.267562	0.034311	0.007430	0.008886	-0.781982	-0.234131	0.500732	-0.139986	-0.712452	0.060410	-0.684958
48944		9.714796	1.479035	-0.288639	0.009895	0.009164	0.018792	-0.786865	-0.237305	0.512939	-0.139723	-0.712364	0.060571	-0.685088
48945		9.734723	1.482256	-0.297131	-0.012480	0.019518	0.019832	-0.783203	-0.234375	0.505615	-0.139646	-0.712171	0.060876	-0.685278
48946		9.751485	1.437915	-0.260474	-0.040397	0.018150	0.022821	-0.785889	-0.240234	0.502686	-0.139794	-0.711928	0.061462	-0.685448
48947		9.750964	1.310860	-0.224215	-0.049524	0.025276	0.034366	-0.783447	-0.234375	0.500000	-0.139973	-0.711589	0.062269	-0.685691
48948		9.773820	1.183025	-0.221128	-0.045798	0.016845	0.051513	-0.782959	-0.230713	0.498291	-0.139935	-0.711315	0.063180	-0.685899
48949		9.808160	1.120039	-0.179505	-0.037004	0.016742	0.072964	-0.783936	-0.238281	0.496582	-0.139617	-0.711039	0.064192	-0.686156
48950		9.874257	1.055624	-0.156615	-0.057912	0.011490	0.105150	-0.778809	-0.231934	0.501465	-0.139262	-0.710740	0.065737	-0.686392
48951		9.894271	1.075726	-0.125364	-0.107508	-0.000521	0.137643	-0.782959	-0.227539	0.498291	-0.139007	-0.710451	0.067942	-0.686527
48952		9.855712	0.928432	-0.022129	-0.183267	-0.005622	0.175087	-0.785645	-0.224365	0.500000	-0.139090	-0.710026	0.071142	-0.686626
48953		9.886595	0.669197	-0.203584	-0.270597	-0.023529	0.225133	-0.786377	-0.226562	0.502930	-0.139481	-0.709552	0.075545	-0.686567
48954		9.885249	0.466235	-0.061587	-0.275292	-0.001615	0.277693	-0.786133	-0.226562	0.499023	-0.139489	-0.708826	0.080411	-0.686762
48955		9.754455	0.183033	-0.110527	-0.238721	-0.037329	0.345709	-0.791504	-0.212891	0.499512	-0.138569	-0.708380	0.085649	-0.686775
48956		9.735243	0.200673	-0.116914	-0.130034	-0.053044	0.414608	-0.782471	-0.209717	0.498047	-0.136014	-0.708161	0.090540	-0.686885
48957		9.645599	0.087209	-0.102002	-0.049152	-0.035448	0.495555	-0.793945	-0.208008	0.494629	-0.132083	-0.707824	0.095424	-0.687338
48958		9.593828	0.133139	-0.175596	0.024807	-0.063672	0.587967	-0.789551	-0.183838	0.492676	-0.126731	-0.707680	0.100623	-0.687753
48959		9.557476	0.203662	-0.239113	0.074118	-0.069846	0.684413	-0.793945	-0.181396	0.502197	-0.120027	-0.707503	0.106191	-0.688300
48960		9.387652	0.157685	-0.359332	0.104015	-0.068986	0.793327	-0.795898	-0.160889	0.500732	-0.112165	-0.707172	0.112482	-0.688967
48961		9.245242	-0.066647	-0.472460	0.179498	-0.055355	0.905995	-0.799072	-0.130371	0.504150	-0.102660	-0.706579	0.119085	-0.689946
48962		9.105298	-0.215995	-0.652569	0.269537	0.009467	1.038060	-0.795166	-0.107422	0.510010	-0.091233	-0.705242	0.125916	-0.691705
48963		9.028133	0.054500	-0.305880	0.448375	0.003057	1.105927	-0.804199	-0.074707	0.509033	-0.077595	-0.703946	0.131740	-0.693602
48964		9.059686	0.442220	-0.576943	0.373379	0.149101	1.046141	-0.794922	-0.054932	0.497559	-0.065343	-0.701245	0.137526	-0.696471
48965		8.784033	0.449489	0.318423	0.294982	0.365226	0.981478	-0.803711	-0.025146	0.496338	-0.054746	-0.696571	0.143262	-0.700905
48966		8.708676	-0.623417	0.364651	0.062131	0.338928	1.047362	-0.800537	-0.000488	0.488770	-0.045489	-0.691735	0.151555	-0.704602
48967		9.350662	-1.667507	0.684959	0.293060	0.573256	1.157719	-0.811523	0.021240	0.478516	-0.033687	-0.684603	0.158596	-0.710655
48968		8.632410	-1.306086	1.005108	0.332819	0.802279	1.297862	-0.813721	0.048096	0.452881	-0.020808	-0.674934	0.166393	-0.718572
48969		7.462996	-1.224361	0.563718	-0.024311	0.822781	1.459760	-0.811768	0.093018	0.440186	-0.009563	-0.664349	0.178729	-0.725675
48970		6.985997	-2.004615	1.268333	-0.513791	0.729367	1.359688	-0.814697	0.113281	0.429932	-0.003059	-0.654497	0.194594	-0.730587
48971		8.036020	-3.927966	0.022622	-0.955188	0.517160	1.184549	-0.820801	0.131348	0.421143	-0.001261	-0.646719	0.212993	-0.732384
48972		9.306998	-4.971492	-0.028799	-0.541077	0.419701	1.065721	-0.821533	0.140381	0.418213	0.003057	-0.639943	0.226577	-0.734253
48973		8.872595	-3.966089	0.232603	-0.176764	0.320851	1.117384	-0.816895	0.177246	0.409912	0.011036	-0.633761	0.237182	-0.736186
48974		7.805703	-3.161406	0.187347	-0.017794	0.345066	1.121204	-0.811523	0.193848	0.410889	0.020245	-0.627188	0.246301	-0.738621
48975		7.559626	-3.099644	0.262235	-0.057074	0.227810	1.123124	-0.813721	0.215820	0.405518	0.029520	-0.621569	0.255716	-0.739858
48976		7.587429	-2.894459	0.463234	-0.009423	0.231421	1.144034	-0.806396	0.245850	0.398438	0.039340	-0.615701	0.264802	-0.741110
48977		7.351549	-3.624852	0.636492	-0.144697	0.180460	1.330651	-0.798096	0.274902	0.398682	0.050011	-0.609602	0.276480	-0.741244
48978		6.967688	-3.458469	0.834499	-0.160210	0.228675	1.414015	-0.784180	0.297119	0.389893	0.061160	-0.602594	0.288877	-0.741411
48979		7.384304	-4.682475	0.993470	-0.110588	0.238774	1.423547	-0.771973	0.326660	0.397217	0.072714	-0.595222	0.300800	-0.741581
48980		8.415149	-5.000417	1.010558	-0.073171	0.229131	1.363790	-0.769775	0.356934	0.390869	0.084013	-0.587947	0.311822	-0.741638
48981		9.301608	-5.278741	1.107922	0.135223	0.268338	1.327756	-0.748047	0.392090	0.388184	0.096331	-0.580055	0.320597	-0.742613
48982		9.028819	-5.479029	1.004857	0.218308	0.197932	1.331247	-0.733887	0.419189	0.378418	0.109550	-0.572541	0.328436	-0.743186
48983		8.461246	-6.160499	1.384715	0.201515	0.101685	1.318447	-0.729004	0.452393	0.374756	0.122894	-0.565833	0.336112	-0.742804
48984		8.193328	-7.036421	1.491247	0.310242	0.140536	1.199126	-0.705566	0.475342	0.369629	0.135703	-0.558952	0.341907	-0.743140
48985		7.981419	-7.230432	1.296525	0.373003	0.118730	1.121996	-0.697998	0.497070	0.363281	0.148299	-0.552367	0.346461	-0.743547
48986		7.477391	-7.914739	1.967259	0.269122	0.020979	0.998958	-0.676514	0.515381	0.363037	0.159424	-0.547308	0.350886	-0.742911
48987		6.930623	-9.595033	2.308774	0.179609	-0.099113	0.854223	-0.678223	0.541748	0.357910	0.169099	-0.544098	0.354862	-0.741240
48988		7.161364	-10.975907	2.533841	0.341413	-0.133961	0.690239	-0.659424	0.553467	0.360840	0.178486	-0.541532	0.356119	-0.740315
48989		7.905599	-10.988593	2.627360	0.567799	-0.084639	0.375853	-0.648682	0.565918	0.351807	0.186260	-0.539355	0.353237	-0.741368
48990		8.574142	-10.595130	2.694072	0.508389	-0.101956	0.102828	-0.654541	0.574463	0.351074	0.191169	-0.538649	0.349008	-0.742634
48991		9.507856	-9.952764	2.642918	0.246075	-0.076165	-0.115672	-0.650879	0.576416	0.348145	0.192165	-0.539266	0.345797	-0.743431
48992		9.873577	-9.752779	2.252766	-0.190602	-0.059724	-0.306981	-0.653809	0.570068	0.350586	0.188368	-0.541599	0.345385	-0.742898
48993		9.643840	-10.263253	2.668680	-0.613287	-0.078090	-0.483650	-0.661377	0.551514	0.361816	0.180140	-0.545831	0.347636	-0.740788
48994		9.250356	-10.956502	2.561034	-0.899140	-0.210552	-0.767275	-0.678223	0.530273	0.384277	0.167884	-0.553079	0.350244	-0.737054
48995		9.230461	-12.711855	2.763302	-0.659423	-0.268398	-1.041740	-0.686035	0.506348	0.388428	0.154972	-0.561428	0.348540	-0.734372
48996		10.054320	-14.049126	3.452317	-0.040312	-0.342094	-1.523039	-0.702637	0.479736	0.397217	0.142269	-0.571176	0.337523	-0.734572
48997		11.957706	-12.261523	3.849637	0.258339	-0.206856	-2.238137	-0.723633	0.433838	0.403076	0.124504	-0.581837	0.318690	-0.737835
48998		14.459235	-10.483500	3.878750	-0.136580	-0.300521	-2.938868	-0.755127	0.370117	0.393311	0.097687	-0.596150	0.297886	-0.739139
48999		18.289427	-9.882865	3.247734	-0.756348	-0.435657	-3.857274	-0.786377	0.281494	0.413086	0.058119	-0.614754	0.275214	-0.736856
49000		22.842874	-8.369523	1.735027	-1.095035	-0.336159	-4.671698	-0.816895	0.165283	0.419678	0.007984	-0.633635	0.248608	-0.732555
49001		23.497453	-3.692868	0.132409	-1.245949	-0.080243	-5.087010	-0.833984	0.046631	0.425049	-0.048059	-0.648944	0.219207	-0.726988
49002		17.530455	0.361807	-1.605831	-1.846801	-0.385041	-4.716455	-0.828857	-0.072998	0.429199	-0.104585	-0.662949	0.197533	-0.714522
49003		4.651065	0.574457	-3.899398	-1.345849	-0.165865	-4.543194	-0.817627	-0.185547	0.424072	-0.155589	-0.672722	0.171796	-0.702654
49004		-3.324475	1.860288	1.214747	-0.063965	-0.421426	-4.630004	-0.781982	-0.286377	0.425781	-0.195544	-0.685091	0.134016	-0.688805
49005		7.056799	-3.268232	0.792858	0.107571	-0.040185	-1.322436	-0.775391	-0.315674	0.424316	-0.205912	-0.687806	0.121927	-0.685316
49006		-0.620296	-7.146431	0.622147	-1.008560	0.297607	1.775590	-0.790039	-0.281250	0.416260	-0.199777	-0.679705	0.145141	-0.690670
49007		0.959015	2.815289	-0.568398	1.058732	0.169323	2.207212	-0.792480	-0.225830	0.410400	-0.171902	-0.676552	0.154344	-0.699218
49008		-1.700008	0.680055	-1.567317	-0.391771	0.386589	1.840948	-0.800293	-0.169189	0.398438	-0.159791	-0.668571	0.172544	-0.705484
49009		0.620286	-1.893759	-2.319187	0.101484	-0.567179	1.561186	-0.798340	-0.145264	0.399902	-0.143886	-0.670250	0.185874	-0.703926
49010		1.510379	-3.121282	-0.513730	1.599136	-0.143069	0.810482	-0.791016	-0.118408	0.414795	-0.122959	-0.672319	0.178896	-0.707717
49011		-0.089042	-0.716712	0.086118	2.037852	0.054959	0.187796	-0.808594	-0.093262	0.410889	-0.104228	-0.674312	0.162406	-0.712786
49012		-0.000902	3.463375	0.058459	2.074012	0.222258	-0.045919	-0.796387	-0.074707	0.396973	-0.087545	-0.674887	0.143301	-0.718560
49013		0.511163	3.718107	0.734360	1.731513	0.145839	-0.059813	-0.801270	-0.061523	0.402344	-0.073686	-0.675411	0.127144	-0.722651
49014		0.256524	3.479662	1.818002	0.576454	0.164605	-0.074822	-0.809570	-0.052490	0.403320	-0.069721	-0.674549	0.121230	-0.724863
49015		0.063415	1.735447	1.049682	-0.440954	0.165558	0.221723	-0.803955	-0.051270	0.396240	-0.071643	-0.672309	0.127015	-0.725765
49016		-0.240765	0.810223	-1.134407	-1.012275	-0.043754	0.351216	-0.803467	-0.057129	0.411377	-0.076849	-0.671175	0.139238	-0.724038
49017		-0.341370	0.870074	-0.998007	-1.355442	0.125684	0.315252	-0.810303	-0.062012	0.396240	-0.085535	-0.668079	0.154067	-0.722923
49018		-0.265396	-0.148850	0.425252	-1.185132	0.237225	0.376926	-0.814453	-0.064453	0.403320	-0.092433	-0.663852	0.167708	-0.722932
49019		-0.059092	-1.595022	2.263851	-0.881202	0.151414	0.613314	-0.822510	-0.066162	0.397705	-0.094473	-0.660111	0.180627	-0.722981
49020		0.578291	-1.060814	1.628633	-0.478052	-0.204490	0.981331	-0.823975	-0.043945	0.415771	-0.089039	-0.659104	0.193328	-0.721303
49021		1.211346	-0.808952	-2.438984	0.009326	-0.156590	1.237556	-0.822510	-0.023682	0.421875	-0.077317	-0.657459	0.203604	-0.721329
49022		0.748725	1.025716	-1.900813	0.924571	0.379177	1.201423	-0.830566	0.008789	0.410889	-0.059759	-0.651750	0.204768	-0.727819
49023		7.739104	-5.574278	4.224792	-0.708050	0.955898	2.193758	-0.837891	0.059082	0.409668	-0.047931	-0.636589	0.228313	-0.735072
49024		46.862465	-6.274752	4.969376	1.114465	0.568667	1.255241	-0.847656	0.100098	0.382812	-0.028982	-0.628317	0.227646	-0.743340
49025		46.806855	-22.181641	-0.744216	0.994436	0.752896	6.358619	-0.813232	0.251465	0.368652	0.035941	-0.601572	0.267256	-0.751926
49026		-1.582617	3.140355	4.807097	-0.524034	0.437255	4.090951	-0.784668	0.329346	0.364746	0.069045	-0.583239	0.302793	-0.750588
49027		11.837456	-20.641279	4.137505	-3.964138	-0.885590	-1.780727	-0.798584	0.262695	0.428467	0.026796	-0.600810	0.325780	-0.729504
49028		39.495673	-20.956320	-1.444483	1.799297	0.270367	-1.138029	-0.803711	0.255859	0.399658	0.028895	-0.602149	0.300854	-0.738964
49029		9.834637	-4.540203	3.051595	2.638140	0.965803	1.123267	-0.807617	0.301025	0.358643	0.055538	-0.587614	0.285133	-0.755199
49030		2.021397	-0.740683	2.494676	-0.213422	-0.420692	-1.288635	-0.814697	0.267578	0.366699	0.043366	-0.596231	0.277402	-0.752115
49031		11.502738	-4.232398	0.916818	-0.895342	-0.938186	-2.340450	-0.809326	0.207031	0.395508	0.017983	-0.613305	0.267770	-0.742855
49032		14.121560	-5.278861	-0.309156	-0.830468	-0.794817	-1.638373	-0.818848	0.165039	0.420410	-0.000879	-0.626154	0.262712	-0.734107
49033		8.083273	-6.861405	-0.006115	0.564067	-0.515630	-1.115418	-0.814453	0.152588	0.424316	-0.004944	-0.634458	0.248825	-0.731796
49034		5.052404	-2.423590	0.532758	1.245634	-0.499277	-1.508534	-0.826172	0.124023	0.432617	-0.007247	-0.643583	0.225479	-0.731374
49035		5.502196	0.254937	0.906145	0.606686	-0.649531	-1.645084	-0.830078	0.099854	0.432617	-0.015525	-0.654026	0.206766	-0.727500
49036		8.963507	-0.953680	0.567521	0.156995	-0.518562	-1.352853	-0.818848	0.065674	0.445312	-0.025154	-0.662149	0.194409	-0.723278
49037		9.757973	-2.560706	0.300432	0.617390	-0.257748	-1.084634	-0.827393	0.053467	0.446777	-0.029180	-0.667216	0.179971	-0.722206
49038		8.713299	-0.899116	-0.181668	0.729959	-0.240508	-1.076940	-0.820557	0.032715	0.458740	-0.032226	-0.671976	0.164527	-0.721346
49039		9.334365	0.845246	-0.181276	0.463625	-0.351393	-1.144070	-0.818115	0.011719	0.460449	-0.037883	-0.677593	0.150924	-0.718787
49040		9.783433	0.645155	0.030941	0.002693	-0.471095	-1.139882	-0.816650	-0.010498	0.470703	-0.047172	-0.683892	0.141511	-0.714172
49041		9.340604	-0.569273	0.103521	-0.318133	-0.509426	-1.055886	-0.812988	-0.033691	0.479248	-0.058373	-0.690037	0.135665	-0.708546
49042		8.980735	-1.282264	0.141893	-0.148602	-0.496547	-0.993611	-0.806885	-0.063232	0.496826	-0.067568	-0.695939	0.128815	-0.703214
49043		8.521856	-0.430475	0.155788	0.011543	-0.410216	-0.964960	-0.797852	-0.073975	0.497070	-0.075249	-0.701045	0.120715	-0.698785
49044		8.571838	0.226780	0.114529	-0.035814	-0.292620	-0.871016	-0.796387	-0.096191	0.510010	-0.082685	-0.704832	0.113719	-0.695301
49045		8.796967	-0.132418	0.453689	-0.069686	-0.131700	-0.726064	-0.788330	-0.114258	0.509033	-0.089382	-0.706903	0.108116	-0.693260
49046		9.066444	-0.601115	0.104336	-0.169239	-0.063168	-0.590325	-0.792236	-0.128662	0.508301	-0.095871	-0.708035	0.104492	-0.691793
49047		9.654323	-0.570700	-0.278268	-0.078237	-0.072982	-0.484306	-0.798584	-0.143555	0.511963	-0.100621	-0.709187	0.101028	-0.690451
49048		9.735845	-0.216036	-0.213233	0.046098	-0.065966	-0.446936	-0.794189	-0.157471	0.511719	-0.103954	-0.710363	0.096813	-0.689351
49049		9.199208	0.469151	-0.326766	0.003171	-0.123699	-0.505267	-0.791992	-0.160889	0.510986	-0.108101	-0.712025	0.092526	-0.687585
49050		9.412720	0.861317	-0.137939	-0.218265	-0.109989	-0.533268	-0.786621	-0.177979	0.508789	-0.114467	-0.713269	0.089867	-0.685615
49051		9.693728	0.805097	-0.121945	-0.469719	-0.107290	-0.517436	-0.787598	-0.181885	0.514404	-0.122938	-0.714066	0.089496	-0.683364
49052		9.803438	0.529081	-0.240881	-0.574227	-0.080506	-0.474782	-0.786621	-0.211670	0.521729	-0.131988	-0.714368	0.090342	-0.681246
49053		9.466786	-0.017656	-0.411438	-0.363185	-0.040030	-0.466676	-0.776367	-0.217529	0.517334	-0.139127	-0.714612	0.089395	-0.679692
49054		9.438936	0.365282	-0.454110	-0.074456	-0.039552	-0.438531	-0.781494	-0.233154	0.516113	-0.143440	-0.715293	0.086241	-0.678486
49055		9.725509	1.016729	-0.431476	0.026019	-0.041861	-0.382872	-0.776367	-0.236572	0.517334	-0.146379	-0.716095	0.082738	-0.677448
49056		9.872693	1.526219	-0.427984	-0.061558	-0.045895	-0.307911	-0.773682	-0.248291	0.521240	-0.149458	-0.716680	0.080652	-0.676408
49057		9.981988	1.842600	-0.367688	-0.298250	-0.059120	-0.205196	-0.767822	-0.254150	0.521729	-0.153776	-0.716818	0.081512	-0.675190
49058		9.924319	1.278725	-0.248397	-0.573809	-0.067351	-0.061998	-0.771240	-0.273438	0.522949	-0.159339	-0.716323	0.085991	-0.673868
49059		9.785284	0.403267	-0.299193	-0.576179	-0.013156	0.042128	-0.772461	-0.267578	0.513916	-0.164101	-0.715216	0.091314	-0.673200
49060		9.677676	-0.113444	-0.485386	-0.278039	-0.024946	0.120793	-0.773193	-0.272217	0.507080	-0.165510	-0.714707	0.094849	-0.672907
49061		9.740249	0.309918	-0.477405	0.133684	-0.033194	0.171849	-0.769043	-0.268066	0.517822	-0.162804	-0.715051	0.095397	-0.673125
49062		9.660274	0.953236	-0.533835	0.316399	-0.050841	0.197983	-0.769531	-0.258057	0.513672	-0.158220	-0.715872	0.094677	-0.673446
49063		9.872099	1.380105	-0.602439	0.243761	-0.061021	0.220114	-0.778564	-0.250244	0.521240	-0.154085	-0.716596	0.094786	-0.673620
49064		9.822090	1.608833	-0.698467	0.071347	-0.052226	0.212412	-0.769775	-0.246582	0.519775	-0.151566	-0.716913	0.096256	-0.673646
49065		9.776282	1.437870	-0.566557	-0.020482	-0.026332	0.216030	-0.773193	-0.236816	0.519775	-0.149871	-0.716827	0.098483	-0.673794
49066		9.668566	1.144931	-0.536052	-0.077470	-0.009749	0.232660	-0.760986	-0.233398	0.521240	-0.148562	-0.716469	0.101304	-0.674046
49067		9.747600	0.956930	-0.606010	-0.114534	-0.014832	0.272054	-0.771729	-0.228027	0.518799	-0.147245	-0.716027	0.104797	-0.674271
49068		9.710508	0.619651	-0.717335	-0.151928	-0.035122	0.315797	-0.783203	-0.226318	0.519531	-0.145864	-0.715617	0.109031	-0.674335
49069		9.719153	0.717121	-0.467388	-0.100259	-0.003027	0.350238	-0.778076	-0.227051	0.520508	-0.143773	-0.714969	0.113079	-0.674805
49070		9.827079	0.608968	-0.351405	-0.104193	0.022906	0.410549	-0.777588	-0.217773	0.523193	-0.141245	-0.713992	0.117652	-0.675591
49071		9.745125	0.419645	-0.572515	-0.106841	0.046253	0.432967	-0.788818	-0.216797	0.523682	-0.138578	-0.712759	0.122400	-0.676601
49072		9.570534	0.330606	-0.268769	-0.107060	0.069622	0.443551	-0.788818	-0.194824	0.516846	-0.135859	-0.711287	0.127203	-0.677815
49073		9.606034	-0.210193	-0.347325	-0.076510	0.082751	0.443237	-0.792480	-0.189941	0.512939	-0.132879	-0.709733	0.131711	-0.679172
49074		9.870606	-0.566446	-0.493896	0.095186	0.125098	0.331669	-0.796875	-0.181885	0.509766	-0.129391	-0.708268	0.133700	-0.680983
49075		9.958081	-0.477724	-0.475970	0.277636	0.099231	0.144576	-0.790283	-0.174561	0.514893	-0.125836	-0.707618	0.132521	-0.682554
