// Start Time: Unknown
// Update Rate: 40.0Hz
// Filter Profile: human (46.1)
// Firmware Version: 4.6.0
PacketCounter	SampleTimeFine	Acc_X	Acc_Y	Acc_Z	Gyr_X	Gyr_Y	Gyr_Z	Mag_X	Mag_Y	Mag_Z	Quat_q0	Quat_q1	Quat_q2	Quat_q3
48166		9.685897	-0.203425	-1.505986	0.028909	-0.007751	-0.008476	-0.875977	0.208496	-0.325439	0.638056	-0.163891	-0.741551	-0.126994
48167		9.669023	-0.183005	-1.539008	0.006209	-0.008738	-0.005156	-0.875732	0.200928	-0.320312	0.637979	-0.163807	-0.741641	-0.126960
48168		9.686027	-0.235405	-1.544551	-0.009883	-0.010396	-0.008675	-0.880615	0.209229	-0.312012	0.637856	-0.163751	-0.741730	-0.127124
48169		9.706297	-0.268328	-1.518973	-0.000297	-0.010025	-0.011718	-0.873291	0.204590	-0.318359	0.637728	-0.163734	-0.741836	-0.127174
48170		9.679861	-0.241733	-1.522955	0.014669	-0.006541	-0.016709	-0.877930	0.208252	-0.322754	0.637671	-0.163471	-0.741946	-0.127154
48171		9.687527	-0.220243	-1.514612	0.022128	-0.007765	-0.019708	-0.876953	0.208496	-0.320068	0.637610	-0.163147	-0.742084	-0.127076
48172		9.689675	-0.193123	-1.512696	0.011579	-0.011138	-0.015944	-0.873291	0.211182	-0.321533	0.637497	-0.162971	-0.742224	-0.127050
48173		9.692836	-0.203496	-1.532409	-0.007273	-0.014655	-0.012442	-0.873047	0.209961	-0.320801	0.637314	-0.163009	-0.742355	-0.127155
48174		9.692995	-0.252809	-1.538206	-0.021288	-0.012788	-0.009591	-0.873047	0.201660	-0.322754	0.637126	-0.163170	-0.742443	-0.127375
48175		9.675182	-0.263318	-1.522432	-0.016125	-0.014008	-0.011665	-0.875488	0.206543	-0.321777	0.636951	-0.163184	-0.742555	-0.127581
48176		9.670514	-0.291564	-1.552287	0.002565	-0.012727	-0.013119	-0.875244	0.207031	-0.319336	0.636825	-0.163095	-0.742680	-0.127598
48177		9.693831	-0.285399	-1.541154	0.014916	-0.010309	-0.013421	-0.872070	0.208008	-0.315918	0.636732	-0.162927	-0.742815	-0.127489
48178		9.693816	-0.217585	-1.545719	0.019596	-0.009088	-0.011432	-0.868164	0.217041	-0.320068	0.636646	-0.162769	-0.742955	-0.127302
48179		9.678112	-0.203165	-1.538191	0.015306	-0.009492	-0.013596	-0.880127	0.202393	-0.322021	0.636581	-0.162707	-0.743050	-0.127151
48180		9.664445	-0.230640	-1.524769	0.001486	-0.013522	-0.009591	-0.871094	0.205811	-0.316162	0.636461	-0.162651	-0.743170	-0.127124
48181		9.668737	-0.297164	-1.533492	-0.004265	-0.014052	-0.007805	-0.870117	0.206543	-0.321045	0.636293	-0.162693	-0.743304	-0.127125
48182		9.689121	-0.331018	-1.508710	0.004663	-0.013029	-0.005585	-0.877197	0.203125	-0.323486	0.636202	-0.162687	-0.743402	-0.127019
48183		9.697733	-0.332767	-1.553955	0.039914	-0.009482	-0.000148	-0.874512	0.198975	-0.318848	0.636249	-0.162428	-0.743501	-0.126536
48184		9.657024	-0.271412	-1.571368	0.058522	-0.010247	0.003180	-0.875000	0.207031	-0.322510	0.636294	-0.162022	-0.743668	-0.125840
48185		9.688481	-0.220258	-1.600580	0.053521	-0.013591	0.003869	-0.873047	0.202148	-0.315674	0.636336	-0.161755	-0.743807	-0.125154
48186		9.658510	-0.170021	-1.607588	0.032197	-0.014253	-0.000286	-0.869629	0.206299	-0.320801	0.636255	-0.161570	-0.743991	-0.124705
48187		9.704398	-0.177296	-1.578635	0.032577	-0.014919	-0.000713	-0.872559	0.212158	-0.316650	0.636209	-0.161400	-0.744140	-0.124273
48188		9.685752	-0.121886	-1.592857	0.024288	-0.015508	-0.000115	-0.871338	0.204590	-0.318604	0.636118	-0.161381	-0.744285	-0.123896
48189		9.684091	-0.118135	-1.624007	-0.006120	-0.017316	0.004804	-0.880371	0.218262	-0.317627	0.635953	-0.161540	-0.744405	-0.123811
48190		9.691016	-0.166614	-1.615538	-0.029975	-0.015914	0.008660	-0.871582	0.208008	-0.315674	0.635762	-0.162109	-0.744430	-0.123896
48191		9.700433	-0.191270	-1.602458	-0.026369	-0.011226	0.005133	-0.870850	0.210205	-0.308350	0.635587	-0.162433	-0.744487	-0.124032
48192		9.677229	-0.181555	-1.623470	-0.035853	-0.008062	0.003638	-0.874023	0.207275	-0.317383	0.635366	-0.162840	-0.744550	-0.124254
48193		9.671081	-0.208220	-1.581138	-0.035295	-0.008845	0.002580	-0.874756	0.203857	-0.314209	0.635204	-0.163190	-0.744566	-0.124525
48194		9.693100	-0.265350	-1.594781	-0.036340	-0.011985	0.007533	-0.869629	0.213135	-0.313477	0.634992	-0.163544	-0.744631	-0.124756
48195		9.685377	-0.303924	-1.561969	-0.042240	-0.009424	0.010455	-0.883057	0.209717	-0.317139	0.634819	-0.164095	-0.744613	-0.125015
48196		9.664279	-0.337806	-1.576247	-0.019427	-0.007611	0.011711	-0.873291	0.209473	-0.310059	0.634716	-0.164441	-0.744617	-0.125057
48197		9.669302	-0.346407	-1.572522	0.007275	-0.009181	0.014791	-0.875000	0.213379	-0.309814	0.634626	-0.164583	-0.744706	-0.124798
48198		9.689351	-0.300362	-1.594967	-0.000756	-0.011628	0.018117	-0.875244	0.203857	-0.313477	0.634505	-0.164895	-0.744778	-0.124571
48199		9.679735	-0.217574	-1.602470	0.005242	-0.007642	0.018111	-0.870117	0.209961	-0.316650	0.634466	-0.164972	-0.744839	-0.124310
48200		9.683832	-0.240014	-1.593865	0.007014	-0.008800	0.011810	-0.874268	0.208984	-0.309082	0.634465	-0.165063	-0.744855	-0.124092
48201		9.698321	-0.252217	-1.618660	0.008635	-0.003472	0.006305	-0.874756	0.218750	-0.309082	0.634415	-0.165080	-0.744926	-0.123902
48202		9.662885	-0.243054	-1.658575	-0.004760	-0.005207	0.003433	-0.873291	0.210938	-0.315918	0.634324	-0.165365	-0.744948	-0.123858
48203		9.680140	-0.315297	-1.631189	0.002295	-0.005326	-0.000016	-0.875488	0.217773	-0.316650	0.634312	-0.165386	-0.744963	-0.123797
48204		9.662255	-0.344891	-1.594816	0.009685	-0.005652	0.002272	-0.866211	0.218750	-0.313477	0.634322	-0.165510	-0.744952	-0.123647
48205		9.684272	-0.403882	-1.607127	0.002525	-0.005243	0.009117	-0.873047	0.216309	-0.309082	0.634335	-0.165769	-0.744910	-0.123488
48206		9.665674	-0.415356	-1.616060	-0.003759	-0.003494	0.012225	-0.869873	0.215576	-0.316650	0.634276	-0.166065	-0.744917	-0.123348
48207		9.659063	-0.443507	-1.586135	0.013795	-0.005111	0.012041	-0.873535	0.209961	-0.319824	0.634348	-0.166191	-0.744875	-0.123062
48208		9.682488	-0.444097	-1.573570	0.024258	-0.005732	0.013628	-0.869629	0.217529	-0.310791	0.634462	-0.166126	-0.744856	-0.122676
48209		9.660254	-0.426221	-1.597889	0.028584	-0.005764	0.016603	-0.875977	0.210938	-0.319092	0.634498	-0.166224	-0.744887	-0.122166
48210		9.664371	-0.400039	-1.572761	0.033252	-0.007512	0.018066	-0.872070	0.215332	-0.319580	0.634607	-0.166149	-0.744896	-0.121644
48211		9.680179	-0.404836	-1.588688	0.034578	-0.006668	0.016662	-0.865479	0.216797	-0.316162	0.634753	-0.166138	-0.744862	-0.121109
48212		9.670843	-0.372829	-1.611078	0.037595	-0.005655	0.013441	-0.874268	0.223877	-0.309814	0.634895	-0.166096	-0.744843	-0.120542
48213		9.648764	-0.372292	-1.603515	0.024825	-0.006505	0.012552	-0.873779	0.220703	-0.310303	0.634875	-0.166315	-0.744887	-0.120066
48214		9.656464	-0.357825	-1.594721	0.012778	-0.002941	0.009055	-0.868408	0.216064	-0.315430	0.634865	-0.166510	-0.744903	-0.119752
48215		9.676405	-0.376004	-1.612964	0.018535	-0.004350	0.007828	-0.874512	0.219971	-0.317383	0.634947	-0.166530	-0.744880	-0.119428
48216		9.675746	-0.393226	-1.595334	0.025323	-0.004116	0.001393	-0.872559	0.225098	-0.313477	0.635034	-0.166532	-0.744858	-0.119106
48217		9.680589	-0.397019	-1.603341	0.032278	-0.000167	-0.006860	-0.873779	0.220703	-0.323242	0.635116	-0.166508	-0.744849	-0.118751
48218		9.651963	-0.414009	-1.577422	0.021453	-0.004623	-0.006235	-0.869385	0.225342	-0.308838	0.635261	-0.166499	-0.744757	-0.118569
48219		9.676338	-0.430637	-1.617054	0.017577	-0.003546	0.000374	-0.872070	0.217529	-0.316650	0.635237	-0.166651	-0.744797	-0.118234
48220		9.675475	-0.411866	-1.565326	0.011298	-0.003696	0.004083	-0.875488	0.214844	-0.317139	0.635297	-0.166724	-0.744762	-0.118026
48221		9.675036	-0.464163	-1.581805	0.008151	-0.005443	0.009609	-0.869385	0.210449	-0.317871	0.635329	-0.166813	-0.744747	-0.117822
48222		9.672086	-0.473608	-1.618449	0.023354	-0.001873	0.013614	-0.878662	0.218994	-0.317383	0.635473	-0.166695	-0.744708	-0.117458
48223		9.666833	-0.457622	-1.642845	0.032333	-0.001291	0.016606	-0.872803	0.218262	-0.312012	0.635592	-0.166742	-0.744674	-0.116967
48224		9.664232	-0.435970	-1.631455	0.012084	-0.002376	0.018549	-0.867188	0.224365	-0.314453	0.635609	-0.166923	-0.744677	-0.116593
48225		9.675834	-0.439200	-1.625176	0.009560	-0.002865	0.018200	-0.877930	0.218994	-0.313232	0.635685	-0.167257	-0.744594	-0.116228
48226		9.651793	-0.464984	-1.607114	0.013098	-0.002164	0.020079	-0.876465	0.225586	-0.310059	0.635694	-0.167444	-0.744602	-0.115863
48227		9.690976	-0.446493	-1.555784	0.015623	0.000244	0.019825	-0.870361	0.224365	-0.313965	0.635697	-0.167738	-0.744600	-0.115429
48228		9.674309	-0.417267	-1.605681	0.016469	-0.003326	0.016191	-0.869141	0.223633	-0.318848	0.635754	-0.167960	-0.744563	-0.115036
48229		9.671694	-0.377291	-1.626877	0.014662	-0.002812	0.013570	-0.873047	0.226074	-0.324707	0.635884	-0.168154	-0.744455	-0.114727
48230		9.665497	-0.372332	-1.646873	0.000780	-0.002136	0.007828	-0.878906	0.216309	-0.310059	0.636043	-0.168474	-0.744258	-0.114651
48231		9.678400	-0.376199	-1.613368	-0.013861	-0.001598	0.002682	-0.868164	0.224365	-0.314209	0.635909	-0.168571	-0.744345	-0.114688
48232		9.682657	-0.394087	-1.603590	-0.019046	-0.005303	-0.002091	-0.875000	0.222168	-0.321777	0.635853	-0.168858	-0.744314	-0.114779
48233		9.685397	-0.421513	-1.602343	-0.011975	-0.000144	-0.006513	-0.867920	0.225342	-0.319824	0.635926	-0.169015	-0.744189	-0.114954
48234		9.672055	-0.448417	-1.585911	-0.012129	-0.000523	-0.012034	-0.870361	0.229004	-0.312012	0.635998	-0.169175	-0.744066	-0.115117
48235		9.673792	-0.469442	-1.611863	-0.012957	-0.004684	-0.013009	-0.867432	0.229248	-0.319092	0.635903	-0.169391	-0.744084	-0.115208
48236		9.670659	-0.504495	-1.598546	-0.018708	-0.005180	-0.011184	-0.866211	0.221680	-0.315186	0.635916	-0.169699	-0.743974	-0.115395
48237		9.671193	-0.503678	-1.586094	-0.016107	-0.002586	-0.008676	-0.874512	0.227539	-0.314453	0.635908	-0.169811	-0.743933	-0.115542
48238		9.652659	-0.475072	-1.560790	-0.003140	-0.003780	-0.007858	-0.870850	0.222900	-0.323486	0.635865	-0.169963	-0.743933	-0.115551
48239		9.683432	-0.482876	-1.599842	0.000596	-0.005551	-0.005172	-0.869385	0.225586	-0.313721	0.635967	-0.170043	-0.743821	-0.115597
48240		9.684341	-0.469073	-1.605650	-0.002969	-0.001922	-0.002092	-0.869141	0.223633	-0.315430	0.635967	-0.170185	-0.743795	-0.115546
48241		9.662062	-0.460651	-1.610979	0.005194	-0.002171	-0.007418	-0.868408	0.228271	-0.316895	0.636000	-0.170173	-0.743779	-0.115489
48242		9.667466	-0.465037	-1.605794	-0.008778	-0.003042	-0.002187	-0.867676	0.229736	-0.313965	0.636029	-0.170428	-0.743693	-0.115504
48243		9.672483	-0.520283	-1.616384	-0.006422	-0.004349	-0.000619	-0.873291	0.233398	-0.313965	0.636017	-0.170691	-0.743652	-0.115448
48244		9.667457	-0.516712	-1.609556	0.005936	-0.003452	-0.001269	-0.868164	0.226562	-0.318115	0.636011	-0.170922	-0.743630	-0.115286
48245		9.674409	-0.511438	-1.595627	0.014739	-0.002819	-0.004640	-0.862305	0.230225	-0.312744	0.636106	-0.170915	-0.743574	-0.115133
48246		9.677964	-0.474580	-1.597110	0.019559	-0.002338	-0.005245	-0.868164	0.223389	-0.312012	0.636173	-0.170909	-0.743562	-0.114848
48247		9.674777	-0.495442	-1.614763	0.027102	-0.001918	-0.005298	-0.864746	0.225586	-0.306641	0.636210	-0.170693	-0.743626	-0.114547
48248		9.670845	-0.479322	-1.612208	0.030240	-0.003512	-0.003491	-0.870361	0.225830	-0.316650	0.636186	-0.170501	-0.743755	-0.114129
48249		9.667354	-0.448288	-1.628001	0.020045	0.000151	-0.002426	-0.864746	0.227783	-0.315186	0.636284	-0.170447	-0.743717	-0.113914
48250		9.669508	-0.440017	-1.605715	0.015386	-0.001935	-0.002693	-0.869141	0.232178	-0.311035	0.636361	-0.170464	-0.743679	-0.113699
48251		9.676901	-0.419438	-1.610247	0.010276	-0.003540	-0.005300	-0.879639	0.229980	-0.313965	0.636327	-0.170578	-0.743711	-0.113512
48252		9.658656	-0.444691	-1.586238	0.005058	-0.001004	-0.005710	-0.871338	0.226074	-0.323486	0.636287	-0.170686	-0.743729	-0.113455
48253		9.673590	-0.505940	-1.611707	-0.003666	-0.003434	-0.005962	-0.872559	0.230469	-0.316406	0.636378	-0.170817	-0.743606	-0.113552
48254		9.663793	-0.497719	-1.596877	-0.000753	-0.002128	-0.005798	-0.871826	0.222412	-0.315186	0.636386	-0.170980	-0.743563	-0.113543
48255		9.680737	-0.515531	-1.566332	0.007380	-0.003358	-0.005224	-0.867676	0.227295	-0.312744	0.636383	-0.170909	-0.743592	-0.113477
48256		9.672647	-0.532358	-1.576645	0.012748	-0.003667	-0.006883	-0.865479	0.227295	-0.311768	0.636381	-0.170871	-0.743628	-0.113316
48257		9.664367	-0.532160	-1.619022	0.012455	-0.002802	-0.003703	-0.873779	0.226074	-0.318359	0.636389	-0.170859	-0.743653	-0.113121
48258		9.665411	-0.536637	-1.592601	0.000989	-0.004672	0.001649	-0.875488	0.234375	-0.316650	0.636405	-0.170993	-0.743616	-0.113072
48259		9.663941	-0.497093	-1.586832	0.000940	-0.001895	-0.000629	-0.871338	0.218262	-0.307373	0.636417	-0.171256	-0.743556	-0.113002
48260		9.664842	-0.484334	-1.592247	0.007341	-0.002422	0.000086	-0.870605	0.224365	-0.317627	0.636332	-0.171105	-0.743687	-0.112851
48261		9.662191	-0.507984	-1.596474	0.011348	-0.002701	-0.001850	-0.865479	0.233398	-0.313477	0.636391	-0.171071	-0.743662	-0.112732
48262		9.673992	-0.506062	-1.590536	0.000307	-0.004695	-0.001984	-0.872070	0.230225	-0.319092	0.636385	-0.171291	-0.743632	-0.112627
48263		9.672893	-0.518648	-1.586385	-0.004253	-0.001708	0.000403	-0.866699	0.234375	-0.313477	0.636437	-0.171514	-0.743536	-0.112630
48264		9.667914	-0.515234	-1.579270	-0.001369	-0.003371	0.000081	-0.875977	0.226562	-0.318604	0.636436	-0.171768	-0.743493	-0.112531
48265		9.667761	-0.515053	-1.580266	-0.001987	-0.004686	-0.001033	-0.870361	0.231934	-0.305908	0.636433	-0.171877	-0.743468	-0.112549
48266		9.658399	-0.527893	-1.618067	-0.003589	-0.003245	-0.003198	-0.870117	0.230469	-0.316406	0.636312	-0.172028	-0.743549	-0.112467
48267		9.686039	-0.539809	-1.608349	-0.004557	-0.004319	-0.003053	-0.868896	0.232422	-0.308838	0.636312	-0.172198	-0.743508	-0.112478
48268		9.668765	-0.552153	-1.589719	0.002537	-0.003411	-0.005457	-0.864014	0.228027	-0.318115	0.636247	-0.172293	-0.743556	-0.112381
48269		9.665561	-0.572052	-1.607824	0.008663	-0.003578	-0.007717	-0.872314	0.230225	-0.311768	0.636328	-0.172266	-0.743503	-0.112314
48270		9.676874	-0.566523	-1.615324	0.012881	-0.002922	-0.009204	-0.863770	0.231689	-0.312988	0.636303	-0.172208	-0.743556	-0.112193
48271		9.660107	-0.562916	-1.614777	0.015330	-0.002620	-0.011628	-0.874512	0.226562	-0.316895	0.636341	-0.172144	-0.743561	-0.112046
48272		9.651302	-0.541509	-1.604970	0.022719	-0.005896	-0.009869	-0.870117	0.227539	-0.314941	0.636357	-0.171956	-0.743614	-0.111886
48273		9.651830	-0.542262	-1.592341	0.018495	-0.004636	-0.008983	-0.863525	0.226807	-0.322510	0.636376	-0.171824	-0.743652	-0.111729
48274		9.669198	-0.545073	-1.580384	0.013976	-0.002511	-0.004915	-0.864990	0.232910	-0.310303	0.636531	-0.171775	-0.743548	-0.111614
48275		9.677558	-0.511594	-1.589587	0.017100	-0.000267	-0.004306	-0.878418	0.227783	-0.308594	0.636563	-0.171779	-0.743556	-0.111375
48276		9.678911	-0.483406	-1.612921	0.018849	0.000519	-0.004214	-0.869385	0.238770	-0.316162	0.636519	-0.171665	-0.743651	-0.111170
48277		9.667004	-0.484653	-1.619672	0.013200	-0.002221	-0.005160	-0.873779	0.228271	-0.316162	0.636572	-0.171817	-0.743595	-0.111004
48278		9.669293	-0.510422	-1.631811	-0.009247	-0.004082	-0.004735	-0.879395	0.231445	-0.312500	0.636534	-0.171957	-0.743582	-0.111090
48279		9.666653	-0.564620	-1.585584	-0.017912	-0.002502	-0.003407	-0.872314	0.236816	-0.318604	0.636428	-0.172217	-0.743592	-0.111233
48280		9.664309	-0.536167	-1.574612	-0.006738	0.000246	-0.005602	-0.874268	0.235596	-0.316406	0.636475	-0.172474	-0.743482	-0.111297
48281		9.666399	-0.576616	-1.567614	0.006970	-0.001822	-0.006498	-0.871094	0.234375	-0.313477	0.636497	-0.172580	-0.743448	-0.111233
48282		9.668125	-0.600258	-1.593177	0.014725	-0.003848	-0.005759	-0.865234	0.232910	-0.305664	0.636499	-0.172599	-0.743467	-0.111063
48283		9.668418	-0.584570	-1.612208	0.017848	-0.001603	-0.005153	-0.869385	0.230957	-0.312988	0.636471	-0.172541	-0.743544	-0.110800
48284		9.660185	-0.566685	-1.588506	0.011499	-0.003860	-0.003576	-0.871338	0.229004	-0.322998	0.636470	-0.172546	-0.743566	-0.110649
48285		9.673586	-0.553798	-1.573869	0.014378	-0.003604	-0.004502	-0.869629	0.230469	-0.309326	0.636575	-0.172520	-0.743496	-0.110556
48286		9.659998	-0.565869	-1.589935	0.026938	-0.004705	-0.005229	-0.866211	0.237061	-0.321777	0.636556	-0.172363	-0.743594	-0.110250
48287		9.670968	-0.526518	-1.564112	0.028524	-0.005707	-0.003908	-0.876953	0.231934	-0.313232	0.636683	-0.172364	-0.743527	-0.109965
48288		9.678097	-0.524981	-1.634667	0.025859	-0.001628	-0.002901	-0.868896	0.226318	-0.314941	0.636702	-0.172268	-0.743573	-0.109698
48289		9.677491	-0.504895	-1.583010	0.022399	-0.005544	-0.001642	-0.871338	0.234375	-0.322266	0.636728	-0.172133	-0.743618	-0.109451
48290		9.657403	-0.524865	-1.600083	0.018673	-0.004227	-0.003483	-0.873535	0.230469	-0.313477	0.636824	-0.172165	-0.743553	-0.109282
48291		9.661858	-0.543385	-1.589832	0.014115	-0.003156	-0.000489	-0.870850	0.234619	-0.315918	0.636821	-0.172163	-0.743584	-0.109098
48292		9.684027	-0.551389	-1.585536	0.010360	-0.002799	0.003590	-0.874268	0.232910	-0.315186	0.636856	-0.172301	-0.743549	-0.108912
48293		9.657685	-0.529288	-1.587822	0.014802	0.000280	0.002775	-0.873779	0.238037	-0.320801	0.636905	-0.172356	-0.743524	-0.108711
48294		9.652029	-0.524906	-1.594250	0.019572	-0.006651	0.000963	-0.864746	0.243164	-0.317871	0.636957	-0.172461	-0.743488	-0.108481
48295		9.668258	-0.542099	-1.578108	0.010422	-0.007579	-0.000514	-0.868164	0.240967	-0.319336	0.636988	-0.172690	-0.743437	-0.108285
48296		9.673383	-0.598486	-1.588412	0.003322	-0.005095	0.001548	-0.873047	0.232422	-0.318359	0.637028	-0.172957	-0.743357	-0.108176
48297		9.657655	-0.601556	-1.561174	0.002168	-0.004136	0.001724	-0.870117	0.228271	-0.322998	0.637039	-0.173097	-0.743323	-0.108119
48298		9.677519	-0.618183	-1.579637	0.014783	-0.006085	0.002664	-0.873535	0.234863	-0.315430	0.637115	-0.173108	-0.743276	-0.107975
48299		9.662963	-0.594178	-1.576196	0.018049	-0.005017	0.001549	-0.868164	0.229980	-0.313232	0.637123	-0.173133	-0.743298	-0.107739
48300		9.656895	-0.572270	-1.615407	0.004816	-0.004389	-0.000496	-0.865967	0.229980	-0.317627	0.637104	-0.173163	-0.743323	-0.107632
48301		9.644247	-0.603617	-1.585649	-0.007404	-0.003539	-0.001009	-0.867676	0.237793	-0.324463	0.637116	-0.173304	-0.743274	-0.107670
48302		9.656633	-0.653849	-1.580648	-0.007206	-0.000692	-0.001169	-0.870850	0.244385	-0.322021	0.637215	-0.173572	-0.743117	-0.107734
48303		9.664351	-0.649948	-1.552976	0.004116	-0.002518	-0.004737	-0.867676	0.232666	-0.315186	0.637283	-0.173789	-0.743016	-0.107683
48304		9.659086	-0.628345	-1.578237	0.007917	-0.003732	-0.007137	-0.869629	0.238770	-0.326172	0.637286	-0.173763	-0.743030	-0.107607
48305		9.652015	-0.632174	-1.593158	-0.000746	-0.000675	-0.005554	-0.867188	0.235107	-0.320068	0.637397	-0.173950	-0.742883	-0.107661
48306		9.656881	-0.633923	-1.601534	-0.010469	-0.003781	-0.006444	-0.865479	0.228516	-0.312988	0.637406	-0.174129	-0.742817	-0.107772
48307		9.663973	-0.626716	-1.587820	-0.010272	-0.000934	-0.006603	-0.870850	0.247559	-0.319824	0.637381	-0.174177	-0.742814	-0.107861
48308		9.673635	-0.595969	-1.570068	-0.005060	0.000375	-0.007419	-0.870850	0.237061	-0.309326	0.637431	-0.174447	-0.742704	-0.107892
48309		9.648060	-0.622989	-1.573346	-0.004535	0.000006	-0.009311	-0.870850	0.230957	-0.303711	0.637375	-0.174508	-0.742736	-0.107908
48310		9.670548	-0.627281	-1.568620	-0.005980	-0.000174	-0.012345	-0.865723	0.228271	-0.314209	0.637259	-0.174450	-0.742842	-0.107953
48311		9.656580	-0.634207	-1.597754	0.000120	-0.001389	-0.015708	-0.871826	0.229004	-0.313965	0.637254	-0.174332	-0.742863	-0.108033
48312		9.665385	-0.664650	-1.589837	-0.003039	-0.001301	-0.017752	-0.872314	0.232422	-0.317139	0.637215	-0.174233	-0.742899	-0.108171
48313		9.650972	-0.650179	-1.567234	0.000079	-0.003930	-0.017026	-0.864746	0.248535	-0.322266	0.637188	-0.174177	-0.742920	-0.108273
48314		9.654636	-0.645355	-1.603176	0.011086	-0.004436	-0.018260	-0.870605	0.239258	-0.317139	0.637262	-0.174244	-0.742849	-0.108226
48315		9.648335	-0.648882	-1.604858	0.016720	-0.004646	-0.017813	-0.865967	0.238281	-0.314697	0.637273	-0.174135	-0.742876	-0.108147
48316		9.678106	-0.631800	-1.605012	0.015287	-0.003343	-0.020615	-0.870361	0.239990	-0.313232	0.637285	-0.173991	-0.742909	-0.108081
48317		9.664856	-0.639879	-1.620675	0.017188	-0.002245	-0.022006	-0.870605	0.239746	-0.318359	0.637281	-0.173835	-0.742959	-0.108009
48318		9.667344	-0.626295	-1.598690	0.027922	-0.002394	-0.026227	-0.867188	0.227051	-0.324219	0.637336	-0.173574	-0.742989	-0.107900
48319		9.662738	-0.617844	-1.591306	0.032214	-0.004485	-0.025449	-0.868652	0.232666	-0.307861	0.637436	-0.173166	-0.743012	-0.107808
48320		9.662967	-0.547919	-1.595830	0.031525	-0.002504	-0.022699	-0.867676	0.237793	-0.324463	0.637415	-0.172793	-0.743148	-0.107590
48321		9.671797	-0.512593	-1.592534	0.012963	-0.007372	-0.021218	-0.873779	0.233643	-0.314453	0.637456	-0.172719	-0.743130	-0.107590
48322		9.669263	-0.481052	-1.582790	0.002362	-0.005016	-0.019081	-0.874268	0.237305	-0.318359	0.637391	-0.172661	-0.743190	-0.107655
48323		9.679953	-0.535887	-1.600441	-0.008451	-0.005086	-0.017623	-0.870850	0.242188	-0.320312	0.637338	-0.172762	-0.743188	-0.107818
48324		9.672593	-0.500597	-1.582681	-0.013928	-0.003102	-0.019311	-0.868164	0.240723	-0.312256	0.637321	-0.172952	-0.743128	-0.108035
48325		9.656858	-0.546507	-1.583500	-0.013143	-0.003384	-0.019073	-0.871094	0.234131	-0.314697	0.637246	-0.173086	-0.743137	-0.108196
48326		9.660214	-0.570428	-1.582323	-0.003094	-0.006417	-0.020402	-0.870850	0.229004	-0.318848	0.637171	-0.173069	-0.743187	-0.108318
48327		9.655365	-0.562084	-1.576171	-0.008472	-0.006140	-0.018713	-0.860596	0.227295	-0.321777	0.637122	-0.173073	-0.743199	-0.108518
48328		9.671542	-0.556712	-1.592234	-0.008844	-0.003984	-0.018061	-0.872070	0.230469	-0.312988	0.637152	-0.173076	-0.743144	-0.108716
48329		9.664523	-0.557463	-1.608006	-0.003591	-0.006471	-0.017670	-0.867188	0.230225	-0.318604	0.637063	-0.173046	-0.743211	-0.108826
48330		9.679714	-0.594576	-1.581916	0.005195	-0.008322	-0.022436	-0.868896	0.230957	-0.313965	0.637031	-0.172925	-0.743255	-0.108906
48331		9.663022	-0.573301	-1.601004	0.017785	-0.004887	-0.022504	-0.869629	0.227295	-0.322266	0.637018	-0.172692	-0.743328	-0.108854
48332		9.656838	-0.561375	-1.621417	0.020165	-0.004672	-0.020707	-0.868652	0.231934	-0.315430	0.637075	-0.172451	-0.743340	-0.108820
48333		9.654209	-0.545053	-1.592476	0.013220	-0.005324	-0.019731	-0.868652	0.232910	-0.315918	0.637064	-0.172304	-0.743388	-0.108785
48334		9.667712	-0.513484	-1.596921	0.014817	-0.003341	-0.017939	-0.872314	0.235352	-0.313721	0.637082	-0.172173	-0.743412	-0.108725
48335		9.662944	-0.491567	-1.608540	0.010195	-0.002931	-0.016848	-0.867920	0.227783	-0.318848	0.637067	-0.172110	-0.743445	-0.108690
48336		9.660802	-0.511228	-1.612899	-0.002011	-0.005566	-0.016960	-0.868652	0.235840	-0.308105	0.637052	-0.172084	-0.743448	-0.108802
48337		9.664970	-0.538379	-1.597916	-0.004838	-0.003723	-0.013860	-0.868652	0.234375	-0.313232	0.636971	-0.172158	-0.743493	-0.108846
48338		9.658758	-0.542059	-1.599225	-0.003930	-0.000303	-0.015475	-0.870850	0.230957	-0.310303	0.636962	-0.172208	-0.743476	-0.108933
48339		9.673713	-0.514588	-1.576000	0.002643	-0.003425	-0.016745	-0.870117	0.232910	-0.316895	0.636906	-0.172152	-0.743533	-0.108967
48340		9.664617	-0.525027	-1.613075	0.006358	-0.001308	-0.015288	-0.861572	0.226074	-0.313965	0.636933	-0.172121	-0.743514	-0.108981
48341		9.665507	-0.523328	-1.599666	0.000116	-0.000976	-0.016601	-0.868164	0.225098	-0.318604	0.636950	-0.172046	-0.743507	-0.109051
48342		9.659324	-0.526549	-1.600988	-0.008018	-0.003238	-0.016753	-0.869385	0.230957	-0.319092	0.636941	-0.172041	-0.743490	-0.109229
48343		9.658721	-0.535034	-1.596748	-0.005111	-0.003383	-0.016852	-0.869385	0.229492	-0.324463	0.636939	-0.172077	-0.743463	-0.109369
48344		9.669446	-0.554485	-1.580237	0.003199	0.000246	-0.017101	-0.866943	0.235352	-0.317383	0.637028	-0.172038	-0.743381	-0.109466
48345		9.672450	-0.577610	-1.591461	0.009623	-0.001686	-0.016660	-0.870850	0.227783	-0.317383	0.637070	-0.171997	-0.743358	-0.109444
48346		9.655024	-0.507153	-1.594843	0.011140	-0.001392	-0.017873	-0.865967	0.224609	-0.317627	0.637099	-0.171856	-0.743365	-0.109449
48347		9.676102	-0.506377	-1.617872	0.008748	-0.004046	-0.013967	-0.871582	0.228516	-0.318604	0.637119	-0.171743	-0.743376	-0.109436
48348		9.663700	-0.547742	-1.582524	0.006016	-0.002539	-0.014269	-0.868652	0.229980	-0.317871	0.637137	-0.171691	-0.743369	-0.109459
48349		9.670105	-0.536888	-1.582281	0.010793	-0.002630	-0.016848	-0.865967	0.231445	-0.313721	0.637166	-0.171591	-0.743369	-0.109443
48350		9.667354	-0.506241	-1.571820	0.014464	-0.004109	-0.017790	-0.863770	0.230469	-0.317627	0.637166	-0.171460	-0.743410	-0.109371
48351		9.672299	-0.506051	-1.580418	0.014316	-0.004412	-0.016313	-0.868164	0.237793	-0.317139	0.637200	-0.171347	-0.743418	-0.109300
48352		9.671619	-0.500660	-1.594741	0.013529	-0.002647	-0.016321	-0.869141	0.228516	-0.314209	0.637234	-0.171311	-0.743407	-0.109229
48353		9.664157	-0.530370	-1.585650	0.009687	-0.002532	-0.014984	-0.864746	0.233154	-0.312988	0.637234	-0.171219	-0.743433	-0.109200
48354		9.670651	-0.534767	-1.566504	0.011103	-0.001906	-0.012791	-0.867188	0.237549	-0.315674	0.637253	-0.171180	-0.743438	-0.109116
48355		9.658589	-0.504809	-1.610903	0.010163	-0.000446	-0.011319	-0.873047	0.226074	-0.323730	0.637298	-0.171212	-0.743403	-0.109038
48356		9.666497	-0.498573	-1.582959	0.007562	-0.001186	-0.014415	-0.862549	0.221924	-0.317383	0.637360	-0.171142	-0.743360	-0.109080
48357		9.654666	-0.497623	-1.589963	0.003548	-0.002436	-0.012674	-0.871338	0.228516	-0.321289	0.637387	-0.171066	-0.743351	-0.109103
48358		9.659604	-0.497690	-1.598524	0.000776	-0.004541	-0.015370	-0.868652	0.231689	-0.319580	0.637389	-0.171064	-0.743337	-0.109186
48359		9.664078	-0.525226	-1.583149	0.003147	-0.002826	-0.013337	-0.871582	0.231201	-0.316406	0.637413	-0.171087	-0.743308	-0.109214
48360		9.663526	-0.534821	-1.578719	0.009702	-0.004010	-0.015228	-0.870117	0.233643	-0.317871	0.637405	-0.171029	-0.743331	-0.109191
48361		9.670497	-0.511073	-1.583674	0.016975	-0.001648	-0.018111	-0.869629	0.231201	-0.312744	0.637447	-0.170911	-0.743332	-0.109123
48362		9.670017	-0.520301	-1.578954	0.012587	-0.003718	-0.016182	-0.868408	0.226074	-0.320312	0.637428	-0.170813	-0.743380	-0.109063
48363		9.677522	-0.483888	-1.589243	0.004667	-0.002532	-0.014558	-0.875732	0.223145	-0.324219	0.637458	-0.170766	-0.743359	-0.109104
48364		9.664114	-0.478731	-1.623893	-0.001320	-0.003628	-0.013953	-0.868408	0.229736	-0.312500	0.637468	-0.170755	-0.743334	-0.109229
48365		9.679179	-0.480625	-1.563370	-0.008184	-0.001690	-0.015900	-0.869629	0.227295	-0.317627	0.637425	-0.170812	-0.743339	-0.109363
48366		9.659310	-0.543328	-1.621576	-0.002225	-0.004195	-0.018902	-0.870605	0.220703	-0.320068	0.637397	-0.170787	-0.743350	-0.109489
48367		9.667233	-0.535069	-1.594312	0.007983	-0.002381	-0.021043	-0.864746	0.217529	-0.313721	0.637416	-0.170604	-0.743364	-0.109565
48368		9.690678	-0.538786	-1.576545	-0.000303	-0.003505	-0.019462	-0.878906	0.226562	-0.316895	0.637382	-0.170462	-0.743410	-0.109674
48369		9.669869	-0.531163	-1.554739	0.008698	-0.002863	-0.023587	-0.871826	0.229248	-0.317383	0.637354	-0.170301	-0.743460	-0.109753
48370		9.663603	-0.519128	-1.574667	0.013647	-0.001452	-0.019542	-0.873535	0.229248	-0.315918	0.637379	-0.170166	-0.743471	-0.109736
48371		9.670499	-0.494555	-1.579749	0.008058	-0.004710	-0.019590	-0.868896	0.230713	-0.317139	0.637348	-0.170079	-0.743514	-0.109764
48372		9.662815	-0.474470	-1.543220	-0.001427	-0.004476	-0.018673	-0.876465	0.224121	-0.315430	0.637321	-0.170093	-0.743519	-0.109864
48373		9.683287	-0.485414	-1.561736	0.003842	-0.005425	-0.018059	-0.876221	0.229248	-0.317627	0.637264	-0.170009	-0.743577	-0.109932
48374		9.675054	-0.497701	-1.585357	0.011556	-0.002014	-0.018362	-0.872070	0.229492	-0.317383	0.637272	-0.169909	-0.743592	-0.109934
48375		9.664275	-0.470331	-1.602877	0.004028	-0.003002	-0.017384	-0.878906	0.221436	-0.317871	0.637267	-0.169883	-0.743595	-0.109986
48376		9.671334	-0.460449	-1.589444	-0.002001	-0.004750	-0.018705	-0.873291	0.234375	-0.321045	0.637211	-0.169824	-0.743635	-0.110132
48377		9.662849	-0.499825	-1.589463	-0.007004	-0.005199	-0.017410	-0.871338	0.230713	-0.316406	0.637185	-0.169941	-0.743608	-0.110286
48378		9.663189	-0.510129	-1.571782	-0.002562	-0.003960	-0.017654	-0.868164	0.229492	-0.312744	0.637154	-0.169977	-0.743610	-0.110393
48379		9.668663	-0.496503	-1.585654	0.002116	-0.003689	-0.016834	-0.876709	0.221680	-0.318359	0.637122	-0.169965	-0.743634	-0.110437
48380		9.655046	-0.518612	-1.596320	0.011248	-0.003662	-0.016489	-0.876221	0.229004	-0.314453	0.637119	-0.169828	-0.743667	-0.110441
48381		9.673691	-0.492450	-1.595048	0.016270	-0.004691	-0.018024	-0.874512	0.221436	-0.323486	0.637096	-0.169694	-0.743726	-0.110381
48382		9.664516	-0.441568	-1.609591	0.014461	-0.003175	-0.019571	-0.873535	0.225830	-0.311523	0.637138	-0.169515	-0.743729	-0.110392
48383		9.659177	-0.446938	-1.597486	0.004839	-0.004753	-0.017392	-0.876465	0.224609	-0.314453	0.637079	-0.169450	-0.743790	-0.110423
48384		9.661926	-0.482772	-1.604354	0.000993	-0.004664	-0.016042	-0.867432	0.224365	-0.311279	0.637025	-0.169424	-0.743832	-0.110497
48385		9.668951	-0.473773	-1.590843	0.005119	-0.002539	-0.013085	-0.871338	0.227783	-0.318848	0.637008	-0.169386	-0.743856	-0.110489
48386		9.669338	-0.485517	-1.572742	0.007469	-0.004415	-0.013450	-0.878906	0.222656	-0.312256	0.637016	-0.169371	-0.743853	-0.110483
48387		9.676422	-0.449584	-1.583204	0.009977	-0.002381	-0.012905	-0.874023	0.224609	-0.317139	0.636987	-0.169281	-0.743903	-0.110454
48388		9.674747	-0.470459	-1.587127	0.007292	-0.004293	-0.012817	-0.874268	0.227051	-0.311523	0.636978	-0.169244	-0.743919	-0.110448
48389		9.674710	-0.467692	-1.588170	0.003832	-0.004873	-0.011885	-0.872559	0.220947	-0.319824	0.636925	-0.169256	-0.743963	-0.110448
48390		9.676738	-0.456215	-1.567062	0.013338	-0.004008	-0.011738	-0.871094	0.223389	-0.311035	0.636952	-0.169155	-0.743971	-0.110389
48391		9.666013	-0.445374	-1.566208	0.013177	-0.005371	-0.011336	-0.870117	0.225586	-0.321777	0.636919	-0.169069	-0.744033	-0.110295
48392		9.683576	-0.418557	-1.579198	0.008161	-0.006896	-0.011113	-0.872559	0.220459	-0.318848	0.636929	-0.169065	-0.744029	-0.110269
48393		9.676381	-0.422219	-1.595280	0.005949	-0.008201	-0.007578	-0.866211	0.224609	-0.316650	0.636902	-0.169064	-0.744057	-0.110235
48394		9.669646	-0.440523	-1.592218	0.003477	-0.004633	-0.010617	-0.867676	0.226562	-0.313232	0.636903	-0.169083	-0.744052	-0.110236
48395		9.672033	-0.416427	-1.576583	0.000805	-0.005487	-0.009443	-0.871094	0.224609	-0.316650	0.636870	-0.169146	-0.744065	-0.110242
48396		9.670667	-0.424952	-1.586404	-0.000173	-0.006156	-0.010129	-0.868164	0.233398	-0.313232	0.636838	-0.169200	-0.744075	-0.110279
48397		9.672127	-0.398627	-1.585000	0.000593	-0.008548	-0.012055	-0.871338	0.220459	-0.304443	0.636774	-0.169302	-0.744103	-0.110299
48398		9.663755	-0.439328	-1.585621	-0.005691	-0.007869	-0.014199	-0.873779	0.227783	-0.320557	0.636637	-0.169307	-0.744206	-0.110389
48399		9.677269	-0.483865	-1.594773	-0.001701	-0.005100	-0.015733	-0.862305	0.214355	-0.313965	0.636625	-0.169352	-0.744189	-0.110503
48400		9.660424	-0.479194	-1.594709	-0.000323	-0.004035	-0.014388	-0.872559	0.230225	-0.314697	0.636613	-0.169275	-0.744207	-0.110571
48401		9.648813	-0.465658	-1.607842	0.001945	-0.007055	-0.011567	-0.873047	0.227539	-0.314453	0.636566	-0.169346	-0.744227	-0.110596
48402		9.660165	-0.473761	-1.597901	0.007284	-0.008822	-0.009260	-0.876465	0.224854	-0.316650	0.636515	-0.169375	-0.744271	-0.110550
48403		9.669072	-0.457119	-1.563147	0.005668	-0.005314	-0.009275	-0.865479	0.230957	-0.314941	0.636497	-0.169389	-0.744285	-0.110539
48404		9.682707	-0.435848	-1.625637	0.002629	-0.006991	-0.007908	-0.876953	0.226074	-0.318115	0.636477	-0.169499	-0.744279	-0.110523
48405		9.670220	-0.449401	-1.628571	0.000547	-0.006513	-0.005624	-0.865967	0.223389	-0.314941	0.636451	-0.169602	-0.744277	-0.110533
48406		9.664760	-0.457252	-1.617092	0.004543	-0.006286	-0.008474	-0.868652	0.234619	-0.316406	0.636438	-0.169622	-0.744287	-0.110510
48407		9.674411	-0.415221	-1.592620	0.000485	-0.005666	-0.007327	-0.876709	0.232666	-0.318604	0.636430	-0.169781	-0.744256	-0.110520
48408		9.676362	-0.451201	-1.613509	-0.003772	-0.007046	-0.007709	-0.866699	0.220947	-0.315430	0.636392	-0.169953	-0.744239	-0.110586
48409		9.665132	-0.453461	-1.608006	-0.005917	-0.005722	-0.007126	-0.870605	0.229736	-0.318115	0.636365	-0.170046	-0.744230	-0.110658
48410		9.674104	-0.483564	-1.614659	-0.002047	-0.007281	-0.008722	-0.864990	0.218262	-0.319580	0.636339	-0.170171	-0.744216	-0.110711
48411		9.674795	-0.483865	-1.602591	0.008897	-0.006171	-0.005545	-0.867676	0.227539	-0.311035	0.636368	-0.170147	-0.744207	-0.110644
48412		9.664251	-0.461797	-1.607256	0.014154	-0.005601	-0.004714	-0.865967	0.224609	-0.325684	0.636364	-0.170147	-0.744232	-0.110496
48413		9.671203	-0.415225	-1.623716	0.000803	-0.006419	-0.003477	-0.872314	0.224121	-0.310303	0.636410	-0.170268	-0.744165	-0.110502
48414		9.669091	-0.450757	-1.623177	-0.005021	-0.006204	-0.003248	-0.870361	0.225830	-0.319336	0.636346	-0.170400	-0.744186	-0.110524
48415		9.673824	-0.452717	-1.632393	-0.001059	-0.005550	-0.006954	-0.875000	0.226807	-0.316162	0.636346	-0.170495	-0.744158	-0.110563
48416		9.675483	-0.454462	-1.606326	0.002725	-0.004776	-0.010024	-0.872803	0.228760	-0.318115	0.636330	-0.170529	-0.744160	-0.110589
48417		9.662622	-0.452059	-1.627579	0.007223	-0.004483	-0.015643	-0.866211	0.228516	-0.312256	0.636335	-0.170495	-0.744159	-0.110621
48418		9.672646	-0.483119	-1.620095	0.000204	-0.005334	-0.010333	-0.864746	0.221924	-0.308594	0.636307	-0.170559	-0.744163	-0.110652
48419		9.663045	-0.461555	-1.611011	-0.001478	-0.004463	-0.007384	-0.869385	0.227051	-0.313721	0.636270	-0.170604	-0.744182	-0.110669
48420		9.680624	-0.462986	-1.599944	-0.004228	-0.006475	-0.003011	-0.874512	0.227295	-0.310303	0.636234	-0.170762	-0.744174	-0.110689
48421		9.658727	-0.505349	-1.633669	0.001869	-0.004472	0.001076	-0.874268	0.234131	-0.311279	0.636205	-0.170898	-0.744177	-0.110622
48422		9.678510	-0.458880	-1.629270	0.003260	-0.001407	-0.002475	-0.875732	0.225098	-0.310303	0.636212	-0.171041	-0.744145	-0.110578
48423		9.661018	-0.442257	-1.647579	-0.002625	-0.003954	-0.006347	-0.873047	0.232178	-0.316650	0.636166	-0.171120	-0.744161	-0.110614
48424		9.657851	-0.487986	-1.655075	-0.004903	-0.005480	-0.005589	-0.872559	0.229248	-0.309326	0.636143	-0.171296	-0.744130	-0.110677
48425		9.644891	-0.526440	-1.647167	-0.001017	-0.005036	-0.012087	-0.875977	0.221191	-0.313477	0.636087	-0.171342	-0.744159	-0.110738
48426		9.670285	-0.535451	-1.602337	-0.000266	-0.001276	-0.010300	-0.873047	0.221924	-0.319092	0.636081	-0.171333	-0.744157	-0.110798
48427		9.661116	-0.500959	-1.597727	0.011986	-0.002900	-0.010977	-0.870850	0.230469	-0.317139	0.636123	-0.171238	-0.744149	-0.110757
48428		9.656601	-0.529752	-1.637213	0.020360	-0.004030	-0.011140	-0.875977	0.223389	-0.314209	0.636167	-0.171146	-0.744151	-0.110631
48429		9.662137	-0.545701	-1.626686	0.010443	-0.002788	-0.010603	-0.880615	0.224609	-0.322021	0.636174	-0.171071	-0.744168	-0.110591
48430		9.661713	-0.469263	-1.610024	0.011021	-0.002511	-0.010582	-0.878174	0.219482	-0.314697	0.636216	-0.171011	-0.744150	-0.110568
48431		9.653506	-0.483909	-1.633217	0.009509	-0.002822	-0.009353	-0.879395	0.230469	-0.309326	0.636218	-0.170926	-0.744173	-0.110531
48432		9.670971	-0.497618	-1.616167	0.012636	-0.003467	-0.009258	-0.868164	0.227051	-0.312256	0.636195	-0.170897	-0.744212	-0.110450
48433		9.661727	-0.463589	-1.611579	0.009452	-0.000915	-0.009976	-0.874023	0.219727	-0.316162	0.636225	-0.170867	-0.744199	-0.110407
48434		9.668436	-0.428353	-1.621747	0.012359	-0.002077	-0.011180	-0.874512	0.222900	-0.307129	0.636254	-0.170749	-0.744209	-0.110357
48435		9.660632	-0.470158	-1.620656	0.009081	-0.002795	-0.010870	-0.865967	0.225586	-0.319092	0.636223	-0.170676	-0.744258	-0.110317
48436		9.664425	-0.481834	-1.637164	0.002006	-0.000819	-0.012152	-0.873779	0.228516	-0.322266	0.636275	-0.170684	-0.744204	-0.110371
48437		9.668724	-0.460680	-1.593399	-0.004007	-0.001560	-0.012360	-0.875244	0.226807	-0.309082	0.636305	-0.170759	-0.744142	-0.110494
48438		9.667892	-0.455763	-1.607400	0.000062	-0.001105	-0.012435	-0.866211	0.225098	-0.309814	0.636278	-0.170774	-0.744152	-0.110559
48439		9.677575	-0.472225	-1.617859	0.000461	-0.000707	-0.011776	-0.880371	0.230469	-0.318359	0.636279	-0.170785	-0.744142	-0.110610
48440		9.665209	-0.497480	-1.614235	0.002859	-0.002989	-0.011297	-0.872070	0.223877	-0.312256	0.636279	-0.170824	-0.744125	-0.110657
48441		9.665302	-0.494714	-1.614533	0.006043	0.000063	-0.013084	-0.869629	0.230957	-0.317871	0.636297	-0.170766	-0.744121	-0.110677
48442		9.662838	-0.466856	-1.590103	0.001864	-0.001118	-0.010666	-0.869629	0.228516	-0.314453	0.636333	-0.170827	-0.744069	-0.110723
48443		9.656870	-0.471658	-1.590850	0.007193	-0.000442	-0.014126	-0.868652	0.228760	-0.316406	0.636364	-0.170791	-0.744048	-0.110743
48444		9.667056	-0.462185	-1.611953	-0.001128	-0.002299	-0.014423	-0.867676	0.224609	-0.309814	0.636370	-0.170825	-0.744020	-0.110841
48445		9.670421	-0.498587	-1.618155	0.002611	-0.003083	-0.013454	-0.872559	0.228271	-0.313965	0.636347	-0.170803	-0.744039	-0.110882
48446		9.666075	-0.519596	-1.586543	0.009353	-0.000691	-0.013635	-0.868896	0.223389	-0.319580	0.636372	-0.170751	-0.744030	-0.110880
48447		9.661495	-0.500406	-1.584335	0.020391	-0.003047	-0.017163	-0.876221	0.221436	-0.309082	0.636427	-0.170552	-0.744040	-0.110801
48448		9.668330	-0.451181	-1.599869	0.020152	-0.001019	-0.017152	-0.868652	0.229004	-0.317383	0.636433	-0.170327	-0.744099	-0.110717
48449		9.666156	-0.469839	-1.616849	0.013451	-0.002774	-0.015034	-0.871338	0.215820	-0.306396	0.636469	-0.170248	-0.744091	-0.110685
48450		9.666919	-0.481367	-1.598588	0.009631	-0.004201	-0.013889	-0.874512	0.226074	-0.314453	0.636423	-0.170103	-0.744168	-0.110656
48451		9.668257	-0.454807	-1.596363	0.010607	-0.003523	-0.013208	-0.870361	0.224854	-0.305908	0.636422	-0.170039	-0.744187	-0.110634
48452		9.662389	-0.446871	-1.603081	0.012549	-0.004291	-0.014014	-0.871826	0.221191	-0.316895	0.636383	-0.169943	-0.744250	-0.110585
48453		9.678100	-0.455770	-1.613534	0.008485	-0.003695	-0.012853	-0.876465	0.225830	-0.313232	0.636393	-0.169867	-0.744260	-0.110576
48454		9.660116	-0.463228	-1.621429	0.001718	-0.003550	-0.011352	-0.865723	0.225586	-0.311035	0.636365	-0.169890	-0.744271	-0.110622
48455		9.669186	-0.445474	-1.585927	0.000713	-0.002744	-0.011805	-0.875000	0.225342	-0.310791	0.636354	-0.169921	-0.744266	-0.110674
48456		9.659975	-0.470594	-1.617437	-0.002164	-0.002013	-0.009744	-0.872314	0.232666	-0.311035	0.636326	-0.169985	-0.744265	-0.110745
48457		9.660903	-0.469980	-1.604596	-0.001704	-0.004581	-0.009543	-0.868896	0.229492	-0.317627	0.636284	-0.170109	-0.744262	-0.110810
48458		9.665641	-0.483502	-1.607910	0.000535	-0.002622	-0.011168	-0.875488	0.224609	-0.316895	0.636301	-0.170177	-0.744223	-0.110873
48459		9.682360	-0.494460	-1.604429	0.009859	-0.002608	-0.011518	-0.876221	0.229492	-0.313232	0.636320	-0.170124	-0.744222	-0.110850
48460		9.650944	-0.468538	-1.585611	0.017171	-0.002045	-0.013858	-0.874756	0.224609	-0.316895	0.636339	-0.170026	-0.744239	-0.110780
48461		9.684201	-0.427263	-1.618324	0.013712	-0.003719	-0.013987	-0.876709	0.229980	-0.313721	0.636353	-0.169923	-0.744256	-0.110738
48462		9.691869	-0.445968	-1.580334	0.005184	-0.001875	-0.011232	-0.873047	0.222900	-0.319580	0.636353	-0.169950	-0.744247	-0.110761
48463		9.674071	-0.440690	-1.593443	0.000931	-0.004351	-0.012679	-0.871582	0.227295	-0.315430	0.636351	-0.169952	-0.744238	-0.110827
48464		9.661210	-0.438462	-1.614317	0.004933	-0.001973	-0.013389	-0.871338	0.226318	-0.316650	0.636364	-0.169946	-0.744223	-0.110867
48465		9.665969	-0.463936	-1.611696	0.005621	-0.000970	-0.015720	-0.864258	0.225830	-0.314697	0.636389	-0.169905	-0.744203	-0.110921
48466		9.666678	-0.500197	-1.582247	0.003857	-0.001388	-0.016639	-0.875488	0.223389	-0.313965	0.636410	-0.169872	-0.744182	-0.110992
48467		9.682799	-0.483069	-1.602927	0.016999	-0.002969	-0.014318	-0.872803	0.224365	-0.309082	0.636422	-0.169731	-0.744215	-0.110920
48468		9.666001	-0.479572	-1.602165	0.018549	-0.003070	-0.014704	-0.875732	0.227783	-0.314697	0.636418	-0.169582	-0.744265	-0.110832
48469		9.656502	-0.431968	-1.603407	0.007925	-0.003961	-0.012895	-0.868164	0.223877	-0.314209	0.636406	-0.169564	-0.744278	-0.110838
48470		9.653491	-0.429283	-1.569166	-0.009361	-0.002944	-0.010839	-0.870361	0.226807	-0.316650	0.636382	-0.169678	-0.744251	-0.110983
48471		9.668067	-0.461620	-1.582653	-0.011089	-0.003784	-0.010901	-0.871826	0.225586	-0.305420	0.636354	-0.169828	-0.744216	-0.111150
48472		9.671503	-0.523767	-1.578309	0.005190	-0.003993	-0.013413	-0.869629	0.222900	-0.316162	0.636301	-0.169808	-0.744262	-0.111172
48473		9.659850	-0.497789	-1.596110	0.023921	-0.002776	-0.017341	-0.869385	0.226562	-0.315918	0.636347	-0.169588	-0.744290	-0.111061
48474		9.675232	-0.433249	-1.576010	0.028176	-0.004539	-0.020243	-0.873535	0.231689	-0.300293	0.636382	-0.169340	-0.744336	-0.110935
48475		9.668532	-0.397052	-1.607262	0.026813	-0.005620	-0.021591	-0.859375	0.216797	-0.314941	0.636323	-0.169122	-0.744452	-0.110824
48476		9.667706	-0.365478	-1.632749	0.021127	-0.005161	-0.022838	-0.864014	0.227295	-0.310303	0.636345	-0.168846	-0.744505	-0.110765
48477		9.668650	-0.375080	-1.614601	0.012518	-0.003563	-0.022870	-0.871582	0.221436	-0.322021	0.636335	-0.168716	-0.744537	-0.110807
48478		9.664814	-0.355800	-1.599363	0.003621	-0.003630	-0.020988	-0.868164	0.221924	-0.317627	0.636347	-0.168628	-0.744529	-0.110921
48479		9.656706	-0.393459	-1.612067	0.006218	-0.004947	-0.020066	-0.881104	0.217285	-0.305908	0.636339	-0.168538	-0.744545	-0.110996
48480		9.682177	-0.471387	-1.611097	0.004771	-0.002916	-0.013859	-0.867432	0.214111	-0.314453	0.636280	-0.168461	-0.744609	-0.111023
48481		9.660518	-0.439621	-1.613239	0.001772	-0.000788	-0.007265	-0.872314	0.219238	-0.310303	0.636307	-0.168460	-0.744586	-0.111029
48482		9.672522	-0.410023	-1.617906	-0.002407	-0.001996	-0.004818	-0.869629	0.227539	-0.312744	0.636290	-0.168551	-0.744575	-0.111059
48483		9.671436	-0.420166	-1.626722	-0.005219	-0.002117	-0.001032	-0.871094	0.222900	-0.310547	0.636287	-0.168767	-0.744521	-0.111105
48484		9.648474	-0.439480	-1.621249	0.000621	-0.003330	-0.002377	-0.866211	0.215576	-0.320312	0.636272	-0.168885	-0.744510	-0.111092
48485		9.678272	-0.413140	-1.613582	0.000325	0.000179	-0.002139	-0.865967	0.223389	-0.306396	0.636340	-0.168948	-0.744440	-0.111077
48486		9.673320	-0.422101	-1.600387	-0.004324	0.000471	-0.000983	-0.871582	0.219482	-0.319092	0.636340	-0.169119	-0.744396	-0.111105
48487		9.660312	-0.461192	-1.604284	-0.001911	0.000339	0.001667	-0.868408	0.232422	-0.313232	0.636395	-0.169257	-0.744320	-0.111088
48488		9.661338	-0.438184	-1.601464	-0.001983	-0.000801	0.004880	-0.859131	0.221924	-0.316650	0.636424	-0.169531	-0.744236	-0.111070
48489		9.668243	-0.420346	-1.593041	-0.008393	-0.001998	0.004035	-0.877197	0.226318	-0.313965	0.636457	-0.169772	-0.744150	-0.111091
48490		9.668025	-0.446871	-1.582804	-0.011602	-0.001458	0.008245	-0.869141	0.232178	-0.317139	0.636450	-0.170090	-0.744079	-0.111120
48491		9.682571	-0.483720	-1.596005	-0.015237	-0.003027	0.008766	-0.873047	0.226807	-0.313232	0.636451	-0.170494	-0.743975	-0.111189
48492		9.665474	-0.497292	-1.590078	-0.007528	-0.002033	0.007067	-0.871826	0.229492	-0.313965	0.636450	-0.170767	-0.743914	-0.111185
48493		9.683167	-0.513304	-1.572701	-0.000901	-0.000461	0.002119	-0.869629	0.222168	-0.315430	0.636477	-0.170958	-0.743849	-0.111169
48494		9.660329	-0.507699	-1.577613	0.001373	-0.002104	-0.001914	-0.875732	0.224609	-0.315918	0.636498	-0.171038	-0.743817	-0.111142
48495		9.658157	-0.516498	-1.600520	0.010207	-0.006361	-0.003845	-0.869873	0.225830	-0.305908	0.636486	-0.171046	-0.743840	-0.111045
48496		9.667798	-0.548309	-1.606202	0.018307	-0.002838	-0.002715	-0.871338	0.223389	-0.315674	0.636494	-0.171010	-0.743868	-0.110867
48497		9.670831	-0.502821	-1.587524	0.017268	-0.005724	-0.001270	-0.870117	0.229980	-0.315186	0.636513	-0.170979	-0.743886	-0.110680
48498		9.670657	-0.515666	-1.582890	0.024291	-0.002687	-0.004481	-0.868896	0.233643	-0.313721	0.636572	-0.170911	-0.743882	-0.110477
48499		9.650737	-0.510062	-1.622909	0.027645	-0.002777	-0.003099	-0.866455	0.224365	-0.313232	0.636634	-0.170859	-0.743876	-0.110239
48500		9.669564	-0.489226	-1.608184	0.023469	-0.003982	-0.000653	-0.875488	0.231201	-0.310059	0.636680	-0.170793	-0.743888	-0.109994
48501		9.670481	-0.466116	-1.606152	0.012984	-0.004604	-0.000314	-0.872314	0.233643	-0.310547	0.636670	-0.170859	-0.743902	-0.109859
48502		9.670302	-0.466445	-1.607136	0.010246	-0.004651	-0.000823	-0.872559	0.231689	-0.311523	0.636661	-0.170963	-0.743900	-0.109760
48503		9.653286	-0.478511	-1.601169	0.006637	-0.002537	-0.002198	-0.872314	0.228760	-0.310547	0.636665	-0.171062	-0.743882	-0.109705
48504		9.658149	-0.480892	-1.609610	0.000116	-0.003544	-0.006690	-0.870605	0.231201	-0.310791	0.636636	-0.171149	-0.743882	-0.109736
48505		9.662906	-0.508278	-1.607571	-0.004819	-0.004911	-0.003615	-0.870850	0.229004	-0.312988	0.636592	-0.171325	-0.743871	-0.109792
48506		9.658819	-0.518242	-1.581913	0.002534	-0.004737	-0.005128	-0.871826	0.229248	-0.307129	0.636573	-0.171410	-0.743869	-0.109787
48507		9.656591	-0.539683	-1.599462	0.005165	-0.004340	-0.001181	-0.865234	0.222168	-0.322266	0.636543	-0.171508	-0.743881	-0.109724
48508		9.656459	-0.539512	-1.600315	0.007830	-0.003455	-0.002390	-0.872314	0.232910	-0.312256	0.636599	-0.171524	-0.743843	-0.109633
48509		9.657474	-0.490130	-1.609098	0.011724	-0.003907	-0.002931	-0.879639	0.232666	-0.316406	0.636605	-0.171580	-0.743839	-0.109536
48510		9.680209	-0.469812	-1.616213	0.003325	-0.003931	-0.003809	-0.876221	0.227783	-0.313721	0.636597	-0.171683	-0.743824	-0.109524
48511		9.656285	-0.474098	-1.629856	-0.007853	-0.002519	-0.004967	-0.875000	0.233643	-0.312256	0.636570	-0.171827	-0.743800	-0.109612
48512		9.659288	-0.503124	-1.578497	-0.003603	-0.001084	-0.004624	-0.869873	0.228027	-0.316406	0.636564	-0.171983	-0.743760	-0.109679
48513		9.668117	-0.519461	-1.602590	0.008042	-0.002021	-0.007105	-0.872803	0.235840	-0.305176	0.636595	-0.171986	-0.743739	-0.109639
48514		9.666102	-0.514609	-1.630232	0.011682	-0.001514	-0.008722	-0.868652	0.230713	-0.315674	0.636586	-0.172000	-0.743749	-0.109600
48515		9.655248	-0.517639	-1.623145	0.006490	-0.000858	-0.005635	-0.872803	0.237793	-0.312988	0.636625	-0.172050	-0.743708	-0.109574
48516		9.663221	-0.512133	-1.595928	0.002537	-0.004737	-0.005129	-0.875000	0.233887	-0.314453	0.636603	-0.172190	-0.743691	-0.109593
48517		9.658214	-0.520676	-1.583420	0.000940	-0.001026	-0.002348	-0.873047	0.226318	-0.321289	0.636618	-0.172329	-0.743645	-0.109601
48518		9.663098	-0.536501	-1.586009	0.004331	-0.001530	-0.000109	-0.871826	0.228271	-0.312500	0.636669	-0.172405	-0.743593	-0.109535
48519		9.679903	-0.537707	-1.587419	0.014674	-0.000128	0.002119	-0.864014	0.229492	-0.318604	0.636725	-0.172430	-0.743565	-0.109361
48520		9.661991	-0.498441	-1.616130	0.014140	-0.001894	0.001875	-0.865967	0.231689	-0.316650	0.636799	-0.172479	-0.743515	-0.109197
48521		9.667897	-0.503968	-1.610330	0.010493	-0.000433	-0.001440	-0.866699	0.229980	-0.316406	0.636863	-0.172536	-0.743461	-0.109101
48522		9.654880	-0.543243	-1.614241	0.009778	-0.002077	-0.001042	-0.872314	0.226562	-0.315918	0.636907	-0.172589	-0.743425	-0.108999
48523		9.641928	-0.544013	-1.634437	0.004938	0.000302	-0.004166	-0.857666	0.231934	-0.307617	0.636948	-0.172614	-0.743390	-0.108959
48524		9.666826	-0.526915	-1.613499	0.000978	-0.001445	-0.001489	-0.869629	0.232178	-0.313721	0.636957	-0.172755	-0.743351	-0.108949
48525		9.649949	-0.563723	-1.596046	0.014859	-0.001478	-0.006709	-0.866699	0.230713	-0.310547	0.636995	-0.172723	-0.743341	-0.108850
48526		9.665829	-0.574056	-1.605677	0.026436	-0.001573	-0.010920	-0.873291	0.229736	-0.324951	0.637042	-0.172552	-0.743367	-0.108672
48527		9.670879	-0.601628	-1.602143	0.031121	0.000924	-0.007989	-0.879639	0.234375	-0.321777	0.637173	-0.172353	-0.743336	-0.108429
48528		9.655216	-0.538421	-1.613844	0.021564	0.001391	-0.007813	-0.869629	0.236572	-0.319824	0.637264	-0.172260	-0.743300	-0.108290
48529		9.650337	-0.521343	-1.611610	0.012204	-0.003430	-0.006584	-0.874268	0.230225	-0.320068	0.637299	-0.172289	-0.743273	-0.108225
48530		9.660135	-0.565203	-1.611387	0.009177	-0.004071	-0.004086	-0.868164	0.225098	-0.319580	0.637318	-0.172312	-0.743263	-0.108146
48531		9.669122	-0.561851	-1.570480	0.003902	-0.001515	-0.001628	-0.869629	0.235107	-0.317871	0.637359	-0.172364	-0.743224	-0.108086
48532		9.682079	-0.522681	-1.566716	0.007532	0.002196	-0.000007	-0.874756	0.229004	-0.317871	0.637436	-0.172468	-0.743143	-0.108018
48533		9.664146	-0.482674	-1.595624	0.009250	-0.003836	-0.001287	-0.861572	0.234619	-0.316406	0.637451	-0.172503	-0.743138	-0.107911
48534		9.661965	-0.491744	-1.618333	-0.011065	-0.003063	-0.001810	-0.863281	0.233398	-0.313965	0.637442	-0.172748	-0.743073	-0.108016
48535		9.660862	-0.526988	-1.616480	-0.017919	-0.003197	-0.003065	-0.866699	0.232666	-0.321289	0.637404	-0.173024	-0.743017	-0.108191
48536		9.677675	-0.551468	-1.607687	-0.017959	-0.001713	-0.002844	-0.862305	0.238281	-0.310791	0.637402	-0.173287	-0.742931	-0.108363
48537		9.674839	-0.562643	-1.567560	-0.015872	-0.000040	-0.002997	-0.869873	0.230225	-0.314453	0.637388	-0.173574	-0.742851	-0.108539
48538		9.651050	-0.553908	-1.585977	0.000179	-0.000294	-0.007742	-0.866699	0.230957	-0.318848	0.637402	-0.173619	-0.742824	-0.108576
48539		9.657841	-0.566195	-1.637597	0.003731	-0.004763	-0.011336	-0.867676	0.239014	-0.318848	0.637398	-0.173616	-0.742824	-0.108599
48540		9.647016	-0.631465	-1.604107	-0.006728	-0.004759	-0.009028	-0.878662	0.236328	-0.316406	0.637374	-0.173776	-0.742788	-0.108727
48541		9.650058	-0.621950	-1.569596	-0.007382	-0.002971	-0.002579	-0.873779	0.232910	-0.323242	0.637349	-0.173965	-0.742754	-0.108805
48542		9.670771	-0.552935	-1.550115	0.008647	-0.005661	0.002771	-0.875244	0.234375	-0.313477	0.637374	-0.174059	-0.742731	-0.108671
48543		9.662579	-0.475099	-1.541353	0.020266	-0.005992	0.006511	-0.870850	0.232666	-0.313721	0.637387	-0.174102	-0.742748	-0.108405
48544		9.624274	-0.406161	-1.622014	0.024850	-0.006509	0.002534	-0.866211	0.236572	-0.314697	0.637407	-0.174064	-0.742781	-0.108122
48545		9.676448	-0.297480	-1.649583	0.020340	-0.007171	-0.005980	-0.865723	0.240723	-0.311279	0.637409	-0.174016	-0.742814	-0.107960
48546		9.681240	-0.039826	-1.622178	-0.001827	-0.007604	-0.031508	-0.870117	0.237061	-0.320068	0.637314	-0.173939	-0.742876	-0.108223
48547		9.558547	0.268056	-1.708757	-0.012213	-0.033154	-0.070248	-0.871338	0.235107	-0.316406	0.636932	-0.173592	-0.743196	-0.108825
48548		9.584540	0.543574	-1.800327	0.009391	-0.084392	-0.121141	-0.864502	0.229004	-0.314941	0.636039	-0.172665	-0.744074	-0.109523
48549		9.614131	0.728259	-1.837808	-0.042943	-0.113419	-0.204912	-0.874512	0.225586	-0.315186	0.634656	-0.171398	-0.745282	-0.111304
48550		9.512083	0.891514	-1.963188	-0.062867	-0.112960	-0.315488	-0.866699	0.225586	-0.309814	0.633072	-0.169253	-0.746687	-0.114156
48551		9.272611	1.042336	-2.035010	-0.060568	-0.143809	-0.444759	-0.885254	0.206787	-0.308350	0.631009	-0.165981	-0.748573	-0.117969
48552		9.058308	1.428228	-2.162774	-0.005879	-0.184676	-0.621958	-0.890869	0.199707	-0.305908	0.628368	-0.160591	-0.751228	-0.122555
48553		8.696432	2.019458	-2.275461	-0.037042	-0.255695	-0.835111	-0.885986	0.177734	-0.297363	0.624618	-0.153587	-0.754736	-0.128983
48554		8.074129	3.001986	-2.338916	-0.149696	-0.365555	-1.090139	-0.896729	0.156006	-0.288818	0.619105	-0.145194	-0.759289	-0.138232
48555		7.562420	4.052397	-2.360064	-0.454670	-0.544807	-1.401259	-0.907715	0.123291	-0.273193	0.610610	-0.136489	-0.765042	-0.152438
48556		7.762390	4.244434	-2.553247	-1.282982	-0.801128	-1.703888	-0.915527	0.097412	-0.252686	0.597295	-0.131594	-0.771246	-0.176354
48557		8.890039	2.323324	-1.010741	-1.822210	-0.376257	-2.010205	-0.923828	0.060059	-0.244141	0.585924	-0.126748	-0.772811	-0.208306
48558		7.219086	0.813830	-0.857965	-1.129312	-0.196890	-2.107023	-0.917480	0.020508	-0.239502	0.576531	-0.115282	-0.774208	-0.234359
48559		6.622512	1.508396	-0.588595	-1.027079	-0.124574	-2.076606	-0.922363	-0.022949	-0.245850	0.567588	-0.103081	-0.774647	-0.259114
48560		6.138307	4.638785	-1.562225	-0.984088	-0.295455	-2.075342	-0.924805	-0.062012	-0.229980	0.556603	-0.091059	-0.775746	-0.283054
48561		8.256932	5.154355	-1.475365	-1.413934	-0.255237	-2.171063	-0.921387	-0.108887	-0.240723	0.544594	-0.080896	-0.774463	-0.311576
48562		9.310157	0.394599	-1.668106	-0.641951	-0.001242	-2.022641	-0.911133	-0.153564	-0.244141	0.535963	-0.065850	-0.773544	-0.331718
48563		8.800378	-1.909349	-2.206972	0.469232	0.201289	-1.728253	-0.913574	-0.186279	-0.240967	0.531099	-0.045308	-0.775153	-0.339145
48564		10.045578	2.296019	-3.586407	1.897072	0.161566	-1.503211	-0.891602	-0.239258	-0.243896	0.527227	-0.017693	-0.782457	-0.330878
48565		13.584543	6.673767	-3.259585	1.456932	0.046989	-0.865465	-0.887939	-0.273193	-0.225586	0.524438	0.000381	-0.787951	-0.322642
48566		18.265804	7.074879	-3.418295	0.042203	0.049739	0.004726	-0.891602	-0.276367	-0.233398	0.525002	0.000723	-0.787643	-0.322477
48567		22.367907	2.598097	-5.073615	-0.214753	0.091364	0.812351	-0.898682	-0.249512	-0.238281	0.529219	-0.008428	-0.785940	-0.319616
48568		24.975431	-1.896469	-6.197407	0.655781	0.134641	1.574832	-0.901123	-0.218750	-0.239990	0.536903	-0.019190	-0.787123	-0.302993
48569		24.979372	-2.548689	-6.414366	1.622500	0.306382	2.446712	-0.910645	-0.170166	-0.227051	0.549359	-0.031324	-0.789882	-0.270759
48570		24.229761	2.939957	-6.313822	1.542865	0.802564	2.916370	-0.914795	-0.102051	-0.241455	0.567385	-0.046781	-0.787660	-0.235535
48571		18.582881	11.511282	-2.973964	0.618580	1.104051	3.003142	-0.918457	-0.038574	-0.252930	0.587159	-0.068715	-0.779156	-0.208420
48572		8.275344	8.691025	-0.346822	-0.335451	0.829842	2.410683	-0.911377	0.017578	-0.276123	0.600989	-0.092444	-0.769760	-0.194259
48573		3.122588	1.103899	-4.007453	0.500364	0.673481	1.885836	-0.900635	0.057373	-0.276367	0.612500	-0.105186	-0.763466	-0.175783
48574		-1.589358	0.304341	-5.659263	2.050611	0.093146	2.055466	-0.906494	0.078857	-0.277588	0.620162	-0.108820	-0.764155	-0.140092
48575		0.955661	11.864426	1.070950	2.753276	-0.000085	1.257653	-0.896484	0.094482	-0.283936	0.625539	-0.099328	-0.766880	-0.103583
48576		1.500494	13.833238	-2.094875	1.180984	-0.326464	0.058629	-0.897949	0.092773	-0.274658	0.623780	-0.091115	-0.770906	-0.091105
48577		-0.824213	5.962945	-2.021631	-1.574098	0.538762	-0.265410	-0.885254	0.093750	-0.279053	0.626623	-0.100324	-0.765156	-0.108691
48578		-1.805245	2.255166	0.890918	-2.327973	0.118468	-0.347461	-0.886475	0.110840	-0.277832	0.624003	-0.115140	-0.761252	-0.133634
48579		-1.450054	-1.181702	1.057987	-1.045008	-0.289608	-0.477129	-0.889160	0.106934	-0.272949	0.618841	-0.119415	-0.762384	-0.146789
48580		0.405876	-1.134986	-0.564000	-0.225083	-0.256871	-0.837316	-0.892090	0.094238	-0.261963	0.614492	-0.113820	-0.765124	-0.155017
48581		1.220069	-1.394826	-1.486451	0.068051	0.059903	-0.997968	-0.903076	0.070312	-0.261719	0.613194	-0.103818	-0.766119	-0.162100
48582		0.985421	-0.021059	-0.608981	-0.261160	0.116825	-0.909022	-0.896973	0.054443	-0.273193	0.612107	-0.097045	-0.765782	-0.171711
48583		0.657064	1.586580	-0.269972	-0.153374	0.095225	-0.928347	-0.900391	0.022705	-0.280762	0.610835	-0.089315	-0.765732	-0.180439
48584		0.938121	1.694506	-1.019745	-0.300994	0.185229	-1.021131	-0.899170	0.001953	-0.288574	0.609953	-0.081578	-0.764643	-0.191375
48585		0.315462	2.351837	-1.618938	-1.221504	0.296112	-1.141118	-0.897949	-0.011475	-0.302246	0.608709	-0.079429	-0.760384	-0.212087
48586		3.307815	5.857238	1.814085	-0.119825	-0.298324	-1.397266	-0.904785	-0.039307	-0.296631	0.602000	-0.068005	-0.763524	-0.223614
48587		22.982645	-11.003922	-7.115785	-0.626373	-0.805237	-0.357853	-0.906738	-0.045898	-0.289795	0.592767	-0.071737	-0.767983	-0.231699
48588		28.661006	10.786778	-10.774801	0.817640	-0.464162	-0.831742	-0.917725	-0.076904	-0.281738	0.586643	-0.059136	-0.774366	-0.229586
48589		39.326077	29.579036	-5.057949	-0.806962	-0.590169	-1.402467	-0.922119	-0.097656	-0.268799	0.576262	-0.053222	-0.777165	-0.247192
48590		32.610408	-16.968865	-1.642767	-2.652355	-0.145134	-0.130671	-0.918701	-0.082520	-0.275879	0.572420	-0.071627	-0.769577	-0.273782
48591		29.665282	-12.940460	-7.101785	2.307142	0.477410	0.947169	-0.918457	-0.079834	-0.270264	0.582132	-0.062655	-0.772736	-0.245106
48592		28.141686	10.309642	-1.542954	0.794976	0.754794	2.229246	-0.915527	-0.030029	-0.286133	0.596700	-0.076079	-0.767533	-0.221483
48593		11.651420	2.275356	-2.631245	0.100118	0.721468	1.848529	-0.899658	0.002686	-0.306152	0.608750	-0.091086	-0.760401	-0.207166
48594		6.465907	4.653057	-2.351146	0.724441	0.404319	1.460095	-0.895264	0.045898	-0.305908	0.617175	-0.098362	-0.757328	-0.189408
48595		-1.076911	2.007879	-2.703921	0.888516	-0.236372	1.623103	-0.896240	0.069580	-0.289307	0.619777	-0.107500	-0.759022	-0.167948
48596		-4.927639	5.435147	-2.260322	1.735220	-0.274548	1.373194	-0.894043	0.091553	-0.284424	0.622179	-0.107701	-0.762655	-0.140187
48597		-1.214479	7.056744	-1.670812	1.074393	-0.381567	0.815488	-0.892822	0.104004	-0.282959	0.621337	-0.107903	-0.766288	-0.122880
48598		3.693924	2.577307	-0.491018	-0.985579	0.251132	0.225550	-0.895752	0.114502	-0.275391	0.622729	-0.117480	-0.762433	-0.130781
48599		0.642275	4.376545	0.713138	-1.239322	0.285761	0.207881	-0.894287	0.130371	-0.281494	0.623888	-0.128769	-0.757785	-0.141223
48600		-0.928690	3.262239	0.845889	-0.810193	0.000929	-0.006091	-0.892090	0.135986	-0.285156	0.622556	-0.135183	-0.756305	-0.148838
48601		-2.168178	1.423568	0.038427	-0.447238	-0.213654	-0.245443	-0.888672	0.125244	-0.268555	0.619333	-0.136900	-0.757492	-0.154567
48602		-0.757696	0.324362	-2.633490	-0.847216	-0.355653	-0.508491	-0.905273	0.124023	-0.267822	0.613492	-0.139439	-0.759398	-0.165826
48603		1.455175	0.694987	-0.974608	-0.826713	-0.051465	-0.851316	-0.895020	0.111816	-0.265381	0.609758	-0.137920	-0.759445	-0.180046
48604		1.129257	2.023534	0.460669	0.147317	0.153562	-1.104053	-0.905273	0.087158	-0.268311	0.608963	-0.126100	-0.760385	-0.187290
48605		-0.407414	3.324785	-2.030793	-0.063296	-0.189106	-1.206945	-0.913086	0.059326	-0.269775	0.604203	-0.115685	-0.763447	-0.196737
48606		0.818007	-1.302711	2.050778	-0.823698	-0.480102	-1.253493	-0.912109	0.044922	-0.265869	0.595271	-0.111246	-0.766656	-0.213343
48607		26.347014	0.014739	-6.008975	0.478211	-1.124234	0.226783	-0.926270	0.037842	-0.254883	0.585753	-0.113034	-0.775801	-0.205546
48608		27.703337	14.266189	-3.985336	-1.336998	-0.174750	-0.855656	-0.925537	0.023438	-0.252930	0.579939	-0.115080	-0.774593	-0.224571
48609		33.754277	3.360982	-7.565346	-0.845655	-0.347574	-0.909738	-0.933350	0.009033	-0.249268	0.572811	-0.113498	-0.775819	-0.238978
48610		33.361353	-4.493302	-6.355694	0.494827	0.158511	-0.542207	-0.931396	0.008057	-0.247803	0.573496	-0.104355	-0.776768	-0.238420
48611		32.648044	-1.845108	-6.030865	1.099510	0.546197	0.705074	-0.923096	0.005371	-0.255615	0.582332	-0.101846	-0.774991	-0.223396
48612		22.570593	0.905496	-6.194532	0.545379	0.599352	1.592600	-0.914062	0.040283	-0.265381	0.593222	-0.111685	-0.769868	-0.207167
48613		10.805473	4.798806	-4.187345	0.228985	0.352316	1.603694	-0.915039	0.080566	-0.257812	0.601041	-0.124543	-0.765401	-0.193392
48614		4.369256	8.483458	-1.622468	-0.009980	-0.126511	1.410603	-0.906250	0.110840	-0.257812	0.603177	-0.138491	-0.764004	-0.182473
48615		1.688194	7.620211	2.514199	-1.693026	0.153672	1.126391	-0.906738	0.145508	-0.247559	0.604131	-0.161721	-0.756756	-0.190242
48616		-1.747344	6.712396	-0.708259	-1.024160	0.261333	0.260844	-0.889648	0.165283	-0.248535	0.605118	-0.171416	-0.751725	-0.198391
48617		-3.125271	1.019695	-2.086869	-0.649429	0.004346	-0.462819	-0.900146	0.157471	-0.235107	0.602607	-0.172152	-0.750982	-0.207977
48618		-0.228502	-3.692799	0.645785	-0.617035	-0.015731	-0.415407	-0.903320	0.143311	-0.237061	0.600023	-0.173117	-0.750333	-0.216802
48619		1.838563	-1.283543	0.984615	0.389667	0.083386	-0.350721	-0.907959	0.128174	-0.237549	0.600705	-0.166801	-0.751478	-0.215896
48620		0.574814	0.292982	0.445761	0.814397	0.114015	-0.430768	-0.902832	0.124512	-0.243408	0.602295	-0.156429	-0.753645	-0.211638
48621		0.060730	0.130813	0.027448	0.529764	0.050078	-0.549752	-0.900146	0.107422	-0.253418	0.602349	-0.147277	-0.755669	-0.210831
48622		0.521541	-0.387733	0.403304	0.336759	-0.015342	-0.548617	-0.905518	0.093018	-0.254883	0.601401	-0.139739	-0.757602	-0.211729
48623		0.499733	0.383947	0.341201	0.474758	0.009976	-0.536655	-0.907227	0.076172	-0.264404	0.600925	-0.131200	-0.759635	-0.211261
48624		-0.035295	2.036237	-0.310748	0.525755	-0.026006	-0.537397	-0.902588	0.062256	-0.258057	0.600148	-0.122350	-0.761999	-0.210264
48625		-0.449640	2.495262	-0.738728	-0.126561	-0.094427	-0.511940	-0.916016	0.047119	-0.268555	0.597740	-0.118822	-0.763080	-0.215169
48626		-0.085984	2.596802	-0.209923	-0.552704	0.195196	-0.751922	-0.911133	0.026611	-0.272217	0.596767	-0.115393	-0.761120	-0.226385
48627		6.955604	19.488481	-3.374703	0.844753	-0.680954	-1.066662	-0.912842	0.005859	-0.266113	0.588437	-0.100969	-0.769915	-0.225340
48628		29.653806	1.604166	-10.956814	-0.293334	-1.204198	-1.845545	-0.917969	-0.023682	-0.250977	0.571099	-0.088901	-0.779868	-0.240308
48629		31.851292	22.746360	-12.012851	-0.588794	-0.436334	-2.337772	-0.923340	-0.083740	-0.239258	0.558964	-0.071793	-0.783324	-0.262316
48630		22.198838	-17.583718	2.759889	-2.664039	-0.645407	-1.464516	-0.931885	-0.105713	-0.235107	0.545079	-0.078316	-0.779689	-0.298063
48631		20.126537	-9.302293	-3.769965	1.605199	0.197318	0.297429	-0.927002	-0.107910	-0.233398	0.549657	-0.069659	-0.783751	-0.280642
48632		26.572056	9.801225	-0.346869	0.353778	0.414481	1.600753	-0.933105	-0.065918	-0.238037	0.559617	-0.081541	-0.780490	-0.266486
48633		14.779946	-3.171862	-2.927756	-1.145470	0.583218	1.934849	-0.923828	-0.016113	-0.256592	0.570433	-0.106576	-0.770222	-0.264585
48634		11.059088	-1.612746	-5.506450	0.246423	0.864800	1.719600	-0.911621	0.028320	-0.270508	0.584702	-0.118581	-0.762283	-0.250973
48635		7.007684	-0.118186	-4.279588	0.808127	0.594389	2.067981	-0.907471	0.069336	-0.279053	0.597895	-0.130564	-0.757046	-0.228814
48636		6.369548	1.934091	-3.012125	0.644527	0.394800	2.113630	-0.901367	0.107422	-0.279541	0.608561	-0.144658	-0.752163	-0.207311
48637		5.589405	1.290836	-2.213962	0.468856	0.212027	1.741999	-0.894287	0.143799	-0.299561	0.615805	-0.156964	-0.748414	-0.189797
48638		5.075210	0.135381	-1.401351	0.929492	0.102913	1.850418	-0.886230	0.185059	-0.294678	0.622835	-0.166904	-0.745908	-0.166853
48639		4.870725	1.112800	-0.944992	0.856336	0.100971	1.834864	-0.869141	0.215820	-0.308350	0.629225	-0.177189	-0.742820	-0.144565
48640		7.018478	2.358460	0.006529	0.684089	0.116976	1.483567	-0.868164	0.248047	-0.306396	0.634420	-0.185436	-0.739655	-0.126627
48641		10.241787	4.226652	-0.215171	0.275195	0.151338	1.076164	-0.855469	0.266357	-0.304443	0.638119	-0.193071	-0.736297	-0.115738
48642		11.524453	2.188461	-1.883911	-0.118919	0.041142	0.820483	-0.851318	0.287109	-0.316895	0.639373	-0.201635	-0.733749	-0.110266
48643		10.249522	-0.108386	-2.491809	-0.100744	0.038887	0.803662	-0.848145	0.305908	-0.308838	0.640581	-0.209880	-0.731182	-0.104779
48644		8.697682	1.378522	-2.446652	0.140738	0.027474	0.670935	-0.840332	0.319580	-0.308838	0.642069	-0.214984	-0.729317	-0.098109
48645		8.707007	2.056267	-1.571704	0.113521	-0.028038	0.273165	-0.840820	0.322021	-0.315430	0.642460	-0.216745	-0.728897	-0.094742
48646		9.466374	0.532874	-1.792325	0.171373	-0.022072	-0.140908	-0.843506	0.321045	-0.312500	0.642576	-0.214248	-0.729601	-0.094210
48647		9.845965	-1.369190	-1.963631	0.306642	0.031849	-0.327901	-0.857178	0.319092	-0.312500	0.643307	-0.208908	-0.730520	-0.094103
48648		9.412449	-1.837916	-1.337454	0.463641	0.016154	-0.343485	-0.843750	0.292236	-0.315918	0.644247	-0.202191	-0.731765	-0.092648
48649		9.267488	-1.042846	-1.009742	0.315535	-0.047996	-0.241372	-0.848145	0.298584	-0.321533	0.644333	-0.197625	-0.733074	-0.091554
48650		9.917625	-1.401191	-1.024736	-0.075794	-0.019521	-0.105821	-0.854736	0.291260	-0.323242	0.643866	-0.197455	-0.733345	-0.093024
48651		10.056039	-2.253311	-1.192226	-0.274548	0.014887	0.031732	-0.855957	0.291016	-0.322021	0.643381	-0.200079	-0.732768	-0.095294
48652		9.511802	-1.813132	-1.520203	-0.247260	-0.006751	0.146118	-0.847900	0.299561	-0.315186	0.642895	-0.203540	-0.732105	-0.096332
48653		9.320804	-1.556072	-1.663321	-0.239534	-0.010733	0.205639	-0.842773	0.311279	-0.313477	0.642449	-0.207504	-0.731320	-0.096811
48654		9.433054	-1.587244	-1.538379	-0.210628	0.030933	0.181517	-0.849121	0.313232	-0.316406	0.642423	-0.210979	-0.730280	-0.097324
48655		9.472000	-1.390723	-1.777435	-0.095607	0.062424	0.123673	-0.844971	0.309326	-0.310547	0.642914	-0.212939	-0.729277	-0.097329
48656		9.503157	-1.299997	-1.903964	0.048525	0.059218	0.071858	-0.841064	0.310547	-0.312744	0.643684	-0.213259	-0.728623	-0.096434
48657		9.760388	-1.394700	-1.867427	0.178927	0.048861	0.008550	-0.844727	0.312500	-0.316162	0.644633	-0.211965	-0.728373	-0.094829
48658		9.768339	-0.839459	-1.815465	0.273149	0.047409	-0.051049	-0.835938	0.316406	-0.317871	0.645740	-0.209375	-0.728396	-0.092844
48659		9.610268	-0.338168	-1.570029	0.266108	0.058163	-0.091573	-0.847412	0.318115	-0.327637	0.646876	-0.206487	-0.728411	-0.091281
48660		9.579612	-0.618222	-1.304746	0.236257	0.029469	-0.119150	-0.838623	0.306641	-0.330566	0.647639	-0.203623	-0.728681	-0.090141
48661		9.708530	-1.068125	-1.380631	0.257567	-0.003354	-0.141022	-0.850830	0.299072	-0.327393	0.648132	-0.200400	-0.729289	-0.088889
48662		9.721674	-1.195784	-1.476851	0.339977	0.029902	-0.167751	-0.850342	0.292725	-0.329346	0.649078	-0.196223	-0.729787	-0.087207
48663		9.539466	-1.065184	-1.349324	0.414171	0.059055	-0.183809	-0.848145	0.285156	-0.335693	0.650436	-0.191262	-0.730150	-0.085051
48664		9.524046	-1.105502	-1.329656	0.408196	0.053117	-0.181887	-0.846924	0.284180	-0.336670	0.651713	-0.186363	-0.730524	-0.082908
48665		9.866196	-1.203750	-1.242842	0.295981	0.038988	-0.134224	-0.844238	0.276611	-0.352051	0.652631	-0.182852	-0.730763	-0.081381
48666		9.765906	-1.024359	-1.248669	0.155006	0.052226	-0.073450	-0.852539	0.269287	-0.340820	0.653428	-0.180999	-0.730596	-0.080631
48667		9.564055	-0.759040	-1.311337	0.043248	0.021833	-0.042471	-0.851074	0.275635	-0.347168	0.653693	-0.180377	-0.730513	-0.080625
48668		9.638305	-0.795757	-1.274156	-0.019225	0.003245	-0.045600	-0.843262	0.274414	-0.340088	0.653656	-0.180274	-0.730512	-0.081166
48669		9.730885	-1.031786	-1.379663	-0.008668	-0.001303	-0.044238	-0.847412	0.265869	-0.344238	0.653596	-0.180114	-0.730556	-0.081606
48670		9.691762	-1.091777	-1.242013	0.005994	0.011199	-0.038898	-0.843994	0.265137	-0.345947	0.653692	-0.179832	-0.730509	-0.081873
48671		9.650858	-1.124272	-1.244702	0.054648	0.017843	-0.038989	-0.844727	0.274902	-0.348877	0.653964	-0.179142	-0.730454	-0.081704
48672		9.677131	-1.010803	-1.212908	0.089111	0.013156	-0.049831	-0.846680	0.266602	-0.349365	0.654263	-0.178113	-0.730482	-0.081312
48673		9.727783	-0.889381	-1.245299	0.085491	0.012352	-0.055300	-0.847412	0.268311	-0.352783	0.654538	-0.177038	-0.730534	-0.080986
48674		9.666085	-0.839809	-1.289716	0.042990	0.015933	-0.052795	-0.849609	0.268066	-0.343262	0.654757	-0.176339	-0.730501	-0.081037
48675		9.661291	-0.885058	-1.337742	-0.042712	0.013205	-0.042108	-0.849854	0.259521	-0.348877	0.654753	-0.176463	-0.730388	-0.081815
48676		9.657520	-0.957814	-1.258051	-0.097368	0.011432	-0.034130	-0.846436	0.260254	-0.357910	0.654629	-0.177066	-0.730220	-0.082988
48677		9.690225	-1.060305	-1.204374	-0.075328	0.009120	-0.030045	-0.855713	0.266846	-0.356934	0.654556	-0.177514	-0.730074	-0.083887
48678		9.699505	-1.107681	-1.208101	-0.049442	0.008217	-0.027170	-0.850098	0.266602	-0.350342	0.654527	-0.177801	-0.729954	-0.084550
48679		9.648778	-1.070276	-1.243760	-0.030664	0.008419	-0.031738	-0.848145	0.265137	-0.343018	0.654529	-0.177904	-0.729864	-0.085095
48680		9.695502	-1.009761	-1.276393	-0.012015	0.006881	-0.034971	-0.842285	0.267334	-0.350586	0.654542	-0.177836	-0.729819	-0.085514
48681		9.686766	-0.980408	-1.266721	-0.013383	0.002464	-0.039417	-0.855713	0.255615	-0.354736	0.654526	-0.177740	-0.729806	-0.085947
48682		9.669209	-1.030730	-1.248413	-0.034628	0.006375	-0.036105	-0.846436	0.274902	-0.341553	0.654499	-0.177788	-0.729751	-0.086524
48683		9.641636	-1.073305	-1.216100	-0.017556	-0.004540	-0.041305	-0.842041	0.261719	-0.353271	0.654388	-0.177766	-0.729792	-0.087053
48684		9.687492	-1.099538	-1.195708	-0.007969	-0.010864	-0.033663	-0.845215	0.259521	-0.349365	0.654274	-0.177669	-0.729884	-0.087337
48685		9.708256	-1.095169	-1.233843	-0.010608	-0.004148	-0.021411	-0.847656	0.268311	-0.350342	0.654220	-0.177697	-0.729898	-0.087570
48686		9.677180	-1.116540	-1.178870	0.011787	-0.000876	-0.018424	-0.849609	0.257080	-0.350830	0.654249	-0.177598	-0.729892	-0.087605
48687		9.654446	-1.069658	-1.216100	0.024344	-0.003232	-0.013808	-0.851318	0.270020	-0.350098	0.654288	-0.177395	-0.729925	-0.087449
48688		9.662798	-1.021850	-1.297327	0.048757	-0.009484	-0.020038	-0.851807	0.262695	-0.351074	0.654316	-0.176998	-0.730032	-0.087151
48689		9.708005	-0.980819	-1.236826	0.052689	-0.015054	-0.018773	-0.855225	0.257324	-0.345459	0.654303	-0.176556	-0.730196	-0.086771
48690		9.685414	-0.960133	-1.250362	0.013911	-0.009857	-0.014107	-0.852295	0.264648	-0.354492	0.654243	-0.176458	-0.730279	-0.086727
48691		9.667527	-0.893455	-1.220006	0.007549	-0.013357	-0.021252	-0.855713	0.256836	-0.350586	0.654150	-0.176365	-0.730378	-0.086779
48692		9.692884	-0.896168	-1.176853	-0.010168	-0.013681	-0.022249	-0.849609	0.259033	-0.342041	0.654004	-0.176383	-0.730479	-0.086994
48693		9.692723	-1.026003	-1.188740	-0.013196	-0.009538	-0.020689	-0.844727	0.262451	-0.353760	0.653880	-0.176464	-0.730538	-0.087267
48694		9.657321	-1.055370	-1.197140	0.006941	-0.001927	-0.016812	-0.846436	0.258545	-0.348389	0.653901	-0.176400	-0.730530	-0.087303
48695		9.660887	-1.041902	-1.239520	0.001229	-0.009296	-0.009441	-0.843750	0.264404	-0.349365	0.653839	-0.176451	-0.730571	-0.087324
48696		9.646043	-0.979192	-1.244017	-0.013024	-0.009752	-0.005410	-0.852051	0.259033	-0.351807	0.653750	-0.176680	-0.730579	-0.087455
48697		9.675579	-0.951305	-1.240002	-0.011206	-0.010779	-0.004707	-0.851318	0.255127	-0.347900	0.653655	-0.176869	-0.730609	-0.087537
48698		9.674195	-0.974467	-1.244878	-0.033742	-0.012605	0.004785	-0.846680	0.256592	-0.343750	0.653496	-0.177322	-0.730617	-0.087744
48699		9.675434	-0.976074	-1.221514	-0.054581	-0.012739	0.004580	-0.846191	0.264160	-0.351562	0.653287	-0.177955	-0.730600	-0.088156
48700		9.684736	-1.007988	-1.229136	-0.045583	-0.016688	0.005472	-0.852051	0.262207	-0.345947	0.653079	-0.178539	-0.730607	-0.088460
48701		9.680256	-0.979803	-1.224473	-0.012840	-0.013904	-0.003194	-0.855713	0.267334	-0.343018	0.652945	-0.178770	-0.730658	-0.088556
48702		9.706936	-0.973905	-1.250067	-0.017522	-0.010667	-0.005937	-0.851074	0.269531	-0.344971	0.652821	-0.179036	-0.730680	-0.088756
48703		9.680906	-1.026057	-1.269378	-0.026808	-0.012354	-0.002003	-0.852051	0.261719	-0.348877	0.652673	-0.179420	-0.730689	-0.088998
48704		9.679684	-0.999620	-1.299217	-0.011070	-0.016380	0.001611	-0.853271	0.265381	-0.343750	0.652533	-0.179668	-0.730751	-0.089011
48705		9.674151	-0.983466	-1.302215	-0.024779	-0.016854	0.002853	-0.848877	0.264893	-0.338867	0.652351	-0.180063	-0.730797	-0.089170
48706		9.687415	-0.956453	-1.285277	-0.038890	-0.016594	-0.003460	-0.846436	0.265137	-0.342529	0.652126	-0.180521	-0.730841	-0.089522
48707		9.696987	-0.973571	-1.299003	-0.015699	-0.016746	-0.011400	-0.853027	0.265137	-0.339600	0.651954	-0.180709	-0.730926	-0.089705
48708		9.677760	-1.030190	-1.299353	-0.008003	-0.015714	-0.008905	-0.854492	0.264160	-0.338867	0.651802	-0.180858	-0.731011	-0.089815
48709		9.687383	-1.047996	-1.312281	-0.006962	-0.014710	-0.005463	-0.849609	0.263428	-0.345703	0.651663	-0.181024	-0.731085	-0.089887
48710		9.654302	-1.033777	-1.305859	0.002057	-0.015027	-0.006577	-0.854736	0.262451	-0.337158	0.651558	-0.181089	-0.731168	-0.089847
48711		9.659063	-0.998360	-1.335374	0.004619	-0.017692	-0.009495	-0.844971	0.270752	-0.338379	0.651411	-0.181120	-0.731292	-0.089836
48712		9.666365	-1.003433	-1.306597	-0.005487	-0.022778	-0.003788	-0.854004	0.271973	-0.341309	0.651214	-0.181329	-0.731411	-0.089880
48713		9.687630	-1.007271	-1.319946	-0.016617	-0.012860	0.002930	-0.853760	0.264648	-0.338867	0.651089	-0.181673	-0.731424	-0.089988
48714		9.653463	-0.969039	-1.339225	-0.020288	-0.013346	0.004588	-0.848389	0.270264	-0.336914	0.650947	-0.182031	-0.731448	-0.090091
48715		9.662861	-0.976954	-1.357856	-0.011276	-0.012571	0.004523	-0.850098	0.270752	-0.335693	0.650836	-0.182343	-0.731463	-0.090140
48716		9.672289	-1.009433	-1.364024	-0.005346	-0.011234	0.000090	-0.849854	0.262451	-0.340576	0.650742	-0.182565	-0.731486	-0.090178
48717		9.649255	-0.978667	-1.383466	-0.007892	-0.007805	-0.003027	-0.854004	0.269287	-0.340332	0.650679	-0.182726	-0.731498	-0.090212
48718		9.679631	-0.989729	-1.347642	-0.023615	-0.011847	-0.000882	-0.849854	0.270508	-0.334229	0.650543	-0.183067	-0.731511	-0.090395
48719		9.677215	-1.024083	-1.360703	-0.027863	-0.012619	0.000770	-0.852295	0.274658	-0.333496	0.650385	-0.183477	-0.731521	-0.090629
48720		9.660979	-1.036087	-1.342779	-0.032382	-0.006239	0.000582	-0.853027	0.268311	-0.338379	0.650272	-0.183930	-0.731469	-0.090938
48721		9.653763	-1.079106	-1.341158	-0.020202	-0.008240	-0.001536	-0.854980	0.268311	-0.336670	0.650174	-0.184224	-0.731462	-0.091095
48722		9.658415	-1.069287	-1.357840	-0.008266	-0.014438	-0.002949	-0.852051	0.273193	-0.338623	0.650042	-0.184415	-0.731525	-0.091145
48723		9.659048	-1.081732	-1.341418	-0.014670	-0.010269	-0.002698	-0.851562	0.276611	-0.331055	0.649941	-0.184673	-0.731535	-0.091269
48724		9.657765	-1.104390	-1.346115	-0.017611	-0.010208	-0.002540	-0.856201	0.268066	-0.340332	0.649820	-0.184987	-0.731538	-0.091466
48725		9.653457	-1.101203	-1.327821	-0.004897	-0.012299	0.000516	-0.858643	0.273438	-0.338623	0.649727	-0.185162	-0.731581	-0.091434
48726		9.652023	-1.087500	-1.350849	0.000234	-0.014749	-0.001295	-0.861572	0.272461	-0.336914	0.649617	-0.185308	-0.731646	-0.091395
48727		9.665485	-1.036362	-1.344621	-0.002122	-0.015490	-0.002189	-0.853516	0.267822	-0.334717	0.649488	-0.185463	-0.731722	-0.091386
48728		9.672052	-0.991200	-1.352314	-0.005608	-0.014248	-0.006142	-0.848389	0.275635	-0.345947	0.649361	-0.185592	-0.731797	-0.091426
48729		9.686552	-1.012470	-1.373061	-0.001889	-0.017421	-0.010124	-0.841553	0.278076	-0.332275	0.649236	-0.185670	-0.731888	-0.091430
48730		9.664424	-0.967864	-1.386342	-0.029055	-0.014874	-0.010203	-0.847168	0.270508	-0.337891	0.649052	-0.186009	-0.731924	-0.091764
48731		9.656226	-1.031618	-1.389063	-0.038072	-0.018506	-0.014194	-0.845703	0.274170	-0.338135	0.648814	-0.186336	-0.732004	-0.092140
48732		9.664074	-1.045991	-1.354790	-0.022893	-0.018400	-0.018677	-0.854248	0.268311	-0.336670	0.648611	-0.186512	-0.732103	-0.092425
48733		9.669885	-1.020190	-1.365516	-0.011017	-0.019051	-0.022777	-0.846924	0.272949	-0.331055	0.648415	-0.186527	-0.732248	-0.092616
48734		9.661793	-1.006766	-1.403967	-0.018602	-0.018318	-0.026581	-0.850830	0.276611	-0.333984	0.648201	-0.186606	-0.732375	-0.092953
48735		9.648735	-0.988711	-1.435396	-0.023034	-0.022907	-0.029413	-0.851074	0.273926	-0.334473	0.647935	-0.186709	-0.732535	-0.093344
48736		9.644049	-1.026927	-1.409904	-0.046674	-0.017988	-0.027512	-0.851562	0.270508	-0.333252	0.647663	-0.186999	-0.732626	-0.093931
48737		9.657410	-1.140261	-1.412585	-0.049239	-0.016814	-0.020480	-0.845947	0.279785	-0.336182	0.647401	-0.187358	-0.732696	-0.094474
48738		9.644733	-1.113181	-1.372821	-0.025022	-0.013440	-0.020115	-0.852539	0.281738	-0.333740	0.647241	-0.187556	-0.732743	-0.094817
48739		9.633883	-1.099504	-1.374998	-0.004413	-0.014222	-0.020410	-0.855225	0.273438	-0.329590	0.647112	-0.187596	-0.732823	-0.094996
48740		9.644416	-1.053101	-1.403761	0.001007	-0.015824	-0.018154	-0.852783	0.280273	-0.323730	0.646973	-0.187586	-0.732936	-0.095088
48741		9.643354	-1.059704	-1.415683	0.003748	-0.018591	-0.021750	-0.856689	0.263916	-0.333740	0.646803	-0.187571	-0.733071	-0.095237
48742		9.651161	-1.024368	-1.403837	0.001732	-0.015263	-0.019663	-0.853516	0.274902	-0.334717	0.646676	-0.187484	-0.733201	-0.095267
48743		9.642123	-1.036398	-1.442419	0.009793	-0.011923	-0.021506	-0.855225	0.278320	-0.329834	0.646604	-0.187361	-0.733294	-0.095288
48744		9.645714	-1.047688	-1.397931	0.010010	-0.011373	-0.020218	-0.852051	0.274170	-0.327637	0.646528	-0.187277	-0.733375	-0.095342
48745		9.642627	-1.052536	-1.435543	0.020644	-0.011464	-0.018977	-0.852783	0.273193	-0.335205	0.646476	-0.187106	-0.733473	-0.095278
48746		9.634625	-0.993040	-1.418359	0.020145	-0.009192	-0.026342	-0.846680	0.278809	-0.330322	0.646449	-0.186846	-0.733568	-0.095239
48747		9.639119	-1.027437	-1.424460	0.023951	-0.015700	-0.025585	-0.850342	0.274170	-0.325928	0.646369	-0.186612	-0.733704	-0.095193
48748		9.644902	-1.002454	-1.433051	0.028513	-0.013385	-0.021234	-0.856445	0.271484	-0.329346	0.646314	-0.186369	-0.733829	-0.095082
48749		9.639943	-0.995410	-1.428097	0.021278	-0.014128	-0.015084	-0.855957	0.266846	-0.325195	0.646244	-0.186220	-0.733944	-0.094961
48750		9.671445	-0.956109	-1.402569	0.021882	-0.012071	-0.012081	-0.858887	0.271484	-0.326172	0.646189	-0.186080	-0.734046	-0.094816
48751		9.660507	-0.932314	-1.471693	0.012789	-0.009916	-0.011587	-0.856445	0.267090	-0.322998	0.646134	-0.186036	-0.734111	-0.094774
48752		9.636813	-0.948929	-1.479729	0.009330	-0.005149	-0.009528	-0.855225	0.271240	-0.324951	0.646113	-0.186020	-0.734136	-0.094754
48753		9.673512	-0.926710	-1.454511	0.006775	-0.006158	-0.004591	-0.856689	0.272949	-0.330566	0.646088	-0.186087	-0.734146	-0.094722
48754		9.666598	-0.944941	-1.463702	-0.002676	-0.004829	-0.003870	-0.848877	0.269287	-0.330566	0.646065	-0.186228	-0.734127	-0.094751
48755		9.660204	-0.914073	-1.481918	-0.002661	0.003141	-0.005894	-0.852783	0.273193	-0.329102	0.646118	-0.186324	-0.734050	-0.094790
48756		9.667289	-0.940559	-1.526022	0.001925	0.000829	-0.012930	-0.856445	0.275391	-0.333984	0.646147	-0.186342	-0.734010	-0.094869
48757		9.657806	-0.929617	-1.510826	-0.014037	-0.000500	-0.016803	-0.857422	0.267090	-0.331543	0.646128	-0.186453	-0.733968	-0.095108
48758		9.662994	-0.941847	-1.450570	-0.025976	-0.000198	-0.015463	-0.861572	0.270752	-0.336914	0.646079	-0.186637	-0.733923	-0.095422
48759		9.673859	-0.981737	-1.448742	-0.024593	-0.000151	-0.015234	-0.852051	0.274902	-0.332520	0.646042	-0.186813	-0.733873	-0.095711
48760		9.641816	-1.025993	-1.484485	0.003520	0.003999	-0.014453	-0.855469	0.270752	-0.328613	0.646110	-0.186798	-0.733809	-0.095780
48761		9.642105	-1.010115	-1.489376	0.009989	0.003123	-0.015867	-0.855469	0.261963	-0.329834	0.646171	-0.186708	-0.733774	-0.095806
48762		9.639695	-0.993209	-1.459413	0.006419	0.001799	-0.012451	-0.851562	0.263672	-0.326172	0.646216	-0.186636	-0.733755	-0.095787
48763		9.677910	-0.970885	-1.418414	0.004033	0.004297	-0.010135	-0.853760	0.270508	-0.332031	0.646277	-0.186621	-0.733703	-0.095804
48764		9.650451	-0.959977	-1.414276	0.002655	0.004251	-0.010370	-0.851807	0.278564	-0.331055	0.646346	-0.186632	-0.733635	-0.095836
48765		9.671781	-0.972921	-1.429634	0.006062	0.007474	-0.010140	-0.854248	0.275635	-0.333252	0.646453	-0.186657	-0.733528	-0.095886
48766		9.656103	-1.007426	-1.409208	0.010756	0.000725	-0.013462	-0.853271	0.274658	-0.332031	0.646506	-0.186601	-0.733496	-0.095881
48767		9.651292	-0.988880	-1.406738	0.026826	0.001668	-0.013034	-0.862549	0.265137	-0.325928	0.646604	-0.186417	-0.733477	-0.095730
48768		9.656725	-0.941566	-1.423416	0.015095	0.002502	-0.010402	-0.855225	0.271484	-0.330811	0.646662	-0.186322	-0.733458	-0.095669
48769		9.663566	-0.969638	-1.404753	0.012367	0.000532	-0.005884	-0.850830	0.272705	-0.337646	0.646718	-0.186312	-0.733421	-0.095589
48770		9.659099	-0.976756	-1.390930	0.008314	-0.000707	-0.011976	-0.853760	0.271973	-0.333008	0.646765	-0.186269	-0.733396	-0.095553
48771		9.660028	-0.950112	-1.388945	0.004880	0.000796	-0.013121	-0.850342	0.274170	-0.331787	0.646803	-0.186250	-0.733362	-0.095589
48772		9.670519	-0.966842	-1.397811	0.010173	0.001520	-0.012410	-0.849854	0.268555	-0.332275	0.646862	-0.186210	-0.733320	-0.095589
48773		9.650810	-0.973213	-1.431199	0.014200	-0.000775	-0.012331	-0.858643	0.279297	-0.323730	0.646909	-0.186112	-0.733313	-0.095516
48774		9.665044	-0.956768	-1.403403	0.010387	-0.000781	-0.015194	-0.846680	0.269043	-0.333984	0.646919	-0.186096	-0.733295	-0.095615
48775		9.671172	-0.945545	-1.403421	0.001212	-0.001501	-0.014447	-0.853516	0.271240	-0.332764	0.646933	-0.186085	-0.733279	-0.095668
48776		9.661303	-0.971519	-1.383929	-0.000831	0.001817	-0.012352	-0.855225	0.258545	-0.330322	0.646967	-0.186119	-0.733229	-0.095755
48777		9.654903	-0.987579	-1.392157	-0.008847	-0.003738	-0.012614	-0.854248	0.274658	-0.327881	0.646922	-0.186165	-0.733243	-0.095860
48778		9.659224	-0.999298	-1.408221	-0.004065	-0.000458	-0.012156	-0.854248	0.272705	-0.324463	0.646917	-0.186260	-0.733202	-0.096018
48779		9.656596	-0.982264	-1.379180	0.000974	0.000121	-0.013608	-0.857422	0.270996	-0.333008	0.646920	-0.186301	-0.733172	-0.096153
48780		9.661097	-0.994171	-1.393920	0.001009	0.005132	-0.011720	-0.851807	0.278076	-0.327393	0.646987	-0.186318	-0.733099	-0.096226
48781		9.652711	-0.984878	-1.364712	-0.000495	-0.003454	-0.015536	-0.845703	0.269775	-0.337158	0.646960	-0.186376	-0.733086	-0.096389
48782		9.667250	-1.015997	-1.390282	0.011401	-0.004779	-0.013632	-0.848633	0.270020	-0.334961	0.646977	-0.186288	-0.733104	-0.096317
48783		9.657505	-1.006027	-1.376011	0.000254	-0.004768	-0.012053	-0.848389	0.274170	-0.332764	0.646962	-0.186313	-0.733106	-0.096352
48784		9.657536	-1.039498	-1.372259	-0.002349	0.001498	-0.011079	-0.854980	0.279785	-0.333496	0.646996	-0.186387	-0.733044	-0.096452
48785		9.642777	-0.977363	-1.359971	0.010704	-0.006420	-0.013194	-0.860840	0.266846	-0.325928	0.646982	-0.186370	-0.733060	-0.096460
48786		9.658534	-0.974012	-1.376505	0.030251	-0.009089	-0.013775	-0.855225	0.273682	-0.329834	0.646964	-0.186148	-0.733156	-0.096276
48787		9.661238	-0.973165	-1.412701	0.026390	-0.005846	-0.013437	-0.849609	0.265869	-0.327881	0.646982	-0.185983	-0.733200	-0.096138
48788		9.665275	-0.950123	-1.370992	0.015756	-0.008393	-0.011599	-0.855957	0.270996	-0.331299	0.646954	-0.185892	-0.733260	-0.096045
48789		9.670003	-0.902850	-1.390505	0.009897	-0.007653	-0.009303	-0.854980	0.269043	-0.335205	0.646924	-0.185884	-0.733294	-0.096001
48790		9.657678	-0.891542	-1.404648	0.004851	-0.010011	-0.010852	-0.853271	0.264404	-0.333008	0.646869	-0.185884	-0.733346	-0.095975
48791		9.665035	-0.943446	-1.377283	-0.001278	-0.012667	-0.009598	-0.855225	0.268066	-0.328125	0.646773	-0.185931	-0.733419	-0.095976
48792		9.662098	-0.963193	-1.408653	0.006711	-0.006006	-0.008286	-0.845703	0.266602	-0.341309	0.646746	-0.185950	-0.733440	-0.095959
48793		9.664531	-0.927362	-1.386795	-0.001289	-0.005483	-0.005575	-0.849609	0.261475	-0.336914	0.646747	-0.186012	-0.733431	-0.095894
48794		9.663556	-0.937200	-1.396634	-0.011660	-0.010741	-0.005635	-0.853271	0.270508	-0.326904	0.646662	-0.186148	-0.733469	-0.095917
48795		9.661369	-0.945788	-1.420518	-0.004955	-0.007789	-0.006891	-0.860596	0.266113	-0.336426	0.646594	-0.186291	-0.733481	-0.096007
48796		9.642377	-0.954059	-1.442651	-0.009625	-0.008641	-0.006720	-0.850342	0.266113	-0.323730	0.646521	-0.186418	-0.733506	-0.096060
48797		9.645317	-1.014782	-1.401401	-0.010707	-0.009240	-0.011057	-0.854980	0.267090	-0.333252	0.646417	-0.186556	-0.733542	-0.096224
48798		9.661784	-0.999600	-1.411032	0.004128	-0.008006	-0.012415	-0.855469	0.269531	-0.331055	0.646375	-0.186532	-0.733586	-0.096211
48799		9.637561	-0.991522	-1.431183	0.012723	-0.009016	-0.009059	-0.848633	0.274414	-0.334473	0.646343	-0.186490	-0.733637	-0.096118
48800		9.648489	-0.998192	-1.434806	-0.003437	-0.008937	-0.004049	-0.858643	0.273193	-0.333496	0.646295	-0.186640	-0.733640	-0.096127
48801		9.654161	-0.988386	-1.436641	0.004293	-0.007051	-0.011995	-0.850586	0.272461	-0.333984	0.646262	-0.186646	-0.733666	-0.096142
48802		9.659579	-0.965541	-1.443917	0.013104	-0.006033	-0.011477	-0.854492	0.272461	-0.326660	0.646268	-0.186580	-0.733689	-0.096058
48803		9.655076	-0.971799	-1.431775	0.004314	-0.008137	-0.013067	-0.855713	0.270020	-0.329590	0.646211	-0.186596	-0.733727	-0.096116
48804		9.644438	-1.009380	-1.421620	0.005998	-0.006858	-0.013931	-0.849609	0.271240	-0.329102	0.646175	-0.186567	-0.733763	-0.096137
48805		9.642889	-0.993259	-1.442718	0.019634	-0.007263	-0.012050	-0.852539	0.259766	-0.325928	0.646174	-0.186455	-0.733808	-0.096019
48806		9.647506	-0.982359	-1.457158	0.017924	-0.003129	-0.010171	-0.851562	0.270264	-0.323242	0.646197	-0.186318	-0.733841	-0.095878
48807		9.637642	-0.973479	-1.442973	0.011356	-0.009061	-0.009304	-0.857178	0.275391	-0.324463	0.646148	-0.186316	-0.733889	-0.095848
48808		9.660931	-0.952671	-1.438526	0.014510	-0.008525	-0.008197	-0.853027	0.272217	-0.334229	0.646111	-0.186319	-0.733926	-0.095804
48809		9.661666	-0.939810	-1.432222	0.017737	-0.006234	-0.008412	-0.852295	0.269043	-0.326172	0.646129	-0.186243	-0.733950	-0.095652
48810		9.641112	-0.935840	-1.410156	0.017078	-0.003954	-0.007150	-0.858643	0.262695	-0.320557	0.646148	-0.186191	-0.733960	-0.095538
48811		9.654702	-0.944239	-1.447591	0.010451	-0.005165	-0.007200	-0.857422	0.267334	-0.336426	0.646121	-0.186177	-0.733994	-0.095494
48812		9.659977	-0.922675	-1.454584	0.015006	-0.005656	-0.006935	-0.853271	0.271973	-0.332275	0.646140	-0.186102	-0.734019	-0.095322
48813		9.642356	-0.932901	-1.461269	0.010301	-0.001106	-0.005740	-0.857178	0.271484	-0.325195	0.646185	-0.186111	-0.733987	-0.095242
48814		9.656525	-0.990222	-1.425354	-0.006358	-0.002455	-0.006094	-0.858887	0.273926	-0.330078	0.646158	-0.186272	-0.733953	-0.095364
48815		9.669232	-0.973621	-1.412743	-0.011309	-0.005627	-0.005883	-0.850098	0.276611	-0.331543	0.646102	-0.186475	-0.733934	-0.095503
48816		9.651175	-1.007543	-1.421845	-0.005206	-0.003330	-0.001956	-0.850830	0.271484	-0.323975	0.646098	-0.186671	-0.733881	-0.095552
48817		9.661547	-1.026104	-1.431395	0.009612	0.000488	-0.006418	-0.851562	0.269287	-0.331543	0.646138	-0.186697	-0.733842	-0.095532
48818		9.646709	-0.978208	-1.413085	0.003419	-0.003939	-0.003819	-0.852295	0.267334	-0.334473	0.646144	-0.186764	-0.733827	-0.095476
48819		9.635990	-0.981936	-1.406274	0.003628	-0.003382	-0.002524	-0.853271	0.268311	-0.331299	0.646162	-0.186820	-0.733809	-0.095380
48820		9.663889	-0.989610	-1.410142	0.000684	-0.003365	-0.002334	-0.854004	0.277100	-0.330322	0.646166	-0.186917	-0.733787	-0.095336
48821		9.661797	-0.999144	-1.432590	-0.012501	-0.004044	-0.003746	-0.853027	0.271973	-0.329590	0.646129	-0.187157	-0.733740	-0.095475
48822		9.640415	-1.006806	-1.418495	-0.001089	-0.003847	-0.003212	-0.862549	0.264404	-0.334473	0.646120	-0.187283	-0.733715	-0.095480
48823		9.651409	-1.014344	-1.421258	0.008134	-0.006710	-0.002009	-0.853760	0.270020	-0.332764	0.646109	-0.187287	-0.733745	-0.095321
48824		9.639358	-1.017399	-1.428569	0.004271	-0.004573	-0.002722	-0.848389	0.273193	-0.329590	0.646113	-0.187350	-0.733736	-0.095238
48825		9.661496	-0.996140	-1.436711	0.006524	-0.001535	-0.007725	-0.850830	0.279785	-0.326904	0.646142	-0.187375	-0.733707	-0.095213
48826		9.657871	-0.991743	-1.416217	0.020917	-0.008538	-0.011414	-0.849365	0.270508	-0.324463	0.646129	-0.187302	-0.733749	-0.095125
48827		9.648637	-0.972105	-1.395106	0.019315	-0.010989	-0.003596	-0.853760	0.271973	-0.330322	0.646092	-0.187275	-0.733811	-0.094949
48828		9.635208	-0.974574	-1.416715	0.004643	-0.006297	0.000121	-0.856201	0.267334	-0.324951	0.646079	-0.187382	-0.733806	-0.094861
48829		9.663768	-1.008100	-1.409642	-0.003131	-0.009564	0.004219	-0.856689	0.273438	-0.335449	0.646006	-0.187584	-0.733824	-0.094817
48830		9.655007	-0.978666	-1.443503	-0.001749	-0.006269	0.003319	-0.851318	0.271240	-0.329590	0.645993	-0.187757	-0.733803	-0.094733
48831		9.667969	-0.976496	-1.424958	-0.005525	-0.003469	0.000218	-0.858398	0.264648	-0.330566	0.645983	-0.187936	-0.733765	-0.094736
48832		9.647759	-0.985715	-1.397510	-0.009512	-0.007701	-0.001927	-0.857666	0.271729	-0.328613	0.645917	-0.188089	-0.733783	-0.094747
48833		9.653716	-1.025440	-1.451618	0.007603	-0.009175	-0.004158	-0.856934	0.279053	-0.343994	0.645872	-0.188129	-0.733823	-0.094663
48834		9.641306	-1.051720	-1.461128	0.007049	-0.007318	-0.006355	-0.856934	0.272949	-0.328857	0.645881	-0.188136	-0.733829	-0.094536
48835		9.643804	-1.051953	-1.435238	0.004376	-0.006770	-0.009201	-0.862793	0.271240	-0.331299	0.645847	-0.188157	-0.733854	-0.094531
48836		9.645328	-1.027547	-1.421483	0.006915	-0.007584	-0.004837	-0.851074	0.269531	-0.328125	0.645816	-0.188180	-0.733887	-0.094444
48837		9.651024	-1.054958	-1.418998	0.013931	-0.010950	-0.006044	-0.849854	0.280029	-0.332520	0.645774	-0.188142	-0.733953	-0.094294
48838		9.666426	-1.052844	-1.436293	0.010776	-0.008256	-0.008271	-0.854004	0.274414	-0.333496	0.645760	-0.188148	-0.733973	-0.094220
48839		9.630428	-1.025120	-1.460588	0.021727	-0.008765	-0.011226	-0.851807	0.278564	-0.336182	0.645762	-0.188003	-0.734033	-0.094035
48840		9.643463	-0.984051	-1.446776	0.015694	-0.007544	-0.013455	-0.853027	0.270020	-0.331055	0.645768	-0.187899	-0.734068	-0.093928
48841		9.654270	-1.013354	-1.451887	0.007668	-0.010975	-0.011513	-0.858643	0.273438	-0.323730	0.645710	-0.187854	-0.734138	-0.093865
48842		9.649635	-1.042764	-1.441646	0.001715	-0.005860	-0.017260	-0.851318	0.271484	-0.334229	0.645654	-0.187843	-0.734174	-0.093989
48843		9.640477	-1.044714	-1.421582	0.011349	-0.006498	-0.012421	-0.851807	0.282959	-0.327637	0.645656	-0.187752	-0.734208	-0.093892
48844		9.630412	-1.034854	-1.470319	0.015771	-0.009021	-0.013664	-0.850342	0.273438	-0.328857	0.645628	-0.187704	-0.734249	-0.093865
48845		9.633053	-1.034037	-1.444546	0.010433	-0.007616	-0.012199	-0.848145	0.271484	-0.326416	0.645605	-0.187655	-0.734287	-0.093819
48846		9.656193	-1.036110	-1.441325	0.013471	-0.005184	-0.011783	-0.855713	0.276123	-0.329102	0.645608	-0.187581	-0.734312	-0.093752
48847		9.637871	-0.996364	-1.459045	0.018421	-0.007013	-0.013903	-0.856445	0.270020	-0.329590	0.645604	-0.187465	-0.734356	-0.093667
48848		9.628641	-0.999022	-1.439009	-0.003168	-0.005891	-0.010132	-0.849609	0.271484	-0.325684	0.645562	-0.187522	-0.734372	-0.093719
48849		9.671937	-1.027807	-1.460514	-0.011014	-0.004451	-0.006941	-0.850830	0.265625	-0.334961	0.645517	-0.187693	-0.734351	-0.093847
48850		9.631340	-1.032230	-1.472178	-0.005476	-0.003836	-0.011261	-0.852539	0.285645	-0.329834	0.645508	-0.187709	-0.734353	-0.093864
48851		9.637722	-1.033611	-1.467301	-0.003888	-0.004994	-0.012756	-0.857910	0.267090	-0.330322	0.645478	-0.187830	-0.734329	-0.094016
48852		9.660893	-1.035281	-1.464206	-0.005145	-0.005158	-0.009290	-0.853027	0.273193	-0.330811	0.645441	-0.187887	-0.734342	-0.094058
48853		9.640031	-1.017408	-1.448451	-0.003959	-0.003508	-0.012562	-0.855225	0.275635	-0.332275	0.645425	-0.187933	-0.734333	-0.094140
48854		9.640775	-1.026229	-1.443658	-0.005685	-0.006173	-0.015576	-0.855225	0.279541	-0.325684	0.645380	-0.187977	-0.734346	-0.094261
48855		9.633844	-1.052758	-1.460258	-0.007103	-0.003690	-0.018875	-0.854736	0.262695	-0.327148	0.645334	-0.188045	-0.734340	-0.094493
48856		9.640448	-1.052528	-1.455197	-0.005328	-0.003199	-0.018006	-0.847412	0.270264	-0.328369	0.645299	-0.188007	-0.734366	-0.094604
48857		9.651929	-1.056328	-1.457734	-0.001083	-0.003803	-0.015590	-0.854736	0.276855	-0.322021	0.645284	-0.187996	-0.734372	-0.094677
48858		9.648033	-1.037543	-1.443333	0.005801	-0.004175	-0.016419	-0.850342	0.273193	-0.323730	0.645257	-0.187984	-0.734385	-0.094780
48859		9.644510	-1.007082	-1.483529	0.012745	-0.002795	-0.018576	-0.851807	0.273193	-0.329834	0.645266	-0.187867	-0.734404	-0.094804
48860		9.665809	-0.981849	-1.443142	-0.000713	-0.004068	-0.016892	-0.851318	0.271240	-0.322998	0.645248	-0.187854	-0.734412	-0.094895
48861		9.655535	-0.981924	-1.436389	-0.010066	-0.002607	-0.017612	-0.854004	0.274902	-0.327148	0.645203	-0.187924	-0.734405	-0.095119
48862		9.653641	-1.011896	-1.460379	-0.008558	-0.004423	-0.016714	-0.854492	0.277588	-0.326660	0.645155	-0.187996	-0.734404	-0.095309
48863		9.653833	-1.031338	-1.463008	-0.012619	-0.002176	-0.016766	-0.854492	0.274414	-0.326660	0.645116	-0.188114	-0.734375	-0.095559
48864		9.649222	-1.046724	-1.457689	-0.006665	-0.002201	-0.021519	-0.852295	0.274658	-0.326904	0.645086	-0.188122	-0.734371	-0.095776
48865		9.637805	-1.044941	-1.464283	0.016359	-0.003582	-0.024214	-0.853760	0.266113	-0.322266	0.645097	-0.187923	-0.734410	-0.095797
48866		9.655915	-0.980741	-1.455884	0.027411	-0.006976	-0.023253	-0.851562	0.274414	-0.322998	0.645088	-0.187618	-0.734509	-0.095692
48867		9.645775	-0.956484	-1.447509	0.019207	-0.004932	-0.023978	-0.846924	0.273438	-0.330078	0.645084	-0.187419	-0.734561	-0.095712
48868		9.641171	-0.948211	-1.440818	0.012710	-0.006294	-0.020298	-0.859619	0.269287	-0.317871	0.645081	-0.187278	-0.734601	-0.095700
48869		9.663862	-0.983754	-1.446255	0.013726	-0.002039	-0.017963	-0.859619	0.279053	-0.332275	0.645074	-0.187167	-0.734629	-0.095751
48870		9.667910	-0.934589	-1.464522	0.006662	0.000592	-0.018685	-0.850830	0.269775	-0.334473	0.645115	-0.187106	-0.734599	-0.095829
48871		9.655771	-0.921221	-1.476704	0.004192	-0.002246	-0.021051	-0.854980	0.272949	-0.333496	0.645135	-0.186988	-0.734606	-0.095871
48872		9.645574	-0.968436	-1.472896	0.004771	-0.005872	-0.021872	-0.856934	0.275391	-0.327393	0.645115	-0.186884	-0.734641	-0.095936
48873		9.650940	-0.966823	-1.481095	0.008343	0.000109	-0.022597	-0.862061	0.270996	-0.328125	0.645139	-0.186777	-0.734633	-0.096046
48874		9.647239	-0.970067	-1.467450	0.010759	-0.003046	-0.026900	-0.861572	0.269287	-0.331055	0.645131	-0.186586	-0.734676	-0.096141
48875		9.654062	-0.968505	-1.461847	0.012769	-0.003072	-0.025809	-0.853760	0.277588	-0.323486	0.645136	-0.186371	-0.734721	-0.096181
48876		9.655236	-0.951147	-1.454642	0.011155	-0.002613	-0.026262	-0.860107	0.266846	-0.325439	0.645131	-0.186245	-0.734738	-0.096329
48877		9.667167	-0.976800	-1.457659	0.005386	0.001557	-0.026566	-0.851562	0.263672	-0.326416	0.645146	-0.186089	-0.734744	-0.096483
48878		9.639779	-0.962862	-1.453959	0.016068	-0.000079	-0.028469	-0.848877	0.264404	-0.327393	0.645181	-0.185814	-0.734778	-0.096519
48879		9.644770	-0.971936	-1.468695	0.026739	0.000069	-0.027352	-0.857910	0.270264	-0.332275	0.645248	-0.185467	-0.734816	-0.096445
48880		9.651755	-0.970684	-1.461899	0.016063	0.001702	-0.025460	-0.848877	0.261230	-0.333984	0.645313	-0.185239	-0.734814	-0.096470
48881		9.641722	-0.946098	-1.452078	0.012276	0.000859	-0.022197	-0.856689	0.266357	-0.324219	0.645377	-0.185018	-0.734818	-0.096436
48882		9.667685	-0.875611	-1.415283	0.020571	0.001302	-0.020874	-0.853760	0.268555	-0.324707	0.645431	-0.184811	-0.734825	-0.096421
48883		9.654584	-0.933704	-1.445159	0.017139	-0.002642	-0.018649	-0.858643	0.265625	-0.324707	0.645448	-0.184670	-0.734845	-0.096419
48884		9.659058	-0.896470	-1.457368	0.005912	0.001876	-0.022246	-0.849609	0.267578	-0.332764	0.645470	-0.184565	-0.734835	-0.096552
48885		9.679302	-0.916687	-1.432802	-0.000371	-0.000735	-0.020264	-0.856201	0.267334	-0.323730	0.645488	-0.184517	-0.734815	-0.096667
48886		9.657988	-0.908730	-1.423254	0.016249	0.001223	-0.020903	-0.856689	0.264404	-0.331055	0.645530	-0.184359	-0.734813	-0.096708
48887		9.649655	-0.922310	-1.457527	0.013116	0.001335	-0.020046	-0.862061	0.264160	-0.321777	0.645585	-0.184191	-0.734806	-0.096710
48888		9.663940	-0.903142	-1.429986	-0.004547	0.000121	-0.019862	-0.853516	0.260986	-0.329102	0.645557	-0.184204	-0.734798	-0.096939
48889		9.660138	-0.907480	-1.416547	0.001647	-0.002899	-0.016962	-0.852051	0.263916	-0.326172	0.645548	-0.184153	-0.734810	-0.097006
48890		9.658260	-0.890679	-1.436780	0.004339	-0.000567	-0.014376	-0.850830	0.269775	-0.327393	0.645564	-0.184131	-0.734793	-0.097066
48891		9.669652	-0.929879	-1.447190	-0.004007	0.001511	-0.018798	-0.849609	0.268066	-0.331543	0.645580	-0.184164	-0.734745	-0.097266
48892		9.648903	-0.910180	-1.430124	-0.002451	0.000764	-0.021185	-0.857910	0.270264	-0.330078	0.645602	-0.184139	-0.734710	-0.097431
48893		9.656780	-0.945982	-1.419335	0.003893	-0.001293	-0.017862	-0.848145	0.271729	-0.321289	0.645611	-0.184113	-0.734694	-0.097539
48894		9.662131	-0.945424	-1.427112	0.009608	-0.001111	-0.017633	-0.864014	0.266113	-0.323486	0.645621	-0.184087	-0.734677	-0.097649
48895		9.647547	-0.930990	-1.404476	0.006177	-0.002922	-0.017616	-0.847900	0.266113	-0.330322	0.645594	-0.184047	-0.734696	-0.097759
48896		9.658851	-0.911183	-1.405094	0.011334	-0.002346	-0.015431	-0.851074	0.263428	-0.323486	0.645625	-0.183965	-0.734691	-0.097744
48897		9.666526	-0.877846	-1.439298	0.012569	-0.003224	-0.015634	-0.853271	0.261230	-0.332520	0.645627	-0.183880	-0.734710	-0.097752
48898		9.668472	-0.899132	-1.427349	-0.003694	-0.000869	-0.013532	-0.861816	0.263184	-0.332764	0.645638	-0.183898	-0.734685	-0.097831
48899		9.644210	-0.890649	-1.445885	-0.003332	-0.001823	-0.016792	-0.849609	0.259766	-0.329346	0.645629	-0.183893	-0.734679	-0.097949
48900		9.661465	-0.862003	-1.384406	0.003948	-0.004522	-0.016731	-0.859863	0.269043	-0.332031	0.645615	-0.183828	-0.734702	-0.097984
48901		9.694601	-0.893235	-1.460529	-0.000813	-0.006812	-0.016052	-0.851318	0.263672	-0.323975	0.645568	-0.183855	-0.734722	-0.098096
48902		9.658082	-0.875495	-1.429262	-0.007567	-0.000580	-0.017265	-0.851318	0.270264	-0.320312	0.645547	-0.183917	-0.734696	-0.098309
48903		9.670953	-0.914676	-1.427122	-0.014532	-0.006260	-0.018720	-0.854004	0.263672	-0.326660	0.645447	-0.184083	-0.734698	-0.098644
48904		9.660298	-0.925829	-1.428078	-0.002060	-0.001641	-0.020298	-0.858887	0.259033	-0.333252	0.645431	-0.184062	-0.734695	-0.098811
48905		9.657397	-0.930896	-1.463856	0.004267	-0.005068	-0.020886	-0.852539	0.269531	-0.329102	0.645410	-0.183937	-0.734739	-0.098855
48906		9.660446	-0.927469	-1.437731	0.010876	-0.007269	-0.022587	-0.860596	0.262207	-0.322754	0.645379	-0.183827	-0.734784	-0.098925
48907		9.672588	-0.918030	-1.433324	0.008811	-0.007556	-0.026526	-0.860352	0.262207	-0.329346	0.645307	-0.183676	-0.734867	-0.099055
48908		9.638466	-0.911582	-1.382733	0.003059	-0.006665	-0.025683	-0.854736	0.261719	-0.328857	0.645251	-0.183556	-0.734928	-0.099192
48909		9.648658	-0.948352	-1.409024	0.014360	-0.012200	-0.023171	-0.856201	0.265137	-0.333496	0.645179	-0.183377	-0.735037	-0.099188
48910		9.660873	-0.952609	-1.462131	0.014147	-0.013123	-0.019225	-0.856201	0.261230	-0.333496	0.645115	-0.183242	-0.735132	-0.099143
48911		9.671707	-0.897352	-1.456104	0.019500	-0.011963	-0.015742	-0.854980	0.261963	-0.325439	0.645079	-0.183072	-0.735225	-0.099003
48912		9.666528	-0.855556	-1.442465	0.004574	-0.014165	-0.011789	-0.852295	0.255371	-0.328369	0.644972	-0.183096	-0.735311	-0.099017
48913		9.657573	-0.835021	-1.471639	0.008117	-0.013461	-0.017269	-0.855957	0.256104	-0.328857	0.644884	-0.182989	-0.735419	-0.098987
48914		9.666789	-0.814038	-1.489468	0.010503	-0.020092	-0.018912	-0.856689	0.258545	-0.327148	0.644736	-0.182859	-0.735588	-0.098937
48915		9.669822	-0.835723	-1.467531	0.001861	-0.015421	-0.013309	-0.858398	0.266113	-0.320557	0.644615	-0.182865	-0.735690	-0.098957
48916		9.653119	-0.857897	-1.471017	0.000438	-0.016917	-0.004971	-0.856201	0.270264	-0.326172	0.644467	-0.183031	-0.735772	-0.099001
48917		9.656486	-0.812863	-1.480140	0.010267	-0.018197	-0.002764	-0.859863	0.261230	-0.330078	0.644353	-0.183143	-0.735856	-0.098915
48918		9.666125	-0.795204	-1.435521	-0.007054	-0.014476	0.000897	-0.855469	0.270020	-0.318115	0.644245	-0.183350	-0.735901	-0.098895
48919		9.648890	-0.808747	-1.493820	-0.021360	-0.013944	0.005487	-0.857910	0.261230	-0.329590	0.644087	-0.183810	-0.735900	-0.099085
48920		9.646089	-0.807808	-1.462975	-0.007330	-0.018893	0.007525	-0.858154	0.267090	-0.331543	0.643948	-0.184081	-0.735965	-0.098997
48921		9.683355	-0.824119	-1.486089	0.018540	-0.018406	0.009028	-0.850342	0.262451	-0.321045	0.643883	-0.184181	-0.736040	-0.098674
48922		9.693100	-0.858007	-1.505417	0.022523	-0.007072	0.010152	-0.866943	0.261963	-0.326660	0.643911	-0.184253	-0.736040	-0.098362
48923		9.666701	-0.761969	-1.457109	-0.007232	-0.006962	0.024623	-0.859131	0.262695	-0.324951	0.643886	-0.184668	-0.735981	-0.098184
48924		9.651765	-0.758812	-1.483953	-0.024779	0.000827	0.029764	-0.848877	0.270264	-0.317139	0.643903	-0.185270	-0.735820	-0.098146
48925		9.656041	-0.803962	-1.501382	-0.017916	-0.004722	0.028522	-0.858154	0.265381	-0.322998	0.643872	-0.185882	-0.735697	-0.098116
48926		9.691818	-0.868354	-1.439955	-0.017766	-0.000567	0.023422	-0.854248	0.268311	-0.319824	0.643880	-0.186379	-0.735570	-0.098075
48927		9.669977	-0.942793	-1.496835	-0.008041	0.005290	0.025286	-0.851318	0.264648	-0.323242	0.643961	-0.186833	-0.735397	-0.097969
48928		9.619380	-0.997232	-1.443927	0.001244	0.007908	0.031135	-0.850098	0.267578	-0.318359	0.644108	-0.187223	-0.735207	-0.097690
48929		9.635660	-1.004804	-1.443765	0.022917	0.005650	0.031362	-0.858643	0.267822	-0.321289	0.644271	-0.187475	-0.735058	-0.097246
48930		9.644328	-0.935851	-1.446558	0.028509	-0.002900	0.021430	-0.845703	0.271240	-0.333008	0.644354	-0.187584	-0.735017	-0.096799
48931		9.675580	-0.915900	-1.462692	0.008432	-0.002459	0.017725	-0.853516	0.272949	-0.326904	0.644438	-0.187804	-0.734927	-0.096501
48932		9.626645	-1.005002	-1.455657	-0.001542	-0.002105	0.015107	-0.851074	0.275391	-0.324463	0.644471	-0.188105	-0.734838	-0.096368
48933		9.649895	-1.095762	-1.463342	0.017015	-0.003235	0.012917	-0.858398	0.269775	-0.327148	0.644531	-0.188258	-0.734781	-0.096102
48934		9.615510	-1.076279	-1.458376	0.043895	-0.002832	0.008716	-0.850098	0.272217	-0.334229	0.644650	-0.188106	-0.734783	-0.095582
48935		9.636565	-1.058910	-1.466411	0.052726	-0.006966	0.004386	-0.860107	0.269775	-0.331299	0.644777	-0.187841	-0.734819	-0.094970
48936		9.649806	-1.022733	-1.438570	0.044988	-0.007841	0.001125	-0.854736	0.269775	-0.324707	0.644852	-0.187603	-0.734879	-0.094469
48937		9.634876	-0.991447	-1.464191	0.030655	-0.008643	0.001820	-0.856445	0.266846	-0.326172	0.644873	-0.187514	-0.734927	-0.094129
48938		9.647369	-1.060461	-1.463773	0.016778	-0.011196	0.001027	-0.848877	0.273926	-0.324463	0.644839	-0.187508	-0.734988	-0.093893
48939		9.643154	-1.128933	-1.461413	0.023648	-0.007221	-0.004311	-0.849609	0.270996	-0.330322	0.644856	-0.187445	-0.735016	-0.093688
48940		9.654304	-1.076680	-1.454097	0.045235	-0.008372	-0.011142	-0.852539	0.277100	-0.329346	0.644920	-0.187107	-0.735096	-0.093285
48941		9.650686	-0.965731	-1.470160	0.047757	-0.007707	-0.023412	-0.858887	0.272949	-0.330322	0.644976	-0.186679	-0.735192	-0.093004
48942		9.633317	-0.947615	-1.476264	0.019919	-0.012477	-0.038294	-0.854492	0.269531	-0.323242	0.644901	-0.186316	-0.735342	-0.093069
48943		9.635758	-0.939983	-1.514431	0.010532	-0.016135	-0.048903	-0.856689	0.269043	-0.331543	0.644742	-0.185946	-0.735542	-0.093321
48944		9.659112	-0.941646	-1.521916	0.001561	-0.020823	-0.067156	-0.861084	0.265869	-0.317383	0.644521	-0.185456	-0.735806	-0.093745
48945		9.657105	-0.921145	-1.554750	0.014038	-0.025442	-0.094948	-0.857910	0.265381	-0.325195	0.644208	-0.184651	-0.736206	-0.094343
48946		9.641383	-0.861079	-1.551966	0.025097	-0.041007	-0.118422	-0.863525	0.260742	-0.325684	0.643777	-0.183540	-0.736783	-0.094946
48947		9.660140	-0.889379	-1.572709	0.031250	-0.041076	-0.144651	-0.856445	0.259521	-0.326904	0.643325	-0.182118	-0.737434	-0.095688
48948		9.588195	-0.804158	-1.565583	0.016217	-0.047786	-0.163448	-0.859863	0.262451	-0.325928	0.642767	-0.180659	-0.738148	-0.096697
48949		9.615683	-0.826566	-1.569356	0.012160	-0.055417	-0.183022	-0.861328	0.252197	-0.330322	0.642101	-0.179100	-0.738946	-0.097918
48950		9.640724	-0.829382	-1.545791	0.022908	-0.059879	-0.204176	-0.857666	0.249512	-0.322021	0.641404	-0.177203	-0.739846	-0.099133
48951		9.622699	-0.648297	-1.531110	0.036342	-0.057695	-0.231760	-0.862061	0.250488	-0.321777	0.640703	-0.174977	-0.740799	-0.100496
48952		9.642503	-0.362163	-1.621287	0.081055	-0.056103	-0.270847	-0.866455	0.245850	-0.321533	0.640058	-0.172062	-0.741862	-0.101790
48953		9.633481	-0.201412	-1.708178	0.092683	-0.070540	-0.309551	-0.867432	0.230957	-0.313965	0.639245	-0.168719	-0.743126	-0.103261
48954		9.609135	-0.176294	-1.844257	0.045182	-0.089632	-0.329711	-0.868896	0.219238	-0.317383	0.638098	-0.165565	-0.744535	-0.105291
48955		9.591099	-0.023510	-1.805963	-0.040585	-0.088285	-0.372298	-0.876465	0.223145	-0.314209	0.636734	-0.162649	-0.745897	-0.108409
48956		9.546656	0.236801	-1.760364	-0.110620	-0.080818	-0.418456	-0.870850	0.210449	-0.313232	0.635210	-0.159921	-0.747160	-0.112628
48957		9.539919	0.349582	-1.731583	-0.176782	-0.095796	-0.458068	-0.883057	0.194580	-0.312012	0.633349	-0.157332	-0.748505	-0.117709
48958		9.464644	0.486060	-1.765028	-0.246527	-0.106236	-0.495444	-0.883301	0.196289	-0.314209	0.631167	-0.154899	-0.749893	-0.123677
48959		9.394557	0.740159	-1.808183	-0.337011	-0.107633	-0.537750	-0.886719	0.174072	-0.305420	0.628717	-0.152827	-0.751159	-0.130837
48960		9.332052	0.988927	-1.892042	-0.419796	-0.115028	-0.591422	-0.891846	0.170654	-0.303711	0.625890	-0.150834	-0.752430	-0.139140
48961		9.140115	1.217918	-2.063535	-0.607697	-0.157460	-0.649073	-0.894531	0.161133	-0.298096	0.622151	-0.149860	-0.753720	-0.149586
48962		8.873274	1.718016	-1.999915	-0.793990	-0.184222	-0.733914	-0.894043	0.151123	-0.280762	0.617559	-0.149562	-0.754908	-0.162375
48963		9.334683	1.453925	-1.616829	-0.831930	-0.133482	-0.872170	-0.904053	0.142578	-0.281494	0.612932	-0.148158	-0.755738	-0.176703
48964		9.106902	0.541085	-0.838797	-0.740941	-0.073564	-0.891775	-0.901367	0.118164	-0.281006	0.608880	-0.145717	-0.756164	-0.190387
48965		8.830616	1.396491	-0.950454	-0.473031	-0.064814	-0.929659	-0.907715	0.107422	-0.277832	0.605217	-0.140752	-0.757099	-0.201748
48966		7.736465	4.036799	-0.860836	-0.344312	-0.084532	-1.099730	-0.907715	0.085205	-0.275146	0.601047	-0.133275	-0.758652	-0.213137
48967		7.869141	4.936799	-0.588147	-0.843518	-0.132079	-1.401824	-0.913574	0.056396	-0.269287	0.594606	-0.126774	-0.759494	-0.231390
48968		8.330639	3.160764	-1.141058	-1.126473	-0.142977	-1.608018	-0.914551	0.017822	-0.276611	0.586701	-0.120378	-0.759544	-0.253740
48969		9.461380	1.895836	-1.481493	-0.867423	-0.038038	-1.650635	-0.909424	-0.000977	-0.270996	0.579775	-0.111161	-0.759268	-0.273890
48970		8.560251	-0.310640	-2.210345	-0.156464	-0.002239	-1.591905	-0.906982	-0.038574	-0.270996	0.574102	-0.097280	-0.760704	-0.286832
48971		8.368300	0.787147	-2.269996	0.567502	-0.084647	-1.402660	-0.913086	-0.073975	-0.270264	0.568995	-0.080238	-0.764815	-0.291317
48972		9.026134	4.245970	-2.835582	0.762022	-0.025538	-1.280957	-0.908447	-0.120117	-0.267578	0.564895	-0.062738	-0.768821	-0.293037
48973		8.466139	4.604419	-1.758650	0.178453	-0.074469	-1.331549	-0.904297	-0.135742	-0.267822	0.559495	-0.048932	-0.770855	-0.300591
48974		8.120823	4.344007	-2.033624	-0.027675	-0.259307	-1.327944	-0.894043	-0.172363	-0.260254	0.552080	-0.037406	-0.773147	-0.309924
48975		7.786249	4.337668	-2.108795	-0.276479	-0.162900	-1.246978	-0.903320	-0.201172	-0.260010	0.545633	-0.027930	-0.773574	-0.321073
48976		7.268624	4.854374	-1.284356	-0.471737	-0.112478	-1.211715	-0.893555	-0.224365	-0.264648	0.539591	-0.019929	-0.772665	-0.333816
48977		7.474750	5.233076	-1.266397	-0.771382	-0.241856	-1.231899	-0.888916	-0.246338	-0.264648	0.532018	-0.014276	-0.771122	-0.349463
48978		7.889006	4.095771	-1.804802	-1.027425	-0.001047	-1.288114	-0.877686	-0.273682	-0.282715	0.526271	-0.008742	-0.766571	-0.367874
48979		8.041163	4.001933	-2.062242	-0.635903	0.204693	-1.373490	-0.864014	-0.300781	-0.281006	0.521968	0.001184	-0.762150	-0.382983
48980		8.290960	4.050814	-1.539895	-0.274200	0.135028	-1.499844	-0.857666	-0.325684	-0.291992	0.516089	0.014275	-0.759714	-0.395325
48981		8.852832	4.920635	-2.243458	-0.114571	0.157874	-1.549578	-0.835205	-0.354980	-0.299072	0.509968	0.028921	-0.757633	-0.406310
48982		9.086966	6.384440	-2.279151	-0.104376	0.211083	-1.556707	-0.821045	-0.387695	-0.313965	0.504108	0.043962	-0.754984	-0.417064
48983		8.847326	7.084759	-2.083594	-0.341537	0.168764	-1.493749	-0.814209	-0.409912	-0.322510	0.498110	0.056679	-0.751126	-0.429516
48984		8.457222	7.608519	-1.994608	-0.637694	0.127260	-1.385180	-0.786621	-0.437988	-0.330566	0.492326	0.066282	-0.745747	-0.443940
48985		8.479423	7.990096	-1.938965	-0.854454	0.121563	-1.240934	-0.780518	-0.457520	-0.343750	0.487297	0.073161	-0.739052	-0.459337
48986		8.142465	7.585466	-1.561814	-0.820335	0.102745	-1.129983	-0.753418	-0.477783	-0.354736	0.482541	0.079089	-0.732527	-0.473607
48987		7.099176	7.579066	-1.175486	-0.499198	0.089406	-0.995977	-0.758789	-0.484375	-0.364014	0.478025	0.085638	-0.727933	-0.484017
48988		6.482167	7.658232	-0.846643	-0.172976	0.103185	-0.852069	-0.736084	-0.503906	-0.366455	0.474079	0.092886	-0.725272	-0.490511
48989		6.729621	8.632628	-0.475601	0.138267	0.077683	-0.625446	-0.729004	-0.515625	-0.371582	0.470891	0.099767	-0.724868	-0.492823
48990		7.218980	9.384716	-0.105927	0.284135	0.066672	-0.376404	-0.731445	-0.521729	-0.364990	0.468934	0.105179	-0.725702	-0.492336
48991		7.599444	9.913685	-0.617908	0.505155	0.042873	-0.045437	-0.726318	-0.527100	-0.359863	0.468487	0.108726	-0.728445	-0.487921
48992		8.238988	9.896323	-2.041179	0.920749	-0.028573	0.358548	-0.729248	-0.529541	-0.347168	0.469244	0.110586	-0.734618	-0.477406
48993		8.002288	9.635201	-3.398262	1.116937	-0.279491	0.731601	-0.740723	-0.527588	-0.323486	0.469550	0.108652	-0.743788	-0.463138
48994		7.501356	9.663582	-2.868219	0.905995	-0.513207	0.951498	-0.764404	-0.512939	-0.298096	0.469102	0.102054	-0.753184	-0.449714
48995		8.255776	8.574338	-2.068168	0.814442	-0.676465	1.393759	-0.785400	-0.496582	-0.280273	0.469530	0.089792	-0.763290	-0.434588
48996		10.741698	8.315434	-1.670103	1.026637	-0.654830	1.936019	-0.815918	-0.456543	-0.248291	0.472569	0.073672	-0.774532	-0.413947
48997		13.328459	8.500363	-2.009617	1.198520	-0.474637	2.353027	-0.837891	-0.419189	-0.214844	0.478886	0.055384	-0.785230	-0.388606
48998		15.910057	6.898492	-2.888683	1.246145	-0.157380	2.883198	-0.867432	-0.365723	-0.210938	0.490212	0.033657	-0.793579	-0.358876
48999		20.419510	4.486398	-3.461598	1.300183	0.312163	3.584555	-0.896484	-0.289551	-0.197998	0.508388	0.007371	-0.798053	-0.323418
49000		26.789219	3.329127	-3.885166	1.199481	0.965992	4.328909	-0.917236	-0.200928	-0.212158	0.534671	-0.024327	-0.795812	-0.283229
49001		31.573894	4.168352	-5.215075	0.697950	1.651181	4.401022	-0.921143	-0.091309	-0.235596	0.566044	-0.057516	-0.784483	-0.246723
49002		22.908786	3.949017	-6.753739	1.205033	1.605772	4.230168	-0.911377	0.004395	-0.258545	0.594787	-0.085483	-0.772444	-0.205549
49003		7.477533	1.402245	-7.102048	3.493815	0.567150	4.285547	-0.902832	0.077393	-0.263916	0.613576	-0.099374	-0.770754	-0.139952
49004		0.339771	12.695672	-12.036228	6.999250	1.393240	2.657592	-0.880615	0.084717	-0.305908	0.637552	-0.068627	-0.765495	-0.053246
49005		-4.664175	35.211524	-7.430386	1.809321	0.233964	0.207282	-0.877197	0.077148	-0.299072	0.641348	-0.056183	-0.764417	-0.034386
49006		1.353516	10.522007	-1.954954	-3.183677	0.175118	-0.279147	-0.880859	0.094971	-0.289307	0.640177	-0.079125	-0.761184	-0.067167
49007		-0.956391	5.044022	2.974583	-2.771106	-0.188934	-0.678287	-0.876465	0.099121	-0.279785	0.634683	-0.095175	-0.760499	-0.098795
49008		-1.005424	-1.812520	-3.226687	-1.774966	-1.115507	-1.095097	-0.885742	0.104004	-0.248535	0.620366	-0.100385	-0.768066	-0.123054
49009		1.346959	-6.361015	-0.207102	-2.107066	0.044859	-1.141032	-0.888428	0.079834	-0.253174	0.616144	-0.105864	-0.765503	-0.152200
49010		2.098261	-6.023129	0.552230	-1.488974	-0.326520	-0.789182	-0.886230	0.062256	-0.234131	0.609443	-0.110540	-0.765994	-0.172085
49011		2.002664	-3.767322	0.270759	-0.323773	-0.160363	-0.265505	-0.898682	0.060547	-0.231445	0.606924	-0.110950	-0.766818	-0.176986
49012		0.210995	-1.559992	-0.089707	-0.089175	-0.117132	0.193567	-0.886963	0.063232	-0.241211	0.606149	-0.113885	-0.767181	-0.176204
49013		-0.683466	-1.322388	1.143655	-0.643886	-0.106276	0.404345	-0.892334	0.076416	-0.228516	0.605123	-0.123007	-0.765901	-0.179142
49014		-1.690971	-0.203206	0.114851	-0.555535	-0.252596	0.198628	-0.901611	0.090820	-0.217773	0.602322	-0.129813	-0.766180	-0.182551
49015		-0.386511	-0.314420	-0.185529	0.301628	-0.286624	-0.018245	-0.899902	0.089355	-0.220459	0.600062	-0.128172	-0.768986	-0.179327
49016		0.993357	-0.876858	0.376944	0.479906	-0.156945	-0.073288	-0.893066	0.084229	-0.207764	0.599190	-0.124373	-0.771282	-0.175006
49017		1.063045	0.228310	-1.046739	0.105319	0.119624	-0.119866	-0.898926	0.079590	-0.225342	0.600291	-0.122302	-0.770745	-0.175056
49018		0.476930	2.962809	-0.798340	-0.260705	0.417356	-0.254144	-0.899658	0.078125	-0.234619	0.603383	-0.121066	-0.767353	-0.180113
49019		-0.651306	4.146095	0.833573	-0.300821	0.238288	-0.467038	-0.905518	0.067139	-0.248291	0.604180	-0.118502	-0.765502	-0.186896
49020		-0.233956	3.304321	0.706570	-0.542652	0.045562	-0.715759	-0.906006	0.060791	-0.248047	0.602144	-0.115796	-0.764842	-0.197562
49021		0.147435	3.326806	-0.239001	-0.610383	0.051272	-1.090675	-0.905273	0.035645	-0.253662	0.599017	-0.110016	-0.764368	-0.211699
49022		0.259782	4.934329	0.083618	0.204308	-0.180691	-1.611217	-0.911133	-0.004883	-0.266602	0.593227	-0.093707	-0.768256	-0.221547
49023		14.933853	18.633323	-9.308152	-1.315635	-0.965322	-1.844724	-0.913818	-0.033447	-0.244873	0.577090	-0.088490	-0.773504	-0.246632
49024		40.619544	17.390462	-33.780998	4.161776	-2.073422	-3.274720	-0.927002	-0.128418	-0.209229	0.550163	-0.033168	-0.802878	-0.227174
49025		33.752789	9.778221	5.789789	-8.723781	-0.684744	-4.200400	-0.912842	-0.183838	-0.226074	0.523815	-0.052776	-0.778640	-0.341399
49026		24.242388	-49.349457	-9.571422	-0.025354	0.334617	-2.470284	-0.899658	-0.242676	-0.239014	0.516320	-0.027559	-0.777529	-0.357915
49027		13.346998	25.308799	1.440544	2.906461	-0.971414	1.246831	-0.916504	-0.231201	-0.202148	0.513134	-0.025289	-0.795669	-0.320881
49028		31.087939	13.341735	0.047844	-2.340893	0.140958	-0.198883	-0.906250	-0.220459	-0.220703	0.512864	-0.037846	-0.785055	-0.345292
49029		12.672764	-6.043174	-5.921068	-1.721604	0.403677	0.582977	-0.913330	-0.196533	-0.233887	0.518480	-0.052950	-0.774501	-0.358501
49030		9.316682	-1.668396	-5.492087	1.170662	0.248735	0.768001	-0.917725	-0.189453	-0.236816	0.525126	-0.051764	-0.777461	-0.342225
49031		11.050131	5.474762	-3.196471	1.141795	0.129840	1.733534	-0.911865	-0.156738	-0.231445	0.534471	-0.060615	-0.780069	-0.319622
49032		12.030634	8.227300	-1.832389	0.086154	0.427981	1.315897	-0.918213	-0.122070	-0.235596	0.543989	-0.071225	-0.776402	-0.310167
49033		8.264329	2.859710	-2.047442	-0.239018	0.358866	1.040395	-0.915039	-0.093994	-0.248047	0.551331	-0.081640	-0.771990	-0.305615
49034		6.139633	0.874199	-1.882810	-0.070584	0.329737	1.374651	-0.925049	-0.066162	-0.246582	0.559696	-0.094209	-0.767882	-0.297024
49035		6.098880	1.679484	-1.334502	0.401936	0.257905	1.390883	-0.929199	-0.030029	-0.260742	0.567798	-0.103868	-0.765759	-0.283601
49036		9.211004	3.299412	-1.526963	0.907972	0.286632	1.017200	-0.911865	-0.017822	-0.263672	0.575323	-0.106228	-0.765461	-0.267934
49037		9.093731	4.476310	-1.685060	0.705988	0.231582	0.864669	-0.923096	0.001709	-0.269775	0.581393	-0.108732	-0.764890	-0.255154
49038		7.975234	2.419864	-2.918194	-0.071428	0.131568	0.904457	-0.916504	0.022705	-0.262451	0.585474	-0.117576	-0.762379	-0.249347
49039		9.168048	0.398107	-3.427141	0.090008	0.009741	1.007302	-0.909912	0.041260	-0.263184	0.588859	-0.126586	-0.761001	-0.241035
49040		9.290987	1.238651	-2.897700	0.456872	0.018844	1.019266	-0.915039	0.064941	-0.263428	0.592841	-0.132952	-0.760508	-0.229109
49041		9.440701	1.581027	-2.044884	0.391176	-0.012335	0.982403	-0.910156	0.087891	-0.265869	0.596197	-0.139524	-0.759976	-0.217986
49042		8.908670	1.510762	-1.254604	0.423540	0.021737	0.929740	-0.906738	0.102295	-0.261719	0.599687	-0.145240	-0.759238	-0.206972
49043		8.974826	1.194555	-0.970886	0.534260	0.049304	0.860078	-0.902100	0.126709	-0.268555	0.603357	-0.149370	-0.758584	-0.195447
49044		8.694608	1.537788	-1.038815	0.654371	0.052304	0.799364	-0.897949	0.136230	-0.264404	0.607032	-0.151996	-0.758182	-0.183219
49045		8.850931	2.792814	-1.386300	0.588967	0.109723	0.629393	-0.892822	0.148193	-0.273438	0.610644	-0.153353	-0.757411	-0.172987
49046		8.519123	3.330174	-1.771553	0.474048	0.142095	0.476915	-0.894287	0.160156	-0.274902	0.613956	-0.154062	-0.756359	-0.165058
49047		8.676656	2.503889	-2.593633	0.124479	0.027367	0.382871	-0.901367	0.159912	-0.276123	0.615280	-0.156803	-0.755608	-0.160935
49048		9.375690	0.801411	-2.845045	0.037738	-0.036681	0.334569	-0.897949	0.166016	-0.277832	0.615716	-0.159868	-0.755256	-0.157874
49049		9.482805	-0.046332	-1.978807	0.329060	-0.022001	0.394879	-0.895020	0.175537	-0.283936	0.616975	-0.161223	-0.755222	-0.151624
49050		9.802263	0.467498	-1.392555	0.540751	0.055234	0.426139	-0.893799	0.182617	-0.287354	0.619415	-0.161087	-0.754881	-0.143281
49051		9.990756	0.483801	-0.978201	0.612012	0.122508	0.402850	-0.893555	0.198975	-0.287842	0.622542	-0.160048	-0.754133	-0.134572
49052		9.618406	1.012446	-1.419182	0.733279	0.199850	0.405995	-0.893311	0.188232	-0.289795	0.626577	-0.157972	-0.752901	-0.124842
49053		9.143713	1.189833	-2.163840	0.498824	0.206948	0.368298	-0.878662	0.203369	-0.300293	0.630093	-0.157329	-0.751263	-0.117616
49054		9.017670	1.361271	-2.484819	0.161151	0.171915	0.315792	-0.883789	0.205078	-0.305420	0.632516	-0.158917	-0.749463	-0.113905
49055		9.232024	0.993248	-2.343770	-0.103383	0.119976	0.272144	-0.875488	0.212646	-0.306885	0.633848	-0.162248	-0.747771	-0.112914
49056		9.481853	0.215339	-1.999761	-0.273742	0.061490	0.252244	-0.873779	0.220703	-0.302002	0.634249	-0.166826	-0.746326	-0.113556
49057		9.692685	-0.728508	-1.630343	-0.260480	0.064368	0.186699	-0.870361	0.226562	-0.299561	0.634592	-0.170682	-0.745002	-0.114599
49058		9.532863	-0.821965	-1.259294	-0.132656	0.033149	0.115451	-0.874512	0.222656	-0.302246	0.634806	-0.172904	-0.744253	-0.114948
49059		9.495469	-1.018308	-1.437957	0.055561	0.021585	0.056973	-0.874756	0.231934	-0.308350	0.635235	-0.173086	-0.743993	-0.113984
49060		9.461629	-0.701398	-1.920648	0.098037	0.028754	-0.004466	-0.874268	0.230957	-0.315430	0.635741	-0.172362	-0.743860	-0.113129
49061		9.493235	-0.198118	-1.862523	-0.043661	0.017709	-0.023470	-0.868408	0.229980	-0.304688	0.635818	-0.172598	-0.743649	-0.113717
49062		9.670756	-0.310088	-1.588999	-0.195319	0.024386	-0.028088	-0.869629	0.232422	-0.312012	0.635610	-0.173993	-0.743186	-0.115767
49063		9.802151	-0.605907	-1.380562	-0.170549	0.032428	-0.058754	-0.879150	0.233398	-0.304932	0.635491	-0.174891	-0.742749	-0.117847
49064		9.683058	-0.716258	-1.534442	-0.077878	0.012829	-0.131151	-0.868408	0.225586	-0.308350	0.635272	-0.174411	-0.742769	-0.119601
49065		9.668567	-0.510832	-1.524348	0.086074	-0.022447	-0.194270	-0.874268	0.230957	-0.308105	0.634995	-0.172084	-0.743443	-0.120254
49066		9.676150	-0.738347	-1.677312	0.094011	-0.034020	-0.227475	-0.859375	0.225342	-0.308105	0.634571	-0.169422	-0.744283	-0.121073
