// Start Time: Unknown
// Update Rate: 40.0Hz
// Filter Profile: human (46.1)
// Firmware Version: 4.6.0
PacketCounter	SampleTimeFine	Acc_X	Acc_Y	Acc_Z	Gyr_X	Gyr_Y	Gyr_Z	Mag_X	Mag_Y	Mag_Z	Quat_q0	Quat_q1	Quat_q2	Quat_q3
51973		9.688417	0.071921	-1.566721	-0.003119	0.006682	-0.010598	-0.880859	0.238037	-0.388428	0.630848	-0.169532	-0.742372	-0.148907
51974		9.700411	0.045504	-1.584759	-0.009463	0.005561	-0.004983	-0.882080	0.237061	-0.391113	0.630870	-0.169550	-0.742321	-0.149045
51975		9.667749	-0.010405	-1.578364	-0.003712	0.003168	-0.004152	-0.878174	0.244629	-0.387695	0.630892	-0.169504	-0.742297	-0.149127
51976		9.679200	0.042671	-1.574034	0.007199	0.000030	-0.004383	-0.876465	0.242188	-0.379150	0.630879	-0.169498	-0.742321	-0.149070
51977		9.680452	0.065653	-1.537896	-0.010924	0.000781	0.002005	-0.879395	0.247314	-0.378662	0.630843	-0.169709	-0.742292	-0.149126
51978		9.675874	0.010658	-1.548288	-0.012970	-0.001245	0.002198	-0.887451	0.239746	-0.378662	0.630774	-0.169993	-0.742274	-0.149183
51979		9.682930	0.016736	-1.528604	-0.010115	0.000742	0.001679	-0.877197	0.244141	-0.386230	0.630755	-0.170149	-0.742242	-0.149242
51980		9.681008	-0.010281	-1.548074	-0.013236	0.002264	-0.000577	-0.883057	0.229004	-0.381836	0.630743	-0.170321	-0.742193	-0.149345
51981		9.671875	-0.047482	-1.600524	0.000597	-0.000542	-0.003006	-0.885986	0.240234	-0.385742	0.630763	-0.170225	-0.742195	-0.149359
51982		9.687315	-0.007440	-1.512219	0.003197	-0.002066	-0.004323	-0.880859	0.235352	-0.386475	0.630766	-0.170213	-0.742205	-0.149311
51983		9.691182	0.030821	-1.555369	-0.011573	-0.008389	-0.003951	-0.882568	0.236328	-0.385742	0.630685	-0.170285	-0.742241	-0.149393
51984		9.681528	-0.010291	-1.623262	-0.002190	-0.009490	-0.003858	-0.884033	0.237061	-0.387451	0.630614	-0.170299	-0.742301	-0.149377
51985		9.674042	0.002267	-1.563423	0.003117	-0.006975	-0.005463	-0.878418	0.232178	-0.379639	0.630582	-0.170261	-0.742350	-0.149314
51986		9.698992	0.054504	-1.560204	-0.003792	-0.001739	-0.005287	-0.875488	0.242432	-0.380127	0.630523	-0.170251	-0.742398	-0.149331
51987		9.689340	0.026240	-1.558251	-0.008946	-0.005057	-0.000785	-0.877930	0.238770	-0.384766	0.630456	-0.170434	-0.742414	-0.149328
51988		9.657425	-0.030254	-1.613460	0.000805	-0.010663	0.000291	-0.885986	0.239014	-0.389404	0.630395	-0.170501	-0.742471	-0.149226
51989		9.678258	-0.012469	-1.556756	0.010928	-0.010152	0.001734	-0.889160	0.243652	-0.390869	0.630394	-0.170503	-0.742516	-0.149003
51990		9.685793	0.002030	-1.542710	0.005370	-0.010864	0.002233	-0.881836	0.241455	-0.378174	0.630396	-0.170605	-0.742530	-0.148808
51991		9.675428	-0.045388	-1.593933	-0.000487	-0.003411	-0.000243	-0.879883	0.240479	-0.386475	0.630349	-0.170710	-0.742567	-0.148700
51992		9.680406	-0.066104	-1.594786	0.011926	-0.002818	-0.005916	-0.880615	0.242676	-0.381836	0.630386	-0.170632	-0.742587	-0.148534
51993		9.686468	0.008131	-1.591947	0.016102	-0.007429	-0.006008	-0.879150	0.242432	-0.387695	0.630358	-0.170573	-0.742673	-0.148291
51994		9.693923	0.019692	-1.590555	0.014370	-0.009952	-0.004920	-0.881592	0.241455	-0.385498	0.630348	-0.170522	-0.742737	-0.148070
51995		9.691622	-0.007473	-1.612209	0.010485	-0.005239	-0.000702	-0.879395	0.239502	-0.389648	0.630361	-0.170529	-0.742767	-0.147861
51996		9.697502	-0.015236	-1.603749	0.014263	-0.005996	-0.001673	-0.879150	0.239258	-0.379883	0.630397	-0.170458	-0.742796	-0.147642
51997		9.677796	0.002313	-1.588572	0.012043	-0.001313	-0.001453	-0.874268	0.239014	-0.381836	0.630391	-0.170414	-0.742854	-0.147423
51998		9.677981	0.006492	-1.575311	0.014856	0.002978	-0.000407	-0.876709	0.243164	-0.383545	0.630455	-0.170327	-0.742866	-0.147194
51999		9.661572	-0.025079	-1.578830	0.012832	-0.000751	0.001456	-0.885010	0.238281	-0.379395	0.630507	-0.170341	-0.742865	-0.146957
52000		9.696792	-0.016931	-1.575454	0.011246	-0.004225	-0.002584	-0.885498	0.235107	-0.390137	0.630460	-0.170305	-0.742953	-0.146754
52001		9.695591	-0.034797	-1.598699	-0.002785	0.001669	-0.001470	-0.879150	0.242432	-0.391357	0.630530	-0.170309	-0.742899	-0.146726
52002		9.686171	-0.062750	-1.595410	0.001694	0.001721	-0.009009	-0.877930	0.241455	-0.384766	0.630631	-0.170287	-0.742822	-0.146703
52003		9.682100	-0.025583	-1.585249	0.005103	0.000159	-0.010654	-0.884766	0.244873	-0.388916	0.630660	-0.170228	-0.742825	-0.146635
52004		9.676180	-0.011321	-1.581791	0.003077	0.001738	-0.009108	-0.873291	0.240234	-0.383301	0.630733	-0.170261	-0.742765	-0.146583
52005		9.691991	0.016755	-1.561326	0.002950	0.002088	-0.007212	-0.882080	0.237793	-0.385254	0.630772	-0.170217	-0.742756	-0.146514
52006		9.675472	-0.016840	-1.577839	0.000829	0.000459	-0.008464	-0.884521	0.242432	-0.377686	0.630784	-0.170167	-0.742761	-0.146493
52007		9.689183	-0.015859	-1.577908	-0.002187	-0.003084	-0.009060	-0.876953	0.238281	-0.381104	0.630679	-0.170243	-0.742839	-0.146465
52008		9.677600	-0.070200	-1.595852	0.002315	-0.005832	-0.010030	-0.879883	0.239990	-0.387695	0.630610	-0.170179	-0.742921	-0.146420
52009		9.667258	-0.021110	-1.584002	0.014553	-0.004924	-0.010471	-0.881836	0.243896	-0.387939	0.630643	-0.170040	-0.742952	-0.146282
52010		9.679437	-0.029552	-1.552650	0.012200	-0.006455	-0.011166	-0.878174	0.240723	-0.392090	0.630658	-0.169997	-0.742973	-0.146162
52011		9.674006	-0.005936	-1.554366	0.009271	-0.008045	-0.012089	-0.880127	0.239746	-0.382812	0.630708	-0.169897	-0.742966	-0.146093
52012		9.680282	-0.015243	-1.588329	0.008400	-0.003998	-0.011863	-0.882812	0.235840	-0.385986	0.630678	-0.169810	-0.743028	-0.146011
52013		9.679191	-0.026516	-1.598972	0.013754	-0.002522	-0.011923	-0.882324	0.236816	-0.388672	0.630695	-0.169605	-0.743080	-0.145910
52014		9.680490	0.003135	-1.550662	0.009578	-0.003229	-0.011516	-0.885986	0.239746	-0.381348	0.630734	-0.169455	-0.743094	-0.145847
52015		9.671255	-0.028359	-1.591354	0.003724	-0.007514	-0.008456	-0.886719	0.230225	-0.385742	0.630624	-0.169475	-0.743196	-0.145780
52016		9.670473	-0.039645	-1.632546	0.006689	-0.009477	-0.012225	-0.883301	0.238770	-0.390137	0.630534	-0.169240	-0.743330	-0.145755
52017		9.684359	-0.024605	-1.595198	0.013453	-0.007326	-0.012497	-0.889893	0.240967	-0.389648	0.630566	-0.169104	-0.743355	-0.145652
52018		9.685364	0.001001	-1.560850	0.008132	-0.005800	-0.014323	-0.882324	0.236816	-0.384766	0.630562	-0.169052	-0.743376	-0.145620
52019		9.676263	-0.025008	-1.588649	0.006723	-0.006470	-0.014114	-0.889893	0.246826	-0.390381	0.630518	-0.168934	-0.743447	-0.145584
52020		9.677735	0.000877	-1.583712	0.014732	-0.007550	-0.013937	-0.897217	0.238525	-0.379150	0.630534	-0.168961	-0.743450	-0.145468
52021		9.685718	0.019130	-1.599003	0.013132	-0.012778	-0.012955	-0.886719	0.233398	-0.384521	0.630303	-0.168889	-0.743685	-0.145353
52022		9.699263	0.025412	-1.587988	0.002942	-0.005724	-0.013140	-0.876465	0.247070	-0.379639	0.630236	-0.168756	-0.743768	-0.145374
52023		9.690372	0.003733	-1.602437	0.002529	-0.004227	-0.012249	-0.886719	0.234131	-0.380615	0.630195	-0.168912	-0.743779	-0.145311
52024		9.685330	0.027457	-1.633340	0.002529	-0.008928	-0.008688	-0.885986	0.242676	-0.385498	0.630058	-0.168850	-0.743916	-0.145280
52025		9.677238	0.032092	-1.570505	0.006104	-0.008921	-0.009217	-0.875977	0.235107	-0.386963	0.630011	-0.168934	-0.743948	-0.145218
52026		9.691104	0.032951	-1.601721	-0.005894	-0.008709	-0.006189	-0.885498	0.235840	-0.385498	0.630018	-0.168960	-0.743929	-0.145255
52027		9.673701	-0.005618	-1.604360	-0.000415	-0.009922	-0.006371	-0.881836	0.238525	-0.385986	0.629951	-0.168973	-0.743983	-0.145254
52028		9.688601	0.008543	-1.625107	0.001708	-0.002329	-0.005565	-0.880859	0.238281	-0.380371	0.629996	-0.169017	-0.743940	-0.145228
52029		9.684579	-0.035810	-1.610055	0.002977	-0.006164	-0.008348	-0.884521	0.243652	-0.383301	0.629927	-0.169033	-0.744005	-0.145178
52030		9.700801	0.001852	-1.594544	-0.000806	-0.003073	-0.009152	-0.894043	0.235107	-0.378174	0.629907	-0.169188	-0.743986	-0.145180
52031		9.687194	0.000615	-1.637720	-0.004820	-0.002236	-0.007620	-0.883545	0.236572	-0.380127	0.629749	-0.169205	-0.744105	-0.145237
52032		9.685573	-0.015628	-1.631849	-0.001587	-0.002383	-0.008935	-0.894287	0.235596	-0.385742	0.629691	-0.169208	-0.744149	-0.145257
52033		9.664186	-0.018547	-1.622776	-0.001041	-0.000623	-0.010378	-0.885986	0.233398	-0.388916	0.629663	-0.169172	-0.744165	-0.145341
52034		9.681057	-0.060772	-1.600368	0.005940	-0.003410	-0.015682	-0.880615	0.233887	-0.390625	0.629708	-0.168981	-0.744159	-0.145395
52035		9.664144	0.006532	-1.543030	-0.006249	-0.006668	-0.016779	-0.879639	0.241211	-0.387451	0.629755	-0.168893	-0.744110	-0.145550
52036		9.690743	-0.009297	-1.596526	-0.017103	-0.007602	-0.016413	-0.885742	0.239990	-0.385010	0.629742	-0.169066	-0.744041	-0.145755
52037		9.684773	0.007416	-1.624600	-0.023725	-0.008863	-0.014902	-0.889404	0.241455	-0.385742	0.629632	-0.169284	-0.744033	-0.146017
52038		9.674852	-0.026653	-1.650029	-0.005825	-0.010502	-0.015894	-0.890869	0.236328	-0.380615	0.629536	-0.169384	-0.744070	-0.146127
52039		9.668052	-0.020025	-1.675282	0.010092	-0.009271	-0.015558	-0.886475	0.241699	-0.385498	0.629401	-0.169252	-0.744222	-0.146087
52040		9.671790	0.042652	-1.654720	0.026585	-0.011577	-0.016342	-0.877441	0.233154	-0.383301	0.629385	-0.169105	-0.744309	-0.145885
52041		9.683553	0.124619	-1.604685	0.014415	-0.008742	-0.009841	-0.884277	0.237549	-0.376465	0.629398	-0.168929	-0.744364	-0.145751
52042		9.690508	0.033586	-1.632731	0.002519	-0.005957	-0.007239	-0.882568	0.237305	-0.379883	0.629281	-0.168970	-0.744467	-0.145682
52043		9.674504	-0.000535	-1.679134	0.010156	0.001739	-0.006845	-0.886475	0.235107	-0.383301	0.629315	-0.168935	-0.744467	-0.145574
52044		9.666629	-0.005991	-1.640052	0.020312	-0.000624	-0.006894	-0.889160	0.237549	-0.387207	0.629368	-0.168777	-0.744492	-0.145401
52045		9.689798	0.032309	-1.617359	0.005343	-0.003353	-0.004540	-0.877686	0.235352	-0.385010	0.629406	-0.168819	-0.744459	-0.145357
52046		9.664310	-0.031415	-1.631339	-0.007662	-0.000645	-0.005736	-0.893066	0.228760	-0.372559	0.629479	-0.168898	-0.744367	-0.145418
52047		9.677542	-0.034886	-1.614912	-0.005953	0.000638	-0.009961	-0.885742	0.235352	-0.380859	0.629278	-0.168785	-0.744546	-0.145504
52048		9.674215	0.012117	-1.637267	-0.003221	0.002392	-0.011837	-0.883789	0.234375	-0.382812	0.629273	-0.168773	-0.744539	-0.145579
52049		9.682383	0.026137	-1.662514	-0.000431	0.003096	-0.012153	-0.886719	0.243896	-0.384033	0.629319	-0.168714	-0.744502	-0.145637
52050		9.673476	0.004234	-1.646223	0.000207	-0.001494	-0.011708	-0.883789	0.239258	-0.380371	0.629329	-0.168868	-0.744455	-0.145655
52051		9.688538	0.033142	-1.597588	0.004756	-0.002307	-0.009673	-0.889160	0.238525	-0.382080	0.629308	-0.168908	-0.744473	-0.145608
52052		9.662335	0.046486	-1.660364	-0.001501	-0.002779	-0.007483	-0.881104	0.235352	-0.380371	0.629262	-0.169000	-0.744487	-0.145627
52053		9.660107	0.020235	-1.651345	0.005137	-0.002600	-0.004095	-0.884766	0.238037	-0.376709	0.629265	-0.169003	-0.744501	-0.145542
52054		9.687903	0.027794	-1.625416	0.011716	-0.001370	-0.002268	-0.882812	0.235596	-0.373047	0.629225	-0.169028	-0.744563	-0.145369
52055		9.656357	-0.029720	-1.648673	0.002497	0.001850	-0.001321	-0.885986	0.235596	-0.377197	0.629159	-0.169079	-0.744626	-0.145272
52056		9.661818	-0.050460	-1.648310	0.011939	0.000887	-0.004606	-0.875977	0.238770	-0.376465	0.629136	-0.169022	-0.744684	-0.145138
52057		9.679636	0.009012	-1.624920	0.025579	0.001310	-0.008422	-0.887939	0.243164	-0.372803	0.629194	-0.168905	-0.744712	-0.144879
52058		9.672261	0.008706	-1.602421	0.011074	-0.002882	-0.010300	-0.882080	0.236328	-0.376709	0.629056	-0.168989	-0.744832	-0.144766
52059		9.664637	-0.004526	-1.649098	0.004214	-0.005321	-0.011348	-0.885010	0.236084	-0.383545	0.628969	-0.168967	-0.744916	-0.144737
52060		9.691938	0.005395	-1.594639	0.011280	-0.004876	-0.013868	-0.876709	0.234131	-0.378418	0.628972	-0.168854	-0.744946	-0.144699
52061		9.673789	0.044218	-1.615321	0.002586	-0.002903	-0.012473	-0.889160	0.237549	-0.383789	0.628961	-0.168790	-0.744970	-0.144699
52062		9.666544	0.040615	-1.635545	-0.000049	-0.002056	-0.011040	-0.885254	0.238037	-0.381836	0.628951	-0.168824	-0.744959	-0.144758
52063		9.683544	-0.006604	-1.626528	0.012258	-0.005699	-0.011299	-0.874756	0.232910	-0.381836	0.628932	-0.168781	-0.745000	-0.144681
52064		9.657317	0.020733	-1.621507	0.010839	-0.004027	-0.012869	-0.886475	0.235596	-0.379883	0.628985	-0.168628	-0.745002	-0.144618
52065		9.677207	0.014547	-1.612538	0.012498	-0.004539	-0.008733	-0.891113	0.233887	-0.386230	0.628948	-0.168558	-0.745069	-0.144517
52066		9.685849	0.040945	-1.629831	0.005348	-0.004591	-0.007660	-0.887207	0.233154	-0.381836	0.628951	-0.168509	-0.745078	-0.144510
52067		9.669874	0.015996	-1.621272	0.005372	-0.003940	-0.007772	-0.886719	0.244629	-0.382812	0.628928	-0.168450	-0.745117	-0.144481
52068		9.693023	0.050859	-1.641223	-0.001218	-0.001583	-0.008258	-0.895020	0.246826	-0.385010	0.628933	-0.168683	-0.745054	-0.144510
52069		9.659636	-0.027295	-1.642452	-0.000378	-0.005818	-0.013157	-0.881592	0.236328	-0.387695	0.628872	-0.168898	-0.745043	-0.144582
52070		9.668524	0.009712	-1.634056	0.001898	-0.006217	-0.012141	-0.890625	0.229248	-0.376465	0.628920	-0.168902	-0.744992	-0.144634
52071		9.680673	-0.006841	-1.629193	0.009532	-0.008697	-0.012542	-0.890869	0.229736	-0.379395	0.628767	-0.168684	-0.745180	-0.144581
52072		9.682164	0.028263	-1.598564	0.006152	-0.007121	-0.014235	-0.880615	0.235107	-0.377197	0.628659	-0.168495	-0.745313	-0.144592
52073		9.676036	0.043720	-1.626396	-0.005572	-0.007036	-0.015080	-0.880615	0.239258	-0.380859	0.628563	-0.168517	-0.745371	-0.144682
52074		9.682045	0.030801	-1.673546	-0.009273	-0.006717	-0.012647	-0.880371	0.239746	-0.371826	0.628516	-0.168676	-0.745351	-0.144802
52075		9.658532	-0.008008	-1.711349	0.010407	-0.008016	-0.016333	-0.892334	0.236328	-0.375488	0.628387	-0.168657	-0.745479	-0.144725
52076		9.680964	0.033071	-1.660645	0.022712	-0.005027	-0.017164	-0.890381	0.237549	-0.382080	0.628289	-0.168446	-0.745636	-0.144587
52077		9.682345	0.063616	-1.642414	0.015990	-0.005330	-0.013853	-0.893066	0.238770	-0.374268	0.628272	-0.168357	-0.745686	-0.144512
52078		9.680047	0.034210	-1.646872	0.006096	-0.004813	-0.012677	-0.888916	0.235840	-0.371826	0.628137	-0.168376	-0.745800	-0.144486
52079		9.659051	0.035768	-1.654943	0.016631	-0.006308	-0.012065	-0.889404	0.231201	-0.379395	0.628009	-0.168266	-0.745960	-0.144342
52080		9.679184	0.039283	-1.620845	0.011139	-0.009390	-0.013091	-0.887207	0.239502	-0.376953	0.627925	-0.168112	-0.746075	-0.144293
52081		9.663600	0.020462	-1.629666	0.006710	-0.008949	-0.017016	-0.884033	0.233154	-0.374756	0.627818	-0.168128	-0.746160	-0.144298
52082		9.680003	0.073812	-1.605740	0.003010	-0.008637	-0.014581	-0.878906	0.228271	-0.383057	0.627705	-0.168074	-0.746266	-0.144310
52083		9.665765	0.068797	-1.663288	-0.004715	-0.008777	-0.013724	-0.890137	0.227295	-0.374023	0.627698	-0.168004	-0.746266	-0.144421
52084		9.671876	0.059866	-1.697620	0.000843	-0.006735	-0.011138	-0.889160	0.235840	-0.375977	0.627567	-0.167879	-0.746400	-0.144441
52085		9.685844	0.075091	-1.660337	0.007891	-0.008655	-0.008539	-0.887939	0.238770	-0.379395	0.627470	-0.167902	-0.746489	-0.144376
52086		9.679141	0.083637	-1.672037	0.001681	-0.006609	-0.003439	-0.879395	0.230957	-0.378418	0.627436	-0.168076	-0.746484	-0.144346
52087		9.689762	0.037649	-1.687008	0.004428	-0.011438	-0.004757	-0.889404	0.233643	-0.378174	0.627393	-0.168080	-0.746532	-0.144280
52088		9.669596	0.055487	-1.673052	0.007197	-0.005866	-0.000630	-0.882080	0.235107	-0.376709	0.627363	-0.168128	-0.746566	-0.144178
52089		9.677063	0.071078	-1.658527	0.002390	-0.008637	-0.000086	-0.884521	0.235596	-0.376709	0.627321	-0.168260	-0.746587	-0.144097
52090		9.666421	0.014359	-1.676294	-0.005640	-0.004644	-0.002132	-0.885986	0.232422	-0.386230	0.627285	-0.168430	-0.746575	-0.144119
52091		9.660045	0.017833	-1.728614	-0.003201	0.003165	-0.003921	-0.885254	0.231934	-0.376465	0.627418	-0.168485	-0.746437	-0.144191
52092		9.658575	0.000869	-1.662387	0.005073	0.005724	-0.006348	-0.890137	0.235107	-0.377197	0.627485	-0.168434	-0.746397	-0.144168
52093		9.678927	-0.005588	-1.651363	0.003645	0.003137	-0.009137	-0.889160	0.235596	-0.378418	0.627502	-0.168426	-0.746382	-0.144180
52094		9.678963	-0.003146	-1.651159	0.005965	-0.001454	-0.012688	-0.890625	0.239502	-0.381104	0.627492	-0.168386	-0.746397	-0.144192
52095		9.659876	0.026109	-1.668267	0.007288	-0.003368	-0.012456	-0.889160	0.230713	-0.378906	0.627489	-0.168411	-0.746393	-0.144194
52096		9.681271	0.043470	-1.652652	0.015122	-0.002961	-0.011980	-0.885254	0.234375	-0.387207	0.627490	-0.168224	-0.746450	-0.144117
52097		9.655701	0.079223	-1.679968	0.011361	-0.004606	-0.009203	-0.884033	0.236816	-0.379639	0.627576	-0.168174	-0.746397	-0.144076
52098		9.674478	0.054073	-1.664721	0.009092	-0.005961	-0.005193	-0.882080	0.230713	-0.380859	0.627579	-0.168223	-0.746401	-0.143985
52099		9.652318	0.035866	-1.666069	0.005936	-0.004498	-0.007439	-0.889648	0.241211	-0.371826	0.627605	-0.168169	-0.746397	-0.143954
52100		9.660087	0.053000	-1.680195	0.007319	-0.004460	-0.007546	-0.892090	0.240479	-0.382568	0.627513	-0.168266	-0.746469	-0.143868
52101		9.673451	0.053732	-1.651944	0.006258	-0.004987	-0.006545	-0.888428	0.232666	-0.385498	0.627511	-0.168373	-0.746453	-0.143836
52102		9.665891	0.043643	-1.685675	0.004174	-0.004741	-0.004768	-0.888184	0.224609	-0.382568	0.627552	-0.168390	-0.746415	-0.143832
52103		9.663658	0.012389	-1.660102	0.006126	-0.000388	-0.003435	-0.884766	0.231445	-0.375488	0.627609	-0.168261	-0.746401	-0.143806
52104		9.673203	0.061489	-1.641375	0.003403	-0.004665	-0.007782	-0.888916	0.224854	-0.387695	0.627563	-0.168228	-0.746453	-0.143781
52105		9.676153	-0.003989	-1.684697	-0.004957	-0.006840	-0.006800	-0.886230	0.232178	-0.379150	0.627575	-0.168178	-0.746432	-0.143891
52106		9.646456	-0.037391	-1.731664	0.029366	-0.004708	-0.013832	-0.875977	0.233154	-0.376709	0.627602	-0.167900	-0.746512	-0.143686
52107		9.683073	0.133560	-1.603261	0.030179	-0.003476	-0.011045	-0.883301	0.232910	-0.372070	0.627669	-0.167672	-0.746556	-0.143427
52108		9.673078	0.082521	-1.636564	-0.007322	-0.004813	-0.006140	-0.886230	0.229248	-0.369873	0.627576	-0.167777	-0.746602	-0.143470
52109		9.676718	0.020817	-1.724918	-0.006959	-0.002747	-0.002354	-0.885010	0.239502	-0.376953	0.627478	-0.167849	-0.746666	-0.143489
52110		9.649236	0.023112	-1.724588	0.003446	0.007039	-0.002578	-0.889893	0.236084	-0.377930	0.627569	-0.167982	-0.746567	-0.143445
52111		9.671001	0.043436	-1.664523	0.008581	0.005083	-0.003448	-0.879395	0.238525	-0.383301	0.627636	-0.168006	-0.746520	-0.143369
52112		9.685446	0.052245	-1.667167	0.001509	-0.000311	-0.002002	-0.885010	0.235596	-0.377686	0.627734	-0.168160	-0.746408	-0.143340
52113		9.654504	-0.005592	-1.689844	0.002318	-0.000338	-0.002334	-0.884766	0.230469	-0.381104	0.627754	-0.168245	-0.746381	-0.143297
52114		9.653878	-0.013958	-1.686903	0.011622	-0.002782	-0.006756	-0.892578	0.232422	-0.381836	0.627793	-0.168141	-0.746388	-0.143215
52115		9.677726	0.043714	-1.671340	0.008571	-0.001070	-0.007665	-0.892578	0.234863	-0.375977	0.627812	-0.168071	-0.746393	-0.143180
52116		9.669949	0.029437	-1.687826	0.005804	-0.001148	-0.007450	-0.886475	0.233887	-0.383545	0.627774	-0.168061	-0.746435	-0.143144
52117		9.668634	0.007959	-1.694285	0.008609	0.000232	-0.007893	-0.892578	0.239014	-0.377686	0.627847	-0.168018	-0.746390	-0.143110
52118		9.678182	0.057523	-1.675095	0.009399	-0.000445	-0.008111	-0.884277	0.233643	-0.384277	0.627838	-0.168032	-0.746407	-0.143045
52119		9.656772	0.043867	-1.690828	0.010576	0.005240	-0.006681	-0.886475	0.232910	-0.384277	0.627977	-0.167977	-0.746312	-0.142994
52120		9.670036	0.030303	-1.699196	0.012516	0.004698	-0.006449	-0.893799	0.242920	-0.372559	0.628102	-0.167898	-0.746238	-0.142925
52121		9.655699	0.023032	-1.665509	0.014008	0.004995	-0.005219	-0.888184	0.233398	-0.377930	0.628107	-0.167939	-0.746253	-0.142776
52122		9.656610	0.037518	-1.654743	0.004410	0.004320	-0.003017	-0.890137	0.231201	-0.382080	0.628153	-0.167955	-0.746219	-0.142731
52123		9.673868	-0.024709	-1.653338	0.004031	0.001602	-0.006686	-0.886719	0.229492	-0.376953	0.628191	-0.167915	-0.746195	-0.142736
52124		9.675136	0.000086	-1.647017	0.006743	-0.001524	-0.009674	-0.888184	0.231689	-0.376465	0.628170	-0.167808	-0.746242	-0.142710
52125		9.677484	0.043509	-1.647353	0.004411	0.001807	-0.009252	-0.888672	0.229980	-0.379150	0.628168	-0.167748	-0.746258	-0.142706
52126		9.677824	0.045374	-1.675831	-0.002650	0.004948	-0.008733	-0.883545	0.238525	-0.365967	0.628201	-0.167722	-0.746221	-0.142783
52127		9.670444	0.036238	-1.678193	0.005327	0.002039	-0.008245	-0.884521	0.228760	-0.381592	0.628137	-0.167763	-0.746279	-0.142717
52128		9.665183	0.062994	-1.694164	0.008417	0.002891	-0.004447	-0.887695	0.232666	-0.377686	0.628218	-0.167681	-0.746240	-0.142657
52129		9.684548	0.041889	-1.664181	0.009006	-0.000035	-0.002311	-0.890381	0.234619	-0.380371	0.628231	-0.167670	-0.746251	-0.142556
52130		9.648206	0.009300	-1.673968	0.004943	-0.000552	-0.000538	-0.894287	0.233398	-0.379639	0.628247	-0.167732	-0.746237	-0.142485
52131		9.674631	-0.010614	-1.667509	0.015260	-0.003144	-0.002496	-0.882080	0.239014	-0.376221	0.628234	-0.167675	-0.746290	-0.142332
52132		9.666908	-0.026410	-1.683959	0.018373	0.000746	-0.003957	-0.886719	0.226074	-0.378418	0.628283	-0.167664	-0.746287	-0.142141
52133		9.678068	0.049532	-1.674303	0.022530	0.004517	-0.006306	-0.888184	0.232178	-0.391602	0.628367	-0.167411	-0.746308	-0.141962
52134		9.682846	0.015875	-1.624083	0.005434	0.003553	-0.003794	-0.886963	0.232910	-0.382080	0.628511	-0.167401	-0.746191	-0.141950
52135		9.668148	-0.005921	-1.659157	0.003888	0.001303	-0.004679	-0.890137	0.230713	-0.384277	0.628555	-0.167410	-0.746157	-0.141927
52136		9.668069	-0.009449	-1.671685	0.009823	0.002326	-0.007787	-0.880859	0.233154	-0.373535	0.628618	-0.167310	-0.746133	-0.141886
52137		9.676911	0.036245	-1.606831	0.005491	-0.000659	-0.008342	-0.886963	0.237793	-0.378662	0.628593	-0.167287	-0.746167	-0.141843
52138		9.682751	0.012433	-1.648682	-0.012052	0.001591	-0.009980	-0.888428	0.238770	-0.385010	0.628570	-0.167435	-0.746125	-0.141995
52139		9.661118	-0.009338	-1.690234	-0.005075	0.003756	-0.010860	-0.881836	0.234131	-0.377686	0.628625	-0.167524	-0.746037	-0.142110
52140		9.656481	0.037882	-1.654049	-0.001732	0.003911	-0.010849	-0.883301	0.234619	-0.373535	0.628653	-0.167534	-0.745999	-0.142175
52141		9.685057	0.058008	-1.630100	-0.005127	0.005450	-0.012544	-0.887451	0.233398	-0.373779	0.628647	-0.167558	-0.745979	-0.142278
52142		9.679311	0.081641	-1.630074	-0.012215	-0.003001	-0.005828	-0.892578	0.235352	-0.376953	0.628546	-0.167695	-0.746013	-0.142384
52143		9.657439	0.054058	-1.685304	-0.017971	0.002473	-0.003873	-0.893555	0.233643	-0.381104	0.628495	-0.167902	-0.745977	-0.142553
52144		9.684478	0.044281	-1.681825	-0.007010	-0.003467	0.001108	-0.886475	0.232422	-0.385254	0.628450	-0.168053	-0.745975	-0.142581
52145		9.665232	0.069817	-1.698817	-0.006965	0.000999	0.006996	-0.880615	0.239014	-0.376465	0.628514	-0.168240	-0.745880	-0.142577
52146		9.676806	0.030850	-1.655512	-0.001649	0.003173	0.010128	-0.889893	0.241455	-0.381836	0.628570	-0.168497	-0.745794	-0.142474
52147		9.668483	0.003605	-1.638668	-0.005551	-0.000044	0.011803	-0.881592	0.240479	-0.386475	0.628599	-0.168815	-0.745711	-0.142406
52148		9.681370	-0.022978	-1.673758	-0.003032	0.003131	0.010234	-0.883301	0.240723	-0.371094	0.628722	-0.169085	-0.745559	-0.142341
52149		9.667205	-0.033702	-1.669607	0.004968	0.004524	0.008584	-0.884277	0.242676	-0.382080	0.628750	-0.169266	-0.745525	-0.142178
52150		9.673699	-0.047612	-1.671466	0.011713	0.005523	0.005147	-0.889648	0.230713	-0.370361	0.628873	-0.169379	-0.745427	-0.142011
52151		9.654422	-0.017270	-1.615275	0.014182	0.005489	0.000806	-0.878906	0.242188	-0.376465	0.628884	-0.169274	-0.745476	-0.141834
52152		9.660793	-0.029405	-1.617866	0.004244	-0.001525	-0.001982	-0.878174	0.229248	-0.384521	0.628887	-0.169390	-0.745461	-0.141763
52153		9.676161	0.002542	-1.615798	0.002286	-0.006538	-0.003189	-0.883301	0.236572	-0.376953	0.628895	-0.169359	-0.745467	-0.141730
52154		9.667579	-0.036348	-1.698073	0.005127	-0.003852	-0.003862	-0.881348	0.239502	-0.379883	0.628862	-0.169378	-0.745502	-0.141667
52155		9.668598	-0.007718	-1.650097	0.011418	-0.000755	-0.003187	-0.884521	0.241455	-0.371338	0.628902	-0.169386	-0.745489	-0.141551
52156		9.690533	0.017091	-1.637329	0.002791	-0.000524	-0.003444	-0.886475	0.233643	-0.376709	0.628853	-0.169479	-0.745518	-0.141502
52157		9.641194	0.004417	-1.625084	-0.007459	-0.003885	-0.001009	-0.886963	0.240967	-0.382080	0.628787	-0.169580	-0.745545	-0.141536
52158		9.680296	-0.038865	-1.655014	-0.002477	-0.008034	-0.002863	-0.885986	0.242676	-0.374756	0.628728	-0.169718	-0.745562	-0.141542
52159		9.658258	-0.052623	-1.644222	0.002218	-0.010396	-0.005844	-0.888428	0.243652	-0.383057	0.628606	-0.169817	-0.745649	-0.141508
52160		9.685473	-0.052760	-1.646186	0.003675	-0.007752	-0.006412	-0.875000	0.232666	-0.380371	0.628562	-0.169899	-0.745670	-0.141489
52161		9.664962	-0.042928	-1.657836	0.004811	-0.005880	-0.010992	-0.885498	0.243164	-0.376953	0.628555	-0.169811	-0.745697	-0.141485
52162		9.677938	-0.050047	-1.656169	0.006146	-0.009045	-0.013869	-0.884277	0.239746	-0.386475	0.628460	-0.169806	-0.745778	-0.141485
52163		9.657200	-0.043686	-1.681165	0.011613	-0.007826	-0.015867	-0.889404	0.244873	-0.370117	0.628456	-0.169698	-0.745810	-0.141471
52164		9.679592	0.002751	-1.647931	0.016399	-0.010574	-0.017397	-0.881348	0.234863	-0.379639	0.628306	-0.169599	-0.745974	-0.141387
52165		9.678258	-0.006785	-1.631071	0.003119	-0.012854	-0.019096	-0.882324	0.236328	-0.387695	0.628194	-0.169489	-0.746081	-0.141451
52166		9.669433	-0.037237	-1.702320	0.006898	-0.014180	-0.019970	-0.883789	0.239014	-0.377441	0.628131	-0.169363	-0.746153	-0.141502
52167		9.663919	0.007039	-1.682990	0.014732	-0.010076	-0.021537	-0.886719	0.238037	-0.382080	0.628048	-0.169186	-0.746268	-0.141480
52168		9.684953	0.026729	-1.668979	0.002539	-0.008018	-0.018235	-0.880615	0.235596	-0.375244	0.627987	-0.169122	-0.746318	-0.141562
52169		9.668775	-0.004914	-1.658152	0.004834	-0.013286	-0.018307	-0.880127	0.235107	-0.378662	0.627855	-0.169031	-0.746443	-0.141595
52170		9.653589	-0.013070	-1.642067	0.003081	-0.016051	-0.021862	-0.886475	0.238525	-0.374756	0.627714	-0.168923	-0.746571	-0.141673
52171		9.664350	-0.059202	-1.671230	0.002076	-0.015889	-0.024320	-0.883057	0.234619	-0.378662	0.627526	-0.168835	-0.746729	-0.141777
52172		9.658387	-0.023448	-1.708204	0.015099	-0.017297	-0.028080	-0.884766	0.236816	-0.377197	0.627385	-0.168575	-0.746904	-0.141792
52173		9.680161	0.026211	-1.648087	0.018617	-0.019816	-0.028169	-0.886475	0.232910	-0.377441	0.627215	-0.168321	-0.747108	-0.141768
52174		9.681326	0.073610	-1.683037	-0.003666	-0.022137	-0.027515	-0.893799	0.232422	-0.368408	0.626977	-0.168212	-0.747300	-0.141943
52175		9.680666	0.089528	-1.692415	-0.009321	-0.027521	-0.026145	-0.886230	0.225586	-0.379639	0.626601	-0.168160	-0.747590	-0.142137
52176		9.662248	0.018078	-1.742945	-0.009666	-0.022132	-0.025960	-0.878174	0.236816	-0.381104	0.626377	-0.168037	-0.747763	-0.142360
52177		9.653927	0.012851	-1.750995	0.007889	-0.018743	-0.023409	-0.885498	0.230225	-0.375000	0.626266	-0.167936	-0.747870	-0.142407
52178		9.663550	0.098722	-1.704560	0.008902	-0.018896	-0.020954	-0.883301	0.231934	-0.375244	0.626098	-0.167773	-0.748044	-0.142418
52179		9.666589	0.036536	-1.692156	0.006435	-0.020776	-0.019603	-0.890625	0.232910	-0.372803	0.625922	-0.167671	-0.748211	-0.142438
52180		9.651815	0.035784	-1.768039	0.011151	-0.015005	-0.018753	-0.882324	0.230713	-0.377930	0.625777	-0.167536	-0.748366	-0.142420
52181		9.673702	0.082911	-1.736693	0.014797	-0.016610	-0.017627	-0.894043	0.231689	-0.372803	0.625685	-0.167373	-0.748490	-0.142359
52182		9.660231	0.109988	-1.734064	-0.005787	-0.012623	-0.012065	-0.889648	0.235596	-0.373779	0.625533	-0.167418	-0.748589	-0.142455
52183		9.669352	0.015993	-1.745256	-0.011857	-0.010953	-0.012184	-0.885254	0.236084	-0.376465	0.625406	-0.167554	-0.748635	-0.142612
52184		9.661801	0.012099	-1.795616	-0.001667	-0.002635	-0.013592	-0.887451	0.233643	-0.376221	0.625407	-0.167591	-0.748608	-0.142705
52185		9.655066	0.023641	-1.747869	0.014794	-0.005465	-0.019055	-0.889160	0.232666	-0.374268	0.625398	-0.167425	-0.748658	-0.142681
52186		9.678297	0.093970	-1.708128	0.009563	-0.007455	-0.017473	-0.885742	0.229980	-0.370605	0.625345	-0.167309	-0.748727	-0.142686
52187		9.657398	0.100022	-1.761231	-0.007972	-0.000881	-0.013151	-0.882324	0.232178	-0.375732	0.625312	-0.167338	-0.748721	-0.142829
52188		9.641251	0.047959	-1.799487	0.003564	0.000614	-0.012059	-0.884033	0.230957	-0.365723	0.625361	-0.167312	-0.748679	-0.142865
52189		9.650438	0.104016	-1.738083	0.010618	0.002436	-0.011523	-0.885010	0.226807	-0.376953	0.625375	-0.167219	-0.748697	-0.142819
52190		9.664152	0.101346	-1.721191	-0.001962	0.002303	-0.008607	-0.892090	0.227295	-0.366455	0.625432	-0.167207	-0.748639	-0.142887
52191		9.640640	0.032669	-1.745591	-0.005538	0.002215	-0.008044	-0.896240	0.225586	-0.374023	0.625396	-0.167228	-0.748648	-0.142970
52192		9.662181	0.054793	-1.745769	0.007214	-0.000985	-0.010935	-0.885498	0.234375	-0.366455	0.625387	-0.167102	-0.748685	-0.142964
52193		9.655392	0.059846	-1.739151	0.002890	0.002191	-0.010620	-0.885010	0.227783	-0.368896	0.625384	-0.167118	-0.748679	-0.142988
52194		9.647481	0.037263	-1.751695	0.004572	-0.001439	-0.012603	-0.894287	0.232178	-0.373779	0.625363	-0.167040	-0.748711	-0.143006
52195		9.647740	0.049752	-1.726479	0.006374	-0.004163	-0.013365	-0.884033	0.235352	-0.376221	0.625324	-0.166978	-0.748755	-0.143019
52196		9.659414	0.001515	-1.752427	0.002408	-0.001429	-0.015502	-0.890869	0.235107	-0.364502	0.625342	-0.166969	-0.748728	-0.143090
52197		9.653083	0.021610	-1.765822	0.013533	0.000358	-0.019992	-0.892090	0.229248	-0.371582	0.625303	-0.166822	-0.748795	-0.143083
52198		9.640403	0.055212	-1.717279	0.013809	0.000964	-0.024015	-0.895752	0.228516	-0.371582	0.625301	-0.166573	-0.748846	-0.143115
52199		9.669191	0.091938	-1.714430	0.004823	0.000301	-0.024893	-0.891602	0.227783	-0.368896	0.625262	-0.166379	-0.748898	-0.143237
52200		9.661151	0.067673	-1.739755	0.001846	0.001581	-0.024342	-0.887207	0.231201	-0.377197	0.625226	-0.166216	-0.748937	-0.143381
52201		9.669044	0.098060	-1.755617	0.008122	0.005388	-0.023822	-0.884521	0.234863	-0.369873	0.625302	-0.166042	-0.748893	-0.143481
52202		9.663707	0.142841	-1.732291	0.012703	0.004687	-0.021813	-0.884521	0.225830	-0.367432	0.625347	-0.165900	-0.748881	-0.143511
52203		9.655618	0.108623	-1.723845	0.003252	0.006095	-0.018580	-0.894287	0.236084	-0.371582	0.625374	-0.165772	-0.748869	-0.143601
52204		9.663413	0.133787	-1.693734	0.007937	0.003750	-0.018230	-0.888184	0.231201	-0.375244	0.625390	-0.165708	-0.748860	-0.143654
52205		9.662387	0.104974	-1.724919	0.000304	0.003082	-0.015874	-0.892822	0.232178	-0.370361	0.625424	-0.165686	-0.748817	-0.143761
52206		9.661868	0.089900	-1.746539	0.002040	0.003957	-0.015325	-0.884766	0.228027	-0.377686	0.625429	-0.165660	-0.748802	-0.143842
52207		9.661582	0.079398	-1.754918	0.005746	0.005616	-0.014784	-0.888672	0.222900	-0.373779	0.625521	-0.165576	-0.748733	-0.143898
52208		9.647628	0.074800	-1.721303	0.015640	0.002094	-0.018779	-0.888428	0.225342	-0.367676	0.625559	-0.165328	-0.748761	-0.143876
52209		9.662608	0.110443	-1.717661	0.011656	0.006069	-0.017807	-0.889404	0.220215	-0.371582	0.625593	-0.165143	-0.748772	-0.143882
52210		9.655184	0.093170	-1.745547	0.008029	0.002720	-0.016659	-0.886963	0.223389	-0.370850	0.625608	-0.164953	-0.748795	-0.143910
52211		9.674824	0.057568	-1.737233	0.017803	0.006439	-0.021387	-0.892578	0.226807	-0.381104	0.625672	-0.164675	-0.748806	-0.143892
52212		9.639593	0.034253	-1.702880	0.015509	0.004238	-0.025272	-0.882080	0.228271	-0.369629	0.625747	-0.164410	-0.748794	-0.143938
52213		9.676284	0.105320	-1.719277	0.022242	0.005337	-0.028746	-0.872803	0.219238	-0.362061	0.625800	-0.164096	-0.748819	-0.143934
52214		9.669864	0.123195	-1.715042	0.024099	0.005226	-0.029975	-0.893555	0.224609	-0.372070	0.625833	-0.163688	-0.748887	-0.143903
52215		9.668954	0.092868	-1.699998	0.025496	0.005946	-0.030207	-0.887451	0.228516	-0.376709	0.625878	-0.163295	-0.748938	-0.143884
52216		9.657697	0.186962	-1.687758	0.020605	0.003436	-0.027725	-0.895752	0.227295	-0.373535	0.625935	-0.163021	-0.748948	-0.143897
52217		9.679140	0.216721	-1.703737	0.012377	0.003919	-0.022482	-0.890381	0.220215	-0.375244	0.625949	-0.162843	-0.748967	-0.143941
52218		9.637684	0.217537	-1.715707	-0.006921	0.004528	-0.016457	-0.889160	0.221680	-0.375244	0.625963	-0.162810	-0.748929	-0.144118
52219		9.686704	0.240580	-1.714743	-0.010885	0.006105	-0.010334	-0.892822	0.220947	-0.372803	0.625996	-0.162880	-0.748852	-0.144289
52220		9.659626	0.252351	-1.716338	-0.021453	0.008778	0.000243	-0.887939	0.224609	-0.379150	0.626030	-0.163116	-0.748737	-0.144477
52221		9.680416	0.240107	-1.717200	-0.019243	0.007701	0.008068	-0.884766	0.220459	-0.378174	0.626118	-0.163446	-0.748568	-0.144596
52222		9.659159	0.204525	-1.695051	-0.023939	0.007598	0.016217	-0.893311	0.226074	-0.375244	0.626210	-0.163847	-0.748385	-0.144689
52223		9.649527	0.083904	-1.700531	-0.018192	0.008373	0.018442	-0.887939	0.225830	-0.383057	0.626289	-0.164259	-0.748224	-0.144713
52224		9.629258	0.082645	-1.721697	0.005093	0.005702	0.014458	-0.888428	0.225830	-0.381836	0.626437	-0.164451	-0.748088	-0.144556
52225		9.678639	0.113486	-1.652710	0.000348	0.004136	0.014806	-0.881348	0.232178	-0.377930	0.626551	-0.164681	-0.747965	-0.144435
52226		9.650324	0.078691	-1.654497	-0.008637	0.003423	0.013915	-0.887207	0.226562	-0.372803	0.626634	-0.165041	-0.747823	-0.144402
52227		9.643717	0.077287	-1.706087	0.009928	0.001120	0.009929	-0.889893	0.222168	-0.376953	0.626684	-0.165154	-0.747794	-0.144207
52228		9.659186	0.135010	-1.654916	0.002431	0.000729	0.010263	-0.888184	0.227783	-0.372070	0.626730	-0.165280	-0.747752	-0.144080
52229		9.685853	0.093846	-1.699759	-0.001411	-0.001241	0.011731	-0.886475	0.222656	-0.379150	0.626730	-0.165507	-0.747722	-0.143971
52230		9.657549	0.079250	-1.651969	0.004286	-0.008830	0.008794	-0.881592	0.228271	-0.370850	0.626707	-0.165622	-0.747745	-0.143823
52231		9.643533	0.081960	-1.670654	0.000490	-0.010104	0.006796	-0.891602	0.223877	-0.370361	0.626630	-0.165812	-0.747788	-0.143717
52232		9.635444	0.055798	-1.685885	-0.004194	-0.012226	0.000565	-0.889160	0.231445	-0.380859	0.626487	-0.165924	-0.747888	-0.143691
52233		9.632646	-0.022666	-1.733041	0.005306	-0.013556	-0.006007	-0.890137	0.226807	-0.372803	0.626403	-0.165972	-0.747956	-0.143650
52234		9.660000	-0.012426	-1.739387	0.015671	-0.011002	-0.013622	-0.889893	0.232666	-0.373291	0.626307	-0.165820	-0.748087	-0.143559
52235		9.674640	0.037714	-1.671181	0.019540	-0.009634	-0.018325	-0.879883	0.233643	-0.369141	0.626228	-0.165650	-0.748206	-0.143480
52236		9.674632	0.054415	-1.722615	0.015528	-0.009518	-0.020000	-0.883301	0.226562	-0.375977	0.626141	-0.165525	-0.748312	-0.143450
52237		9.647041	0.072896	-1.744383	0.022392	-0.006206	-0.022493	-0.882324	0.224609	-0.380127	0.626124	-0.165245	-0.748401	-0.143383
52238		9.653949	0.089552	-1.713565	0.026688	-0.005706	-0.024846	-0.888916	0.230469	-0.372070	0.626139	-0.164893	-0.748482	-0.143300
52239		9.655014	0.145421	-1.689994	0.020220	-0.004949	-0.022284	-0.886719	0.228516	-0.375000	0.626096	-0.164671	-0.748576	-0.143252
52240		9.687943	0.100314	-1.709865	0.010277	-0.006611	-0.020696	-0.887939	0.223633	-0.370605	0.626040	-0.164532	-0.748647	-0.143286
52241		9.688565	0.135659	-1.737531	0.012583	-0.000538	-0.014181	-0.881836	0.235107	-0.371582	0.626033	-0.164381	-0.748693	-0.143247
52242		9.646266	0.107461	-1.740180	0.009482	-0.000187	-0.014852	-0.890869	0.232422	-0.376465	0.626040	-0.164369	-0.748687	-0.143264
52243		9.667709	0.140580	-1.714735	0.010649	0.001269	-0.014647	-0.893311	0.224609	-0.374023	0.626068	-0.164307	-0.748675	-0.143273
52244		9.681297	0.134022	-1.710975	0.000589	0.001242	-0.011402	-0.893066	0.223389	-0.377197	0.626063	-0.164278	-0.748675	-0.143333
52245		9.666657	0.099455	-1.725842	-0.000467	0.003251	-0.007517	-0.892334	0.232178	-0.374268	0.626097	-0.164280	-0.748636	-0.143382
52246		9.638455	0.074715	-1.714898	0.009570	0.001334	-0.010405	-0.886963	0.217041	-0.376221	0.626116	-0.164263	-0.748628	-0.143363
52247		9.674285	0.129287	-1.712486	0.007758	0.002139	-0.012646	-0.880859	0.223877	-0.370117	0.626155	-0.164104	-0.748629	-0.143363
52248		9.646082	0.105323	-1.701526	0.000606	0.002541	-0.011641	-0.884033	0.226318	-0.375000	0.626169	-0.164087	-0.748610	-0.143426
52249		9.673089	0.078917	-1.749308	0.010306	0.000462	-0.015307	-0.899170	0.228027	-0.375732	0.626192	-0.163981	-0.748612	-0.143434
52250		9.673708	0.111173	-1.701027	0.013216	0.000900	-0.017547	-0.883301	0.223877	-0.376221	0.626193	-0.163825	-0.748647	-0.143429
52251		9.674370	0.142844	-1.681668	0.009769	0.003632	-0.016128	-0.894531	0.231201	-0.374512	0.626250	-0.163692	-0.748623	-0.143454
52252		9.660245	0.127636	-1.703243	0.005372	0.002868	-0.015111	-0.892578	0.225098	-0.378662	0.626260	-0.163658	-0.748611	-0.143514
52253		9.639246	0.115102	-1.718555	0.005837	0.002040	-0.016106	-0.885986	0.223145	-0.370605	0.626286	-0.163560	-0.748599	-0.143575
52254		9.660154	0.125398	-1.698628	0.017021	0.002858	-0.015676	-0.898193	0.221436	-0.383301	0.626317	-0.163371	-0.748625	-0.143515
52255		9.666974	0.121745	-1.688076	0.010097	0.002511	-0.015110	-0.889160	0.221191	-0.379883	0.626367	-0.163211	-0.748616	-0.143529
52256		9.653633	0.143486	-1.694344	0.007105	0.003760	-0.014567	-0.892822	0.229736	-0.379639	0.626425	-0.163091	-0.748586	-0.143568
52257		9.653793	0.150977	-1.710129	0.000397	0.001371	-0.014198	-0.886475	0.213623	-0.377197	0.626438	-0.163104	-0.748552	-0.143673
52258		9.673731	0.115070	-1.702263	-0.002373	0.001231	-0.013971	-0.895508	0.215820	-0.375732	0.626446	-0.163008	-0.748547	-0.143775
52259		9.674279	0.140694	-1.724942	0.003634	0.004542	-0.012789	-0.878174	0.219238	-0.382080	0.626473	-0.162879	-0.748545	-0.143814
52260		9.666773	0.104502	-1.716358	0.004643	0.004403	-0.010331	-0.891357	0.221436	-0.377686	0.626570	-0.162820	-0.748469	-0.143850
52261		9.653193	0.112203	-1.702456	0.009744	0.004261	-0.012899	-0.892090	0.220459	-0.383545	0.626624	-0.162699	-0.748452	-0.143846
52262		9.654240	0.166250	-1.676779	0.005589	0.004047	-0.012560	-0.891357	0.223877	-0.373291	0.626692	-0.162605	-0.748408	-0.143886
52263		9.668133	0.163067	-1.717998	-0.002383	0.003786	-0.011104	-0.895020	0.222168	-0.374756	0.626697	-0.162623	-0.748382	-0.143977
52264		9.654232	0.151857	-1.726375	0.000495	0.004840	-0.010114	-0.884766	0.225586	-0.382080	0.626719	-0.162605	-0.748356	-0.144034
52265		9.654588	0.168594	-1.686576	0.006566	0.004520	-0.006872	-0.890625	0.220703	-0.382080	0.626810	-0.162613	-0.748279	-0.144030
52266		9.648152	0.191435	-1.656861	-0.001886	0.003784	-0.004182	-0.884766	0.223877	-0.381592	0.626869	-0.162663	-0.748210	-0.144073
52267		9.655155	0.189762	-1.662446	-0.014729	0.002920	-0.000597	-0.878174	0.218750	-0.373535	0.626910	-0.162883	-0.748102	-0.144213
52268		9.675721	0.173248	-1.677581	-0.021125	0.001948	0.003658	-0.892822	0.224854	-0.377930	0.626911	-0.163160	-0.748012	-0.144360
52269		9.668171	0.118469	-1.737099	-0.014209	0.005516	0.005845	-0.898926	0.213623	-0.381836	0.626955	-0.163423	-0.747902	-0.144440
52270		9.668235	0.108699	-1.702784	0.005959	0.007126	0.007168	-0.886719	0.214600	-0.376953	0.627061	-0.163429	-0.747837	-0.144309
52271		9.669843	0.180371	-1.670345	0.005885	0.007690	0.013749	-0.886719	0.219482	-0.374512	0.627186	-0.163521	-0.747747	-0.144128
52272		9.663227	0.170431	-1.658248	-0.010367	0.010247	0.015273	-0.888428	0.217773	-0.370117	0.627292	-0.163790	-0.747606	-0.144095
52273		9.677880	0.184260	-1.662811	-0.008500	0.009017	0.022323	-0.892090	0.224854	-0.374023	0.627378	-0.164094	-0.747490	-0.143978
52274		9.621809	0.104880	-1.721058	-0.015010	0.006496	0.025477	-0.886963	0.227051	-0.379395	0.627442	-0.164528	-0.747354	-0.143905
52275		9.648633	0.049229	-1.685666	-0.005522	0.005827	0.022142	-0.891602	0.226807	-0.377441	0.627548	-0.164871	-0.747214	-0.143779
52276		9.650062	0.104823	-1.663002	-0.005723	0.005312	0.019468	-0.893066	0.228027	-0.383789	0.627625	-0.165178	-0.747103	-0.143668
52277		9.634774	0.023313	-1.647126	-0.012155	0.002880	0.015920	-0.883545	0.227783	-0.377197	0.627685	-0.165503	-0.746985	-0.143645
52278		9.648621	0.015323	-1.659450	-0.007837	0.001484	0.010581	-0.879639	0.227783	-0.379883	0.627719	-0.165759	-0.746904	-0.143618
52279		9.677372	0.058220	-1.676251	0.004771	0.002409	0.007567	-0.890625	0.234619	-0.376709	0.627803	-0.165884	-0.746829	-0.143502
52280		9.657016	0.073430	-1.660181	0.000965	-0.000185	0.005809	-0.894287	0.231201	-0.380371	0.627814	-0.166068	-0.746792	-0.143433
52281		9.642827	0.063735	-1.627969	0.002881	-0.003934	0.006637	-0.881348	0.223877	-0.376953	0.627806	-0.166212	-0.746788	-0.143325
52282		9.649805	0.067540	-1.668419	0.018655	-0.006345	0.006234	-0.889160	0.222900	-0.384277	0.627816	-0.166191	-0.746834	-0.143059
52283		9.657437	0.103037	-1.706721	0.030643	-0.006191	0.006463	-0.888916	0.227051	-0.379639	0.627871	-0.166052	-0.746892	-0.142677
52284		9.685727	0.145663	-1.667139	0.030660	-0.006655	0.014619	-0.890381	0.231445	-0.375244	0.627915	-0.166028	-0.746945	-0.142235
52285		9.699502	0.143976	-1.685011	0.020672	-0.005169	0.022296	-0.885010	0.224121	-0.377930	0.627944	-0.166188	-0.746961	-0.141836
52286		9.685950	0.150264	-1.706252	0.014685	-0.005070	0.031892	-0.880859	0.235596	-0.367188	0.627999	-0.166426	-0.746943	-0.141405
52287		9.685582	0.132285	-1.674662	0.010526	-0.004462	0.043491	-0.884277	0.230225	-0.380615	0.628032	-0.166909	-0.746894	-0.140946
52288		9.706257	0.113939	-1.664535	-0.003938	0.005503	0.047702	-0.887695	0.241455	-0.370605	0.628188	-0.167454	-0.746706	-0.140598
52289		9.694551	-0.094657	-1.713250	-0.008126	0.005282	0.051385	-0.883545	0.228516	-0.381348	0.628288	-0.168154	-0.746526	-0.140279
52290		9.705025	0.012771	-1.644915	0.000203	0.020746	0.045149	-0.879883	0.237793	-0.374756	0.628592	-0.168578	-0.746238	-0.139934
52291		9.654122	-0.103235	-1.592360	-0.023854	0.014683	0.045771	-0.887695	0.235107	-0.374756	0.628765	-0.169287	-0.745954	-0.139815
52292		9.623913	-0.208667	-1.627127	-0.029197	0.001493	0.034667	-0.883301	0.236572	-0.373291	0.628768	-0.169912	-0.745815	-0.139791
52293		9.650612	-0.243584	-1.675677	-0.012930	-0.005152	0.015793	-0.884277	0.248047	-0.376953	0.628712	-0.170255	-0.745791	-0.139752
52294		9.680928	-0.144663	-1.657319	0.001551	-0.010806	0.002707	-0.886963	0.246094	-0.380127	0.628626	-0.170453	-0.745829	-0.139694
52295		9.648632	-0.058337	-1.655612	-0.002415	-0.010015	-0.002441	-0.880859	0.246826	-0.383057	0.628541	-0.170605	-0.745863	-0.139707
52296		9.648191	-0.058197	-1.687913	0.000076	-0.014957	-0.004497	-0.892090	0.240234	-0.378418	0.628436	-0.170736	-0.745921	-0.139707
52297		9.668901	-0.037268	-1.692059	0.013100	-0.015613	-0.005041	-0.892578	0.236328	-0.374512	0.628313	-0.170696	-0.746061	-0.139566
52298		9.663491	0.031222	-1.654355	0.005448	-0.008154	-0.002237	-0.885498	0.244141	-0.369141	0.628231	-0.170702	-0.746144	-0.139480
52299		9.682352	-0.017441	-1.645254	-0.006471	-0.008026	0.002224	-0.887451	0.242676	-0.378418	0.628124	-0.170923	-0.746181	-0.139497
52300		9.687952	-0.048505	-1.672902	-0.017839	-0.011680	0.004280	-0.887695	0.243896	-0.382324	0.628000	-0.171229	-0.746198	-0.139589
52301		9.651390	-0.097064	-1.724003	-0.013961	-0.016556	0.002109	-0.888916	0.250977	-0.373779	0.627852	-0.171493	-0.746250	-0.139651
52302		9.682718	-0.173416	-1.707086	0.014734	-0.021217	-0.003312	-0.885010	0.243408	-0.383057	0.627677	-0.171550	-0.746413	-0.139498
52303		9.685721	-0.043251	-1.673712	0.018377	-0.025998	-0.004928	-0.885742	0.246338	-0.377686	0.627510	-0.171506	-0.746602	-0.139291
52304		9.637635	0.002133	-1.674843	0.000425	-0.027880	0.001474	-0.878662	0.244629	-0.370605	0.627276	-0.171695	-0.746771	-0.139206
52305		9.644286	0.033762	-1.731710	0.003419	-0.031539	0.009441	-0.884766	0.233398	-0.372070	0.627014	-0.171942	-0.746968	-0.139023
52306		9.694349	0.126772	-1.754816	0.010482	-0.030146	0.021465	-0.884277	0.243896	-0.380371	0.626799	-0.172142	-0.747172	-0.138649
52307		9.636633	0.292571	-1.775778	-0.010781	-0.026307	0.048245	-0.884766	0.241211	-0.381104	0.626659	-0.172822	-0.747198	-0.138296
52308		9.663371	0.067103	-1.811647	-0.017790	-0.019063	0.074171	-0.885010	0.245117	-0.374512	0.626620	-0.173752	-0.747105	-0.137811
52309		9.664072	0.083115	-1.829276	0.037782	-0.011101	0.091329	-0.887939	0.249756	-0.375000	0.626778	-0.174414	-0.747023	-0.136698
52310		9.624241	0.281832	-1.792272	0.046383	-0.010474	0.119522	-0.882812	0.253662	-0.371582	0.627003	-0.175287	-0.746885	-0.135293
52311		9.627531	0.470861	-1.726593	0.025668	-0.012020	0.169025	-0.881348	0.258789	-0.371582	0.627242	-0.176809	-0.746613	-0.133698
52312		9.625214	0.631965	-1.781245	0.002718	-0.012867	0.238932	-0.885498	0.256592	-0.370361	0.627537	-0.179176	-0.746143	-0.131776
52313		9.634178	0.790053	-1.951613	0.020095	0.005510	0.336186	-0.885742	0.272217	-0.374512	0.628178	-0.182217	-0.745359	-0.128954
52314		9.689874	1.104269	-2.199956	0.080269	0.071038	0.452090	-0.877930	0.270020	-0.376953	0.629750	-0.185809	-0.743847	-0.124830
52315		9.695707	1.326849	-2.124701	0.205105	0.140324	0.605247	-0.864990	0.291260	-0.374512	0.632469	-0.189646	-0.741607	-0.118472
52316		9.817216	2.178525	-1.636846	0.325003	0.205844	0.823947	-0.868408	0.303711	-0.382324	0.636326	-0.194544	-0.738417	-0.109465
52317		10.058061	2.631396	-0.994133	0.311548	0.199617	1.122604	-0.859131	0.324707	-0.392090	0.640374	-0.202245	-0.734424	-0.098186
52318		10.169496	1.683939	-0.799841	0.184679	0.160963	1.418092	-0.838623	0.348633	-0.401611	0.643945	-0.213662	-0.729627	-0.085602
52319		9.274200	-0.249172	-0.898341	0.084378	0.109812	1.590504	-0.828369	0.391113	-0.405762	0.646768	-0.227409	-0.724389	-0.072368
52320		8.288599	-1.770299	-1.154237	-0.041231	0.104596	1.630428	-0.807373	0.424072	-0.399658	0.648955	-0.242506	-0.718648	-0.059942
52321		7.061624	-1.239479	-1.415026	-0.130469	0.081754	1.709588	-0.797607	0.453125	-0.402100	0.650417	-0.258965	-0.712480	-0.047608
52322		8.033035	-2.353631	-1.706373	-0.030829	0.031503	1.775353	-0.777344	0.489014	-0.402344	0.651476	-0.275020	-0.706266	-0.033646
52323		9.234738	-2.809299	-1.937164	0.045701	0.054336	1.836597	-0.754639	0.535889	-0.399902	0.652692	-0.290842	-0.699327	-0.018579
52324		7.796425	-2.553910	-1.154035	0.188947	0.000214	1.930965	-0.725342	0.563965	-0.406738	0.653598	-0.306277	-0.692099	-0.001377
52325		8.088679	-4.587745	-1.270257	0.054322	0.026761	1.910383	-0.701172	0.598633	-0.402588	0.653869	-0.322403	-0.684326	0.014447
52326		4.145347	-5.069502	-0.886531	-0.101481	0.021610	1.822143	-0.677979	0.625977	-0.407959	0.653103	-0.338887	-0.676623	0.028153
52327		7.809423	-10.121558	-2.136719	-0.423974	0.067443	1.323042	-0.649902	0.667480	-0.398682	0.651282	-0.353556	-0.670528	0.034948
52328		9.621092	-10.057436	-2.741725	-0.377052	0.069984	0.983921	-0.630615	0.679199	-0.406738	0.649679	-0.365092	-0.665645	0.039262
52329		7.876893	-14.009989	-1.248070	-0.441465	-0.013666	0.383477	-0.638672	0.689209	-0.391113	0.647351	-0.371928	-0.664153	0.038818
52330		8.820661	-15.529116	-1.082242	-0.467478	-0.136050	-0.500370	-0.651855	0.683350	-0.378174	0.644213	-0.371516	-0.667815	0.031423
52331		10.626700	-17.613361	-2.474568	-0.322199	-0.305662	-1.535060	-0.661377	0.669189	-0.366455	0.640570	-0.361122	-0.677457	0.017687
52332		16.020622	-16.314503	-3.120730	-0.083420	-0.348079	-2.553365	-0.716064	0.621826	-0.362305	0.637434	-0.340075	-0.691392	-0.001885
52333		22.723899	-10.438176	-2.927687	0.643481	-0.160828	-3.138425	-0.753906	0.556885	-0.364502	0.638146	-0.307612	-0.705494	-0.020554
52334		18.364225	-0.120031	-2.024228	1.967890	-0.033709	-3.611820	-0.799561	0.463623	-0.371338	0.643608	-0.259784	-0.719216	-0.031764
52335		6.705820	2.699021	-3.786643	1.521749	0.206223	-4.553819	-0.842041	0.358398	-0.395508	0.647308	-0.206267	-0.731685	-0.055522
52336		9.007471	5.470708	-5.244233	0.334074	0.604566	-4.011475	-0.858643	0.270752	-0.388184	0.649984	-0.166394	-0.736444	-0.086510
52337		8.042720	2.531704	0.944445	-0.789348	0.445434	-2.190007	-0.860352	0.227295	-0.395996	0.649593	-0.152417	-0.736260	-0.112777
52338		1.737811	-3.071333	-4.041541	-0.084524	-0.386722	-0.696568	-0.875000	0.214355	-0.381104	0.644801	-0.147414	-0.740571	-0.118557
52339		0.608717	0.105917	0.042597	1.211427	0.108096	-0.194451	-0.863525	0.202881	-0.384277	0.647655	-0.135814	-0.741753	-0.109087
52340		0.038247	2.307977	-0.840522	1.664719	-0.055056	0.313913	-0.873779	0.185791	-0.390381	0.650262	-0.125420	-0.743745	-0.090951
52341		-0.222915	4.905986	-0.064900	1.250733	0.045085	0.835397	-0.864502	0.191406	-0.383301	0.653486	-0.123054	-0.743338	-0.072538
52342		0.217661	5.161288	0.431125	0.041130	0.044441	1.306550	-0.857666	0.217529	-0.393799	0.655066	-0.134918	-0.740878	-0.061526
52343		0.689527	2.376465	-0.073132	-0.633553	-0.002820	1.600157	-0.844727	0.262695	-0.397949	0.655054	-0.155016	-0.737514	-0.054286
52344		0.770487	0.494438	-0.090617	-0.595457	-0.024936	1.782998	-0.850586	0.310059	-0.391113	0.654702	-0.176435	-0.733619	-0.045151
52345		0.750262	-0.497779	-0.159204	-0.250055	-0.000271	1.766909	-0.834961	0.345947	-0.389404	0.654984	-0.194781	-0.729360	-0.033021
52346		0.614793	0.741664	-0.143868	-0.073018	0.039679	1.541738	-0.813965	0.379639	-0.385498	0.655683	-0.209526	-0.725072	-0.021203
52347		0.648112	2.346095	-0.450462	-0.482457	0.122690	1.215242	-0.797363	0.417969	-0.398438	0.655764	-0.224620	-0.720599	-0.016025
52348		2.211904	2.300366	2.568206	-0.924326	0.309241	1.114531	-0.794189	0.439697	-0.416504	0.656061	-0.242438	-0.714522	-0.016289
52349		17.416423	-19.862629	-9.884534	-3.150309	-0.217377	4.222434	-0.735107	0.560547	-0.377197	0.644022	-0.305566	-0.701271	-0.009155
52350		4.340755	9.803917	-0.780886	-2.785716	0.540639	3.668018	-0.684326	0.657227	-0.361572	0.637458	-0.359681	-0.681352	-0.006090
52351		29.395833	-17.402628	-14.317046	-1.112832	0.260569	1.646932	-0.652832	0.691406	-0.342285	0.634614	-0.382538	-0.671503	-0.003612
52352		40.319365	-7.744465	1.544234	0.313810	0.472213	1.727225	-0.621094	0.715576	-0.359619	0.639979	-0.394508	-0.659303	0.010492
52353		-7.864009	-35.507491	0.161150	-1.368918	-0.261346	1.707419	-0.597900	0.760986	-0.332764	0.630618	-0.419430	-0.652841	0.014092
52354		12.239100	-23.515043	-1.116351	1.693871	-0.194278	-2.414938	-0.651611	0.704346	-0.354980	0.637883	-0.386127	-0.666267	0.009989
52355		17.712637	-19.304227	-4.275957	0.254694	-0.497577	-2.405342	-0.677979	0.664062	-0.346924	0.634936	-0.363870	-0.681495	-0.004515
52356		20.205734	-12.551441	-2.620918	2.311803	-0.463193	-3.397390	-0.731445	0.572754	-0.376465	0.640439	-0.316218	-0.699824	-0.009483
52357		14.423317	1.161181	-3.759972	2.937399	-0.060612	-3.920942	-0.780273	0.478516	-0.399170	0.649839	-0.257886	-0.714834	-0.014683
52358		4.044095	6.544249	-5.900946	2.117605	0.711042	-4.465537	-0.820557	0.360596	-0.425537	0.660907	-0.200368	-0.722416	-0.034214
52359		7.725137	9.316801	-3.889824	0.954788	0.837337	-2.840925	-0.835693	0.283691	-0.440430	0.669103	-0.166476	-0.722480	-0.051084
52360		3.793077	-0.923009	-2.045660	-0.958038	-0.248198	-0.535267	-0.830566	0.285889	-0.427734	0.664408	-0.169900	-0.725011	-0.063677
52361		1.669541	-3.808373	-3.544119	0.462314	-0.433509	0.970257	-0.828613	0.301758	-0.416992	0.662140	-0.175314	-0.726834	-0.050481
52362		0.494934	0.132975	0.185320	1.261055	0.039773	1.322491	-0.826172	0.319336	-0.426025	0.665904	-0.176943	-0.724205	-0.028098
52363		0.603461	4.735758	0.138482	0.621674	-0.074331	1.476638	-0.807373	0.347412	-0.428467	0.666974	-0.185240	-0.721618	-0.009944
52364		0.512508	5.292212	0.732151	-0.676553	-0.079818	1.726304	-0.796143	0.384033	-0.407227	0.664714	-0.206533	-0.717982	-0.001427
52365		1.037036	1.588321	0.388042	-1.427223	-0.242926	1.758849	-0.788574	0.436523	-0.401123	0.658603	-0.234209	-0.715113	0.001022
52366		2.230086	-1.095399	-1.492131	-1.240168	-0.422001	1.598216	-0.778564	0.478027	-0.380859	0.650955	-0.258734	-0.713650	0.004338
52367		0.843270	-1.333775	-1.977393	-0.506784	-0.370950	1.428273	-0.753662	0.509277	-0.362305	0.645797	-0.275639	-0.711905	0.012651
52368		0.765892	1.655854	-2.095786	0.140771	-0.077147	1.489135	-0.736572	0.547119	-0.380371	0.645235	-0.287817	-0.707211	0.026196
52369		-0.199374	1.174477	0.473387	-0.408256	-0.259932	1.299546	-0.723145	0.561035	-0.370117	0.640934	-0.302621	-0.704605	0.033987
52370		2.777754	-12.457105	-0.354338	-1.352665	-0.342252	1.842507	-0.706299	0.616943	-0.355225	0.631741	-0.329556	-0.700603	0.038097
52371		17.927748	-8.086414	0.827558	-0.997719	0.139373	2.897132	-0.661865	0.676270	-0.354492	0.626987	-0.362742	-0.687483	0.051693
52372		27.437889	-5.582221	-6.717835	-1.316769	0.150522	1.249917	-0.630615	0.710205	-0.351562	0.621327	-0.383842	-0.681290	0.049615
52373		23.851794	-19.379539	-8.015181	-0.341003	0.025718	1.068102	-0.614990	0.725586	-0.340820	0.619184	-0.395609	-0.676078	0.054995
52374		18.689739	-21.941641	-2.988891	-0.076237	-0.104205	-0.221041	-0.614746	0.727051	-0.338135	0.618059	-0.394325	-0.677996	0.053208
52375		18.390419	-21.342183	-3.909086	-0.370975	0.040380	-1.640187	-0.648926	0.701172	-0.327393	0.617508	-0.383319	-0.685830	0.037239
52376		21.629534	-14.325763	-5.240808	0.277807	0.162665	-2.669703	-0.690918	0.644775	-0.326416	0.621107	-0.358225	-0.696826	0.018297
52377		15.188829	-2.991344	-4.764883	1.703199	0.461194	-3.578834	-0.746582	0.578857	-0.353271	0.632776	-0.313554	-0.708002	0.003363
52378		7.858241	8.458488	-3.381476	0.042827	0.982257	-3.389629	-0.768066	0.507080	-0.349609	0.641140	-0.283076	-0.712800	-0.026893
52379		9.845070	5.663006	2.405363	-1.117455	0.171985	-0.740452	-0.779541	0.501221	-0.335938	0.638335	-0.285552	-0.713508	-0.043527
52380		4.343085	-3.572351	-3.108929	-1.026273	-0.937498	1.294481	-0.774414	0.530518	-0.299561	0.626810	-0.305920	-0.715533	-0.039173
52381		-1.733831	-2.976853	-0.911516	0.286661	0.005949	0.715256	-0.759033	0.548584	-0.299561	0.628259	-0.310218	-0.712800	-0.031162
52382		-2.580487	-0.262207	0.857019	1.966794	0.358775	-0.437660	-0.764648	0.518311	-0.332031	0.638694	-0.290808	-0.712149	-0.018556
52383		-2.278900	4.182112	3.248251	0.916287	0.381779	-1.213457	-0.772461	0.492920	-0.344727	0.645014	-0.272669	-0.713545	-0.021506
52384		-0.454380	0.920797	1.332272	-0.007043	0.275082	-1.587721	-0.790283	0.457275	-0.354492	0.646885	-0.258574	-0.716540	-0.035359
52385		-0.716059	0.621131	-0.354309	-0.598784	0.345724	-1.836142	-0.808838	0.423828	-0.351807	0.647042	-0.246868	-0.719149	-0.056724
52386		0.996105	-0.134569	-1.592391	-0.609751	0.084865	-1.707612	-0.825439	0.401367	-0.342773	0.644548	-0.236458	-0.723064	-0.076316
52387		1.613261	-0.933721	-1.195879	-0.397514	0.117915	-1.538993	-0.830078	0.369141	-0.354492	0.642843	-0.225740	-0.726085	-0.092706
52388		1.434214	-0.580552	-0.643410	-0.315248	0.148665	-1.056096	-0.837158	0.358643	-0.364502	0.642018	-0.218639	-0.727383	-0.104518
52389		0.351042	-0.091089	0.813960	-1.102901	0.168181	-0.452970	-0.841309	0.358398	-0.357666	0.639866	-0.223300	-0.725684	-0.118703
52390		6.057249	-8.453674	2.427004	-1.459775	-0.075426	0.843530	-0.837402	0.383057	-0.354736	0.636204	-0.242913	-0.721520	-0.125083
52391		14.858294	-17.373432	-7.513092	0.308164	-0.969051	4.083021	-0.802490	0.460205	-0.353271	0.633913	-0.278599	-0.716247	-0.086762
52392		24.892143	21.985357	-5.828551	-0.318828	-0.481806	2.007114	-0.783691	0.518555	-0.341309	0.630483	-0.299528	-0.712471	-0.071832
52393		34.997706	-5.822308	-11.181311	-1.595011	0.036486	1.862061	-0.756592	0.571045	-0.321289	0.626233	-0.328615	-0.703374	-0.071477
52394		19.842379	-12.124399	-1.439171	-0.663376	0.194007	1.462095	-0.735596	0.595703	-0.313721	0.626407	-0.346542	-0.695038	-0.066678
52395		2.591197	-29.549709	-4.926460	-0.248392	0.124889	-0.112481	-0.744629	0.601318	-0.324951	0.626327	-0.347493	-0.694280	-0.070270
52396		6.970009	-12.655650	-2.683519	1.160972	0.164467	-1.589931	-0.757568	0.562988	-0.334961	0.631219	-0.324399	-0.700695	-0.073171
52397		10.288443	-4.598511	-2.911104	1.090937	0.124722	-2.116317	-0.788818	0.513916	-0.352295	0.634519	-0.297076	-0.708965	-0.080622
52398		10.248048	3.276010	-3.789422	1.578279	-0.008631	-2.162871	-0.810547	0.449951	-0.366699	0.637773	-0.265310	-0.718245	-0.083547
52399		6.914092	3.132596	-2.326943	1.278836	-0.039433	-1.860961	-0.824707	0.399170	-0.376221	0.639467	-0.238419	-0.725768	-0.086603
52400		4.598750	2.467712	-1.840126	1.184715	-0.154409	-1.364428	-0.838867	0.364990	-0.378418	0.639960	-0.216763	-0.732147	-0.086172
52401		3.961283	3.451030	-0.678494	0.929853	-0.345738	-0.870452	-0.854736	0.328613	-0.382812	0.638290	-0.201810	-0.738152	-0.083606
52402		5.560336	3.319264	1.338406	0.053987	-0.181581	-0.262338	-0.853760	0.320557	-0.380859	0.636474	-0.199230	-0.740296	-0.084676
52403		6.941958	1.923786	2.063615	-1.191913	0.029527	0.301526	-0.854736	0.343750	-0.371826	0.634028	-0.211533	-0.737938	-0.093323
52404		9.225600	-2.776665	-2.352606	-1.356069	0.116860	0.438185	-0.846191	0.374268	-0.366943	0.631935	-0.226254	-0.734120	-0.102637
52405		16.443529	-1.381497	-4.942706	-0.347683	0.111854	0.271967	-0.846436	0.376709	-0.367188	0.632328	-0.231460	-0.731970	-0.103960
52406		17.268687	-2.456058	-2.115046	0.240673	0.020989	-0.025991	-0.841064	0.381348	-0.368164	0.633189	-0.229385	-0.732157	-0.101985
52407		7.808424	-4.238019	-0.874067	0.312730	0.004192	-0.181267	-0.851562	0.367676	-0.370117	0.633895	-0.225355	-0.732996	-0.100540
52408		9.429893	-3.512648	-2.385690	0.344267	-0.044503	-0.351168	-0.844727	0.355957	-0.370361	0.634012	-0.219557	-0.734727	-0.100002
52409		8.677320	-0.991727	-1.318042	0.710596	0.013401	-0.431734	-0.861084	0.346436	-0.383057	0.635521	-0.210025	-0.736627	-0.096871
52410		9.370976	1.782982	-0.516010	0.430151	0.026405	-0.318116	-0.850342	0.329346	-0.382568	0.636505	-0.203737	-0.737728	-0.095446
52411		9.594547	1.224811	-1.815149	-0.403780	0.029039	-0.138561	-0.854980	0.325928	-0.387207	0.635581	-0.205730	-0.737327	-0.100302
52412		9.220847	-1.533860	-2.707809	-0.469265	0.027613	-0.094778	-0.858154	0.331055	-0.381348	0.634514	-0.208626	-0.736722	-0.105397
52413		9.916743	-2.489829	-2.109469	-0.061132	0.039733	-0.143594	-0.860352	0.321289	-0.377686	0.634542	-0.207824	-0.736670	-0.107161
52414		10.300742	-1.160366	-1.172916	0.240070	0.036331	-0.188242	-0.857422	0.323975	-0.383057	0.635252	-0.204216	-0.737163	-0.106496
52415		10.039438	-0.282668	-1.027444	0.164143	0.011378	-0.153082	-0.853027	0.321289	-0.384521	0.635582	-0.201579	-0.737649	-0.106182
52416		9.464499	-0.188730	-1.874818	0.037494	0.026949	-0.102420	-0.861572	0.322266	-0.381592	0.635802	-0.200398	-0.737710	-0.106676
52417		9.346654	-0.706317	-2.160915	0.011969	0.054792	-0.076589	-0.862793	0.312988	-0.395020	0.636242	-0.199635	-0.737448	-0.107299
52418		9.488898	-0.865839	-1.693944	0.044513	0.077077	-0.072269	-0.858887	0.319092	-0.385986	0.636984	-0.198589	-0.737046	-0.107594
52419		9.606657	-0.569332	-1.386380	-0.033443	0.060772	-0.058174	-0.860840	0.309814	-0.381104	0.637390	-0.198347	-0.736628	-0.108500
52420		9.765827	-0.673613	-1.463797	-0.109020	0.051176	-0.029167	-0.859863	0.312500	-0.387207	0.637553	-0.198983	-0.736113	-0.109863
52421		9.840208	-1.262536	-1.700563	-0.033868	0.043940	-0.031005	-0.855469	0.308838	-0.390869	0.637839	-0.199006	-0.735762	-0.110511
52422		9.718650	-1.243841	-1.645547	0.106987	0.038457	-0.056629	-0.857910	0.309326	-0.394775	0.638393	-0.197667	-0.735714	-0.110034
52423		9.621928	-0.840670	-1.382877	0.123041	0.036606	-0.077242	-0.863770	0.301270	-0.395996	0.638940	-0.196012	-0.735752	-0.109564
52424		9.520380	-0.732976	-1.307403	-0.002718	0.013518	-0.069564	-0.861816	0.301025	-0.392822	0.638975	-0.195456	-0.735784	-0.110136
52425		9.454627	-0.955149	-1.436920	-0.089872	0.000855	-0.066459	-0.861328	0.308594	-0.393555	0.638681	-0.195650	-0.735788	-0.111466
52426		9.591624	-1.012506	-1.618257	-0.101176	0.004681	-0.071993	-0.863770	0.308594	-0.392090	0.638386	-0.195890	-0.735752	-0.112957
52427		9.686970	-1.133916	-1.688065	-0.043526	0.005617	-0.087403	-0.858398	0.303467	-0.386719	0.638217	-0.195528	-0.735827	-0.114048
52428		9.794726	-0.798550	-1.473645	0.040293	0.008022	-0.101014	-0.867676	0.301514	-0.393799	0.638251	-0.194369	-0.736036	-0.114487
52429		9.723073	-0.653355	-1.446166	0.017414	0.008903	-0.089808	-0.857422	0.300537	-0.397217	0.638258	-0.193484	-0.736178	-0.115034
52430		9.599939	-0.745649	-1.538016	0.002898	0.002624	-0.085045	-0.865479	0.302002	-0.393799	0.638184	-0.192764	-0.736336	-0.115640
52431		9.523546	-0.743924	-1.522238	-0.008053	-0.005630	-0.083775	-0.857422	0.297852	-0.396240	0.638003	-0.192167	-0.736538	-0.116343
52432		9.580381	-0.621976	-1.498602	-0.049924	0.001247	-0.081111	-0.858887	0.295654	-0.400635	0.637794	-0.191908	-0.736618	-0.117404
52433		9.630599	-0.819366	-1.610257	-0.070829	0.006315	-0.084844	-0.867432	0.297363	-0.393799	0.637580	-0.191764	-0.736637	-0.118680
52434		9.615344	-0.956101	-1.640594	-0.022535	0.008626	-0.090838	-0.860840	0.291992	-0.388672	0.637482	-0.191193	-0.736720	-0.119605
52435		9.687760	-0.701118	-1.601952	0.034816	-0.004567	-0.095807	-0.867188	0.294434	-0.387939	0.637389	-0.190140	-0.737006	-0.120014
52436		9.761813	-0.619503	-1.567607	0.047040	0.003653	-0.082336	-0.860352	0.291504	-0.384521	0.637416	-0.189112	-0.737211	-0.120240
52437		9.754320	-0.705313	-1.432853	0.049898	0.008400	-0.076758	-0.857178	0.287109	-0.393311	0.637500	-0.188110	-0.737366	-0.120411
52438		9.655174	-0.680040	-1.559126	0.023922	0.009596	-0.090584	-0.871094	0.293945	-0.399902	0.637525	-0.187165	-0.737507	-0.120892
52439		9.585791	-0.823684	-1.584840	0.016707	0.005868	-0.100243	-0.869385	0.274170	-0.394775	0.637484	-0.186202	-0.737684	-0.121512
52440		9.631213	-0.658872	-1.619227	0.060381	0.005307	-0.110861	-0.869385	0.280762	-0.398926	0.637518	-0.184765	-0.737968	-0.121802
52441		9.775439	-0.520698	-1.498686	0.070694	0.019356	-0.108185	-0.864502	0.276855	-0.394287	0.637712	-0.183262	-0.738141	-0.122007
52442		9.692021	-0.555546	-1.495859	0.038576	0.034942	-0.118936	-0.867920	0.270264	-0.401123	0.637954	-0.181900	-0.738163	-0.122645
52443		9.663090	-0.581527	-1.420713	0.051777	0.019830	-0.130444	-0.863281	0.270508	-0.391602	0.638074	-0.180330	-0.738353	-0.123192
52444		9.587222	-0.447227	-1.431382	0.052386	0.004921	-0.134459	-0.863525	0.270752	-0.398438	0.638039	-0.178768	-0.738667	-0.123773
52445		9.650250	-0.477636	-1.518038	0.033793	-0.011314	-0.132776	-0.869629	0.260742	-0.399902	0.637821	-0.177389	-0.739073	-0.124456
52446		9.627750	-0.548150	-1.560567	0.078357	-0.017252	-0.136372	-0.872803	0.261230	-0.399414	0.637640	-0.175612	-0.739607	-0.124729
52447		9.669747	-0.330442	-1.542301	0.088965	0.010862	-0.148056	-0.871826	0.250000	-0.403809	0.637719	-0.173609	-0.739954	-0.125071
52448		9.668052	-0.321892	-1.423559	0.067048	0.008417	-0.150068	-0.868164	0.247070	-0.402344	0.637730	-0.171741	-0.740292	-0.125596
52449		9.642392	-0.249017	-1.408918	0.062208	0.000130	-0.153078	-0.866211	0.244385	-0.403076	0.637645	-0.169902	-0.740690	-0.126178
52450		9.658518	-0.132057	-1.416937	0.033417	-0.023764	-0.148019	-0.880615	0.247803	-0.397461	0.637286	-0.168378	-0.741217	-0.126934
52451		9.672104	-0.088418	-1.426467	-0.001092	-0.025784	-0.146002	-0.873779	0.242676	-0.402832	0.636819	-0.167179	-0.741699	-0.128039
52452		9.706373	-0.010116	-1.429357	-0.023846	-0.032344	-0.137355	-0.872070	0.240479	-0.401855	0.636271	-0.166235	-0.742174	-0.129238
52453		9.729873	0.216615	-1.527796	-0.065746	-0.027274	-0.117632	-0.871826	0.246094	-0.403076	0.635714	-0.165800	-0.742497	-0.130679
52454		9.722688	0.236041	-1.598088	-0.078173	-0.020281	-0.073611	-0.875000	0.239014	-0.399902	0.635269	-0.165875	-0.742643	-0.131908
52455		9.694864	0.303539	-1.606658	-0.117086	0.002555	-0.033981	-0.871826	0.236084	-0.389404	0.635015	-0.166578	-0.742467	-0.133233
52456		9.769650	0.322833	-1.524681	-0.135375	0.014072	0.008640	-0.875977	0.231934	-0.397217	0.634885	-0.167812	-0.742083	-0.134440
52457		9.803709	0.110015	-1.543690	-0.109421	0.009947	0.040789	-0.882080	0.245361	-0.394043	0.634835	-0.169114	-0.741708	-0.135108
52458		9.726194	-0.086611	-1.533632	-0.026839	-0.002982	0.071725	-0.879883	0.244141	-0.388916	0.634880	-0.170105	-0.741503	-0.134776
52459		9.704598	0.053701	-1.431771	0.051895	-0.019888	0.091677	-0.867188	0.241943	-0.396484	0.634963	-0.170684	-0.741525	-0.133529
52460		9.703446	-0.012871	-1.433869	0.019394	-0.016716	0.105641	-0.875977	0.249023	-0.391357	0.635048	-0.171621	-0.741432	-0.132435
52461		9.686423	-0.127424	-1.370465	-0.049211	-0.010708	0.116594	-0.870117	0.252197	-0.395508	0.635044	-0.173215	-0.741153	-0.131939
52462		9.627584	-0.276180	-1.369865	-0.124433	-0.030119	0.120537	-0.867676	0.248779	-0.390625	0.634712	-0.175467	-0.740888	-0.132046
52463		9.665223	-0.211056	-1.162201	-0.157684	-0.044786	0.115559	-0.881592	0.260254	-0.391602	0.634156	-0.177945	-0.740699	-0.132462
52464		9.702946	0.039659	-1.070201	-0.267332	-0.054166	0.124585	-0.875977	0.263184	-0.397217	0.633273	-0.181402	-0.740373	-0.133817
52465		9.754155	-0.366442	-1.672804	-0.374470	-0.047558	0.132138	-0.875244	0.272949	-0.383545	0.632226	-0.185741	-0.739779	-0.136079
52466		9.590253	-0.992173	-1.976347	-0.245014	-0.046627	0.106580	-0.861816	0.286377	-0.383301	0.631415	-0.188844	-0.739444	-0.137387
52467		9.567594	-0.707765	-1.927618	-0.120718	-0.039586	0.075665	-0.871094	0.276367	-0.383057	0.630917	-0.190688	-0.739320	-0.137800
52468		9.624694	-0.532289	-1.742820	-0.076454	-0.028822	0.058407	-0.865723	0.289062	-0.382080	0.630590	-0.191960	-0.739243	-0.137938
52469		9.675811	-0.588880	-1.703682	-0.061178	-0.029596	0.046083	-0.878906	0.284180	-0.383301	0.630272	-0.193031	-0.739215	-0.138045
52470		9.659766	-0.608310	-1.690564	-0.053117	-0.017717	0.028347	-0.866211	0.284912	-0.370117	0.630049	-0.193826	-0.739162	-0.138233
52471		9.655807	-0.704479	-1.778479	-0.044693	-0.018085	0.009741	-0.865479	0.279785	-0.375244	0.629796	-0.194409	-0.739171	-0.138524
52472		9.642937	-0.626696	-1.635167	0.019369	-0.020603	-0.011567	-0.870850	0.295166	-0.376953	0.629651	-0.194266	-0.739365	-0.138347
52473		9.707705	-0.333946	-1.528673	0.023380	-0.027110	-0.018745	-0.870117	0.278076	-0.378662	0.629441	-0.194076	-0.739621	-0.138199
52474		9.711099	-0.229854	-1.601795	-0.044711	-0.022281	-0.012276	-0.873779	0.283447	-0.374512	0.629128	-0.194420	-0.739722	-0.138601
52475		9.701459	-0.480283	-1.733264	-0.066520	-0.023000	-0.009755	-0.866211	0.284668	-0.374023	0.628751	-0.194982	-0.739781	-0.139210
52476		9.633989	-0.403345	-1.691696	-0.025082	-0.019644	-0.011374	-0.861328	0.281982	-0.366455	0.628508	-0.195200	-0.739885	-0.139448
52477		9.710545	-0.356869	-1.601690	-0.036230	-0.011548	-0.011464	-0.866455	0.288330	-0.373535	0.628303	-0.195497	-0.739908	-0.139828
52478		9.684157	-0.301188	-1.580608	-0.034217	-0.019346	-0.007159	-0.876221	0.287598	-0.374512	0.628049	-0.195833	-0.739980	-0.140121
52479		9.656679	-0.290598	-1.735622	-0.067377	-0.019220	0.003277	-0.876709	0.289795	-0.372070	0.627729	-0.196516	-0.739971	-0.140641
52480		9.625894	-0.362435	-1.830523	-0.063508	-0.014694	0.004700	-0.872070	0.283936	-0.369873	0.627460	-0.197182	-0.739929	-0.141134
52481		9.612611	-0.509349	-1.757824	-0.036963	-0.013066	0.001930	-0.876221	0.285156	-0.364746	0.627266	-0.197594	-0.739933	-0.141396
52482		9.561765	-0.559579	-1.793988	-0.010275	-0.017988	-0.003596	-0.863281	0.293457	-0.372070	0.627071	-0.197767	-0.740038	-0.141467
52483		9.623062	-0.561972	-1.775260	0.024725	-0.018227	-0.015283	-0.874512	0.287598	-0.365967	0.626964	-0.197566	-0.740220	-0.141270
52484		9.629559	-0.556354	-1.772444	0.037414	-0.016003	-0.025221	-0.874023	0.289062	-0.366699	0.626872	-0.197164	-0.740444	-0.141067
52485		9.679740	-0.695903	-1.824760	0.081591	-0.008928	-0.043888	-0.864502	0.287354	-0.373291	0.626923	-0.196235	-0.740733	-0.140616
52486		9.669667	-0.389304	-1.721174	0.121052	0.001115	-0.056347	-0.866699	0.289062	-0.368652	0.627161	-0.194849	-0.741037	-0.139880
52487		9.654175	-0.450622	-1.797366	0.102104	-0.004361	-0.055086	-0.869141	0.277100	-0.372070	0.627290	-0.193657	-0.741344	-0.139330
52488		9.581846	-0.565213	-1.823323	0.167361	-0.001737	-0.062269	-0.870117	0.277344	-0.375000	0.627592	-0.191844	-0.741770	-0.138209
52489		9.663320	-0.149598	-1.594299	0.163905	-0.002764	-0.056809	-0.875488	0.281250	-0.378662	0.627885	-0.190114	-0.742178	-0.137071
52490		9.669788	-0.144807	-1.574184	0.084758	-0.023678	-0.039097	-0.877441	0.272461	-0.375488	0.627826	-0.189218	-0.742565	-0.136485
52491		9.702666	-0.198719	-1.618989	0.044874	0.012991	-0.031033	-0.876465	0.274414	-0.371826	0.628018	-0.188633	-0.742586	-0.136298
52492		9.687209	-0.548911	-1.750904	0.060279	0.012120	-0.037281	-0.875244	0.267578	-0.373535	0.628219	-0.187890	-0.742651	-0.136041
52493		9.682660	-0.212897	-1.654106	0.125616	0.009434	-0.042069	-0.877686	0.276367	-0.371826	0.628544	-0.186574	-0.742864	-0.135190
52494		9.687318	-0.029014	-1.544303	0.033352	0.005798	-0.026351	-0.877441	0.275146	-0.378174	0.628636	-0.186174	-0.742903	-0.135100
52495		9.678079	-0.430690	-1.694386	0.005538	0.003716	-0.017263	-0.878174	0.272461	-0.379883	0.628672	-0.186064	-0.742888	-0.135163
52496		9.637581	-0.419490	-1.754155	0.062012	0.013932	-0.022155	-0.874023	0.271484	-0.377686	0.628930	-0.185437	-0.742901	-0.134752
52497		9.632819	-0.347147	-1.681732	0.088814	0.008661	-0.027531	-0.883057	0.275635	-0.377930	0.629188	-0.184564	-0.743012	-0.134130
52498		9.672898	-0.102318	-1.545609	0.038161	0.008307	-0.018817	-0.874756	0.275146	-0.380615	0.629331	-0.184189	-0.743020	-0.133934
52499		9.689946	-0.284191	-1.611925	-0.016489	-0.000817	-0.012043	-0.869385	0.270264	-0.381104	0.629286	-0.184317	-0.742987	-0.134151
52500		9.693443	-0.464016	-1.754351	0.007805	0.000140	-0.015635	-0.869141	0.274414	-0.379639	0.629307	-0.184203	-0.742997	-0.134154
52501		9.639770	-0.398854	-1.733281	0.051798	0.005283	-0.021993	-0.872803	0.268799	-0.373047	0.629462	-0.183693	-0.743052	-0.133825
52502		9.656867	-0.233180	-1.588606	0.051468	0.005122	-0.022774	-0.863770	0.266357	-0.374756	0.629595	-0.183179	-0.743118	-0.133534
52503		9.671113	-0.221152	-1.591216	0.005490	0.001732	-0.013549	-0.877930	0.272461	-0.375244	0.629617	-0.183111	-0.743110	-0.133569
52504		9.675258	-0.375638	-1.668952	-0.007458	-0.001335	-0.014265	-0.884766	0.268311	-0.374268	0.629568	-0.183162	-0.743106	-0.133752
52505		9.627165	-0.386668	-1.759378	0.020328	0.003409	-0.017158	-0.873779	0.266113	-0.382568	0.629614	-0.182946	-0.743126	-0.133715
52506		9.654324	-0.402203	-1.646555	0.053754	0.002917	-0.021387	-0.878662	0.257812	-0.386230	0.629754	-0.182405	-0.743208	-0.133342
52507		9.677019	-0.294729	-1.621896	0.054860	-0.006613	-0.022399	-0.874023	0.265137	-0.378174	0.629810	-0.181827	-0.743378	-0.132920
52508		9.655660	-0.340983	-1.668721	0.029541	0.001938	-0.024503	-0.869385	0.265381	-0.372314	0.629868	-0.181463	-0.743436	-0.132820
52509		9.668686	-0.395694	-1.658687	0.040912	0.000535	-0.028937	-0.877930	0.266113	-0.381104	0.629921	-0.180990	-0.743533	-0.132671
52510		9.670849	-0.275159	-1.660873	0.046010	-0.002186	-0.030995	-0.874756	0.264893	-0.384033	0.629969	-0.180444	-0.743663	-0.132457
52511		9.656744	-0.303071	-1.692087	0.031901	-0.002220	-0.029432	-0.866699	0.271240	-0.377686	0.629996	-0.180017	-0.743763	-0.132344
52512		9.657348	-0.259994	-1.678136	0.038933	-0.003480	-0.028285	-0.873047	0.256348	-0.383057	0.630021	-0.179589	-0.743873	-0.132190
52513		9.671281	-0.246763	-1.682603	0.044869	-0.005282	-0.022768	-0.880371	0.260254	-0.389893	0.630059	-0.179105	-0.744011	-0.131886
52514		9.650891	-0.206673	-1.646242	0.038245	-0.002902	-0.018586	-0.866699	0.257812	-0.381836	0.630120	-0.178709	-0.744105	-0.131604
52515		9.684376	-0.266700	-1.644219	0.030060	-0.010605	-0.013686	-0.875732	0.257080	-0.386719	0.630092	-0.178450	-0.744234	-0.131362
52516		9.643122	-0.230283	-1.691318	0.033690	-0.013401	-0.008921	-0.875000	0.270508	-0.383789	0.630058	-0.178197	-0.744382	-0.131029
52517		9.691131	-0.201409	-1.623971	0.029594	-0.012064	-0.004153	-0.876465	0.258545	-0.385254	0.630026	-0.178074	-0.744489	-0.130742
52518		9.655736	-0.245663	-1.629887	0.018462	-0.003644	0.001651	-0.874512	0.263672	-0.382812	0.630062	-0.178034	-0.744510	-0.130502
52519		9.669293	-0.261661	-1.639132	0.006050	0.000431	0.006462	-0.886230	0.260986	-0.379395	0.630110	-0.178154	-0.744464	-0.130369
52520		9.661118	-0.355845	-1.683478	0.004855	-0.006224	0.007322	-0.875244	0.262207	-0.382324	0.630077	-0.178299	-0.744478	-0.130251
52521		9.640067	-0.349496	-1.666297	0.013301	-0.009988	0.005522	-0.878662	0.259521	-0.385254	0.630042	-0.178363	-0.744530	-0.130034
52522		9.646575	-0.324227	-1.628976	0.013907	-0.019978	0.009158	-0.876953	0.255371	-0.382080	0.629925	-0.178455	-0.744657	-0.129744
52523		9.631622	-0.323438	-1.652085	0.025049	-0.035875	0.009599	-0.873535	0.263428	-0.381104	0.629682	-0.178480	-0.744932	-0.129312
52524		9.638353	-0.208271	-1.704985	0.030919	-0.049299	0.017461	-0.874268	0.261963	-0.377930	0.629340	-0.178584	-0.745294	-0.128749
52525		9.650344	-0.193889	-1.740149	0.035803	-0.043821	0.029126	-0.884277	0.266357	-0.377441	0.629073	-0.178749	-0.745597	-0.128069
52526		9.683474	-0.182155	-1.720969	0.037603	-0.030265	0.041895	-0.875000	0.260498	-0.377197	0.628947	-0.179008	-0.745769	-0.127321
52527		9.660943	-0.236826	-1.700680	0.023142	-0.013629	0.052721	-0.869629	0.261230	-0.375244	0.628971	-0.179433	-0.745764	-0.126635
52528		9.653214	-0.243133	-1.685317	0.011131	-0.018091	0.061500	-0.875488	0.259277	-0.385010	0.628939	-0.180045	-0.745753	-0.125984
52529		9.643266	-0.342662	-1.736999	0.003537	-0.021103	0.069102	-0.875977	0.270020	-0.375244	0.628894	-0.180753	-0.745737	-0.125288
52530		9.647663	-0.409690	-1.757651	0.011557	-0.013643	0.072856	-0.882324	0.268555	-0.383057	0.628916	-0.181479	-0.745662	-0.124573
52531		9.673569	-0.453055	-1.719890	0.014638	-0.010997	0.068178	-0.880859	0.270020	-0.378418	0.628976	-0.182098	-0.745584	-0.123832
52532		9.678923	-0.493199	-1.703599	0.003813	-0.002320	0.058575	-0.873779	0.269531	-0.370361	0.629067	-0.182711	-0.745444	-0.123308
52533		9.647898	-0.613089	-1.731518	-0.004516	0.011486	0.046904	-0.870605	0.270264	-0.382568	0.629235	-0.183274	-0.745213	-0.123012
52534		9.655586	-0.588224	-1.721492	0.008503	0.008657	0.035317	-0.873291	0.269043	-0.381104	0.629422	-0.183599	-0.745041	-0.122614
52535		9.656238	-0.574355	-1.668750	0.009938	0.006075	0.025674	-0.872070	0.272217	-0.379150	0.629566	-0.183822	-0.744919	-0.122280
52536		9.669573	-0.587391	-1.709568	0.015416	0.002128	0.014606	-0.872314	0.286865	-0.375244	0.629663	-0.183920	-0.744860	-0.121988
52537		9.619815	-0.629726	-1.729697	0.021538	-0.004680	0.005747	-0.874512	0.277588	-0.371582	0.629686	-0.183963	-0.744869	-0.121748
52538		9.650750	-0.519049	-1.687986	0.018994	0.003186	0.002383	-0.868164	0.278320	-0.375488	0.629761	-0.183955	-0.744837	-0.121574
52539		9.653230	-0.437470	-1.692395	0.007773	0.002963	0.001881	-0.870361	0.285645	-0.382568	0.629822	-0.184026	-0.744782	-0.121483
52540		9.637280	-0.509874	-1.662290	-0.005931	-0.008558	0.006107	-0.879639	0.277100	-0.373291	0.629765	-0.184270	-0.744776	-0.121447
52541		9.650701	-0.495655	-1.776427	-0.008946	-0.008602	0.006903	-0.874512	0.273438	-0.376465	0.629672	-0.184532	-0.744787	-0.121465
52542		9.648386	-0.563699	-1.735440	0.008029	-0.011419	0.007026	-0.875488	0.274902	-0.377686	0.629606	-0.184641	-0.744845	-0.121285
52543		9.636201	-0.498414	-1.705899	0.003818	-0.006756	0.004999	-0.880615	0.279785	-0.379395	0.629573	-0.184759	-0.744863	-0.121166
52544		9.648933	-0.519658	-1.729429	-0.005571	-0.009042	0.003666	-0.875244	0.273438	-0.378906	0.629494	-0.184954	-0.744884	-0.121150
52545		9.647621	-0.545295	-1.765830	-0.005430	-0.008138	0.001515	-0.875488	0.270020	-0.380615	0.629426	-0.185101	-0.744908	-0.121128
52546		9.625435	-0.581695	-1.730520	0.004883	-0.016974	0.000850	-0.870361	0.285156	-0.376709	0.629304	-0.185155	-0.745023	-0.120976
52547		9.634893	-0.473839	-1.728277	0.016124	-0.015461	0.001077	-0.869141	0.274414	-0.376953	0.629216	-0.185191	-0.745121	-0.120772
52548		9.654596	-0.487150	-1.734191	-0.001683	-0.012595	0.004656	-0.870117	0.279053	-0.372559	0.629123	-0.185352	-0.745175	-0.120681
52549		9.644292	-0.578753	-1.750890	-0.006656	-0.012151	0.005228	-0.875488	0.279297	-0.377686	0.629011	-0.185584	-0.745214	-0.120666
52550		9.636569	-0.578352	-1.777387	0.001517	-0.017845	0.001007	-0.874512	0.281738	-0.376953	0.628868	-0.185705	-0.745320	-0.120572
52551		9.636427	-0.564128	-1.771908	0.012378	-0.011000	-0.002069	-0.873047	0.281494	-0.377441	0.628808	-0.185712	-0.745392	-0.120424
52552		9.651632	-0.512016	-1.751142	0.011186	-0.005650	-0.005025	-0.875244	0.278076	-0.374023	0.628795	-0.185690	-0.745426	-0.120316
52553		9.642982	-0.571042	-1.719092	0.008061	-0.005981	-0.005553	-0.873535	0.271240	-0.373779	0.628760	-0.185683	-0.745468	-0.120252
52554		9.658455	-0.505894	-1.718707	0.006389	-0.009824	-0.004078	-0.881592	0.281982	-0.373047	0.628689	-0.185680	-0.745542	-0.120163
52555		9.641685	-0.578392	-1.793688	-0.002215	-0.003993	-0.005440	-0.868164	0.283447	-0.374023	0.628640	-0.185768	-0.745553	-0.120221
52556		9.635004	-0.577727	-1.770747	0.019289	0.002991	-0.008262	-0.867676	0.279785	-0.377441	0.628718	-0.185657	-0.745534	-0.120098
52557		9.649733	-0.553470	-1.765171	0.024363	0.000229	-0.010327	-0.875488	0.283203	-0.374756	0.628789	-0.185467	-0.745552	-0.119910
52558		9.645994	-0.445982	-1.743671	-0.000272	-0.009064	-0.010979	-0.878418	0.284424	-0.377686	0.628698	-0.185500	-0.745611	-0.119970
52559		9.647515	-0.611455	-1.815050	-0.007434	0.001351	-0.013397	-0.876221	0.271973	-0.377930	0.628690	-0.185547	-0.745580	-0.120130
52560		9.632260	-0.662854	-1.821452	0.014175	-0.005364	-0.020689	-0.871826	0.285400	-0.375977	0.628664	-0.185312	-0.745667	-0.120092
52561		9.617807	-0.451630	-1.739415	0.033419	-0.015610	-0.024835	-0.875244	0.271240	-0.375732	0.628577	-0.184969	-0.745852	-0.119926
52562		9.669389	-0.320173	-1.716170	-0.021154	-0.014732	-0.011538	-0.871826	0.279297	-0.369629	0.628390	-0.185119	-0.745939	-0.120133
52563		9.610501	-0.633812	-1.890572	-0.020238	-0.013775	-0.007332	-0.869385	0.275391	-0.379150	0.628208	-0.185351	-0.746000	-0.120350
52564		9.631093	-0.636394	-1.853840	0.025102	-0.007521	-0.012441	-0.871582	0.273193	-0.378174	0.628212	-0.185124	-0.746088	-0.120130
52565		9.630726	-0.400925	-1.783557	0.017068	-0.012973	-0.013208	-0.879883	0.278564	-0.372803	0.628141	-0.184955	-0.746214	-0.119980
52566		9.658875	-0.396395	-1.682928	-0.042230	-0.013798	-0.006152	-0.872070	0.275879	-0.365479	0.627912	-0.185356	-0.746243	-0.120381
52567		9.632572	-0.541852	-1.810253	-0.061447	-0.011651	0.001069	-0.871338	0.286865	-0.369629	0.627658	-0.185980	-0.746213	-0.120928
52568		9.611609	-0.520542	-1.843544	-0.044158	-0.006750	0.002341	-0.876953	0.275635	-0.374023	0.627505	-0.186503	-0.746148	-0.121317
52569		9.632216	-0.537076	-1.785613	-0.032439	-0.002806	0.004247	-0.878174	0.275146	-0.373291	0.627428	-0.186878	-0.746083	-0.121536
52570		9.646610	-0.517773	-1.764951	-0.004775	-0.001575	0.003771	-0.866699	0.283447	-0.371826	0.627424	-0.187025	-0.746054	-0.121505
52571		9.674169	-0.523226	-1.749052	-0.005015	-0.000805	0.007546	-0.868408	0.285645	-0.368408	0.627440	-0.187252	-0.745991	-0.121465
52572		9.615638	-0.607820	-1.847370	-0.001158	0.002457	0.005740	-0.874756	0.279785	-0.374023	0.627480	-0.187444	-0.745913	-0.121437
52573		9.608287	-0.609815	-1.898473	0.026880	0.003816	-0.000661	-0.869385	0.281250	-0.370850	0.627599	-0.187308	-0.745893	-0.121159
52574		9.619252	-0.521749	-1.761908	0.039910	0.009452	-0.003954	-0.866455	0.283203	-0.363281	0.627791	-0.187048	-0.745851	-0.120816
52575		9.612551	-0.528772	-1.749901	0.029870	0.001295	-0.000939	-0.871094	0.290771	-0.377441	0.627868	-0.186943	-0.745853	-0.120572
52576		9.613846	-0.483671	-1.739671	0.036758	-0.002812	0.002714	-0.871094	0.285889	-0.370850	0.627962	-0.186816	-0.745869	-0.120176
52577		9.667961	-0.528866	-1.736956	0.026281	0.003808	0.005816	-0.869385	0.287109	-0.380127	0.628079	-0.186789	-0.745823	-0.119893
52578		9.644412	-0.619637	-1.794706	0.023757	0.004174	0.002026	-0.868408	0.278809	-0.376953	0.628215	-0.186725	-0.745769	-0.119616
52579		9.617723	-0.588173	-1.792582	0.042117	-0.001784	-0.000709	-0.875732	0.284424	-0.371582	0.628327	-0.186472	-0.745810	-0.119168
52580		9.649763	-0.439045	-1.738379	0.026453	-0.005374	0.000425	-0.873535	0.275879	-0.372070	0.628345	-0.186398	-0.745855	-0.118906
52581		9.654545	-0.507954	-1.747758	-0.007122	-0.003174	0.006530	-0.877441	0.284668	-0.371338	0.628318	-0.186602	-0.745830	-0.118885
52582		9.617272	-0.570993	-1.819743	-0.004411	-0.009471	0.007616	-0.875977	0.282227	-0.373535	0.628234	-0.186844	-0.745846	-0.118849
52583		9.611259	-0.528180	-1.817560	-0.008723	-0.001213	0.006811	-0.873047	0.279053	-0.372803	0.628225	-0.187080	-0.745794	-0.118855
52584		9.638315	-0.570998	-1.740814	-0.016514	-0.004152	0.008313	-0.876221	0.278076	-0.376465	0.628174	-0.187381	-0.745754	-0.118903
52585		9.623436	-0.591743	-1.763437	-0.026470	-0.003926	0.009612	-0.875488	0.279297	-0.371582	0.628111	-0.187752	-0.745695	-0.119012
52586		9.615724	-0.600543	-1.784208	-0.027077	-0.007911	0.006846	-0.875977	0.280518	-0.364990	0.627993	-0.188125	-0.745676	-0.119167
52587		9.615296	-0.594021	-1.818622	-0.019932	-0.000157	0.006085	-0.875000	0.277588	-0.379395	0.627943	-0.188444	-0.745614	-0.119316
52588		9.642844	-0.614882	-1.765637	-0.016332	0.000624	0.005360	-0.875244	0.291992	-0.377686	0.627953	-0.188668	-0.745544	-0.119344
52589		9.614658	-0.635897	-1.742229	-0.010396	-0.008340	0.002253	-0.866699	0.283691	-0.369629	0.627882	-0.188900	-0.745541	-0.119373
52590		9.610821	-0.508828	-1.746755	-0.019238	-0.013124	0.001698	-0.883057	0.285645	-0.375488	0.627732	-0.189189	-0.745576	-0.119485
52591		9.599252	-0.630038	-1.810270	-0.019212	-0.009867	0.004385	-0.875977	0.293457	-0.368896	0.627616	-0.189480	-0.745586	-0.119572
52592		9.632851	-0.643057	-1.815964	-0.005111	-0.011813	0.003099	-0.879150	0.295166	-0.365723	0.627502	-0.189708	-0.745622	-0.119584
52593		9.593283	-0.566986	-1.790904	0.007593	-0.014478	0.002070	-0.872070	0.286377	-0.373047	0.627379	-0.189845	-0.745703	-0.119504
52594		9.592053	-0.595144	-1.782185	0.005779	-0.009807	0.005734	-0.874756	0.285400	-0.372803	0.627333	-0.189960	-0.745739	-0.119341
52595		9.639370	-0.606145	-1.804166	0.002075	-0.010226	0.004998	-0.870361	0.284912	-0.371094	0.627270	-0.190091	-0.745778	-0.119217
52596		9.615696	-0.672433	-1.860026	-0.000632	-0.003925	0.003928	-0.875732	0.286621	-0.367676	0.627259	-0.190226	-0.745765	-0.119142
52597		9.601305	-0.690419	-1.852850	0.015599	-0.002909	-0.003175	-0.872070	0.290771	-0.367920	0.627268	-0.190181	-0.745791	-0.119005
52598		9.604901	-0.604980	-1.754787	0.012694	-0.005306	-0.007204	-0.869873	0.295410	-0.372559	0.627247	-0.190145	-0.745830	-0.118928
52599		9.653280	-0.586104	-1.786946	-0.011700	-0.002668	-0.005502	-0.875244	0.285645	-0.365967	0.627211	-0.190323	-0.745795	-0.119056
52600		9.620602	-0.734238	-1.842993	0.000899	-0.005649	-0.011218	-0.872070	0.286621	-0.367920	0.627143	-0.190321	-0.745842	-0.119117
52601		9.625153	-0.569692	-1.838757	0.014546	-0.007422	-0.014750	-0.865479	0.282715	-0.369385	0.627097	-0.190182	-0.745925	-0.119061
52602		9.624903	-0.588106	-1.815319	0.006631	-0.000585	-0.014673	-0.867432	0.289795	-0.372314	0.627109	-0.190075	-0.745942	-0.119064
52603		9.624486	-0.624036	-1.783209	-0.000637	0.001436	-0.015341	-0.870117	0.286621	-0.369141	0.627127	-0.190043	-0.745921	-0.119154
52604		9.610258	-0.627111	-1.824563	0.000066	0.001782	-0.017146	-0.873535	0.283203	-0.367188	0.627134	-0.189981	-0.745912	-0.119265
52605		9.614022	-0.505888	-1.799333	-0.020419	0.002141	-0.014733	-0.869385	0.297852	-0.369141	0.627090	-0.190090	-0.745875	-0.119555
52606		9.638814	-0.626398	-1.791052	-0.014964	0.004119	-0.013619	-0.875732	0.292480	-0.372803	0.627089	-0.190233	-0.745798	-0.119820
52607		9.618214	-0.604980	-1.849602	-0.014943	0.006055	-0.014017	-0.873291	0.291260	-0.371582	0.627109	-0.190328	-0.745717	-0.120062
52608		9.632396	-0.613529	-1.828552	-0.008600	0.002450	-0.017423	-0.865967	0.287354	-0.374023	0.627105	-0.190345	-0.745684	-0.120262
52609		9.641050	-0.568630	-1.807398	-0.009021	0.007164	-0.017233	-0.870361	0.289551	-0.372314	0.627162	-0.190336	-0.745610	-0.120439
52610		9.583938	-0.647336	-1.829441	-0.004655	0.003425	-0.017378	-0.880859	0.286621	-0.362305	0.627182	-0.190312	-0.745575	-0.120592
52611		9.613206	-0.609118	-1.798636	0.005882	0.002632	-0.021691	-0.866699	0.285645	-0.358887	0.627169	-0.190180	-0.745595	-0.120743
52612		9.641274	-0.616925	-1.777748	-0.002889	0.004284	-0.023565	-0.871094	0.282471	-0.376709	0.627154	-0.190109	-0.745585	-0.120993
52613		9.610108	-0.760684	-1.832140	0.008004	0.001702	-0.033409	-0.869141	0.284912	-0.374023	0.627178	-0.189793	-0.745628	-0.121103
52614		9.626775	-0.652455	-1.844322	0.035703	0.003597	-0.040751	-0.873291	0.279053	-0.367676	0.627267	-0.189213	-0.745710	-0.121040
52615		9.638595	-0.484788	-1.769444	0.042273	-0.003301	-0.044052	-0.874023	0.279297	-0.365723	0.627277	-0.188556	-0.745882	-0.120954
52616		9.646830	-0.441014	-1.761493	0.003313	0.005863	-0.037531	-0.864990	0.282227	-0.373779	0.627282	-0.188265	-0.745908	-0.121220
52617		9.628670	-0.637271	-1.866188	0.008100	0.011360	-0.038759	-0.870361	0.280029	-0.370117	0.627385	-0.187915	-0.745878	-0.121417
52618		9.641036	-0.416108	-1.812662	0.029596	0.008469	-0.034828	-0.870850	0.285156	-0.366699	0.627497	-0.187439	-0.745906	-0.121401
52619		9.669532	-0.450599	-1.733087	0.007927	0.007287	-0.029244	-0.875488	0.280029	-0.370850	0.627542	-0.187230	-0.745891	-0.121586
52620		9.632947	-0.565163	-1.791230	0.001665	0.006612	-0.026936	-0.868652	0.282959	-0.377441	0.627577	-0.187055	-0.745874	-0.121776
52621		9.605556	-0.556734	-1.834908	0.017891	0.007135	-0.030552	-0.878174	0.279785	-0.360840	0.627680	-0.186717	-0.745867	-0.121807
52622		9.642720	-0.491728	-1.745701	0.023464	0.009411	-0.031457	-0.877441	0.276855	-0.365723	0.627747	-0.186361	-0.745884	-0.121904
52623		9.650740	-0.477013	-1.724213	0.001691	0.010483	-0.027743	-0.876709	0.281006	-0.372314	0.627796	-0.186182	-0.745849	-0.122142
52624		9.650785	-0.487059	-1.760267	-0.003778	0.005919	-0.024976	-0.872559	0.279053	-0.371826	0.627815	-0.186083	-0.745819	-0.122374
52625		9.637806	-0.453933	-1.770124	0.002132	0.007742	-0.024973	-0.876953	0.274902	-0.372314	0.627869	-0.185930	-0.745783	-0.122548
52626		9.638028	-0.471730	-1.773418	0.001186	0.005554	-0.022210	-0.874512	0.282715	-0.367432	0.627900	-0.185790	-0.745768	-0.122695
52627		9.624481	-0.489864	-1.776355	-0.009355	0.010148	-0.018710	-0.871826	0.271729	-0.372070	0.627940	-0.185819	-0.745680	-0.122978
52628		9.609947	-0.587460	-1.790149	0.006044	0.005553	-0.020905	-0.877686	0.278564	-0.378662	0.627990	-0.185641	-0.745670	-0.123055
52629		9.632053	-0.536773	-1.756084	0.031079	0.005157	-0.026108	-0.874268	0.282471	-0.370605	0.628099	-0.185236	-0.745699	-0.122933
52630		9.653975	-0.503303	-1.714528	0.024619	0.002574	-0.029549	-0.868164	0.273193	-0.379150	0.628139	-0.184906	-0.745743	-0.122955
52631		9.626220	-0.561274	-1.715420	0.022675	0.001731	-0.032859	-0.868652	0.276611	-0.370117	0.628200	-0.184490	-0.745800	-0.122929
52632		9.626771	-0.475210	-1.779389	0.020856	-0.001432	-0.037654	-0.876709	0.273438	-0.378662	0.628186	-0.184101	-0.745892	-0.123022
52633		9.641121	-0.461146	-1.767093	0.011151	-0.002075	-0.040131	-0.870850	0.274658	-0.372070	0.628160	-0.183723	-0.745982	-0.123174
52634		9.641498	-0.491427	-1.735463	0.012650	-0.003625	-0.038524	-0.871338	0.281738	-0.374512	0.628109	-0.183384	-0.746081	-0.123335
52635		9.642222	-0.421277	-1.718344	0.011967	-0.008514	-0.039130	-0.875000	0.276367	-0.368652	0.628017	-0.183090	-0.746202	-0.123511
52636		9.627685	-0.484763	-1.763895	0.007329	-0.008588	-0.037640	-0.870361	0.270020	-0.375000	0.627893	-0.182836	-0.746331	-0.123740
52637		9.648543	-0.461123	-1.779330	0.026561	-0.002026	-0.039923	-0.876465	0.279297	-0.376709	0.627900	-0.182349	-0.746441	-0.123756
52638		9.642116	-0.408503	-1.776350	0.024023	-0.003587	-0.039961	-0.879883	0.270020	-0.375000	0.627882	-0.181936	-0.746545	-0.123829
52639		9.656344	-0.329829	-1.763144	0.010575	-0.006622	-0.036060	-0.886230	0.265137	-0.376465	0.627803	-0.181625	-0.746664	-0.123974
52640		9.622128	-0.381573	-1.730461	-0.004741	-0.005698	-0.031727	-0.871582	0.270752	-0.376953	0.627701	-0.181443	-0.746753	-0.124213
52641		9.642160	-0.445524	-1.798824	-0.001483	-0.007628	-0.032690	-0.875732	0.268799	-0.384033	0.627609	-0.181267	-0.746839	-0.124425
52642		9.649305	-0.400695	-1.764988	0.004779	-0.013308	-0.030298	-0.874023	0.271973	-0.374023	0.627500	-0.181042	-0.746971	-0.124506
52643		9.662986	-0.384605	-1.771054	0.001031	-0.003437	-0.029846	-0.879150	0.269287	-0.367676	0.627445	-0.180886	-0.747021	-0.124707
52644		9.635520	-0.415560	-1.784607	0.005298	0.000371	-0.029573	-0.876221	0.263184	-0.373535	0.627408	-0.180698	-0.747065	-0.124909
52645		9.642821	-0.330049	-1.751478	0.008326	-0.002104	-0.029843	-0.883545	0.267578	-0.372559	0.627379	-0.180439	-0.747133	-0.125021
52646		9.629403	-0.373728	-1.744884	-0.006176	-0.002511	-0.025574	-0.876953	0.265869	-0.366455	0.627306	-0.180362	-0.747171	-0.125267
52647		9.650277	-0.449374	-1.763295	0.004872	-0.009101	-0.026430	-0.880127	0.257324	-0.377930	0.627184	-0.180214	-0.747284	-0.125422
52648		9.656801	-0.332253	-1.731891	0.018120	-0.014294	-0.028027	-0.878174	0.254639	-0.378174	0.627078	-0.179872	-0.747465	-0.125361
52649		9.656236	-0.313892	-1.754945	-0.009983	-0.007136	-0.023471	-0.875000	0.262695	-0.371826	0.626988	-0.179768	-0.747537	-0.125529
52650		9.642466	-0.475865	-1.847525	-0.007115	0.001074	-0.027375	-0.878418	0.266113	-0.373047	0.626957	-0.179662	-0.747546	-0.125783
52651		9.635919	-0.379206	-1.789074	0.012403	-0.003339	-0.031294	-0.874023	0.264648	-0.378906	0.626921	-0.179389	-0.747624	-0.125886
52652		9.649966	-0.337702	-1.759815	0.006710	-0.002714	-0.029033	-0.885986	0.265869	-0.372070	0.626908	-0.179159	-0.747674	-0.125984
52653		9.629275	-0.334009	-1.766738	0.004522	-0.004751	-0.028157	-0.868408	0.258545	-0.367920	0.626833	-0.178985	-0.747750	-0.126151
52654		9.622005	-0.341705	-1.800001	0.006871	-0.010160	-0.026077	-0.881592	0.264404	-0.368652	0.626727	-0.178800	-0.747868	-0.126243
52655		9.649566	-0.339186	-1.786426	0.013137	-0.012586	-0.024365	-0.882568	0.267334	-0.370117	0.626599	-0.178614	-0.748012	-0.126291
52656		9.676821	-0.324793	-1.792872	0.006926	-0.005979	-0.022207	-0.874268	0.264404	-0.366455	0.626527	-0.178501	-0.748081	-0.126400
52657		9.643274	-0.379469	-1.760187	-0.001615	-0.007814	-0.023965	-0.881836	0.261230	-0.380127	0.626415	-0.178440	-0.748155	-0.126598
52658		9.635898	-0.358599	-1.776142	0.002792	-0.007592	-0.024908	-0.884521	0.258789	-0.377197	0.626352	-0.178273	-0.748233	-0.126685
52659		9.628069	-0.270673	-1.761358	-0.011340	-0.008541	-0.023067	-0.877197	0.265381	-0.371582	0.626239	-0.178231	-0.748301	-0.126897
52660		9.641900	-0.247868	-1.726061	-0.027559	-0.010609	-0.019151	-0.882812	0.264160	-0.375000	0.626067	-0.178416	-0.748338	-0.127273
52661		9.663068	-0.329314	-1.758253	-0.027574	-0.008667	-0.019559	-0.884521	0.260254	-0.370850	0.625919	-0.178572	-0.748363	-0.127637
52662		9.621222	-0.329599	-1.773156	-0.025326	-0.013065	-0.019086	-0.878662	0.271484	-0.364990	0.625720	-0.178709	-0.748438	-0.127974
52663		9.613247	-0.269043	-1.749264	-0.024155	-0.025400	-0.017423	-0.879395	0.258789	-0.370605	0.625398	-0.178958	-0.748588	-0.128325
52664		9.605624	-0.319370	-1.784529	-0.019834	-0.029308	-0.015537	-0.885986	0.268799	-0.374268	0.625077	-0.179102	-0.748787	-0.128529
52665		9.624968	-0.297893	-1.777735	-0.005643	-0.036062	-0.012422	-0.880371	0.251953	-0.368164	0.624734	-0.179219	-0.749036	-0.128583
52666		9.616743	-0.321040	-1.797590	-0.000070	-0.036920	-0.012676	-0.880371	0.258057	-0.370605	0.624387	-0.179208	-0.749335	-0.128542
52667		9.649042	-0.327547	-1.855101	0.007465	-0.035648	-0.016608	-0.885986	0.250732	-0.363525	0.624074	-0.179128	-0.749627	-0.128470
52668		9.621278	-0.363244	-1.830272	0.013095	-0.030430	-0.020103	-0.885254	0.264648	-0.362549	0.623788	-0.178937	-0.749923	-0.128395
52669		9.612878	-0.312860	-1.805601	0.021303	-0.037432	-0.022079	-0.882568	0.261475	-0.369141	0.623449	-0.178761	-0.750263	-0.128299
52670		9.610762	-0.324830	-1.852953	0.018601	-0.042157	-0.024228	-0.881592	0.265137	-0.366211	0.623087	-0.178557	-0.750633	-0.128182
52671		9.601098	-0.296479	-1.881693	0.029121	-0.049378	-0.021869	-0.882568	0.261230	-0.374512	0.622678	-0.178337	-0.751063	-0.127958
52672		9.646547	-0.131013	-1.792587	0.031795	-0.051950	-0.009509	-0.884766	0.255615	-0.358887	0.622302	-0.178169	-0.751484	-0.127548
52673		9.620757	0.004248	-1.812067	-0.013676	-0.057221	0.006205	-0.878418	0.254150	-0.365479	0.621747	-0.178521	-0.751870	-0.127488
52674		9.654001	-0.087767	-1.839369	-0.051701	-0.055401	0.020125	-0.885742	0.253418	-0.360352	0.621183	-0.179266	-0.752135	-0.127628
52675		9.622309	-0.169356	-1.954276	-0.058062	-0.055748	0.037794	-0.875977	0.263916	-0.362305	0.620607	-0.180222	-0.752368	-0.127709
52676		9.590956	-0.151422	-1.979053	-0.042497	-0.057792	0.053156	-0.885986	0.254395	-0.354248	0.620095	-0.181253	-0.752573	-0.127527
52677		9.560032	-0.112997	-1.970328	-0.029777	-0.062251	0.074563	-0.888672	0.264404	-0.343506	0.619568	-0.182341	-0.752825	-0.127049
52678		9.617834	0.095523	-1.928174	-0.036150	-0.063442	0.107813	-0.880371	0.269043	-0.347656	0.619029	-0.183867	-0.752998	-0.126451
52679		9.616410	0.015511	-1.919465	-0.079716	-0.058169	0.133697	-0.881104	0.274170	-0.339844	0.618510	-0.185962	-0.752979	-0.126044
52680		9.564927	-0.306605	-1.993834	-0.113737	-0.055216	0.149767	-0.881836	0.275635	-0.352539	0.617938	-0.188491	-0.752847	-0.125877
52681		9.529274	-0.607765	-1.944139	-0.082296	-0.056789	0.147036	-0.880859	0.281738	-0.345459	0.617469	-0.190688	-0.752767	-0.125346
52682		9.543557	-0.531885	-1.810809	-0.079996	-0.068124	0.138800	-0.884033	0.293945	-0.348145	0.616864	-0.192836	-0.752797	-0.124862
52683		9.574184	-0.463129	-1.805180	-0.144503	-0.086863	0.131957	-0.881836	0.285400	-0.345215	0.615924	-0.195476	-0.752863	-0.125000
52684		9.517232	-0.819201	-2.003024	-0.261900	-0.103713	0.111496	-0.874023	0.293457	-0.336670	0.614503	-0.198776	-0.752941	-0.126310
52685		9.508552	-1.345302	-2.113711	-0.218417	-0.110896	0.061633	-0.881104	0.297119	-0.336914	0.613031	-0.201319	-0.753247	-0.127600
52686		9.433338	-0.908026	-2.060206	-0.188222	-0.135250	0.011277	-0.881836	0.301270	-0.327148	0.611327	-0.203177	-0.753910	-0.128911
52687		9.530866	-0.720576	-2.107472	-0.236709	-0.152622	-0.012786	-0.880371	0.298096	-0.328857	0.609271	-0.205233	-0.754683	-0.130851
52688		9.409385	-0.764290	-2.066493	-0.296765	-0.162120	-0.034071	-0.884766	0.306641	-0.322021	0.606957	-0.207508	-0.755472	-0.133437
52689		9.551891	-0.666314	-2.036262	-0.317835	-0.163275	-0.049292	-0.874512	0.303467	-0.320312	0.604532	-0.209838	-0.756251	-0.136361
52690		9.665207	-0.523159	-2.256294	-0.301824	-0.165803	-0.058826	-0.886475	0.305176	-0.312500	0.602128	-0.211924	-0.757079	-0.139148
52691		9.622464	-0.197212	-2.622640	-0.261817	-0.138004	-0.048706	-0.885986	0.308594	-0.304688	0.600081	-0.213753	-0.757740	-0.141571
52692		9.579392	-0.231998	-2.856155	-0.255512	-0.105566	-0.038032	-0.885742	0.302490	-0.296631	0.598361	-0.215599	-0.758127	-0.143959
52693		9.609840	-0.527388	-2.849530	-0.158644	-0.068724	-0.044435	-0.891113	0.303223	-0.302734	0.597222	-0.216564	-0.758442	-0.145574
52694		9.496733	-0.828072	-2.955071	-0.098221	-0.029092	-0.072710	-0.893311	0.310303	-0.295410	0.596596	-0.216703	-0.758641	-0.146891
52695		9.535925	-0.981383	-2.731896	-0.031372	0.005126	-0.104912	-0.884033	0.310547	-0.298828	0.596391	-0.216039	-0.758784	-0.147956
52696		9.597148	-0.642884	-2.582901	0.021874	0.026465	-0.133452	-0.883545	0.303467	-0.303711	0.596505	-0.214673	-0.758925	-0.148761
52697		9.582564	-0.504572	-2.436002	0.117476	0.028785	-0.145784	-0.887695	0.306152	-0.303223	0.596889	-0.212435	-0.759261	-0.148721
52698		9.517206	-0.006826	-2.338843	0.250968	0.033283	-0.153565	-0.889893	0.281250	-0.299072	0.597639	-0.209158	-0.759816	-0.147511
52699		9.573453	0.139434	-2.416081	0.257398	0.041171	-0.131384	-0.894287	0.285156	-0.301025	0.598484	-0.205939	-0.760305	-0.146091
52700		9.505036	-0.337849	-2.656053	0.345629	0.051443	-0.126615	-0.893066	0.291260	-0.309814	0.599644	-0.202131	-0.760840	-0.143849
52701		9.496704	0.038067	-2.729906	0.341362	0.102713	-0.107316	-0.893555	0.281494	-0.311768	0.601327	-0.198490	-0.760888	-0.141622
52702		9.582740	0.507543	-2.399496	0.150156	0.113047	-0.063303	-0.890869	0.282715	-0.326416	0.602691	-0.196664	-0.760415	-0.140913
52703		9.676428	0.471490	-2.218025	-0.047302	0.134953	-0.011926	-0.898682	0.274658	-0.323730	0.603911	-0.196759	-0.759275	-0.141696
52704		9.530719	0.130409	-2.575184	-0.215461	0.149033	0.039048	-0.891602	0.275635	-0.322266	0.604904	-0.198549	-0.757632	-0.143749
52705		9.491578	-0.349855	-2.506733	-0.160723	0.175854	0.047974	-0.893066	0.277588	-0.319092	0.606290	-0.199964	-0.755856	-0.145289
52706		9.668371	-0.204004	-2.268911	-0.050278	0.198754	0.059969	-0.883057	0.288330	-0.327881	0.608156	-0.200629	-0.754083	-0.145786
52707		9.651585	-0.028948	-2.438409	-0.026940	0.196496	0.076028	-0.879883	0.289307	-0.328613	0.610115	-0.201305	-0.752293	-0.145914
52708		9.752688	-0.174299	-3.005484	0.043207	0.245485	0.098918	-0.878906	0.296387	-0.335205	0.612734	-0.201577	-0.750199	-0.145345
52709		9.520730	-0.144721	-3.213638	0.254728	0.308605	0.112513	-0.885010	0.282471	-0.339355	0.616491	-0.200260	-0.747949	-0.142851
52710		9.683632	-0.468385	-2.202665	0.592613	0.354362	0.105002	-0.874023	0.289062	-0.362061	0.621445	-0.196109	-0.745973	-0.137373
52711		9.990550	0.107286	-0.985833	0.881858	0.363969	0.129279	-0.876709	0.283691	-0.374756	0.627221	-0.189917	-0.744239	-0.128968
52712		10.202709	1.859460	-0.514888	0.883312	0.375600	0.239495	-0.864014	0.286377	-0.384766	0.633177	-0.184693	-0.742053	-0.119715
52713		9.897373	1.688086	-0.918428	0.521811	0.296482	0.419047	-0.863525	0.282959	-0.394043	0.637753	-0.184144	-0.739436	-0.112232
52714		9.907823	-0.491352	-1.362865	0.305982	0.303450	0.560759	-0.861572	0.295898	-0.397461	0.642033	-0.186560	-0.736093	-0.105625
52715		9.884297	-0.968740	-1.223125	0.407427	0.261166	0.568369	-0.854736	0.304443	-0.408447	0.646089	-0.188306	-0.733154	-0.097960
52716		9.838326	-0.952624	-0.660912	0.281449	0.217714	0.585152	-0.850586	0.311279	-0.410889	0.649428	-0.191255	-0.730307	-0.091194
52717		9.851614	-1.675302	-0.479943	0.145045	0.165562	0.524506	-0.840088	0.327881	-0.419678	0.651836	-0.194800	-0.727844	-0.086054
52718		9.779510	-1.233178	0.310073	-0.013017	0.227693	0.433663	-0.833008	0.331543	-0.427490	0.654321	-0.198761	-0.724866	-0.083231
52719		8.920876	-1.493858	0.161560	-0.387460	0.250489	0.307633	-0.824463	0.345215	-0.417236	0.655937	-0.204568	-0.721595	-0.084852
52720		8.049169	-2.801634	-0.493274	-0.471702	0.351434	-0.092081	-0.830078	0.342773	-0.424805	0.657752	-0.207399	-0.718399	-0.090832
52721		8.346939	-2.977530	-1.076725	-0.305943	0.459523	-0.490664	-0.831055	0.337402	-0.430176	0.660471	-0.205092	-0.715504	-0.098840
52722		9.043869	-2.806157	-1.433106	-0.476234	0.406898	-0.560910	-0.824219	0.346191	-0.438721	0.662122	-0.203615	-0.712948	-0.108813
52723		9.504185	-3.446652	-2.641612	-0.976934	0.057719	-0.097307	-0.826416	0.335205	-0.436035	0.659953	-0.210947	-0.711278	-0.118520
52724		9.728706	-2.008439	-2.775784	-0.352694	-0.210326	-0.222235	-0.826172	0.343018	-0.428223	0.656818	-0.212253	-0.713048	-0.122892
52725		10.275764	-2.478760	-1.455245	0.860937	-0.035121	-0.327959	-0.832031	0.331543	-0.435791	0.658251	-0.202423	-0.715442	-0.117789
52726		9.688634	0.168218	0.403201	1.114883	-0.027661	-0.253219	-0.833740	0.306152	-0.446045	0.660393	-0.191149	-0.717834	-0.109807
52727		9.402669	1.112776	0.866295	0.190876	-0.203644	-0.180677	-0.835449	0.303223	-0.435303	0.658786	-0.188317	-0.720171	-0.109051
52728		9.939719	-1.510976	-0.680668	-0.168707	-0.172749	-0.167975	-0.842529	0.305664	-0.430176	0.656591	-0.188560	-0.721726	-0.111555
52729		9.754853	-1.041033	-1.861163	0.043621	-0.229834	-0.218748	-0.841797	0.295410	-0.433838	0.654294	-0.186702	-0.724154	-0.112442
52730		10.301794	-1.319094	-1.976670	0.360042	-0.155117	-0.170621	-0.846191	0.291992	-0.426025	0.653505	-0.182527	-0.726276	-0.110174
52731		9.486469	-0.312044	-1.578362	0.553693	-0.099193	-0.128446	-0.846191	0.284912	-0.422363	0.653668	-0.177112	-0.728092	-0.105977
52732		9.869480	1.062774	-0.915961	0.368998	-0.131356	-0.064256	-0.851562	0.270020	-0.429443	0.653173	-0.173853	-0.729763	-0.102890
52733		9.823493	0.836122	-1.506605	-0.144641	-0.091182	0.041412	-0.842041	0.274658	-0.428467	0.652077	-0.175608	-0.730215	-0.103647
52734		9.789209	-1.294618	-1.857113	-0.150336	-0.053929	0.072255	-0.845459	0.276367	-0.424316	0.651370	-0.177660	-0.730260	-0.104279
52735		9.607995	-0.654488	-1.498538	0.205458	-0.023887	0.074975	-0.841309	0.276367	-0.420654	0.651714	-0.176790	-0.730527	-0.101712
52736		9.649111	0.251468	-1.151775	0.075722	-0.024455	0.090710	-0.853516	0.283203	-0.421631	0.651772	-0.177139	-0.730597	-0.100218
52737		9.807167	-0.185062	-1.548757	-0.110993	-0.020691	0.121875	-0.849854	0.281494	-0.420410	0.651469	-0.179314	-0.730337	-0.100217
52738		9.943935	0.903010	-1.826808	-0.083357	0.011496	0.203774	-0.842529	0.289795	-0.417236	0.651626	-0.181933	-0.729667	-0.099344
52739		9.553906	0.339189	-1.783686	-0.191828	0.007378	0.285689	-0.839111	0.301270	-0.421143	0.651591	-0.186220	-0.728690	-0.098806
52740		9.990706	-1.424871	-1.115237	-0.139012	-0.022443	0.323057	-0.838623	0.311768	-0.419678	0.651460	-0.190459	-0.727899	-0.097406
52741		9.989415	-0.812357	-0.954724	-0.051938	-0.010866	0.333567	-0.842773	0.312988	-0.412354	0.651639	-0.194079	-0.727080	-0.095161
52742		9.529432	-0.248048	-1.890395	-0.434959	0.059042	0.351027	-0.833252	0.335938	-0.421875	0.651490	-0.200853	-0.725204	-0.096429
52743		9.248763	0.037822	-2.456978	-1.292310	0.171378	0.403977	-0.831055	0.345703	-0.403564	0.650206	-0.214967	-0.721065	-0.105295
52744		9.199426	-3.475171	-1.651639	-1.494354	0.181622	0.370406	-0.827637	0.374512	-0.409424	0.648167	-0.230277	-0.716476	-0.116249
52745		9.609307	-4.669576	-0.772503	-0.626490	0.124952	0.200222	-0.818115	0.386230	-0.392090	0.647778	-0.237052	-0.713901	-0.120561
52746		9.189492	-1.801252	-1.394151	-0.181952	0.082410	0.095892	-0.820312	0.387451	-0.397949	0.648103	-0.239409	-0.712628	-0.121681
52747		8.973763	-3.130653	-2.140714	-0.121116	0.071887	0.003857	-0.820068	0.388916	-0.397949	0.648389	-0.240423	-0.711812	-0.122932
52748		9.236699	-4.147182	-1.822132	0.395915	0.079492	-0.164331	-0.823486	0.382080	-0.400146	0.650026	-0.235733	-0.712225	-0.120961
52749		9.522757	-2.565006	-1.364724	0.800715	0.081223	-0.324813	-0.817871	0.367188	-0.421631	0.652565	-0.226313	-0.713669	-0.116697
52750		9.495388	-1.398044	-1.075525	0.640158	0.073691	-0.415763	-0.825195	0.351562	-0.418457	0.654442	-0.217347	-0.715092	-0.114497
52751		9.954818	-1.320921	-1.033906	0.486432	0.086475	-0.465062	-0.832764	0.337891	-0.424561	0.655847	-0.209185	-0.716292	-0.114156
52752		10.359936	-1.585131	-0.805407	0.526756	0.070611	-0.484995	-0.835205	0.321777	-0.425537	0.657131	-0.200521	-0.717685	-0.113574
52753		10.118525	-1.226338	-0.658446	0.635698	0.091416	-0.477377	-0.828613	0.308105	-0.439453	0.658810	-0.190995	-0.718987	-0.112013
52754		9.817022	-0.829650	-0.999795	0.519860	0.108414	-0.454832	-0.829346	0.289795	-0.443604	0.660384	-0.182594	-0.719835	-0.111308
52755		9.327735	-0.476636	-1.100119	0.418236	0.145842	-0.434367	-0.839600	0.273193	-0.454834	0.662043	-0.175135	-0.720147	-0.111419
52756		9.697057	-0.513508	-1.267674	0.429694	0.143193	-0.418632	-0.839111	0.259521	-0.460693	0.663691	-0.167672	-0.720433	-0.111254
52757		9.746443	-0.706086	-1.139786	0.500468	0.176161	-0.392047	-0.840332	0.258057	-0.463623	0.665782	-0.159805	-0.720439	-0.110292
52758		9.453720	-0.231114	-0.789099	0.482707	0.150783	-0.357062	-0.846436	0.238037	-0.464600	0.667596	-0.152527	-0.720501	-0.109222
52759		9.744348	-1.804920	-0.552369	0.866356	0.090154	-0.410446	-0.849365	0.208740	-0.469971	0.669428	-0.141591	-0.721659	-0.105007
52760		9.837468	-0.842979	-0.618046	1.833988	0.088267	-0.501070	-0.841797	0.183350	-0.487061	0.672595	-0.121615	-0.724036	-0.092725
52761		9.449260	1.881761	-0.372069	1.863149	0.025773	-0.492686	-0.837402	0.152588	-0.492432	0.674905	-0.101517	-0.726501	-0.079964
52762		9.499237	3.205179	-0.770608	1.201664	-0.057416	-0.359684	-0.845947	0.125244	-0.491455	0.675477	-0.088276	-0.728532	-0.071972
52763		9.619974	4.085475	-0.890440	0.310894	-0.137203	-0.175996	-0.849365	0.119141	-0.493164	0.674384	-0.084250	-0.730168	-0.070441
52764		10.108435	3.022239	-0.860210	-0.908906	-0.143495	0.056875	-0.852539	0.135986	-0.480225	0.672113	-0.092640	-0.730469	-0.078080
52765		10.417907	-2.019212	-0.139993	-1.048250	0.039537	0.251407	-0.845459	0.150391	-0.484619	0.671400	-0.103833	-0.728774	-0.085613
52766		9.268460	-0.912187	-0.567193	-0.671183	-0.006386	0.220974	-0.848145	0.171387	-0.480225	0.670683	-0.111573	-0.727781	-0.089842
52767		9.567815	1.010646	-1.025221	-0.580949	-0.005988	0.219510	-0.849365	0.180664	-0.477051	0.670028	-0.118608	-0.726834	-0.093308
52768		9.686189	0.336152	-1.351044	-0.753564	-0.032648	0.267370	-0.846680	0.190430	-0.473145	0.668871	-0.127520	-0.725789	-0.097885
52769		9.628808	-0.672863	-1.627863	-0.825804	-0.020065	0.263192	-0.840088	0.203857	-0.469727	0.667641	-0.136924	-0.724481	-0.103130
52770		9.742849	-0.806716	-1.404680	-0.628050	0.010806	0.259694	-0.842529	0.217285	-0.469727	0.666978	-0.144575	-0.723096	-0.106637
52771		10.035595	0.899983	-0.460311	-0.467394	0.044293	0.339059	-0.836670	0.229980	-0.465332	0.666976	-0.151543	-0.721455	-0.108076
52772		9.861509	2.104141	-0.106562	-0.919795	-0.047727	0.563155	-0.839355	0.257324	-0.463379	0.665507	-0.164420	-0.719460	-0.111552
52773		9.477264	0.548560	-0.833831	-1.393183	-0.045604	0.682822	-0.832764	0.279541	-0.445068	0.663068	-0.182287	-0.716325	-0.118284
52774		9.425540	-2.772949	-1.533178	-0.838438	-0.051391	0.613837	-0.830811	0.315430	-0.443604	0.661532	-0.194852	-0.714054	-0.120562
52775		10.012068	-1.909702	-0.524583	0.475888	-0.032270	0.522107	-0.832520	0.322998	-0.446533	0.663163	-0.195774	-0.713691	-0.111945
52776		9.159160	0.011370	0.190214	0.733302	-0.180919	0.545947	-0.828125	0.316650	-0.453857	0.664050	-0.194969	-0.714795	-0.100467
52777		9.597474	-2.317878	-0.538270	0.482559	-0.318702	0.591538	-0.829102	0.329346	-0.446045	0.663101	-0.196706	-0.716537	-0.090433
52778		9.628189	-2.635766	-0.785779	0.900738	-0.369292	0.575974	-0.822266	0.332764	-0.447510	0.662580	-0.194925	-0.719104	-0.076692
52779		9.635369	0.435194	-0.460235	1.231453	-0.356824	0.655664	-0.813721	0.328125	-0.451660	0.662903	-0.191076	-0.721478	-0.059328
52780		9.307305	0.107918	-0.632773	0.459926	-0.394061	0.812553	-0.818359	0.340332	-0.442139	0.661026	-0.194988	-0.723028	-0.047495
52781		9.291635	-1.925798	-1.003186	-0.036683	-0.389499	0.793012	-0.811035	0.356934	-0.435547	0.657835	-0.202801	-0.724221	-0.040341
52782		9.389114	-2.432747	-1.837332	-0.111973	-0.390403	0.808474	-0.814697	0.379883	-0.427246	0.654389	-0.211353	-0.725236	-0.033729
52783		9.378889	-2.615971	-1.976868	0.105240	-0.334072	0.792343	-0.808105	0.389160	-0.417480	0.651926	-0.217959	-0.725836	-0.025445
52784		9.351993	-2.635089	-1.692746	0.273208	-0.274488	0.800458	-0.807129	0.403564	-0.419678	0.650375	-0.223187	-0.725915	-0.015711
52785		8.988025	-1.799817	-1.102710	0.134300	-0.262022	0.835281	-0.790283	0.419678	-0.419189	0.648488	-0.229814	-0.725672	-0.006970
52786		9.045125	-3.074947	-1.692902	-0.190998	-0.282597	0.863082	-0.795898	0.446045	-0.412842	0.645437	-0.239331	-0.725349	-0.000896
52787		8.792334	-3.340007	-2.291314	-0.228263	-0.196635	0.816238	-0.780518	0.458252	-0.404785	0.642950	-0.248713	-0.724390	0.004183
52788		8.970270	-4.352380	-2.340062	-0.118593	-0.123239	0.765112	-0.786621	0.479004	-0.404785	0.641412	-0.256700	-0.722913	0.009641
52789		8.919438	-3.993503	-1.821461	0.108196	-0.062049	0.715609	-0.773193	0.488525	-0.397217	0.641087	-0.262383	-0.721033	0.016562
52790		8.958535	-3.552565	-1.278712	0.181112	-0.082812	0.696422	-0.763428	0.506348	-0.394043	0.640743	-0.267293	-0.719323	0.024037
52791		8.710727	-3.121671	-1.657099	-0.024124	-0.113141	0.705962	-0.753906	0.510498	-0.396240	0.639372	-0.273974	-0.717812	0.029794
52792		8.586360	-4.258076	-2.394109	-0.179409	-0.118553	0.691733	-0.750977	0.535645	-0.395752	0.637401	-0.281651	-0.716400	0.034125
52793		8.693582	-4.770881	-2.251261	-0.044332	-0.057048	0.665124	-0.731934	0.552002	-0.389404	0.636423	-0.288071	-0.714453	0.039211
52794		8.512111	-4.692631	-1.734319	0.097190	-0.010545	0.663495	-0.730225	0.556885	-0.393066	0.636328	-0.293440	-0.711987	0.045336
52795		8.606256	-4.195018	-1.728673	0.058317	-0.010768	0.659594	-0.715576	0.572021	-0.388428	0.636041	-0.298963	-0.709548	0.051132
52796		8.435822	-4.557163	-1.972450	-0.044904	-0.049734	0.615656	-0.719727	0.571777	-0.393555	0.634997	-0.304947	-0.707586	0.055759
52797		8.492894	-5.086566	-2.377759	-0.005429	-0.036465	0.549805	-0.704590	0.589355	-0.391357	0.634237	-0.309842	-0.705770	0.060255
52798		8.567822	-5.288741	-2.334485	0.098782	-0.027334	0.452176	-0.693848	0.598145	-0.398926	0.634016	-0.313148	-0.704103	0.064815
52799		8.125590	-5.624745	-1.622795	0.152248	-0.018292	0.389895	-0.696045	0.610107	-0.396484	0.634156	-0.315487	-0.702499	0.069347
52800		8.073555	-5.540045	-1.380798	0.111654	-0.010986	0.349686	-0.693359	0.608887	-0.397705	0.634176	-0.317827	-0.701042	0.073124
52801		8.077725	-5.613723	-1.646743	0.031552	-0.032570	0.301549	-0.686523	0.611572	-0.398682	0.633716	-0.320287	-0.700040	0.075930
52802		8.172786	-5.667198	-2.056661	0.000694	-0.023815	0.238696	-0.684082	0.621338	-0.396484	0.633272	-0.322432	-0.699234	0.077950
52803		8.148771	-5.531976	-2.221978	-0.000014	0.002299	0.178555	-0.684082	0.622070	-0.395508	0.633094	-0.324128	-0.698453	0.079350
52804		8.070601	-5.454046	-1.855376	0.006088	0.025563	0.144784	-0.679688	0.627441	-0.394287	0.633163	-0.325471	-0.697640	0.080445
52805		8.177014	-5.233921	-1.921729	-0.010231	0.046046	0.124567	-0.676025	0.628174	-0.395264	0.633358	-0.326826	-0.696750	0.081134
52806		8.092652	-5.418738	-2.035681	-0.064374	0.049395	0.118228	-0.666504	0.629883	-0.396484	0.633370	-0.328545	-0.695910	0.081299
52807		8.067109	-5.480186	-2.042456	-0.033711	0.090633	0.106229	-0.680176	0.636963	-0.401123	0.633902	-0.329975	-0.694727	0.081487
52808		8.109699	-5.457126	-1.796004	-0.006098	0.104546	0.089593	-0.671631	0.627686	-0.396484	0.634660	-0.330999	-0.693519	0.081718
52809		8.085948	-5.234002	-1.834185	-0.030094	0.104227	0.073087	-0.667725	0.637207	-0.404785	0.635322	-0.332035	-0.692429	0.081615
52810		8.198924	-5.362838	-1.864237	-0.048286	0.105572	0.066713	-0.661133	0.647461	-0.402100	0.635958	-0.333200	-0.691319	0.081322
52811		8.179289	-5.360421	-1.841563	-0.032329	0.107233	0.052185	-0.662354	0.642090	-0.406006	0.636674	-0.334216	-0.690207	0.080997
52812		8.068416	-5.450834	-1.610524	-0.019288	0.110437	0.040937	-0.656982	0.644043	-0.406982	0.637492	-0.334949	-0.689128	0.080720
52813		8.029192	-5.781712	-1.627177	-0.009765	0.101621	0.027456	-0.655029	0.645264	-0.410156	0.638289	-0.335503	-0.688151	0.080454
52814		8.088674	-5.514083	-1.577832	0.027721	0.108563	-0.002415	-0.659668	0.637451	-0.406250	0.639340	-0.335502	-0.687199	0.080255
52815		8.040229	-5.527642	-1.452447	-0.016327	0.088369	-0.030156	-0.661377	0.643311	-0.409912	0.640025	-0.335541	-0.686628	0.079511
52816		8.066250	-5.678719	-1.508996	0.016425	0.079462	-0.061909	-0.658691	0.638184	-0.413086	0.640806	-0.335059	-0.686213	0.078829
52817		8.148648	-5.458506	-1.418003	0.033959	0.056598	-0.092243	-0.661377	0.638916	-0.420410	0.641508	-0.334129	-0.686085	0.078180
52818		8.119159	-5.780139	-1.570862	0.038887	0.039428	-0.137771	-0.664551	0.634521	-0.422119	0.642144	-0.332736	-0.686266	0.077309
52819		8.230259	-5.552673	-1.518639	0.093818	0.049492	-0.196963	-0.658447	0.630127	-0.417480	0.643148	-0.330385	-0.686564	0.076397
52820		8.282637	-5.304118	-1.552395	0.122252	0.049471	-0.255828	-0.660156	0.635010	-0.415771	0.644307	-0.327355	-0.687058	0.075224
52821		8.103547	-5.316410	-1.759387	0.048171	0.035973	-0.319867	-0.671143	0.613281	-0.420166	0.645079	-0.324442	-0.687965	0.072902
52822		8.349638	-5.343013	-1.536329	0.047674	0.030051	-0.382869	-0.668213	0.621338	-0.418701	0.645853	-0.320842	-0.689213	0.070141
52823		7.998850	-5.698124	-1.778932	0.040598	0.053455	-0.384694	-0.677490	0.609131	-0.416260	0.646784	-0.317424	-0.690218	0.067171
52824		8.506366	-5.475787	-1.785030	0.083615	0.054448	-0.462485	-0.691162	0.605469	-0.419922	0.647924	-0.312945	-0.691501	0.063923
52825		8.245691	-5.416733	-1.649668	0.090584	0.077482	-0.509905	-0.697510	0.585449	-0.426758	0.649297	-0.308007	-0.692760	0.060245
52826		8.274157	-5.354923	-1.285986	0.097612	0.080661	-0.556240	-0.692383	0.578857	-0.432861	0.650749	-0.302520	-0.694146	0.056294
52827		8.264243	-5.328188	-1.343779	0.011949	0.085901	-0.595168	-0.711914	0.560547	-0.432861	0.651944	-0.297421	-0.695613	0.051298
52828		8.802834	-5.304711	-1.565070	0.137570	0.022346	-0.701057	-0.714844	0.559326	-0.431641	0.653058	-0.290248	-0.697915	0.046750
52829		8.716076	-4.122866	-1.573704	0.248159	-0.039545	-0.813245	-0.727051	0.543457	-0.430420	0.654031	-0.281232	-0.700965	0.042435
52830		8.328752	-4.732484	-0.971479	-0.007310	0.021955	-0.820640	-0.726318	0.521973	-0.436035	0.654565	-0.274259	-0.703605	0.035573
52831		8.819754	-4.799133	-1.316868	-0.156197	0.048110	-0.885975	-0.739990	0.509277	-0.433594	0.654811	-0.267871	-0.706220	0.026848
52832		8.506054	-4.474878	-1.537732	-0.187854	0.058361	-0.933173	-0.748779	0.480957	-0.434082	0.654960	-0.261301	-0.708834	0.017404
52833		8.755223	-4.209104	-1.414829	-0.153308	0.074285	-1.008624	-0.775146	0.473389	-0.427979	0.655295	-0.253664	-0.711466	0.007639
52834		8.921351	-4.273407	-1.202968	-0.113378	0.085411	-1.069949	-0.767090	0.461670	-0.428955	0.655706	-0.245166	-0.714099	-0.002394
52835		8.848993	-3.783661	-1.153450	-0.054237	0.090842	-1.110870	-0.790283	0.431885	-0.431396	0.656255	-0.235837	-0.716631	-0.012218
52836		9.097410	-3.039236	-1.143645	-0.029633	0.063761	-1.161147	-0.801025	0.415771	-0.426758	0.656483	-0.225741	-0.719430	-0.022147
52837		9.005631	-2.152791	-1.225383	0.028332	0.062182	-1.179597	-0.808105	0.391113	-0.428223	0.656699	-0.215011	-0.722156	-0.031738
52838		9.042791	-1.900061	-1.430434	-0.039560	0.043829	-1.159754	-0.821289	0.354004	-0.435791	0.656444	-0.204975	-0.724795	-0.041711
52839		9.160722	-1.987725	-1.555503	-0.070713	0.044701	-1.130507	-0.829346	0.335205	-0.439209	0.656020	-0.195312	-0.727201	-0.051661
52840		9.307481	-1.658946	-1.006940	0.069069	0.021756	-1.093986	-0.835938	0.319580	-0.432617	0.655640	-0.184825	-0.729644	-0.059965
52841		9.653612	-0.047506	-0.979605	0.190841	0.050478	-1.032852	-0.843506	0.293213	-0.442627	0.655710	-0.173913	-0.731670	-0.066762
52842		9.530883	0.085552	-0.904868	0.130801	0.010211	-0.953785	-0.847168	0.267822	-0.436523	0.655272	-0.164184	-0.733680	-0.073326
52843		9.582916	0.162902	-0.914001	-0.029642	0.030800	-0.835972	-0.848633	0.250488	-0.434814	0.654699	-0.156811	-0.735055	-0.080455
52844		9.821505	-0.924896	-1.611017	-0.118214	0.001805	-0.796923	-0.847168	0.233398	-0.437500	0.653658	-0.150540	-0.736425	-0.088020
52845		9.516297	-0.143549	-1.383303	0.052107	0.039546	-0.721821	-0.864258	0.218506	-0.439941	0.653332	-0.143496	-0.737452	-0.093438
52846		9.679540	1.875499	-0.726292	0.185275	-0.006836	-0.647847	-0.859375	0.204590	-0.439209	0.652835	-0.136092	-0.738840	-0.096957
52847		9.811141	2.100935	-0.676700	-0.133560	0.004841	-0.426291	-0.855957	0.188721	-0.432617	0.652148	-0.133333	-0.739322	-0.101629
52848		9.593320	2.243720	-1.252241	-0.477480	-0.030420	-0.215521	-0.865967	0.206787	-0.434570	0.650795	-0.135333	-0.739290	-0.107709
52849		9.651576	0.769758	-1.764152	-0.501233	-0.017627	-0.074728	-0.866455	0.204834	-0.431396	0.649682	-0.138898	-0.738832	-0.112909
52850		9.633260	0.378365	-1.642391	-0.314927	0.014039	-0.010135	-0.860352	0.207275	-0.430908	0.649257	-0.141460	-0.738254	-0.115909
52851		9.820004	0.873369	-1.154131	-0.152483	0.041601	0.056977	-0.864014	0.201416	-0.438721	0.649477	-0.143275	-0.737554	-0.116901
52852		9.807959	0.999424	-1.031826	-0.267558	0.041124	0.166447	-0.862061	0.213623	-0.431152	0.649657	-0.146966	-0.736488	-0.118039
52853		9.757203	-0.114736	-1.432485	-0.226438	0.046210	0.212445	-0.861328	0.221680	-0.430176	0.649992	-0.150787	-0.735351	-0.118464
52854		9.572593	-0.771242	-1.629676	-0.017642	0.038379	0.217337	-0.862061	0.229004	-0.427979	0.650643	-0.152974	-0.734570	-0.116919
52855		9.505340	-0.851636	-1.505331	0.121315	0.043408	0.183055	-0.861572	0.228271	-0.429932	0.651538	-0.153723	-0.734017	-0.114397
52856		9.533001	-0.835814	-1.122155	0.104703	0.032047	0.139012	-0.857178	0.229980	-0.433838	0.652231	-0.154199	-0.733617	-0.112356
52857		9.731125	-1.157223	-1.009618	0.024766	0.039559	0.082731	-0.855469	0.229736	-0.429443	0.652770	-0.154793	-0.733141	-0.111509
52858		9.858402	-1.044102	-0.916724	0.112829	0.033468	0.017359	-0.855469	0.232910	-0.432617	0.653317	-0.154079	-0.732974	-0.110384
52859		9.698211	-0.187830	-1.036348	0.105405	0.015598	-0.000865	-0.851318	0.235107	-0.434082	0.653666	-0.153298	-0.732969	-0.109440
52860		9.662315	-0.294958	-1.341513	0.009679	0.009208	0.009627	-0.859375	0.222900	-0.439697	0.653793	-0.153419	-0.732855	-0.109276
52861		9.513235	-0.456753	-1.513769	0.074678	0.024551	0.006589	-0.860107	0.241943	-0.440186	0.654185	-0.152887	-0.732724	-0.108547
52862		9.686689	0.056727	-1.201734	0.097565	0.049528	0.022291	-0.855469	0.227051	-0.439697	0.654866	-0.152372	-0.732369	-0.107558
52863		9.896862	0.066036	-1.082259	0.017321	0.053779	0.061203	-0.855225	0.230957	-0.442627	0.655485	-0.152800	-0.731811	-0.106974
52864		9.752827	-0.365369	-1.191587	0.055290	0.063539	0.112437	-0.850098	0.233887	-0.446289	0.656336	-0.153383	-0.731120	-0.105644
52865		9.730241	0.096167	-1.202509	0.238719	0.070297	0.161411	-0.855957	0.240479	-0.445068	0.657669	-0.152901	-0.730507	-0.102243
52866		9.722981	0.640094	-0.975883	0.341052	0.063493	0.270722	-0.844482	0.235840	-0.444336	0.659239	-0.152611	-0.729864	-0.097017
52867		9.571075	0.799572	-0.483558	0.265566	0.037041	0.398013	-0.844727	0.254395	-0.450439	0.660558	-0.154110	-0.729085	-0.091371
52868		9.583653	0.473079	-0.729812	0.017838	-0.031581	0.545593	-0.844971	0.256104	-0.450195	0.660919	-0.159125	-0.728256	-0.086650
52869		9.368184	-0.452035	-0.888880	0.155068	-0.102973	0.621183	-0.835693	0.269287	-0.456055	0.660946	-0.163714	-0.727987	-0.079895
52870		9.289734	-0.357058	-0.638426	0.208388	-0.187020	0.673914	-0.836914	0.285889	-0.449219	0.660344	-0.168416	-0.728281	-0.072032
52871		9.707476	-0.711831	-0.467669	-0.000085	-0.242111	0.774765	-0.833984	0.294922	-0.445801	0.658814	-0.175814	-0.728568	-0.065129
52872		9.916641	-1.478648	-0.463802	0.073026	-0.262662	0.843069	-0.831787	0.316895	-0.435547	0.657243	-0.183194	-0.728855	-0.056932
52873		9.325515	-0.948216	-1.278294	0.139532	-0.265401	0.872526	-0.828369	0.332031	-0.436523	0.655722	-0.190303	-0.729054	-0.047892
52874		9.403975	-2.066562	-1.769091	0.005467	-0.275888	0.820551	-0.816895	0.350830	-0.427002	0.653684	-0.198004	-0.729284	-0.040458
52875		9.531857	-2.155989	-1.658331	0.111094	-0.196596	0.795886	-0.816162	0.361328	-0.427734	0.652542	-0.204574	-0.728893	-0.032461
52876		9.505324	-2.109328	-1.295199	0.209703	-0.181408	0.826255	-0.804199	0.375244	-0.420166	0.651734	-0.210555	-0.728262	-0.023339
52877		9.282219	-1.766444	-1.128758	0.207477	-0.163047	0.842418	-0.804443	0.391602	-0.424805	0.651006	-0.216683	-0.727351	-0.014158
52878		8.936926	-1.758843	-1.333051	0.038296	-0.200300	0.907598	-0.798340	0.415283	-0.419922	0.649414	-0.224747	-0.726440	-0.005877
