// Start Time: Unknown
// Update Rate: 60.0Hz
// Filter Profile: human (46.1)
// Firmware Version: 4.6.0
PacketCounter	SampleTimeFine	Acc_X	Acc_Y	Acc_Z	Gyr_X	Gyr_Y	Gyr_Z	Mag_X	Mag_Y	Mag_Z	Quat_q0	Quat_q1	Quat_q2	Quat_q3
31449		-5.295440	-7.227577	4.435653	0.049473	0.006468	0.015934	0.466064	0.884766	-0.133545	0.652601	-0.127431	0.511921	-0.543884
31450		-5.206388	-6.950429	4.483833	0.053517	-0.002123	0.009532	0.467041	0.886719	-0.141602	0.652710	-0.127109	0.511677	-0.544058
31451		-5.114460	-6.944907	4.482065	0.025929	0.001447	0.019239	0.461914	0.890381	-0.139404	0.652809	-0.126895	0.511561	-0.544099
31452		-5.109731	-7.104785	4.409550	0.006495	0.018852	0.035401	0.463623	0.884033	-0.134521	0.652862	-0.126672	0.511617	-0.544035
31453		-5.200339	-7.150937	4.438150	0.015581	0.020901	0.042625	0.465088	0.881836	-0.133545	0.652972	-0.126327	0.511685	-0.543918
31454		-5.217581	-7.057557	4.455429	0.033955	0.010138	0.034923	0.466797	0.876953	-0.135010	0.653122	-0.125953	0.511614	-0.543892
31455		-5.105413	-7.091925	4.411847	0.043670	0.014001	0.023921	0.467773	0.881348	-0.141846	0.653226	-0.125539	0.511520	-0.543951
31456		-5.096583	-7.124147	4.461904	0.052124	0.005936	0.028103	0.463623	0.885498	-0.139893	0.653378	-0.125124	0.511323	-0.544050
31457		-5.141204	-6.996801	4.386692	0.052743	-0.009530	0.032508	0.465088	0.885254	-0.135742	0.653598	-0.124785	0.511012	-0.544155
31458		-5.169290	-6.837220	4.244055	0.035292	-0.004225	0.023900	0.469971	0.885986	-0.136719	0.653750	-0.124538	0.510816	-0.544213
31459		-5.182522	-6.862984	4.348679	0.008702	0.002280	0.013287	0.465820	0.876709	-0.136963	0.653813	-0.124429	0.510787	-0.544189
31460		-5.231076	-7.029566	4.344643	0.001532	0.002841	0.013062	0.467529	0.884521	-0.140869	0.653869	-0.124351	0.510790	-0.544137
31461		-5.213773	-7.150402	4.329379	0.041078	-0.012460	0.009165	0.464844	0.880859	-0.139893	0.653999	-0.124161	0.510516	-0.544282
31462		-5.185381	-7.036034	4.479151	0.067399	-0.035300	-0.004821	0.474609	0.896973	-0.135010	0.654185	-0.123995	0.509987	-0.544592
31463		-5.182064	-6.825339	4.502063	0.063300	-0.046389	-0.018656	0.472412	0.894043	-0.149170	0.654338	-0.123972	0.509454	-0.544912
31464		-5.156339	-6.794272	4.489731	0.003436	-0.011888	-0.019676	0.467285	0.881348	-0.145020	0.654316	-0.124089	0.509287	-0.545068
31465		-5.236352	-6.854147	4.462437	-0.043178	0.017018	-0.008507	0.469971	0.885986	-0.144287	0.654197	-0.124253	0.509504	-0.544971
31466		-5.239673	-6.964986	4.417190	-0.023999	-0.012609	-0.007365	0.469971	0.876465	-0.138916	0.654220	-0.124446	0.509490	-0.544913
31467		-5.195472	-7.118877	4.448480	0.014073	-0.009324	-0.005159	0.470459	0.879150	-0.148193	0.654300	-0.124382	0.509354	-0.544958
31468		-5.253610	-7.140348	4.577452	0.014859	-0.018432	-0.005943	0.465820	0.879395	-0.142822	0.654420	-0.124354	0.509113	-0.545045
31469		-5.219474	-7.101264	4.564759	0.013242	0.001746	-0.003161	0.471924	0.883301	-0.140869	0.654431	-0.124272	0.509020	-0.545138
31470		-5.198782	-7.010685	4.413005	0.012954	-0.001941	0.000472	0.467285	0.878662	-0.140381	0.654486	-0.124189	0.508934	-0.545171
31471		-5.063334	-6.954242	4.452220	0.022798	-0.021434	0.006217	0.471191	0.885742	-0.152100	0.654651	-0.124123	0.508696	-0.545210
31472		-5.048413	-6.971288	4.510490	0.014362	-0.005227	0.021013	0.471436	0.872314	-0.143799	0.654826	-0.123941	0.508535	-0.545191
31473		-5.134133	-6.969052	4.599978	-0.020515	0.009634	0.020350	0.469727	0.878662	-0.151123	0.654922	-0.123893	0.508658	-0.544973
31474		-5.206411	-7.018951	4.574628	-0.035984	0.010204	0.008815	0.467529	0.885254	-0.139160	0.654934	-0.123971	0.508782	-0.544824
31475		-5.098716	-7.030119	4.357652	-0.004956	0.006866	0.003142	0.464600	0.886963	-0.133301	0.654913	-0.123976	0.508812	-0.544821
31476		-5.022312	-6.944975	4.329941	-0.000727	0.010572	0.007063	0.472656	0.881592	-0.146484	0.654859	-0.123958	0.508887	-0.544820
31477		-5.120308	-7.023071	4.459434	-0.001592	0.034576	0.004691	0.471924	0.882812	-0.142090	0.654785	-0.123778	0.509006	-0.544838
31478		-5.269294	-7.099530	4.510031	0.001124	0.020139	-0.005823	0.466064	0.881836	-0.143555	0.654707	-0.123715	0.509052	-0.544903
31479		-5.191643	-6.911525	4.489445	0.017764	0.002268	-0.017849	0.466064	0.879639	-0.149658	0.654639	-0.123701	0.508900	-0.545129
31480		-5.113787	-6.709603	4.445594	0.021946	-0.010972	-0.023851	0.463379	0.877197	-0.142334	0.654634	-0.123723	0.508607	-0.545404
31481		-5.089739	-6.798212	4.513911	-0.020850	0.013743	-0.021705	0.475342	0.886475	-0.139404	0.654468	-0.123871	0.508704	-0.545480
31482		-5.165804	-7.098649	4.353870	-0.042137	0.027944	-0.009812	0.469971	0.882568	-0.140869	0.654316	-0.124008	0.508996	-0.545358
31483		-5.332024	-7.210322	4.350495	-0.049692	0.022956	-0.017217	0.467041	0.881348	-0.138428	0.654127	-0.124247	0.509279	-0.545267
31484		-5.323634	-7.088625	4.396863	-0.008550	0.001506	-0.026514	0.462158	0.890137	-0.136475	0.654004	-0.124409	0.509274	-0.545381
31485		-5.317459	-7.028512	4.548561	0.026681	-0.011395	-0.028413	0.472168	0.880615	-0.144043	0.653889	-0.124469	0.509056	-0.545709
31486		-5.223340	-7.038666	4.524575	0.029602	-0.023398	-0.021308	0.466797	0.884033	-0.141357	0.654002	-0.124469	0.508710	-0.545896
31487		-5.120685	-7.044505	4.401870	0.028385	-0.013169	-0.014987	0.464355	0.884766	-0.138916	0.654038	-0.124429	0.508457	-0.546098
31488		-5.142700	-6.957501	4.403000	-0.000015	-0.003631	-0.009758	0.463623	0.880127	-0.150391	0.653997	-0.124500	0.508418	-0.546167
31489		-5.164129	-6.924410	4.455478	-0.015927	0.004920	-0.000790	0.467529	0.880371	-0.134277	0.653998	-0.124534	0.508409	-0.546166
31490		-5.231205	-7.130567	4.481410	-0.003912	0.003598	0.002205	0.459229	0.883789	-0.143311	0.654008	-0.124542	0.508486	-0.546081
31491		-5.234120	-7.264798	4.559392	0.019087	0.002053	0.005648	0.462891	0.881836	-0.145996	0.654011	-0.124413	0.508367	-0.546218
31492		-5.109998	-7.105543	4.522273	0.043742	-0.012146	-0.006760	0.476318	0.875000	-0.140625	0.654089	-0.124250	0.508024	-0.546481
31493		-4.981947	-6.754868	4.455085	0.010126	-0.008466	-0.013227	0.462891	0.888428	-0.134033	0.654213	-0.124261	0.507910	-0.546436
31494		-5.057461	-6.847080	4.495399	-0.000978	0.001490	0.001988	0.465820	0.885254	-0.139893	0.654153	-0.124315	0.507970	-0.546440
31495		-5.144512	-7.082538	4.474061	-0.001518	0.008919	0.015691	0.464111	0.891602	-0.139160	0.654187	-0.124236	0.508025	-0.546366
31496		-5.239727	-7.108115	4.415785	0.002529	0.012539	0.007745	0.469482	0.881592	-0.135986	0.654122	-0.124178	0.508079	-0.546406
31497		-5.209037	-6.965222	4.406478	0.023002	0.021445	-0.005984	0.468262	0.885010	-0.142578	0.654056	-0.123997	0.508117	-0.546491
31498		-5.147982	-6.925699	4.540365	0.021990	0.019097	-0.016019	0.463623	0.877686	-0.134766	0.653951	-0.123857	0.508070	-0.546692
31499		-5.110766	-6.972109	4.530533	0.019237	0.004548	-0.011583	0.468262	0.875488	-0.145264	0.653897	-0.123816	0.508040	-0.546794
31500		-5.160770	-7.034317	4.418505	0.008903	0.004130	-0.001164	0.467773	0.884277	-0.138428	0.653974	-0.123712	0.507955	-0.546804
31501		-5.268827	-7.062367	4.410705	-0.014318	0.011183	-0.005525	0.468994	0.889160	-0.146729	0.653900	-0.123784	0.508089	-0.546752
31502		-5.271414	-6.992325	4.498558	-0.012733	-0.022698	-0.012982	0.469727	0.882812	-0.148193	0.653953	-0.123993	0.507935	-0.546784
31503		-5.173414	-6.960451	4.478190	0.008129	-0.032517	-0.014094	0.466553	0.886230	-0.143311	0.654112	-0.124103	0.507617	-0.546864
31504		-5.077264	-7.030373	4.520353	0.010615	-0.019092	-0.006881	0.468018	0.874023	-0.138672	0.654186	-0.124159	0.507426	-0.546941
31505		-5.025760	-7.108172	4.475816	0.000698	0.007065	0.000063	0.471680	0.875488	-0.145996	0.654233	-0.124113	0.507488	-0.546837
31506		-5.126183	-7.042814	4.467470	-0.013096	0.005661	-0.000329	0.469727	0.878662	-0.137451	0.654320	-0.124094	0.507521	-0.546707
31507		-5.182161	-6.931430	4.446470	-0.018359	0.006481	0.000689	0.466064	0.878662	-0.132812	0.654339	-0.124177	0.507679	-0.546519
31508		-5.199272	-6.862789	4.515564	-0.029053	0.010378	-0.003394	0.468506	0.882812	-0.136963	0.654264	-0.124368	0.507948	-0.546315
31509		-5.171449	-7.023568	4.424280	-0.022122	0.005256	0.000995	0.466553	0.878662	-0.136475	0.654256	-0.124483	0.508108	-0.546149
31510		-5.204726	-7.184832	4.354339	-0.009339	0.010315	0.006858	0.466309	0.883789	-0.143066	0.654266	-0.124477	0.508243	-0.546013
31511		-5.225340	-7.190337	4.367874	-0.007444	0.008025	0.000088	0.462891	0.873047	-0.141602	0.654242	-0.124471	0.508272	-0.546016
31512		-5.226876	-6.965069	4.456167	0.012352	-0.000878	-0.005852	0.473145	0.882812	-0.139648	0.654263	-0.124414	0.508169	-0.546100
31513		-5.182046	-6.757255	4.499833	0.008825	-0.009767	-0.008131	0.459229	0.883057	-0.143311	0.654353	-0.124413	0.508079	-0.546076
31514		-5.134596	-6.853251	4.513103	-0.005889	-0.022611	-0.002167	0.469727	0.878418	-0.145020	0.654383	-0.124585	0.507921	-0.546148
31515		-5.141681	-7.062983	4.417321	-0.026491	-0.005884	0.000551	0.469238	0.888672	-0.138428	0.654471	-0.124673	0.507948	-0.545997
31516		-5.230100	-7.158420	4.437698	-0.020659	0.001740	-0.005988	0.463135	0.885498	-0.147705	0.654425	-0.124826	0.508064	-0.545910
31517		-5.256105	-7.026635	4.461378	0.006477	-0.013608	-0.015350	0.469482	0.883545	-0.143311	0.654410	-0.124884	0.507832	-0.546130
31518		-5.158172	-6.961645	4.425469	0.015789	-0.019402	-0.012984	0.462646	0.883301	-0.144287	0.654506	-0.124895	0.507603	-0.546226
31519		-5.127879	-7.012916	4.514898	-0.010515	-0.017684	-0.013628	0.463623	0.877197	-0.138428	0.654498	-0.125081	0.507483	-0.546304
31520		-5.091391	-7.072536	4.482513	-0.003222	-0.034409	-0.014255	0.472900	0.880371	-0.143066	0.654597	-0.125326	0.507316	-0.546285
31521		-5.109947	-7.057131	4.463475	0.025863	-0.032336	-0.010198	0.468018	0.880371	-0.144531	0.654831	-0.125298	0.506991	-0.546311
31522		-5.107577	-7.005315	4.596314	0.023989	-0.021254	-0.012487	0.469971	0.888916	-0.144287	0.654957	-0.125265	0.506714	-0.546427
31523		-5.065654	-6.963126	4.551464	-0.003099	0.000922	-0.013385	0.460205	0.878906	-0.148926	0.654930	-0.125312	0.506692	-0.546468
31524		-5.097684	-6.933280	4.517910	-0.042845	0.020086	-0.007049	0.468994	0.883057	-0.142334	0.654774	-0.125439	0.506881	-0.546450
31525		-5.115306	-6.980773	4.489910	-0.023460	0.013608	-0.003474	0.473389	0.893555	-0.139160	0.654744	-0.125492	0.507044	-0.546323
31526		-5.140596	-7.119920	4.464877	-0.002684	0.007953	0.000069	0.467041	0.884766	-0.135498	0.654755	-0.125480	0.507127	-0.546235
31527		-5.160815	-7.125535	4.478830	-0.004427	0.015301	-0.002378	0.462158	0.880371	-0.143799	0.654693	-0.125497	0.507289	-0.546155
31528		-5.164288	-7.048023	4.486054	-0.007726	0.013135	-0.005331	0.463623	0.884521	-0.142334	0.654614	-0.125486	0.507332	-0.546212
31529		-5.172042	-7.032158	4.410917	0.005573	0.012946	-0.009702	0.464355	0.883789	-0.139893	0.654522	-0.125442	0.507329	-0.546336
31530		-5.139987	-7.154232	4.409646	0.013504	0.005265	-0.009052	0.465332	0.882324	-0.139404	0.654479	-0.125400	0.507283	-0.546439
31531		-5.160757	-7.087871	4.448175	0.011737	0.002537	-0.006447	0.466553	0.886475	-0.142578	0.654475	-0.125363	0.507245	-0.546488
31532		-5.220236	-7.018276	4.424902	0.014718	-0.000455	-0.006136	0.460693	0.885986	-0.139404	0.654485	-0.125303	0.507142	-0.546585
31533		-5.210299	-6.969461	4.469633	0.032632	-0.007049	-0.005317	0.467529	0.883057	-0.135254	0.654480	-0.125240	0.506955	-0.546779
31534		-5.110176	-6.930266	4.485867	0.019610	-0.004463	-0.008586	0.467041	0.884277	-0.147461	0.654507	-0.125226	0.506915	-0.546787
31535		-5.055789	-7.028840	4.479190	-0.003473	0.013607	-0.006643	0.469482	0.885254	-0.141602	0.654467	-0.125147	0.506923	-0.546846
31536		-5.103609	-7.151620	4.432235	0.010372	0.026584	-0.005040	0.469238	0.884521	-0.139404	0.654397	-0.124968	0.507021	-0.546881
31537		-5.154956	-7.015470	4.526466	0.030024	0.010081	-0.009770	0.465576	0.882324	-0.139648	0.654388	-0.124798	0.506961	-0.546985
31538		-5.163692	-6.869260	4.524279	0.020140	0.004854	-0.014626	0.460693	0.883545	-0.143555	0.654346	-0.124743	0.506904	-0.547100
31539		-5.109597	-6.967671	4.517562	0.003989	0.019100	-0.004310	0.464355	0.881592	-0.133545	0.654234	-0.124671	0.506949	-0.547209
31540		-5.129168	-7.056237	4.420350	-0.000564	0.013661	-0.003385	0.467041	0.888916	-0.141602	0.654163	-0.124699	0.507122	-0.547127
31541		-5.159203	-7.031538	4.334407	0.000953	0.024054	-0.003412	0.461426	0.880371	-0.143555	0.654060	-0.124609	0.507246	-0.547156
31542		-5.285241	-7.042075	4.519399	-0.013150	0.018749	-0.002445	0.466797	0.891602	-0.137939	0.653964	-0.124599	0.507365	-0.547163
31543		-5.254719	-7.086783	4.458245	-0.005107	-0.002724	0.003125	0.468506	0.883789	-0.141113	0.653972	-0.124677	0.507419	-0.547086
31544		-5.199797	-7.209314	4.390183	0.034267	-0.020316	0.006928	0.473145	0.880371	-0.143555	0.654171	-0.124522	0.507165	-0.547117
31545		-5.147923	-7.110940	4.493962	0.046726	-0.022966	0.002145	0.464355	0.882812	-0.138428	0.654429	-0.124264	0.506827	-0.547181
31546		-5.097462	-6.889782	4.496479	0.020259	-0.018820	-0.002374	0.467041	0.874268	-0.141357	0.654519	-0.124293	0.506677	-0.547205
31547		-5.121315	-6.917401	4.401730	-0.003683	-0.001703	0.005366	0.468994	0.883789	-0.150391	0.654615	-0.124251	0.506713	-0.547067
31548		-5.209927	-7.113635	4.419293	0.005561	0.009089	0.013106	0.468750	0.879883	-0.144775	0.654700	-0.124026	0.506667	-0.547060
31549		-5.189812	-7.062415	4.479041	0.031160	-0.001378	0.005182	0.471680	0.877930	-0.140869	0.654819	-0.123784	0.506509	-0.547118
31550		-5.048032	-6.903686	4.506379	0.036764	-0.014219	-0.005349	0.466309	0.882568	-0.143311	0.654974	-0.123629	0.506306	-0.547155
31551		-5.019022	-6.848903	4.535902	0.014302	0.001959	0.003408	0.466553	0.880371	-0.147949	0.655014	-0.123533	0.506264	-0.547168
31552		-5.137913	-6.948988	4.491753	-0.003725	-0.000814	0.004838	0.467773	0.885254	-0.143311	0.655070	-0.123486	0.506236	-0.547137
31553		-5.252808	-7.019348	4.545936	-0.003480	-0.006116	0.008013	0.463623	0.876221	-0.141602	0.655146	-0.123512	0.506240	-0.547037
31554		-5.206502	-7.030405	4.420104	0.009789	0.005497	-0.002474	0.460938	0.877930	-0.142578	0.655138	-0.123459	0.506244	-0.547055
31555		-5.161666	-7.118306	4.420309	0.010115	-0.001572	0.001760	0.466553	0.884521	-0.141846	0.655150	-0.123437	0.506195	-0.547091
31556		-5.165957	-7.077114	4.527682	0.017759	-0.015508	-0.001929	0.471191	0.880127	-0.140381	0.655228	-0.123453	0.506058	-0.547120
31557		-5.184476	-6.978110	4.552134	0.003540	-0.042613	0.000672	0.468994	0.884277	-0.151611	0.655471	-0.123618	0.505874	-0.546962
31558		-5.163018	-6.907602	4.575630	0.006175	-0.046227	0.007580	0.465576	0.878906	-0.149170	0.655744	-0.123689	0.505530	-0.546937
31559		-5.168390	-6.877907	4.412020	-0.006894	-0.030313	0.004433	0.469482	0.879150	-0.138672	0.655912	-0.123800	0.505355	-0.546873
31560		-5.080370	-7.008809	4.437226	0.003093	-0.019380	-0.002753	0.472656	0.882080	-0.145996	0.656027	-0.123912	0.505322	-0.546740
31561		-5.050012	-7.174307	4.615522	0.020741	-0.017430	0.000113	0.470459	0.887695	-0.144775	0.656185	-0.123827	0.505146	-0.546731
31562		-5.076048	-7.116821	4.701268	0.028944	-0.008127	-0.002728	0.469482	0.884521	-0.150635	0.656259	-0.123735	0.504992	-0.546806
31563		-5.055929	-6.904057	4.632539	0.016946	-0.007707	-0.005187	0.470215	0.880615	-0.143555	0.656318	-0.123656	0.504828	-0.546905
31564		-5.078950	-6.733454	4.493615	-0.003751	-0.004691	-0.007162	0.469727	0.879883	-0.145508	0.656347	-0.123731	0.504856	-0.546827
31565		-5.158585	-6.857136	4.433790	-0.020485	-0.001404	0.000678	0.470215	0.875000	-0.151123	0.656382	-0.123827	0.504962	-0.546666
31566		-5.270001	-7.072588	4.441298	-0.037013	0.019760	0.004470	0.457764	0.879150	-0.156250	0.656352	-0.123812	0.505199	-0.546486
31567		-5.303884	-7.081354	4.434701	-0.033442	0.014242	0.004860	0.466553	0.872803	-0.139404	0.656243	-0.123860	0.505295	-0.546518
31568		-5.282555	-6.963428	4.443136	-0.029231	-0.009291	0.001710	0.474854	0.877441	-0.140869	0.656303	-0.124073	0.505444	-0.546258
31569		-5.259086	-7.037065	4.419465	0.011099	-0.026666	0.002440	0.468506	0.879639	-0.140137	0.656528	-0.124087	0.505317	-0.546102
31570		-5.239768	-7.171415	4.567100	0.027695	-0.037362	-0.001913	0.467529	0.883057	-0.152344	0.656736	-0.124144	0.505045	-0.546092
31571		-5.177341	-7.082489	4.483835	0.041279	-0.065415	0.001322	0.469482	0.881836	-0.145752	0.657074	-0.124149	0.504435	-0.546248
31572		-5.054068	-6.893944	4.400921	0.051037	-0.078113	0.010215	0.466797	0.880127	-0.150879	0.657531	-0.124180	0.503808	-0.546268
31573		-5.137365	-6.822885	4.421768	0.034636	-0.072268	0.012715	0.467529	0.887451	-0.152832	0.657945	-0.124238	0.503244	-0.546278
31574		-5.200385	-6.954636	4.481379	0.007735	-0.072594	0.002865	0.464111	0.882568	-0.151367	0.658265	-0.124511	0.502783	-0.546253
31575		-5.159176	-7.026141	4.481299	0.007615	-0.086114	-0.009086	0.464355	0.884277	-0.152588	0.658580	-0.124913	0.502252	-0.546272
31576		-5.155936	-7.029937	4.456742	0.043618	-0.092628	-0.017805	0.461670	0.880371	-0.149414	0.658917	-0.125185	0.501509	-0.546485
31577		-5.168767	-6.929890	4.556433	0.028042	-0.088018	-0.024581	0.462646	0.877686	-0.153809	0.659181	-0.125585	0.500898	-0.546635
31578		-5.115868	-6.819583	4.586955	-0.001941	-0.079891	-0.026000	0.461670	0.874268	-0.153564	0.659400	-0.126063	0.500435	-0.546685
31579		-5.053701	-6.868875	4.711586	-0.020762	-0.059548	-0.016813	0.465088	0.876465	-0.148926	0.659565	-0.126506	0.500186	-0.546611
31580		-5.077943	-7.078092	4.624100	-0.000609	-0.042782	-0.002939	0.458984	0.883057	-0.158936	0.659759	-0.126728	0.500011	-0.546486
31581		-5.049855	-7.126112	4.601353	0.017772	-0.050810	-0.009982	0.459961	0.887207	-0.158447	0.659918	-0.126904	0.499583	-0.546644
31582		-5.075163	-7.009928	4.689757	0.011941	-0.082292	-0.012431	0.471191	0.880615	-0.156982	0.660183	-0.127288	0.499023	-0.546746
31583		-5.063398	-6.928147	4.741791	-0.013742	-0.117746	-0.013950	0.466309	0.887207	-0.160645	0.660666	-0.127893	0.498437	-0.546557
31584		-4.996171	-6.997536	4.594177	0.006864	-0.143371	-0.003800	0.461426	0.880371	-0.157227	0.661271	-0.128494	0.497584	-0.546462
31585		-5.077411	-7.039702	4.641378	-0.038531	-0.124557	-0.009709	0.463867	0.882568	-0.157471	0.661709	-0.129320	0.497069	-0.546205
31586		-5.067983	-7.044605	4.577719	-0.065363	-0.101530	0.008210	0.464355	0.880371	-0.154053	0.662115	-0.130106	0.496831	-0.545742
31587		-5.026505	-7.094600	4.499637	-0.036098	-0.063943	0.022149	0.467773	0.884033	-0.156494	0.662467	-0.130514	0.496716	-0.545323
31588		-4.979171	-7.059678	4.648875	-0.005233	-0.048580	0.022607	0.468018	0.877686	-0.155029	0.662800	-0.130655	0.496530	-0.545053
31589		-5.015084	-6.966381	4.690045	-0.019332	-0.083309	0.006072	0.463623	0.881836	-0.153076	0.663206	-0.131087	0.496214	-0.544744
31590		-5.007668	-7.043842	4.753954	0.003277	-0.071365	0.013083	0.468506	0.877197	-0.154297	0.663573	-0.131378	0.495878	-0.544532
31591		-5.019659	-7.203433	4.890082	-0.020141	-0.034231	0.023987	0.467529	0.884277	-0.159668	0.663856	-0.131525	0.495870	-0.544159
31592		-4.957117	-7.089428	4.824854	-0.078003	-0.022074	0.025562	0.462402	0.880615	-0.158203	0.664007	-0.131932	0.496136	-0.543634
31593		-5.070794	-6.936142	4.479378	-0.097938	-0.029575	0.032550	0.462646	0.881592	-0.156494	0.664178	-0.132479	0.496445	-0.543009
31594		-5.106702	-6.803910	4.515282	-0.087382	-0.037653	0.035625	0.468994	0.879150	-0.155029	0.664403	-0.133001	0.496671	-0.542400
31595		-5.071910	-7.019887	4.657589	-0.063140	-0.023176	0.037703	0.467773	0.883545	-0.154541	0.664643	-0.133264	0.496890	-0.541840
31596		-5.112630	-7.359266	4.792305	-0.070618	-0.062899	0.058260	0.470459	0.877197	-0.155762	0.665108	-0.133695	0.496938	-0.541119
31597		-5.001022	-7.494685	4.720805	-0.048709	-0.072213	0.071692	0.465332	0.879150	-0.148438	0.665726	-0.133936	0.496839	-0.540390
31598		-4.972306	-7.215742	4.700600	-0.043640	-0.059966	0.052798	0.472412	0.876709	-0.159424	0.666165	-0.134285	0.496811	-0.539787
31599		-4.860402	-6.841414	4.741155	-0.032346	-0.050907	0.031307	0.471191	0.882324	-0.154297	0.666535	-0.134476	0.496674	-0.539410
31600		-4.768351	-6.766976	4.555902	0.012154	-0.071621	0.049247	0.473633	0.882080	-0.150879	0.667091	-0.134522	0.496282	-0.539072
31601		-4.760763	-6.875814	4.615121	0.001079	-0.028030	0.048542	0.475342	0.885498	-0.150146	0.667457	-0.134457	0.496222	-0.538690
31602		-4.825539	-6.874757	4.836381	-0.040269	0.041053	0.047121	0.469482	0.877197	-0.149902	0.667478	-0.134339	0.496738	-0.538216
31603		-5.017659	-6.890822	4.672446	-0.048772	0.031379	0.035996	0.468506	0.877686	-0.144287	0.667469	-0.134358	0.497200	-0.537796
31604		-5.023924	-7.100390	4.648281	-0.099447	0.034982	0.034670	0.476562	0.874756	-0.149414	0.667369	-0.134698	0.497943	-0.537148
31605		-5.100620	-7.332066	4.333788	-0.035778	0.028161	0.047925	0.476074	0.880371	-0.145752	0.667474	-0.134536	0.498337	-0.536693
31606		-5.299214	-7.376080	4.473846	-0.057292	0.010681	0.049952	0.482666	0.876709	-0.150391	0.667613	-0.134629	0.498753	-0.536110
31607		-5.182500	-6.872074	4.546092	-0.090401	-0.008355	0.044725	0.476807	0.872559	-0.143311	0.667805	-0.134909	0.499175	-0.535407
31608		-5.102392	-6.486873	4.457920	-0.026801	0.005923	0.056920	0.471436	0.881104	-0.144287	0.668039	-0.134793	0.499438	-0.534899
31609		-5.259679	-6.776833	4.544492	0.001073	0.005467	0.063817	0.483154	0.878906	-0.141113	0.668294	-0.134575	0.499548	-0.534533
31610		-5.320553	-7.186177	4.637397	-0.077392	-0.010321	0.044977	0.475830	0.876709	-0.143311	0.668486	-0.134876	0.499956	-0.533835
31611		-5.088652	-7.131213	4.753925	-0.070472	-0.010567	0.037739	0.482910	0.879639	-0.144043	0.668628	-0.135191	0.500273	-0.533279
31612		-5.058107	-6.747106	4.587612	-0.124185	-0.035959	0.033189	0.474609	0.876953	-0.142334	0.668816	-0.135893	0.500684	-0.532479
31613		-5.040355	-6.449211	4.292720	-0.158369	-0.094756	0.002361	0.468750	0.868408	-0.139160	0.669044	-0.137225	0.500859	-0.531685
31614		-4.993326	-6.360262	4.080694	-0.168507	-0.043517	-0.038119	0.484375	0.874512	-0.131836	0.668859	-0.138559	0.501319	-0.531139
31615		-5.104914	-6.757209	4.524603	-0.101681	-0.032796	-0.055867	0.482178	0.879150	-0.139648	0.668672	-0.139492	0.501609	-0.530856
31616		-5.225104	-7.250093	4.780433	-0.087722	-0.019660	-0.036524	0.472656	0.883545	-0.134033	0.668526	-0.140170	0.501852	-0.530632
31617		-5.150666	-7.250432	4.817579	-0.096727	0.004998	0.004003	0.468750	0.875244	-0.127686	0.668404	-0.140742	0.502326	-0.530185
31618		-5.063386	-6.934941	4.720654	-0.194839	0.053841	0.018186	0.480469	0.875977	-0.129639	0.668020	-0.141604	0.503553	-0.529276
31619		-4.990557	-6.554481	4.369528	-0.196133	0.070280	-0.016347	0.473145	0.876709	-0.125977	0.667454	-0.142423	0.504822	-0.528560
31620		-5.070249	-6.794940	4.509998	-0.182880	0.063811	-0.029193	0.476562	0.886475	-0.130127	0.666847	-0.143306	0.505960	-0.527998
31621		-5.124705	-7.192479	4.368337	-0.174115	0.039616	-0.015655	0.483643	0.878662	-0.118896	0.666416	-0.144156	0.506887	-0.527422
31622		-5.133842	-7.520204	4.416219	-0.137319	0.028721	0.021380	0.475830	0.883789	-0.114990	0.666267	-0.144658	0.507726	-0.526666
31623		-5.011648	-7.473718	4.635933	-0.180986	0.016888	0.049885	0.480957	0.885742	-0.110840	0.666200	-0.145433	0.508711	-0.525585
31624		-4.973100	-7.179547	4.353354	-0.265566	0.090239	0.070062	0.481689	0.880615	-0.101318	0.665816	-0.146258	0.510514	-0.524092
31625		-5.122032	-6.903885	3.767947	-0.196218	0.079539	0.038911	0.483398	0.876953	-0.107666	0.665424	-0.146889	0.511953	-0.523010
31626		-5.394788	-7.233998	4.027893	-0.078999	0.003471	-0.010617	0.482422	0.890137	-0.103516	0.665298	-0.147315	0.512326	-0.522684
31627		-5.476331	-7.608418	4.147859	-0.114827	-0.044156	-0.031115	0.476562	0.881592	-0.102051	0.665220	-0.148329	0.512577	-0.522251
31628		-5.083916	-7.404757	4.194104	-0.119589	-0.085450	-0.001729	0.483887	0.888916	-0.100098	0.665433	-0.149416	0.512649	-0.521599
31629		-4.870773	-7.293803	4.253430	-0.115264	-0.089237	0.062679	0.480225	0.882568	-0.096924	0.665958	-0.150208	0.512781	-0.520570
31630		-5.164280	-7.391459	4.268092	-0.125481	-0.028681	0.080421	0.488281	0.879150	-0.090576	0.666280	-0.150734	0.513322	-0.519472
31631		-5.501048	-7.555133	4.015061	-0.134657	-0.006535	0.082025	0.478516	0.875488	-0.096191	0.666516	-0.151173	0.514082	-0.518288
31632		-5.322621	-7.450163	4.046752	-0.148942	-0.043723	0.069871	0.491943	0.874756	-0.094482	0.666823	-0.151918	0.514596	-0.517164
31633		-5.079060	-7.115785	4.395669	-0.082686	-0.064703	0.075775	0.488037	0.884521	-0.092773	0.667358	-0.152263	0.514748	-0.516221
31634		-4.952504	-7.144359	4.374765	-0.101898	-0.059843	0.090656	0.484375	0.871826	-0.090088	0.667890	-0.152730	0.515011	-0.515131
31635		-4.961202	-7.395915	4.259834	-0.066557	-0.034056	0.108794	0.482422	0.883057	-0.089600	0.668430	-0.152796	0.515296	-0.514126
31636		-5.130236	-7.450687	4.302081	-0.055886	-0.001343	0.124533	0.489258	0.876953	-0.091064	0.668892	-0.152682	0.515714	-0.513138
31637		-5.155230	-7.199465	4.350146	0.011343	0.001077	0.121955	0.493164	0.878662	-0.093262	0.669436	-0.152114	0.515854	-0.512457
31638		-5.207896	-7.140549	4.093181	0.071625	-0.018473	0.101288	0.489990	0.873779	-0.092773	0.670056	-0.151368	0.515588	-0.512135
31639		-5.172141	-7.028309	3.867546	0.086367	-0.038253	0.065253	0.499023	0.876221	-0.084717	0.670615	-0.150801	0.515106	-0.512055
31640		-4.944848	-6.789758	4.346547	0.001467	-0.036630	0.038373	0.497559	0.874512	-0.090088	0.670950	-0.150835	0.515048	-0.511664
31641		-4.727232	-7.035961	4.300085	-0.133998	0.031743	0.033026	0.495361	0.877441	-0.078857	0.670801	-0.151332	0.515900	-0.510854
31642		-4.925612	-7.361643	4.045206	-0.098786	0.065779	0.051207	0.503174	0.874023	-0.087891	0.670610	-0.151503	0.516867	-0.510077
31643		-5.406364	-7.078281	4.130278	0.103011	0.005480	0.030617	0.497559	0.881592	-0.088623	0.670871	-0.150753	0.516551	-0.510274
31644		-5.399740	-6.422925	4.217585	-0.002323	0.030748	-0.020075	0.492920	0.876953	-0.087891	0.670662	-0.150797	0.516742	-0.510343
31645		-5.301389	-6.395012	3.821096	-0.069954	0.050080	-0.069084	0.491699	0.874512	-0.085205	0.670070	-0.151352	0.517263	-0.510429
31646		-5.228668	-6.913589	3.827557	-0.069463	0.040265	-0.089903	0.500244	0.887695	-0.084961	0.669428	-0.152023	0.517712	-0.510617
31647		-5.237617	-7.256882	4.170136	0.028135	-0.004872	-0.085375	0.492188	0.878418	-0.085449	0.669137	-0.152308	0.517504	-0.511124
31648		-5.583776	-7.308710	4.147476	0.042734	-0.004922	-0.095737	0.494873	0.875000	-0.085938	0.668812	-0.152552	0.517211	-0.511773
31649		-5.639785	-6.991736	4.054529	0.070373	-0.014595	-0.117218	0.489502	0.875488	-0.084717	0.668476	-0.152720	0.516733	-0.512643
31650		-5.422205	-7.017369	3.955583	-0.042285	0.003727	-0.124381	0.488525	0.882568	-0.085938	0.667879	-0.153505	0.516836	-0.513083
31651		-5.317446	-7.343763	4.043766	0.062798	-0.044958	-0.104878	0.489258	0.878418	-0.095703	0.667711	-0.153843	0.516227	-0.513814
31652		-5.455383	-7.644314	4.005740	0.054967	-0.058490	-0.067672	0.487549	0.876953	-0.088623	0.667763	-0.154031	0.515574	-0.514344
31653		-5.262583	-7.069493	4.208924	0.089825	-0.073764	-0.067136	0.483398	0.875488	-0.089111	0.667915	-0.154130	0.514746	-0.514946
31654		-5.146994	-6.787735	4.236649	0.123690	-0.052277	-0.104169	0.483398	0.874756	-0.095703	0.667853	-0.154126	0.513846	-0.515926
31655		-4.944699	-6.973455	4.392377	0.069807	-0.025137	-0.114317	0.482178	0.885010	-0.094482	0.667569	-0.154305	0.513289	-0.516793
31656		-4.720229	-7.277655	4.240685	0.030994	-0.032196	-0.097224	0.479736	0.884033	-0.096436	0.667336	-0.154717	0.512891	-0.517367
31657		-4.914426	-7.551688	4.402239	0.102116	-0.052923	-0.089366	0.477539	0.887451	-0.095703	0.667317	-0.154782	0.512068	-0.518186
31658		-5.105427	-7.510852	3.936502	0.187710	-0.061987	-0.110566	0.472168	0.880859	-0.103516	0.667350	-0.154535	0.510810	-0.519458
31659		-5.172290	-7.345978	4.437913	0.186370	-0.049259	-0.099323	0.476318	0.887451	-0.099121	0.667375	-0.154156	0.509607	-0.520719
31660		-4.916723	-7.005848	4.603227	0.142585	-0.050834	-0.058734	0.480957	0.893799	-0.104736	0.667521	-0.153884	0.508696	-0.521502
31661		-4.785654	-6.861236	4.667775	0.032735	0.014402	0.001009	0.477539	0.881348	-0.109131	0.667521	-0.153663	0.508686	-0.521576
31662		-5.044582	-7.101826	4.338344	-0.089561	0.099490	-0.005429	0.476318	0.885498	-0.108643	0.666978	-0.153720	0.509644	-0.521319
31663		-5.023562	-7.340241	4.331433	-0.084577	0.081944	-0.034798	0.465820	0.885010	-0.104004	0.666389	-0.153973	0.510427	-0.521231
31664		-4.834002	-7.772620	4.587191	-0.035088	0.046991	-0.025495	0.471436	0.886230	-0.106445	0.666035	-0.154141	0.510808	-0.521261
31665		-4.726149	-7.720621	4.346050	0.086086	0.018377	0.027033	0.474365	0.882568	-0.100342	0.666199	-0.153487	0.510561	-0.521486
31666		-5.004535	-7.628155	4.714592	0.125234	0.062043	0.059901	0.468506	0.877197	-0.113281	0.666363	-0.152289	0.510482	-0.521706
31667		-5.229061	-6.966784	4.023674	0.168699	0.107038	0.040590	0.479492	0.888672	-0.108887	0.666315	-0.150705	0.510348	-0.522358
31668		-5.121087	-6.727282	3.916108	0.120122	0.089135	-0.016800	0.476318	0.885254	-0.102539	0.666033	-0.149732	0.510308	-0.523034
31669		-4.825477	-6.723105	4.191529	-0.016980	0.090358	-0.033978	0.475586	0.887695	-0.112305	0.665482	-0.149622	0.510897	-0.523194
31670		-4.887382	-7.190420	4.387800	-0.054044	0.099749	-0.005093	0.480957	0.883789	-0.101562	0.664989	-0.149519	0.511660	-0.523105
31671		-5.114897	-7.611691	4.472134	-0.049404	0.070701	0.038434	0.485352	0.876709	-0.101074	0.664807	-0.149320	0.512368	-0.522700
31672		-5.256409	-7.583949	4.235386	0.015771	0.052493	0.078596	0.475342	0.877197	-0.108398	0.664968	-0.148613	0.512744	-0.522327
31673		-5.556149	-7.549840	3.992501	0.081432	0.027122	0.036682	0.479248	0.875732	-0.102295	0.665131	-0.147875	0.512570	-0.522500
31674		-5.473774	-7.321777	4.148533	0.179363	-0.019169	-0.026931	0.476074	0.885986	-0.109375	0.665327	-0.147073	0.511688	-0.523340
31675		-5.141071	-6.817482	4.757543	0.114486	-0.044186	-0.045071	0.479736	0.881104	-0.113281	0.665469	-0.146858	0.510889	-0.524000
31676		-4.831623	-6.785825	4.288037	0.002358	-0.017554	0.005650	0.475342	0.889160	-0.106689	0.665595	-0.146878	0.510786	-0.523935
31677		-4.859856	-7.203575	4.228946	0.019087	0.022637	0.051573	0.480957	0.879639	-0.114746	0.665747	-0.146520	0.510922	-0.523710
31678		-5.069081	-7.564187	4.581824	0.119568	0.067516	0.081725	0.483887	0.884521	-0.109375	0.665989	-0.145185	0.510864	-0.523830
31679		-5.251416	-7.379702	4.779108	0.186607	0.078734	0.078337	0.469971	0.871338	-0.114014	0.666237	-0.143486	0.510613	-0.524228
31680		-5.266183	-7.132853	4.469071	0.237629	0.076826	0.068792	0.487061	0.880859	-0.118896	0.666492	-0.141574	0.510075	-0.524946
31681		-5.130135	-6.968207	4.406512	0.230343	0.037396	0.048636	0.484131	0.873535	-0.123535	0.666844	-0.139910	0.509335	-0.525663
31682		-4.912791	-6.795530	4.287658	0.125406	0.042038	0.036543	0.486816	0.872070	-0.122070	0.667000	-0.138849	0.509049	-0.526023
31683		-4.895141	-6.817699	4.410102	0.081904	0.052332	0.033401	0.489014	0.878906	-0.128906	0.667047	-0.137996	0.509029	-0.526207
31684		-5.054758	-6.979605	4.633838	0.014769	0.055729	0.054399	0.475098	0.881348	-0.125488	0.667105	-0.137413	0.509308	-0.526017
31685		-5.253594	-7.146925	4.617287	0.007500	0.026363	0.088202	0.488525	0.872314	-0.122559	0.667385	-0.136946	0.509492	-0.525605
31686		-5.250423	-7.292349	4.612950	0.049400	0.012036	0.092323	0.483398	0.872070	-0.121582	0.667821	-0.136216	0.509453	-0.525279
31687		-5.280233	-7.200701	4.310250	0.114776	0.074388	0.056449	0.489990	0.869385	-0.121826	0.667889	-0.135039	0.509435	-0.525514
31688		-5.239741	-6.921165	4.466767	0.113064	0.055393	0.008770	0.490967	0.878174	-0.128174	0.667840	-0.134127	0.509276	-0.525963
31689		-5.081689	-6.692643	4.280557	0.087490	0.044353	-0.004390	0.483643	0.874756	-0.122070	0.667755	-0.133474	0.509121	-0.526388
31690		-4.940143	-6.594892	4.139843	0.116947	0.064736	0.002252	0.486816	0.873047	-0.128906	0.667613	-0.132580	0.508992	-0.526917
31691		-5.128038	-6.631551	4.440563	0.116146	0.095992	-0.007926	0.493408	0.873779	-0.126221	0.667316	-0.131562	0.508996	-0.527545
31692		-5.248265	-6.670629	4.560888	0.065858	0.118486	-0.016281	0.486816	0.879150	-0.131592	0.666836	-0.130745	0.509367	-0.527997
31693		-5.378607	-6.666135	4.648777	-0.023510	0.145918	-0.023624	0.498779	0.875977	-0.132324	0.666101	-0.130366	0.510232	-0.528183
31694		-5.363885	-6.933655	4.229874	-0.046159	0.153028	-0.031451	0.495361	0.878662	-0.125732	0.665315	-0.130047	0.511226	-0.528291
31695		-5.340527	-7.133398	4.254899	-0.005245	0.122129	-0.052408	0.494385	0.868896	-0.133789	0.664588	-0.129758	0.511872	-0.528652
31696		-5.411368	-7.152107	4.211069	0.062879	0.109656	-0.062935	0.498291	0.865234	-0.124268	0.663977	-0.129143	0.512076	-0.529372
31697		-5.475806	-6.880912	4.535236	0.048926	0.095636	-0.093809	0.495361	0.870117	-0.129395	0.663266	-0.128795	0.512297	-0.530133
31698		-5.360578	-6.572052	4.362156	0.062521	0.099584	-0.079334	0.485596	0.874512	-0.120605	0.662619	-0.128298	0.512460	-0.530905
31699		-5.308712	-6.555336	4.333892	0.083049	0.102091	-0.076020	0.486572	0.872559	-0.132324	0.661943	-0.127728	0.512597	-0.531753
31700		-5.273972	-6.810378	4.374722	0.066443	0.093682	-0.069318	0.497070	0.868164	-0.135986	0.661351	-0.127216	0.512697	-0.532515
31701		-5.324121	-7.026843	4.543249	0.046730	0.090972	-0.064500	0.485840	0.873535	-0.118652	0.660822	-0.126747	0.512861	-0.533125
31702		-5.392439	-7.164115	4.587725	0.025703	0.093469	-0.069409	0.489014	0.875000	-0.132080	0.660156	-0.126495	0.513228	-0.533658
31703		-5.335040	-7.051679	4.607388	-0.030508	0.084557	-0.067020	0.479736	0.880859	-0.124268	0.659521	-0.126536	0.513715	-0.533965
31704		-5.253365	-7.017085	4.198639	0.036346	0.047656	-0.039631	0.479004	0.878418	-0.130371	0.659182	-0.126311	0.513767	-0.534386
31705		-5.182763	-7.110026	4.244533	0.082036	0.065090	-0.034441	0.480469	0.876709	-0.130615	0.658858	-0.125715	0.513678	-0.535011
31706		-5.158866	-7.159363	4.401502	0.057707	0.066678	-0.038366	0.490234	0.872803	-0.131592	0.658492	-0.125255	0.513706	-0.535542
31707		-5.183714	-7.076706	4.579528	-0.012023	0.077827	-0.030690	0.486328	0.876953	-0.131104	0.658088	-0.125062	0.514115	-0.535692
31708		-5.080992	-6.929035	4.476523	-0.049782	0.106646	-0.009664	0.483398	0.873535	-0.122559	0.657593	-0.124874	0.514870	-0.535619
31709		-5.162129	-6.933359	4.185817	0.034235	0.090011	0.001555	0.484863	0.873535	-0.128906	0.657286	-0.124271	0.515209	-0.535809
31710		-5.248108	-7.135842	4.359074	0.007786	0.089286	-0.028663	0.482178	0.867920	-0.122314	0.656839	-0.123927	0.515591	-0.536069
31711		-5.264441	-7.251491	4.406261	-0.034331	0.094050	-0.041051	0.482178	0.873291	-0.126221	0.656263	-0.123858	0.516208	-0.536198
31712		-5.259581	-7.157694	4.380106	-0.059888	0.093943	-0.032664	0.488281	0.878174	-0.124512	0.655698	-0.123887	0.516917	-0.536199
31713		-5.272170	-7.055487	4.109825	-0.002708	0.071099	-0.000131	0.473877	0.877441	-0.126953	0.655453	-0.123564	0.517284	-0.536219
31714		-5.524961	-7.029776	4.302251	0.034126	0.049903	-0.001211	0.483154	0.876709	-0.131592	0.655272	-0.123150	0.517348	-0.536473
31715		-5.522409	-6.914661	4.261163	0.006217	0.071947	-0.018328	0.482178	0.879883	-0.120605	0.654948	-0.122842	0.517615	-0.536683
31716		-5.402016	-7.053486	4.242475	0.044804	0.040597	-0.017648	0.478516	0.881348	-0.123047	0.654763	-0.122488	0.517604	-0.536999
31717		-5.246464	-7.113754	4.398478	-0.005435	0.066705	-0.010423	0.481934	0.879883	-0.127197	0.654430	-0.122260	0.517956	-0.537118
31718		-5.268393	-7.044041	4.466064	0.007846	0.055640	0.002715	0.482910	0.876465	-0.123779	0.654250	-0.121939	0.518172	-0.537201
31719		-5.380244	-6.957819	4.262604	-0.007978	0.075325	-0.001244	0.485352	0.884521	-0.125000	0.653959	-0.121639	0.518579	-0.537231
31720		-5.430891	-7.050839	4.091552	0.040874	0.081430	-0.006984	0.496094	0.875244	-0.122803	0.653656	-0.121068	0.518789	-0.537526
31721		-5.492095	-7.128217	4.316398	0.036880	0.071854	-0.014626	0.493896	0.872070	-0.119385	0.653438	-0.120594	0.518962	-0.537731
31722		-5.308323	-7.123667	4.306845	0.042637	0.056415	-0.002158	0.477295	0.878662	-0.128174	0.653337	-0.120111	0.519056	-0.537871
31723		-5.265178	-7.168875	4.210579	0.055580	0.073518	0.023851	0.487305	0.881104	-0.127197	0.653192	-0.119349	0.519169	-0.538106
31724		-5.429025	-7.098377	4.370013	0.028379	0.059346	0.019942	0.487305	0.883545	-0.129395	0.653108	-0.118823	0.519331	-0.538170
31725		-5.459280	-6.951704	4.198257	0.039103	0.033849	0.012208	0.482666	0.881836	-0.121826	0.653102	-0.118381	0.519288	-0.538315
31726		-5.355373	-7.010617	4.296008	0.080067	0.018687	0.021161	0.491455	0.879883	-0.137451	0.653201	-0.117761	0.519034	-0.538576
31727		-5.288996	-6.928389	4.323423	0.087287	0.035229	0.024165	0.487061	0.871094	-0.127930	0.653339	-0.116991	0.518752	-0.538849
31728		-5.258244	-6.779115	4.253358	0.064255	0.042107	0.029152	0.492432	0.873535	-0.127930	0.653423	-0.116315	0.518671	-0.538971
31729		-5.304433	-6.829937	4.325767	0.025343	0.052747	0.019501	0.482422	0.884521	-0.125244	0.653397	-0.115849	0.518818	-0.538961
31730		-5.355849	-7.040895	4.361796	0.028610	0.037462	0.005732	0.483643	0.873047	-0.122070	0.653263	-0.115484	0.518885	-0.539138
31731		-5.351868	-7.006494	4.281302	0.051799	0.008420	-0.006021	0.482910	0.875977	-0.126953	0.653268	-0.115188	0.518686	-0.539387
31732		-5.370321	-6.873899	4.290418	0.034586	-0.008510	-0.012106	0.484131	0.874023	-0.125977	0.653295	-0.115077	0.518445	-0.539608
31733		-5.438293	-6.835641	4.200641	0.046547	0.009531	0.009065	0.485107	0.879150	-0.127930	0.653365	-0.114735	0.518276	-0.539760
31734		-5.647564	-6.927787	4.196780	0.058614	0.005160	0.009292	0.491943	0.875732	-0.119873	0.653452	-0.114341	0.518026	-0.539977
31735		-5.517472	-6.872987	4.208179	0.051031	-0.015171	-0.001906	0.489014	0.875977	-0.133301	0.653605	-0.114154	0.517733	-0.540113
31736		-5.391999	-6.838488	4.392985	0.055357	-0.015925	-0.016745	0.484131	0.879395	-0.126953	0.653706	-0.113985	0.517333	-0.540409
31737		-5.362096	-6.859639	4.370223	0.043556	-0.020946	-0.018497	0.485107	0.871094	-0.132812	0.653748	-0.113912	0.517005	-0.540687
31738		-5.378899	-6.758674	4.281477	0.031967	-0.034061	-0.017764	0.483154	0.872559	-0.127930	0.653895	-0.113961	0.516620	-0.540868
31739		-5.320994	-6.624344	4.172937	0.025132	-0.011106	-0.032061	0.480713	0.876953	-0.129150	0.653840	-0.114009	0.516413	-0.541122
31740		-5.433273	-6.833170	4.352835	0.001297	0.003889	-0.037729	0.479736	0.880615	-0.134766	0.653643	-0.114135	0.516391	-0.541355
31741		-5.389280	-6.917781	4.407230	-0.008088	-0.002288	-0.036391	0.488281	0.883057	-0.130859	0.653467	-0.114322	0.516351	-0.541565
31742		-5.355237	-6.834213	4.304181	0.026344	-0.019345	-0.037130	0.484131	0.877930	-0.136719	0.653437	-0.114421	0.516080	-0.541840
31743		-5.449225	-6.905349	4.310198	0.019497	-0.030393	-0.032858	0.484131	0.881348	-0.133545	0.653480	-0.114582	0.515750	-0.542067
31744		-5.502320	-7.069893	4.281389	0.013664	-0.026666	-0.027450	0.477051	0.869141	-0.133301	0.653504	-0.114736	0.515498	-0.542245
31745		-5.558965	-7.149755	4.364399	0.022907	-0.047878	-0.018967	0.482910	0.879395	-0.137695	0.653674	-0.114903	0.515090	-0.542393
31746		-5.508715	-7.045134	4.409178	0.022832	-0.076987	-0.017666	0.485352	0.871826	-0.133057	0.653982	-0.115191	0.514513	-0.542509
31747		-5.254469	-6.749875	4.446228	0.044483	-0.079780	-0.018408	0.477783	0.872803	-0.140869	0.654355	-0.115398	0.513842	-0.542650
31748		-5.153654	-6.798868	4.507353	0.030790	-0.052376	-0.003354	0.487793	0.871338	-0.132812	0.654630	-0.115468	0.513367	-0.542753
31749		-5.135715	-6.972077	4.501114	-0.035686	-0.020799	0.016495	0.478271	0.879883	-0.131592	0.654848	-0.115707	0.513424	-0.542385
31750		-5.239717	-7.093085	4.507315	-0.034465	-0.013236	0.019578	0.492432	0.868408	-0.140381	0.654938	-0.115859	0.513543	-0.542132
31751		-5.334413	-7.042135	4.456418	0.000585	-0.033631	0.009776	0.478516	0.871582	-0.135498	0.655278	-0.115990	0.513307	-0.541916
31752		-5.332134	-7.002233	4.431258	0.015151	-0.040854	0.004519	0.483154	0.877441	-0.139648	0.655510	-0.116067	0.513004	-0.541905
31753		-5.284508	-6.928414	4.421463	0.015709	-0.026237	0.016742	0.490479	0.871826	-0.132080	0.655751	-0.116020	0.512775	-0.541841
31754		-5.320892	-6.936548	4.388757	0.013581	-0.033039	0.028036	0.487549	0.877930	-0.135986	0.656123	-0.116001	0.512561	-0.541597
31755		-5.299344	-6.813328	4.405503	0.021037	-0.027960	0.016321	0.482422	0.873291	-0.132080	0.656384	-0.115947	0.512321	-0.541520
31756		-5.290000	-6.711685	4.511760	0.021545	-0.030841	0.002266	0.489258	0.876953	-0.142578	0.656565	-0.115962	0.512072	-0.541533
31757		-5.190094	-6.725060	4.467550	-0.020512	-0.002427	-0.001300	0.494629	0.879150	-0.141357	0.656622	-0.116092	0.512111	-0.541399
31758		-5.211173	-6.917056	4.316628	-0.018439	0.008457	0.001682	0.477783	0.881592	-0.140625	0.656673	-0.116158	0.512207	-0.541232
31759		-5.358836	-6.956471	4.335273	-0.018953	0.008372	-0.006399	0.484375	0.875244	-0.143311	0.656558	-0.116222	0.512315	-0.541255
31760		-5.421417	-6.780420	4.479349	-0.038160	-0.006463	-0.017442	0.485596	0.870117	-0.135986	0.656520	-0.116525	0.512390	-0.541166
31761		-5.426982	-6.819927	4.525046	-0.026678	-0.021586	-0.017461	0.485107	0.873291	-0.139648	0.656574	-0.116853	0.512359	-0.541059
31762		-5.373559	-7.034805	4.376723	-0.009182	-0.013580	-0.008505	0.488281	0.875244	-0.142334	0.656644	-0.117000	0.512285	-0.541011
31763		-5.296141	-7.065730	4.323880	-0.002600	-0.009675	-0.007066	0.484375	0.877197	-0.137695	0.656731	-0.117089	0.512190	-0.540977
31764		-5.301068	-6.941242	4.358799	0.006596	-0.027825	-0.005254	0.483154	0.877441	-0.137939	0.656866	-0.117196	0.511987	-0.540982
31765		-5.307550	-6.866945	4.402946	0.004005	-0.052730	-0.013657	0.482178	0.881104	-0.139893	0.657057	-0.117462	0.511653	-0.541008
31766		-5.305726	-6.820747	4.434175	0.023810	-0.058622	-0.016433	0.489014	0.873535	-0.138184	0.657263	-0.117650	0.511191	-0.541153
31767		-5.307995	-6.778487	4.431055	0.026782	-0.046602	-0.017009	0.483643	0.870605	-0.136963	0.657496	-0.117802	0.510780	-0.541226
31768		-5.302186	-6.702971	4.376084	-0.030260	-0.043974	-0.022062	0.480957	0.873291	-0.135986	0.657611	-0.118270	0.510645	-0.541111
31769		-5.355227	-6.781979	4.372145	-0.072095	-0.036997	-0.023128	0.481934	0.884521	-0.134766	0.657621	-0.118932	0.510747	-0.540859
31770		-5.370010	-7.062882	4.291796	-0.049162	-0.049181	-0.021203	0.483887	0.874023	-0.137207	0.657675	-0.119503	0.510693	-0.540717
31771		-5.361736	-7.150590	4.367106	0.014089	-0.081268	-0.026238	0.477295	0.879639	-0.143066	0.657974	-0.119910	0.510146	-0.540781
31772		-5.294575	-6.993142	4.492913	0.075388	-0.099444	-0.042539	0.477783	0.878418	-0.139893	0.658282	-0.120103	0.509192	-0.541261
31773		-5.159423	-6.815030	4.544746	0.070073	-0.096263	-0.045376	0.478516	0.873291	-0.146729	0.658562	-0.120335	0.508299	-0.541708
31774		-5.143941	-6.676306	4.580054	0.003909	-0.079102	-0.049894	0.472168	0.880371	-0.140381	0.658728	-0.120877	0.507760	-0.541891
31775		-5.176379	-6.716473	4.319680	-0.054068	-0.062057	-0.045297	0.482910	0.876465	-0.144043	0.658701	-0.121626	0.507630	-0.541879
31776		-5.230025	-6.880426	4.338720	-0.081411	-0.043880	-0.035432	0.483398	0.867188	-0.154297	0.658721	-0.122432	0.507698	-0.541609
31777		-5.378190	-7.080018	4.559618	-0.091518	-0.053916	-0.038380	0.475830	0.870117	-0.140381	0.658832	-0.123354	0.507685	-0.541276
31778		-5.444601	-7.271246	4.565515	-0.061046	-0.084119	-0.031520	0.474121	0.882080	-0.141846	0.659043	-0.124209	0.507451	-0.541043
31779		-5.391531	-7.306284	4.500467	-0.028281	-0.112355	-0.028289	0.470703	0.878174	-0.141357	0.659367	-0.124975	0.506923	-0.540967
31780		-5.252747	-7.058464	4.532079	-0.024421	-0.122325	-0.025220	0.479980	0.877441	-0.140625	0.659746	-0.125753	0.506328	-0.540882
31781		-5.114749	-6.950286	4.473392	-0.014517	-0.127804	-0.022058	0.465332	0.877686	-0.146973	0.660243	-0.126516	0.505658	-0.540724
31782		-4.940034	-6.908619	4.507130	-0.038397	-0.102495	-0.018298	0.462402	0.890625	-0.144043	0.660536	-0.127236	0.505224	-0.540603
31783		-4.949433	-6.879744	4.429750	-0.038862	-0.087839	-0.010359	0.474854	0.876709	-0.136475	0.660726	-0.127839	0.504913	-0.540519
31784		-5.112737	-7.048006	4.342069	-0.050165	-0.087024	-0.000181	0.474609	0.875488	-0.145996	0.661079	-0.128523	0.504678	-0.540146
31785		-5.171342	-7.201149	4.417193	-0.079886	-0.070832	0.003949	0.477051	0.878906	-0.137451	0.661377	-0.129271	0.504621	-0.539655
31786		-5.237981	-7.274962	4.634563	-0.048086	-0.064145	0.008521	0.475098	0.881348	-0.146729	0.661686	-0.129805	0.504503	-0.539258
31787		-5.300504	-7.188143	4.706696	-0.059312	-0.099385	0.011118	0.473145	0.876221	-0.136230	0.662138	-0.130527	0.504203	-0.538809
31788		-5.146618	-7.154097	4.384959	0.019616	-0.129200	0.024668	0.474609	0.878662	-0.143799	0.662847	-0.130907	0.503444	-0.538555
31789		-5.162983	-7.123596	4.530194	0.018569	-0.086362	0.017749	0.480469	0.874512	-0.141357	0.663355	-0.131119	0.502890	-0.538396
31790		-5.108479	-6.823109	4.643672	-0.059987	-0.091363	-0.012599	0.471680	0.886230	-0.140381	0.663708	-0.131940	0.502634	-0.537998
31791		-4.953044	-6.749047	4.457217	-0.022521	-0.092569	-0.004995	0.466309	0.881836	-0.148682	0.664036	-0.132493	0.502235	-0.537830
31792		-4.924894	-6.942559	4.652149	-0.092251	-0.040428	0.013564	0.472412	0.880127	-0.137939	0.664151	-0.133101	0.502419	-0.537366
31793		-4.895638	-7.025400	4.664481	-0.123347	-0.006207	0.013418	0.473877	0.880615	-0.138672	0.664115	-0.133760	0.502970	-0.536731
31794		-5.004459	-7.342162	4.646655	-0.071068	-0.038747	0.023035	0.467285	0.879395	-0.143066	0.664329	-0.134235	0.503104	-0.536222
31795		-5.089753	-7.351540	4.629362	-0.089508	-0.042412	0.019404	0.478271	0.881104	-0.138428	0.664492	-0.134822	0.503276	-0.535712
31796		-5.117238	-7.175007	4.476105	-0.031133	-0.057452	0.020830	0.479492	0.882080	-0.144775	0.664845	-0.135176	0.503116	-0.535335
31797		-5.097436	-7.144586	4.593005	-0.012891	-0.038667	0.023605	0.478760	0.878174	-0.143066	0.665167	-0.135324	0.502952	-0.535051
31798		-5.045839	-7.171599	4.605550	-0.042678	-0.020669	0.026981	0.471191	0.875000	-0.138184	0.665399	-0.135548	0.503031	-0.534632
31799		-5.038052	-7.181757	4.529076	-0.040377	-0.025565	0.033623	0.475098	0.878662	-0.142334	0.665634	-0.135746	0.503102	-0.534221
31800		-5.051736	-7.188936	4.525112	-0.012187	-0.035253	0.039149	0.482666	0.878418	-0.137695	0.665982	-0.135803	0.502982	-0.533887
31801		-4.863788	-6.945168	4.557453	0.038925	-0.009656	0.037111	0.472168	0.879639	-0.135742	0.666308	-0.135496	0.502790	-0.533739
31802		-4.839222	-6.621223	4.449027	0.050046	0.011988	0.045487	0.477051	0.875732	-0.143066	0.666509	-0.134973	0.502699	-0.533706
31803		-4.935503	-6.514079	4.584139	0.068610	0.031876	0.061847	0.475830	0.873047	-0.138184	0.666774	-0.134192	0.502617	-0.533649
31804		-5.262907	-6.806685	4.865826	-0.141474	0.053095	0.052996	0.480957	0.879150	-0.130615	0.666657	-0.134527	0.503602	-0.532782
31805		-5.284641	-7.099786	4.342028	-0.315478	0.095612	0.062556	0.480713	0.883545	-0.128418	0.666200	-0.135610	0.505629	-0.531157
31806		-5.187249	-7.291574	4.295407	-0.191710	0.052591	0.059654	0.482422	0.880859	-0.123047	0.666027	-0.136193	0.506854	-0.530055
31807		-5.206916	-7.400346	4.417063	-0.127355	0.049566	0.059911	0.486328	0.877930	-0.122070	0.665950	-0.136440	0.507784	-0.529198
31808		-5.267531	-7.486979	4.389640	-0.117260	0.037229	0.059742	0.486328	0.873535	-0.115723	0.665965	-0.136692	0.508589	-0.528340
31809		-5.318588	-7.340502	4.224128	-0.090116	0.060112	0.061454	0.480713	0.880615	-0.122559	0.665922	-0.136696	0.509418	-0.527594
31810		-5.333660	-6.977363	4.252340	-0.040391	-0.001643	0.053507	0.476562	0.877686	-0.118408	0.666110	-0.136693	0.509651	-0.527132
31811		-5.222359	-6.665686	4.434372	-0.035990	-0.054808	0.048697	0.487061	0.869629	-0.116455	0.666480	-0.136918	0.509580	-0.526675
31812		-5.221762	-6.805234	4.246827	-0.119115	-0.013643	0.064230	0.484131	0.877197	-0.113281	0.666733	-0.137388	0.510113	-0.525715
31813		-5.170785	-7.099857	4.446243	-0.209760	0.011620	0.068367	0.488281	0.879883	-0.115967	0.666735	-0.138218	0.511205	-0.524433
31814		-5.063132	-6.957540	4.578845	-0.239758	0.075768	0.091254	0.481201	0.886230	-0.107178	0.666546	-0.138831	0.512783	-0.522969
31815		-5.149079	-6.719622	4.506092	-0.254334	0.138295	0.096372	0.496826	0.875488	-0.101074	0.666006	-0.139210	0.514807	-0.521565
31816		-5.218871	-6.716631	4.017320	-0.261914	0.126389	0.077839	0.483643	0.880859	-0.103027	0.665541	-0.139802	0.516759	-0.520068
31817		-5.352438	-6.921449	3.688294	-0.178311	0.081996	0.026712	0.499756	0.884766	-0.096191	0.665051	-0.140298	0.518025	-0.519301
31818		-5.492798	-7.188402	4.001348	-0.095420	0.049026	-0.005873	0.496338	0.874512	-0.096680	0.664723	-0.140647	0.518720	-0.518933
31819		-5.351433	-7.285060	4.473273	-0.072409	-0.030266	-0.003499	0.495117	0.878174	-0.091309	0.664800	-0.141206	0.518861	-0.518542
31820		-5.158992	-7.315479	4.360284	-0.178765	0.008100	0.049105	0.496582	0.877930	-0.091553	0.664780	-0.141957	0.519760	-0.517461
31821		-5.088326	-7.350966	4.136134	-0.181823	0.093670	0.139721	0.502197	0.874268	-0.088379	0.664787	-0.141963	0.521236	-0.515962
31822		-5.390601	-6.930360	3.940162	-0.131982	0.094391	0.154669	0.503662	0.866699	-0.076172	0.664943	-0.141638	0.522511	-0.514560
31823		-5.656704	-6.561956	4.094248	-0.118920	0.061567	0.095764	0.502686	0.871582	-0.084961	0.664996	-0.141651	0.523514	-0.513467
31824		-5.516021	-6.636511	3.985666	-0.159911	0.026753	0.009578	0.502197	0.878662	-0.080322	0.664774	-0.142392	0.524355	-0.512690
31825		-5.331670	-7.177754	3.914912	-0.177411	-0.000237	-0.020062	0.504395	0.887695	-0.077393	0.664486	-0.143463	0.525102	-0.512001
31826		-5.259068	-7.385708	3.699510	-0.124328	-0.034864	0.002656	0.507812	0.878174	-0.073486	0.664490	-0.144279	0.525464	-0.511394
31827		-5.305239	-7.451251	4.005641	-0.051416	-0.077305	0.026399	0.497803	0.876465	-0.074219	0.664917	-0.144795	0.525307	-0.510855
31828		-5.545138	-7.349402	4.089858	-0.037520	-0.070867	0.027226	0.499268	0.877197	-0.068848	0.665283	-0.145176	0.525132	-0.510449
31829		-5.639264	-7.060110	3.967157	-0.070887	-0.053608	0.040917	0.506592	0.875000	-0.078125	0.665578	-0.145611	0.525237	-0.509833
31830		-5.364819	-6.681512	3.795417	-0.159641	0.013500	0.024769	0.505859	0.882568	-0.065674	0.665478	-0.146345	0.526014	-0.508952
31831		-5.271613	-6.733029	3.484744	-0.140864	-0.045321	-0.030790	0.506348	0.880615	-0.066895	0.665356	-0.147448	0.526374	-0.508421
31832		-5.246251	-6.864217	3.661162	-0.111589	-0.096840	-0.087821	0.497070	0.874268	-0.066162	0.665275	-0.148864	0.526235	-0.508257
31833		-5.341965	-7.130968	3.994689	-0.069071	-0.102857	-0.098613	0.500732	0.875000	-0.067383	0.665206	-0.150105	0.525871	-0.508359
31834		-5.526302	-7.786976	4.174688	-0.026376	-0.099844	-0.068626	0.497070	0.882324	-0.071777	0.665340	-0.150982	0.525366	-0.508447
31835		-5.240607	-7.724324	4.794265	-0.050358	-0.082632	-0.017239	0.497803	0.880127	-0.075684	0.665557	-0.151672	0.525113	-0.508218
31836		-5.272021	-7.591014	4.409732	-0.043564	0.009774	0.042411	0.499512	0.885254	-0.057129	0.665660	-0.151684	0.525396	-0.507787
31837		-5.378264	-7.490925	3.656138	0.027346	0.019689	0.038041	0.498047	0.880859	-0.066162	0.665715	-0.151262	0.525520	-0.507713
31838		-5.401128	-7.169348	3.691101	0.032916	0.011756	0.007705	0.496826	0.882324	-0.070801	0.665717	-0.150981	0.525493	-0.507822
31839		-5.276711	-6.591161	3.884990	0.045247	-0.024237	-0.050449	0.498535	0.873779	-0.065918	0.665645	-0.151033	0.525124	-0.508282
31840		-4.967902	-6.883105	4.043666	-0.005927	-0.020596	-0.059545	0.493408	0.877930	-0.070068	0.665483	-0.151416	0.524993	-0.508515
31841		-4.875187	-7.456400	3.984527	0.032850	-0.015521	-0.013364	0.500732	0.872803	-0.067139	0.665517	-0.151340	0.524776	-0.508717
31842		-5.312721	-7.494025	3.815140	0.119567	-0.029715	0.000589	0.496582	0.873535	-0.076660	0.665838	-0.150821	0.524127	-0.509121
31843		-5.756592	-7.352632	3.924492	0.133022	-0.022659	-0.033017	0.496582	0.875488	-0.069092	0.665999	-0.150335	0.523387	-0.509814
31844		-5.500803	-6.824854	4.162902	-0.002771	-0.003228	-0.077102	0.493164	0.874756	-0.075684	0.665676	-0.150697	0.523328	-0.510190
31845		-5.021433	-6.869491	4.179062	-0.079052	0.021494	-0.049484	0.488525	0.881104	-0.077393	0.665282	-0.151256	0.523733	-0.510123
31846		-5.153835	-7.697177	3.894510	-0.094461	0.057062	0.018771	0.502441	0.882324	-0.075195	0.664964	-0.151423	0.524487	-0.509713
31847		-5.266942	-7.800425	3.709158	0.017295	-0.027246	0.038246	0.500244	0.882080	-0.075439	0.665321	-0.151299	0.524301	-0.509475
31848		-5.545098	-7.418876	3.815178	0.142764	-0.061809	-0.016940	0.489014	0.882568	-0.066162	0.665733	-0.150856	0.523327	-0.510069
31849		-5.571684	-6.745649	4.043828	0.143007	-0.080613	-0.094941	0.497070	0.875244	-0.071777	0.665770	-0.150760	0.522234	-0.511169
31850		-5.212296	-6.668870	4.131947	0.034085	-0.070505	-0.104267	0.499756	0.878174	-0.077393	0.665694	-0.151337	0.521601	-0.511743
31851		-4.828295	-7.533385	4.024544	-0.021261	-0.016086	-0.032696	0.489990	0.883301	-0.075195	0.665655	-0.151697	0.521567	-0.511723
31852		-5.071161	-7.986198	4.073697	0.045824	0.003442	0.060044	0.490723	0.873535	-0.080566	0.665920	-0.151139	0.521509	-0.511602
31853		-5.546201	-7.750823	3.991815	0.107929	0.012431	0.050225	0.493896	0.869141	-0.084229	0.666240	-0.150277	0.521183	-0.511771
31854		-5.326769	-6.621581	4.223641	0.167976	0.035948	-0.021358	0.492920	0.875732	-0.072021	0.666270	-0.149319	0.520618	-0.512587
31855		-5.115979	-6.128228	4.004095	0.132816	0.013102	-0.079466	0.490479	0.880127	-0.077637	0.666011	-0.148857	0.520091	-0.513591
31856		-4.826319	-6.316831	3.742548	-0.052328	0.059145	-0.112010	0.488770	0.877441	-0.080322	0.665172	-0.149352	0.520561	-0.514059
31857		-4.902972	-6.838106	4.026472	-0.069607	0.056455	-0.078731	0.490234	0.883545	-0.076172	0.664496	-0.149827	0.521104	-0.514245
31858		-5.395596	-7.278493	3.916972	-0.030414	0.000269	-0.100097	0.486084	0.876709	-0.084473	0.664003	-0.150408	0.521158	-0.514657
31859		-5.599234	-7.312116	4.085092	0.089117	-0.067285	-0.132466	0.488037	0.879639	-0.083740	0.663866	-0.150785	0.520231	-0.515661
31860		-5.446665	-7.071763	4.140026	0.077737	-0.058952	-0.171486	0.490967	0.884277	-0.082275	0.663516	-0.151365	0.519357	-0.516820
31861		-5.188030	-6.892832	4.160165	0.079427	-0.010645	-0.179104	0.486572	0.890137	-0.071777	0.662935	-0.151773	0.518742	-0.518062
31862		-5.025582	-7.202097	4.365769	0.085472	0.019091	-0.149821	0.477295	0.889404	-0.085938	0.662278	-0.151849	0.518373	-0.519248
31863		-5.212638	-7.733644	4.464482	0.038639	0.027201	-0.112084	0.475098	0.883057	-0.092041	0.661701	-0.151976	0.518244	-0.520075
31864		-5.254202	-7.763762	4.334731	0.002768	0.026541	-0.080970	0.477539	0.883057	-0.086670	0.661267	-0.152198	0.518264	-0.520542
31865		-5.337065	-7.676072	3.798044	0.018465	-0.009079	-0.084906	0.475098	0.889648	-0.085449	0.660996	-0.152518	0.518031	-0.521024
31866		-5.232101	-7.580418	3.751090	0.033188	-0.002958	-0.086729	0.481445	0.886963	-0.090088	0.660668	-0.152710	0.517788	-0.521626
31867		-5.063862	-7.344659	4.235505	0.087411	-0.018119	-0.064772	0.472412	0.887451	-0.089844	0.660655	-0.152632	0.517207	-0.522241
31868		-5.157091	-7.466261	4.200473	0.140520	0.007322	-0.024601	0.474365	0.884766	-0.093750	0.660708	-0.151931	0.516614	-0.522964
31869		-5.319715	-7.658462	3.955922	0.074955	-0.020562	-0.015271	0.478760	0.885986	-0.094482	0.660874	-0.151696	0.516145	-0.523286
31870		-5.164464	-7.208244	4.018710	0.101018	-0.037704	-0.025895	0.469727	0.890137	-0.097168	0.661125	-0.151459	0.515448	-0.523725
31871		-4.898715	-6.993096	4.202281	0.071852	-0.037172	-0.052434	0.468018	0.887939	-0.087646	0.661142	-0.151431	0.514873	-0.524277
31872		-4.695819	-6.932237	4.008580	0.132154	-0.058914	-0.059249	0.477295	0.885742	-0.094482	0.661263	-0.151189	0.513955	-0.525094
31873		-4.786699	-7.196313	4.599651	0.134886	-0.091229	-0.010495	0.466797	0.888672	-0.109619	0.661840	-0.150934	0.512855	-0.525516
31874		-5.182297	-7.769459	4.845759	0.035978	-0.094663	0.044792	0.468750	0.886475	-0.100586	0.662505	-0.150946	0.512210	-0.525303
31875		-5.315855	-7.672106	4.067063	0.006400	-0.046258	0.032632	0.470215	0.885254	-0.101074	0.662855	-0.150968	0.511988	-0.525073
31876		-5.001893	-7.103909	4.585476	0.108432	-0.028493	-0.021119	0.467285	0.885742	-0.100098	0.663033	-0.150587	0.511345	-0.525583
31877		-4.700831	-6.748729	4.468525	0.146342	-0.050730	-0.025381	0.475098	0.883545	-0.112793	0.663303	-0.150093	0.510427	-0.526274
31878		-4.509477	-6.819169	4.367365	0.143410	-0.015414	-0.015227	0.469238	0.891113	-0.102295	0.663569	-0.149478	0.509657	-0.526861
31879		-4.529776	-7.052002	4.700349	0.090706	0.057857	0.012605	0.470459	0.888184	-0.111816	0.663461	-0.148651	0.509645	-0.527243
31880		-4.752767	-7.147706	4.854347	0.033702	0.077373	0.040495	0.468994	0.891846	-0.111328	0.663370	-0.147954	0.509977	-0.527233
31881		-4.993631	-7.246894	4.219873	0.098815	0.096317	0.057978	0.482666	0.879883	-0.114746	0.663319	-0.146714	0.510163	-0.527462
31882		-5.063992	-7.414073	4.206747	0.057217	0.149757	0.045254	0.479004	0.880371	-0.111816	0.663085	-0.145632	0.510746	-0.527492
31883		-5.227284	-7.445949	4.346529	0.033111	0.157652	0.011441	0.474365	0.881836	-0.107422	0.662591	-0.144762	0.511462	-0.527660
31884		-5.338665	-7.114743	4.268803	0.008524	0.104108	-0.031558	0.477295	0.885986	-0.112549	0.662049	-0.144410	0.511970	-0.527943
31885		-5.209498	-6.930944	4.138137	0.026562	0.028156	-0.023734	0.473633	0.885010	-0.115479	0.661909	-0.144265	0.511963	-0.528165
31886		-5.119305	-7.088378	4.039121	0.085892	0.054071	-0.020300	0.471436	0.887451	-0.110352	0.661731	-0.143646	0.511837	-0.528678
31887		-5.237378	-7.344638	4.223540	-0.000912	0.101167	-0.044004	0.471191	0.890625	-0.112793	0.661101	-0.143380	0.512360	-0.529031
31888		-5.160936	-7.275836	4.215182	-0.000155	0.096814	-0.042935	0.479248	0.889893	-0.114014	0.660493	-0.143116	0.512848	-0.529390
31889		-5.220237	-7.164628	4.197224	0.059502	0.071935	-0.026698	0.476074	0.887451	-0.106934	0.660206	-0.142616	0.512923	-0.529810
31890		-5.318584	-7.358532	4.368911	0.129403	0.046997	0.009347	0.470215	0.883057	-0.112793	0.660235	-0.141679	0.512629	-0.530309
31891		-5.359476	-7.221393	4.893846	0.024325	0.061912	-0.011968	0.473389	0.878418	-0.113281	0.659966	-0.141321	0.512845	-0.530531
31892		-5.025441	-7.027137	4.274970	0.039839	0.060232	0.007247	0.470215	0.882080	-0.114746	0.659853	-0.140836	0.512987	-0.530663
31893		-4.934956	-6.976824	4.107032	0.074487	0.068686	0.005682	0.475586	0.893555	-0.112549	0.659698	-0.140097	0.513030	-0.531010
31894		-4.883370	-7.039958	4.032515	0.129106	0.090022	0.015826	0.475098	0.879395	-0.110107	0.659539	-0.138913	0.512981	-0.531566
31895		-5.066704	-7.043152	4.316584	0.116893	0.148294	0.001084	0.481201	0.888672	-0.113037	0.659096	-0.137642	0.513278	-0.532159
31896		-5.297744	-6.956729	4.748255	-0.016876	0.164653	-0.037799	0.473633	0.891602	-0.113281	0.658261	-0.137200	0.514207	-0.532409
31897		-5.121820	-6.783735	4.511505	-0.083349	0.138695	-0.036778	0.470947	0.884277	-0.108154	0.657404	-0.137181	0.515304	-0.532412
31898		-4.971218	-7.118002	3.793227	0.046304	0.062246	-0.025636	0.472656	0.880371	-0.107910	0.657081	-0.136756	0.515423	-0.532806
31899		-5.086793	-7.545750	3.851976	0.145560	0.058599	-0.032315	0.471680	0.887207	-0.115723	0.656887	-0.135855	0.515061	-0.533624
31900		-5.245269	-7.423315	4.312519	0.130834	0.101179	-0.054209	0.480225	0.881592	-0.114746	0.656373	-0.134910	0.514964	-0.534589
31901		-5.368915	-7.248435	4.424152	0.110052	0.111562	-0.063019	0.473877	0.885742	-0.121582	0.655841	-0.134143	0.514979	-0.535420
31902		-5.246069	-6.969406	4.450714	0.045174	0.122163	-0.048522	0.474609	0.887695	-0.121094	0.655205	-0.133568	0.515357	-0.535979
31903		-5.133438	-6.913508	4.319071	0.033440	0.046871	-0.032353	0.470947	0.886475	-0.115967	0.654952	-0.133324	0.515394	-0.536312
31904		-5.132226	-7.272991	4.153156	0.041294	0.031969	-0.016504	0.466064	0.878662	-0.115479	0.654813	-0.133026	0.515359	-0.536591
31905		-5.210837	-7.544007	4.263057	0.085846	0.056432	-0.020531	0.481689	0.891602	-0.115967	0.654596	-0.132390	0.515254	-0.537113
31906		-5.235599	-7.461035	4.496664	0.065378	0.079866	-0.013842	0.459473	0.883301	-0.126221	0.654349	-0.131787	0.515360	-0.537461
31907		-5.115122	-6.946522	4.400972	0.042784	0.065006	-0.006489	0.468262	0.888428	-0.113037	0.654054	-0.131219	0.515501	-0.537823
31908		-5.041640	-6.721341	4.133756	0.088015	0.043634	0.016068	0.471680	0.887695	-0.125488	0.654024	-0.130458	0.515381	-0.538159
31909		-5.046637	-6.871884	4.035287	0.089251	0.081954	0.001519	0.471924	0.890137	-0.112793	0.653811	-0.129587	0.515399	-0.538611
31910		-5.162545	-7.257626	4.214696	0.075424	0.128627	-0.009444	0.473633	0.884766	-0.123291	0.653297	-0.128637	0.515773	-0.539104
31911		-5.384829	-7.509893	4.404944	0.063135	0.129136	-0.015484	0.466309	0.886719	-0.124756	0.652794	-0.127790	0.516147	-0.539557
31912		-5.389710	-7.054589	4.560654	-0.013855	0.127253	-0.021232	0.477783	0.880615	-0.122803	0.652125	-0.127341	0.516869	-0.539781
31913		-5.280247	-6.711042	4.132895	0.058655	0.057202	-0.014192	0.468018	0.881836	-0.119873	0.651985	-0.126876	0.516851	-0.540077
31914		-5.332097	-7.088031	4.283397	0.058153	0.022924	-0.002414	0.472656	0.881104	-0.117676	0.651954	-0.126454	0.516702	-0.540355
31915		-5.245843	-7.218794	4.206806	0.013620	0.038871	0.005069	0.472900	0.878662	-0.121582	0.651877	-0.126206	0.516845	-0.540370
31916		-5.212761	-7.215017	4.156195	0.064489	0.030077	0.013870	0.467773	0.879883	-0.125977	0.651946	-0.125685	0.516702	-0.540544
31917		-5.276943	-7.112559	4.232719	0.049447	0.049125	0.009606	0.479736	0.886719	-0.120850	0.651852	-0.125130	0.516732	-0.540758
31918		-5.289126	-7.034865	4.208151	0.048359	0.042660	-0.001333	0.477783	0.884277	-0.126221	0.651790	-0.124719	0.516720	-0.540940
31919		-5.252260	-7.054234	4.312693	0.064564	0.044224	-0.005518	0.464111	0.883057	-0.125000	0.651718	-0.124215	0.516624	-0.541234
31920		-5.240302	-6.982332	4.519994	0.066762	0.015909	-0.017704	0.477051	0.883545	-0.118164	0.651605	-0.123796	0.516393	-0.541686
31921		-5.101405	-6.714525	4.591303	0.011757	0.008797	-0.029060	0.477539	0.886230	-0.116943	0.651511	-0.123857	0.516350	-0.541826
31922		-5.086272	-6.786891	4.106434	0.058295	-0.009381	-0.021713	0.467773	0.883301	-0.133301	0.651570	-0.123715	0.516013	-0.542109
31923		-5.211332	-7.061948	4.039316	0.053969	0.015913	-0.026862	0.464111	0.889160	-0.126709	0.651445	-0.123419	0.515797	-0.542531
31924		-5.191355	-7.046565	4.230568	0.013123	0.046214	-0.031444	0.473145	0.889404	-0.126709	0.651065	-0.123202	0.515969	-0.542873
31925		-5.326128	-7.040599	4.108700	0.027863	0.037433	-0.035629	0.465576	0.891357	-0.135498	0.650797	-0.123025	0.515996	-0.543209
31926		-5.425530	-7.245834	4.142816	0.062465	0.000100	-0.044981	0.470215	0.879883	-0.129883	0.650625	-0.122799	0.515650	-0.543794
31927		-5.431870	-7.344275	4.630569	0.047437	-0.013566	-0.063655	0.471436	0.884521	-0.130127	0.650503	-0.122885	0.515263	-0.544287
31928		-5.207066	-6.932611	4.690174	-0.021671	0.006270	-0.071832	0.462646	0.881836	-0.124023	0.650184	-0.123291	0.515294	-0.544548
31929		-5.102589	-6.755429	4.167607	0.039455	-0.018615	-0.048237	0.471191	0.884277	-0.125732	0.650084	-0.123347	0.514969	-0.544962
31930		-5.085635	-6.882831	4.254575	0.025669	-0.011358	-0.036463	0.463135	0.883301	-0.125488	0.650061	-0.123446	0.514734	-0.545189
31931		-5.080234	-7.066854	4.491224	-0.009354	0.012127	-0.030333	0.466553	0.881592	-0.127197	0.649869	-0.123557	0.514813	-0.545317
31932		-5.190588	-7.218875	4.367273	-0.030119	0.004424	-0.022533	0.466797	0.889893	-0.120605	0.649768	-0.123811	0.514932	-0.545268
31933		-5.311650	-7.182515	4.243803	-0.028111	-0.009808	-0.015869	0.472656	0.883789	-0.125244	0.649720	-0.124078	0.515005	-0.545196
31934		-5.309032	-7.017233	4.150248	0.024648	-0.014205	-0.012754	0.461182	0.886230	-0.131348	0.649844	-0.124117	0.514774	-0.545257
31935		-5.302981	-7.006501	4.293466	0.036276	-0.027576	-0.016086	0.468750	0.875732	-0.129639	0.649921	-0.124069	0.514432	-0.545499
31936		-5.217588	-7.068419	4.427180	0.036920	-0.019253	-0.021568	0.463379	0.893311	-0.135254	0.650051	-0.124097	0.514095	-0.545656
31937		-5.093157	-6.986833	4.565460	0.010700	0.000877	-0.024829	0.465332	0.885986	-0.137451	0.649929	-0.124083	0.514014	-0.545880
31938		-5.042761	-6.844632	4.440267	0.018283	0.002530	-0.024802	0.460205	0.881104	-0.128906	0.649866	-0.124056	0.513882	-0.546087
31939		-5.100037	-6.893591	4.386764	0.005099	0.008165	-0.023052	0.466553	0.886475	-0.123535	0.649748	-0.124074	0.513872	-0.546232
31940		-5.129797	-6.967752	4.415956	-0.027095	0.000569	-0.021640	0.471680	0.885498	-0.123779	0.649663	-0.124336	0.513976	-0.546176
31941		-5.165486	-7.027034	4.369680	-0.024085	-0.003009	-0.018501	0.463867	0.893799	-0.132812	0.649662	-0.124623	0.514031	-0.546059
31942		-5.312875	-7.246068	4.114151	-0.005914	0.006480	-0.013043	0.465576	0.887695	-0.131592	0.649567	-0.124639	0.514070	-0.546132
31943		-5.310754	-7.386865	4.089757	0.012172	0.007978	-0.010905	0.461914	0.877197	-0.134766	0.649538	-0.124578	0.514024	-0.546224
31944		-5.304302	-7.261757	4.191665	0.045992	-0.009165	-0.013175	0.464111	0.880615	-0.134766	0.649626	-0.124423	0.513712	-0.546447
31945		-5.252063	-7.024777	4.369988	0.051993	-0.044246	-0.019250	0.465332	0.889160	-0.127197	0.649846	-0.124427	0.513179	-0.546687
31946		-5.148441	-6.988356	4.407758	0.049189	-0.045055	-0.019747	0.464600	0.881592	-0.134033	0.650032	-0.124459	0.512688	-0.546917
31947		-5.082920	-7.078721	4.446172	0.030354	-0.032561	-0.011185	0.459961	0.892090	-0.134033	0.650219	-0.124504	0.512332	-0.547019
31948		-5.118535	-7.095342	4.378425	0.006713	-0.029159	-0.007701	0.458740	0.888428	-0.142822	0.650294	-0.124583	0.512139	-0.547093
31949		-5.147329	-6.970766	4.415628	-0.010414	-0.030414	-0.012835	0.459961	0.889160	-0.139404	0.650344	-0.124760	0.511986	-0.547136
31950		-5.128381	-6.871104	4.418018	-0.025750	-0.008824	-0.018821	0.463379	0.882324	-0.131592	0.650267	-0.124968	0.512021	-0.547148
31951		-5.113172	-6.973711	4.379739	-0.017711	-0.006808	-0.018057	0.462158	0.888428	-0.133057	0.650256	-0.125193	0.512027	-0.547103
31952		-5.174409	-7.117972	4.325812	-0.008337	-0.012610	-0.017828	0.469971	0.889893	-0.133057	0.650244	-0.125359	0.511969	-0.547134
31953		-5.173412	-7.133226	4.418278	-0.020127	-0.016554	-0.015547	0.466309	0.878906	-0.134521	0.650310	-0.125648	0.511926	-0.547030
31954		-5.150779	-7.067401	4.368024	-0.042391	-0.010406	-0.020399	0.463623	0.889160	-0.134766	0.650325	-0.126057	0.511999	-0.546850
31955		-5.094889	-7.102109	4.278905	-0.025807	-0.017276	-0.017077	0.461914	0.884277	-0.136230	0.650332	-0.126338	0.511985	-0.546788
31956		-5.145823	-7.161204	4.286270	0.006180	-0.016071	-0.015624	0.464600	0.885498	-0.132080	0.650385	-0.126434	0.511826	-0.546853
31957		-5.216071	-7.287824	4.345125	0.032397	-0.024010	-0.013974	0.465332	0.892578	-0.132568	0.650526	-0.126449	0.511510	-0.546977
31958		-5.168340	-7.271583	4.472446	0.038376	-0.027695	-0.019361	0.457031	0.892334	-0.136963	0.650640	-0.126456	0.511152	-0.547175
31959		-5.035152	-7.120249	4.548571	0.029558	-0.032415	-0.022807	0.464844	0.892578	-0.134521	0.650679	-0.126477	0.510819	-0.547435
31960		-4.950704	-6.950472	4.438527	0.030332	-0.028873	-0.020632	0.454102	0.885498	-0.125977	0.650785	-0.126538	0.510488	-0.547603
31961		-5.032404	-6.926495	4.411774	0.006089	-0.014129	-0.014401	0.461182	0.881104	-0.141602	0.650778	-0.126625	0.510390	-0.547683
31962		-5.099588	-7.030686	4.395463	-0.029011	0.006675	-0.006646	0.463379	0.893799	-0.138916	0.650758	-0.126775	0.510512	-0.547558
31963		-5.169820	-7.212745	4.500743	-0.041880	0.014610	-0.002919	0.457275	0.882812	-0.127441	0.650669	-0.126927	0.510761	-0.547397
31964		-5.182663	-7.312308	4.412459	-0.028823	0.013127	-0.009580	0.467529	0.886230	-0.132568	0.650572	-0.127081	0.510956	-0.547294
31965		-5.090050	-7.230615	4.349755	0.033005	-0.016736	-0.011659	0.466064	0.892334	-0.133057	0.650728	-0.127081	0.510671	-0.547374
31966		-5.071392	-7.095485	4.457864	0.046593	-0.020671	-0.008700	0.465088	0.886719	-0.136719	0.650889	-0.126984	0.510320	-0.547532
31967		-5.073039	-7.003545	4.493942	0.024344	-0.007595	-0.002406	0.454102	0.887695	-0.132324	0.651014	-0.126918	0.510136	-0.547571
31968		-5.076795	-7.007837	4.459337	-0.010065	0.009380	0.001438	0.466553	0.885986	-0.135254	0.650954	-0.126890	0.510245	-0.547547
31969		-5.116858	-7.095227	4.315079	-0.012282	0.014981	0.003784	0.458740	0.898682	-0.135010	0.650988	-0.126912	0.510357	-0.547398
31970		-5.135452	-7.184263	4.284501	-0.001538	0.010898	0.003461	0.460938	0.892334	-0.133301	0.650926	-0.126805	0.510438	-0.547421
31971		-5.089505	-7.061462	4.378555	0.007114	-0.007560	-0.003517	0.463379	0.884033	-0.138672	0.650966	-0.126804	0.510359	-0.547446
31972		-5.107785	-7.030601	4.480000	-0.012732	-0.011626	-0.010316	0.453857	0.889404	-0.130371	0.651022	-0.126974	0.510314	-0.547382
31973		-5.086213	-7.095610	4.394920	-0.013262	-0.011940	-0.001514	0.461426	0.886475	-0.133057	0.651027	-0.127073	0.510325	-0.547344
31974		-5.147869	-7.155860	4.318822	0.002351	-0.008861	0.002015	0.457031	0.886230	-0.128418	0.651124	-0.127103	0.510257	-0.547285
31975		-5.162009	-7.042458	4.330911	0.010024	-0.008506	-0.001969	0.458740	0.892334	-0.143311	0.651178	-0.127101	0.510170	-0.547301
31976		-5.156004	-7.048809	4.280520	0.030351	-0.022095	-0.002228	0.457275	0.888184	-0.134033	0.651282	-0.126973	0.509897	-0.547462
31977		-5.171293	-7.256082	4.311119	0.038937	-0.030989	0.000334	0.457520	0.890625	-0.129395	0.651461	-0.126879	0.509554	-0.547591
31978		-5.156801	-7.181702	4.405188	0.043214	-0.039134	-0.001417	0.462891	0.894043	-0.139404	0.651668	-0.126829	0.509158	-0.547725
31979		-5.116228	-7.051802	4.412054	0.058792	-0.051714	-0.009510	0.455322	0.891846	-0.128662	0.651928	-0.126766	0.508589	-0.547958
31980		-5.096338	-6.909717	4.508665	0.023282	-0.030900	-0.017074	0.457275	0.886475	-0.130615	0.651989	-0.126851	0.508323	-0.548112
31981		-5.058993	-6.884875	4.521816	-0.025479	-0.024345	-0.012726	0.458008	0.891602	-0.134521	0.652030	-0.127175	0.508304	-0.548005
31982		-5.050270	-7.060450	4.447348	-0.019271	-0.024142	-0.009937	0.458252	0.885986	-0.142822	0.652073	-0.127425	0.508259	-0.547939
31983		-5.033181	-7.110761	4.405596	0.003366	-0.036377	-0.001438	0.461914	0.884766	-0.140137	0.652248	-0.127548	0.508029	-0.547915
31984		-5.049511	-7.115929	4.425449	0.015572	-0.049820	0.001019	0.455566	0.881348	-0.138916	0.652542	-0.127696	0.507667	-0.547865
31985		-5.056426	-7.117933	4.529667	0.013168	-0.039680	-0.006571	0.469238	0.887695	-0.141113	0.652721	-0.127822	0.507377	-0.547892
31986		-5.083221	-7.208009	4.489315	0.025606	-0.012197	-0.007341	0.454346	0.882812	-0.145752	0.652874	-0.127817	0.507153	-0.547918
31987		-5.079928	-7.162204	4.385263	0.040136	-0.023285	-0.013492	0.460693	0.886963	-0.143311	0.652957	-0.127708	0.506817	-0.548155
31988		-4.969353	-7.033929	4.464526	0.020741	-0.028061	-0.011647	0.460205	0.890625	-0.143311	0.653088	-0.127765	0.506542	-0.548241
31989		-4.982677	-6.889526	4.642836	-0.015192	-0.019283	-0.013781	0.458008	0.887207	-0.135742	0.653116	-0.127979	0.506483	-0.548211
31990		-4.910362	-6.829639	4.682919	-0.068273	-0.003955	-0.010372	0.466797	0.890137	-0.136963	0.653048	-0.128434	0.506764	-0.547926
31991		-5.012038	-7.013301	4.476522	-0.034215	0.003491	0.001564	0.457764	0.885498	-0.137695	0.653095	-0.128654	0.506923	-0.547672
31992		-5.116345	-7.252534	4.472673	-0.054824	0.003687	0.003266	0.450439	0.889648	-0.135254	0.653071	-0.128927	0.507191	-0.547388
31993		-5.141112	-7.334676	4.378464	-0.012924	0.007771	0.011048	0.465576	0.886230	-0.134521	0.653040	-0.128878	0.507323	-0.547314
31994		-5.103899	-7.283276	4.320132	0.025179	-0.022903	0.001986	0.458008	0.889648	-0.134033	0.653266	-0.128896	0.507067	-0.547276
31995		-5.038858	-7.163552	4.382369	0.045708	-0.030047	-0.001268	0.452637	0.896484	-0.134277	0.653460	-0.128803	0.506699	-0.547409
31996		-5.074504	-7.020178	4.466564	0.051202	-0.024966	-0.002405	0.449219	0.886719	-0.143799	0.653568	-0.128622	0.506352	-0.547643
31997		-5.097107	-6.952312	4.508467	0.012198	-0.021487	-0.000833	0.455322	0.883545	-0.143066	0.653624	-0.128584	0.506187	-0.547737
31998		-5.141767	-6.892171	4.445520	-0.024919	-0.017680	0.001992	0.451660	0.882568	-0.137451	0.653698	-0.128765	0.506200	-0.547595
31999		-5.108715	-6.968582	4.286506	-0.035908	-0.027000	0.003763	0.458984	0.886963	-0.140381	0.653791	-0.129054	0.506228	-0.547391
32000		-5.073218	-7.146437	4.191236	-0.007637	-0.027039	0.005318	0.460693	0.888428	-0.144043	0.653954	-0.129194	0.506114	-0.547268
32001		-5.182961	-7.290839	4.361609	-0.002657	-0.073539	-0.000067	0.457764	0.889648	-0.140381	0.654295	-0.129526	0.505713	-0.547153
32002		-5.242206	-7.268137	4.519095	0.005279	-0.086094	-0.009221	0.455322	0.887207	-0.135742	0.654635	-0.129917	0.505210	-0.547117
32003		-5.206152	-7.011140	4.479819	0.028465	-0.130929	-0.019906	0.454102	0.893555	-0.150879	0.655143	-0.130456	0.504352	-0.547173
32004		-5.129824	-6.912391	4.292183	0.047733	-0.139410	-0.018120	0.463623	0.892578	-0.138672	0.655664	-0.130825	0.503354	-0.547380
32005		-5.074228	-7.002367	4.273221	0.033570	-0.132996	-0.011467	0.459961	0.885498	-0.139404	0.656271	-0.131348	0.502458	-0.547350
32006		-5.049576	-7.076948	4.607793	-0.039780	-0.106671	-0.005763	0.463867	0.889160	-0.149658	0.656716	-0.132129	0.502045	-0.547007
32007		-5.043996	-7.124462	4.604692	-0.055031	-0.090712	-0.003419	0.454102	0.889893	-0.141846	0.657087	-0.132866	0.501776	-0.546630
32008		-4.969744	-7.062638	4.535383	-0.022266	-0.092866	-0.001736	0.456299	0.891357	-0.155762	0.657454	-0.133423	0.501375	-0.546421
32009		-4.933829	-7.080867	4.611183	-0.028497	-0.083936	0.000548	0.457520	0.885986	-0.142334	0.657775	-0.133892	0.501036	-0.546231
32010		-4.926336	-7.114549	4.632077	-0.009216	-0.078096	-0.009294	0.452148	0.893555	-0.149658	0.658100	-0.134368	0.500635	-0.546089
32011		-4.895339	-7.218035	4.698573	0.014459	-0.080316	-0.001846	0.455811	0.873535	-0.144043	0.658421	-0.134615	0.500134	-0.546101
32012		-4.887667	-7.294349	4.762269	-0.015050	-0.041351	0.025550	0.449463	0.888428	-0.150391	0.658779	-0.134824	0.499988	-0.545752
32013		-4.881282	-7.245283	4.736050	-0.020382	-0.006261	0.050367	0.460449	0.888184	-0.144043	0.658988	-0.134704	0.500109	-0.545418
32014		-4.894754	-7.239339	4.753946	-0.009007	-0.011544	0.053962	0.455078	0.887207	-0.149170	0.659329	-0.134616	0.500141	-0.544998
32015		-4.915640	-7.356202	4.677205	0.022383	-0.015877	0.051578	0.462646	0.890869	-0.145996	0.659662	-0.134326	0.500009	-0.544787
32016		-4.874864	-7.272202	4.765399	-0.009200	-0.008041	0.051858	0.455566	0.888428	-0.156494	0.659968	-0.134220	0.500060	-0.544396
32017		-4.754583	-7.008868	4.687584	-0.008044	-0.000512	0.071726	0.447754	0.890381	-0.151123	0.660268	-0.133894	0.500170	-0.544012
32018		-4.910312	-6.876236	4.784838	-0.046410	-0.008258	0.063768	0.463623	0.883301	-0.143555	0.660465	-0.133838	0.500423	-0.543553
32019		-4.947044	-6.854462	4.376864	-0.090079	-0.006299	0.059587	0.462402	0.886230	-0.140625	0.660720	-0.134150	0.500855	-0.542768
32020		-4.989107	-7.008194	4.240165	-0.051816	0.042937	0.049713	0.464600	0.889648	-0.148682	0.660745	-0.134065	0.501383	-0.542272
32021		-5.056504	-7.216741	4.506504	-0.076242	0.076283	0.039900	0.462158	0.891602	-0.139404	0.660538	-0.133948	0.502186	-0.541809
32022		-5.087421	-7.241535	4.500661	-0.033069	0.049469	0.040839	0.463379	0.883789	-0.142090	0.660481	-0.133741	0.502661	-0.541489
32023		-5.125954	-7.209103	4.398791	-0.005016	0.009054	0.035241	0.469971	0.887695	-0.149658	0.660621	-0.133577	0.502770	-0.541258
32024		-5.202245	-7.128327	4.449551	0.015843	-0.047696	0.035197	0.466064	0.886475	-0.143311	0.661032	-0.133526	0.502459	-0.541056
32025		-5.145060	-6.947245	4.578914	0.024867	-0.081412	0.029065	0.467773	0.884521	-0.139648	0.661554	-0.133628	0.501928	-0.540886
32026		-5.073966	-6.977597	4.740367	-0.048694	-0.012611	0.035273	0.466309	0.877686	-0.143311	0.661756	-0.133835	0.502115	-0.540415
32027		-5.063035	-6.858358	4.312038	-0.111561	0.001466	0.036974	0.475098	0.883301	-0.133789	0.661837	-0.134293	0.502657	-0.539697
32028		-4.922704	-6.902070	4.298766	-0.081886	-0.008138	0.031449	0.465820	0.880371	-0.137207	0.662012	-0.134726	0.503007	-0.539048
32029		-4.986692	-7.211947	4.268269	-0.019675	-0.011886	0.021145	0.464844	0.890137	-0.138916	0.662166	-0.134813	0.503052	-0.538795
32030		-5.170488	-7.386182	4.378189	0.011350	-0.039151	0.012777	0.466064	0.889648	-0.132080	0.662390	-0.134858	0.502807	-0.538737
32031		-5.247833	-7.247592	4.613866	0.020928	-0.028258	0.026224	0.464355	0.889404	-0.143311	0.662660	-0.134793	0.502599	-0.538615
32032		-5.183549	-7.108115	4.501258	0.005897	-0.047978	0.036741	0.467529	0.887451	-0.148926	0.663013	-0.134784	0.502354	-0.538412
32033		-5.080206	-6.962182	4.440796	0.062916	-0.053015	0.026214	0.467285	0.889648	-0.141846	0.663416	-0.134508	0.501803	-0.538499
32034		-5.029241	-6.890950	4.316516	0.056280	-0.082605	0.011037	0.471191	0.883057	-0.148926	0.663869	-0.134509	0.501113	-0.538583
32035		-4.967891	-6.904080	4.608720	-0.016890	-0.013911	0.001858	0.470215	0.879883	-0.140869	0.663945	-0.134635	0.501104	-0.538465
32036		-5.052820	-6.933972	4.448066	-0.089827	0.000836	0.002553	0.465820	0.876465	-0.142090	0.663897	-0.135141	0.501511	-0.538019
32037		-4.976353	-7.044827	4.439381	-0.080891	0.023401	0.011391	0.462402	0.881104	-0.143555	0.663785	-0.135433	0.502012	-0.537616
32038		-5.050980	-7.182632	4.566223	-0.073368	-0.008784	0.010936	0.469727	0.884521	-0.138672	0.663775	-0.135796	0.502307	-0.537262
32039		-5.189513	-7.326376	4.433517	-0.073436	-0.067739	0.010769	0.468506	0.872803	-0.131104	0.664047	-0.136466	0.502273	-0.536788
32040		-5.118089	-7.130092	4.536123	0.002066	-0.095395	0.009537	0.472656	0.877930	-0.146729	0.664552	-0.136897	0.501745	-0.536545
32041		-5.082278	-6.839459	4.414321	0.032087	-0.080390	-0.004592	0.476318	0.887695	-0.136963	0.664952	-0.137076	0.501135	-0.536575
32042		-5.043564	-6.685587	4.367225	-0.030443	-0.085963	0.002505	0.476074	0.884033	-0.135010	0.665343	-0.137661	0.500795	-0.536258
32043		-5.068283	-6.741892	4.476501	-0.057157	-0.052222	0.000002	0.475586	0.882324	-0.146484	0.665563	-0.138268	0.500758	-0.535862
32044		-5.136588	-7.002014	4.591888	-0.092493	-0.022599	0.010606	0.472656	0.883301	-0.133545	0.665650	-0.138825	0.501043	-0.535344
32045		-5.143980	-7.184436	4.603561	-0.119273	-0.022799	0.030694	0.470215	0.884277	-0.134277	0.665795	-0.139505	0.501485	-0.534574
32046		-5.278674	-7.395515	4.477672	-0.120281	-0.041738	0.044301	0.465332	0.881592	-0.130615	0.666055	-0.140195	0.501842	-0.533733
32047		-5.260750	-7.254550	4.683889	-0.060536	-0.083074	0.028193	0.474121	0.885498	-0.136230	0.666466	-0.140803	0.501692	-0.533200
32048		-5.037174	-6.994233	4.735576	-0.043420	-0.056065	0.030039	0.466553	0.875000	-0.129150	0.666818	-0.141175	0.501606	-0.532744
32049		-4.994722	-7.117703	4.576829	-0.046766	-0.026211	0.042002	0.467285	0.885254	-0.134277	0.667090	-0.141409	0.501721	-0.532231
32050		-4.916260	-7.309145	4.641208	-0.069784	-0.009173	0.056656	0.483887	0.885742	-0.129883	0.667293	-0.141593	0.502052	-0.531615
32051		-4.857717	-7.198426	4.452157	-0.089105	-0.021381	0.052782	0.479004	0.888672	-0.123291	0.667591	-0.142019	0.502384	-0.530814
32052		-4.805092	-6.965129	4.368276	-0.067415	-0.042961	0.028425	0.478027	0.885254	-0.131836	0.667867	-0.142535	0.502482	-0.530235
32053		-4.953272	-7.220688	4.404356	-0.082010	0.019598	0.040500	0.473877	0.881104	-0.124023	0.667905	-0.142751	0.502999	-0.529639
32054		-5.111689	-7.332765	4.414571	-0.080299	0.046914	0.056297	0.466309	0.882080	-0.120850	0.667896	-0.142798	0.503685	-0.528985
32055		-5.132432	-7.319513	4.459873	-0.124954	0.023547	0.059426	0.486084	0.875977	-0.123535	0.667902	-0.143170	0.504452	-0.528145
32056		-4.976468	-7.057379	4.374519	-0.098175	-0.000596	0.048298	0.482178	0.881104	-0.126953	0.668090	-0.143569	0.504927	-0.527344
32057		-5.061414	-7.042536	4.166795	-0.018738	-0.027385	0.033859	0.471924	0.885254	-0.119873	0.668379	-0.143661	0.504890	-0.526988
32058		-5.201223	-7.090198	4.445066	-0.014787	-0.073854	0.012440	0.476807	0.884766	-0.120850	0.668722	-0.144037	0.504570	-0.526757
32059		-5.028836	-6.770186	4.523056	-0.127890	-0.052883	0.006384	0.478271	0.875977	-0.127441	0.668837	-0.144984	0.504850	-0.526083
32060		-4.833808	-6.630793	4.391674	-0.111391	-0.080389	-0.004556	0.477051	0.883789	-0.120850	0.669056	-0.145968	0.504877	-0.525506
32061		-4.935904	-6.908309	4.277021	-0.064200	-0.018218	-0.013635	0.477539	0.880371	-0.121826	0.669014	-0.146480	0.505042	-0.525258
32062		-5.034693	-7.111828	4.454504	-0.084294	0.032697	-0.006648	0.478516	0.885254	-0.117188	0.668774	-0.146845	0.505584	-0.524941
32063		-5.191591	-7.151067	4.473379	-0.107957	0.038146	0.004912	0.489990	0.887207	-0.109863	0.668529	-0.147286	0.506278	-0.524461
32064		-5.218947	-6.956538	4.424383	-0.095653	0.045167	-0.002238	0.479248	0.888916	-0.108398	0.668292	-0.147712	0.506944	-0.523999
32065		-5.068029	-6.860264	4.333741	-0.106854	0.028393	-0.018374	0.473145	0.888672	-0.118408	0.667987	-0.148314	0.507556	-0.523626
32066		-5.153110	-7.106145	4.193534	-0.059708	0.004241	-0.020127	0.484375	0.889893	-0.111816	0.667793	-0.148687	0.507819	-0.523512
32067		-5.160529	-7.174634	4.423408	-0.065900	0.009115	-0.034139	0.479248	0.878174	-0.106445	0.667566	-0.149188	0.508114	-0.523373
32068		-5.062613	-7.124056	4.264662	-0.081676	0.045801	-0.017042	0.468262	0.884277	-0.110596	0.667251	-0.149566	0.508705	-0.523093
32069		-5.156225	-7.215075	4.215967	-0.045848	0.007164	-0.031539	0.473145	0.882812	-0.105957	0.667011	-0.149913	0.508913	-0.523097
32070		-4.984661	-7.067042	4.214290	-0.041223	-0.005602	-0.048887	0.479004	0.894531	-0.111328	0.666787	-0.150399	0.509007	-0.523151
32071		-4.899620	-7.278140	4.251063	-0.061990	-0.021223	-0.045246	0.478516	0.886230	-0.111328	0.666615	-0.151027	0.509105	-0.523094
32072		-5.138354	-7.498743	4.098906	0.009440	-0.016964	-0.024484	0.477783	0.895508	-0.108154	0.666627	-0.151155	0.508933	-0.523209
32073		-5.405778	-7.189788	4.127936	-0.019577	-0.030343	-0.026219	0.473633	0.889404	-0.100098	0.666631	-0.151520	0.508822	-0.523207
32074		-5.480098	-7.147050	3.978062	-0.047805	-0.045909	-0.068720	0.468750	0.886475	-0.108398	0.666485	-0.152326	0.508702	-0.523275
32075		-5.182463	-7.092443	4.169697	-0.045412	-0.041039	-0.105041	0.474365	0.890137	-0.100342	0.666145	-0.153199	0.508545	-0.523606
32076		-4.834748	-7.263270	4.137066	-0.032769	-0.063715	-0.082479	0.475830	0.887695	-0.106689	0.666047	-0.154058	0.508238	-0.523776
32077		-4.758065	-7.312524	4.518908	0.056415	-0.041801	-0.040036	0.463867	0.885498	-0.107422	0.666170	-0.154124	0.507707	-0.524116
32078		-5.130587	-7.417324	4.495781	0.096227	-0.012312	-0.015599	0.467773	0.878906	-0.104004	0.666281	-0.153714	0.507205	-0.524580
32079		-5.214204	-7.263283	4.364343	0.019233	-0.000806	-0.033425	0.466553	0.891846	-0.106934	0.666206	-0.153797	0.507078	-0.524774
32080		-5.063005	-7.410404	4.415662	0.010600	0.015707	-0.038905	0.472900	0.891602	-0.112549	0.665990	-0.153852	0.507080	-0.525031
32081		-4.983658	-7.850512	4.254454	0.103645	-0.006526	0.016407	0.473145	0.888916	-0.107910	0.666255	-0.153244	0.506608	-0.525328
32082		-5.139224	-7.980287	4.356291	0.084315	0.034673	0.045642	0.465332	0.888428	-0.111572	0.666460	-0.152472	0.506492	-0.525403
32083		-4.971524	-7.141191	4.485041	0.061251	0.041385	0.044121	0.473145	0.887939	-0.117920	0.666560	-0.151772	0.506518	-0.525455
32084		-4.907602	-6.462525	4.738007	0.139236	0.019524	0.047614	0.471924	0.881348	-0.104492	0.666892	-0.150707	0.506071	-0.525771
32085		-4.963094	-6.729512	4.659899	0.090549	0.045601	0.025027	0.466309	0.889893	-0.112305	0.666973	-0.149970	0.505968	-0.525978
32086		-4.868576	-7.338737	4.087329	-0.034686	0.047899	0.037885	0.476807	0.891602	-0.112549	0.666888	-0.149809	0.506447	-0.525670
32087		-4.623413	-7.621877	4.291816	0.004081	0.095037	0.077203	0.477295	0.885742	-0.114990	0.666862	-0.149075	0.507058	-0.525323
32088		-4.790248	-7.656526	4.308382	0.012107	0.175515	0.108772	0.472412	0.890137	-0.110107	0.666649	-0.147798	0.508112	-0.524935
32089		-4.984373	-6.983017	4.381207	0.092710	0.133809	0.087387	0.479980	0.882080	-0.109375	0.666578	-0.146346	0.508568	-0.524990
32090		-5.151997	-6.884149	4.314956	0.139037	0.081466	0.051020	0.478516	0.892822	-0.109131	0.666669	-0.145043	0.508476	-0.525326
32091		-5.082400	-6.843965	4.057731	0.102787	0.097226	0.019754	0.477539	0.876465	-0.115479	0.666475	-0.143997	0.508604	-0.525735
32092		-5.146956	-6.862005	4.189414	0.106706	0.057632	0.013259	0.478516	0.880615	-0.104492	0.666451	-0.143112	0.508470	-0.526138
32093		-5.181716	-6.694811	4.223034	0.120069	0.035401	0.033069	0.479492	0.885010	-0.123291	0.666624	-0.142220	0.508195	-0.526426
32094		-5.286426	-7.219664	4.432299	0.120046	-0.002983	0.023157	0.479004	0.875000	-0.116943	0.666891	-0.141453	0.507676	-0.526794
32095		-5.204232	-7.563911	4.150023	0.022577	-0.007522	0.023972	0.478271	0.882080	-0.110352	0.667091	-0.141287	0.507565	-0.526693
32096		-5.017983	-7.425802	4.497386	0.078785	0.016259	0.051929	0.481934	0.888184	-0.117188	0.667363	-0.140611	0.507387	-0.526701
32097		-5.164105	-7.129679	4.343860	0.059174	-0.018997	0.049104	0.474365	0.876953	-0.117432	0.667740	-0.140185	0.507090	-0.526622
32098		-5.299919	-6.829299	4.394754	0.075468	0.006713	0.017651	0.487061	0.886963	-0.124023	0.667880	-0.139682	0.506828	-0.526830
32099		-5.303212	-6.761109	4.435025	0.030721	0.029535	-0.007828	0.481201	0.876465	-0.126709	0.667783	-0.139428	0.506850	-0.527000
32100		-5.016842	-6.903791	4.628971	0.030267	0.028458	0.019416	0.493164	0.880371	-0.122070	0.667807	-0.139050	0.506894	-0.527027
32101		-4.964898	-7.050468	4.439939	0.067967	0.034019	0.045493	0.487061	0.875732	-0.130371	0.668006	-0.138368	0.506833	-0.527013
32102		-5.077520	-7.226629	4.368149	0.021090	0.033826	0.024477	0.491455	0.874756	-0.121826	0.668036	-0.137993	0.506945	-0.526965
32103		-5.084814	-6.999370	4.391208	0.007573	0.034296	0.012051	0.491211	0.875732	-0.124512	0.668016	-0.137790	0.507113	-0.526882
32104		-5.153282	-6.932425	4.263944	0.022572	0.045344	0.001049	0.481445	0.885010	-0.124023	0.667912	-0.137487	0.507261	-0.526950
32105		-5.200710	-6.983767	4.357177	0.080046	0.047394	0.002307	0.488037	0.873291	-0.126465	0.667812	-0.136828	0.507183	-0.527325
32106		-5.392620	-7.105845	4.566067	0.103562	-0.021359	-0.014146	0.485840	0.881104	-0.129395	0.668005	-0.136420	0.506586	-0.527760
32107		-5.339340	-7.114740	4.563910	0.035233	-0.007550	-0.023190	0.488037	0.877197	-0.132324	0.667995	-0.136357	0.506361	-0.528004
32108		-5.191495	-7.053012	4.437316	0.028846	0.001642	-0.039946	0.485596	0.885254	-0.116455	0.667883	-0.136356	0.506187	-0.528311
32109		-5.029168	-6.862339	4.263629	0.037732	-0.008467	-0.052669	0.480225	0.877197	-0.120850	0.667753	-0.136463	0.505935	-0.528691
32110		-4.907221	-6.646122	4.410440	0.062253	0.001865	-0.035803	0.472900	0.883545	-0.129395	0.667679	-0.136298	0.505642	-0.529106
32111		-5.064480	-6.624973	4.457019	0.013441	0.042541	-0.047760	0.487793	0.875732	-0.126953	0.667283	-0.136230	0.505775	-0.529497
32112		-5.303125	-6.941411	4.454879	-0.026850	0.061367	-0.037404	0.485840	0.883057	-0.121094	0.666883	-0.136297	0.506190	-0.529587
32113		-5.354254	-7.187836	4.336136	-0.023576	0.055237	-0.030486	0.484619	0.875977	-0.128418	0.666524	-0.136356	0.506577	-0.529654
32114		-5.274829	-7.213261	4.381596	0.058049	0.019980	-0.041109	0.479248	0.881836	-0.133057	0.666367	-0.136132	0.506380	-0.530097
32115		-5.249059	-7.225517	4.713204	0.060059	0.029814	-0.074589	0.476074	0.879883	-0.130127	0.665992	-0.135970	0.506190	-0.530790
32116		-5.141280	-7.117175	4.619669	0.060989	-0.002355	-0.096980	0.478271	0.882812	-0.130127	0.665653	-0.136051	0.505798	-0.531568
32117		-5.052506	-7.069860	4.243182	0.040424	0.023577	-0.074979	0.481689	0.889893	-0.128662	0.665287	-0.136047	0.505665	-0.532153
32118		-5.125958	-7.145889	4.313769	0.024680	0.011958	-0.044074	0.477539	0.880127	-0.129639	0.665092	-0.136062	0.505577	-0.532477
32119		-5.292074	-7.109893	4.284777	0.024153	0.025515	-0.028289	0.473389	0.890381	-0.129150	0.664917	-0.135949	0.505579	-0.532722
32120		-5.271649	-7.078318	4.566883	-0.031264	0.031876	-0.055378	0.481201	0.883301	-0.127197	0.664498	-0.136222	0.505841	-0.532927
32121		-5.151976	-7.033495	4.542485	-0.049593	0.053772	-0.062032	0.476807	0.875977	-0.130615	0.663981	-0.136546	0.506290	-0.533061
32122		-5.142704	-7.164465	4.219946	0.041373	0.003280	-0.049493	0.479492	0.882324	-0.127930	0.663838	-0.136519	0.506061	-0.533464
32123		-5.125602	-7.250134	4.281095	0.119903	0.000192	-0.034952	0.471680	0.880127	-0.130371	0.663863	-0.136024	0.505488	-0.534103
32124		-5.204662	-7.173489	4.759062	0.100500	-0.010903	-0.037256	0.468750	0.878662	-0.133057	0.663879	-0.135683	0.504939	-0.534689
32125		-5.148680	-6.956162	4.674373	-0.008643	0.040399	-0.036462	0.470215	0.880859	-0.137451	0.663553	-0.135709	0.505159	-0.534878
32126		-5.101869	-6.953408	4.202390	0.006674	0.032358	-0.026049	0.472412	0.883789	-0.132568	0.663327	-0.135626	0.505270	-0.535075
32127		-5.117411	-7.077069	4.371104	0.012099	0.012190	-0.019776	0.473389	0.884033	-0.132568	0.663224	-0.135595	0.505260	-0.535219
32128		-5.038906	-7.130383	4.436464	0.046435	0.023568	-0.007235	0.472900	0.874756	-0.135742	0.663172	-0.135273	0.505174	-0.535447
32129		-5.206064	-7.236219	4.333134	0.105740	0.031692	-0.005328	0.473877	0.885254	-0.135010	0.663176	-0.134572	0.504861	-0.535913
32130		-5.280750	-7.286518	4.535494	0.080392	0.016034	0.001821	0.470947	0.889893	-0.135986	0.663232	-0.134056	0.504592	-0.536227
32131		-5.219879	-7.076146	4.877500	0.050121	0.028516	0.002171	0.479004	0.886230	-0.130615	0.663183	-0.133645	0.504530	-0.536448
32132		-5.035753	-6.874564	4.698852	0.003516	0.059004	-0.007722	0.472168	0.877930	-0.139404	0.662945	-0.133427	0.504839	-0.536506
32133		-4.873654	-6.914759	4.442159	0.017611	0.054891	-0.008680	0.480957	0.888916	-0.135986	0.662726	-0.133117	0.505044	-0.536661
32134		-4.857731	-7.071519	4.155972	0.057716	0.066277	-0.001384	0.478516	0.883545	-0.135254	0.662546	-0.132522	0.505147	-0.536933
32135		-5.011787	-7.103043	4.417096	0.056320	0.085452	0.007651	0.473633	0.879883	-0.138916	0.662325	-0.131813	0.505372	-0.537168
32136		-5.291937	-7.036051	4.543199	0.078705	0.042162	0.006833	0.475830	0.884766	-0.135010	0.662295	-0.131161	0.505252	-0.537478
32137		-5.331633	-6.985391	4.742009	0.064534	0.019458	-0.010057	0.479004	0.880371	-0.142090	0.662267	-0.130777	0.505061	-0.537786
32138		-5.063277	-6.818944	4.642552	0.052064	0.028416	-0.027392	0.478027	0.882812	-0.137451	0.662127	-0.130477	0.504942	-0.538143
32139		-4.882989	-6.887520	4.247116	0.090425	0.018977	-0.025163	0.476807	0.880371	-0.138916	0.662072	-0.130015	0.504611	-0.538631
32140		-4.948577	-7.101393	4.328010	0.069084	0.052908	-0.017859	0.473633	0.888428	-0.145508	0.661886	-0.129486	0.504570	-0.539027
32141		-5.190273	-7.128291	4.432839	-0.001483	0.073824	-0.027976	0.479248	0.878174	-0.139648	0.661463	-0.129270	0.504945	-0.539246
32142		-5.372936	-7.089877	4.367055	0.021945	0.028847	-0.032861	0.466797	0.875732	-0.141357	0.661272	-0.129173	0.504963	-0.539487
32143		-5.432969	-7.053779	4.430066	0.067401	-0.034086	-0.042204	0.466064	0.881348	-0.132324	0.661317	-0.129129	0.504420	-0.539950
32144		-5.154040	-6.864104	4.629650	0.054498	-0.025267	-0.048504	0.472168	0.881836	-0.150391	0.661275	-0.129179	0.503997	-0.540385
32145		-5.100903	-6.785575	4.542717	0.056802	-0.032039	-0.052547	0.474609	0.884033	-0.141357	0.661262	-0.129210	0.503491	-0.540864
32146		-5.006285	-6.805768	4.498401	0.024739	-0.006216	-0.052867	0.470703	0.878418	-0.145020	0.661115	-0.129340	0.503288	-0.541202
32147		-5.014706	-6.791457	4.377856	0.026647	0.029976	-0.048033	0.468262	0.881104	-0.144287	0.660839	-0.129263	0.503274	-0.541571
32148		-5.184031	-6.916431	4.380094	0.028061	0.039644	-0.054886	0.472900	0.887695	-0.145020	0.660482	-0.129164	0.503302	-0.542003
32149		-5.272736	-7.121156	4.384014	0.026639	0.030969	-0.055841	0.464355	0.886230	-0.150146	0.660162	-0.129118	0.503288	-0.542417
32150		-5.353606	-7.370094	4.842899	0.012425	0.036630	-0.048739	0.469238	0.893555	-0.145020	0.659810	-0.129070	0.503371	-0.542779
32151		-5.185060	-7.046195	4.779457	-0.006033	0.023579	-0.057603	0.473633	0.884766	-0.146240	0.659460	-0.129243	0.503465	-0.543076
32152		-5.052921	-6.930076	4.273836	0.114654	-0.039192	-0.056109	0.466553	0.870361	-0.153809	0.659542	-0.129029	0.502662	-0.543771
32153		-4.947483	-6.935259	4.421891	0.082982	0.012564	-0.049364	0.457520	0.882812	-0.145508	0.659406	-0.128700	0.502280	-0.544367
32154		-5.010783	-6.826692	4.620239	0.031948	0.014413	-0.041934	0.466553	0.889648	-0.145264	0.659196	-0.128639	0.502170	-0.544736
32155		-5.079997	-6.798894	4.525768	-0.015254	0.032936	-0.035113	0.472900	0.888184	-0.141357	0.658909	-0.128735	0.502385	-0.544864
32156		-5.095123	-7.050551	4.463898	0.002152	0.031515	-0.038046	0.461914	0.890869	-0.151855	0.658658	-0.128771	0.502512	-0.545041
32157		-5.076946	-7.152795	4.542826	0.013178	0.015605	-0.041728	0.467529	0.883545	-0.155762	0.658427	-0.128789	0.502484	-0.545341
32158		-5.110076	-7.116287	4.567482	0.031929	0.007832	-0.048443	0.468506	0.891113	-0.148682	0.658248	-0.128756	0.502312	-0.545723
32159		-5.219291	-7.103725	4.653837	0.000043	-0.014276	-0.048468	0.459961	0.888428	-0.147461	0.658124	-0.129028	0.502177	-0.545932
32160		-5.207304	-7.091992	4.596582	-0.022146	-0.029421	-0.046961	0.460693	0.881348	-0.143066	0.658027	-0.129484	0.502064	-0.546045
32161		-5.037935	-7.104779	4.282207	0.001827	-0.037539	-0.026031	0.462646	0.885254	-0.149658	0.658104	-0.129773	0.501823	-0.546106
32162		-5.025496	-7.247130	4.312547	0.013146	-0.034936	-0.004507	0.465332	0.885254	-0.149414	0.658278	-0.129876	0.501561	-0.546113
32163		-5.118179	-7.208767	4.659040	0.033879	-0.035777	-0.003444	0.464111	0.889160	-0.151367	0.658491	-0.129869	0.501200	-0.546189
32164		-5.081117	-7.165099	4.767435	0.061479	-0.038521	-0.004567	0.465820	0.890381	-0.149170	0.658729	-0.129723	0.500698	-0.546396
32165		-4.995910	-7.075029	4.731744	0.073706	-0.041185	-0.007713	0.459717	0.884277	-0.143555	0.658983	-0.129550	0.500127	-0.546654
32166		-4.876189	-6.837767	4.766324	0.065436	-0.031088	-0.010093	0.465332	0.885498	-0.148193	0.659171	-0.129409	0.499654	-0.546894
32167		-4.809062	-6.664984	4.555345	0.023615	0.008000	-0.012098	0.461914	0.880127	-0.153076	0.659155	-0.129318	0.499579	-0.547003
32168		-4.859519	-6.736296	4.589829	-0.020283	0.017332	-0.010719	0.463867	0.886475	-0.153564	0.659053	-0.129397	0.499750	-0.546951
32169		-4.953841	-6.964548	4.662197	-0.025025	0.023913	-0.004191	0.459717	0.880859	-0.150635	0.658945	-0.129445	0.499986	-0.546855
32170		-5.080540	-7.082348	4.610792	-0.013599	0.041920	0.000162	0.463867	0.887207	-0.158447	0.658792	-0.129336	0.500275	-0.546801
32171		-5.131440	-7.098845	4.554187	-0.004360	0.024443	0.000833	0.462646	0.875000	-0.152832	0.658719	-0.129223	0.500418	-0.546784
32172		-5.196295	-7.104195	4.456488	-0.004539	0.019477	0.000518	0.463135	0.890869	-0.155273	0.658683	-0.129150	0.500538	-0.546735
32173		-5.207204	-7.144052	4.470466	0.021093	-0.006562	-0.000225	0.460449	0.881592	-0.153564	0.658757	-0.129055	0.500398	-0.546797
32174		-5.179623	-7.119099	4.516590	0.024627	-0.025393	0.001748	0.462891	0.889648	-0.147705	0.658928	-0.129021	0.500141	-0.546833
32175		-5.108322	-7.065794	4.475050	0.018454	-0.035052	0.008638	0.463867	0.895264	-0.155273	0.659166	-0.129068	0.499877	-0.546777
32176		-5.084278	-7.052759	4.498311	0.006879	-0.010809	0.011972	0.458496	0.878174	-0.152100	0.659293	-0.129028	0.499794	-0.546708
32177		-5.071422	-6.985023	4.597110	-0.003350	-0.008952	0.014654	0.460205	0.886230	-0.150879	0.659424	-0.129028	0.499773	-0.546570
32178		-5.042333	-7.018456	4.595690	0.020638	-0.031614	0.018557	0.461914	0.884033	-0.153076	0.659688	-0.128993	0.499524	-0.546487
32179		-5.049004	-7.115101	4.568048	0.001204	-0.052656	0.021369	0.461914	0.878662	-0.154541	0.660036	-0.129141	0.499249	-0.546284
32180		-5.113969	-7.223982	4.572324	-0.020632	-0.057507	0.018545	0.466064	0.881836	-0.155273	0.660372	-0.129434	0.499042	-0.545997
32181		-5.125009	-7.194001	4.542466	-0.008078	-0.065765	0.023640	0.461426	0.885010	-0.144775	0.660784	-0.129675	0.498737	-0.545719
32182		-5.162391	-7.057361	4.522273	0.040795	-0.069319	0.021985	0.470947	0.886963	-0.158936	0.661252	-0.129719	0.498201	-0.545633
32183		-4.968962	-6.844344	4.570640	0.079857	-0.069587	0.008644	0.468262	0.882568	-0.162354	0.661708	-0.129548	0.497458	-0.545799
32184		-4.855211	-6.840095	4.802071	0.065236	-0.050379	0.001141	0.464844	0.877197	-0.153564	0.662029	-0.129390	0.496877	-0.545975
32185		-4.786240	-6.858384	4.842439	0.029311	-0.030111	-0.003615	0.460205	0.886230	-0.158691	0.662216	-0.129399	0.496575	-0.546021
32186		-4.781093	-6.752951	4.749816	0.011675	-0.002081	-0.011749	0.450439	0.885986	-0.161621	0.662203	-0.129402	0.496495	-0.546109
32187		-4.880325	-6.624150	4.742280	0.004525	0.019973	-0.017658	0.463623	0.879639	-0.158447	0.662039	-0.129358	0.496557	-0.546261
32188		-4.982565	-6.735412	4.793798	-0.019650	0.036851	-0.021308	0.458496	0.885742	-0.157471	0.661806	-0.129391	0.496824	-0.546294
32189		-5.013012	-6.983620	4.702772	-0.024254	0.033450	-0.026431	0.460693	0.883545	-0.153564	0.661541	-0.129494	0.497087	-0.546351
32190		-5.045786	-7.162848	4.563638	-0.030737	0.037201	-0.026818	0.462402	0.881836	-0.153564	0.661263	-0.129629	0.497404	-0.546367
32191		-5.111089	-7.113768	4.509133	-0.018037	0.026792	-0.032441	0.460693	0.877686	-0.150879	0.661023	-0.129758	0.497599	-0.546450
32192		-5.192447	-7.025950	4.477691	-0.002493	0.017101	-0.030312	0.459961	0.887695	-0.149170	0.660852	-0.129843	0.497674	-0.546567
32193		-5.127181	-6.991005	4.555242	0.014549	0.006516	-0.027144	0.466064	0.890869	-0.157715	0.660750	-0.129887	0.497617	-0.546732
32194		-5.101866	-6.954035	4.639683	0.009998	-0.013173	-0.031373	0.455566	0.883789	-0.146973	0.660706	-0.130023	0.497463	-0.546893
32195		-5.000618	-7.040748	4.605434	-0.003138	-0.003415	-0.028735	0.463379	0.887939	-0.155762	0.660618	-0.130225	0.497432	-0.546980
32196		-4.947932	-7.164496	4.441431	-0.003628	-0.003265	-0.024973	0.458740	0.892578	-0.160156	0.660548	-0.130371	0.497403	-0.547055
32197		-4.965888	-7.074700	4.587524	-0.014347	-0.009097	-0.019455	0.460693	0.887207	-0.153809	0.660498	-0.130569	0.497391	-0.547080
32198		-5.051388	-6.981650	4.692888	-0.003424	-0.006485	-0.020575	0.456299	0.877441	-0.153564	0.660461	-0.130719	0.497349	-0.547128
32199		-5.091036	-7.071205	4.621796	0.008208	-0.015082	-0.022003	0.461670	0.881104	-0.157471	0.660466	-0.130843	0.497204	-0.547224
32200		-5.072746	-7.157849	4.679602	0.018985	-0.025283	-0.024368	0.454834	0.888184	-0.159180	0.660517	-0.130945	0.496950	-0.547368
32201		-5.038753	-6.970274	4.526968	0.000156	-0.017159	-0.022656	0.453369	0.885010	-0.163086	0.660502	-0.131117	0.496824	-0.547460
32202		-4.985949	-6.824717	4.546683	-0.012319	-0.010435	-0.024411	0.455811	0.884766	-0.150879	0.660432	-0.131312	0.496786	-0.547531
32203		-4.987328	-6.918803	4.616879	-0.006409	-0.019872	-0.020025	0.454590	0.882080	-0.159912	0.660450	-0.131553	0.496687	-0.547541
32204		-4.991553	-7.094918	4.598384	0.001830	-0.027992	-0.016450	0.453613	0.882324	-0.162598	0.660515	-0.131726	0.496501	-0.547590
32205		-5.013941	-7.175318	4.581089	0.014478	-0.029830	-0.007114	0.457764	0.879883	-0.162842	0.660640	-0.131788	0.496255	-0.547648
32206		-5.081118	-7.170145	4.610256	0.001489	-0.015372	-0.006411	0.454346	0.887207	-0.160889	0.660704	-0.131847	0.496151	-0.547650
32207		-5.052143	-7.064983	4.629876	0.018221	-0.027940	-0.010210	0.456787	0.885010	-0.159180	0.660811	-0.131909	0.495897	-0.547736
32208		-5.025975	-7.045731	4.642721	0.036738	-0.045499	-0.008036	0.464111	0.885254	-0.159424	0.661031	-0.131945	0.495468	-0.547850
32209		-4.933767	-7.071462	4.693904	0.046499	-0.054269	-0.001172	0.455322	0.891602	-0.162354	0.661344	-0.131935	0.494957	-0.547936
32210		-4.905223	-7.006968	4.714232	0.029605	-0.053668	0.000875	0.457031	0.886719	-0.161133	0.661621	-0.132016	0.494522	-0.547975
32211		-4.840818	-6.880839	4.757514	-0.016717	-0.031397	0.001125	0.447021	0.880127	-0.152344	0.661767	-0.132251	0.494425	-0.547831
32212		-4.860909	-6.919969	4.676540	0.000963	-0.028753	0.006217	0.461914	0.881592	-0.165771	0.661943	-0.132400	0.494269	-0.547722
32213		-4.964388	-7.087374	4.639243	-0.003523	-0.012094	0.006042	0.448975	0.890625	-0.157959	0.662051	-0.132419	0.494224	-0.547627
32214		-5.018745	-7.012133	4.681762	-0.034471	-0.010829	0.003867	0.454834	0.888916	-0.164551	0.662092	-0.132680	0.494321	-0.547427
32215		-4.977895	-6.912969	4.725043	-0.025978	-0.015112	0.006016	0.454102	0.878418	-0.158691	0.662171	-0.132860	0.494357	-0.547256
32216		-4.959032	-6.946315	4.626092	0.020293	-0.036532	0.005181	0.451172	0.885742	-0.163574	0.662400	-0.132899	0.494067	-0.547231
32217		-4.965228	-7.086622	4.596536	0.044459	-0.051804	-0.001828	0.450684	0.874512	-0.163330	0.662669	-0.132896	0.493570	-0.547355
32218		-4.989486	-6.978053	4.677423	0.025424	-0.055573	-0.009091	0.462646	0.884277	-0.171875	0.662908	-0.133036	0.493133	-0.547426
32219		-5.002982	-6.847432	4.586219	0.009057	-0.055728	-0.007980	0.455811	0.885254	-0.164551	0.663137	-0.133223	0.492771	-0.547428
32220		-5.088162	-6.994574	4.577960	-0.006800	-0.056118	-0.003341	0.457275	0.887695	-0.168213	0.663371	-0.133529	0.492486	-0.547327
32221		-5.056521	-7.079165	4.651029	-0.030766	-0.050722	0.001614	0.458252	0.886475	-0.159424	0.663575	-0.133907	0.492344	-0.547116
32222		-4.986249	-7.051205	4.676773	-0.005007	-0.066545	0.014659	0.454102	0.884521	-0.166260	0.663947	-0.134201	0.492018	-0.546885
32223		-5.003997	-7.021702	4.748909	0.005140	-0.086964	0.020481	0.460693	0.886475	-0.162842	0.664424	-0.134479	0.491533	-0.546674
32224		-4.994598	-7.085773	4.723777	-0.007360	-0.101515	0.012188	0.449219	0.893555	-0.166504	0.664924	-0.134941	0.491021	-0.546411
32225		-4.854961	-7.103041	4.789389	0.005454	-0.098508	0.004931	0.455078	0.890137	-0.159180	0.665366	-0.135361	0.490446	-0.546286
32226		-4.865000	-6.964311	4.800715	-0.000893	-0.062023	0.008457	0.451904	0.887207	-0.168945	0.665691	-0.135663	0.490118	-0.546110
32227		-4.905965	-6.891651	4.830890	-0.031573	-0.098236	0.010360	0.454346	0.889160	-0.162109	0.666121	-0.136245	0.489722	-0.545796
32228		-4.795003	-7.012116	4.730143	-0.002179	-0.086480	0.040914	0.452148	0.887207	-0.164307	0.666688	-0.136521	0.489297	-0.545415
32229		-4.840386	-7.193726	4.750034	0.037917	-0.054052	0.033009	0.449707	0.879395	-0.174805	0.667127	-0.136453	0.488859	-0.545289
32230		-4.912978	-7.117544	4.883398	-0.005435	-0.036948	0.013735	0.458496	0.891113	-0.165039	0.667344	-0.136571	0.488684	-0.545149
32231		-4.892868	-6.975569	4.756807	-0.012153	-0.057830	0.012730	0.458252	0.882324	-0.171875	0.667656	-0.136881	0.488433	-0.544915
32232		-4.798553	-6.985852	4.745511	0.023884	-0.086338	0.032334	0.456543	0.882812	-0.166992	0.668208	-0.136992	0.487880	-0.544706
32233		-4.851106	-6.979510	4.811752	0.030601	-0.064089	0.037301	0.458252	0.889893	-0.172119	0.668705	-0.136980	0.487427	-0.544505
32234		-4.922930	-6.902912	4.732344	0.011702	-0.045361	0.020179	0.457031	0.879150	-0.166992	0.669018	-0.137047	0.487140	-0.544360
32235		-4.998343	-6.970017	4.728820	-0.011192	-0.055475	0.020477	0.459473	0.883789	-0.168945	0.669359	-0.137298	0.486907	-0.544086
32236		-4.975208	-7.052782	4.752504	-0.049880	-0.065683	0.027822	0.461670	0.881592	-0.162354	0.669727	-0.137777	0.486800	-0.543607
32237		-4.967510	-7.046495	4.642021	-0.039937	-0.102672	0.028818	0.458008	0.882568	-0.175537	0.670274	-0.138388	0.486449	-0.543092
32238		-4.930175	-7.171499	4.827675	-0.008442	-0.096947	0.030560	0.462646	0.875977	-0.167725	0.670816	-0.138734	0.485978	-0.542757
32239		-4.903509	-7.124755	4.902968	-0.004139	-0.077560	0.022858	0.458984	0.886963	-0.171631	0.671269	-0.139019	0.485598	-0.542463
32240		-4.848948	-6.981226	4.726966	0.017958	-0.095051	0.026506	0.460449	0.884033	-0.165283	0.671822	-0.139260	0.485013	-0.542240
32241		-4.835133	-6.964327	4.659914	0.025206	-0.094647	0.026115	0.453857	0.880371	-0.170410	0.672393	-0.139489	0.484403	-0.542018
32242		-4.918734	-6.982990	4.849694	-0.033741	-0.078772	0.027104	0.463135	0.879883	-0.181396	0.672824	-0.139959	0.484142	-0.541596
32243		-5.004732	-7.053904	4.894943	-0.054527	-0.070473	0.004566	0.455811	0.872070	-0.169434	0.673085	-0.140521	0.483999	-0.541254
32244		-4.876574	-7.078558	4.935955	-0.020021	-0.098322	-0.012253	0.453369	0.882812	-0.173096	0.673436	-0.141143	0.483526	-0.541078
32245		-4.707841	-7.024131	4.817037	0.032117	-0.101106	0.002302	0.458984	0.884521	-0.166992	0.673917	-0.141439	0.482809	-0.541043
32246		-4.743043	-6.978354	4.937925	0.005410	-0.098103	0.001047	0.455811	0.881836	-0.183105	0.674364	-0.141903	0.482237	-0.540873
32247		-4.897366	-7.028386	4.678135	-0.016623	-0.059156	-0.014251	0.454590	0.882812	-0.176514	0.674533	-0.142300	0.481955	-0.540809
32248		-4.894050	-6.997490	4.833788	0.005622	-0.111975	-0.017912	0.454590	0.882324	-0.178223	0.674934	-0.142864	0.481273	-0.540768
32249		-4.707876	-6.876505	4.977811	-0.004696	-0.125861	-0.012968	0.461426	0.888184	-0.173828	0.675399	-0.143522	0.480566	-0.540642
32250		-4.712107	-6.848412	4.890755	0.045030	-0.140329	-0.000520	0.459961	0.884766	-0.172852	0.676050	-0.143936	0.479576	-0.540598
32251		-4.878352	-6.963172	4.756499	-0.026783	-0.142645	0.007638	0.459961	0.890625	-0.179199	0.676663	-0.144741	0.478908	-0.540208
32252		-4.881570	-6.958093	4.866654	-0.054315	-0.086772	-0.013487	0.458252	0.888428	-0.180176	0.676915	-0.145519	0.478646	-0.539915
32253		-4.771369	-6.783907	5.040462	-0.061542	-0.064030	-0.036921	0.455322	0.885010	-0.182861	0.676959	-0.146319	0.478516	-0.539759
32254		-4.583752	-6.809363	4.985288	-0.036566	-0.062698	-0.020638	0.462891	0.885498	-0.178955	0.677095	-0.146888	0.478298	-0.539627
32255		-4.654110	-6.987665	5.009920	-0.006239	-0.039522	-0.008303	0.453613	0.888428	-0.165771	0.677240	-0.147129	0.478104	-0.539552
32256		-4.633930	-7.149494	4.973630	-0.043555	0.023126	0.006836	0.457275	0.883545	-0.170898	0.677177	-0.147345	0.478438	-0.539275
32257		-4.664596	-7.179566	4.942512	0.014326	0.031400	0.015471	0.455322	0.884766	-0.169922	0.677182	-0.147108	0.478576	-0.539212
32258		-4.611586	-7.146439	5.144419	-0.014684	0.064130	0.017901	0.458008	0.881836	-0.171875	0.677033	-0.146894	0.479027	-0.539056
32259		-4.596124	-7.084815	4.895533	-0.121913	0.062090	0.032821	0.453369	0.883301	-0.170410	0.676823	-0.147206	0.479970	-0.538396
32260		-4.595363	-6.991992	4.973849	-0.137796	0.088848	0.034680	0.453125	0.882812	-0.168701	0.676492	-0.147498	0.481126	-0.537699
32261		-4.810376	-6.998197	4.555930	-0.100296	0.041112	0.018056	0.457275	0.885010	-0.167236	0.676322	-0.147857	0.481823	-0.537191
32262		-4.764542	-6.883046	4.667836	-0.054663	-0.039248	-0.001024	0.450684	0.882324	-0.164062	0.676444	-0.148385	0.481842	-0.536873
32263		-4.781375	-6.845654	4.540475	-0.034448	-0.036428	-0.010028	0.457764	0.892334	-0.167480	0.676544	-0.148852	0.481768	-0.536685
32264		-4.901985	-7.034823	4.776365	-0.048111	0.019738	-0.016441	0.452393	0.876221	-0.164551	0.676369	-0.149153	0.482067	-0.536553
32265		-4.824195	-7.013600	4.902524	-0.085146	0.015597	-0.013389	0.452393	0.890625	-0.168457	0.676175	-0.149650	0.482518	-0.536254
32266		-4.758281	-6.821324	4.983713	-0.114387	0.013000	-0.003340	0.461426	0.884277	-0.154541	0.675997	-0.150297	0.483082	-0.535790
32267		-4.782562	-6.662110	4.910410	-0.157571	0.013490	-0.023118	0.456787	0.886230	-0.161621	0.675689	-0.151273	0.483844	-0.535216
32268		-4.905261	-6.813974	4.819817	-0.164005	0.070889	-0.030301	0.450439	0.882324	-0.159180	0.675093	-0.152029	0.484934	-0.534767
32269		-5.031409	-7.242125	4.463122	-0.174641	0.060505	-0.034815	0.448975	0.886230	-0.153564	0.674502	-0.152915	0.486000	-0.534292
32270		-5.125872	-7.697495	4.456719	-0.156776	-0.026872	-0.019215	0.456299	0.894531	-0.148193	0.674362	-0.154055	0.486509	-0.533678
32271		-5.095370	-7.475143	4.598897	-0.120810	-0.096121	-0.006910	0.452881	0.888672	-0.147461	0.674608	-0.155260	0.486493	-0.533032
32272		-5.071914	-7.180500	4.502769	-0.099789	-0.111233	-0.002266	0.460938	0.886963	-0.149658	0.674959	-0.156387	0.486303	-0.532431
32273		-4.991097	-7.227469	4.789329	-0.071101	-0.136328	-0.008636	0.451416	0.897461	-0.153320	0.675411	-0.157431	0.485853	-0.531960
32274		-4.606334	-6.829246	4.981694	-0.103818	-0.130834	0.011430	0.461182	0.889404	-0.143799	0.675887	-0.158604	0.485576	-0.531260
32275		-4.539497	-6.755149	4.772284	-0.191071	-0.054885	0.022760	0.455566	0.895996	-0.143066	0.675997	-0.159867	0.486157	-0.530210
32276		-4.744351	-7.132358	4.214235	-0.219178	0.009371	0.013679	0.454834	0.883545	-0.141357	0.675769	-0.161077	0.487191	-0.529184
32277		-4.800030	-7.255823	4.600026	-0.111808	-0.057137	0.010670	0.464111	0.878906	-0.134033	0.675931	-0.161942	0.487383	-0.528536
32278		-4.656964	-7.184710	4.985398	-0.121600	-0.094476	0.009556	0.451660	0.891113	-0.136963	0.676230	-0.163012	0.487429	-0.527781
32279		-4.644573	-7.309818	4.861055	-0.119939	-0.078774	0.008375	0.450195	0.895508	-0.142578	0.676467	-0.164076	0.487516	-0.527067
32280		-4.652885	-7.343839	4.620963	-0.089167	-0.078144	0.017993	0.455811	0.893066	-0.135010	0.676775	-0.164905	0.487475	-0.526451
32281		-4.747878	-7.526292	4.631339	-0.140692	-0.045858	0.032595	0.458252	0.895020	-0.131592	0.676952	-0.165831	0.487876	-0.525559
32282		-4.693821	-7.643980	4.712139	-0.175134	-0.004215	0.052656	0.452637	0.890137	-0.133057	0.677003	-0.166694	0.488692	-0.524462
32283		-4.576897	-7.286664	4.677752	-0.075092	-0.017642	0.071015	0.455322	0.891113	-0.125977	0.677319	-0.166966	0.489011	-0.523670
32284		-4.631420	-7.030555	4.758421	-0.072221	-0.053858	0.068173	0.458008	0.891602	-0.126709	0.677785	-0.167424	0.489111	-0.522827
32285		-4.545886	-7.076406	4.451176	-0.173293	-0.001947	0.045726	0.454834	0.893066	-0.124023	0.677796	-0.168304	0.489915	-0.521776
32286		-4.513413	-7.356977	4.352254	-0.138125	0.053734	0.035189	0.454834	0.888916	-0.124512	0.677585	-0.168809	0.490855	-0.521003
32287		-4.602114	-7.450640	4.537987	-0.071361	0.029209	0.045680	0.465088	0.889160	-0.122559	0.677605	-0.168972	0.491383	-0.520425
32288		-4.843550	-7.560307	4.660113	0.012533	0.052987	0.046803	0.464111	0.892578	-0.125000	0.677648	-0.168519	0.491702	-0.520215
32289		-5.009369	-7.362591	4.692057	0.007568	0.068576	0.047001	0.461182	0.890869	-0.125000	0.677618	-0.168029	0.492122	-0.520015
32290		-4.813642	-6.839951	4.492323	-0.060747	0.016484	0.034610	0.456299	0.886963	-0.120117	0.677653	-0.168212	0.492521	-0.519533
32291		-4.628308	-6.729434	4.225440	-0.122339	0.025207	-0.007239	0.458984	0.884521	-0.116455	0.677391	-0.168909	0.493170	-0.519032
32292		-4.726006	-6.971957	4.243051	-0.099790	0.071399	-0.037244	0.461670	0.888916	-0.118164	0.676840	-0.169391	0.493948	-0.518854
32293		-4.750360	-7.234239	4.138983	-0.004735	0.032725	-0.057322	0.463379	0.883057	-0.123779	0.676489	-0.169564	0.494071	-0.519139
32294		-4.937431	-7.305107	4.360029	0.124751	-0.020835	-0.072251	0.463867	0.892090	-0.118408	0.676460	-0.169234	0.493320	-0.519997
32295		-4.897336	-7.377399	4.392293	0.105236	0.046171	-0.063695	0.460938	0.901123	-0.127441	0.676182	-0.168752	0.493038	-0.520783
32296		-4.872545	-7.315278	4.682569	0.008035	0.094511	-0.040296	0.458252	0.887451	-0.130371	0.675661	-0.168502	0.493469	-0.521132
32297		-4.942673	-7.225783	4.399256	-0.005709	0.060028	-0.036674	0.463867	0.887939	-0.118896	0.675264	-0.168410	0.493779	-0.521381
32298		-5.123044	-7.017180	4.209942	0.027164	0.007006	-0.093301	0.452393	0.889648	-0.113281	0.674903	-0.168635	0.493581	-0.521963
32299		-5.257558	-7.175976	4.290421	0.070234	-0.047043	-0.130669	0.458496	0.895996	-0.124512	0.674677	-0.169085	0.492820	-0.522829
32300		-5.034628	-7.290932	4.569298	0.139236	-0.083348	-0.126840	0.452881	0.892090	-0.119873	0.674693	-0.169213	0.491567	-0.523945
32301		-4.563470	-7.477166	4.443052	0.150794	-0.085657	-0.082244	0.452881	0.887939	-0.129395	0.674940	-0.169147	0.490311	-0.524824
32302		-4.391647	-7.638348	4.632034	0.206622	0.035374	-0.025783	0.449707	0.890625	-0.128418	0.675001	-0.167948	0.489576	-0.525816
32303		-4.824689	-7.726136	4.855075	0.205385	0.093630	0.009228	0.457031	0.893555	-0.134766	0.674985	-0.166402	0.489213	-0.526665
32304		-5.132920	-7.411420	4.967793	0.068120	0.062658	0.019113	0.458740	0.885010	-0.128662	0.674938	-0.165683	0.489300	-0.526871
32305		-4.799444	-6.799826	4.711305	0.015303	-0.004331	0.007826	0.452393	0.885986	-0.130615	0.675050	-0.165609	0.489238	-0.526809
32306		-4.576724	-6.667754	4.227440	0.069476	-0.025989	-0.042316	0.450684	0.897705	-0.136475	0.675104	-0.165549	0.488733	-0.527227
32307		-4.407618	-7.000909	4.241510	0.016152	-0.011358	-0.071327	0.449463	0.889160	-0.128418	0.674895	-0.165855	0.488491	-0.527622
32308		-4.358235	-7.375874	4.517205	-0.060013	0.030837	-0.068308	0.452881	0.889404	-0.130615	0.674434	-0.166414	0.488833	-0.527719
32309		-4.593395	-7.929003	5.074792	-0.014583	0.038256	0.000366	0.453369	0.895508	-0.131836	0.674299	-0.166367	0.489121	-0.527640
32310		-4.640430	-7.609440	5.244498	0.188038	0.037454	0.104997	0.447754	0.899414	-0.137939	0.674908	-0.164766	0.488651	-0.527799
32311		-5.135734	-7.395966	4.940324	0.245446	0.092004	0.129051	0.454102	0.892822	-0.137451	0.675476	-0.162529	0.488248	-0.528138
32312		-5.146107	-6.936897	3.991886	0.094653	0.118997	0.065579	0.452393	0.892334	-0.142822	0.675450	-0.161267	0.488585	-0.528247
32313		-4.607647	-6.532781	4.520912	-0.083272	0.112093	-0.021161	0.457031	0.892334	-0.132324	0.674820	-0.161372	0.489545	-0.528131
32314		-4.394437	-6.956358	4.256499	-0.096564	0.103495	-0.031506	0.456299	0.883789	-0.134277	0.674176	-0.161660	0.490509	-0.527971
32315		-4.581825	-7.543554	4.626599	-0.019196	0.041952	0.032908	0.458740	0.888916	-0.131104	0.674155	-0.161470	0.490881	-0.527709
32316		-4.810265	-7.524104	4.771000	0.109870	0.016602	0.109596	0.468018	0.892334	-0.141602	0.674758	-0.160378	0.490644	-0.527494
32317		-5.167292	-7.412127	4.672507	0.195835	0.027827	0.087112	0.459473	0.885742	-0.145996	0.675308	-0.158775	0.490070	-0.527808
32318		-5.091134	-6.964761	3.987703	0.144592	0.016468	-0.005104	0.467529	0.889404	-0.149170	0.675428	-0.157900	0.489520	-0.528427
32319		-4.589833	-6.666485	4.335762	0.115439	0.022441	-0.071910	0.457764	0.890381	-0.144043	0.675185	-0.157407	0.489056	-0.529313
32320		-4.547008	-6.789989	4.640579	0.061106	0.031277	-0.082587	0.455566	0.889648	-0.143799	0.674807	-0.157302	0.488850	-0.530017
32321		-4.663962	-6.573111	5.032807	-0.057339	-0.049368	-0.064834	0.454834	0.885498	-0.145264	0.674682	-0.158152	0.488735	-0.530028
32322		-4.582664	-6.541452	5.141571	-0.051907	-0.053930	-0.011629	0.453369	0.879150	-0.147705	0.674809	-0.158747	0.488646	-0.529770
32323		-4.691019	-7.085847	5.150488	0.024303	0.007835	0.024381	0.452393	0.884033	-0.144531	0.674935	-0.158463	0.488619	-0.529721
32324		-4.974831	-7.528032	4.583940	0.050531	0.083633	-0.010308	0.452637	0.893311	-0.143555	0.674645	-0.157879	0.488849	-0.530051
32325		-4.811367	-7.188011	4.649691	-0.013947	0.168149	-0.040054	0.460205	0.889648	-0.142334	0.673803	-0.157441	0.489791	-0.530384
32326		-4.846422	-7.286443	4.235203	-0.010845	0.176873	-0.049628	0.460693	0.886719	-0.142822	0.672878	-0.156940	0.490772	-0.530800
32327		-5.017905	-7.691641	4.185760	0.066203	0.076304	-0.002745	0.453857	0.892334	-0.142822	0.672664	-0.156235	0.490913	-0.531149
32328		-5.259090	-7.924785	4.636915	0.078729	-0.032420	0.014504	0.464600	0.882080	-0.147217	0.672995	-0.155918	0.490394	-0.531301
32329		-5.047341	-7.400082	4.761829	0.093472	-0.027875	0.026797	0.459473	0.887451	-0.148682	0.673362	-0.155358	0.489878	-0.531476
32330		-4.862087	-6.810794	5.027673	0.178613	-0.024038	-0.010633	0.461426	0.886963	-0.153320	0.673665	-0.154497	0.488943	-0.532205
32331		-4.730604	-6.597169	4.966210	0.153104	0.036358	-0.032492	0.455078	0.888428	-0.148438	0.673585	-0.153580	0.488434	-0.533038
32332		-4.638329	-6.838188	4.429569	0.070669	0.078405	-0.046618	0.464844	0.889648	-0.140381	0.673183	-0.153066	0.488497	-0.533635
32333		-4.707797	-7.184963	4.204522	0.009064	0.110574	-0.035159	0.459473	0.878906	-0.149658	0.672636	-0.152718	0.489046	-0.533921
32334		-4.753712	-7.257564	4.415438	0.011815	0.113000	-0.007930	0.460449	0.885742	-0.150879	0.672176	-0.152162	0.489631	-0.534122
32335		-5.100891	-7.223659	4.945904	0.022966	0.036075	-0.038893	0.462402	0.885986	-0.157471	0.671907	-0.152020	0.489691	-0.534446
32336		-5.057138	-7.116610	4.765911	-0.012324	-0.034350	-0.066782	0.450439	0.890381	-0.150635	0.671741	-0.152456	0.489482	-0.534723
32337		-4.792302	-6.980590	4.559387	0.082036	-0.036739	-0.084105	0.453613	0.885742	-0.154053	0.671650	-0.152540	0.488794	-0.535441
32338		-4.646894	-7.025343	4.627107	0.057949	-0.009451	-0.081991	0.452881	0.892334	-0.154053	0.671417	-0.152583	0.488382	-0.536098
32339		-4.500666	-7.070472	4.454706	0.031724	0.063071	-0.077955	0.446777	0.886230	-0.153076	0.670878	-0.152456	0.488492	-0.536708
32340		-4.607906	-7.036154	4.604354	0.001229	0.078878	-0.080842	0.448486	0.896240	-0.154053	0.670223	-0.152445	0.488820	-0.537230
32341		-4.688371	-6.956796	4.852076	-0.072730	0.070476	-0.070920	0.454834	0.884277	-0.151123	0.669554	-0.152854	0.489440	-0.537383
32342		-4.708599	-6.934712	4.892085	-0.075814	0.063667	-0.060062	0.456543	0.890625	-0.151123	0.668948	-0.153208	0.490073	-0.537461
32343		-4.892134	-7.232068	4.592619	-0.005676	0.043040	-0.069536	0.446533	0.898926	-0.145752	0.668472	-0.153302	0.490263	-0.537852
32344		-4.927319	-7.363530	4.677747	-0.019554	0.064486	-0.089524	0.451172	0.895752	-0.147949	0.667821	-0.153544	0.490587	-0.538296
32345		-4.924583	-7.314914	4.649734	-0.004799	0.096249	-0.091113	0.447998	0.884766	-0.142090	0.667040	-0.153518	0.491032	-0.538867
32346		-5.064986	-7.287735	4.583364	0.040939	0.065573	-0.087394	0.438965	0.885498	-0.143555	0.666462	-0.153362	0.491112	-0.539553
32347		-4.847240	-7.062603	5.001271	-0.054171	0.047532	-0.058498	0.439209	0.897217	-0.150635	0.665967	-0.153720	0.491543	-0.539670
32348		-4.713654	-7.090576	4.466279	-0.007226	-0.002324	-0.032104	0.445068	0.903320	-0.147217	0.665844	-0.153915	0.491511	-0.539796
32349		-4.822110	-7.523019	4.323244	0.007912	0.019480	-0.011810	0.446045	0.894775	-0.142822	0.665750	-0.153857	0.491564	-0.539880
32350		-4.891838	-7.548584	4.634685	0.008896	0.048272	-0.015291	0.444580	0.896729	-0.149414	0.665527	-0.153674	0.491777	-0.540013
32351		-4.787892	-7.291286	4.687682	0.064167	0.034834	-0.019034	0.445557	0.893311	-0.147705	0.665399	-0.153231	0.491658	-0.540404
32352		-4.762190	-7.191060	4.587638	0.053202	0.058813	-0.006130	0.445312	0.893555	-0.148438	0.665220	-0.152688	0.491742	-0.540701
32353		-4.843032	-7.327290	4.576113	0.026530	0.063001	-0.001327	0.438232	0.900879	-0.149658	0.665011	-0.152255	0.491975	-0.540869
32354		-4.844858	-7.343457	4.745969	0.007706	0.065651	0.014910	0.439453	0.892578	-0.153076	0.664845	-0.151888	0.492309	-0.540872
32355		-4.859252	-7.288009	4.689041	0.036077	0.042296	0.031322	0.451416	0.895996	-0.148926	0.664870	-0.151354	0.492415	-0.540894
32356		-4.771364	-7.236044	4.767776	0.042357	0.036615	0.041453	0.443848	0.889893	-0.148193	0.664981	-0.150763	0.492489	-0.540856
32357		-4.702399	-7.135665	4.708494	0.037847	0.032870	0.034140	0.441895	0.884277	-0.148926	0.665069	-0.150265	0.492545	-0.540836
32358		-4.623759	-6.991612	4.486856	0.014674	0.040821	0.034690	0.437500	0.892578	-0.153564	0.665095	-0.149849	0.492749	-0.540732
32359		-4.728550	-7.025999	4.396207	0.033291	0.042898	0.044393	0.450928	0.893799	-0.150391	0.665176	-0.149296	0.492879	-0.540669
32360		-5.006833	-7.277832	4.514894	0.028909	0.055905	0.036986	0.447021	0.898682	-0.143555	0.665168	-0.148718	0.493109	-0.540627
32361		-5.028957	-7.278934	4.843741	-0.034161	0.019997	0.011499	0.451904	0.891846	-0.144043	0.665134	-0.148826	0.493381	-0.540391
32362		-4.786437	-7.095798	4.622809	0.030225	-0.005549	0.007585	0.455811	0.894531	-0.145020	0.665260	-0.148667	0.493230	-0.540418
32363		-4.709456	-7.078750	4.657858	0.056149	0.000790	0.006039	0.455078	0.897461	-0.150879	0.665384	-0.148333	0.492998	-0.540569
32364		-4.648919	-6.961556	4.728010	0.045573	0.044894	0.012865	0.457031	0.885010	-0.156494	0.665335	-0.147815	0.493063	-0.540711
32365		-4.720980	-6.830621	4.604596	0.047790	0.047201	0.004244	0.453613	0.894043	-0.148926	0.665223	-0.147239	0.493131	-0.540944
