// Start Time: Unknown
// Update Rate: 60.0Hz
// Filter Profile: human (46.1)
// Firmware Version: 4.6.0
PacketCounter	SampleTimeFine	Acc_X	Acc_Y	Acc_Z	Gyr_X	Gyr_Y	Gyr_Z	Mag_X	Mag_Y	Mag_Z	Quat_q0	Quat_q1	Quat_q2	Quat_q3
55664		8.232127	-5.458335	-0.135213	0.104416	-0.054836	0.005586	-0.284180	0.673584	0.274414	0.492531	-0.698893	-0.135802	-0.500519
55665		8.204072	-5.470405	-0.112928	0.098621	-0.050061	0.004944	-0.281006	0.674805	0.272461	0.493069	-0.698703	-0.136390	-0.500095
55666		8.188177	-5.443890	-0.042348	0.084875	-0.032307	0.001109	-0.270752	0.673584	0.274170	0.493534	-0.698490	-0.136868	-0.499803
55667		8.307249	-5.464129	-0.025314	0.072892	-0.014840	0.004455	-0.274658	0.670166	0.263916	0.493961	-0.698256	-0.137206	-0.499616
55668		8.292215	-5.392577	-0.137607	0.070644	0.000722	0.004043	-0.275391	0.668457	0.268066	0.494391	-0.697964	-0.137474	-0.499525
55669		8.159236	-5.306724	-0.136973	0.071041	-0.009088	0.006800	-0.275146	0.673096	0.268799	0.494821	-0.697714	-0.137770	-0.499366
55670		8.120046	-5.321964	-0.129247	0.063038	-0.013243	0.003477	-0.284912	0.675781	0.273193	0.495184	-0.697510	-0.138072	-0.499208
55671		8.179285	-5.355893	-0.094499	0.058248	-0.001638	0.000352	-0.281738	0.665527	0.270264	0.495517	-0.697275	-0.138326	-0.499136
55672		8.247583	-5.338010	-0.125444	0.041574	0.009896	-0.007048	-0.282959	0.672119	0.279785	0.495735	-0.697050	-0.138509	-0.499183
55673		8.301789	-5.318961	-0.072774	0.018911	-0.001748	-0.015707	-0.281494	0.671387	0.270020	0.495766	-0.696958	-0.138701	-0.499227
55674		8.259395	-5.323110	-0.092481	0.002834	-0.005849	-0.015260	-0.274658	0.674316	0.267090	0.495696	-0.696947	-0.138849	-0.499270
55675		8.200417	-5.369532	-0.105419	-0.001132	0.005305	-0.020243	-0.283447	0.673828	0.262451	0.495591	-0.696898	-0.138970	-0.499409
55676		8.125029	-5.395349	-0.097429	-0.015324	0.024569	-0.023961	-0.274902	0.678223	0.266357	0.495408	-0.696824	-0.138976	-0.499693
55677		8.082039	-5.389928	-0.103329	-0.032841	0.037547	-0.033262	-0.283936	0.671143	0.262451	0.495101	-0.696757	-0.138907	-0.500110
55678		8.109744	-5.385887	-0.079016	-0.030001	0.040813	-0.039309	-0.280518	0.676270	0.270508	0.494791	-0.696659	-0.138869	-0.500563
55679		8.129325	-5.419867	-0.067209	-0.025440	0.018949	-0.045087	-0.278564	0.667480	0.267822	0.494460	-0.696627	-0.138968	-0.500907
55680		8.122889	-5.444802	-0.067197	-0.023596	0.004767	-0.044378	-0.279053	0.673584	0.270752	0.494134	-0.696648	-0.139123	-0.501158
55681		8.120536	-5.450675	-0.062023	-0.034981	0.015960	-0.039975	-0.277832	0.668701	0.261963	0.493777	-0.696672	-0.139152	-0.501466
55682		8.171398	-5.489218	-0.097239	-0.045830	0.028931	-0.042193	-0.277344	0.672852	0.263916	0.493376	-0.696683	-0.139087	-0.501864
55683		8.184833	-5.556913	-0.188823	-0.047965	0.035592	-0.047050	-0.277588	0.662109	0.272705	0.492955	-0.696671	-0.139006	-0.502317
55684		8.116955	-5.588010	-0.158358	-0.041407	0.035372	-0.044744	-0.281006	0.676758	0.273438	0.492576	-0.696653	-0.138923	-0.502736
55685		8.111717	-5.571396	-0.078926	-0.031663	0.022147	-0.034329	-0.280518	0.668945	0.272949	0.492298	-0.696667	-0.138859	-0.503006
55686		8.168062	-5.501593	-0.076542	-0.022680	0.015968	-0.033524	-0.291016	0.660889	0.276123	0.492078	-0.696675	-0.138838	-0.503217
55687		8.168376	-5.461592	-0.081721	-0.006785	0.005590	-0.034111	-0.279053	0.665039	0.282715	0.491929	-0.696659	-0.138932	-0.503358
55688		8.135992	-5.459566	-0.120650	-0.003875	0.003165	-0.033753	-0.290527	0.672607	0.273193	0.491802	-0.696657	-0.139032	-0.503458
55689		8.164205	-5.483487	-0.081201	-0.016428	0.009683	-0.033048	-0.287598	0.671143	0.272461	0.491636	-0.696667	-0.139038	-0.503605
55690		8.160326	-5.428229	-0.061949	-0.022283	0.015883	-0.031374	-0.289062	0.669678	0.270996	0.491455	-0.696676	-0.138976	-0.503785
55691		8.149067	-5.392144	-0.084435	-0.028034	0.015967	-0.029397	-0.289062	0.674072	0.267578	0.491254	-0.696705	-0.138878	-0.503970
55692		8.135407	-5.430795	-0.078083	-0.035895	0.020358	-0.030937	-0.288574	0.670166	0.267578	0.491023	-0.696740	-0.138722	-0.504189
55693		8.118116	-5.453504	-0.046939	-0.034293	0.024142	-0.037257	-0.288574	0.668945	0.279297	0.490772	-0.696741	-0.138598	-0.504465
55694		8.107228	-5.498908	-0.052991	-0.035779	0.016181	-0.038044	-0.288086	0.671875	0.272705	0.490490	-0.696806	-0.138519	-0.504671
55695		8.133032	-5.474159	-0.097921	-0.033773	0.010618	-0.035579	-0.287598	0.674072	0.271484	0.490252	-0.696874	-0.138426	-0.504834
55696		8.144384	-5.465356	-0.117507	-0.014586	0.007578	-0.034273	-0.284424	0.664062	0.276367	0.490143	-0.696878	-0.138404	-0.504941
55697		8.146584	-5.432969	-0.135280	-0.000595	-0.001908	-0.034669	-0.293701	0.664551	0.273926	0.490047	-0.696878	-0.138519	-0.505003
55698		8.174962	-5.491570	-0.127033	0.005863	-0.010640	-0.034203	-0.285645	0.665283	0.277588	0.489994	-0.696871	-0.138693	-0.505015
55699		8.149672	-5.483491	-0.047505	0.006157	-0.010936	-0.036835	-0.287598	0.674561	0.278564	0.489925	-0.696891	-0.138879	-0.505004
55700		8.137328	-5.467294	-0.041498	0.010837	-0.021944	-0.026355	-0.286377	0.655518	0.282471	0.489974	-0.696956	-0.139036	-0.504823
55701		8.171716	-5.426143	-0.009747	0.008909	-0.023101	-0.018726	-0.279297	0.667969	0.281738	0.489924	-0.697041	-0.139226	-0.504703
55702		8.209807	-5.388125	-0.080823	0.001478	-0.021125	-0.016803	-0.291504	0.669678	0.269043	0.489921	-0.697165	-0.139297	-0.504514
55703		8.254806	-5.379080	-0.063052	-0.008117	-0.013463	-0.016015	-0.300293	0.661865	0.283447	0.489909	-0.697223	-0.139268	-0.504454
55704		8.290494	-5.381535	-0.074156	-0.016597	-0.001164	-0.011515	-0.293945	0.664307	0.277100	0.489815	-0.697302	-0.139235	-0.504445
55705		8.264810	-5.372069	-0.085014	-0.018292	0.006129	-0.003387	-0.291016	0.661377	0.275879	0.489768	-0.697352	-0.139073	-0.504467
55706		8.233868	-5.380445	0.035930	-0.021064	-0.003953	-0.007912	-0.290527	0.667725	0.277100	0.489646	-0.697448	-0.138971	-0.504480
55707		8.154857	-5.395580	-0.074116	-0.013256	-0.009967	-0.013513	-0.291504	0.669922	0.275879	0.489590	-0.697533	-0.138941	-0.504426
55708		8.121086	-5.417594	-0.224948	-0.000196	-0.030576	-0.023427	-0.284180	0.661865	0.270264	0.489564	-0.697630	-0.139101	-0.504272
55709		8.179078	-5.431558	-0.173605	0.013237	-0.031533	-0.027584	-0.294189	0.665771	0.277832	0.489530	-0.697669	-0.139327	-0.504188
55710		8.214847	-5.382638	-0.093979	0.011589	-0.018679	-0.027139	-0.290283	0.660889	0.273682	0.489530	-0.697675	-0.139540	-0.504121
55711		8.335476	-5.264554	-0.007369	0.010764	-0.012254	-0.026916	-0.285645	0.664307	0.265137	0.489494	-0.697649	-0.139708	-0.504146
55712		8.325470	-5.236714	-0.043026	-0.000638	-0.009907	-0.025610	-0.294434	0.664062	0.276367	0.489450	-0.697624	-0.139768	-0.504207
55713		8.296295	-5.251311	-0.107824	-0.012224	0.000918	-0.025929	-0.291260	0.670166	0.275635	0.489316	-0.697629	-0.139816	-0.504316
55714		8.273272	-5.302153	-0.131390	-0.022266	0.009001	-0.021177	-0.298828	0.666504	0.279297	0.489206	-0.697651	-0.139743	-0.504413
55715		8.268110	-5.331260	-0.096050	-0.044752	0.023368	-0.017005	-0.287354	0.668213	0.282471	0.488951	-0.697704	-0.139546	-0.504641
55716		8.308614	-5.307349	-0.051621	-0.059687	0.035029	-0.006291	-0.291748	0.666992	0.280518	0.488676	-0.697838	-0.139135	-0.504836
55717		8.270067	-5.363206	-0.127695	-0.056116	0.034654	-0.007774	-0.295410	0.669189	0.273438	0.488411	-0.697924	-0.138765	-0.505075
55718		8.237820	-5.420113	-0.132660	-0.047653	0.023742	-0.009912	-0.295166	0.659912	0.285645	0.488218	-0.697959	-0.138483	-0.505291
55719		8.209806	-5.492217	-0.161431	-0.027302	0.030031	-0.008894	-0.298340	0.667969	0.277100	0.488023	-0.697971	-0.138292	-0.505515
55720		8.174278	-5.478911	-0.138596	-0.022253	0.025306	-0.012459	-0.293701	0.661377	0.274902	0.487949	-0.697906	-0.138146	-0.505716
55721		8.192445	-5.462127	-0.126574	-0.002035	0.007498	-0.009832	-0.299072	0.665771	0.280273	0.487929	-0.697851	-0.138111	-0.505821
55722		8.200822	-5.511374	-0.145153	0.013284	0.001213	-0.010242	-0.291016	0.661865	0.278564	0.488012	-0.697769	-0.138207	-0.505827
55723		8.147816	-5.513863	-0.133339	0.017553	-0.001408	-0.004850	-0.298584	0.662598	0.285645	0.488114	-0.697719	-0.138249	-0.505787
55724		8.103332	-5.541038	-0.123301	0.016713	-0.008880	0.005970	-0.294189	0.663086	0.286865	0.488216	-0.697734	-0.138307	-0.505651
55725		8.094189	-5.546735	-0.104147	0.012417	-0.002845	0.016159	-0.294434	0.656494	0.278564	0.488350	-0.697783	-0.138234	-0.505475
55726		8.160052	-5.530223	-0.138075	0.029788	-0.005688	0.026105	-0.298584	0.660645	0.280518	0.488585	-0.697736	-0.138165	-0.505331
55727		8.240607	-5.644737	-0.192120	0.046388	-0.000486	0.043423	-0.290039	0.656006	0.277100	0.489025	-0.697612	-0.138076	-0.505102
55728		8.188128	-5.713547	-0.243670	0.063304	0.007419	0.067628	-0.288574	0.668457	0.276367	0.489645	-0.697439	-0.137818	-0.504809
55729		8.094082	-5.683978	-0.276246	0.073122	0.007643	0.097780	-0.296387	0.669678	0.276367	0.490589	-0.697246	-0.137426	-0.504265
55730		7.986248	-5.687172	-0.169228	0.087897	0.007802	0.121749	-0.293457	0.670410	0.275635	0.491702	-0.696989	-0.137020	-0.503648
55731		7.994880	-5.752848	-0.127040	0.104114	-0.014791	0.142452	-0.280518	0.667725	0.273926	0.492969	-0.696795	-0.136637	-0.502780
55732		8.017453	-5.756288	0.016714	0.133227	-0.026961	0.164837	-0.291016	0.667969	0.268799	0.494470	-0.696612	-0.136201	-0.501677
55733		8.106074	-5.754296	-0.060719	0.157643	-0.044533	0.188809	-0.283691	0.672119	0.273193	0.496178	-0.696336	-0.135887	-0.500459
55734		8.281879	-5.993192	-0.146181	0.183766	-0.038211	0.200287	-0.278809	0.678711	0.268555	0.498096	-0.696004	-0.135554	-0.499103
55735		8.417810	-6.281234	-0.340407	0.222668	0.011418	0.213882	-0.276123	0.677979	0.267090	0.500432	-0.695294	-0.135081	-0.497882
55736		7.876532	-5.944287	-0.087734	0.262381	0.029398	0.257103	-0.279785	0.676758	0.255127	0.503153	-0.694411	-0.134437	-0.496546
55737		7.744135	-5.798265	0.122525	0.271260	-0.010420	0.281507	-0.272217	0.676758	0.265625	0.505971	-0.693574	-0.133884	-0.494998
55738		7.820711	-5.787454	0.131042	0.288729	-0.043828	0.276996	-0.268311	0.687256	0.257324	0.508729	-0.692934	-0.133542	-0.493158
55739		7.914744	-5.663708	0.153054	0.302716	-0.055128	0.271296	-0.264648	0.690430	0.254639	0.511663	-0.692199	-0.133341	-0.491204
55740		7.902561	-5.525117	0.253182	0.267914	-0.051687	0.270178	-0.269287	0.693359	0.257812	0.514395	-0.691590	-0.132992	-0.489300
55741		8.081606	-5.686260	0.224999	0.233088	-0.038107	0.269523	-0.248779	0.690674	0.245850	0.516883	-0.691075	-0.132542	-0.487525
55742		8.021042	-5.795938	0.091550	0.210163	-0.007260	0.291678	-0.252930	0.696777	0.243652	0.519394	-0.690556	-0.131551	-0.485857
55743		7.926979	-5.794988	0.143920	0.174501	-0.007564	0.311033	-0.246582	0.699219	0.247314	0.521796	-0.690160	-0.130390	-0.484155
55744		7.891160	-5.855769	0.154285	0.153397	-0.000259	0.322357	-0.252930	0.697266	0.242920	0.524106	-0.689895	-0.129046	-0.482395
55745		8.016366	-6.016936	0.167343	0.149693	0.039558	0.331665	-0.238037	0.699951	0.237061	0.526396	-0.689425	-0.127538	-0.480973
55746		7.990630	-6.033098	0.152229	0.151769	0.072636	0.355618	-0.235596	0.702148	0.230225	0.528887	-0.688846	-0.125642	-0.479568
55747		7.856614	-6.004300	0.201487	0.167117	0.067804	0.371977	-0.230469	0.706543	0.236816	0.531538	-0.688174	-0.123736	-0.478093
55748		7.727960	-6.080036	0.217308	0.192869	0.038843	0.383206	-0.233398	0.712402	0.233887	0.534330	-0.687588	-0.122031	-0.476260
55749		7.684403	-6.191714	0.232860	0.205690	0.030299	0.385797	-0.229736	0.711670	0.220703	0.537209	-0.686921	-0.120484	-0.474373
55750		7.855111	-6.345914	0.340838	0.186418	0.049742	0.385308	-0.212646	0.712891	0.216797	0.539993	-0.686158	-0.118730	-0.472755
55751		7.871606	-6.385164	0.111519	0.192882	0.077104	0.396853	-0.203613	0.713379	0.215576	0.542930	-0.685306	-0.116695	-0.471131
55752		7.723723	-6.384983	0.203951	0.222107	0.073867	0.402794	-0.206787	0.719971	0.225830	0.546036	-0.684370	-0.114721	-0.469384
55753		7.530539	-6.528295	0.218639	0.259652	0.048449	0.405013	-0.204590	0.718262	0.209717	0.549275	-0.683436	-0.113136	-0.467347
55754		7.762741	-6.899557	0.286204	0.303867	0.045749	0.412142	-0.195312	0.718506	0.213867	0.552780	-0.682180	-0.111647	-0.465404
55755		7.660694	-6.807578	-0.282644	0.372517	0.105050	0.444685	-0.192627	0.728760	0.194580	0.556795	-0.680500	-0.109948	-0.463477
55756		7.128231	-6.374107	0.314031	0.400199	0.072134	0.472060	-0.177979	0.732422	0.201416	0.561185	-0.678657	-0.108359	-0.461254
55757		7.130458	-6.347696	0.639324	0.419464	-0.025671	0.457198	-0.183594	0.734131	0.191406	0.565511	-0.677226	-0.107356	-0.458298
55758		7.097283	-6.302498	0.585509	0.436549	-0.085803	0.426719	-0.178223	0.735107	0.189209	0.569690	-0.675801	-0.106945	-0.455313
55759		7.333185	-6.303600	0.622527	0.405890	-0.088174	0.396571	-0.162354	0.744385	0.184082	0.573523	-0.674519	-0.106607	-0.452470
55760		7.207212	-6.060000	0.791824	0.356041	-0.057287	0.375006	-0.161865	0.746338	0.170410	0.577156	-0.673341	-0.106006	-0.449739
55761		7.267858	-6.104200	0.714775	0.298358	-0.039962	0.338383	-0.159912	0.749268	0.179199	0.580337	-0.672218	-0.105307	-0.447484
55762		7.269799	-6.251583	0.662205	0.255891	-0.035667	0.303156	-0.152588	0.752930	0.171387	0.583074	-0.671355	-0.104727	-0.445352
55763		7.246811	-6.255327	0.698444	0.220808	-0.016911	0.275004	-0.138184	0.759277	0.165771	0.585578	-0.670521	-0.104053	-0.443478
55764		7.170151	-6.211176	0.672370	0.176074	-0.004062	0.240439	-0.139404	0.756348	0.156982	0.587839	-0.669815	-0.103293	-0.441728
55765		7.123821	-6.323545	0.724293	0.153235	-0.012310	0.210512	-0.146240	0.753418	0.157471	0.589755	-0.669168	-0.102629	-0.440307
55766		6.974833	-6.363962	0.691609	0.146085	-0.022155	0.177354	-0.148193	0.760742	0.163574	0.591349	-0.668580	-0.102234	-0.439153
55767		6.999066	-6.483173	0.813669	0.126761	-0.031905	0.131747	-0.135254	0.757324	0.156738	0.592657	-0.668130	-0.102192	-0.438083
55768		7.047196	-6.475587	0.827067	0.098289	-0.018258	0.104386	-0.136230	0.758057	0.148682	0.593743	-0.667747	-0.102033	-0.437232
55769		7.252244	-6.568727	0.738885	0.064796	-0.015889	0.072597	-0.134521	0.760254	0.152100	0.594498	-0.667453	-0.101896	-0.436687
55770		7.170156	-6.573284	0.641464	0.047485	-0.009427	0.053574	-0.137939	0.765137	0.146240	0.595084	-0.667241	-0.101819	-0.436231
55771		7.110893	-6.569786	0.734919	0.058256	-0.010793	0.033783	-0.134521	0.755127	0.156250	0.595643	-0.666934	-0.101908	-0.435917
55772		7.062043	-6.564320	0.810733	0.064427	-0.003996	0.018298	-0.133545	0.750732	0.153809	0.596111	-0.666643	-0.102085	-0.435679
55773		6.979742	-6.478968	0.778038	0.058193	-0.005695	-0.004971	-0.133301	0.760498	0.151611	0.596436	-0.666368	-0.102358	-0.435591
55774		6.953901	-6.488114	0.792846	0.055630	-0.021980	-0.040370	-0.134033	0.775879	0.149902	0.596649	-0.666115	-0.102928	-0.435552
55775		7.177086	-6.692886	0.637477	0.034823	-0.014023	-0.068391	-0.135254	0.754395	0.152588	0.596700	-0.665893	-0.103572	-0.435670
55776		7.134760	-6.703357	0.538461	0.018767	0.008739	-0.081867	-0.143066	0.763916	0.149658	0.596531	-0.665697	-0.104076	-0.436082
55777		6.864200	-6.455814	0.556736	0.015913	0.004098	-0.098531	-0.145996	0.770996	0.150391	0.596285	-0.665496	-0.104709	-0.436572
55778		6.824807	-6.281501	0.608200	0.035391	-0.056995	-0.143832	-0.137939	0.754150	0.156494	0.595937	-0.665381	-0.105979	-0.436917
55779		6.958064	-6.206735	0.754933	0.052926	-0.111717	-0.203250	-0.148193	0.759521	0.150146	0.595401	-0.665363	-0.107885	-0.437207
55780		7.153880	-6.210960	0.799875	0.034063	-0.120110	-0.254308	-0.139893	0.761475	0.150146	0.594556	-0.665393	-0.110059	-0.437769
55781		7.360696	-6.242845	0.754747	-0.005832	-0.098697	-0.292488	-0.151611	0.759033	0.154297	0.593412	-0.665506	-0.112189	-0.438608
55782		7.282687	-6.145035	0.622878	-0.044204	-0.087427	-0.314335	-0.158691	0.764648	0.151855	0.591935	-0.665751	-0.114250	-0.439699
55783		7.239451	-5.993926	0.658869	-0.073390	-0.116228	-0.350145	-0.164795	0.759766	0.155273	0.590134	-0.666192	-0.116552	-0.440847
55784		7.323435	-5.800778	0.720229	-0.099183	-0.144629	-0.398510	-0.156982	0.743652	0.150391	0.587957	-0.666818	-0.119167	-0.442109
55785		7.448014	-5.638976	0.928769	-0.142103	-0.147904	-0.441736	-0.174805	0.748779	0.158203	0.585417	-0.667603	-0.121883	-0.443552
55786		7.807151	-5.777416	0.771174	-0.230035	-0.107725	-0.492932	-0.179199	0.750977	0.166016	0.582168	-0.668611	-0.124365	-0.445616
55787		7.855777	-6.043765	0.574695	-0.290921	-0.059152	-0.523461	-0.187012	0.739014	0.171387	0.578499	-0.669697	-0.126543	-0.448143
55788		7.630822	-6.012559	0.318275	-0.312725	-0.019650	-0.531226	-0.191162	0.745850	0.165283	0.574685	-0.670722	-0.128498	-0.450951
55789		7.579364	-5.907370	0.531441	-0.332087	-0.035018	-0.552228	-0.203369	0.737549	0.168213	0.570704	-0.671821	-0.130584	-0.453764
55790		7.726880	-5.894260	0.584347	-0.351156	-0.072717	-0.590054	-0.217285	0.737793	0.182617	0.566390	-0.673086	-0.133003	-0.456582
55791		7.792209	-5.944159	0.491549	-0.368005	-0.070274	-0.625370	-0.209473	0.735840	0.185059	0.561758	-0.674390	-0.135505	-0.459634
55792		7.806259	-5.901944	0.492485	-0.374712	-0.042907	-0.641731	-0.221680	0.721680	0.191406	0.557121	-0.675572	-0.137932	-0.462810
55793		7.729285	-5.752096	0.529321	-0.401386	-0.049127	-0.641886	-0.233643	0.717285	0.198730	0.552271	-0.676881	-0.140299	-0.465988
55794		7.883452	-5.657636	0.555002	-0.438764	-0.074533	-0.646779	-0.239746	0.710938	0.211426	0.547104	-0.678432	-0.142654	-0.469102
55795		8.150886	-5.582598	0.473871	-0.501486	-0.078476	-0.643848	-0.247559	0.711426	0.214355	0.541531	-0.680288	-0.144725	-0.472236
55796		8.201593	-5.472858	0.246062	-0.549284	-0.061777	-0.626846	-0.249268	0.701660	0.219971	0.535768	-0.682263	-0.146438	-0.475423
55797		8.229495	-5.563260	0.111434	-0.572442	-0.039123	-0.600907	-0.258789	0.703125	0.227051	0.530015	-0.684247	-0.147822	-0.478580
55798		8.160315	-5.777402	0.088064	-0.591935	-0.020504	-0.583669	-0.277832	0.693604	0.232422	0.524199	-0.686229	-0.148920	-0.481797
55799		8.145911	-6.004327	0.001449	-0.615720	0.004746	-0.566215	-0.283936	0.688965	0.245117	0.518264	-0.688182	-0.149749	-0.485164
55800		8.210105	-6.033322	-0.125853	-0.603732	0.037992	-0.540332	-0.291016	0.684082	0.241455	0.512478	-0.689979	-0.150278	-0.488581
55801		8.198983	-5.964234	-0.271963	-0.537805	0.055784	-0.524403	-0.297363	0.681641	0.261475	0.507227	-0.691349	-0.150985	-0.491894
55802		8.167166	-5.969697	-0.329549	-0.457845	0.030458	-0.497639	-0.298584	0.683105	0.260498	0.502363	-0.692582	-0.151826	-0.494884
55803		8.191802	-5.967353	-0.309950	-0.380372	0.026129	-0.466450	-0.304932	0.672363	0.272461	0.498142	-0.693497	-0.152835	-0.497552
55804		8.255021	-5.915918	-0.311407	-0.313414	0.041531	-0.424450	-0.312500	0.666992	0.269531	0.494414	-0.694157	-0.153776	-0.500054
55805		8.291619	-5.796573	-0.321115	-0.259420	0.049000	-0.375821	-0.315674	0.645996	0.271484	0.491263	-0.694565	-0.154708	-0.502300
55806		8.338149	-5.632954	-0.285276	-0.257719	0.062359	-0.325441	-0.322998	0.655029	0.275391	0.488394	-0.694954	-0.155423	-0.504336
55807		8.523409	-5.403839	-0.057927	-0.301648	0.072257	-0.272641	-0.322021	0.660156	0.284912	0.485447	-0.695550	-0.155497	-0.506332
55808		8.718468	-5.256453	-0.021157	-0.277343	0.096710	-0.245630	-0.328125	0.657227	0.283936	0.482742	-0.696021	-0.155291	-0.508330
55809		8.440837	-5.347026	-0.323947	-0.232474	0.058957	-0.248567	-0.332520	0.653320	0.285400	0.480276	-0.696423	-0.155496	-0.510049
55810		8.207987	-5.605039	-0.467940	-0.194396	0.029469	-0.231432	-0.323486	0.657959	0.281006	0.478086	-0.696802	-0.155905	-0.511463
55811		8.096018	-5.735101	-0.354090	-0.158087	0.071750	-0.203328	-0.336426	0.641357	0.297363	0.476410	-0.696869	-0.156131	-0.512864
55812		8.120682	-5.620776	-0.216599	-0.115318	0.091147	-0.191571	-0.339600	0.640869	0.288574	0.474882	-0.696762	-0.156370	-0.514352
55813		8.280578	-5.286075	-0.214061	-0.080433	0.078195	-0.186817	-0.330566	0.645508	0.295654	0.473671	-0.696511	-0.156856	-0.515659
55814		8.440965	-5.058868	-0.248068	-0.037607	0.056502	-0.195784	-0.350098	0.642334	0.286621	0.472636	-0.696226	-0.157558	-0.516778
55815		8.437742	-4.930130	-0.341789	0.041124	0.001453	-0.217146	-0.342773	0.641846	0.298584	0.471910	-0.695755	-0.159040	-0.517622
55816		8.337781	-5.005355	-0.439510	0.080787	-0.041896	-0.227749	-0.343994	0.633057	0.297607	0.471260	-0.695377	-0.160829	-0.518168
55817		8.387852	-4.920884	-0.445503	0.058629	-0.016381	-0.229799	-0.352295	0.638184	0.291504	0.470539	-0.694957	-0.162484	-0.518871
55818		8.585947	-4.620593	-0.322220	0.010220	0.006089	-0.238141	-0.358398	0.635254	0.289795	0.469557	-0.694579	-0.163894	-0.519822
55819		8.699651	-4.344789	-0.254103	-0.040119	0.009267	-0.254081	-0.356201	0.637207	0.292480	0.468226	-0.694348	-0.165178	-0.520923
55820		8.662561	-4.252069	-0.196518	-0.067919	0.008372	-0.288997	-0.368408	0.631592	0.295410	0.466587	-0.694193	-0.166522	-0.522172
55821		8.608992	-4.445968	-0.178909	-0.060150	0.022124	-0.323312	-0.365723	0.625732	0.291992	0.464833	-0.693890	-0.168054	-0.523646
55822		8.609772	-4.666675	-0.320857	-0.066129	0.037704	-0.349763	-0.364990	0.628174	0.299316	0.462989	-0.693492	-0.169667	-0.525284
55823		8.683362	-4.790052	-0.329162	-0.065831	0.026166	-0.385421	-0.372314	0.621094	0.293701	0.460961	-0.693107	-0.171505	-0.526975
55824		8.688889	-4.787044	-0.288523	-0.046364	0.000469	-0.411339	-0.375977	0.622559	0.296387	0.458905	-0.692696	-0.173692	-0.528592
55825		8.611436	-4.712934	-0.240516	0.036489	-0.052569	-0.411755	-0.378174	0.613525	0.298584	0.457243	-0.692198	-0.176435	-0.529775
55826		8.699993	-4.545453	-0.261781	0.117818	-0.116804	-0.401393	-0.383545	0.619141	0.291504	0.455992	-0.691686	-0.179726	-0.530415
55827		9.031269	-4.330279	-0.290096	0.151749	-0.142927	-0.384302	-0.393555	0.607422	0.286377	0.454985	-0.691162	-0.183156	-0.530789
55828		9.273650	-4.086354	-0.150065	0.138107	-0.127855	-0.353889	-0.395752	0.604492	0.290039	0.454039	-0.690652	-0.186300	-0.531169
55829		9.204243	-3.946988	-0.077530	0.050390	-0.077434	-0.303068	-0.395508	0.608643	0.293701	0.452880	-0.690334	-0.188570	-0.531771
55830		9.072041	-3.938821	0.020481	-0.041977	-0.011434	-0.255575	-0.393066	0.598877	0.294678	0.451508	-0.690150	-0.189904	-0.532702
55831		9.015173	-4.036757	0.077831	-0.110693	0.047330	-0.223915	-0.407471	0.604980	0.296875	0.449972	-0.690011	-0.190536	-0.533953
55832		9.027518	-4.105271	0.083222	-0.142085	0.073234	-0.186744	-0.407959	0.604736	0.302734	0.448455	-0.689923	-0.190708	-0.535281
55833		9.012282	-4.196732	-0.026822	-0.139515	0.099890	-0.131275	-0.406006	0.598877	0.293457	0.447245	-0.689796	-0.190474	-0.536539
55834		8.994217	-4.283576	-0.036050	-0.133132	0.136472	-0.071594	-0.407227	0.600830	0.299316	0.446408	-0.689564	-0.189787	-0.537776
55835		8.917758	-4.296894	-0.118932	-0.126169	0.151325	-0.024047	-0.411377	0.592285	0.300781	0.445844	-0.689318	-0.188801	-0.538904
55836		8.847142	-4.302847	-0.309937	-0.120947	0.142424	0.007404	-0.411621	0.593750	0.299072	0.445429	-0.689141	-0.187692	-0.539860
55837		8.874264	-4.242020	-0.394683	-0.094856	0.128487	0.031003	-0.409912	0.585938	0.294189	0.445254	-0.688964	-0.186613	-0.540605
55838		8.864130	-4.186664	-0.333766	-0.062849	0.091356	0.042165	-0.409668	0.598389	0.298584	0.445256	-0.688850	-0.185751	-0.541045
55839		8.813459	-4.259293	-0.353024	-0.045865	0.075093	0.060889	-0.406006	0.596680	0.297852	0.445419	-0.688778	-0.184917	-0.541287
55840		8.765750	-4.289773	-0.276405	-0.046627	0.073095	0.073465	-0.414551	0.598145	0.296875	0.445632	-0.688738	-0.184014	-0.541470
55841		8.722887	-4.301186	-0.297532	-0.045968	0.052343	0.079954	-0.408691	0.597656	0.300049	0.445841	-0.688796	-0.183151	-0.541518
55842		8.694867	-4.247207	-0.423138	-0.024896	0.020715	0.077264	-0.403809	0.598389	0.298340	0.446113	-0.688919	-0.182518	-0.541352
55843		8.727998	-4.238241	-0.390020	0.003601	-0.015492	0.075449	-0.407227	0.599854	0.298096	0.446489	-0.689096	-0.182158	-0.540936
55844		8.765830	-4.258024	-0.342369	0.035323	-0.039386	0.088769	-0.410400	0.603760	0.299316	0.447068	-0.689282	-0.181951	-0.540292
55845		8.791865	-4.218749	-0.280063	0.064700	-0.043818	0.101768	-0.404053	0.601318	0.304199	0.447864	-0.689396	-0.181816	-0.539530
55846		8.782444	-4.182617	-0.208105	0.063173	-0.039642	0.115454	-0.408203	0.600098	0.307373	0.448717	-0.689527	-0.181586	-0.538731
55847		8.825916	-4.148191	-0.242939	0.071762	-0.050540	0.117391	-0.401611	0.595703	0.302002	0.449602	-0.689677	-0.181425	-0.537857
55848		8.879642	-4.169311	-0.244777	0.062736	-0.047851	0.116756	-0.395752	0.603027	0.297607	0.450443	-0.689841	-0.181214	-0.537012
55849		8.890125	-4.164010	-0.289285	0.033320	-0.017004	0.130584	-0.397461	0.604492	0.293701	0.451236	-0.689995	-0.180672	-0.536331
55850		8.921201	-4.085037	-0.266324	0.018065	-0.007574	0.140934	-0.396240	0.610596	0.302490	0.451999	-0.690173	-0.179963	-0.535697
55851		8.963051	-4.108337	-0.234292	0.015148	-0.002346	0.137877	-0.389404	0.612305	0.295654	0.452735	-0.690343	-0.179246	-0.535096
55852		8.917615	-4.149229	-0.230841	0.004134	0.005751	0.136977	-0.395264	0.610352	0.297119	0.453426	-0.690511	-0.178450	-0.534561
55853		8.861288	-4.154039	-0.267391	-0.024934	0.019616	0.134690	-0.387451	0.601562	0.291748	0.453944	-0.690720	-0.177487	-0.534171
55854		8.856248	-4.127361	-0.342590	-0.053377	0.044500	0.137931	-0.394287	0.609619	0.295898	0.454350	-0.690930	-0.176285	-0.533953
55855		8.916486	-4.140119	-0.309721	-0.082600	0.051312	0.135338	-0.380615	0.612793	0.303711	0.454580	-0.691213	-0.174942	-0.533832
55856		8.976928	-4.233500	-0.231527	-0.099154	0.058919	0.135116	-0.386230	0.602539	0.303223	0.454736	-0.691547	-0.173507	-0.533736
55857		8.918828	-4.332344	-0.179722	-0.093798	0.062535	0.143888	-0.388916	0.617920	0.293701	0.454938	-0.691849	-0.172033	-0.533649
55858		8.813445	-4.415313	-0.165601	-0.057296	0.045076	0.138680	-0.385498	0.610352	0.299561	0.455337	-0.692052	-0.170798	-0.533442
55859		8.756356	-4.546027	-0.180778	-0.009104	0.025042	0.134467	-0.383301	0.613525	0.302246	0.455945	-0.692172	-0.169890	-0.533057
55860		8.762245	-4.616171	-0.162084	0.008992	0.024163	0.140112	-0.378174	0.617920	0.296387	0.456683	-0.692240	-0.169033	-0.532608
55861		8.806699	-4.566779	-0.183210	-0.004207	0.040166	0.139016	-0.373779	0.616699	0.300049	0.457388	-0.692274	-0.168057	-0.532268
55862		8.770040	-4.495004	-0.183818	-0.023102	0.060584	0.139390	-0.382812	0.615967	0.302979	0.458007	-0.692304	-0.166923	-0.532054
55863		8.736166	-4.470404	-0.173853	-0.035716	0.061010	0.138114	-0.378418	0.622803	0.296387	0.458512	-0.692373	-0.165739	-0.531900
55864		8.709391	-4.525976	-0.186885	-0.034019	0.042837	0.127882	-0.363770	0.623535	0.300781	0.458994	-0.692483	-0.164680	-0.531669
55865		8.660655	-4.623441	-0.165800	-0.006937	0.019060	0.124158	-0.367920	0.620117	0.297363	0.459609	-0.692621	-0.163866	-0.531210
55866		8.670263	-4.652557	-0.135390	0.029762	-0.000623	0.123585	-0.375977	0.621094	0.298828	0.460385	-0.692687	-0.163288	-0.530629
55867		8.668279	-4.598394	-0.154947	0.030948	0.002834	0.128376	-0.381104	0.630615	0.295898	0.461160	-0.692730	-0.162670	-0.530089
55868		8.661544	-4.608197	-0.243002	0.026714	-0.007645	0.114691	-0.370361	0.625732	0.292236	0.461850	-0.692792	-0.162142	-0.529570
55869		8.677359	-4.622399	-0.219871	0.041041	-0.016546	0.096572	-0.368164	0.624268	0.301025	0.462552	-0.692820	-0.161819	-0.529018
55870		8.657352	-4.653718	-0.194646	0.045478	-0.017625	0.088664	-0.368408	0.620361	0.294922	0.463210	-0.692866	-0.161582	-0.528455
55871		8.668964	-4.584207	-0.149075	0.045462	0.000078	0.088388	-0.364258	0.620605	0.297607	0.463886	-0.692810	-0.161270	-0.528031
55872		8.725782	-4.490181	-0.122452	0.055903	0.000687	0.082987	-0.361084	0.622559	0.292236	0.464598	-0.692723	-0.161041	-0.527587
55873		8.750758	-4.526141	-0.218081	0.071731	-0.019770	0.061137	-0.357666	0.638184	0.295654	0.465310	-0.692618	-0.161079	-0.527087
55874		8.705873	-4.591687	-0.225056	0.078140	-0.007246	0.039912	-0.357666	0.629883	0.292480	0.466040	-0.692414	-0.161221	-0.526666
55875		8.681794	-4.511796	-0.240055	0.037418	0.014738	0.033866	-0.362793	0.631104	0.286377	0.466505	-0.692260	-0.161134	-0.526484
55876		8.729309	-4.488432	-0.137494	0.003575	0.011956	0.029560	-0.361084	0.629883	0.291504	0.466750	-0.692202	-0.160918	-0.526409
55877		8.733606	-4.520822	-0.082166	0.022585	0.010340	0.019151	-0.365723	0.625244	0.291748	0.467035	-0.692096	-0.160867	-0.526311
55878		8.590303	-4.597820	-0.173322	0.038517	-0.008974	0.011353	-0.360107	0.629395	0.289062	0.467298	-0.691998	-0.161006	-0.526164
55879		8.610195	-4.642501	-0.210932	0.046914	-0.021902	-0.008011	-0.364502	0.619873	0.297119	0.467568	-0.691895	-0.161341	-0.525957
55880		8.621127	-4.688445	-0.265933	0.067380	-0.026357	-0.031118	-0.363770	0.634277	0.294434	0.467727	-0.691751	-0.161935	-0.525822
55881		8.550475	-4.525121	-0.183775	0.085235	-0.046443	-0.066347	-0.363525	0.635010	0.295410	0.467906	-0.691549	-0.162879	-0.525637
55882		8.848326	-4.276114	-0.274389	0.072220	-0.064097	-0.088331	-0.356689	0.628906	0.283691	0.467889	-0.691456	-0.163965	-0.525437
55883		9.034758	-4.238400	-0.147830	0.026053	-0.038603	-0.063404	-0.369629	0.624268	0.296143	0.467818	-0.691419	-0.164592	-0.525353
55884		8.892562	-4.260284	0.060783	-0.019170	0.036243	-0.041290	-0.365967	0.632324	0.293701	0.467508	-0.691314	-0.164624	-0.525756
55885		8.784436	-4.356150	0.046797	-0.052970	0.050217	-0.056616	-0.364502	0.632568	0.295410	0.467050	-0.691243	-0.164534	-0.526285
55886		8.701613	-4.542438	-0.135065	-0.081182	0.045973	-0.054260	-0.360840	0.621338	0.291992	0.466444	-0.691320	-0.164328	-0.526786
55887		8.542218	-4.606803	-0.166351	-0.100995	0.053513	-0.046136	-0.364502	0.629395	0.293701	0.465754	-0.691450	-0.163963	-0.527338
55888		8.545970	-4.739819	-0.206713	-0.113825	0.053885	-0.050842	-0.358643	0.621826	0.295410	0.465002	-0.691607	-0.163558	-0.527922
55889		8.552419	-4.703702	-0.327800	-0.101658	0.040596	-0.058633	-0.377930	0.618408	0.299805	0.464263	-0.691804	-0.163317	-0.528389
55890		8.536968	-4.715487	-0.461842	-0.083056	0.019993	-0.057532	-0.365723	0.618652	0.300537	0.463427	-0.691986	-0.163229	-0.528912
55891		8.538712	-4.781497	-0.372518	-0.061071	-0.003973	-0.055113	-0.361816	0.619629	0.299072	0.462800	-0.692239	-0.163323	-0.529100
55892		8.542404	-4.760952	-0.283482	-0.038148	-0.044374	-0.061445	-0.375732	0.618408	0.300537	0.462285	-0.692570	-0.163707	-0.528999
55893		8.632555	-4.750929	-0.220695	-0.004987	-0.057113	-0.063554	-0.368896	0.621582	0.302734	0.461817	-0.692779	-0.164291	-0.528952
55894		8.617970	-4.731103	-0.256087	-0.008916	-0.035076	-0.056631	-0.364502	0.615479	0.306885	0.461455	-0.692957	-0.164731	-0.528899
55895		8.679087	-4.800123	-0.375514	-0.034930	-0.005479	-0.049412	-0.374023	0.617432	0.302979	0.460984	-0.693175	-0.164923	-0.528964
55896		8.751216	-4.776713	-0.249396	0.002851	0.005259	-0.036908	-0.366699	0.625244	0.303467	0.460780	-0.693135	-0.165150	-0.529123
55897		8.735673	-4.677903	-0.097450	0.092270	-0.008277	-0.020270	-0.365967	0.616211	0.291016	0.461262	-0.692861	-0.165704	-0.528888
55898		8.728127	-4.606268	-0.200263	0.109196	0.016066	-0.000610	-0.369873	0.615234	0.293701	0.462005	-0.692344	-0.166142	-0.528780
55899		8.775612	-4.519505	-0.401776	0.070620	0.019455	-0.003113	-0.367432	0.621338	0.298828	0.462437	-0.691981	-0.166416	-0.528791
55900		8.831104	-4.378913	-0.203177	0.048646	0.012215	-0.008681	-0.370117	0.629150	0.303467	0.462718	-0.691791	-0.166647	-0.528721
55901		8.675620	-4.307753	-0.034645	0.038937	0.013360	-0.006333	-0.369141	0.624756	0.297119	0.462942	-0.691666	-0.166802	-0.528640
55902		8.406874	-4.422432	-0.100115	0.007475	-0.014138	-0.036194	-0.370605	0.623291	0.295654	0.462843	-0.691691	-0.167102	-0.528599
55903		8.294617	-4.563815	-0.220840	-0.005564	-0.064931	-0.070423	-0.369873	0.626221	0.308105	0.462439	-0.691923	-0.167739	-0.528447
55904		8.569143	-4.732861	-0.284844	0.053268	-0.088948	-0.099869	-0.372559	0.619385	0.301270	0.462139	-0.692116	-0.168910	-0.528083
55905		8.651974	-4.713958	-0.191927	0.106638	-0.129827	-0.113000	-0.357666	0.617188	0.299072	0.462026	-0.692188	-0.170556	-0.527559
55906		8.749703	-4.561586	-0.244983	0.127953	-0.176877	-0.117073	-0.369873	0.621826	0.300781	0.462093	-0.692430	-0.172508	-0.526546
55907		8.804820	-4.573293	-0.320366	0.170161	-0.209402	-0.128461	-0.370850	0.624023	0.295898	0.462212	-0.692588	-0.174818	-0.525471
55908		8.701822	-4.445129	-0.273362	0.190335	-0.232276	-0.151596	-0.365234	0.619873	0.300781	0.462359	-0.692675	-0.177416	-0.524356
55909		8.673510	-4.154885	-0.443000	0.166364	-0.234860	-0.179437	-0.377441	0.620605	0.289551	0.462212	-0.692911	-0.180113	-0.523253
55910		8.868431	-3.875289	-0.448893	0.140810	-0.204314	-0.213213	-0.377686	0.612549	0.298584	0.461810	-0.692878	-0.182733	-0.522743
55911		9.141565	-3.569602	-0.258470	0.085482	-0.172375	-0.228472	-0.378418	0.618652	0.295654	0.460931	-0.693006	-0.185135	-0.522504
55912		9.354410	-3.508989	-0.160630	0.001463	-0.128891	-0.237819	-0.381104	0.612061	0.298096	0.459685	-0.693209	-0.187022	-0.522661
55913		9.166881	-3.781108	-0.252429	-0.053692	-0.110140	-0.262526	-0.382812	0.612793	0.305664	0.457972	-0.693517	-0.188764	-0.523129
55914		8.912549	-4.107695	-0.400711	-0.116595	-0.125439	-0.261881	-0.384277	0.608887	0.295654	0.455830	-0.694200	-0.190284	-0.523544
55915		9.026375	-4.114117	-0.224799	-0.160104	-0.148425	-0.279611	-0.389893	0.610352	0.307373	0.453444	-0.694977	-0.191797	-0.524032
55916		8.979302	-4.127440	-0.272312	-0.166242	-0.101549	-0.276610	-0.379883	0.600098	0.306152	0.451000	-0.695658	-0.193071	-0.524769
55917		9.122851	-4.028646	-0.612187	-0.181858	-0.083913	-0.245143	-0.388672	0.604248	0.310791	0.448731	-0.696395	-0.194067	-0.525370
55918		8.998432	-4.145112	-0.615580	-0.163764	-0.058245	-0.186687	-0.389404	0.605225	0.315674	0.446820	-0.697025	-0.194670	-0.525939
55919		8.813767	-4.312099	-0.556316	-0.221495	-0.019051	-0.087848	-0.396729	0.607178	0.314209	0.445067	-0.697891	-0.194283	-0.526419
55920		8.739005	-4.371830	-0.661900	-0.313040	-0.024530	0.019420	-0.393311	0.601807	0.321289	0.443252	-0.699203	-0.192863	-0.526731
55921		8.689750	-4.711875	-0.563792	-0.318581	0.019984	0.128267	-0.393555	0.596436	0.322266	0.441905	-0.700577	-0.190643	-0.526847
55922		8.542006	-5.068927	-0.277973	-0.278270	0.045966	0.203268	-0.387451	0.594238	0.330566	0.441138	-0.701768	-0.188090	-0.526821
55923		8.507753	-5.093098	-0.434834	-0.220890	0.049635	0.233229	-0.379150	0.597412	0.331299	0.440794	-0.702874	-0.185603	-0.526517
55924		8.345392	-5.166021	-0.555038	-0.128250	0.049783	0.243764	-0.389160	0.608154	0.328613	0.441139	-0.703668	-0.183436	-0.525927
55925		8.261665	-5.129454	-0.709064	-0.031442	0.027078	0.217659	-0.375977	0.602295	0.324951	0.441902	-0.704032	-0.181855	-0.525349
55926		8.208745	-5.057551	-0.733972	0.062722	-0.006042	0.186174	-0.379639	0.604248	0.339111	0.443140	-0.704166	-0.181049	-0.524402
55927		8.289182	-4.942116	-0.801451	0.153568	-0.081205	0.130383	-0.380859	0.606445	0.322998	0.444308	-0.704362	-0.181230	-0.523087
55928		8.498607	-4.719024	-0.814157	0.232246	-0.117408	0.095503	-0.375000	0.607910	0.319092	0.445907	-0.704151	-0.182095	-0.521708
55929		8.681517	-4.563255	-0.676482	0.285638	-0.132599	0.062380	-0.373291	0.600830	0.315186	0.447721	-0.703750	-0.183447	-0.520221
55930		8.828452	-4.448888	-0.590829	0.269853	-0.118116	0.043350	-0.370850	0.607178	0.319092	0.449344	-0.703295	-0.184859	-0.518934
55931		9.057701	-4.233296	-0.459955	0.235041	-0.114085	0.035172	-0.371582	0.614014	0.318115	0.450695	-0.703022	-0.186106	-0.517687
55932		9.070817	-4.043580	-0.499051	0.203143	-0.087040	0.036562	-0.378662	0.614746	0.320801	0.451916	-0.702743	-0.187064	-0.516654
55933		8.974088	-4.112755	-0.480658	0.179301	-0.053265	0.023725	-0.365234	0.610107	0.321289	0.452854	-0.702392	-0.187871	-0.516016
55934		9.044719	-4.150268	-0.528767	0.117067	-0.035614	0.019383	-0.371094	0.619873	0.312500	0.453495	-0.702302	-0.188400	-0.515383
55935		9.141446	-4.092313	-0.505792	0.083314	-0.005624	0.026434	-0.369141	0.618896	0.309570	0.454126	-0.702068	-0.188575	-0.515082
55936		8.956508	-4.063473	-0.592777	0.053670	0.003972	0.013396	-0.370117	0.616211	0.313477	0.454577	-0.701866	-0.188680	-0.514920
55937		8.862157	-4.127320	-0.571940	0.045864	0.007927	-0.006241	-0.369873	0.623779	0.309570	0.454808	-0.701701	-0.188872	-0.514871
55938		8.819063	-4.111362	-0.568859	0.018999	0.009692	-0.016950	-0.369141	0.618896	0.309082	0.454941	-0.701564	-0.188954	-0.514911
55939		8.819036	-4.115036	-0.612879	0.010763	0.031771	-0.026342	-0.365967	0.614258	0.315918	0.454996	-0.701354	-0.189011	-0.515127
55940		8.867434	-4.192634	-0.602187	0.017948	0.027981	-0.027832	-0.372070	0.609619	0.307373	0.454982	-0.701254	-0.189146	-0.515226
55941		8.757582	-4.287940	-0.495743	-0.014411	0.023782	-0.022845	-0.367188	0.609375	0.312988	0.454819	-0.701154	-0.189176	-0.515494
55942		8.737602	-4.207652	-0.628881	-0.029281	0.020559	-0.031425	-0.370361	0.615967	0.314941	0.454499	-0.701223	-0.189190	-0.515679
55943		8.784778	-4.156710	-0.643949	-0.047460	0.038681	-0.041111	-0.364014	0.615234	0.308838	0.454059	-0.701267	-0.189064	-0.516053
55944		8.793622	-4.249541	-0.566060	-0.063666	0.037932	-0.052531	-0.369873	0.617432	0.312988	0.453634	-0.701313	-0.188944	-0.516408
55945		8.813914	-4.356657	-0.580594	-0.066210	0.042716	-0.059488	-0.375977	0.622803	0.311035	0.453086	-0.701351	-0.188816	-0.516883
55946		8.763727	-4.310655	-0.681477	-0.061555	0.025605	-0.069463	-0.369873	0.605225	0.318604	0.452522	-0.701355	-0.188794	-0.517380
55947		8.762169	-4.272167	-0.596654	-0.050606	0.018710	-0.066274	-0.383789	0.614746	0.314453	0.451859	-0.701512	-0.188936	-0.517694
55948		8.775155	-4.296979	-0.592646	-0.034969	0.017537	-0.062548	-0.375732	0.611572	0.315430	0.451317	-0.701455	-0.189071	-0.518195
55949		8.850426	-4.292242	-0.522773	-0.033540	0.014928	-0.070507	-0.381348	0.612305	0.310303	0.450802	-0.701465	-0.189276	-0.518555
55950		8.869579	-4.270019	-0.560993	-0.057193	0.019511	-0.076818	-0.377441	0.609619	0.318115	0.450171	-0.701420	-0.189404	-0.519117
55951		8.879183	-4.185649	-0.585575	-0.090598	0.030518	-0.075192	-0.380859	0.599121	0.316895	0.449291	-0.701597	-0.189330	-0.519667
55952		8.897406	-4.269083	-0.529965	-0.068359	0.030486	-0.074236	-0.385986	0.615723	0.314209	0.448471	-0.701651	-0.189424	-0.520267
55953		8.757495	-4.406442	-0.444046	-0.052093	0.031200	-0.073583	-0.376221	0.602051	0.315674	0.447900	-0.701551	-0.189462	-0.520880
55954		8.734221	-4.396999	-0.500317	-0.024015	0.016053	-0.074191	-0.382812	0.607910	0.319824	0.447452	-0.701514	-0.189764	-0.521204
55955		8.813185	-4.390264	-0.635296	-0.025525	0.008752	-0.079353	-0.380615	0.605225	0.313232	0.446891	-0.701518	-0.190061	-0.521572
55956		8.800639	-4.342784	-0.608250	-0.017656	0.012773	-0.073866	-0.382568	0.600098	0.324951	0.446533	-0.701403	-0.190381	-0.521916
55957		8.770084	-4.305912	-0.579557	-0.011145	-0.000610	-0.078485	-0.388672	0.608398	0.317139	0.445927	-0.701487	-0.190796	-0.522170
55958		8.848268	-4.293800	-0.563787	-0.003136	0.007846	-0.065272	-0.379883	0.601318	0.320557	0.445593	-0.701355	-0.191106	-0.522520
55959		8.861071	-4.207377	-0.502014	-0.005443	0.005525	-0.050126	-0.381592	0.606934	0.325195	0.445293	-0.701393	-0.191351	-0.522634
55960		8.917317	-4.221162	-0.580960	0.021308	-0.014942	-0.050273	-0.377686	0.601318	0.321777	0.445074	-0.701479	-0.191721	-0.522570
55961		8.823492	-4.357685	-0.591574	0.029031	-0.013983	-0.051491	-0.383545	0.605957	0.313232	0.444957	-0.701509	-0.192184	-0.522459
55962		8.807879	-4.302258	-0.606232	0.032158	-0.014250	-0.034764	-0.393555	0.601807	0.319092	0.445056	-0.701379	-0.192566	-0.522409
55963		8.850607	-4.179081	-0.578409	0.023170	-0.015580	-0.019414	-0.385010	0.604004	0.320557	0.444929	-0.701334	-0.192852	-0.522472
55964		8.870648	-4.160167	-0.531826	-0.002195	0.008914	-0.011288	-0.387207	0.609131	0.313721	0.444808	-0.701382	-0.192844	-0.522514
55965		8.797774	-4.306325	-0.568586	-0.002286	-0.004886	-0.007223	-0.386963	0.600830	0.316895	0.444822	-0.701369	-0.192851	-0.522517
55966		8.784566	-4.316519	-0.532870	0.013265	-0.024271	-0.008462	-0.384521	0.601562	0.316650	0.444773	-0.701435	-0.193067	-0.522390
55967		8.824562	-4.281443	-0.544864	0.041565	-0.031491	-0.013684	-0.387207	0.606201	0.311768	0.444891	-0.701433	-0.193452	-0.522150
55968		8.894351	-4.131792	-0.546759	0.013251	-0.034866	-0.007194	-0.390869	0.602295	0.313232	0.444959	-0.701461	-0.193678	-0.521970
55969		8.819988	-4.119406	-0.505844	0.010150	-0.032728	-0.007461	-0.383301	0.608154	0.320557	0.444912	-0.701486	-0.193915	-0.521888
55970		8.802936	-4.195848	-0.641973	-0.000264	-0.026814	0.004562	-0.390137	0.605225	0.323975	0.444862	-0.701718	-0.193915	-0.521618
55971		8.912712	-4.214041	-0.611811	-0.013447	-0.029131	0.010133	-0.385986	0.606934	0.312500	0.444599	-0.702013	-0.193853	-0.521469
55972		8.844710	-4.239021	-0.464819	-0.018963	-0.023110	0.016026	-0.384766	0.608887	0.311768	0.444614	-0.702148	-0.193757	-0.521310
55973		8.869578	-4.237952	-0.550080	-0.011826	-0.015392	0.009663	-0.388672	0.609619	0.318115	0.444700	-0.702203	-0.193690	-0.521189
55974		8.875330	-4.220027	-0.612805	0.022929	-0.018642	0.004954	-0.378906	0.600830	0.322266	0.444812	-0.702202	-0.193781	-0.521060
55975		8.869112	-4.300381	-0.536332	0.028321	-0.017215	0.011408	-0.382568	0.608887	0.327393	0.444926	-0.702340	-0.193878	-0.520741
55976		8.896712	-4.321028	-0.588110	0.030926	-0.008081	0.025055	-0.381104	0.599854	0.311279	0.445063	-0.702497	-0.193788	-0.520446
55977		8.913800	-4.195990	-0.484857	0.015932	-0.007305	0.031664	-0.381104	0.607422	0.318115	0.445373	-0.702465	-0.193765	-0.520231
55978		8.944518	-4.126676	-0.554412	0.002580	-0.012036	0.036476	-0.380127	0.604248	0.320312	0.445543	-0.702621	-0.193567	-0.519949
55979		8.844123	-4.229338	-0.539304	-0.020446	0.010770	0.035885	-0.381104	0.599121	0.315430	0.445547	-0.702803	-0.193203	-0.519835
55980		8.792108	-4.225587	-0.622753	-0.004538	0.011400	0.023634	-0.377197	0.595215	0.316650	0.445628	-0.702810	-0.193053	-0.519812
55981		8.788300	-4.234837	-0.567088	0.009784	0.003526	0.015986	-0.378662	0.603516	0.315918	0.445726	-0.702839	-0.193053	-0.519688
55982		8.781694	-4.242523	-0.649008	0.015894	0.009300	0.010630	-0.381348	0.606201	0.320557	0.445914	-0.702783	-0.193031	-0.519612
55983		8.796072	-4.240426	-0.595391	0.017845	-0.009929	0.014983	-0.379150	0.613037	0.323242	0.446002	-0.702865	-0.193017	-0.519431
55984		8.832504	-4.169003	-0.630240	0.004241	-0.023623	0.013870	-0.378906	0.610596	0.314941	0.446011	-0.703113	-0.192929	-0.519120
55985		8.903093	-4.175579	-0.664842	0.004132	-0.004864	0.010552	-0.371094	0.602783	0.312744	0.446172	-0.703132	-0.192864	-0.518978
55986		8.893596	-4.188117	-0.590843	-0.000191	0.014221	-0.001527	-0.378662	0.604736	0.318604	0.446336	-0.703098	-0.192845	-0.518891
55987		8.877824	-4.224811	-0.605297	0.016317	0.010716	-0.006587	-0.377441	0.610840	0.315186	0.446393	-0.703044	-0.192900	-0.518895
55988		8.894757	-4.200221	-0.544638	-0.002544	0.008725	-0.003859	-0.381836	0.603760	0.316895	0.446479	-0.703025	-0.192839	-0.518869
55989		8.912169	-4.176732	-0.587663	-0.020101	0.012305	0.009161	-0.381348	0.605957	0.320312	0.446376	-0.703075	-0.192659	-0.518958
55990		8.877288	-4.226355	-0.602372	-0.027565	0.013658	0.020691	-0.377441	0.610352	0.321533	0.446248	-0.703220	-0.192338	-0.518989
55991		8.861595	-4.292854	-0.636856	-0.023469	0.027448	0.017140	-0.380127	0.614990	0.313477	0.446215	-0.703329	-0.191962	-0.519010
55992		8.881199	-4.211086	-0.556588	-0.023737	0.030473	0.001469	-0.377930	0.599121	0.322754	0.446281	-0.703237	-0.191684	-0.519180
55993		8.818661	-4.273856	-0.583582	-0.001892	0.023148	-0.001247	-0.392822	0.603516	0.323975	0.446153	-0.703277	-0.191598	-0.519268
55994		8.852087	-4.306139	-0.555999	0.004442	0.004013	0.005689	-0.375732	0.613037	0.317871	0.445929	-0.703276	-0.191558	-0.519476
55995		8.751854	-4.285362	-0.571798	0.031776	0.007266	0.016654	-0.376953	0.604736	0.313721	0.446297	-0.703217	-0.191491	-0.519265
55996		8.786155	-4.267648	-0.572273	0.001319	0.021466	0.023955	-0.382324	0.608398	0.322754	0.446521	-0.703148	-0.191293	-0.519238
55997		8.791074	-4.252611	-0.630290	-0.005514	0.015977	0.029817	-0.383057	0.612305	0.315674	0.446521	-0.703242	-0.190974	-0.519228
55998		8.807463	-4.306393	-0.613843	0.006132	0.005012	0.029357	-0.381836	0.605713	0.322754	0.446728	-0.703210	-0.190771	-0.519169
55999		8.778898	-4.286868	-0.614716	0.013970	0.006458	0.032755	-0.373047	0.615479	0.314209	0.446809	-0.703280	-0.190575	-0.519077
56000		8.785784	-4.280684	-0.685872	0.009521	0.009068	0.043021	-0.379395	0.609375	0.311035	0.447245	-0.703297	-0.190257	-0.518794
56001		8.760618	-4.323940	-0.636422	0.012530	-0.026973	0.049668	-0.378662	0.608154	0.316650	0.447598	-0.703364	-0.190136	-0.518443
56002		8.644124	-4.379360	-0.601989	0.020582	-0.015164	0.050519	-0.375732	0.609863	0.316650	0.447900	-0.703446	-0.189973	-0.518131
56003		8.676034	-4.413199	-0.630312	0.034399	-0.005795	0.056804	-0.377197	0.610107	0.312744	0.448359	-0.703466	-0.189784	-0.517776
56004		8.756478	-4.491092	-0.640504	0.038602	-0.014897	0.083336	-0.369385	0.609863	0.324219	0.448985	-0.703474	-0.189523	-0.517318
56005		8.732805	-4.462409	-0.564725	0.028463	-0.009325	0.103631	-0.369873	0.608887	0.312500	0.449487	-0.703781	-0.188987	-0.516660
56006		8.609857	-4.519437	-0.618395	0.028105	-0.021663	0.120905	-0.366943	0.616455	0.312256	0.450226	-0.703963	-0.188491	-0.515949
56007		8.620232	-4.595648	-0.615361	0.040109	-0.007299	0.146011	-0.370850	0.616455	0.317139	0.451244	-0.704083	-0.187801	-0.515147
56008		8.537573	-4.626583	-0.641499	0.041746	-0.011085	0.171596	-0.371338	0.618408	0.310059	0.452210	-0.704290	-0.186965	-0.514320
56009		8.538031	-4.709047	-0.570657	0.063473	-0.027560	0.197616	-0.362793	0.611816	0.310547	0.453491	-0.704395	-0.186174	-0.513334
56010		8.643700	-4.853084	-0.477335	0.093806	-0.041054	0.202338	-0.361328	0.619385	0.316650	0.454914	-0.704528	-0.185561	-0.512114
56011		8.594473	-4.839602	-0.645631	0.119978	-0.053079	0.219715	-0.361572	0.621826	0.306396	0.456471	-0.704732	-0.184931	-0.510674
56012		8.622710	-4.775890	-0.586319	0.121887	-0.035827	0.244133	-0.353271	0.624268	0.312500	0.458311	-0.704713	-0.184161	-0.509329
56013		8.506813	-4.888271	-0.522590	0.118399	-0.028756	0.269109	-0.356201	0.623291	0.311035	0.460176	-0.704872	-0.183146	-0.507790
56014		8.545282	-5.075923	-0.557217	0.119635	-0.043334	0.298941	-0.349121	0.630371	0.308838	0.462060	-0.705077	-0.182039	-0.506190
56015		8.544652	-5.281054	-0.540281	0.139758	-0.060664	0.332642	-0.346191	0.633301	0.304932	0.464284	-0.705326	-0.180867	-0.504224
56016		8.964931	-5.828685	-0.597375	0.238504	-0.062268	0.348474	-0.341797	0.636230	0.302734	0.467188	-0.705163	-0.180040	-0.502062
56017		8.813730	-5.872283	-0.795336	0.362893	-0.027288	0.370813	-0.343506	0.644287	0.300537	0.470960	-0.704394	-0.179463	-0.499819
56018		8.613932	-5.673060	-0.620778	0.446547	-0.040842	0.411197	-0.329590	0.639893	0.298096	0.475315	-0.703366	-0.179036	-0.497290
56019		8.120308	-5.231911	-0.440863	0.506370	-0.062640	0.438742	-0.319336	0.646973	0.281494	0.480056	-0.702337	-0.178770	-0.494278
56020		8.284214	-4.987666	-0.287997	0.487022	-0.088455	0.450895	-0.320801	0.644531	0.285889	0.484952	-0.701342	-0.178508	-0.490995
56021		8.539918	-4.846946	-0.345577	0.421212	-0.064437	0.472830	-0.316406	0.657959	0.267578	0.489259	-0.700632	-0.177704	-0.488018
56022		8.579458	-4.818696	-0.249345	0.330023	-0.014417	0.499249	-0.307861	0.656250	0.269531	0.493521	-0.699864	-0.176251	-0.485349
56023		8.727888	-4.936433	-0.307859	0.238229	0.043389	0.541115	-0.307617	0.665283	0.269043	0.497357	-0.699409	-0.173900	-0.482931
56024		8.688736	-5.187887	-0.430777	0.170951	0.120670	0.578855	-0.303223	0.674805	0.261719	0.501005	-0.698941	-0.170733	-0.480963
56025		8.177081	-5.406956	-0.359887	0.111235	0.152926	0.613594	-0.285156	0.673340	0.253906	0.504604	-0.698525	-0.167037	-0.479099
56026		7.962125	-5.657575	-0.419873	0.109425	0.122992	0.639443	-0.277344	0.680420	0.252441	0.508408	-0.698268	-0.163331	-0.476725
56027		8.111987	-6.061076	-0.430530	0.149180	0.107848	0.674326	-0.271729	0.685547	0.254639	0.512586	-0.697933	-0.159656	-0.473977
56028		8.306607	-6.287906	-0.483427	0.231357	0.111724	0.697695	-0.258545	0.685791	0.256836	0.517239	-0.697292	-0.156132	-0.471032
56029		7.890636	-6.109405	-0.463876	0.337391	0.100636	0.726562	-0.256592	0.695801	0.258301	0.522517	-0.696376	-0.152856	-0.467622
56030		7.672430	-5.880809	-0.036772	0.386193	0.028964	0.747331	-0.242920	0.697510	0.245361	0.527957	-0.695540	-0.149970	-0.463675
56031		7.965542	-5.852192	-0.136113	0.396565	0.020534	0.772637	-0.239990	0.707031	0.248535	0.533635	-0.694614	-0.147012	-0.459492
56032		7.842735	-5.630619	0.023862	0.355390	0.029033	0.787312	-0.229492	0.704346	0.236328	0.538996	-0.693870	-0.143784	-0.455362
56033		7.874481	-5.777705	0.085473	0.278960	0.052494	0.772076	-0.217285	0.717773	0.232422	0.543840	-0.693264	-0.140170	-0.451638
56034		8.015252	-5.991486	0.003453	0.207053	0.091581	0.746557	-0.203613	0.725830	0.218018	0.548385	-0.692745	-0.136386	-0.448082
56035		7.992522	-6.084328	0.035633	0.160131	0.123744	0.745747	-0.203125	0.724609	0.224121	0.552912	-0.692154	-0.132375	-0.444621
56036		7.656185	-6.294808	0.155183	0.129462	0.154447	0.729681	-0.191162	0.731689	0.221436	0.556909	-0.691644	-0.128093	-0.441672
56037		7.691740	-6.689050	-0.033240	0.156424	0.138960	0.727149	-0.177979	0.741211	0.216553	0.561121	-0.691034	-0.124086	-0.438427
56038		7.264132	-6.518423	0.222993	0.202023	0.099907	0.712802	-0.178955	0.734619	0.214600	0.565634	-0.690286	-0.120641	-0.434752
56039		7.344522	-6.517330	0.124768	0.235723	0.068895	0.670280	-0.158691	0.741699	0.211914	0.569756	-0.689468	-0.117434	-0.431533
56040		7.360618	-6.739828	0.167882	0.260380	0.080003	0.610045	-0.154053	0.739014	0.204346	0.573992	-0.688453	-0.114775	-0.428244
56041		7.040303	-6.613766	0.209210	0.308674	0.045679	0.557969	-0.153564	0.750488	0.207520	0.578081	-0.687261	-0.112577	-0.425229
56042		7.216106	-6.541675	0.204451	0.346015	-0.003745	0.494844	-0.138184	0.752930	0.188232	0.582053	-0.686008	-0.111190	-0.422189
56043		7.175152	-6.401772	0.273226	0.366517	-0.006563	0.428973	-0.132324	0.753418	0.180420	0.585936	-0.684550	-0.110224	-0.419429
56044		7.059952	-6.302204	0.360167	0.358799	-0.016225	0.359967	-0.131348	0.759277	0.180176	0.589376	-0.683132	-0.109578	-0.417083
56045		7.121791	-6.267169	0.412584	0.326439	-0.016293	0.290212	-0.123779	0.758301	0.182861	0.592302	-0.681836	-0.109186	-0.415158
56046		7.187026	-6.235401	0.337186	0.299794	0.006573	0.220372	-0.122314	0.771729	0.170166	0.594820	-0.680539	-0.108956	-0.413743
56047		7.121435	-6.171484	0.449839	0.270759	0.025411	0.160101	-0.118896	0.761230	0.168213	0.596979	-0.679254	-0.108884	-0.412764
56048		7.157039	-6.247549	0.456522	0.227443	0.044341	0.104440	-0.115967	0.766357	0.170410	0.598702	-0.678069	-0.108866	-0.412222
56049		6.964420	-6.116978	0.458893	0.191267	0.042100	0.044335	-0.108643	0.766846	0.165527	0.600009	-0.677016	-0.109076	-0.411997
56050		7.096406	-6.161163	0.325664	0.156774	0.042267	-0.005773	-0.119385	0.763916	0.165283	0.600950	-0.676087	-0.109451	-0.412052
56051		7.028533	-6.029911	0.447703	0.110771	0.064012	-0.050984	-0.121826	0.773926	0.160156	0.601491	-0.675272	-0.109819	-0.412499
56052		7.028444	-6.089282	0.563475	0.047932	0.068390	-0.101071	-0.118408	0.761963	0.165527	0.601512	-0.674710	-0.110235	-0.413277
56053		7.063854	-6.276630	0.497289	-0.024948	0.064850	-0.146514	-0.122070	0.760498	0.165283	0.600961	-0.674483	-0.110666	-0.414333
56054		7.165586	-6.448462	0.338542	-0.060761	0.067937	-0.182870	-0.123291	0.761230	0.162598	0.600084	-0.674390	-0.111166	-0.415619
56055		7.008989	-6.480428	0.288071	-0.045220	0.066432	-0.212791	-0.123291	0.762695	0.165527	0.599189	-0.674195	-0.111901	-0.417028
56056		6.905049	-6.372833	0.389983	-0.039597	0.026763	-0.246116	-0.124512	0.762939	0.158936	0.598169	-0.674076	-0.113037	-0.418374
56057		7.086907	-6.444611	0.363557	-0.075364	0.008040	-0.290808	-0.137695	0.763428	0.168213	0.596775	-0.674155	-0.114402	-0.419864
56058		7.109124	-6.533631	0.330261	-0.078971	0.011757	-0.344193	-0.139893	0.761475	0.167236	0.595166	-0.674185	-0.116029	-0.421650
56059		7.084796	-6.444498	0.316791	-0.066502	-0.021139	-0.366080	-0.139648	0.750732	0.169678	0.593516	-0.674241	-0.117988	-0.423340
56060		7.098868	-6.443616	0.362902	-0.061911	-0.035797	-0.392057	-0.148438	0.757324	0.165527	0.591779	-0.674294	-0.120175	-0.425069
56061		7.101142	-6.374730	0.389122	-0.065207	-0.053426	-0.429318	-0.153076	0.748291	0.164795	0.589869	-0.674379	-0.122661	-0.426874
56062		7.110165	-6.213405	0.413713	-0.092515	-0.065024	-0.477404	-0.155273	0.748291	0.162109	0.587614	-0.674581	-0.125374	-0.428873
56063		7.433437	-6.309233	0.486946	-0.116384	-0.073697	-0.521696	-0.166748	0.747314	0.182861	0.585050	-0.674871	-0.128295	-0.431052
56064		7.534611	-6.286021	0.157370	-0.115102	-0.071730	-0.554432	-0.180908	0.751221	0.175537	0.582349	-0.675103	-0.131360	-0.433416
56065		7.574264	-6.233947	0.285859	-0.094985	-0.084386	-0.562292	-0.186035	0.745361	0.177002	0.579713	-0.675257	-0.134634	-0.435701
56066		7.454871	-5.921234	0.352038	-0.086901	-0.118627	-0.573847	-0.194336	0.736328	0.182373	0.577028	-0.675467	-0.138162	-0.437829
56067		7.617402	-5.675614	0.476683	-0.144497	-0.119968	-0.595572	-0.198486	0.734863	0.181396	0.573917	-0.675918	-0.141596	-0.440119
56068		8.033145	-5.852301	0.405574	-0.221924	-0.088342	-0.636436	-0.208984	0.733887	0.193115	0.570246	-0.676554	-0.144829	-0.442852
56069		7.829228	-5.928275	0.232472	-0.266129	-0.030003	-0.653965	-0.213867	0.734375	0.188232	0.566300	-0.677146	-0.147693	-0.446054
56070		7.731788	-5.729756	0.374297	-0.289842	-0.059080	-0.669185	-0.227051	0.727295	0.193604	0.562125	-0.677909	-0.150713	-0.449156
56071		7.933209	-5.569718	0.389530	-0.302962	-0.051320	-0.683826	-0.229248	0.710449	0.199707	0.557800	-0.678661	-0.153729	-0.452379
56072		8.540883	-5.980632	0.013718	-0.325468	-0.021766	-0.676136	-0.245605	0.716553	0.203613	0.553386	-0.679394	-0.156450	-0.455754
56073		8.087833	-5.912867	-0.009929	-0.306083	0.004694	-0.656997	-0.246094	0.721680	0.211182	0.549166	-0.679934	-0.159031	-0.459148
56074		7.962407	-5.962484	0.004014	-0.271696	-0.030828	-0.643925	-0.251221	0.711426	0.211426	0.545130	-0.680450	-0.161792	-0.462217
56075		8.041988	-5.721793	0.265102	-0.243968	-0.063716	-0.639761	-0.265869	0.709717	0.217529	0.541212	-0.680948	-0.164791	-0.465020
56076		8.026647	-5.567602	0.187486	-0.255700	-0.056638	-0.651931	-0.280029	0.695557	0.223633	0.537155	-0.681434	-0.167780	-0.467933
56077		8.030854	-5.352325	0.271155	-0.283490	-0.062503	-0.666193	-0.281006	0.694824	0.224609	0.532831	-0.682027	-0.170766	-0.470924
56078		8.176772	-5.041092	0.378085	-0.353719	-0.057189	-0.668856	-0.291504	0.685547	0.231201	0.528106	-0.682878	-0.173458	-0.474019
56079		8.287583	-4.919568	0.342294	-0.460447	-0.030588	-0.669249	-0.294922	0.676758	0.234619	0.522771	-0.684068	-0.175602	-0.477416
56080		8.466706	-5.052275	0.244003	-0.580328	-0.007673	-0.681886	-0.312988	0.680176	0.250000	0.516720	-0.685633	-0.177237	-0.481140
56081		8.515040	-5.176223	-0.016497	-0.651063	0.025810	-0.683946	-0.314453	0.666260	0.251709	0.510233	-0.687336	-0.178415	-0.485180
56082		8.429095	-5.229695	-0.302260	-0.658732	0.001887	-0.650512	-0.318359	0.657959	0.259033	0.503797	-0.689169	-0.179485	-0.488897
56083		8.250031	-5.352052	-0.280694	-0.636986	-0.023134	-0.622681	-0.334473	0.655762	0.267334	0.497537	-0.691017	-0.180571	-0.492287
56084		8.205401	-5.474365	-0.278449	-0.616432	-0.054903	-0.599582	-0.339844	0.651367	0.278809	0.491396	-0.692903	-0.181749	-0.495361
56085		8.340122	-5.428519	-0.511995	-0.548516	-0.098861	-0.576531	-0.344238	0.643311	0.287598	0.485635	-0.694707	-0.183206	-0.497973
56086		8.441652	-5.382885	-0.609491	-0.493632	-0.123736	-0.564268	-0.351807	0.642334	0.301270	0.480173	-0.696390	-0.184892	-0.500290
56087		8.585395	-5.289576	-0.619351	-0.415549	-0.150277	-0.565013	-0.358643	0.637451	0.307617	0.475063	-0.697865	-0.186948	-0.502343
56088		8.743897	-5.251907	-0.655141	-0.323110	-0.144901	-0.566284	-0.366455	0.612793	0.311279	0.470474	-0.698928	-0.189372	-0.504274
56089		8.875732	-5.055558	-0.661494	-0.232232	-0.152790	-0.550851	-0.366211	0.625000	0.308350	0.466459	-0.699656	-0.192184	-0.505927
56090		8.960823	-4.826361	-0.657060	-0.180068	-0.161384	-0.537188	-0.375977	0.614990	0.311035	0.462859	-0.700204	-0.195175	-0.507330
56091		8.912816	-4.644118	-0.751338	-0.140933	-0.118471	-0.533006	-0.376465	0.612061	0.309326	0.459570	-0.700397	-0.198171	-0.508889
56092		8.935165	-4.361475	-0.725655	-0.138949	-0.104105	-0.530638	-0.382568	0.606689	0.315430	0.456349	-0.700504	-0.201112	-0.510484
56093		9.012640	-4.306636	-0.744061	-0.155887	-0.090406	-0.524542	-0.389648	0.599609	0.316406	0.453056	-0.700619	-0.203874	-0.512160
56094		9.084667	-4.217235	-0.730628	-0.154810	-0.088122	-0.526046	-0.397705	0.592041	0.319824	0.449763	-0.700697	-0.206648	-0.513842
56095		9.062375	-4.048851	-0.783047	-0.111471	-0.119381	-0.530533	-0.394043	0.593750	0.319580	0.446635	-0.700724	-0.209745	-0.515277
56096		8.954705	-4.030568	-0.772534	-0.093836	-0.112320	-0.521555	-0.400391	0.583496	0.323975	0.443677	-0.700657	-0.212834	-0.516655
56097		9.087669	-3.916504	-0.806954	-0.099645	-0.098447	-0.514689	-0.409424	0.586914	0.328857	0.440719	-0.700552	-0.215800	-0.518096
56098		9.226198	-3.618210	-0.699105	-0.093793	-0.098251	-0.513747	-0.412354	0.583008	0.327637	0.437790	-0.700413	-0.218776	-0.519518
56099		9.196249	-3.505523	-0.821120	-0.117043	-0.104950	-0.511020	-0.422607	0.572021	0.335449	0.434726	-0.700375	-0.221662	-0.520917
56100		9.122828	-3.496202	-0.829982	-0.103733	-0.086583	-0.510061	-0.424805	0.565430	0.332031	0.431752	-0.700201	-0.224524	-0.522396
56101		9.165368	-3.504550	-0.814174	-0.095256	-0.056330	-0.502462	-0.419189	0.567383	0.331299	0.428922	-0.699860	-0.227273	-0.523993
56102		9.347662	-3.280233	-0.797786	-0.125914	-0.043008	-0.488726	-0.436035	0.567139	0.343506	0.426009	-0.699585	-0.229762	-0.525650
56103		9.417847	-3.211045	-0.914109	-0.158504	-0.029880	-0.471192	-0.444824	0.559570	0.350342	0.422983	-0.699392	-0.231948	-0.527386
56104		9.227479	-3.367207	-0.912828	-0.170295	0.005872	-0.463479	-0.437744	0.555420	0.348633	0.419982	-0.699087	-0.233908	-0.529320
56105		9.183433	-3.417810	-0.859171	-0.144387	0.016136	-0.444073	-0.453613	0.546631	0.348145	0.417244	-0.698670	-0.235835	-0.531177
56106		9.189586	-3.322309	-0.850234	-0.150614	0.008128	-0.428251	-0.448975	0.546387	0.346924	0.414512	-0.698329	-0.237662	-0.532948
56107		9.175172	-3.304532	-0.944854	-0.138977	-0.006175	-0.417971	-0.456055	0.541992	0.346191	0.411866	-0.698022	-0.239530	-0.534562
56108		9.271221	-3.273012	-0.999814	-0.116156	-0.000465	-0.399264	-0.464111	0.533203	0.348633	0.409441	-0.697640	-0.241366	-0.536097
56109		9.185243	-3.293950	-1.012637	-0.114371	-0.008909	-0.383678	-0.464111	0.529785	0.348145	0.407071	-0.697313	-0.243144	-0.537521
56110		9.198812	-3.213957	-1.049419	-0.092086	-0.024347	-0.368398	-0.465576	0.524414	0.352783	0.404866	-0.697004	-0.244984	-0.538750
56111		9.341166	-3.123786	-0.906033	-0.050971	-0.049887	-0.346945	-0.467773	0.523926	0.359619	0.402941	-0.696709	-0.246969	-0.539668
56112		9.285021	-3.026674	-0.873349	-0.056554	-0.033383	-0.320518	-0.480469	0.527832	0.361816	0.401133	-0.696408	-0.248719	-0.540599
56113		9.250952	-2.915780	-0.975043	-0.082413	-0.024985	-0.299856	-0.478760	0.510742	0.357422	0.399283	-0.696192	-0.250199	-0.541564
56114		9.378660	-2.951528	-1.062427	-0.089406	-0.023462	-0.267701	-0.473877	0.517090	0.359619	0.397537	-0.696055	-0.251454	-0.542441
56115		9.412768	-2.943642	-0.880830	-0.069707	-0.022843	-0.235616	-0.471924	0.519043	0.364502	0.396053	-0.695915	-0.252611	-0.543169
56116		9.318195	-2.920473	-0.945294	-0.074062	-0.016070	-0.212265	-0.480225	0.509521	0.357422	0.394663	-0.695805	-0.253590	-0.543865
56117		9.169508	-3.092782	-0.867993	-0.050266	-0.004136	-0.179358	-0.480225	0.501953	0.358398	0.393581	-0.695629	-0.254440	-0.544477
56118		9.063536	-3.277838	-0.941220	-0.021817	-0.016730	-0.141223	-0.480469	0.504639	0.362549	0.392810	-0.695497	-0.255240	-0.544827
56119		9.184487	-3.161185	-0.874750	0.025137	-0.051664	-0.095717	-0.485840	0.503662	0.359375	0.392445	-0.695467	-0.256103	-0.544724
56120		9.262130	-3.011479	-0.989264	0.043383	-0.047296	-0.068000	-0.489990	0.504150	0.364990	0.392320	-0.695416	-0.256870	-0.544518
56121		9.200145	-2.993344	-0.984118	0.061294	-0.045998	-0.038346	-0.479004	0.510010	0.367188	0.392435	-0.695363	-0.257543	-0.544184
56122		9.142991	-3.085680	-0.994306	0.074483	-0.042711	0.010933	-0.487793	0.507080	0.364014	0.392861	-0.695359	-0.257981	-0.543674
56123		9.184053	-3.141388	-0.876903	0.089098	-0.033792	0.060540	-0.479980	0.504883	0.360840	0.393613	-0.695372	-0.258163	-0.543028
56124		9.301143	-2.963789	-0.997579	0.079497	-0.018811	0.102768	-0.470215	0.509277	0.361816	0.394533	-0.695439	-0.258007	-0.542347
56125		9.361705	-2.914170	-0.859239	0.062309	-0.013201	0.135930	-0.479492	0.512451	0.363037	0.395517	-0.695608	-0.257565	-0.541624
56126		9.235728	-3.134478	-0.966032	0.061437	0.003405	0.164310	-0.483154	0.510010	0.366699	0.396655	-0.695764	-0.256895	-0.540909
56127		9.263906	-3.369215	-0.869722	0.098460	0.005252	0.201843	-0.476562	0.502930	0.358398	0.398179	-0.695868	-0.256165	-0.540000
56128		9.255449	-3.332877	-0.878211	0.139412	0.015483	0.246786	-0.484863	0.518311	0.361572	0.400165	-0.695883	-0.255323	-0.538911
56129		9.288503	-3.208029	-0.983921	0.152778	0.034216	0.280671	-0.477539	0.514893	0.353516	0.402419	-0.695837	-0.254279	-0.537785
56130		9.197835	-3.044608	-1.027586	0.138599	0.031176	0.296811	-0.469238	0.528076	0.356445	0.404653	-0.695880	-0.253085	-0.536614
56131		9.098152	-2.987429	-1.090595	0.165322	0.037258	0.309895	-0.467773	0.530518	0.357178	0.407113	-0.695829	-0.251914	-0.535369
56132		9.241244	-3.086337	-0.991209	0.163705	0.045287	0.325319	-0.463623	0.528809	0.346680	0.409644	-0.695774	-0.250617	-0.534117
56133		9.416704	-3.193774	-0.741473	0.163130	0.085120	0.371203	-0.463135	0.536865	0.345947	0.412454	-0.695631	-0.248909	-0.532939
56134		9.338855	-3.540649	-0.640160	0.160696	0.123975	0.431781	-0.457275	0.542969	0.348633	0.415594	-0.695439	-0.246702	-0.531775
56135		9.277633	-3.650794	-0.703488	0.142388	0.131651	0.482585	-0.457031	0.537598	0.342285	0.418862	-0.695371	-0.244090	-0.530504
56136		9.314168	-3.481225	-0.817734	0.130978	0.152528	0.517885	-0.446289	0.543945	0.341309	0.422249	-0.695307	-0.241139	-0.529251
56137		9.190717	-3.331506	-0.852658	0.101990	0.119644	0.544538	-0.450684	0.555664	0.338867	0.425515	-0.695529	-0.238020	-0.527753
56138		9.090266	-3.419752	-0.796243	0.057327	0.120767	0.551646	-0.446533	0.566895	0.338867	0.428546	-0.695900	-0.234650	-0.526318
56139		8.991827	-3.655416	-0.882591	0.057733	0.115603	0.531563	-0.433838	0.567627	0.341309	0.431475	-0.696239	-0.231414	-0.524908
56140		9.048164	-3.950878	-0.789434	0.162425	0.094077	0.508380	-0.432373	0.570557	0.336426	0.434859	-0.696240	-0.228847	-0.523237
56141		9.041443	-4.018453	-0.695035	0.218537	0.072875	0.505310	-0.423828	0.574707	0.326172	0.438503	-0.696107	-0.226610	-0.521342
56142		9.175859	-3.656574	-0.748661	0.211143	0.060617	0.493292	-0.416992	0.575439	0.318604	0.442025	-0.696014	-0.224449	-0.519424
56143		9.204661	-3.549375	-0.763256	0.200037	0.061043	0.495207	-0.412842	0.579590	0.326416	0.445482	-0.695948	-0.222222	-0.517513
56144		9.218902	-3.627452	-0.784473	0.194943	0.050555	0.515534	-0.406982	0.585449	0.318848	0.448962	-0.695976	-0.219893	-0.515459
56145		9.317630	-3.641791	-0.564582	0.180319	0.046589	0.520807	-0.407959	0.597168	0.315674	0.452368	-0.696066	-0.217480	-0.513379
56146		9.279768	-3.687771	-0.412579	0.110148	0.079575	0.516553	-0.393799	0.597412	0.321045	0.455401	-0.696253	-0.214662	-0.511627
56147		9.247005	-3.742533	-0.476409	0.010780	0.135421	0.514627	-0.392578	0.598877	0.315918	0.457940	-0.696573	-0.211224	-0.510355
56148		9.048828	-3.851439	-0.478212	-0.067081	0.156596	0.504838	-0.394531	0.600586	0.316406	0.460010	-0.697063	-0.207421	-0.509383
56149		8.943468	-4.076235	-0.631881	-0.064933	0.149606	0.488187	-0.381592	0.603516	0.309814	0.461989	-0.697530	-0.203740	-0.508437
56150		8.930771	-4.319548	-0.508298	-0.009182	0.126929	0.453095	-0.381348	0.612305	0.307129	0.464117	-0.697805	-0.200593	-0.507372
56151		8.686329	-4.484330	-0.552757	0.006061	0.098177	0.425445	-0.374268	0.623047	0.305420	0.466169	-0.698078	-0.197781	-0.506218
56152		8.499920	-4.538288	-0.631740	0.046775	0.041892	0.385268	-0.372803	0.620605	0.310547	0.468211	-0.698353	-0.195603	-0.504798
56153		8.450644	-4.765981	-0.645888	0.127843	-0.018434	0.332667	-0.364746	0.621094	0.300537	0.470377	-0.698484	-0.194297	-0.503105
56154		8.666242	-4.675117	-0.684170	0.211418	-0.088661	0.286358	-0.362061	0.634277	0.302002	0.472734	-0.698490	-0.193889	-0.501041
56155		8.792102	-4.584770	-0.534169	0.288353	-0.124884	0.219438	-0.356934	0.622314	0.301514	0.475214	-0.698228	-0.194346	-0.498878
56156		8.875473	-4.407495	-0.530195	0.307222	-0.125418	0.167184	-0.357422	0.633545	0.289062	0.477543	-0.697815	-0.195164	-0.496908
56157		8.930486	-4.129102	-0.471088	0.308742	-0.128410	0.124765	-0.364014	0.636475	0.299561	0.479731	-0.697306	-0.196263	-0.495079
56158		8.955224	-4.080206	-0.486675	0.277096	-0.124646	0.081512	-0.351562	0.627441	0.298096	0.481515	-0.696849	-0.197449	-0.493516
56159		8.865954	-3.958532	-0.395011	0.242924	-0.115165	0.046554	-0.347900	0.635498	0.294434	0.482961	-0.696449	-0.198651	-0.492184
56160		8.837563	-3.939593	-0.399724	0.185451	-0.093372	0.013287	-0.351318	0.644043	0.288086	0.484003	-0.696125	-0.199743	-0.491177
56161		8.851039	-4.109460	-0.537177	0.130179	-0.067810	-0.023504	-0.355713	0.635010	0.289307	0.484638	-0.695834	-0.200737	-0.490556
56162		8.768117	-4.186347	-0.609813	0.106148	-0.056489	-0.047508	-0.360596	0.635742	0.283203	0.485002	-0.695562	-0.201692	-0.490190
56163		8.875383	-4.322397	-0.426146	0.107767	-0.052451	-0.066144	-0.361328	0.642822	0.275879	0.485307	-0.695216	-0.202749	-0.489944
56164		8.625988	-4.371405	-0.438954	0.132347	-0.046803	-0.091792	-0.354980	0.628906	0.279053	0.485702	-0.694678	-0.204065	-0.489770
56165		8.557659	-4.310245	-0.519015	0.119989	-0.044504	-0.088561	-0.359863	0.639160	0.288574	0.485995	-0.694219	-0.205264	-0.489628
56166		8.777245	-4.189226	-0.349518	0.094551	-0.037719	-0.069876	-0.353516	0.640869	0.287598	0.486225	-0.693882	-0.206230	-0.489472
56167		8.875531	-4.107696	-0.412253	0.059509	-0.031336	-0.061896	-0.359131	0.647461	0.285400	0.486326	-0.693678	-0.206997	-0.489335
56168		8.814446	-4.227890	-0.519723	-0.015549	0.010723	-0.048751	-0.355957	0.635986	0.286621	0.486137	-0.693611	-0.207231	-0.489521
56169		8.746120	-4.329580	-0.444310	-0.043803	0.041250	-0.049462	-0.357666	0.639648	0.283203	0.485791	-0.693553	-0.207195	-0.489960
56170		8.740045	-4.541588	-0.426093	-0.058635	0.050519	-0.021249	-0.357910	0.637451	0.286865	0.485519	-0.693548	-0.206920	-0.490354
56171		8.847679	-4.645342	-0.421195	-0.060516	0.045571	-0.000985	-0.357910	0.632324	0.285889	0.485290	-0.693619	-0.206525	-0.490647
56172		8.617509	-4.682490	-0.496604	-0.056267	0.056392	0.018375	-0.354004	0.634521	0.288330	0.485163	-0.693663	-0.205977	-0.490940
56173		8.514334	-4.788185	-0.519301	-0.077728	0.062738	0.026739	-0.361084	0.639404	0.284668	0.484977	-0.693793	-0.205276	-0.491234
56174		8.525534	-4.918063	-0.573432	-0.041999	0.056636	0.040003	-0.356201	0.644043	0.284912	0.485054	-0.693793	-0.204689	-0.491403
56175		8.592914	-5.036550	-0.411521	-0.015838	0.037786	0.067172	-0.362305	0.635986	0.288330	0.485406	-0.693811	-0.204155	-0.491250
56176		8.577795	-5.095026	-0.306609	0.041652	0.030208	0.100130	-0.358887	0.637451	0.285156	0.486119	-0.693701	-0.203635	-0.490918
56177		8.476446	-5.089754	-0.438109	0.075386	0.023218	0.137985	-0.347656	0.635986	0.283691	0.487196	-0.693537	-0.203077	-0.490312
56178		8.643084	-5.073393	-0.433729	0.062667	0.028143	0.177278	-0.352539	0.640137	0.288330	0.488402	-0.693487	-0.202230	-0.489533
56179		8.996872	-5.289003	-0.702413	0.049963	0.054526	0.206455	-0.347656	0.639404	0.286865	0.489653	-0.693437	-0.201030	-0.488847
56180		8.365887	-5.156676	-0.443912	0.092130	0.078327	0.258018	-0.345215	0.634033	0.278809	0.491400	-0.693207	-0.199604	-0.488004
56181		8.179655	-5.226980	-0.278824	0.127405	0.042849	0.283124	-0.346191	0.647217	0.282471	0.493378	-0.692996	-0.198314	-0.486833
56182		8.211256	-5.353417	-0.245253	0.195820	0.029960	0.318604	-0.338623	0.649902	0.274902	0.495890	-0.692609	-0.197165	-0.485296
56183		8.541391	-5.423749	-0.332620	0.226498	-0.003009	0.355610	-0.335938	0.651611	0.267090	0.498719	-0.692263	-0.196093	-0.483320
56184		8.551490	-5.389489	-0.343217	0.243192	0.022419	0.394544	-0.327637	0.653320	0.269531	0.501849	-0.691774	-0.194772	-0.481311
56185		8.525141	-5.454288	-0.258175	0.242393	0.032138	0.430980	-0.327637	0.659912	0.262939	0.505111	-0.691333	-0.193167	-0.479174
56186		8.259138	-5.308670	-0.274045	0.255692	0.049880	0.480029	-0.319580	0.671387	0.259033	0.508679	-0.690798	-0.191280	-0.476924
56187		8.275449	-5.359346	-0.318642	0.281813	0.038541	0.525770	-0.311035	0.671387	0.253174	0.512624	-0.690241	-0.189331	-0.474276
56188		8.251510	-5.340533	-0.205429	0.284671	0.045887	0.572639	-0.302246	0.673584	0.254150	0.516771	-0.689698	-0.187086	-0.471449
56189		8.286754	-5.473862	-0.048441	0.245591	0.064836	0.596811	-0.297852	0.674072	0.255371	0.520778	-0.689298	-0.184433	-0.468661
56190		8.372125	-5.634555	-0.064723	0.217507	0.082916	0.610283	-0.290771	0.676758	0.239502	0.524622	-0.688976	-0.181454	-0.466003
56191		8.146251	-5.547386	-0.204728	0.217398	0.098579	0.640628	-0.283203	0.686279	0.248291	0.528652	-0.688554	-0.178284	-0.463288
56192		8.217247	-5.614367	0.016311	0.201677	0.093368	0.657560	-0.275879	0.696045	0.243164	0.532616	-0.688275	-0.174957	-0.460421
56193		8.267050	-5.863623	-0.072898	0.185648	0.125216	0.675317	-0.268066	0.696045	0.230713	0.536646	-0.687920	-0.171379	-0.457609
56194		7.986872	-5.794019	0.010194	0.178510	0.119399	0.700711	-0.258545	0.700439	0.232666	0.540724	-0.687590	-0.167669	-0.454669
56195		7.968137	-5.929571	0.136547	0.166878	0.116184	0.722039	-0.247803	0.707275	0.233398	0.544786	-0.687355	-0.163794	-0.451579
56196		8.040118	-6.169433	-0.034622	0.167639	0.133136	0.732945	-0.238281	0.711426	0.228027	0.548929	-0.687053	-0.159804	-0.448440
56197		7.743669	-6.164026	0.022535	0.177488	0.123557	0.746041	-0.239502	0.713379	0.218750	0.553170	-0.686717	-0.155843	-0.445124
56198		7.713075	-6.267567	0.140876	0.189138	0.084699	0.750895	-0.217285	0.718018	0.229736	0.557337	-0.686409	-0.152024	-0.441709
56199		7.681853	-6.358702	0.136724	0.197300	0.092336	0.757531	-0.195801	0.722656	0.210938	0.561645	-0.686100	-0.148198	-0.438017
56200		7.491740	-6.426267	0.137136	0.214051	0.080203	0.733203	-0.202881	0.722900	0.211426	0.566093	-0.685632	-0.144759	-0.434158
56201		7.305546	-6.530574	0.134763	0.230401	0.062665	0.700709	-0.193359	0.741699	0.209961	0.570221	-0.685105	-0.141454	-0.430662
56202		7.454122	-6.648641	0.157844	0.249949	0.034965	0.684018	-0.181396	0.742188	0.204346	0.574448	-0.684518	-0.138584	-0.426896
56203		7.345129	-6.561582	0.107456	0.304608	0.014120	0.670730	-0.170654	0.745850	0.200928	0.578818	-0.683725	-0.135996	-0.423077
56204		7.309416	-6.637819	0.180472	0.321199	-0.004433	0.642753	-0.160889	0.742188	0.197510	0.583074	-0.682883	-0.133645	-0.419327
56205		7.285650	-6.684870	0.213694	0.313923	0.002225	0.623536	-0.148193	0.747070	0.196289	0.587121	-0.682030	-0.131244	-0.415811
56206		7.224918	-6.757474	0.229327	0.335533	-0.029721	0.605120	-0.145752	0.757080	0.188232	0.591161	-0.681144	-0.129165	-0.412174
56207		7.068954	-6.774843	0.084104	0.392579	-0.025499	0.573620	-0.141113	0.751465	0.179688	0.595383	-0.679900	-0.127430	-0.408676
56208		7.018776	-6.726825	0.377475	0.417326	-0.057726	0.532159	-0.129395	0.758545	0.183594	0.599529	-0.678581	-0.126148	-0.405189
56209		7.189676	-6.813111	0.254411	0.419925	-0.071345	0.483275	-0.125977	0.752441	0.169189	0.603495	-0.677226	-0.125210	-0.401846
56210		6.810730	-6.655129	0.355470	0.434806	-0.075648	0.430014	-0.113281	0.767090	0.161865	0.607344	-0.675734	-0.124650	-0.398722
56211		6.769836	-6.472809	0.466437	0.446378	-0.116784	0.375818	-0.109131	0.760254	0.156006	0.611025	-0.674245	-0.124642	-0.395609
56212		7.043246	-6.370189	0.531838	0.403164	-0.119956	0.331647	-0.111572	0.765381	0.148682	0.614294	-0.672927	-0.124747	-0.392747
56213		7.085694	-6.238072	0.525689	0.346766	-0.092277	0.288178	-0.106934	0.763428	0.153076	0.617122	-0.671749	-0.124773	-0.390314
56214		6.938542	-6.125237	0.659206	0.280231	-0.072809	0.220386	-0.105957	0.768311	0.139893	0.619366	-0.670773	-0.124850	-0.388410
56215		6.909612	-6.097175	0.591662	0.203148	-0.046250	0.165002	-0.101807	0.770020	0.147949	0.621028	-0.670044	-0.124864	-0.387007
56216		6.961442	-6.067153	0.659950	0.103620	-0.036805	0.119564	-0.100830	0.779053	0.142334	0.621989	-0.669752	-0.124746	-0.386006
56217		6.927404	-6.066392	0.574629	0.018961	0.003811	0.042072	-0.102051	0.777100	0.145752	0.622273	-0.669686	-0.124590	-0.385712
56218		7.026786	-6.388955	0.435361	-0.051182	0.031250	-0.037982	-0.101318	0.772461	0.143555	0.621934	-0.669813	-0.124509	-0.386066
56219		6.821623	-6.452572	0.364177	-0.054457	0.054721	-0.101601	-0.100586	0.773682	0.147705	0.621398	-0.669814	-0.124655	-0.386879
56220		6.802866	-6.355612	0.444727	-0.049239	0.005883	-0.140270	-0.102295	0.775879	0.142334	0.620713	-0.669905	-0.125282	-0.387617
56221		6.877384	-6.381692	0.419701	-0.062624	-0.010407	-0.191885	-0.104736	0.770752	0.140625	0.619772	-0.670062	-0.126251	-0.388536
56222		6.740174	-6.500754	0.386970	-0.078989	-0.016092	-0.258891	-0.107666	0.770508	0.147461	0.618515	-0.670248	-0.127573	-0.389784
56223		6.839471	-6.650600	0.344842	-0.081810	-0.052509	-0.324307	-0.110840	0.760986	0.146973	0.616981	-0.670496	-0.129425	-0.391177
56224		6.950591	-6.597521	0.256858	-0.062452	-0.081702	-0.385559	-0.116699	0.769043	0.145508	0.615319	-0.670666	-0.131835	-0.392695
56225		7.003670	-6.408895	0.249173	-0.035015	-0.090822	-0.427614	-0.117432	0.769775	0.147461	0.613659	-0.670670	-0.134626	-0.394335
56226		7.097123	-6.200235	0.367343	-0.056615	-0.105635	-0.458482	-0.127686	0.763672	0.157227	0.611751	-0.670790	-0.137585	-0.396071
56227		7.458316	-6.331746	0.268438	-0.095256	-0.090281	-0.492996	-0.127686	0.766602	0.155273	0.609508	-0.671009	-0.140514	-0.398124
56228		7.248784	-6.282471	0.253392	-0.106133	-0.085799	-0.529999	-0.145020	0.762207	0.151123	0.607084	-0.671210	-0.143597	-0.400381
56229		7.249764	-6.206347	0.418456	-0.134358	-0.103023	-0.571204	-0.157715	0.760742	0.154541	0.604331	-0.671544	-0.146930	-0.402771
56230		7.470084	-6.090652	0.375166	-0.181606	-0.083089	-0.603779	-0.150879	0.753906	0.161865	0.601208	-0.671991	-0.150181	-0.405491
56231		7.507188	-5.983879	0.354925	-0.236105	-0.084513	-0.649594	-0.166748	0.754395	0.158447	0.597605	-0.672643	-0.153473	-0.408491
56232		7.525798	-6.018921	0.245460	-0.260856	-0.088975	-0.689825	-0.174316	0.753662	0.165039	0.593706	-0.673352	-0.156960	-0.411672
56233		7.327882	-5.762696	0.412446	-0.293553	-0.098916	-0.731602	-0.188232	0.744629	0.179688	0.589439	-0.674177	-0.160599	-0.415037
56234		8.069670	-5.980953	0.281272	-0.361164	-0.102693	-0.786772	-0.198242	0.743408	0.174316	0.584540	-0.675250	-0.164287	-0.418760
56235		8.345606	-6.260258	0.023684	-0.394574	-0.032900	-0.816529	-0.208496	0.729736	0.180664	0.579437	-0.676153	-0.167728	-0.423010
56236		7.933144	-6.396116	-0.042136	-0.387589	0.025157	-0.834618	-0.222656	0.729248	0.185059	0.574347	-0.676757	-0.170994	-0.427652
56237		7.685586	-6.058595	0.133853	-0.334316	-0.031772	-0.818826	-0.225586	0.724854	0.194336	0.569500	-0.677291	-0.174634	-0.431798
56238		7.880072	-5.983989	0.247414	-0.303191	-0.088091	-0.804888	-0.243164	0.719482	0.208496	0.564760	-0.677874	-0.178524	-0.435502
56239		8.067454	-5.935245	0.131613	-0.309657	-0.090551	-0.801476	-0.253906	0.715576	0.194824	0.559923	-0.678480	-0.182330	-0.439211
56240		7.896551	-5.674319	0.007811	-0.298437	-0.069746	-0.802585	-0.261475	0.710205	0.209229	0.555207	-0.678887	-0.186198	-0.442931
56241		7.977763	-5.563217	0.137619	-0.327118	-0.077430	-0.829690	-0.265625	0.697021	0.210938	0.550149	-0.679400	-0.190059	-0.446798
56242		8.378996	-5.577339	0.038437	-0.354411	-0.079613	-0.852152	-0.281494	0.686279	0.213867	0.544828	-0.679970	-0.193949	-0.450762
56243		8.431542	-5.206065	-0.261958	-0.328318	-0.060007	-0.837432	-0.295166	0.691895	0.229248	0.539702	-0.680326	-0.197780	-0.454710
56244		8.245806	-4.984438	0.007308	-0.341214	-0.059265	-0.827121	-0.297363	0.679688	0.223145	0.534469	-0.680740	-0.201416	-0.458658
56245		8.565058	-4.994246	0.032812	-0.391127	-0.080066	-0.819563	-0.307861	0.678955	0.233154	0.528970	-0.681407	-0.204969	-0.462453
56246		8.656072	-4.841232	-0.108685	-0.444331	-0.060598	-0.802007	-0.321289	0.668457	0.240723	0.523216	-0.682238	-0.208079	-0.466369
56247		8.598152	-4.605262	-0.102789	-0.523137	-0.061729	-0.775146	-0.334961	0.660156	0.249756	0.517061	-0.683425	-0.210720	-0.470293
56248		8.879126	-4.380718	-0.152908	-0.616180	-0.035160	-0.740298	-0.335205	0.661377	0.253906	0.510502	-0.684931	-0.212663	-0.474376
56249		8.930416	-4.357807	-0.197461	-0.741317	0.016558	-0.706333	-0.343750	0.649902	0.263184	0.503460	-0.686774	-0.213687	-0.478756
56250		8.973043	-4.475906	-0.385867	-0.825311	0.062106	-0.661389	-0.354248	0.640137	0.283203	0.496148	-0.688819	-0.213906	-0.483331
56251		8.844270	-4.643498	-0.550350	-0.854684	0.071927	-0.617819	-0.361328	0.632080	0.290039	0.488746	-0.691009	-0.213607	-0.487859
56252		8.706009	-4.869967	-0.762865	-0.862640	0.053963	-0.571224	-0.363770	0.625000	0.291748	0.481440	-0.693321	-0.213097	-0.492048
56253		8.620839	-5.097374	-0.853003	-0.857576	0.047482	-0.531734	-0.375732	0.622070	0.306885	0.474343	-0.695631	-0.212459	-0.495941
56254		8.659728	-5.209703	-0.939889	-0.789136	0.031345	-0.494178	-0.378174	0.614502	0.307861	0.467701	-0.697772	-0.211897	-0.499469
56255		8.691855	-5.336355	-1.054180	-0.680546	0.023423	-0.499557	-0.385010	0.603271	0.321045	0.461688	-0.699448	-0.211901	-0.502708
56256		8.714333	-5.515727	-1.000328	-0.539417	0.001636	-0.485663	-0.383545	0.597900	0.320801	0.456459	-0.700686	-0.212447	-0.505520
56257		8.837381	-5.383904	-0.886432	-0.449132	-0.025527	-0.462845	-0.394531	0.590088	0.341064	0.451843	-0.701698	-0.213376	-0.507867
56258		8.792125	-5.069674	-0.957760	-0.307331	-0.070178	-0.451212	-0.400879	0.590820	0.343018	0.447932	-0.702406	-0.214912	-0.509701
56259		8.724618	-4.630542	-0.822122	-0.177826	-0.118476	-0.441992	-0.405029	0.578125	0.341309	0.444764	-0.702820	-0.217159	-0.510951
56260		8.651533	-4.175584	-1.033125	-0.158166	-0.158977	-0.416934	-0.400146	0.580811	0.350586	0.441773	-0.703345	-0.219538	-0.511805
56261		8.710860	-3.830888	-1.187810	-0.211455	-0.146997	-0.390536	-0.417725	0.569824	0.347412	0.438608	-0.704065	-0.221473	-0.512704
56262		8.748204	-3.827853	-1.088537	-0.184143	-0.163554	-0.395657	-0.418945	0.564453	0.345947	0.435557	-0.704713	-0.223643	-0.513472
56263		8.686729	-4.076378	-1.091323	-0.125211	-0.202520	-0.408939	-0.418457	0.575439	0.360840	0.432726	-0.705279	-0.226284	-0.513931
56264		8.685073	-4.217210	-1.151840	-0.018212	-0.240938	-0.404579	-0.424805	0.560303	0.359863	0.430464	-0.705628	-0.229488	-0.513932
56265		8.803461	-3.911645	-1.136152	0.074014	-0.280366	-0.394744	-0.423096	0.554932	0.353760	0.428702	-0.705819	-0.233165	-0.513486
56266		9.022598	-3.500330	-1.198888	0.137893	-0.300671	-0.377636	-0.422607	0.559814	0.362305	0.427346	-0.705889	-0.237086	-0.512724
56267		9.255113	-3.155810	-1.076299	0.123533	-0.291316	-0.351997	-0.423096	0.551270	0.361084	0.426027	-0.706011	-0.240759	-0.511943
56268		9.430862	-3.030407	-1.026864	0.062159	-0.248818	-0.321108	-0.428711	0.553467	0.360840	0.424556	-0.706221	-0.243832	-0.511420
56269		9.505047	-2.989748	-1.124970	-0.032423	-0.185386	-0.295090	-0.435059	0.551270	0.363037	0.422764	-0.706539	-0.246123	-0.511367
56270		9.502812	-3.014540	-1.169669	-0.121702	-0.098524	-0.270900	-0.428955	0.543457	0.369873	0.420724	-0.706846	-0.247583	-0.511921
56271		9.571387	-3.136978	-1.143048	-0.133977	-0.059167	-0.262461	-0.434082	0.541260	0.363281	0.418725	-0.707042	-0.248803	-0.512696
56272		9.425221	-3.377926	-0.941775	-0.141305	-0.031548	-0.245399	-0.439209	0.536865	0.371094	0.416813	-0.707175	-0.249793	-0.513588
56273		9.359570	-3.539440	-1.142379	-0.122052	-0.024332	-0.235193	-0.444580	0.535156	0.370605	0.415069	-0.707229	-0.250778	-0.514446
56274		9.245899	-3.505896	-1.131474	-0.086836	-0.023412	-0.226948	-0.438965	0.531982	0.378418	0.413569	-0.707171	-0.251860	-0.515205
56275		9.204121	-3.381378	-1.210965	-0.034095	-0.023093	-0.220383	-0.441650	0.537354	0.376709	0.412408	-0.706941	-0.253129	-0.515829
56276		9.260355	-3.303799	-1.208384	-0.011586	-0.010816	-0.198168	-0.447998	0.534668	0.382568	0.411501	-0.706626	-0.254320	-0.516400
56277		9.331365	-3.332152	-1.103164	-0.023440	-0.024266	-0.171342	-0.438721	0.520508	0.378906	0.410608	-0.706464	-0.255346	-0.516825
56278		9.263986	-3.312529	-1.107596	-0.044526	-0.012476	-0.148496	-0.448486	0.533447	0.379639	0.409714	-0.706371	-0.256105	-0.517285
56279		9.212120	-3.357417	-1.060242	-0.043419	0.012874	-0.128460	-0.446777	0.533203	0.383545	0.408969	-0.706206	-0.256664	-0.517823
56280		9.235541	-3.304125	-1.121210	-0.036532	0.030248	-0.098618	-0.449707	0.525391	0.376221	0.408429	-0.706006	-0.257017	-0.518347
56281		9.214318	-3.309497	-1.130283	-0.017511	0.059876	-0.071874	-0.456299	0.526855	0.368164	0.408179	-0.705670	-0.257192	-0.518914
56282		9.071557	-3.437173	-1.144944	0.013273	0.059147	-0.041085	-0.458740	0.524414	0.377441	0.408242	-0.705298	-0.257320	-0.519307
56283		9.059147	-3.631019	-1.146467	0.042106	0.051539	0.002974	-0.459717	0.529541	0.375488	0.408648	-0.704956	-0.257339	-0.519443
56284		9.037405	-3.722178	-1.116676	0.049843	0.064130	0.055349	-0.445801	0.527588	0.380615	0.409355	-0.704645	-0.257040	-0.519456
56285		9.011435	-3.500608	-1.237515	0.071306	0.046659	0.101973	-0.444336	0.522705	0.378174	0.410352	-0.704437	-0.256620	-0.519159
56286		9.076316	-3.274949	-1.306873	0.083769	0.049161	0.135784	-0.449463	0.526611	0.367676	0.411573	-0.704246	-0.256044	-0.518736
56287		9.103528	-3.268399	-1.250085	0.102094	0.051145	0.160453	-0.450195	0.531006	0.377686	0.413012	-0.704033	-0.255394	-0.518201
56288		9.047945	-3.461843	-1.187006	0.095868	0.047116	0.187279	-0.447510	0.533936	0.380127	0.414520	-0.703916	-0.254573	-0.517560
56289		8.922741	-3.589635	-1.207557	0.092609	0.053137	0.214969	-0.448486	0.534912	0.372314	0.416140	-0.703841	-0.253553	-0.516863
56290		8.825023	-3.583019	-1.271654	0.108578	0.027273	0.249534	-0.451660	0.541992	0.367920	0.417946	-0.703890	-0.252486	-0.515859
56291		8.893373	-3.473832	-1.330707	0.158662	-0.000643	0.278322	-0.434326	0.540283	0.377930	0.420109	-0.703941	-0.251561	-0.514483
56292		9.041354	-3.311595	-1.232333	0.180470	-0.008629	0.310415	-0.435303	0.537354	0.369385	0.422517	-0.704014	-0.250569	-0.512894
56293		9.167900	-3.271616	-1.180847	0.166899	0.027356	0.342781	-0.435791	0.545166	0.366455	0.425054	-0.704039	-0.249197	-0.511428
56294		9.102300	-3.537468	-1.141064	0.117659	0.049020	0.371782	-0.443604	0.555908	0.358887	0.427466	-0.704200	-0.247366	-0.510083
56295		9.005049	-3.852785	-1.068138	0.072973	0.051273	0.420568	-0.419678	0.555908	0.366699	0.429824	-0.704601	-0.245048	-0.508665
56296		9.135698	-3.864429	-1.012177	0.090128	0.043568	0.469560	-0.415039	0.565918	0.357178	0.432470	-0.705066	-0.242541	-0.506977
56297		9.105183	-3.758232	-0.956721	0.131482	0.056369	0.518287	-0.421875	0.568848	0.355469	0.435585	-0.705411	-0.239872	-0.505097
56298		8.985220	-3.745349	-0.874316	0.137973	0.076518	0.566937	-0.410889	0.570801	0.354004	0.438968	-0.705729	-0.236860	-0.503142
56299		8.942948	-3.911730	-1.016425	0.116752	0.110058	0.610305	-0.401367	0.571289	0.352051	0.442464	-0.706052	-0.233376	-0.501251
56300		8.938766	-4.085928	-1.149563	0.054444	0.070058	0.628270	-0.407471	0.578369	0.350342	0.445577	-0.706788	-0.229667	-0.499164
56301		8.915638	-4.355458	-1.106533	0.039535	0.071394	0.652581	-0.396973	0.589844	0.353271	0.448690	-0.707597	-0.225736	-0.497018
56302		8.814943	-4.561997	-0.895169	0.052461	0.056328	0.669568	-0.383545	0.592041	0.352783	0.451913	-0.708432	-0.221814	-0.494669
56303		8.755915	-4.568331	-0.866696	0.110047	0.034533	0.674273	-0.382812	0.590576	0.343994	0.455442	-0.709128	-0.218177	-0.492045
56304		8.740811	-4.705777	-0.941718	0.160676	0.037531	0.672795	-0.374512	0.600098	0.338379	0.459250	-0.709589	-0.214731	-0.489350
56305		8.741462	-4.701314	-1.054654	0.229147	0.013882	0.669220	-0.360107	0.602539	0.345459	0.463400	-0.709849	-0.211678	-0.486381
56306		8.713654	-4.645548	-0.981064	0.261354	-0.012177	0.644936	-0.363770	0.619873	0.337402	0.467573	-0.710035	-0.208985	-0.483271
56307		8.656843	-4.793288	-0.970593	0.233553	-0.028283	0.621705	-0.347168	0.621582	0.333740	0.471455	-0.710318	-0.206383	-0.480192
56308		8.604653	-4.937417	-0.926605	0.228956	-0.033305	0.600518	-0.341797	0.624023	0.336670	0.475209	-0.710585	-0.203908	-0.477145
56309		8.627258	-4.985940	-0.921554	0.262940	-0.044078	0.578607	-0.335693	0.635986	0.331055	0.479032	-0.710708	-0.201722	-0.474057
56310		8.672747	-4.988227	-0.851344	0.290375	-0.050092	0.547871	-0.328369	0.630859	0.328613	0.482888	-0.710667	-0.199861	-0.470985
56311		8.687465	-4.929082	-0.890685	0.307524	-0.062332	0.516151	-0.324951	0.640137	0.317383	0.486671	-0.710539	-0.198280	-0.467942
56312		8.896820	-5.087024	-0.885242	0.304891	-0.040066	0.477684	-0.309570	0.654785	0.317871	0.490333	-0.710239	-0.196846	-0.465172
56313		8.754300	-5.066281	-0.763534	0.331637	-0.024998	0.447105	-0.307373	0.644531	0.310791	0.494078	-0.709709	-0.195659	-0.462512
56314		9.109644	-5.287823	-0.802689	0.390889	0.002855	0.411178	-0.302002	0.654297	0.312500	0.498040	-0.708756	-0.194763	-0.460097
56315		9.075879	-5.313792	-0.942337	0.438000	0.069388	0.365733	-0.300781	0.661133	0.314453	0.502203	-0.707267	-0.194036	-0.458165
56316		8.556645	-4.977154	-0.832130	0.489974	0.090664	0.298415	-0.301025	0.655273	0.298096	0.506422	-0.705364	-0.193793	-0.456555
56317		7.825310	-4.349224	-0.416260	0.462830	0.037962	0.268329	-0.296631	0.658936	0.305176	0.510264	-0.703698	-0.193840	-0.454825
56318		8.215855	-4.354853	-0.411637	0.418363	-0.008066	0.222747	-0.292480	0.672119	0.280518	0.513558	-0.702334	-0.194137	-0.453095
56319		8.479492	-4.248175	-0.417128	0.361446	0.000594	0.166518	-0.295166	0.663330	0.281982	0.516404	-0.701030	-0.194622	-0.451670
56320		8.504187	-4.115279	-0.388340	0.232482	0.020999	0.111335	-0.288574	0.673828	0.277588	0.518255	-0.700129	-0.194788	-0.450877
56321		8.468623	-4.204514	-0.486000	0.109342	0.029440	0.052652	-0.286377	0.685059	0.274414	0.519225	-0.699620	-0.194845	-0.450524
56322		8.584574	-4.517162	-0.532773	0.030024	0.034195	0.007627	-0.290039	0.686035	0.273682	0.519615	-0.699350	-0.194899	-0.450471
56323		8.681644	-4.785710	-0.680677	0.020069	0.072770	-0.031311	-0.288818	0.671387	0.274170	0.519858	-0.698909	-0.194977	-0.450842
56324		8.490102	-4.802896	-0.663985	0.028828	0.068869	-0.052499	-0.296631	0.676514	0.274658	0.520009	-0.698433	-0.195160	-0.451325
56325		8.287539	-4.759048	-0.565604	0.019601	0.053544	-0.076478	-0.291260	0.672119	0.276611	0.519986	-0.698007	-0.195520	-0.451856
56326		8.358785	-4.867272	-0.502042	-0.024878	0.034564	-0.098028	-0.290527	0.675049	0.277344	0.519586	-0.697826	-0.195900	-0.452430
56327		8.574682	-5.127358	-0.706271	-0.012036	0.041765	-0.115170	-0.293701	0.675781	0.276123	0.519227	-0.697532	-0.196418	-0.453071
56328		8.183668	-4.967492	-0.719514	-0.006985	0.043613	-0.131613	-0.300049	0.669922	0.271729	0.518842	-0.697174	-0.197053	-0.453786
56329		8.098801	-4.929661	-0.546226	0.025874	0.001968	-0.149504	-0.296387	0.670166	0.273926	0.518485	-0.696794	-0.198080	-0.454331
56330		8.387195	-5.069965	-0.585522	0.041528	-0.012052	-0.159874	-0.305420	0.667725	0.270264	0.518170	-0.696391	-0.199290	-0.454779
56331		8.342457	-4.879357	-0.529934	0.026530	0.001655	-0.165779	-0.310303	0.670166	0.269531	0.517742	-0.695976	-0.200410	-0.455409
56332		8.316417	-4.781688	-0.551961	-0.028822	0.011705	-0.155548	-0.304932	0.667725	0.266357	0.517054	-0.695768	-0.201234	-0.456143
56333		8.448243	-4.919589	-0.494734	-0.084569	0.032865	-0.145289	-0.302002	0.665039	0.271484	0.516158	-0.695731	-0.201733	-0.456994
56334		8.412328	-5.091042	-0.426049	-0.129926	0.063080	-0.135791	-0.308350	0.662842	0.278076	0.515071	-0.695812	-0.201840	-0.458048
56335		8.322260	-5.184738	-0.530635	-0.142009	0.060152	-0.118495	-0.310547	0.661865	0.280273	0.513916	-0.696004	-0.201746	-0.459094
56336		8.317464	-5.324513	-0.591839	-0.138025	0.054530	-0.101185	-0.315186	0.671875	0.279297	0.512833	-0.696231	-0.201582	-0.460033
56337		8.341723	-5.341910	-0.518342	-0.109241	0.040434	-0.083813	-0.308838	0.665771	0.281738	0.512027	-0.696381	-0.201581	-0.460704
56338		8.497692	-5.470872	-0.685276	-0.084524	0.043310	-0.080190	-0.310303	0.660889	0.279785	0.511376	-0.696444	-0.201610	-0.461318
56339		8.363870	-5.390311	-0.543589	-0.048347	0.036803	-0.058662	-0.312744	0.667725	0.279785	0.510994	-0.696410	-0.201671	-0.461765
56340		8.293593	-5.351932	-0.629870	0.000119	0.021302	-0.041882	-0.311768	0.650146	0.286621	0.510975	-0.696238	-0.201944	-0.461926
56341		8.159061	-5.212116	-0.403194	0.018161	0.016973	-0.021204	-0.316162	0.654785	0.281250	0.510968	-0.696117	-0.201974	-0.462103
56342		8.349254	-5.146012	-0.408893	0.025135	0.004075	-0.015180	-0.319336	0.656250	0.286865	0.511053	-0.695984	-0.202132	-0.462139
56343		8.390448	-5.030329	-0.459006	0.022014	0.001316	0.001012	-0.308838	0.663574	0.283203	0.511129	-0.695926	-0.202135	-0.462142
56344		8.325290	-4.877969	-0.307662	-0.012279	-0.022764	0.022275	-0.312500	0.665283	0.281738	0.511178	-0.696121	-0.202108	-0.461806
56345		8.409204	-4.850450	-0.319414	-0.059078	-0.007789	0.062777	-0.315918	0.664551	0.285889	0.511139	-0.696507	-0.201625	-0.461478
56346		8.544663	-4.857510	-0.370692	-0.130730	0.079992	0.102226	-0.312012	0.663086	0.287842	0.510925	-0.696942	-0.200203	-0.461677
56347		8.617740	-5.011373	-0.420519	-0.186606	0.151375	0.140319	-0.313721	0.661377	0.285400	0.510649	-0.697414	-0.198024	-0.462210
56348		8.490073	-5.235136	-0.527697	-0.213538	0.222579	0.173329	-0.310547	0.665527	0.283203	0.510463	-0.697754	-0.195273	-0.463072
56349		8.297328	-5.344579	-0.508921	-0.205102	0.216794	0.199542	-0.299072	0.661377	0.284424	0.510486	-0.698092	-0.192509	-0.463693
56350		8.195125	-5.384249	-0.488483	-0.201598	0.192796	0.220735	-0.309570	0.662842	0.286621	0.510597	-0.698561	-0.189729	-0.464011
56351		8.299289	-5.505409	-0.486325	-0.198144	0.188444	0.233556	-0.299805	0.668701	0.290039	0.510693	-0.699032	-0.186864	-0.464358
56352		8.116354	-5.528484	-0.459891	-0.175471	0.184479	0.241220	-0.303467	0.657471	0.288818	0.511016	-0.699440	-0.184106	-0.464490
56353		8.075096	-5.623902	-0.484874	-0.169887	0.168466	0.243873	-0.293701	0.667725	0.291748	0.511239	-0.699893	-0.181318	-0.464659
56354		8.082191	-5.717292	-0.470007	-0.131931	0.118305	0.249332	-0.295166	0.670410	0.292480	0.511744	-0.700380	-0.178958	-0.464285
56355		8.015877	-5.936044	-0.477477	-0.086602	0.096790	0.254563	-0.289795	0.671631	0.290283	0.512492	-0.700749	-0.176843	-0.463713
56356		8.023199	-6.141017	-0.459659	-0.017020	0.090813	0.256585	-0.292725	0.672607	0.294678	0.513693	-0.700831	-0.175063	-0.462936
56357		7.892942	-6.038735	-0.415442	0.048215	0.051263	0.284566	-0.290283	0.669922	0.292969	0.515238	-0.700843	-0.173451	-0.461804
56358		7.917140	-6.009799	-0.368054	0.086338	0.018974	0.303560	-0.286377	0.669922	0.286377	0.516991	-0.700846	-0.171971	-0.460393
56359		7.900981	-6.005222	-0.454561	0.127160	-0.004015	0.319666	-0.277588	0.676025	0.290283	0.519043	-0.700751	-0.170705	-0.458696
56360		7.868481	-5.969588	-0.335037	0.150395	-0.019071	0.334028	-0.275146	0.682373	0.289795	0.521288	-0.700657	-0.169507	-0.456734
56361		7.986561	-5.952057	-0.337974	0.157064	-0.010267	0.350508	-0.263916	0.683594	0.288330	0.523660	-0.700509	-0.168222	-0.454718
56362		8.136099	-6.042010	-0.424987	0.164613	-0.001569	0.371288	-0.261719	0.685303	0.276611	0.526205	-0.700332	-0.166830	-0.452561
56363		7.909197	-5.979477	-0.370930	0.183471	0.025783	0.396468	-0.252686	0.692871	0.280518	0.529050	-0.699933	-0.165354	-0.450397
56364		7.716881	-6.019844	-0.363258	0.196524	0.029596	0.406335	-0.250488	0.688232	0.286621	0.532048	-0.699494	-0.163872	-0.448085
56365		7.724494	-6.209311	-0.274850	0.210916	0.020532	0.402881	-0.238037	0.691406	0.274902	0.534926	-0.699079	-0.162285	-0.445877
56366		7.780693	-6.216831	-0.215560	0.216955	-0.018656	0.407273	-0.240234	0.698730	0.277344	0.537947	-0.698732	-0.161044	-0.443229
56367		7.727034	-6.165753	-0.342340	0.236067	-0.041303	0.416143	-0.240234	0.696045	0.266113	0.541020	-0.698386	-0.159882	-0.440445
56368		7.673216	-6.161216	-0.329626	0.255974	-0.048501	0.410827	-0.239258	0.697998	0.256348	0.544116	-0.697922	-0.158820	-0.437743
56369		7.779546	-6.449711	-0.302348	0.267114	-0.032633	0.414078	-0.226318	0.701904	0.261475	0.547292	-0.697304	-0.157727	-0.435156
56370		7.600148	-6.498073	-0.261375	0.302558	-0.019039	0.437074	-0.220215	0.706055	0.260742	0.550803	-0.696542	-0.156567	-0.432357
56371		7.629641	-6.529650	-0.239852	0.336713	-0.041667	0.454480	-0.216064	0.716553	0.256104	0.554533	-0.695724	-0.155524	-0.429270
56372		7.631052	-6.662325	-0.238638	0.391141	-0.063054	0.474883	-0.205566	0.718262	0.247559	0.558688	-0.694706	-0.154770	-0.425790
56373		7.540279	-6.589803	0.023069	0.417623	-0.070073	0.500015	-0.197998	0.724121	0.241943	0.563116	-0.693587	-0.154057	-0.422024
56374		7.549250	-6.497822	-0.178136	0.444099	-0.071154	0.497430	-0.193359	0.715576	0.227295	0.567716	-0.692307	-0.153522	-0.418140
56375		7.302952	-6.430160	-0.070361	0.455022	-0.052002	0.482792	-0.186035	0.722412	0.229492	0.572198	-0.690869	-0.152843	-0.414641
56376		7.398401	-6.383004	-0.005472	0.432311	-0.054246	0.472484	-0.189697	0.727051	0.220703	0.576508	-0.689540	-0.152165	-0.411120
56377		7.384747	-6.294240	0.124185	0.402492	-0.062310	0.479480	-0.171631	0.732422	0.225586	0.580548	-0.688347	-0.151299	-0.407740
56378		7.552204	-6.412519	0.054637	0.364524	-0.026195	0.477441	-0.156250	0.744629	0.221680	0.584523	-0.687232	-0.150263	-0.404310
56379		7.568133	-6.568198	0.081198	0.343340	0.015819	0.465285	-0.157715	0.738770	0.214600	0.588603	-0.686003	-0.149319	-0.400813
56380		7.251000	-6.672206	0.065210	0.313054	0.031559	0.468901	-0.153809	0.740723	0.207031	0.592307	-0.684888	-0.147901	-0.397778
56381		7.232786	-6.741008	0.172967	0.323075	0.007865	0.473503	-0.143066	0.739746	0.197266	0.595993	-0.683784	-0.146556	-0.394655
56382		7.306977	-6.885438	0.140222	0.344640	0.023456	0.478297	-0.130859	0.753906	0.195068	0.599827	-0.682508	-0.145171	-0.391556
56383		7.151971	-6.984272	0.177201	0.357996	0.047770	0.488951	-0.127441	0.748779	0.191406	0.603931	-0.681049	-0.143862	-0.388256
56384		6.964623	-6.963333	0.248820	0.377253	0.019898	0.484405	-0.118164	0.760010	0.186035	0.607873	-0.679615	-0.142497	-0.385107
56385		6.901186	-7.043081	0.125281	0.415634	0.011841	0.454060	-0.114258	0.763916	0.179443	0.611923	-0.677948	-0.141500	-0.381988
56386		6.862195	-7.160626	0.237047	0.417892	-0.003730	0.407852	-0.120361	0.758301	0.174561	0.615703	-0.676269	-0.140714	-0.379170
56387		6.786831	-7.134702	0.264413	0.461428	-0.010816	0.397764	-0.101562	0.759766	0.171143	0.619559	-0.674388	-0.139997	-0.376495
56388		6.720403	-6.997644	0.548482	0.487076	-0.070293	0.409511	-0.097900	0.768311	0.165771	0.623553	-0.672554	-0.139645	-0.373299
56389		6.680740	-6.979585	0.641068	0.487045	-0.097537	0.410315	-0.088623	0.758545	0.153320	0.627495	-0.670783	-0.139428	-0.369945
56390		6.653313	-6.968996	0.577947	0.446773	-0.079260	0.382618	-0.092773	0.773926	0.148438	0.631120	-0.669119	-0.139126	-0.366894
56391		6.823637	-7.044107	0.453362	0.421587	-0.044718	0.357877	-0.084961	0.769531	0.141846	0.634554	-0.667434	-0.138711	-0.364187
56392		6.800625	-7.123932	0.763956	0.380975	-0.043363	0.330024	-0.077881	0.771729	0.143066	0.637665	-0.665916	-0.138312	-0.361676
56393		6.355549	-6.798388	0.684470	0.365817	-0.058365	0.309517	-0.074707	0.780273	0.144043	0.640597	-0.664491	-0.138046	-0.359208
56394		6.414270	-6.634814	0.792070	0.332851	-0.077969	0.296898	-0.067627	0.775391	0.132812	0.643273	-0.663277	-0.137849	-0.356736
56395		6.385900	-6.625837	0.927226	0.242708	-0.040829	0.278786	-0.062500	0.770996	0.138672	0.645439	-0.662404	-0.137298	-0.354654
56396		6.551039	-6.556554	0.967404	0.152327	-0.040708	0.237944	-0.064453	0.773193	0.117676	0.646970	-0.661968	-0.136684	-0.352909
56397		6.633443	-6.946292	0.702769	0.065977	0.035956	0.165610	-0.059082	0.782959	0.119141	0.647916	-0.661677	-0.135847	-0.352043
56398		6.329535	-6.977117	0.554510	0.039696	0.044697	0.097208	-0.051758	0.775879	0.114990	0.648519	-0.661427	-0.135249	-0.351631
56399		6.602890	-7.139013	0.436873	0.075029	0.007346	0.053158	-0.059814	0.778320	0.120605	0.649145	-0.661047	-0.135194	-0.351213
56400		6.123661	-7.047149	0.390820	0.120041	-0.040897	0.030331	-0.059326	0.779053	0.116211	0.649888	-0.660540	-0.135650	-0.350615
56401		6.099408	-6.491086	0.775667	0.184735	-0.099034	0.002271	-0.059570	0.781494	0.116455	0.650841	-0.659819	-0.136769	-0.349770
56402		6.450788	-6.119906	1.143726	0.118307	-0.131912	-0.060184	-0.057373	0.780762	0.118896	0.651205	-0.659482	-0.138212	-0.349160
56403		6.943984	-6.719218	0.629955	-0.042927	-0.028943	-0.137433	-0.067627	0.784912	0.117188	0.650573	-0.659631	-0.139044	-0.349726
56404		6.650104	-6.916540	0.500506	-0.090488	0.012739	-0.188665	-0.064697	0.778320	0.122559	0.649579	-0.659853	-0.139807	-0.350849
56405		6.561501	-6.724594	0.763314	-0.056171	-0.027259	-0.221919	-0.063477	0.776855	0.120850	0.648624	-0.659969	-0.141055	-0.351897
56406		6.719400	-6.738495	0.809832	-0.067073	-0.029162	-0.252326	-0.072998	0.782959	0.119873	0.647519	-0.660109	-0.142454	-0.353103
56407		6.678600	-6.684056	0.710024	-0.123264	-0.007052	-0.284850	-0.079346	0.772705	0.118896	0.646034	-0.660442	-0.143760	-0.354668
56408		6.743427	-6.669631	0.606021	-0.162853	-0.015516	-0.336080	-0.074707	0.777832	0.127441	0.644164	-0.660946	-0.145282	-0.356506
56409		6.823339	-6.769407	0.703953	-0.213211	0.005640	-0.380449	-0.091064	0.773682	0.121582	0.641898	-0.661602	-0.146754	-0.358767
56410		6.829351	-6.834362	0.541051	-0.219002	0.016024	-0.424485	-0.095703	0.773438	0.131836	0.639480	-0.662186	-0.148439	-0.361305
56411		6.773500	-6.687299	0.544848	-0.189621	-0.020093	-0.471102	-0.096680	0.771484	0.135742	0.637015	-0.662660	-0.150627	-0.363875
56412		6.923909	-6.610041	0.601728	-0.190912	-0.031047	-0.522150	-0.104736	0.763916	0.135986	0.634361	-0.663101	-0.153136	-0.366650
56413		7.106469	-6.554946	0.602407	-0.221569	-0.035598	-0.559462	-0.109619	0.768066	0.130615	0.631406	-0.663652	-0.155789	-0.369625
56414		7.402121	-6.704067	0.336116	-0.225921	-0.021572	-0.553282	-0.121338	0.765137	0.140137	0.628474	-0.664162	-0.158361	-0.372600
56415		7.140012	-6.419612	0.557779	-0.234093	-0.013386	-0.529273	-0.134033	0.767090	0.143066	0.625543	-0.664716	-0.160696	-0.375535
56416		7.123262	-6.355636	0.665232	-0.304095	-0.016484	-0.539256	-0.127441	0.765137	0.143066	0.622170	-0.665611	-0.162892	-0.378592
56417		7.474027	-6.429257	0.408157	-0.359165	0.035499	-0.557126	-0.142090	0.752930	0.151123	0.618514	-0.666582	-0.164742	-0.382060
56418		7.423722	-6.506155	0.345025	-0.397219	0.061956	-0.589918	-0.155518	0.751221	0.153564	0.614529	-0.667605	-0.166490	-0.385925
56419		7.231706	-6.362580	0.427572	-0.412486	0.061384	-0.616315	-0.157227	0.748535	0.166504	0.610355	-0.668641	-0.168360	-0.389924
56420		7.224513	-6.258433	0.514747	-0.435191	0.030099	-0.653180	-0.170898	0.751953	0.169189	0.605841	-0.669834	-0.170441	-0.393990
56421		7.815511	-6.626716	0.146470	-0.445872	0.031841	-0.673912	-0.171631	0.744873	0.185547	0.601188	-0.671006	-0.172627	-0.398151
56422		7.503441	-6.581411	0.205247	-0.440601	0.081542	-0.674868	-0.191406	0.737549	0.191162	0.596560	-0.671987	-0.174465	-0.402632
56423		7.487574	-6.590422	0.064384	-0.400264	0.080782	-0.649034	-0.195557	0.732666	0.197021	0.592200	-0.672775	-0.176311	-0.406925
56424		7.460569	-6.168904	0.305642	-0.364476	0.033152	-0.611879	-0.202393	0.736328	0.189941	0.588071	-0.673584	-0.178278	-0.410700
56425		7.830242	-6.245354	0.244110	-0.370881	0.020949	-0.609537	-0.213867	0.735352	0.193115	0.583947	-0.674409	-0.180387	-0.414293
56426		7.672757	-6.320657	0.233015	-0.407231	0.055842	-0.618698	-0.228027	0.719238	0.207031	0.579625	-0.675245	-0.182271	-0.418159
56427		7.815880	-6.494239	0.054977	-0.383751	0.042425	-0.645118	-0.228516	0.714355	0.206299	0.575222	-0.675977	-0.184349	-0.422125
56428		7.551417	-6.186839	0.171789	-0.351038	0.053936	-0.665495	-0.235596	0.716553	0.215820	0.570970	-0.676442	-0.186635	-0.426129
56429		7.685903	-5.885814	0.298196	-0.343593	0.003725	-0.693432	-0.257568	0.716064	0.223633	0.566527	-0.677001	-0.189266	-0.429995
56430		8.192563	-6.062065	0.111709	-0.383766	-0.001695	-0.706633	-0.256348	0.702148	0.226807	0.561739	-0.677718	-0.191847	-0.433984
56431		8.129778	-6.100523	-0.050360	-0.383282	0.024785	-0.687111	-0.266846	0.697998	0.230957	0.557054	-0.678346	-0.194171	-0.437990
56432		7.737866	-5.741800	-0.092590	-0.311650	-0.009022	-0.673562	-0.272217	0.692627	0.240723	0.552748	-0.678755	-0.196846	-0.441604
56433		7.768472	-5.452704	0.179620	-0.293783	-0.066639	-0.673943	-0.286133	0.683838	0.236572	0.548375	-0.679299	-0.199752	-0.444901
56434		8.014795	-5.177089	0.274322	-0.339537	-0.117701	-0.666136	-0.291748	0.682129	0.241699	0.543737	-0.680177	-0.202828	-0.447850
56435		8.086313	-5.030052	0.093849	-0.420958	-0.116736	-0.685417	-0.292969	0.676025	0.251221	0.538540	-0.681366	-0.205676	-0.451014
56436		8.246460	-4.983581	-0.052377	-0.505138	-0.124776	-0.707014	-0.309082	0.676758	0.249756	0.532710	-0.682922	-0.208267	-0.454381
56437		8.382996	-5.046027	-0.290837	-0.573124	-0.097003	-0.718497	-0.315918	0.663330	0.260498	0.526546	-0.684559	-0.210691	-0.457971
56438		8.547786	-5.145547	-0.405950	-0.600349	-0.070352	-0.702392	-0.327148	0.660645	0.273926	0.520262	-0.686224	-0.212729	-0.461704
56439		8.589454	-5.241465	-0.479318	-0.600232	-0.050184	-0.673635	-0.332275	0.654785	0.287354	0.514038	-0.687850	-0.214421	-0.465458
56440		8.628176	-5.302656	-0.615685	-0.573368	-0.072538	-0.648893	-0.334961	0.643555	0.287354	0.507953	-0.689487	-0.216074	-0.468939
56441		8.704014	-5.387058	-0.640468	-0.526978	-0.057270	-0.627374	-0.350342	0.646729	0.300781	0.502308	-0.690833	-0.217824	-0.472218
56442		8.809548	-5.407426	-0.712820	-0.467921	-0.038089	-0.612693	-0.352295	0.633301	0.301758	0.497034	-0.691867	-0.219584	-0.475457
56443		8.986836	-5.224449	-0.708909	-0.386429	-0.015526	-0.612085	-0.363037	0.620117	0.300293	0.492320	-0.692424	-0.221638	-0.478589
56444		9.144414	-4.987717	-0.568868	-0.287688	0.028276	-0.613195	-0.365234	0.612305	0.307373	0.488284	-0.692344	-0.223983	-0.481736
56445		8.995894	-4.658855	-0.546883	-0.290797	0.079699	-0.587908	-0.372803	0.617920	0.310303	0.484402	-0.692114	-0.225911	-0.485074
56446		8.729141	-4.336879	-0.653237	-0.283924	0.055008	-0.576802	-0.383301	0.610596	0.312012	0.480558	-0.691953	-0.227905	-0.488185
56447		8.628902	-4.240255	-0.794083	-0.230944	0.045355	-0.578464	-0.389648	0.600098	0.316162	0.476987	-0.691592	-0.230165	-0.491130
56448		8.809195	-4.043147	-0.813488	-0.216941	0.008013	-0.595837	-0.392334	0.593262	0.322266	0.473337	-0.691279	-0.232720	-0.493890
56449		9.114310	-3.743927	-0.765163	-0.202644	0.039989	-0.580367	-0.393555	0.593506	0.324463	0.469885	-0.690791	-0.235113	-0.496728
56450		9.176488	-3.511695	-0.670925	-0.171017	0.024112	-0.570118	-0.407715	0.580322	0.322510	0.466621	-0.690245	-0.237639	-0.499355
56451		9.041126	-3.639627	-0.692692	-0.180779	0.028419	-0.552135	-0.412842	0.578613	0.326416	0.463370	-0.689736	-0.240000	-0.501949
56452		9.180696	-3.753761	-0.646419	-0.196062	0.035655	-0.541131	-0.416504	0.584229	0.323242	0.460083	-0.689263	-0.242201	-0.504559
56453		9.372737	-3.568273	-0.643015	-0.153427	0.021736	-0.535810	-0.420410	0.569092	0.331787	0.457030	-0.688678	-0.244603	-0.506968
56454		9.555063	-3.322504	-0.653323	-0.119026	0.028877	-0.515837	-0.435303	0.558350	0.328125	0.454257	-0.687962	-0.246998	-0.509266
56455		9.727571	-3.224079	-0.479756	-0.155675	0.080282	-0.488941	-0.434570	0.562744	0.332764	0.451485	-0.687207	-0.248885	-0.511824
56456		9.583437	-3.191960	-0.433571	-0.212800	0.121082	-0.457388	-0.437256	0.550537	0.330811	0.448601	-0.686545	-0.250192	-0.514603
56457		9.522151	-3.315991	-0.606974	-0.273451	0.157502	-0.427430	-0.447266	0.550049	0.335938	0.445565	-0.686003	-0.250926	-0.517598
56458		9.534035	-3.313889	-0.565661	-0.295414	0.189316	-0.393620	-0.453613	0.543213	0.343994	0.442607	-0.685464	-0.251250	-0.520685
56459		9.380367	-3.486576	-0.644126	-0.300461	0.212210	-0.368495	-0.457520	0.536621	0.341309	0.439768	-0.684883	-0.251318	-0.523811
56460		9.179256	-3.745203	-0.632590	-0.311111	0.219585	-0.347559	-0.468994	0.528809	0.352783	0.436969	-0.684340	-0.251189	-0.526916
56461		8.971138	-3.885650	-0.638335	-0.255148	0.182865	-0.312688	-0.464355	0.532715	0.347900	0.434559	-0.683818	-0.251236	-0.529559
56462		8.939073	-3.921619	-0.657796	-0.209936	0.151587	-0.292911	-0.465576	0.526611	0.352051	0.432424	-0.683303	-0.251480	-0.531850
56463		8.947727	-3.879622	-0.617112	-0.136820	0.131913	-0.264804	-0.471191	0.518555	0.349365	0.430785	-0.682666	-0.251955	-0.533771
56464		8.976827	-3.887624	-0.597022	-0.095823	0.119140	-0.232201	-0.473877	0.528564	0.346924	0.429495	-0.682002	-0.252470	-0.535412
56465		8.978340	-3.786479	-0.503130	-0.059353	0.100337	-0.202453	-0.480225	0.516113	0.349609	0.428505	-0.681352	-0.253044	-0.536760
56466		8.847027	-3.756216	-0.698956	-0.047972	0.074376	-0.165507	-0.472168	0.518555	0.343994	0.427688	-0.680854	-0.253549	-0.537804
56467		8.952385	-3.668341	-0.568002	-0.024421	0.069350	-0.109301	-0.486572	0.531006	0.354736	0.427247	-0.680412	-0.253858	-0.538568
56468		8.882891	-3.551956	-0.567511	-0.027692	0.056573	-0.051506	-0.472412	0.520264	0.354248	0.427020	-0.680162	-0.253869	-0.539059
56469		8.978291	-3.384958	-0.518037	0.005298	0.027790	0.002576	-0.482910	0.522705	0.349365	0.427161	-0.680038	-0.253822	-0.539125
56470		9.004243	-3.390567	-0.589886	0.009195	-0.003871	0.042041	-0.477539	0.514893	0.348389	0.427435	-0.680126	-0.253682	-0.538863
56471		9.035562	-3.459777	-0.685217	0.015578	-0.002292	0.078430	-0.475342	0.521484	0.354980	0.427912	-0.680261	-0.253357	-0.538467
56472		9.083284	-3.503863	-0.616602	0.039113	0.005223	0.117968	-0.473633	0.527344	0.350098	0.428716	-0.680362	-0.252887	-0.537921
56473		9.106478	-3.431050	-0.528169	0.061707	-0.019996	0.159440	-0.473877	0.524902	0.348389	0.429780	-0.680581	-0.252372	-0.537035
56474		9.148734	-3.422444	-0.457654	0.090945	-0.032530	0.196773	-0.477051	0.526367	0.343506	0.431150	-0.680829	-0.251819	-0.535882
56475		9.155958	-3.350945	-0.466227	0.085963	-0.037098	0.239865	-0.471680	0.527588	0.344727	0.432672	-0.681202	-0.251015	-0.534556
56476		9.070910	-3.379716	-0.702369	0.058397	-0.036815	0.275317	-0.467041	0.523926	0.343750	0.434194	-0.681745	-0.249883	-0.533159
56477		9.168990	-3.430715	-0.592384	0.062020	-0.029090	0.315339	-0.460693	0.528076	0.346680	0.435927	-0.682319	-0.248510	-0.531649
56478		9.083209	-3.529320	-0.543563	0.073735	-0.045409	0.345086	-0.455566	0.534180	0.335449	0.437822	-0.682979	-0.247077	-0.529909
56479		8.988800	-3.723719	-0.487249	0.079059	-0.049947	0.376613	-0.453369	0.542236	0.351562	0.439875	-0.683697	-0.245503	-0.528011
56480		8.882183	-3.786985	-0.653095	0.102190	-0.073616	0.400544	-0.454346	0.552734	0.344971	0.442109	-0.684478	-0.243977	-0.525838
56481		8.958036	-3.931150	-0.651318	0.154312	-0.106006	0.421247	-0.439697	0.548096	0.339844	0.444661	-0.685239	-0.242677	-0.523290
56482		9.035792	-4.113287	-0.493646	0.245553	-0.120512	0.452067	-0.440186	0.552246	0.335205	0.447832	-0.685777	-0.241648	-0.520350
56483		9.116320	-4.124895	-0.453352	0.285191	-0.137643	0.461305	-0.432617	0.561035	0.340088	0.451224	-0.686244	-0.240794	-0.517189
56484		9.229291	-3.862238	-0.544015	0.290284	-0.120093	0.477916	-0.431641	0.568848	0.346436	0.454742	-0.686636	-0.239796	-0.514041
56485		9.168834	-3.686500	-0.546367	0.279408	-0.115404	0.471883	-0.427246	0.573730	0.332520	0.458167	-0.687023	-0.238759	-0.510956
56486		9.267069	-3.691274	-0.543970	0.260131	-0.111713	0.475510	-0.413818	0.571533	0.335449	0.461501	-0.687456	-0.237605	-0.507903
56487		9.235616	-3.663211	-0.426551	0.230809	-0.070726	0.475558	-0.407715	0.575439	0.327393	0.464734	-0.687817	-0.236161	-0.505132
56488		9.252570	-3.642683	-0.441891	0.182317	-0.030247	0.473269	-0.407959	0.587402	0.335693	0.467754	-0.688174	-0.234368	-0.502686
56489		9.169659	-3.757163	-0.514848	0.173360	-0.019126	0.470719	-0.399658	0.584717	0.320312	0.470721	-0.688506	-0.232501	-0.500325
56490		8.980115	-3.860673	-0.416594	0.184972	-0.038532	0.466605	-0.401123	0.592529	0.322021	0.473698	-0.688846	-0.230785	-0.497835
56491		8.993461	-3.881411	-0.564952	0.195890	-0.060881	0.438767	-0.391357	0.600586	0.323242	0.476567	-0.689172	-0.229355	-0.495300
56492		9.161650	-3.771780	-0.707247	0.205811	-0.039860	0.408224	-0.384277	0.600830	0.319336	0.479402	-0.689304	-0.228058	-0.492974
56493		9.196082	-3.583655	-0.426288	0.179922	-0.004503	0.394911	-0.383057	0.600830	0.320312	0.482094	-0.689358	-0.226587	-0.490947
56494		8.991991	-3.652883	-0.304550	0.139315	0.008277	0.378819	-0.386475	0.605469	0.313965	0.484496	-0.689488	-0.224979	-0.489137
56495		8.975580	-3.981686	-0.325472	0.099723	0.027791	0.369301	-0.379639	0.618896	0.307373	0.486664	-0.689666	-0.223189	-0.487551
56496		8.847940	-4.143779	-0.421736	0.075469	0.013181	0.377581	-0.372559	0.616699	0.312988	0.488718	-0.690001	-0.221334	-0.485865
56497		9.027293	-4.323875	-0.427119	0.082976	-0.000725	0.387174	-0.363525	0.618408	0.309814	0.490808	-0.690382	-0.219491	-0.484050
56498		8.970921	-4.537576	-0.404165	0.087311	0.029416	0.392479	-0.360596	0.622803	0.318604	0.493001	-0.690624	-0.217517	-0.482364
56499		8.825712	-4.621412	-0.481929	0.023120	0.026882	0.421657	-0.357666	0.631104	0.312500	0.494913	-0.691196	-0.215105	-0.480666
56500		8.643333	-4.843135	-0.348347	0.046353	0.025141	0.431242	-0.352539	0.635498	0.310059	0.497007	-0.691676	-0.212756	-0.478856
56501		8.618681	-5.079941	-0.407665	0.083958	0.000976	0.412733	-0.354248	0.631104	0.307373	0.499202	-0.692051	-0.210771	-0.476904
56502		8.941220	-5.228895	-0.693030	0.125433	-0.001244	0.391094	-0.343750	0.636963	0.306641	0.501520	-0.692218	-0.209062	-0.474978
56503		8.479921	-5.047473	-0.687986	0.153344	-0.005385	0.385621	-0.334961	0.643799	0.306396	0.503979	-0.692267	-0.207523	-0.472975
56504		8.141186	-5.000389	-0.337774	0.222301	-0.043073	0.358287	-0.332031	0.648438	0.299561	0.506669	-0.692120	-0.206581	-0.470724
56505		8.261497	-5.237052	-0.311250	0.288753	-0.076730	0.309718	-0.335693	0.649170	0.300537	0.509500	-0.691721	-0.206338	-0.468355
56506		8.541229	-5.295136	-0.497729	0.312233	-0.096362	0.273590	-0.325684	0.645020	0.300537	0.512254	-0.691236	-0.206442	-0.466015
56507		8.356407	-4.866626	-0.485812	0.308525	-0.105506	0.264822	-0.329346	0.648193	0.289062	0.514914	-0.690792	-0.206593	-0.463669
56508		8.176743	-4.530013	-0.401045	0.288861	-0.137459	0.225163	-0.312012	0.655029	0.290771	0.517261	-0.690460	-0.207058	-0.461339
56509		8.170169	-4.535398	-0.411912	0.251767	-0.122595	0.180888	-0.319580	0.663330	0.287354	0.519272	-0.690155	-0.207590	-0.459292
56510		8.437029	-4.781018	-0.255667	0.213089	-0.111503	0.147671	-0.314941	0.650146	0.283936	0.520950	-0.689900	-0.208127	-0.457528
56511		8.609865	-5.076338	-0.354638	0.185226	-0.122713	0.120944	-0.316162	0.665771	0.286133	0.522305	-0.689774	-0.208711	-0.455905
56512		8.433945	-4.994303	-0.548983	0.154423	-0.115147	0.109707	-0.309814	0.660156	0.288574	0.523477	-0.689720	-0.209243	-0.454395
56513		8.452786	-4.921823	-0.354377	0.172544	-0.128532	0.079780	-0.317627	0.661377	0.275391	0.524586	-0.689605	-0.210030	-0.452927
56514		8.517476	-4.954363	-0.254289	0.155570	-0.089038	0.046773	-0.316162	0.666992	0.282715	0.525568	-0.689317	-0.210825	-0.451856
56515		8.593801	-4.844100	-0.459481	0.124523	-0.056734	0.017969	-0.310791	0.660645	0.272461	0.526297	-0.689011	-0.211493	-0.451161
56516		8.373046	-4.709248	-0.380617	0.109665	-0.051341	-0.002817	-0.310059	0.664062	0.272217	0.526902	-0.688694	-0.212241	-0.450586
56517		8.386452	-4.683105	-0.452059	0.087091	-0.095023	-0.015031	-0.312744	0.671631	0.277100	0.527263	-0.688617	-0.213177	-0.449840
56518		8.558373	-4.681392	-0.403250	0.063561	-0.058282	-0.034581	-0.306152	0.666992	0.270996	0.527474	-0.688475	-0.213967	-0.449435
56519		8.611604	-4.670015	-0.274113	-0.006209	-0.023575	-0.050237	-0.308350	0.661133	0.277832	0.527317	-0.688471	-0.214468	-0.449387
56520		8.557975	-4.642447	-0.465254	-0.056923	0.004859	-0.066241	-0.306885	0.672363	0.276611	0.526787	-0.688589	-0.214652	-0.449738
56521		8.609366	-4.777840	-0.503473	-0.098336	0.016066	-0.093050	-0.314941	0.666748	0.284180	0.526018	-0.688769	-0.214883	-0.450253
56522		8.497461	-4.898251	-0.511008	-0.085416	0.041461	-0.100105	-0.318115	0.656494	0.271973	0.525251	-0.688817	-0.214984	-0.451026
56523		8.328804	-5.066488	-0.512402	-0.060782	0.052793	-0.097282	-0.308350	0.654785	0.282959	0.524676	-0.688688	-0.215154	-0.451811
56524		8.409053	-5.036163	-0.434460	-0.060546	0.051715	-0.094856	-0.317383	0.658203	0.284424	0.524077	-0.688614	-0.215246	-0.452574
56525		8.484664	-4.914887	-0.295488	-0.070832	0.037736	-0.074335	-0.316162	0.659180	0.275635	0.523458	-0.688667	-0.215237	-0.453213
56526		8.514446	-4.872253	-0.439490	-0.106807	0.042633	-0.067002	-0.313965	0.658203	0.274658	0.522753	-0.688825	-0.215144	-0.453830
56527		8.477059	-5.007776	-0.352659	-0.143991	0.069735	-0.067644	-0.321289	0.658691	0.288330	0.521905	-0.689034	-0.214823	-0.454642
56528		8.425502	-5.177554	-0.424533	-0.145020	0.088253	-0.065544	-0.321045	0.655273	0.285400	0.520979	-0.689233	-0.214261	-0.455665
56529		8.463370	-5.293023	-0.493713	-0.129027	0.100969	-0.058685	-0.312988	0.659424	0.285645	0.520214	-0.689313	-0.213694	-0.456684
56530		8.371223	-5.287645	-0.438844	-0.111718	0.089907	-0.046201	-0.320068	0.662598	0.292969	0.519653	-0.689367	-0.213246	-0.457450
56531		8.193970	-5.325445	-0.482900	-0.086499	0.071722	-0.038807	-0.319580	0.651367	0.292725	0.519176	-0.689416	-0.212864	-0.458094
56532		8.194654	-5.343498	-0.305471	-0.070224	0.059471	-0.030265	-0.323486	0.648682	0.296875	0.518743	-0.689481	-0.212471	-0.458670
56533		8.697817	-5.849390	-0.479146	-0.036164	0.045926	-0.037326	-0.319092	0.658691	0.292480	0.518391	-0.689462	-0.212230	-0.459208
56534		8.389092	-5.827631	-0.870831	0.057626	0.102034	-0.019865	-0.334229	0.663818	0.291016	0.518873	-0.688805	-0.212159	-0.459681
56535		7.770122	-5.420672	-0.439282	0.162448	0.036491	0.016535	-0.317139	0.653809	0.280518	0.519950	-0.687990	-0.212560	-0.459499
56536		7.960159	-5.337568	-0.292787	0.236794	-0.041255	0.029549	-0.317871	0.653809	0.279053	0.521450	-0.687156	-0.213591	-0.458569
56537		8.278019	-5.359468	-0.212551	0.233382	-0.063333	0.027902	-0.319824	0.659180	0.280518	0.522857	-0.686424	-0.214683	-0.457551
56538		8.384032	-5.280842	-0.196761	0.211328	-0.048539	0.043847	-0.318604	0.661133	0.283203	0.524202	-0.685769	-0.215506	-0.456607
56539		8.393023	-5.225250	-0.279249	0.159265	-0.009890	0.071851	-0.321533	0.664062	0.273926	0.525383	-0.685271	-0.215738	-0.455888
56540		8.359452	-5.147481	-0.190341	0.134028	0.011261	0.115654	-0.317139	0.655518	0.274902	0.526693	-0.684825	-0.215644	-0.455090
56541		8.464959	-5.335314	-0.196652	0.114592	0.039946	0.160144	-0.310303	0.664795	0.275146	0.528029	-0.684479	-0.214983	-0.454375
56542		8.204908	-5.331126	-0.056998	0.096961	0.045413	0.197989	-0.312500	0.673828	0.276855	0.529480	-0.684247	-0.214073	-0.453464
56543		8.108856	-5.426090	0.002965	0.072762	0.030624	0.218199	-0.305420	0.670410	0.273682	0.530840	-0.684210	-0.213022	-0.452424
56544		8.131503	-5.512370	-0.137264	0.069275	0.040350	0.238972	-0.302246	0.655518	0.271729	0.532285	-0.684186	-0.211803	-0.451333
56545		8.270430	-5.752067	-0.380133	0.075346	0.059637	0.251403	-0.309326	0.668701	0.271240	0.533735	-0.684121	-0.210319	-0.450411
56546		8.236083	-5.773773	-0.283251	0.124711	0.071900	0.277016	-0.303223	0.676025	0.268066	0.535608	-0.683799	-0.208876	-0.449347
56547		8.088550	-5.710783	-0.177279	0.157747	0.061946	0.306985	-0.300781	0.671875	0.267334	0.537832	-0.683391	-0.207508	-0.447944
56548		8.223819	-5.770291	-0.180205	0.188418	0.040525	0.327038	-0.285156	0.680908	0.263672	0.540195	-0.682981	-0.206151	-0.446349
56549		8.208222	-5.668845	-0.112587	0.212645	0.038185	0.355638	-0.300781	0.681152	0.262695	0.542919	-0.682492	-0.204849	-0.444388
56550		8.238835	-5.743288	-0.018503	0.207585	0.053382	0.372617	-0.281250	0.674072	0.257324	0.545552	-0.681997	-0.203240	-0.442659
56551		8.367981	-5.958372	-0.148453	0.199282	0.102459	0.398741	-0.282227	0.687988	0.252441	0.548358	-0.681408	-0.201246	-0.441006
56552		8.184465	-5.856556	-0.315207	0.218686	0.133594	0.463580	-0.274658	0.689941	0.244873	0.551632	-0.680665	-0.198926	-0.439119
56553		7.963303	-5.625412	0.077543	0.250755	0.101517	0.506516	-0.271484	0.698730	0.242188	0.555243	-0.679920	-0.196707	-0.436717
56554		7.967035	-5.823314	0.184593	0.229924	0.081901	0.507421	-0.265625	0.699463	0.235840	0.558709	-0.679318	-0.194519	-0.434204
56555		7.895519	-6.036256	0.009460	0.190670	0.115731	0.499722	-0.260254	0.702881	0.240967	0.561990	-0.678733	-0.192110	-0.431951
56556		7.727414	-5.986920	0.007787	0.190796	0.114010	0.511926	-0.252197	0.705322	0.239746	0.565205	-0.678219	-0.189493	-0.429715
56557		7.723912	-6.099070	0.010529	0.195363	0.095102	0.509455	-0.250000	0.715820	0.226318	0.568387	-0.677745	-0.186970	-0.427363
56558		7.662989	-6.107065	0.145231	0.197371	0.069901	0.505916	-0.236328	0.711914	0.230713	0.571687	-0.677228	-0.184855	-0.424694
56559		7.699495	-6.168085	0.281031	0.201092	0.066039	0.514541	-0.231201	0.714600	0.221680	0.574934	-0.676781	-0.182563	-0.422006
56560		7.620390	-6.421475	0.193407	0.208791	0.086123	0.524933	-0.225098	0.714600	0.218750	0.578345	-0.676182	-0.180248	-0.419292
56561		7.489959	-6.468835	0.218831	0.224677	0.070993	0.530778	-0.221924	0.720947	0.213623	0.581800	-0.675565	-0.177987	-0.416463
56562		7.460843	-6.390253	0.251189	0.222674	0.043816	0.540305	-0.208740	0.728760	0.222168	0.585253	-0.675023	-0.175855	-0.413398
56563		7.559159	-6.408666	0.339365	0.206228	0.032003	0.535550	-0.197510	0.731689	0.208008	0.588557	-0.674634	-0.173691	-0.410245
56564		7.442292	-6.385917	0.379032	0.185903	0.050435	0.540321	-0.197021	0.724609	0.203369	0.591950	-0.674189	-0.171591	-0.406967
56565		7.361025	-6.496082	0.266564	0.187639	0.037104	0.523180	-0.193848	0.733154	0.204834	0.595105	-0.673777	-0.169463	-0.403926
56566		7.442847	-6.704262	0.278053	0.199063	0.026100	0.515791	-0.188232	0.733887	0.199951	0.598269	-0.673323	-0.167477	-0.400826
56567		7.360740	-6.719848	0.127770	0.233315	0.040982	0.525930	-0.175781	0.741211	0.195801	0.601655	-0.672644	-0.165462	-0.397723
56568		7.274549	-6.788072	0.373396	0.252324	0.021732	0.516222	-0.168457	0.736572	0.196045	0.605216	-0.671865	-0.163855	-0.394288
56569		6.988241	-6.649504	0.285164	0.283924	-0.006253	0.512876	-0.156006	0.746094	0.191162	0.608771	-0.671058	-0.162327	-0.390807
56570		7.083641	-6.643306	0.450839	0.291970	-0.037721	0.487596	-0.150879	0.752197	0.189941	0.612413	-0.670203	-0.161387	-0.386954
56571		7.048718	-6.639344	0.566839	0.294628	-0.035439	0.469218	-0.150146	0.749756	0.185791	0.616013	-0.669281	-0.160585	-0.383150
56572		7.248150	-6.750889	0.592617	0.285094	-0.034641	0.442471	-0.148438	0.750977	0.181885	0.619311	-0.668396	-0.159689	-0.379737
56573		6.937983	-6.702251	0.493642	0.288344	-0.008898	0.405890	-0.136230	0.756836	0.174805	0.622452	-0.667370	-0.158763	-0.376782
56574		6.885629	-6.734021	0.555045	0.296416	-0.010063	0.365556	-0.124023	0.756592	0.163574	0.625667	-0.666183	-0.158343	-0.373722
56575		6.980146	-6.741438	0.509346	0.304706	-0.022458	0.327253	-0.130859	0.757324	0.167236	0.628874	-0.664891	-0.158358	-0.370620
56576		6.936235	-6.772607	0.638619	0.315433	-0.037175	0.292267	-0.129883	0.757080	0.159180	0.631748	-0.663625	-0.158308	-0.368015
