// Start Time: Unknown
// Update Rate: 60.0Hz
// Filter Profile: human (46.1)
// Firmware Version: 4.6.0
PacketCounter	SampleTimeFine	Acc_X	Acc_Y	Acc_Z	Gyr_X	Gyr_Y	Gyr_Z	Mag_X	Mag_Y	Mag_Z	Quat_q0	Quat_q1	Quat_q2	Quat_q3
58937		7.503138	-5.532169	-2.932816	-0.013111	-0.003304	-0.009919	-0.227295	0.731445	0.120605	0.544687	-0.693806	-0.410665	-0.230878
58938		7.433627	-5.697282	-3.000045	-0.013848	-0.006347	-0.010913	-0.227051	0.727295	0.116699	0.544564	-0.693843	-0.410730	-0.230938
58939		7.403583	-5.773517	-2.983550	0.014261	-0.019006	-0.012901	-0.228027	0.719971	0.111328	0.544560	-0.693768	-0.410919	-0.230837
58940		7.498321	-5.554451	-2.946155	-0.000703	-0.006353	-0.014235	-0.219727	0.727295	0.112549	0.544508	-0.693736	-0.411027	-0.230864
58941		7.508646	-5.545768	-2.974246	-0.028034	0.009877	-0.006760	-0.230225	0.727783	0.122070	0.544367	-0.693823	-0.410965	-0.231044
58942		7.494050	-5.636104	-2.971791	-0.027146	0.013411	-0.004452	-0.217041	0.729980	0.110840	0.544248	-0.693907	-0.410876	-0.231231
58943		7.389162	-5.725597	-3.047809	-0.032587	0.017951	-0.006239	-0.215332	0.724121	0.115723	0.544110	-0.694003	-0.410764	-0.231467
58944		7.361508	-5.732870	-2.950240	-0.036767	0.014399	-0.008551	-0.225342	0.723145	0.107666	0.543931	-0.694123	-0.410668	-0.231697
58945		7.465199	-5.554081	-2.936305	-0.034468	0.016911	-0.008766	-0.221436	0.731934	0.116455	0.543779	-0.694232	-0.410559	-0.231922
58946		7.475487	-5.632234	-2.891249	-0.031153	0.010328	-0.012063	-0.220947	0.724365	0.114502	0.543617	-0.694328	-0.410504	-0.232110
58947		7.448315	-5.629876	-2.966221	-0.010982	-0.001285	-0.011487	-0.212646	0.723389	0.115479	0.543540	-0.694357	-0.410531	-0.232155
58948		7.473127	-5.577166	-2.994359	-0.021154	0.004267	-0.007456	-0.216309	0.715576	0.118408	0.543434	-0.694439	-0.410485	-0.232241
58949		7.426344	-5.676481	-2.942594	-0.037031	0.010057	-0.004465	-0.222900	0.729248	0.119873	0.543259	-0.694595	-0.410364	-0.232396
58950		7.400854	-5.631527	-2.911045	-0.013902	-0.003060	-0.010999	-0.217529	0.730957	0.129395	0.543167	-0.694654	-0.410376	-0.232415
58951		7.466508	-5.577386	-2.972977	-0.010210	-0.008111	-0.013795	-0.226318	0.727783	0.119141	0.543081	-0.694699	-0.410426	-0.232394
58952		7.409250	-5.678008	-3.005012	-0.011879	-0.008113	-0.010504	-0.221924	0.731201	0.126709	0.542991	-0.694764	-0.410452	-0.232363
58953		7.415447	-5.697523	-2.994577	-0.001069	-0.014415	-0.014794	-0.214844	0.722656	0.122314	0.542937	-0.694786	-0.410545	-0.232259
58954		7.463665	-5.589465	-2.921289	-0.004481	-0.008364	-0.016040	-0.228271	0.723389	0.117188	0.542882	-0.694811	-0.410609	-0.232203
58955		7.449617	-5.665224	-2.963287	0.008856	-0.014405	-0.018035	-0.218262	0.720703	0.107910	0.542887	-0.694778	-0.410728	-0.232076
58956		7.447030	-5.603937	-2.998353	0.009849	-0.020214	-0.014508	-0.220947	0.727295	0.122070	0.542893	-0.694760	-0.410850	-0.231901
58957		7.448581	-5.626933	-2.974381	-0.008675	-0.011922	-0.015053	-0.226318	0.728516	0.122070	0.542815	-0.694826	-0.410897	-0.231802
58958		7.373334	-5.726404	-2.996722	-0.000663	-0.019493	-0.017585	-0.216064	0.729248	0.120850	0.542757	-0.694866	-0.410999	-0.231637
58959		7.446731	-5.636245	-2.983335	0.024510	-0.031077	-0.023604	-0.213867	0.719727	0.117676	0.542800	-0.694799	-0.411230	-0.231328
58960		7.542483	-5.485236	-2.978299	0.011670	-0.019738	-0.019795	-0.224609	0.733154	0.119629	0.542802	-0.694763	-0.411390	-0.231148
58961		7.454132	-5.639503	-3.017730	-0.000437	-0.011916	-0.011702	-0.222168	0.727539	0.123047	0.542797	-0.694819	-0.411397	-0.230976
58962		7.408810	-5.676479	-3.012544	0.011793	-0.015950	-0.018502	-0.223877	0.726807	0.127197	0.542816	-0.694799	-0.411517	-0.230778
58963		7.421875	-5.654760	-3.036064	0.011007	-0.018977	-0.012941	-0.222656	0.722168	0.121826	0.542824	-0.694816	-0.411623	-0.230521
58964		7.446867	-5.554176	-3.067333	0.010006	-0.013178	-0.016463	-0.228027	0.717529	0.121094	0.542834	-0.694797	-0.411734	-0.230355
58965		7.473524	-5.551337	-3.042868	0.002999	-0.004844	-0.013674	-0.210205	0.726562	0.127441	0.542816	-0.694795	-0.411802	-0.230281
58966		7.461133	-5.618799	-3.017324	0.002345	-0.004076	-0.010129	-0.225830	0.723389	0.121826	0.542818	-0.694838	-0.411824	-0.230109
58967		7.399109	-5.665445	-3.019079	0.003359	-0.003314	-0.009868	-0.220459	0.726807	0.120361	0.542825	-0.694862	-0.411838	-0.229997
58968		7.441858	-5.683391	-2.898111	0.012256	-0.007337	-0.010098	-0.216309	0.718018	0.123535	0.542887	-0.694860	-0.411863	-0.229809
58969		7.435452	-5.563111	-2.965892	0.005791	-0.006861	-0.012144	-0.216064	0.719482	0.117432	0.542888	-0.694849	-0.411950	-0.229683
58970		7.423806	-5.674657	-2.998830	0.007323	-0.007370	-0.013403	-0.220703	0.727051	0.125977	0.542918	-0.694819	-0.412020	-0.229578
58971		7.439119	-5.629148	-2.999071	0.007086	-0.008396	-0.015934	-0.214355	0.724609	0.113281	0.542933	-0.694834	-0.412077	-0.229396
58972		7.430700	-5.648965	-2.928841	0.001742	-0.009922	-0.013174	-0.226318	0.722412	0.111816	0.542957	-0.694842	-0.412095	-0.229283
58973		7.477557	-5.594316	-2.980079	0.008985	-0.010661	-0.013398	-0.221191	0.728516	0.116455	0.543011	-0.694805	-0.412138	-0.229188
58974		7.474160	-5.655309	-2.981555	0.013429	-0.012667	-0.011866	-0.216797	0.721436	0.124023	0.543095	-0.694790	-0.412165	-0.228987
58975		7.384972	-5.693329	-2.990477	0.009891	-0.013708	-0.014406	-0.216309	0.718506	0.120605	0.543098	-0.694777	-0.412289	-0.228796
58976		7.403137	-5.648668	-2.943097	0.001773	-0.013244	-0.016455	-0.217773	0.717285	0.126709	0.543060	-0.694774	-0.412410	-0.228675
58977		7.415064	-5.723035	-2.960333	-0.003681	-0.012010	-0.018239	-0.214355	0.727783	0.118652	0.542963	-0.694802	-0.412552	-0.228564
58978		7.371012	-5.696639	-3.002661	0.028046	-0.030681	-0.025480	-0.225098	0.719482	0.121826	0.543057	-0.694713	-0.412761	-0.228235
58979		7.524526	-5.486064	-3.026916	0.024730	-0.024125	-0.025465	-0.215332	0.725586	0.123291	0.543094	-0.694600	-0.413018	-0.228025
58980		7.483611	-5.567756	-3.031533	-0.004197	-0.010761	-0.016701	-0.217529	0.724121	0.129639	0.543047	-0.694657	-0.413067	-0.227876
58981		7.400085	-5.674752	-3.024968	0.011456	-0.014266	-0.018920	-0.222656	0.722900	0.121582	0.543029	-0.694654	-0.413219	-0.227653
58982		7.440544	-5.661526	-3.040940	0.024448	-0.018547	-0.021396	-0.215332	0.727295	0.119873	0.543097	-0.694555	-0.413408	-0.227448
58983		7.451315	-5.619222	-3.027696	0.013367	-0.013265	-0.019656	-0.215576	0.718262	0.120605	0.543157	-0.694523	-0.413492	-0.227252
58984		7.451248	-5.592760	-3.053923	0.006969	-0.005674	-0.017146	-0.216797	0.727295	0.127197	0.543167	-0.694482	-0.413595	-0.227164
58985		7.457639	-5.553683	-3.027030	0.003516	-0.002887	-0.015136	-0.222168	0.723145	0.125977	0.543163	-0.694518	-0.413625	-0.227009
58986		7.451921	-5.642076	-2.988518	-0.002229	0.000653	-0.012882	-0.215088	0.725098	0.120850	0.543121	-0.694551	-0.413657	-0.226952
58987		7.433881	-5.736535	-2.971326	0.014997	-0.009949	-0.016354	-0.225586	0.737549	0.121826	0.543189	-0.694511	-0.413733	-0.226772
58988		7.416725	-5.612576	-2.994189	0.019872	-0.013773	-0.020873	-0.218994	0.722656	0.114990	0.543289	-0.694474	-0.413781	-0.226555
58989		7.466110	-5.499835	-2.982061	-0.002230	0.000644	-0.012877	-0.224854	0.729980	0.119141	0.543320	-0.694463	-0.413759	-0.226557
58990		7.426644	-5.747933	-3.010503	0.006573	-0.003895	-0.014356	-0.218994	0.727295	0.121094	0.543372	-0.694448	-0.413759	-0.226479
58991		7.422896	-5.628571	-3.029642	0.028009	-0.014238	-0.018810	-0.221191	0.727051	0.121094	0.543491	-0.694349	-0.413892	-0.226254
58992		7.467151	-5.567995	-2.999921	0.002609	0.000138	-0.014115	-0.220215	0.720459	0.117920	0.543513	-0.694349	-0.413895	-0.226194
58993		7.464307	-5.583951	-2.941913	-0.002253	0.007196	-0.016155	-0.218506	0.732178	0.116699	0.543524	-0.694313	-0.413909	-0.226254
58994		7.472510	-5.633435	-3.030726	0.008795	0.005261	-0.011318	-0.221191	0.723145	0.125244	0.543659	-0.694293	-0.413808	-0.226175
58995		7.440205	-5.651131	-3.045223	0.009575	0.001723	-0.010302	-0.214600	0.722412	0.116211	0.543683	-0.694270	-0.413863	-0.226088
58996		7.442077	-5.630510	-2.959582	0.000882	0.010041	-0.010846	-0.224365	0.726074	0.119629	0.543761	-0.694250	-0.413793	-0.226090
58997		7.419611	-5.607029	-2.960696	0.000883	0.010040	-0.010844	-0.222168	0.727539	0.120605	0.543808	-0.694229	-0.413748	-0.226124
58998		7.409687	-5.656005	-3.039057	0.010334	0.004744	-0.012564	-0.221191	0.725830	0.119629	0.543890	-0.694185	-0.413740	-0.226074
58999		7.454119	-5.595458	-3.008474	0.001526	0.009276	-0.011090	-0.222168	0.720459	0.120605	0.543941	-0.694172	-0.413692	-0.226081
59000		7.449273	-5.635724	-2.972343	-0.007786	0.011792	-0.008106	-0.220947	0.731934	0.121094	0.543920	-0.694187	-0.413656	-0.226151
59001		7.412291	-5.704868	-2.969999	0.005749	0.006244	-0.012074	-0.225342	0.723389	0.122070	0.543993	-0.694188	-0.413590	-0.226093
59002		7.476085	-5.499648	-2.960360	0.007422	0.006217	-0.015341	-0.219238	0.720703	0.124756	0.544021	-0.694125	-0.413648	-0.226115
59003		7.463121	-5.590872	-2.955666	-0.014047	0.013311	-0.004353	-0.215332	0.722656	0.122314	0.543946	-0.694212	-0.413575	-0.226158
59004		7.454768	-5.645024	-2.924362	0.000248	0.007527	-0.007307	-0.216064	0.719727	0.124268	0.543968	-0.694249	-0.413515	-0.226106
59005		7.422050	-5.711177	-2.935578	0.009471	0.001198	-0.011545	-0.216064	0.726318	0.128906	0.543983	-0.694238	-0.413560	-0.226018
59006		7.408140	-5.681352	-2.964161	0.018834	-0.007907	-0.014517	-0.221436	0.725586	0.117920	0.543996	-0.694245	-0.413644	-0.225810
59007		7.427557	-5.632809	-2.977309	0.014521	-0.008698	-0.014785	-0.220215	0.729980	0.121338	0.544075	-0.694180	-0.413707	-0.225707
59008		7.438952	-5.635010	-3.022193	0.017506	-0.013543	-0.018540	-0.218018	0.728027	0.124512	0.544129	-0.694141	-0.413793	-0.225538
59009		7.482693	-5.607762	-3.033602	-0.003846	0.000556	-0.016135	-0.223145	0.725098	0.116699	0.544076	-0.694205	-0.413782	-0.225491
59010		7.419213	-5.662418	-2.911125	-0.008457	0.002092	-0.012380	-0.217041	0.717529	0.118896	0.544065	-0.694215	-0.413750	-0.225543
59011		7.432416	-5.703156	-2.886116	0.012620	-0.006463	-0.017304	-0.223877	0.727539	0.122314	0.544104	-0.694148	-0.413855	-0.225464
59012		7.449906	-5.697614	-3.006162	0.029665	-0.018101	-0.023241	-0.224365	0.723389	0.122070	0.544177	-0.694024	-0.414062	-0.225289
59013		7.444423	-5.553305	-3.051649	0.022640	-0.013091	-0.023774	-0.223877	0.728760	0.118408	0.544210	-0.693903	-0.414274	-0.225189
59014		7.471850	-5.563972	-2.982545	0.001393	-0.001725	-0.016848	-0.224121	0.721191	0.114990	0.544227	-0.693884	-0.414287	-0.225183
59015		7.465715	-5.593522	-2.929355	0.008793	-0.005220	-0.015796	-0.226318	0.735352	0.122559	0.544287	-0.693790	-0.414373	-0.225172
59016		7.429726	-5.707224	-2.985698	0.031320	-0.018077	-0.019927	-0.222168	0.721436	0.112549	0.544386	-0.693689	-0.414526	-0.224963
59017		7.445963	-5.609625	-3.050916	0.042869	-0.025188	-0.024359	-0.221191	0.723877	0.108643	0.544586	-0.693449	-0.414783	-0.224743
59018		7.477578	-5.521078	-3.002617	0.017752	-0.012504	-0.012694	-0.224609	0.725098	0.117676	0.544756	-0.693333	-0.414823	-0.224617
59019		7.500891	-5.580290	-2.978337	0.002246	-0.001416	-0.011298	-0.218506	0.727295	0.123047	0.544766	-0.693314	-0.414848	-0.224603
59020		7.436431	-5.689936	-2.979321	0.017694	-0.005915	-0.012708	-0.220703	0.732422	0.123291	0.544805	-0.693315	-0.414886	-0.224437
59021		7.404425	-5.688169	-2.909886	0.024148	-0.013530	-0.015156	-0.220703	0.733154	0.118408	0.544859	-0.693296	-0.414966	-0.224214
59022		7.417473	-5.681222	-2.888118	0.022019	-0.015606	-0.016911	-0.221191	0.733887	0.123047	0.544948	-0.693256	-0.415027	-0.224010
59023		7.407264	-5.682126	-2.971697	0.023005	-0.022018	-0.021144	-0.216553	0.725586	0.110840	0.544960	-0.693236	-0.415175	-0.223769
59024		7.459745	-5.614086	-2.970712	0.018410	-0.020524	-0.020662	-0.216797	0.725342	0.125732	0.545069	-0.693167	-0.415246	-0.223585
59025		7.466618	-5.633541	-2.959322	0.013600	-0.023333	-0.019410	-0.223389	0.729004	0.119873	0.544972	-0.693216	-0.415424	-0.223338
59026		7.414231	-5.625242	-2.992792	0.010181	-0.023889	-0.020674	-0.214111	0.722168	0.120361	0.544916	-0.693208	-0.415596	-0.223181
59027		7.440927	-5.669681	-2.965771	0.001498	-0.011693	-0.016758	-0.231445	0.727783	0.124268	0.544850	-0.693278	-0.415640	-0.223042
59028		7.413897	-5.711402	-2.907807	0.004315	-0.010494	-0.021768	-0.222168	0.728760	0.120361	0.544737	-0.693228	-0.415869	-0.223048
59029		7.433491	-5.661448	-2.922558	0.019593	-0.019364	-0.025650	-0.229980	0.716797	0.114502	0.544742	-0.693164	-0.416051	-0.222895
59030		7.473584	-5.536419	-2.991009	0.020227	-0.020082	-0.022619	-0.225586	0.727539	0.110840	0.544769	-0.692970	-0.416362	-0.222851
59031		7.484851	-5.586676	-3.032840	0.008661	-0.012970	-0.018196	-0.228760	0.732178	0.119629	0.544844	-0.692883	-0.416436	-0.222800
59032		7.486520	-5.564764	-2.949530	0.001089	-0.009897	-0.013985	-0.219971	0.722168	0.115967	0.544797	-0.692889	-0.416509	-0.222760
59033		7.434860	-5.619222	-2.933882	-0.005653	-0.000033	-0.014079	-0.226318	0.727539	0.122559	0.544774	-0.692917	-0.416489	-0.222765
59034		7.423469	-5.720900	-2.947971	0.019178	-0.020696	-0.013067	-0.218994	0.725586	0.117920	0.544753	-0.692884	-0.416669	-0.222581
59035		7.448511	-5.578857	-3.063637	0.028217	-0.017698	-0.018550	-0.223145	0.731445	0.107666	0.544847	-0.692809	-0.416788	-0.222361
59036		7.432791	-5.635708	-3.067273	0.008970	-0.008092	-0.014444	-0.221191	0.721191	0.128662	0.544996	-0.692742	-0.416742	-0.222295
59037		7.437937	-5.614622	-2.934890	0.004880	-0.007825	-0.012208	-0.222412	0.724609	0.119141	0.544849	-0.692815	-0.416872	-0.222183
59038		7.461203	-5.659160	-2.955383	0.004163	-0.010901	-0.013190	-0.227295	0.716797	0.119385	0.544807	-0.692835	-0.416940	-0.222092
59039		7.432915	-5.624988	-2.989259	0.005952	-0.010422	-0.015188	-0.215332	0.726074	0.112793	0.544740	-0.692775	-0.417138	-0.222076
59040		7.445604	-5.603076	-3.012915	-0.005630	-0.003296	-0.010784	-0.218994	0.728516	0.116699	0.544769	-0.692856	-0.417006	-0.221998
59041		7.448937	-5.639762	-2.943476	-0.014646	0.004018	-0.010630	-0.229004	0.723633	0.122559	0.544724	-0.692969	-0.416870	-0.222012
59042		7.386646	-5.710751	-2.966770	0.005684	-0.008185	-0.017709	-0.224365	0.721191	0.122559	0.544640	-0.692924	-0.417057	-0.222007
59043		7.492007	-5.551461	-2.942214	0.011951	-0.009679	-0.018165	-0.217529	0.719971	0.123535	0.544588	-0.692886	-0.417221	-0.221942
59044		7.501826	-5.494428	-2.973873	-0.021851	0.008562	-0.009190	-0.223389	0.713623	0.120361	0.544416	-0.693067	-0.417112	-0.222006
59045		7.387364	-5.767460	-2.968616	-0.004684	0.000840	-0.007295	-0.217285	0.724609	0.119629	0.544335	-0.693093	-0.417161	-0.222034
59046		7.423211	-5.657251	-3.040873	0.032726	-0.019676	-0.016985	-0.210693	0.721680	0.116943	0.544434	-0.693038	-0.417259	-0.221775
59047		7.436936	-5.646884	-3.080855	0.022504	-0.010248	-0.011835	-0.220947	0.725586	0.121826	0.544547	-0.693066	-0.417190	-0.221542
59048		7.468556	-5.572320	-2.988552	0.020804	-0.006960	-0.011864	-0.217773	0.731934	0.111084	0.544592	-0.693049	-0.417235	-0.221401
59049		7.504096	-5.563001	-2.989833	0.011355	0.002185	-0.008977	-0.223877	0.722412	0.118896	0.544774	-0.693037	-0.417065	-0.221307
59050		7.405576	-5.765639	-3.022247	0.020918	0.000783	-0.006159	-0.220215	0.722412	0.117676	0.544876	-0.692962	-0.417104	-0.221221
59051		7.421719	-5.696954	-2.998679	0.015177	0.004141	-0.013727	-0.223633	0.711182	0.115967	0.544960	-0.692908	-0.417104	-0.221182
59052		7.406750	-5.622487	-2.968644	-0.009412	0.019326	-0.008979	-0.215576	0.729004	0.122070	0.544949	-0.692871	-0.417092	-0.221348
59053		7.435602	-5.646559	-2.854341	-0.009991	0.016711	-0.011961	-0.219238	0.726318	0.119629	0.544900	-0.693022	-0.416873	-0.221406
59054		7.474543	-5.608214	-2.895552	0.003184	0.005821	-0.014300	-0.215576	0.726074	0.117432	0.544908	-0.693057	-0.416805	-0.221405
59055		7.415667	-5.666167	-2.912973	0.006596	-0.000765	-0.014226	-0.218506	0.718506	0.119629	0.544945	-0.693108	-0.416713	-0.221331
59056		7.453428	-5.614194	-2.999229	0.009004	-0.008126	-0.014400	-0.229736	0.727295	0.116455	0.544919	-0.693119	-0.416773	-0.221243
59057		7.435719	-5.698323	-2.963297	0.000267	-0.003122	-0.014990	-0.206543	0.719727	0.114746	0.544910	-0.693051	-0.416879	-0.221280
59058		7.483514	-5.532988	-3.018779	0.015256	-0.009547	-0.011595	-0.216309	0.718506	0.115967	0.544997	-0.693140	-0.416730	-0.221069
59059		7.490538	-5.587286	-3.045949	-0.004470	0.005055	-0.011329	-0.222168	0.729248	0.122803	0.544990	-0.693193	-0.416644	-0.221080
59060		7.407100	-5.689701	-2.956202	-0.001888	0.002074	-0.009036	-0.223145	0.726562	0.116211	0.544927	-0.693279	-0.416590	-0.221071
59061		7.384652	-5.728940	-2.910677	0.000788	-0.004357	-0.013219	-0.221191	0.724365	0.114990	0.544926	-0.693277	-0.416604	-0.221050
59062		7.408314	-5.690157	-2.895181	-0.001037	-0.008752	-0.015692	-0.227783	0.723389	0.118408	0.544908	-0.693286	-0.416633	-0.221013
59063		7.410192	-5.701819	-2.852291	-0.001236	-0.009903	-0.021433	-0.209717	0.723877	0.109863	0.544825	-0.693231	-0.416820	-0.221035
59064		7.433050	-5.634254	-2.925609	0.009353	-0.017737	-0.022802	-0.217529	0.727539	0.114014	0.544898	-0.693263	-0.416760	-0.220869
59065		7.475530	-5.643687	-2.916784	0.001506	-0.012504	-0.024385	-0.217041	0.721191	0.123535	0.544888	-0.693281	-0.416774	-0.220813
59066		7.437039	-5.707823	-3.026863	-0.004189	-0.015560	-0.022132	-0.216309	0.724854	0.120850	0.544708	-0.693390	-0.416863	-0.220746
59067		7.514229	-5.455534	-2.975596	-0.009841	-0.011617	-0.025190	-0.224365	0.724121	0.127197	0.544548	-0.693507	-0.416885	-0.220731
59068		7.593640	-5.427536	-3.010328	-0.040339	0.007314	-0.008510	-0.228760	0.733154	0.116943	0.544229	-0.693740	-0.416826	-0.220897
59069		7.476280	-5.603021	-3.062699	-0.029525	0.007714	-0.006201	-0.227783	0.722168	0.118652	0.544124	-0.693844	-0.416711	-0.221049
59070		7.467420	-5.611581	-2.975482	-0.037922	0.011150	0.003487	-0.224365	0.722900	0.125488	0.543961	-0.693990	-0.416594	-0.221208
59071		7.304106	-5.880851	-2.703228	-0.055669	0.009034	-0.002553	-0.220459	0.719971	0.114502	0.543604	-0.694285	-0.416457	-0.221420
59072		7.235359	-5.829037	-2.813413	-0.041796	-0.013808	-0.017301	-0.218018	0.734131	0.121582	0.543361	-0.694451	-0.416451	-0.221506
59073		7.430910	-5.664854	-2.908209	-0.064749	-0.013844	-0.029096	-0.223389	0.727539	0.127441	0.542917	-0.694804	-0.416346	-0.221685
59074		7.396522	-5.693716	-2.875316	-0.126755	0.010316	-0.026602	-0.223389	0.727539	0.124512	0.542128	-0.695357	-0.416153	-0.222244
59075		7.301947	-5.836986	-2.735598	-0.134516	0.004250	-0.036927	-0.222412	0.722900	0.124268	0.541307	-0.695893	-0.416006	-0.222844
59076		7.246851	-5.949271	-2.718763	-0.045350	-0.060755	-0.064401	-0.226318	0.717529	0.126221	0.540742	-0.696035	-0.416481	-0.222882
59077		7.459690	-5.650132	-2.984971	0.009814	-0.097797	-0.082839	-0.226562	0.718506	0.131104	0.540312	-0.695888	-0.417426	-0.222617
59078		7.541223	-5.402149	-3.101731	-0.065634	-0.063981	-0.070383	-0.230225	0.717773	0.124268	0.539533	-0.696103	-0.418003	-0.222750
59079		7.359032	-5.744187	-2.965788	-0.115374	-0.029698	-0.065368	-0.221924	0.718018	0.136963	0.538684	-0.696407	-0.418323	-0.223255
59080		7.335515	-5.852406	-2.878511	-0.062274	-0.068705	-0.082394	-0.232666	0.718262	0.134277	0.537849	-0.696664	-0.418906	-0.223374
59081		7.426172	-5.627738	-3.064084	-0.034912	-0.090912	-0.102420	-0.225830	0.716309	0.131592	0.537102	-0.696637	-0.419888	-0.223410
59082		7.418549	-5.459904	-3.106466	-0.061743	-0.086486	-0.099409	-0.229248	0.726318	0.135010	0.536261	-0.696784	-0.420663	-0.223514
59083		7.428049	-5.561059	-3.152791	-0.095640	-0.069375	-0.091164	-0.234863	0.715088	0.138428	0.535296	-0.697097	-0.421226	-0.223792
59084		7.460096	-5.591222	-3.142214	-0.081065	-0.074607	-0.092814	-0.232910	0.716553	0.140625	0.534342	-0.697284	-0.421992	-0.224044
59085		7.443235	-5.539841	-3.156401	-0.081149	-0.076006	-0.101568	-0.233887	0.717773	0.137695	0.533361	-0.697486	-0.422757	-0.224310
59086		7.525641	-5.347667	-3.228662	-0.075043	-0.078506	-0.097970	-0.233398	0.713867	0.142578	0.532469	-0.697649	-0.423504	-0.224517
59087		7.665483	-5.200596	-3.199872	-0.100485	-0.052559	-0.087980	-0.240967	0.705811	0.147705	0.531485	-0.697946	-0.424032	-0.224926
59088		7.453040	-5.629640	-3.212260	-0.067960	-0.065291	-0.087192	-0.235840	0.717285	0.150146	0.530580	-0.698068	-0.424816	-0.225205
59089		7.528069	-5.355893	-3.291950	-0.044626	-0.079179	-0.093007	-0.233643	0.706299	0.139893	0.529770	-0.698194	-0.425575	-0.225289
59090		7.582628	-5.388784	-3.240939	-0.088779	-0.048743	-0.083222	-0.239502	0.714844	0.153809	0.528934	-0.698408	-0.426067	-0.225657
59091		7.521910	-5.279090	-3.263755	-0.084217	-0.050747	-0.081671	-0.243408	0.706299	0.142090	0.527993	-0.698683	-0.426594	-0.226018
59092		7.464886	-5.377853	-3.279584	-0.067601	-0.057431	-0.079826	-0.242432	0.706299	0.143311	0.527266	-0.698736	-0.427266	-0.226277
59093		7.583677	-5.323297	-3.341699	-0.039782	-0.069180	-0.083126	-0.242676	0.714355	0.146973	0.526650	-0.698704	-0.428026	-0.226377
59094		7.527448	-5.394498	-3.395064	-0.052809	-0.053849	-0.083092	-0.240723	0.712646	0.151855	0.526003	-0.698745	-0.428640	-0.226591
59095		7.533869	-5.329029	-3.422167	-0.049070	-0.047819	-0.080139	-0.246826	0.705811	0.151123	0.525347	-0.698837	-0.429172	-0.226822
59096		7.543511	-5.321984	-3.464332	-0.053310	-0.044971	-0.078992	-0.250977	0.708496	0.152100	0.524679	-0.698865	-0.429784	-0.227121
59097		7.490767	-5.280051	-3.388475	-0.076988	-0.033594	-0.074510	-0.239746	0.706787	0.152588	0.523932	-0.698960	-0.430312	-0.227556
59098		7.527464	-5.271534	-3.265133	-0.094109	-0.021902	-0.066941	-0.243164	0.710938	0.157959	0.523139	-0.699263	-0.430528	-0.228040
59099		7.484235	-5.394533	-3.218979	-0.081262	-0.031413	-0.074476	-0.247070	0.700928	0.162109	0.522337	-0.699514	-0.430869	-0.228465
59100		7.620035	-5.365253	-3.393721	-0.035842	-0.064745	-0.085437	-0.247559	0.712891	0.156738	0.521590	-0.699578	-0.431572	-0.228647
59101		7.690133	-4.995539	-3.424000	-0.069832	-0.039927	-0.076230	-0.246094	0.702881	0.157959	0.520878	-0.699721	-0.432028	-0.228972
59102		7.700314	-4.993588	-3.404819	-0.105507	-0.014998	-0.057370	-0.245850	0.699219	0.149902	0.520045	-0.700059	-0.432193	-0.229522
59103		7.508779	-5.336190	-3.512581	-0.069361	-0.029321	-0.057955	-0.247803	0.691162	0.162109	0.519483	-0.700167	-0.432533	-0.229821
59104		7.721202	-5.109078	-3.666226	-0.037125	-0.030201	-0.052147	-0.256104	0.696777	0.152588	0.518936	-0.700271	-0.432884	-0.230082
59105		7.769920	-4.923822	-3.749183	-0.089399	0.017704	-0.027436	-0.249512	0.704834	0.164307	0.518476	-0.700382	-0.432962	-0.230633
59106		7.581796	-5.191248	-3.542264	-0.105953	0.040837	-0.011949	-0.258789	0.700684	0.165039	0.517902	-0.700800	-0.432601	-0.231330
59107		7.574694	-5.111441	-3.478615	-0.087827	0.042308	-0.007966	-0.250244	0.706055	0.165039	0.517450	-0.701034	-0.432405	-0.231996
59108		7.498491	-5.208222	-3.375540	-0.073996	0.034618	-0.001455	-0.255371	0.691895	0.162598	0.517089	-0.701343	-0.432079	-0.232477
59109		7.448996	-5.401024	-3.373416	-0.063621	0.029309	-0.008832	-0.256836	0.698242	0.171143	0.516750	-0.701491	-0.431968	-0.232986
59110		7.408199	-5.500989	-3.371661	-0.012843	-0.000623	-0.020693	-0.250488	0.699707	0.163574	0.516494	-0.701526	-0.432090	-0.233224
59111		7.542775	-5.239858	-3.320240	-0.039388	0.007827	-0.026239	-0.246094	0.698486	0.171387	0.516216	-0.701613	-0.432115	-0.233531
59112		7.561549	-5.129411	-3.270585	-0.068941	0.017828	-0.021618	-0.255615	0.696533	0.170166	0.515691	-0.701985	-0.431859	-0.234045
59113		7.466904	-5.252107	-3.262519	-0.033944	-0.005907	-0.030831	-0.263428	0.693115	0.169678	0.515313	-0.702065	-0.432022	-0.234337
59114		7.592925	-5.029684	-3.449355	0.002673	-0.033214	-0.031813	-0.244629	0.700928	0.174805	0.515068	-0.701926	-0.432526	-0.234361
59115		7.575628	-5.087590	-3.667829	0.002107	-0.027380	-0.021477	-0.258301	0.694824	0.169922	0.514779	-0.702143	-0.432522	-0.234356
59116		7.645105	-5.128243	-3.759591	-0.018643	-0.001092	-0.013132	-0.250488	0.688477	0.158691	0.514567	-0.702162	-0.432647	-0.234534
59117		7.614144	-5.146900	-3.554051	-0.034626	0.020488	-0.008617	-0.251709	0.702637	0.168701	0.514480	-0.702164	-0.432616	-0.234777
59118		7.630025	-5.118385	-3.588895	-0.011781	0.021861	-0.006131	-0.251221	0.696289	0.174561	0.514444	-0.702206	-0.432483	-0.234972
59119		7.486104	-5.313829	-3.497989	0.040832	-0.002206	-0.010078	-0.244629	0.700195	0.173828	0.514507	-0.702155	-0.432503	-0.234950
59120		7.507698	-5.033643	-3.321611	0.049752	-0.006447	-0.015003	-0.253662	0.701904	0.173828	0.514604	-0.702138	-0.432466	-0.234858
59121		7.405878	-5.577201	-3.340317	0.070796	-0.014548	-0.015400	-0.256348	0.700195	0.171631	0.514823	-0.701918	-0.432681	-0.234640
59122		7.377656	-5.687480	-3.328703	0.159702	-0.074189	-0.045766	-0.258545	0.708740	0.167725	0.515315	-0.701259	-0.433580	-0.233870
59123		7.716252	-4.932254	-3.140520	0.095598	-0.055199	-0.040740	-0.251709	0.702637	0.170654	0.515581	-0.700798	-0.434282	-0.233360
59124		7.520168	-5.313752	-3.249186	0.026366	-0.020328	-0.035963	-0.255127	0.699463	0.163574	0.515482	-0.700738	-0.434501	-0.233351
59125		7.427220	-5.367996	-3.309236	0.081804	-0.064847	-0.049242	-0.243896	0.702393	0.166748	0.515627	-0.700322	-0.435257	-0.232871
59126		7.696818	-4.639562	-3.363775	0.071747	-0.062527	-0.043731	-0.257568	0.696045	0.162354	0.515649	-0.700193	-0.435662	-0.232452
59127		7.756073	-4.838655	-3.678919	0.036517	-0.038197	-0.015609	-0.248291	0.701904	0.165527	0.515693	-0.700003	-0.436077	-0.232152
59128		7.784588	-4.840703	-3.829901	0.051092	-0.032985	0.004247	-0.255371	0.709961	0.165039	0.515812	-0.700009	-0.436128	-0.231771
59129		7.675789	-5.074192	-3.658321	0.006307	0.013345	0.030054	-0.253418	0.700684	0.161377	0.515935	-0.700111	-0.435867	-0.231680
59130		7.426071	-5.622095	-3.553019	0.082478	-0.012218	0.021889	-0.243896	0.700928	0.167969	0.516416	-0.699862	-0.435957	-0.231191
59131		7.451539	-5.662959	-3.421027	0.146701	-0.041984	0.003718	-0.249023	0.695068	0.167725	0.516989	-0.699574	-0.436129	-0.230458
59132		7.544453	-5.255796	-3.296190	0.089559	-0.006626	0.002509	-0.253906	0.709717	0.155518	0.517344	-0.699381	-0.436173	-0.230163
59133		7.450069	-5.456394	-3.215963	0.032468	0.021135	0.001932	-0.261475	0.702881	0.166504	0.517682	-0.699163	-0.436164	-0.230079
59134		7.370848	-5.573567	-3.108228	0.087274	-0.019855	-0.017030	-0.251221	0.703857	0.166504	0.518001	-0.698760	-0.436599	-0.229763
59135		7.526471	-5.251621	-3.170478	0.147141	-0.064570	-0.033975	-0.256104	0.704590	0.156250	0.518429	-0.698291	-0.437208	-0.229064
59136		7.544655	-5.191903	-3.410530	0.134898	-0.061021	-0.026916	-0.252441	0.702393	0.161133	0.518961	-0.697689	-0.437941	-0.228294
59137		7.542007	-4.937186	-3.616261	0.085834	-0.023930	-0.011588	-0.263184	0.695312	0.163086	0.519263	-0.697428	-0.438187	-0.227931
59138		7.639652	-4.926435	-3.471724	0.028437	0.008642	0.007760	-0.251709	0.702637	0.155762	0.519370	-0.697289	-0.438292	-0.227909
59139		7.604525	-5.161471	-3.274974	0.080206	-0.018111	0.016641	-0.253174	0.700928	0.141357	0.519774	-0.697091	-0.438375	-0.227434
59140		7.594248	-5.378422	-3.487059	0.184560	-0.069789	0.003801	-0.248779	0.703613	0.153809	0.520768	-0.696255	-0.439171	-0.226182
59141		7.716127	-5.001583	-3.635434	0.164602	-0.051193	0.013520	-0.250488	0.698730	0.156738	0.521513	-0.695791	-0.439509	-0.225235
59142		7.665520	-4.980055	-3.506638	0.049355	0.025291	0.041269	-0.252686	0.706543	0.149658	0.521847	-0.695821	-0.439135	-0.225101
59143		7.366921	-5.462459	-3.364460	0.028022	0.046029	0.046051	-0.256348	0.707275	0.147949	0.522266	-0.695785	-0.438724	-0.225037
59144		7.403986	-5.541214	-3.254823	0.080135	0.014786	0.033085	-0.246582	0.702148	0.142578	0.522882	-0.695457	-0.438718	-0.224636
59145		7.560644	-5.383067	-3.219995	0.096204	0.003989	0.020062	-0.236328	0.711426	0.145020	0.523544	-0.695096	-0.438747	-0.224153
59146		7.553776	-5.389834	-3.259238	0.083021	0.011822	0.023906	-0.254395	0.704102	0.151855	0.524107	-0.694990	-0.438440	-0.223764
59147		7.450000	-5.366565	-3.238459	0.079033	0.016070	0.019065	-0.243652	0.704346	0.143799	0.524581	-0.694728	-0.438407	-0.223532
59148		7.467596	-5.491356	-3.162635	0.077338	0.007077	0.017606	-0.245117	0.708252	0.146484	0.525078	-0.694526	-0.438304	-0.223194
59149		7.613277	-5.354277	-3.248775	0.085685	0.003399	0.016367	-0.242920	0.705811	0.139893	0.525573	-0.694321	-0.438220	-0.222835
59150		7.545684	-5.453288	-3.253075	0.033789	0.027288	0.021656	-0.245850	0.708984	0.141357	0.525931	-0.694256	-0.437947	-0.222729
59151		7.494037	-5.263806	-3.287414	0.018600	0.041750	0.022108	-0.243408	0.714111	0.145996	0.526246	-0.694218	-0.437610	-0.222766
59152		7.098384	-5.307091	-3.273816	0.010592	0.047077	0.027039	-0.241211	0.706299	0.140625	0.526478	-0.694331	-0.437089	-0.222885
59153		7.640554	-5.175457	-3.270267	0.031089	0.038960	0.032554	-0.244873	0.702148	0.132080	0.526856	-0.694333	-0.436658	-0.222830
59154		7.690688	-5.484437	-3.421000	0.061762	0.036544	0.036365	-0.238037	0.709961	0.143799	0.527525	-0.694035	-0.436467	-0.222549
59155		7.561393	-5.669890	-3.520778	0.155538	0.003477	0.024621	-0.238770	0.714600	0.138672	0.528415	-0.693628	-0.436361	-0.221914
59156		7.617233	-5.294071	-3.686106	0.128684	0.037780	0.035408	-0.240479	0.715088	0.125000	0.529352	-0.693254	-0.436041	-0.221479
59157		7.456167	-5.526699	-3.458058	0.054474	0.098412	0.042109	-0.235596	0.720215	0.136475	0.530260	-0.692919	-0.435454	-0.221509
59158		7.654169	-5.304024	-3.295490	0.051926	0.105569	0.039150	-0.239746	0.712891	0.131836	0.531002	-0.692811	-0.434616	-0.221718
59159		7.502135	-5.426344	-2.912029	0.015797	0.122192	0.045845	-0.238770	0.715088	0.128906	0.531651	-0.692736	-0.433743	-0.222108
59160		7.282073	-5.671482	-3.002463	0.079728	0.079180	0.036578	-0.244629	0.715088	0.124512	0.532527	-0.692403	-0.433236	-0.222034
59161		7.255662	-5.710486	-2.970685	0.076909	0.060418	0.030211	-0.237061	0.718994	0.130615	0.533366	-0.691969	-0.432990	-0.221855
59162		7.283164	-5.787114	-2.950341	0.102683	0.032274	0.020698	-0.241211	0.723389	0.120361	0.534128	-0.691629	-0.432763	-0.221523
59163		7.314230	-5.604237	-2.865635	0.115229	0.003604	0.008112	-0.235107	0.716797	0.128174	0.534969	-0.691075	-0.432906	-0.220945
59164		7.516184	-5.469765	-2.981953	0.095695	0.004586	0.008728	-0.226074	0.716797	0.124512	0.535556	-0.690789	-0.432841	-0.220542
59165		7.392301	-5.608556	-2.916973	0.044558	0.020947	0.011943	-0.237549	0.716064	0.125977	0.535923	-0.690790	-0.432464	-0.220388
59166		7.533234	-5.695333	-2.874907	0.065935	-0.000286	0.004576	-0.239502	0.716797	0.121338	0.536323	-0.690588	-0.432443	-0.220087
59167		7.497692	-5.649087	-3.069216	0.101248	-0.018112	-0.001854	-0.235596	0.722412	0.122314	0.536904	-0.690166	-0.432667	-0.219553
59168		7.413869	-5.699451	-3.016662	0.171779	-0.050395	-0.011477	-0.232422	0.713623	0.122803	0.537733	-0.689528	-0.433126	-0.218625
59169		7.514290	-5.425842	-3.081744	0.231868	-0.086205	-0.018477	-0.234619	0.726562	0.116211	0.538711	-0.688712	-0.433850	-0.217349
59170		7.756423	-5.057762	-3.195056	0.174669	-0.041992	-0.002067	-0.235596	0.721436	0.113525	0.539625	-0.688072	-0.434202	-0.216403
59171		7.461844	-5.564466	-2.979911	0.052699	0.019688	0.017941	-0.232666	0.716553	0.115723	0.540097	-0.687912	-0.433983	-0.216173
59172		7.179045	-5.961682	-2.769223	0.094580	-0.028521	0.001224	-0.231934	0.714355	0.111816	0.540558	-0.687644	-0.434109	-0.215621
59173		7.362487	-5.848161	-2.699194	0.168462	-0.075738	-0.022345	-0.235840	0.717529	0.113281	0.541255	-0.687014	-0.434730	-0.214627
59174		7.461120	-5.754705	-2.889616	0.185207	-0.064332	-0.025084	-0.216309	0.729980	0.118164	0.542063	-0.686267	-0.435379	-0.213660
59175		7.461187	-5.716252	-3.040678	0.184229	-0.058527	-0.030403	-0.224609	0.717529	0.108398	0.542781	-0.685809	-0.435637	-0.212780
59176		7.292052	-5.949713	-2.864676	0.128949	-0.032641	-0.035687	-0.231934	0.721191	0.105225	0.543346	-0.685346	-0.435913	-0.212264
59177		7.299134	-5.914274	-2.768293	0.172809	-0.060921	-0.050243	-0.228027	0.724854	0.105469	0.544070	-0.684589	-0.436580	-0.211481
59178		7.416428	-5.711066	-2.915104	0.201477	-0.069835	-0.059380	-0.239990	0.724609	0.102295	0.544878	-0.683765	-0.437287	-0.210602
59179		7.478059	-5.660961	-2.910033	0.169869	-0.070506	-0.059289	-0.229004	0.722412	0.104004	0.545537	-0.682936	-0.438138	-0.209817
59180		7.488912	-5.656962	-2.868964	0.176518	-0.084607	-0.060479	-0.242188	0.725830	0.098389	0.546118	-0.682254	-0.438885	-0.208962
59181		7.494980	-5.541517	-2.900807	0.149691	-0.081553	-0.057423	-0.233887	0.718750	0.101074	0.546627	-0.681528	-0.439749	-0.208182
59182		7.483612	-5.546577	-3.055081	0.195710	-0.104742	-0.061573	-0.237305	0.719971	0.100098	0.547243	-0.680721	-0.440723	-0.207139
59183		7.785600	-5.032416	-3.252646	0.173942	-0.083488	-0.044456	-0.239990	0.722656	0.086426	0.547840	-0.680013	-0.441507	-0.206216
59184		7.558052	-5.445760	-3.343883	0.056039	-0.010992	-0.014633	-0.232422	0.717285	0.089111	0.548200	-0.679726	-0.441612	-0.205980
59185		7.531605	-5.607878	-3.100053	0.058065	0.008324	-0.006587	-0.236816	0.718018	0.093262	0.548607	-0.679517	-0.441501	-0.205823
59186		7.686833	-5.287122	-2.897145	0.009622	0.045387	0.011570	-0.240723	0.722412	0.092529	0.548872	-0.679514	-0.441108	-0.205971
59187		7.437987	-5.747902	-2.584822	-0.001163	0.033931	0.018926	-0.231445	0.720215	0.091309	0.549058	-0.679575	-0.440742	-0.206058
59188		7.389397	-5.857261	-2.612691	0.123050	-0.041590	-0.004811	-0.228271	0.718506	0.104492	0.549621	-0.679198	-0.440934	-0.205388
59189		7.627705	-5.272529	-3.014072	0.147720	-0.053542	-0.003143	-0.236572	0.719482	0.088623	0.550151	-0.678850	-0.441185	-0.204577
59190		7.737217	-5.202833	-3.088433	0.003536	0.029305	0.035333	-0.235352	0.728760	0.090820	0.550377	-0.678976	-0.440722	-0.204552
59191		7.543645	-5.509305	-3.084757	-0.054013	0.071871	0.055575	-0.232666	0.734619	0.097412	0.550443	-0.679436	-0.439758	-0.204919
59192		7.477319	-5.596899	-2.942906	-0.000046	0.050446	0.051057	-0.230957	0.716797	0.085938	0.550670	-0.679758	-0.438929	-0.205019
59193		7.504376	-5.474198	-2.796257	-0.010884	0.055636	0.058484	-0.232422	0.722168	0.089844	0.550964	-0.680000	-0.438149	-0.205096
59194		7.498923	-5.604924	-2.907741	-0.060276	0.087130	0.070984	-0.229004	0.719482	0.092529	0.551082	-0.680484	-0.437065	-0.205487
59195		7.461618	-5.644062	-3.057147	-0.076627	0.098172	0.082040	-0.229736	0.725830	0.098145	0.551144	-0.681087	-0.435827	-0.205949
59196		7.391831	-5.657141	-3.101152	-0.054480	0.102965	0.082804	-0.229004	0.718018	0.085449	0.551309	-0.681623	-0.434580	-0.206371
59197		7.483220	-5.627857	-3.061485	-0.073502	0.107899	0.081908	-0.233643	0.732910	0.090332	0.551489	-0.682116	-0.433342	-0.206861
59198		7.414215	-5.793411	-2.794657	-0.064547	0.109676	0.080676	-0.223389	0.714844	0.094727	0.551687	-0.682606	-0.432071	-0.207377
59199		7.286727	-5.932102	-2.783875	0.028599	0.066083	0.062692	-0.229004	0.725830	0.094727	0.552192	-0.682692	-0.431305	-0.207345
59200		7.489007	-5.745756	-2.785051	0.038121	0.074625	0.056862	-0.225586	0.721924	0.092773	0.552771	-0.682691	-0.430550	-0.207376
59201		7.281766	-5.923373	-2.863070	-0.027047	0.121936	0.072379	-0.213867	0.727051	0.088379	0.553183	-0.682962	-0.429369	-0.207831
59202		7.219094	-5.898037	-2.752492	0.032067	0.089164	0.057762	-0.224365	0.729980	0.088135	0.553792	-0.683110	-0.428244	-0.208045
59203		7.525354	-5.597117	-2.608160	-0.000046	0.087949	0.054775	-0.219727	0.724854	0.089600	0.554223	-0.683283	-0.427264	-0.208342
59204		7.258301	-6.119710	-2.604051	-0.016443	0.081616	0.052823	-0.225098	0.725342	0.080811	0.554518	-0.683554	-0.426291	-0.208660
59205		7.125913	-6.247922	-2.500041	0.114632	-0.001265	0.024358	-0.215576	0.722900	0.096191	0.555291	-0.683155	-0.426174	-0.208150
59206		7.294652	-6.034400	-2.520592	0.169612	-0.042646	0.002417	-0.212646	0.729248	0.082031	0.556057	-0.682650	-0.426387	-0.207324
59207		7.402386	-5.724092	-2.512637	0.132301	-0.042552	0.001236	-0.215576	0.735840	0.078369	0.556678	-0.682351	-0.426346	-0.206725
59208		7.242264	-6.015435	-2.527739	0.089370	-0.031633	0.000227	-0.220459	0.738037	0.080566	0.557097	-0.682242	-0.426134	-0.206395
59209		7.166550	-6.202181	-2.593406	0.136628	-0.077508	-0.025130	-0.219238	0.731689	0.080566	0.557559	-0.681873	-0.426436	-0.205743
59210		7.280990	-5.958185	-2.557718	0.164134	-0.100315	-0.041816	-0.222900	0.726318	0.072998	0.558068	-0.681318	-0.427065	-0.204892
59211		7.333894	-5.703560	-2.710734	0.106552	-0.077571	-0.039334	-0.216064	0.735107	0.081055	0.558394	-0.680888	-0.427608	-0.204302
59212		7.488983	-5.504175	-2.833717	0.004036	-0.020949	-0.025654	-0.217285	0.725830	0.077881	0.558264	-0.681090	-0.427382	-0.204457
59213		7.548438	-5.573069	-2.633917	-0.096933	0.026011	-0.008839	-0.209961	0.736084	0.077881	0.557804	-0.681626	-0.426835	-0.205067
59214		7.200931	-6.139590	-2.793714	-0.028413	-0.019312	-0.024848	-0.218506	0.729736	0.082520	0.557493	-0.682083	-0.426324	-0.205456
59215		7.363380	-5.822184	-2.896805	0.044775	-0.059970	-0.039159	-0.219238	0.731201	0.076416	0.557448	-0.682036	-0.426558	-0.205247
59216		7.512250	-5.512463	-2.820924	-0.091257	0.016960	-0.014193	-0.216797	0.730225	0.090332	0.556970	-0.682588	-0.425987	-0.205894
59217		7.473943	-5.755328	-2.713254	-0.096424	0.029893	-0.003798	-0.216797	0.732910	0.074951	0.556455	-0.683207	-0.425361	-0.206529
59218		7.546465	-5.754460	-2.760378	-0.027764	-0.008465	-0.016574	-0.218018	0.727295	0.091309	0.556240	-0.683566	-0.424881	-0.206906
59219		7.530924	-5.651655	-2.918204	0.004483	-0.004067	-0.004888	-0.219727	0.728271	0.080078	0.556196	-0.683710	-0.424689	-0.206942
59220		7.508467	-5.580492	-2.879194	0.000492	0.020060	0.012342	-0.220459	0.730957	0.078613	0.556299	-0.683882	-0.424193	-0.207114
59221		7.420860	-5.849007	-2.779957	-0.008484	0.028189	0.022106	-0.221924	0.726807	0.083008	0.556391	-0.684139	-0.423538	-0.207360
59222		7.323196	-5.939376	-2.588296	0.043331	-0.006080	0.010008	-0.207520	0.729736	0.077148	0.556646	-0.684075	-0.423406	-0.207156
59223		7.318765	-5.845543	-2.537634	0.043124	-0.013134	0.003354	-0.216797	0.735596	0.083008	0.556822	-0.684265	-0.422838	-0.207216
59224		7.299773	-5.821467	-2.630143	-0.022199	0.007542	0.008715	-0.216064	0.736816	0.088379	0.556678	-0.684681	-0.422193	-0.207542
59225		7.325249	-5.902069	-2.564754	-0.099293	0.024474	0.007449	-0.218994	0.734375	0.080322	0.556119	-0.685444	-0.421346	-0.208243
59226		7.213759	-6.032170	-2.628522	-0.100853	0.013756	-0.002002	-0.215820	0.730957	0.090088	0.555558	-0.686125	-0.420645	-0.208913
59227		7.263719	-5.970600	-2.720712	-0.058088	-0.019497	-0.019401	-0.203369	0.732178	0.082520	0.555071	-0.686584	-0.420380	-0.209237
59228		7.375599	-5.818462	-2.718688	-0.128585	0.012337	-0.025976	-0.212158	0.733887	0.083008	0.554243	-0.687543	-0.419360	-0.210322
59229		7.180782	-6.085844	-2.699406	-0.141448	0.013940	-0.030783	-0.214355	0.729736	0.088867	0.553359	-0.688442	-0.418506	-0.211411
59230		7.272019	-5.980796	-2.854001	-0.076353	-0.027228	-0.049431	-0.212891	0.733154	0.094971	0.552694	-0.688927	-0.418308	-0.211961
59231		7.553631	-5.552753	-3.092593	-0.100388	-0.008690	-0.038682	-0.221436	0.728760	0.090576	0.551918	-0.689621	-0.417796	-0.212734
59232		7.595284	-5.245125	-3.156927	-0.154519	0.039985	-0.013141	-0.216064	0.723877	0.088379	0.551142	-0.690340	-0.417170	-0.213642
59233		7.396717	-5.777222	-3.125665	-0.107129	0.046058	-0.001097	-0.214844	0.730225	0.097412	0.550701	-0.690884	-0.416472	-0.214381
59234		7.587775	-5.554222	-2.983597	0.008757	-0.002346	-0.000476	-0.228027	0.732666	0.093506	0.550674	-0.691117	-0.416031	-0.214555
59235		7.558852	-5.676124	-2.721704	-0.027819	0.016105	0.005908	-0.222656	0.724854	0.088379	0.550575	-0.691319	-0.415718	-0.214767
59236		7.258216	-6.180293	-2.753171	-0.021877	0.016302	0.005027	-0.216553	0.732910	0.095947	0.550566	-0.691434	-0.415467	-0.214903
59237		7.202443	-5.942943	-2.860335	0.026317	-0.007670	-0.010994	-0.216797	0.731445	0.096436	0.550601	-0.691569	-0.415113	-0.215064
59238		7.406510	-5.476191	-2.848222	-0.017448	0.012732	-0.002115	-0.224854	0.724365	0.093750	0.550482	-0.691859	-0.414609	-0.215404
59239		7.490830	-5.494584	-2.829537	-0.092073	0.054681	0.014149	-0.218018	0.729248	0.100830	0.550225	-0.692178	-0.414192	-0.215840
59240		7.365522	-6.058388	-2.748761	-0.066506	0.040132	0.012844	-0.216797	0.724609	0.084961	0.549965	-0.692608	-0.413566	-0.216320
59241		7.285044	-6.085350	-2.762385	0.020825	-0.009597	-0.009557	-0.215088	0.729492	0.095703	0.550078	-0.692615	-0.413393	-0.216345
59242		7.298365	-5.964002	-2.887110	0.078410	-0.039937	-0.017788	-0.210449	0.727051	0.094727	0.550324	-0.692481	-0.413418	-0.216099
59243		7.498923	-5.574573	-2.873831	0.034041	-0.019249	-0.015020	-0.218262	0.733643	0.093018	0.550389	-0.692551	-0.413195	-0.216135
59244		7.576442	-5.424131	-2.914647	-0.044847	0.031175	0.008645	-0.219971	0.727295	0.096191	0.550200	-0.692975	-0.412460	-0.216660
59245		7.401056	-5.895935	-2.981458	-0.014241	0.028676	0.005377	-0.206787	0.729736	0.092285	0.550236	-0.693074	-0.412149	-0.216848
59246		7.410136	-5.803884	-3.049604	0.052048	0.000148	0.000931	-0.209961	0.726562	0.087402	0.550467	-0.693195	-0.411550	-0.217012
59247		7.482618	-5.499806	-3.100125	0.069270	0.011223	0.012593	-0.223389	0.729980	0.094727	0.550913	-0.693141	-0.411044	-0.217011
59248		7.725629	-5.210155	-3.164502	0.040984	0.047043	0.040514	-0.220947	0.731445	0.096924	0.551395	-0.693041	-0.410611	-0.216926
59249		7.616164	-5.425719	-3.040168	-0.025993	0.110472	0.069933	-0.207764	0.730225	0.094971	0.551731	-0.693287	-0.409519	-0.217350
59250		7.353942	-5.765212	-2.859903	-0.045162	0.123078	0.076295	-0.205566	0.729980	0.091309	0.551961	-0.693810	-0.407920	-0.218103
59251		7.304186	-5.977546	-2.794169	0.002882	0.102930	0.069925	-0.209961	0.738281	0.087158	0.552392	-0.694148	-0.406464	-0.218651
59252		7.410024	-5.820164	-2.545854	-0.006112	0.107303	0.067946	-0.206787	0.736084	0.091553	0.552738	-0.694604	-0.404798	-0.219420
59253		7.138833	-6.051288	-2.425141	-0.022493	0.101122	0.069184	-0.204834	0.730469	0.099609	0.552965	-0.695129	-0.403183	-0.220155
59254		7.137827	-6.240934	-2.544228	0.047954	0.047137	0.042453	-0.205322	0.742432	0.092529	0.553410	-0.695197	-0.402407	-0.220242
59255		7.252495	-5.913409	-2.666370	0.062543	0.027885	0.031274	-0.206543	0.741943	0.093262	0.553742	-0.695473	-0.401263	-0.220624
59256		7.384947	-5.746110	-2.832615	-0.002357	0.066124	0.037069	-0.207031	0.735107	0.091309	0.553844	-0.695952	-0.399883	-0.221362
59257		7.302766	-5.974430	-2.847158	-0.047046	0.100362	0.042320	-0.208008	0.738525	0.087402	0.553903	-0.696401	-0.398563	-0.222182
59258		7.288134	-6.172074	-2.788138	0.003859	0.077677	0.028029	-0.199219	0.734131	0.076660	0.554129	-0.696678	-0.397371	-0.222884
59259		7.385244	-5.820091	-2.615841	0.028958	0.068179	0.017733	-0.191895	0.746826	0.088135	0.554458	-0.696918	-0.396054	-0.223657
59260		7.306018	-5.960258	-2.610793	-0.011607	0.079189	0.023929	-0.200195	0.735107	0.078857	0.554347	-0.697794	-0.393811	-0.225158
59261		7.188316	-6.148709	-2.566611	0.012388	0.056647	0.008902	-0.195557	0.738525	0.083252	0.554513	-0.698074	-0.392639	-0.225926
59262		7.211249	-6.038205	-2.530284	0.022459	0.043919	-0.001698	-0.191895	0.740479	0.098633	0.554582	-0.698463	-0.391319	-0.226843
59263		7.320492	-6.043963	-2.460354	0.014919	0.039447	-0.008412	-0.194092	0.748779	0.079346	0.554509	-0.698922	-0.390044	-0.227801
59264		7.296015	-5.961671	-2.510070	-0.013609	0.046145	-0.017880	-0.189941	0.736084	0.085205	0.554190	-0.699703	-0.388186	-0.229348
59265		7.272084	-6.025268	-2.466257	-0.032885	0.042690	-0.017316	-0.192383	0.741211	0.088135	0.553928	-0.700213	-0.387014	-0.230402
59266		7.199683	-6.118848	-2.445495	-0.023442	0.029582	-0.038550	-0.201172	0.739746	0.089111	0.553608	-0.700648	-0.386054	-0.231456
59267		7.325027	-5.999570	-2.556006	0.015497	-0.000891	-0.050152	-0.201904	0.740723	0.089111	0.553523	-0.700645	-0.385939	-0.231863
59268		7.419508	-5.788671	-2.580816	-0.019914	0.010458	-0.045902	-0.200684	0.738281	0.083984	0.553280	-0.700785	-0.385702	-0.232413
59269		7.376623	-5.861443	-2.535231	-0.071649	0.035409	-0.040361	-0.208984	0.746094	0.095215	0.552856	-0.701099	-0.385254	-0.233215
59270		7.261073	-6.091328	-2.482844	-0.044671	0.011800	-0.049337	-0.201660	0.742676	0.091797	0.552469	-0.701294	-0.385107	-0.233791
59271		7.263759	-6.060688	-2.513396	0.011709	-0.035507	-0.066312	-0.199707	0.741943	0.092773	0.552222	-0.701312	-0.385261	-0.234065
59272		7.362476	-5.881286	-2.531923	0.012017	-0.047253	-0.077939	-0.199219	0.738037	0.092285	0.551919	-0.701315	-0.385533	-0.234323
59273		7.264977	-5.975346	-2.419996	-0.038550	-0.044447	-0.077449	-0.210693	0.745117	0.091553	0.551369	-0.701481	-0.385811	-0.234664
59274		7.345716	-5.989892	-2.442646	-0.001380	-0.075829	-0.088306	-0.207520	0.731445	0.090332	0.550911	-0.701480	-0.386430	-0.234722
59275		7.410630	-5.853446	-2.502436	0.008250	-0.087252	-0.097374	-0.202637	0.735596	0.094727	0.550557	-0.701261	-0.387473	-0.234489
59276		7.292415	-6.033292	-2.636775	-0.005887	-0.090938	-0.096505	-0.208252	0.736816	0.093018	0.550040	-0.701246	-0.388252	-0.234457
59277		7.306440	-5.953755	-2.678800	0.028047	-0.118511	-0.106263	-0.206055	0.740723	0.091309	0.549624	-0.701070	-0.389338	-0.234162
59278		7.468626	-5.664390	-2.743068	0.018198	-0.114475	-0.107199	-0.211914	0.740723	0.096191	0.549119	-0.701013	-0.390218	-0.234049
59279		7.544333	-5.554751	-2.823804	-0.010307	-0.093828	-0.096734	-0.212891	0.729736	0.097412	0.548555	-0.701022	-0.391016	-0.234015
59280		7.552323	-5.627173	-2.806191	-0.044439	-0.067283	-0.082747	-0.218018	0.741943	0.096191	0.547976	-0.701046	-0.391793	-0.233996
59281		7.459911	-5.804084	-2.792648	-0.053735	-0.055284	-0.077443	-0.214600	0.738525	0.093750	0.547326	-0.701224	-0.392249	-0.234221
59282		7.482050	-5.670319	-2.695661	-0.040260	-0.054205	-0.069518	-0.219727	0.730713	0.097656	0.546780	-0.701367	-0.392661	-0.234378
59283		7.529655	-5.629068	-2.857894	-0.024311	-0.065409	-0.061829	-0.221191	0.724854	0.101562	0.546361	-0.701365	-0.393343	-0.234217
59284		7.580848	-5.412007	-2.935521	-0.038518	-0.060461	-0.054420	-0.220215	0.734131	0.104980	0.545912	-0.701390	-0.394036	-0.234025
59285		7.578893	-5.468209	-2.931329	-0.086661	-0.044045	-0.036129	-0.221436	0.721436	0.103760	0.545213	-0.701770	-0.394253	-0.234151
59286		7.441116	-5.691937	-2.847678	-0.078059	-0.059295	-0.033834	-0.225098	0.738770	0.103760	0.544571	-0.702047	-0.394725	-0.234017
59287		7.510242	-5.551171	-2.830032	-0.060568	-0.076412	-0.034014	-0.213135	0.729004	0.103516	0.543907	-0.702404	-0.395074	-0.233902
59288		7.523141	-5.599705	-2.759514	-0.078590	-0.056821	-0.021547	-0.219238	0.724854	0.096924	0.543241	-0.702845	-0.395210	-0.233897
59289		7.440959	-5.760527	-2.786479	-0.094321	-0.043348	-0.015872	-0.208496	0.725830	0.106201	0.542565	-0.703295	-0.395316	-0.233935
59290		7.293879	-5.955839	-2.699069	-0.066182	-0.054663	-0.027912	-0.219482	0.730225	0.099854	0.541966	-0.703661	-0.395482	-0.233939
59291		7.274687	-6.051727	-2.661891	-0.023053	-0.082807	-0.041352	-0.222168	0.725342	0.104248	0.541507	-0.703822	-0.395978	-0.233681
59292		7.226614	-5.912311	-2.798339	-0.004688	-0.092470	-0.049953	-0.220703	0.726807	0.111084	0.541117	-0.703854	-0.396679	-0.233297
59293		7.377906	-5.691493	-2.784160	-0.027119	-0.084934	-0.057248	-0.222412	0.736328	0.111816	0.540591	-0.703970	-0.397313	-0.233089
59294		7.521799	-5.570236	-2.904059	-0.064774	-0.055934	-0.052605	-0.221680	0.727539	0.102539	0.539927	-0.704259	-0.397628	-0.233215
59295		7.509902	-5.705092	-2.999764	-0.079195	-0.048366	-0.046380	-0.223877	0.731934	0.110107	0.539244	-0.704580	-0.397900	-0.233361
59296		7.498055	-5.708829	-2.895884	-0.086054	-0.041516	-0.048568	-0.220459	0.723145	0.120605	0.538523	-0.704929	-0.398119	-0.233601
59297		7.430655	-5.673242	-2.845501	-0.098431	-0.037358	-0.050432	-0.217285	0.728027	0.106201	0.537741	-0.705300	-0.398353	-0.233883
59298		7.359003	-5.742931	-2.743020	-0.091653	-0.046633	-0.057965	-0.219971	0.728271	0.121582	0.536961	-0.705662	-0.398600	-0.234161
59299		7.373247	-5.833616	-2.840500	-0.075179	-0.066142	-0.067258	-0.218994	0.723877	0.117676	0.536177	-0.705959	-0.399042	-0.234311
59300		7.246970	-5.959008	-2.892551	-0.078812	-0.074346	-0.081679	-0.223633	0.722168	0.112305	0.535328	-0.706227	-0.399612	-0.234475
59301		7.398758	-5.701032	-2.985357	-0.109713	-0.063913	-0.088811	-0.227783	0.721436	0.121094	0.534328	-0.706568	-0.400145	-0.234818
59302		7.382308	-5.660651	-3.019851	-0.131814	-0.050321	-0.089882	-0.234375	0.727051	0.117920	0.533230	-0.706973	-0.400601	-0.235319
59303		7.682950	-5.228483	-3.202528	-0.128210	-0.035769	-0.083646	-0.235352	0.706787	0.124512	0.532211	-0.707356	-0.400949	-0.235880
59304		7.534261	-5.518869	-3.239976	-0.189088	0.007247	-0.062796	-0.222168	0.715332	0.125977	0.531029	-0.707940	-0.400974	-0.236745
59305		7.301226	-6.066574	-3.145852	-0.130484	-0.038503	-0.063340	-0.234863	0.723145	0.126709	0.530028	-0.708420	-0.401180	-0.237204
59306		7.518295	-5.419674	-3.229746	-0.059292	-0.056952	-0.072290	-0.231445	0.718018	0.128174	0.529359	-0.708584	-0.401677	-0.237368
59307		7.593415	-5.373006	-3.184378	-0.113290	-0.026521	-0.058898	-0.229492	0.718262	0.135986	0.528502	-0.708970	-0.401852	-0.237827
59308		7.277478	-5.808231	-3.080168	-0.036867	-0.060392	-0.064179	-0.235596	0.718750	0.132568	0.527960	-0.709085	-0.402338	-0.237865
59309		7.357258	-5.424320	-3.147819	0.019683	-0.086676	-0.077384	-0.236084	0.723389	0.128906	0.527642	-0.708945	-0.403150	-0.237614
59310		7.506208	-5.595675	-3.086389	-0.033282	-0.051973	-0.077109	-0.234131	0.714844	0.130371	0.527132	-0.708975	-0.403683	-0.237751
59311		7.308299	-5.652303	-3.073130	-0.035290	-0.064885	-0.088668	-0.230469	0.719971	0.137207	0.526547	-0.708993	-0.404353	-0.237858
59312		7.362843	-5.405881	-3.012768	-0.005573	-0.084880	-0.100689	-0.239502	0.706543	0.137207	0.526033	-0.708907	-0.405196	-0.237817
59313		7.486743	-5.283859	-3.198571	0.027804	-0.102132	-0.104840	-0.243896	0.716064	0.129883	0.525648	-0.708657	-0.406278	-0.237565
59314		7.713964	-5.140161	-3.353426	-0.023132	-0.081495	-0.088785	-0.240967	0.711426	0.134766	0.525074	-0.708644	-0.407055	-0.237546
59315		7.581320	-5.440642	-3.384927	-0.052147	-0.048567	-0.075083	-0.242188	0.708496	0.140381	0.524459	-0.708748	-0.407541	-0.237762
59316		7.547998	-5.487154	-3.495779	0.009783	-0.067430	-0.081521	-0.249512	0.709961	0.130127	0.524120	-0.708602	-0.408268	-0.237694
59317		7.591571	-5.180300	-3.324718	-0.029844	-0.033772	-0.069435	-0.247803	0.709229	0.147949	0.523703	-0.708577	-0.408726	-0.237899
59318		7.642741	-5.126056	-3.292826	-0.080014	0.006836	-0.048087	-0.249023	0.708984	0.136230	0.523130	-0.708804	-0.408742	-0.238457
59319		7.542760	-5.438401	-3.251600	-0.051098	-0.012198	-0.051822	-0.241211	0.706787	0.134521	0.522685	-0.708903	-0.408941	-0.238796
59320		7.528092	-5.438095	-3.325646	-0.013531	-0.023592	-0.053802	-0.248047	0.713379	0.143066	0.522431	-0.708862	-0.409257	-0.238934
59321		7.538396	-5.363880	-3.295850	-0.062475	0.008748	-0.041741	-0.245117	0.708496	0.149170	0.521997	-0.709026	-0.409249	-0.239408
59322		7.521061	-5.449314	-3.282881	-0.074145	0.027051	-0.039507	-0.250000	0.696533	0.141846	0.521547	-0.709226	-0.409113	-0.240028
59323		7.625701	-5.263928	-3.308189	-0.035193	0.005085	-0.038323	-0.257812	0.709717	0.137207	0.521269	-0.709269	-0.409191	-0.240370
59324		7.563290	-5.356962	-3.306435	-0.046336	0.012282	-0.035018	-0.243652	0.703857	0.144531	0.520969	-0.709346	-0.409199	-0.240781
59325		7.490862	-5.503158	-3.382435	-0.032432	0.017601	-0.028885	-0.242920	0.706299	0.139404	0.520771	-0.709410	-0.409127	-0.241141
59326		7.631399	-5.221269	-3.338642	-0.043373	0.030764	-0.026004	-0.245361	0.708008	0.141357	0.520578	-0.709494	-0.408966	-0.241587
59327		7.678869	-5.341633	-3.298029	-0.039371	0.035349	-0.022820	-0.256348	0.710205	0.143799	0.520424	-0.709564	-0.408771	-0.242041
59328		7.503680	-5.456644	-3.279527	-0.004459	0.013068	-0.028862	-0.246826	0.706543	0.147217	0.520374	-0.709499	-0.408794	-0.242300
59329		7.326600	-5.502865	-3.336800	-0.030909	0.031770	-0.024003	-0.244629	0.709473	0.144531	0.520238	-0.709550	-0.408626	-0.242727
59330		7.359743	-5.429856	-3.109637	-0.070709	0.037278	-0.032436	-0.249023	0.707764	0.148438	0.519881	-0.709730	-0.408401	-0.243343
59331		7.429045	-5.453974	-2.932581	-0.061449	0.023387	-0.036434	-0.253662	0.705078	0.153809	0.519510	-0.709886	-0.408281	-0.243881
59332		7.577723	-5.452843	-2.978519	0.012712	-0.026398	-0.062428	-0.250488	0.706787	0.144043	0.519337	-0.709739	-0.408680	-0.244009
59333		7.520706	-5.367948	-3.210401	0.004726	-0.036292	-0.069891	-0.249512	0.700928	0.141602	0.519103	-0.709599	-0.409165	-0.244101
59334		7.416021	-5.332494	-3.251978	-0.060724	-0.011591	-0.068133	-0.251221	0.706543	0.146240	0.518576	-0.709691	-0.409406	-0.244548
59335		7.304698	-5.572314	-3.137855	-0.084815	0.004381	-0.075072	-0.248779	0.707764	0.156738	0.517937	-0.709844	-0.409554	-0.245211
59336		7.426361	-5.386323	-3.102553	-0.062618	-0.036685	-0.086873	-0.245605	0.707764	0.150879	0.517238	-0.709977	-0.409960	-0.245622
59337		7.625803	-5.287839	-3.321360	-0.031290	-0.040259	-0.085783	-0.256836	0.702881	0.155518	0.516740	-0.709972	-0.410448	-0.245870
59338		7.706279	-5.228711	-3.361392	-0.036242	-0.051215	-0.087469	-0.252441	0.700928	0.150391	0.516147	-0.709997	-0.411000	-0.246119
59339		7.661270	-5.336622	-3.306981	-0.064920	-0.025094	-0.075181	-0.255859	0.701416	0.151611	0.515523	-0.710124	-0.411314	-0.246539
59340		7.572106	-5.343836	-3.157546	-0.067112	-0.021069	-0.088042	-0.255615	0.699463	0.156738	0.514869	-0.710204	-0.411685	-0.247053
59341		7.577644	-5.059278	-3.138151	-0.074230	-0.010719	-0.091896	-0.256836	0.702881	0.152344	0.514187	-0.710295	-0.412006	-0.247679
59342		7.557444	-5.056062	-3.094059	-0.101931	-0.000498	-0.088877	-0.261475	0.696045	0.154541	0.513403	-0.710476	-0.412218	-0.248430
59343		7.596755	-5.322309	-3.300213	-0.099782	-0.012407	-0.083971	-0.255371	0.708008	0.156494	0.512590	-0.710684	-0.412466	-0.249103
59344		7.423834	-5.585159	-3.590448	-0.054681	-0.068041	-0.086785	-0.260986	0.693848	0.148682	0.511858	-0.710823	-0.413032	-0.249271
59345		7.545213	-5.163199	-3.521290	-0.013357	-0.087520	-0.098756	-0.258789	0.698730	0.159424	0.511298	-0.710742	-0.413885	-0.249238
59346		7.511467	-5.210384	-3.229826	0.008443	-0.083052	-0.093312	-0.259033	0.697754	0.160645	0.510860	-0.710620	-0.414690	-0.249146
59347		7.650261	-5.176178	-3.217235	0.028841	-0.110120	-0.095337	-0.272705	0.699219	0.157471	0.510441	-0.710463	-0.415662	-0.248833
59348		7.750645	-4.941365	-3.142289	0.020304	-0.107893	-0.093137	-0.267822	0.695801	0.155762	0.509989	-0.710311	-0.416622	-0.248587
59349		7.659097	-5.184686	-3.296193	0.010196	-0.115554	-0.088492	-0.267334	0.698242	0.161133	0.509470	-0.710235	-0.417564	-0.248290
59350		7.390368	-5.375100	-3.507463	0.020070	-0.128375	-0.098160	-0.272461	0.694336	0.169678	0.508926	-0.710129	-0.418617	-0.247931
59351		7.503657	-4.997061	-3.547703	-0.029378	-0.088875	-0.093116	-0.274658	0.692871	0.160400	0.508199	-0.710189	-0.419357	-0.248000
59352		7.520945	-5.222662	-3.439566	-0.057880	-0.067918	-0.094018	-0.268555	0.695801	0.170410	0.507415	-0.710281	-0.419990	-0.248270
59353		7.639462	-4.990626	-3.301927	0.005180	-0.100264	-0.101574	-0.268311	0.694092	0.171143	0.506845	-0.710195	-0.420891	-0.248157
59354		7.687331	-4.928963	-3.444648	0.091456	-0.146724	-0.106945	-0.270752	0.692383	0.162842	0.506610	-0.709821	-0.422198	-0.247485
59355		7.771835	-5.382490	-3.940932	0.133831	-0.158599	-0.101819	-0.273193	0.687256	0.157471	0.506626	-0.709274	-0.423641	-0.246554
59356		7.754164	-4.910124	-3.853267	-0.011808	-0.068339	-0.073678	-0.274414	0.686523	0.171143	0.506172	-0.709230	-0.424259	-0.246549
59357		7.419170	-5.118919	-3.577989	-0.101769	-0.006366	-0.062862	-0.271240	0.693848	0.163574	0.505368	-0.709528	-0.424326	-0.247226
59358		7.497927	-5.259715	-3.365271	-0.006660	-0.050771	-0.079338	-0.281250	0.681396	0.165527	0.504984	-0.709433	-0.424887	-0.247319
59359		7.846351	-4.821347	-3.331736	0.068994	-0.094220	-0.090506	-0.281250	0.685303	0.158447	0.504850	-0.709051	-0.425876	-0.246987
59360		7.830180	-4.718350	-3.593808	0.044799	-0.065990	-0.069904	-0.282959	0.685791	0.171143	0.504750	-0.708763	-0.426588	-0.246792
59361		7.511663	-5.167068	-3.716913	0.031539	-0.060004	-0.057624	-0.281494	0.683594	0.169678	0.504561	-0.708613	-0.427131	-0.246668
59362		7.600820	-4.839688	-3.596831	0.021985	-0.057671	-0.051467	-0.263428	0.683594	0.166748	0.504346	-0.708516	-0.427613	-0.246550
59363		7.793753	-4.555940	-3.420946	0.030607	-0.052299	-0.040626	-0.281982	0.683838	0.169189	0.504246	-0.708436	-0.428001	-0.246311
59364		7.921253	-4.725132	-3.818258	0.092674	-0.067008	-0.028880	-0.275391	0.685303	0.177002	0.504472	-0.708137	-0.428537	-0.245777
59365		7.917803	-4.676309	-4.036975	0.034676	-0.008965	-0.002194	-0.283203	0.682129	0.163818	0.504592	-0.708099	-0.428519	-0.245671
59366		7.667077	-4.774076	-3.679060	-0.063099	0.061558	0.019839	-0.269287	0.681885	0.165039	0.504483	-0.708343	-0.427926	-0.246224
59367		7.469348	-5.199599	-3.572396	-0.027993	0.060992	0.013817	-0.280762	0.685303	0.171875	0.504567	-0.708448	-0.427416	-0.246635
59368		7.669609	-5.057004	-3.547803	0.020355	0.031324	0.004714	-0.275391	0.682861	0.162842	0.504792	-0.708380	-0.427184	-0.246774
59369		7.618722	-5.143775	-3.392936	-0.066227	0.061547	0.018119	-0.273926	0.684814	0.174805	0.504671	-0.708643	-0.426578	-0.247312
59370		7.115531	-5.731639	-3.413919	-0.012479	0.022936	0.004477	-0.278076	0.683594	0.165039	0.504671	-0.708744	-0.426302	-0.247499
59371		7.229979	-5.931142	-3.552740	0.121760	-0.066056	-0.049087	-0.284424	0.695801	0.171631	0.505066	-0.708241	-0.427014	-0.246903
59372		7.712045	-5.113389	-3.360587	0.086351	-0.046570	-0.054011	-0.272949	0.682373	0.171631	0.505297	-0.707843	-0.427588	-0.246579
59373		7.750216	-4.626228	-3.139226	0.006405	0.002761	-0.044253	-0.282715	0.686279	0.159912	0.505248	-0.707726	-0.427728	-0.246772
59374		7.598306	-4.968303	-3.421340	0.094285	-0.048369	-0.050780	-0.281738	0.687500	0.165283	0.505552	-0.707287	-0.428320	-0.246383
59375		7.775586	-4.796033	-3.800315	0.133711	-0.070005	-0.043229	-0.281250	0.686035	0.161377	0.506012	-0.706767	-0.429029	-0.245694
59376		7.903339	-4.677035	-3.832467	0.017755	0.002981	-0.009124	-0.282227	0.687256	0.163574	0.506125	-0.706704	-0.428995	-0.245703
59377		7.696337	-5.031370	-3.598733	-0.061567	0.062175	0.017558	-0.278320	0.691406	0.159424	0.506032	-0.706954	-0.428389	-0.246233
59378		7.673476	-4.608163	-3.251685	-0.078763	0.068820	0.025151	-0.274170	0.686035	0.159912	0.505888	-0.707286	-0.427676	-0.246815
59379		7.635277	-4.880096	-3.255304	-0.019476	0.025662	0.033138	-0.270264	0.693848	0.163818	0.505954	-0.707487	-0.427219	-0.246894
59380		7.730301	-5.234796	-3.607683	0.123339	-0.037513	0.016857	-0.281250	0.695557	0.160889	0.506599	-0.707166	-0.427415	-0.246149
59381		7.952150	-4.810608	-3.946917	0.063175	0.009927	0.035782	-0.278320	0.690674	0.166504	0.507100	-0.707058	-0.427176	-0.245844
59382		7.441573	-5.026349	-3.576794	-0.114736	0.123480	0.061253	-0.275146	0.684814	0.153320	0.506992	-0.707571	-0.425941	-0.246733
59383		7.366703	-5.209440	-3.093939	-0.037192	0.078870	0.051304	-0.267822	0.689697	0.159912	0.507188	-0.707791	-0.425115	-0.247121
59384		7.639451	-5.074145	-2.989489	0.176290	-0.054587	0.023076	-0.267090	0.692627	0.166748	0.508102	-0.707298	-0.425458	-0.246063
59385		7.861759	-5.043837	-3.679825	0.264997	-0.095749	0.019874	-0.273438	0.692383	0.163574	0.509368	-0.706512	-0.426174	-0.244461
59386		7.951200	-4.903170	-4.195281	0.137475	-0.007574	0.051060	-0.265381	0.695312	0.162842	0.510258	-0.706190	-0.426069	-0.243717
59387		7.757312	-5.002559	-3.922483	-0.017345	0.097770	0.078216	-0.266846	0.695557	0.159180	0.510665	-0.706413	-0.425046	-0.244004
59388		7.271779	-5.629732	-3.188448	-0.011926	0.087042	0.068530	-0.271484	0.706299	0.157227	0.511054	-0.706592	-0.424136	-0.244255
59389		7.312110	-5.235195	-2.891830	0.091443	0.018127	0.041034	-0.271484	0.694824	0.155762	0.511760	-0.706367	-0.423889	-0.243857
59390		7.392284	-5.460002	-3.122889	0.119202	-0.014651	0.029897	-0.269775	0.698975	0.148682	0.512484	-0.706050	-0.423900	-0.243231
59391		7.587909	-5.287682	-3.503876	0.116389	-0.018990	0.024136	-0.263428	0.697998	0.150146	0.513180	-0.705725	-0.423958	-0.242607
59392		7.692396	-5.067456	-3.476396	0.047747	0.023422	0.023538	-0.263916	0.691406	0.147949	0.513616	-0.705612	-0.423703	-0.242460
59393		7.701079	-4.834061	-3.390148	-0.026473	0.079054	0.023314	-0.260498	0.692627	0.145752	0.513809	-0.705702	-0.423058	-0.242914
59394		7.663806	-4.970246	-3.270941	-0.047548	0.094704	0.037037	-0.272949	0.695557	0.150391	0.513968	-0.705896	-0.422224	-0.243465
59395		7.374128	-5.084278	-3.248423	-0.043161	0.054890	0.033144	-0.267090	0.687500	0.149902	0.513991	-0.706138	-0.421584	-0.243821
59396		7.454196	-5.336394	-3.586244	0.027978	0.013708	0.037038	-0.260498	0.699219	0.135742	0.514293	-0.706177	-0.421244	-0.243661
59397		7.570327	-5.404123	-3.799564	0.159590	-0.023701	0.040554	-0.261475	0.697510	0.148438	0.515289	-0.705716	-0.421314	-0.242768
59398		7.835945	-5.183596	-3.746657	0.096480	0.025721	0.059281	-0.266846	0.697510	0.142090	0.516086	-0.705515	-0.420938	-0.242312
59399		7.825439	-5.090296	-3.507992	0.027185	0.083219	0.074076	-0.256836	0.697510	0.144043	0.516716	-0.705536	-0.420080	-0.242397
59400		7.575538	-5.294483	-3.196936	-0.027666	0.119700	0.083201	-0.267090	0.703125	0.141846	0.517166	-0.705758	-0.418910	-0.242814
59401		7.164086	-5.771387	-3.160792	0.093066	0.045982	0.056889	-0.256348	0.700928	0.148438	0.518020	-0.705506	-0.418448	-0.242524
59402		7.413695	-5.446836	-3.083056	0.151612	-0.007575	0.038876	-0.256836	0.699951	0.142334	0.518976	-0.705065	-0.418452	-0.241755
59403		7.614633	-5.115219	-3.064693	0.052552	0.036000	0.046984	-0.255127	0.704102	0.138916	0.519528	-0.704984	-0.418015	-0.241561
59404		7.333830	-5.818944	-2.799227	-0.010925	0.056758	0.043195	-0.252441	0.708740	0.138428	0.519783	-0.705116	-0.417385	-0.241716
59405		7.162627	-5.961056	-2.895073	0.138204	-0.050895	0.001177	-0.246826	0.705322	0.136230	0.520462	-0.704670	-0.417773	-0.240884
59406		7.615910	-5.544210	-3.115060	0.154799	-0.070958	-0.014955	-0.253662	0.711182	0.134766	0.521137	-0.704136	-0.418379	-0.239932
59407		7.669679	-5.162019	-3.327002	0.119742	-0.051710	-0.011023	-0.247559	0.708740	0.134766	0.521683	-0.703723	-0.418804	-0.239215
59408		7.736810	-4.954030	-3.349035	0.057957	-0.008536	0.008231	-0.247070	0.712158	0.138428	0.522054	-0.703563	-0.418813	-0.238862
59409		7.473593	-5.474461	-3.018386	0.100727	-0.038253	0.006925	-0.253906	0.707764	0.135742	0.522561	-0.703275	-0.419052	-0.238179
59410		7.369820	-5.752405	-2.685539	0.106518	-0.036968	-0.013734	-0.254883	0.705811	0.144287	0.523059	-0.702887	-0.419400	-0.237619
59411		7.352257	-5.486140	-3.185075	0.184690	-0.044720	-0.005524	-0.248047	0.713623	0.130127	0.523974	-0.702219	-0.419889	-0.236712
59412		7.632094	-5.204302	-3.062699	0.121352	-0.031479	-0.003507	-0.258789	0.710449	0.127197	0.524618	-0.701779	-0.420193	-0.236050
59413		7.393118	-5.411922	-3.171894	0.075433	-0.034085	-0.001864	-0.254639	0.711426	0.135254	0.524978	-0.701550	-0.420385	-0.235590
59414		7.386872	-5.561852	-3.189721	0.083366	-0.055726	-0.011993	-0.244629	0.704834	0.130371	0.525267	-0.701308	-0.420761	-0.234994
59415		7.522364	-5.550727	-3.186249	0.105912	-0.061217	-0.013691	-0.253906	0.708496	0.126221	0.525678	-0.700970	-0.421218	-0.234262
59416		7.677340	-5.393884	-3.590053	0.074030	-0.039729	-0.004900	-0.247559	0.710449	0.130371	0.526001	-0.700751	-0.421453	-0.233771
59417		7.661442	-5.295789	-3.078438	0.056578	-0.039481	-0.001395	-0.246582	0.702393	0.132080	0.526223	-0.700626	-0.421651	-0.233286
59418		7.536334	-5.298294	-3.149661	0.119463	-0.077988	-0.012513	-0.247070	0.704590	0.123535	0.526638	-0.700275	-0.422193	-0.232424
59419		7.730098	-4.969114	-3.553137	0.144700	-0.086079	0.001216	-0.244629	0.707031	0.126953	0.527223	-0.699858	-0.422735	-0.231367
59420		7.892974	-4.872584	-3.556175	0.008653	-0.003030	0.035900	-0.250977	0.712158	0.124023	0.527364	-0.700007	-0.422459	-0.231100
59421		7.662297	-5.182072	-3.379847	-0.100908	0.072643	0.066307	-0.239014	0.708496	0.131592	0.527198	-0.700586	-0.421455	-0.231552
59422		7.499551	-5.633738	-3.463725	0.008034	0.037258	0.062976	-0.249023	0.709473	0.124512	0.527524	-0.700760	-0.420858	-0.231373
59423		7.844210	-4.958870	-3.200085	0.104210	0.001112	0.065742	-0.250977	0.709717	0.119873	0.528299	-0.700576	-0.420562	-0.230697
59424		7.675234	-5.021993	-3.159877	0.012803	0.063603	0.098791	-0.245850	0.711426	0.121582	0.528830	-0.700783	-0.419612	-0.230581
59425		7.435233	-5.617447	-3.205294	0.041860	0.045838	0.100309	-0.238281	0.702637	0.115234	0.529471	-0.700902	-0.418800	-0.230224
59426		7.561937	-5.403362	-3.146447	0.089101	0.027487	0.104399	-0.246582	0.707520	0.116455	0.530343	-0.700861	-0.418123	-0.229571
59427		7.509971	-5.505915	-3.133330	0.016738	0.067433	0.110894	-0.237793	0.713135	0.115967	0.530928	-0.701087	-0.417084	-0.229419
59428		7.247375	-5.775641	-2.943197	0.045155	0.037316	0.094729	-0.244873	0.716797	0.118408	0.531564	-0.701177	-0.416354	-0.228997
59429		7.357638	-5.808934	-2.851196	0.102614	0.000805	0.077664	-0.237061	0.711182	0.112061	0.532358	-0.701026	-0.415988	-0.228278
59430		7.285625	-5.846611	-3.089994	0.123190	-0.020084	0.064799	-0.232910	0.721924	0.115967	0.533192	-0.700774	-0.415824	-0.227403
59431		7.413249	-5.536816	-3.107419	0.083732	-0.011671	0.061369	-0.235352	0.720703	0.104248	0.533824	-0.700662	-0.415605	-0.226666
59432		7.270941	-5.610240	-2.824974	-0.026997	0.035794	0.073525	-0.231689	0.720459	0.115479	0.534026	-0.700971	-0.414878	-0.226564
59433		7.074323	-6.264031	-2.875866	0.087429	-0.039559	0.041161	-0.237549	0.723633	0.112061	0.534540	-0.700825	-0.414907	-0.225749
59434		7.245513	-5.874302	-3.054680	0.201906	-0.105484	0.006257	-0.224121	0.722412	0.108398	0.535433	-0.700162	-0.415640	-0.224341
59435		7.239843	-5.655579	-2.913871	0.042014	-0.035347	0.011771	-0.230225	0.716309	0.109863	0.535671	-0.700088	-0.415758	-0.223783
59436		7.011656	-6.035536	-2.858020	-0.019293	-0.020612	0.008685	-0.228271	0.724854	0.112305	0.535565	-0.700272	-0.415677	-0.223613
59437		7.195133	-6.022853	-2.956626	0.076990	-0.084987	-0.024574	-0.233154	0.720703	0.107666	0.535752	-0.700011	-0.416298	-0.222824
59438		7.405975	-5.619220	-3.259186	0.116596	-0.102269	-0.036630	-0.237061	0.713867	0.109375	0.536082	-0.699567	-0.417106	-0.221910
59439		7.539279	-5.297906	-3.290638	0.047224	-0.055542	-0.019565	-0.227783	0.723877	0.108887	0.536166	-0.699436	-0.417436	-0.221500
59440		7.447696	-5.467440	-3.026189	-0.001817	-0.023610	-0.006087	-0.232910	0.726074	0.106689	0.536146	-0.699472	-0.417531	-0.221257
59441		7.320447	-5.766137	-3.113299	0.074030	-0.059810	-0.004692	-0.234131	0.723145	0.110107	0.536448	-0.699231	-0.417914	-0.220560
59442		7.585216	-5.446074	-3.296836	0.148124	-0.082415	-0.015175	-0.227783	0.713135	0.113525	0.537057	-0.698684	-0.418580	-0.219548
59443		7.614221	-5.268953	-3.388476	0.070662	-0.025265	0.015950	-0.229492	0.726318	0.104492	0.537438	-0.698525	-0.418637	-0.219012
59444		7.382592	-5.728245	-3.110387	0.004580	0.011123	0.026333	-0.229980	0.717041	0.094971	0.537644	-0.698567	-0.418410	-0.218805
59445		7.111729	-6.045597	-3.250922	0.152284	-0.054054	0.007241	-0.229980	0.717041	0.099609	0.538454	-0.698008	-0.418799	-0.217852
59446		7.548680	-5.424803	-3.350120	0.214003	-0.076933	-0.000714	-0.228516	0.723389	0.100098	0.539500	-0.697202	-0.419447	-0.216593
59447		7.828247	-4.805771	-3.060935	0.006197	0.040049	0.042300	-0.235352	0.716797	0.096924	0.539836	-0.697250	-0.418987	-0.216494
59448		7.294059	-5.744080	-2.884194	-0.108358	0.109237	0.069606	-0.224609	0.714600	0.106201	0.539766	-0.697815	-0.417776	-0.217189
59449		6.984219	-6.371949	-3.103265	0.152562	-0.040953	0.023568	-0.226318	0.719971	0.111328	0.540593	-0.697331	-0.418007	-0.216238
59450		7.507902	-5.518916	-3.293712	0.191863	-0.051260	0.012509	-0.223633	0.716309	0.106689	0.541575	-0.696652	-0.418441	-0.215129
59451		7.373953	-5.426354	-3.034673	-0.046351	0.094406	0.055783	-0.228760	0.718750	0.097656	0.541761	-0.696941	-0.417521	-0.215509
59452		7.000698	-6.230334	-2.795408	-0.002577	0.058385	0.037215	-0.225098	0.725098	0.094971	0.542071	-0.697007	-0.416941	-0.215641
59453		7.316941	-5.907323	-2.903213	0.172671	-0.046174	0.003048	-0.227295	0.719727	0.106445	0.543013	-0.696310	-0.417399	-0.214633
59454		7.542156	-5.546832	-3.143878	0.106309	-0.004542	0.019985	-0.218750	0.721436	0.102051	0.543664	-0.695965	-0.417400	-0.214100
59455		7.379841	-5.736792	-3.169962	0.057499	0.030665	0.032348	-0.221191	0.725586	0.086670	0.544218	-0.695791	-0.417127	-0.213793
59456		7.267332	-5.944076	-3.067203	0.080471	0.013876	0.022950	-0.222656	0.723145	0.090576	0.544894	-0.695452	-0.417046	-0.213333
59457		7.311759	-5.703443	-2.821851	0.107781	0.002997	0.013828	-0.225586	0.721924	0.091797	0.545639	-0.695005	-0.417089	-0.212798
59458		7.250808	-5.868541	-2.881965	0.079529	0.017621	0.019847	-0.225342	0.725098	0.087158	0.546256	-0.694703	-0.416955	-0.212466
59459		7.102656	-6.032816	-2.960734	0.096512	-0.005600	0.007235	-0.223877	0.729004	0.088135	0.546893	-0.694294	-0.417052	-0.211970
59460		7.167433	-6.016091	-2.875181	0.085721	-0.017371	-0.011149	-0.217773	0.723633	0.091553	0.547403	-0.693876	-0.417326	-0.211483
59461		7.225390	-5.809010	-2.822439	0.064949	-0.015684	-0.018863	-0.216797	0.735596	0.089844	0.547766	-0.693549	-0.417585	-0.211103
59462		7.333166	-5.590184	-2.700185	-0.014230	0.021720	-0.010730	-0.222168	0.722168	0.096191	0.547871	-0.693476	-0.417594	-0.211055
59463		7.228045	-6.039622	-2.782318	0.011560	-0.004059	-0.016781	-0.221191	0.731445	0.094238	0.547928	-0.693415	-0.417655	-0.210987
59464		7.400337	-5.627700	-2.843460	0.054126	-0.031661	-0.026088	-0.218018	0.726074	0.088623	0.548168	-0.693112	-0.418062	-0.210551
59465		7.286337	-5.721011	-3.050314	-0.012034	-0.008094	-0.014701	-0.218262	0.726807	0.084229	0.548140	-0.693113	-0.418156	-0.210434
59466		7.357602	-5.667225	-3.058149	0.003005	0.002031	-0.007585	-0.227051	0.724121	0.086914	0.548270	-0.693029	-0.418204	-0.210274
59467		7.572768	-5.366966	-2.963934	-0.061816	0.035244	0.012760	-0.217041	0.724121	0.085205	0.548119	-0.693309	-0.417786	-0.210576
59468		7.331639	-5.968742	-3.026366	-0.072349	0.044310	0.018597	-0.217285	0.732422	0.081787	0.547998	-0.693600	-0.417341	-0.210818
59469		7.245356	-5.956233	-2.951370	-0.000164	0.015199	0.000071	-0.218262	0.729248	0.095947	0.548214	-0.693477	-0.417356	-0.210630
59470		7.289375	-5.770904	-2.849083	-0.003289	0.005613	-0.003887	-0.218750	0.721924	0.101562	0.548292	-0.693446	-0.417378	-0.210488
59471		7.275881	-5.818809	-2.816682	-0.078667	0.034070	0.001543	-0.221191	0.722900	0.088379	0.547980	-0.693803	-0.417008	-0.210856
59472		7.263402	-5.940962	-2.859592	-0.068600	0.032443	-0.003688	-0.211426	0.725830	0.081787	0.547767	-0.694048	-0.416708	-0.211193
59473		7.321694	-5.868663	-2.944325	-0.022220	0.002944	-0.010503	-0.221924	0.721680	0.091553	0.547798	-0.694021	-0.416785	-0.211049
59474		7.343719	-5.720694	-3.007649	-0.031150	0.010621	-0.011962	-0.219482	0.723633	0.092529	0.547691	-0.694126	-0.416676	-0.211199
59475		7.408941	-5.526378	-3.100703	-0.101087	0.042100	0.006323	-0.227783	0.730957	0.093262	0.547340	-0.694534	-0.416237	-0.211633
59476		7.382395	-5.712798	-2.963141	-0.154680	0.068370	0.020798	-0.218750	0.726318	0.088623	0.546797	-0.695165	-0.415527	-0.212357
59477		7.307219	-5.882774	-2.879591	-0.114957	0.045155	0.016260	-0.217041	0.728760	0.099609	0.546439	-0.695613	-0.415047	-0.212752
59478		7.332792	-5.909288	-3.051058	-0.023684	-0.005485	-0.000178	-0.212646	0.727295	0.092529	0.546383	-0.695687	-0.415083	-0.212582
59479		7.542484	-5.533088	-3.107790	0.004119	-0.011161	0.001672	-0.217773	0.725830	0.094727	0.546518	-0.695613	-0.415220	-0.212212
59480		7.425528	-5.686140	-3.023091	-0.066432	0.063962	0.025429	-0.208740	0.718262	0.093506	0.546501	-0.695854	-0.414683	-0.212514
59481		7.015677	-6.144262	-3.024525	-0.026435	0.043564	0.020218	-0.214600	0.724854	0.093994	0.546642	-0.695949	-0.414315	-0.212557
59482		7.029059	-5.903455	-3.036441	0.051305	-0.033465	-0.000992	-0.217041	0.735107	0.093018	0.546937	-0.695724	-0.414599	-0.211980
59483		7.396804	-5.595174	-2.948848	-0.005958	-0.032581	-0.002866	-0.220215	0.734131	0.093750	0.546952	-0.695666	-0.414924	-0.211497
59484		7.202036	-5.930719	-2.373203	-0.077929	-0.001799	-0.003438	-0.211426	0.726318	0.095703	0.546630	-0.695904	-0.414944	-0.211507
59485		6.753092	-6.779948	-2.705712	0.068405	-0.085970	-0.046180	-0.213379	0.724854	0.091309	0.546783	-0.695505	-0.415821	-0.210700
59486		7.101497	-6.330183	-2.613129	0.196379	-0.177347	-0.095976	-0.215576	0.723389	0.093018	0.547271	-0.694514	-0.417598	-0.209181
59487		7.561735	-5.465515	-2.764123	0.056085	-0.112121	-0.083081	-0.221436	0.725098	0.093506	0.547160	-0.694132	-0.418702	-0.208532
59488		7.406401	-5.792046	-2.793335	-0.132007	-0.024824	-0.063976	-0.225586	0.723877	0.095947	0.546278	-0.694537	-0.418940	-0.209017
59489		6.987240	-6.140434	-3.050909	-0.048033	-0.065203	-0.088240	-0.220947	0.719482	0.087891	0.545668	-0.694582	-0.419585	-0.209166
59490		7.447204	-5.699361	-3.453037	0.026756	-0.097279	-0.095868	-0.223877	0.722168	0.106445	0.545410	-0.694285	-0.420572	-0.208844
59491		7.695164	-5.216556	-3.555723	-0.092219	-0.009440	-0.067415	-0.225098	0.715088	0.092285	0.544740	-0.694541	-0.420751	-0.209377
59492		7.500658	-5.473741	-3.441785	-0.162095	0.056012	-0.041537	-0.214111	0.722168	0.102783	0.543961	-0.695100	-0.420285	-0.210482
59493		7.344116	-5.757886	-3.307840	-0.077336	0.024920	-0.036279	-0.223877	0.723145	0.101074	0.543648	-0.695231	-0.420315	-0.210799
59494		7.451529	-5.584694	-3.228380	-0.021206	0.004962	-0.040722	-0.223633	0.720703	0.101807	0.543549	-0.695160	-0.420484	-0.210951
59495		7.327229	-5.768102	-3.184792	-0.041771	0.026119	-0.033186	-0.229492	0.720459	0.101318	0.543402	-0.695197	-0.420438	-0.211297
59496		7.263822	-5.621204	-3.097306	-0.060771	0.034454	-0.030283	-0.219971	0.725586	0.100098	0.543151	-0.695349	-0.420239	-0.211838
59497		7.235349	-5.657190	-2.947743	-0.109866	0.055330	-0.026469	-0.225342	0.724609	0.104980	0.542798	-0.695566	-0.420058	-0.212386
59498		7.204247	-5.921834	-2.996053	-0.071924	0.026126	-0.033783	-0.227295	0.724609	0.106934	0.542498	-0.695696	-0.420033	-0.212781
59499		7.126752	-6.014741	-3.049203	0.015587	-0.010525	-0.054149	-0.227051	0.719482	0.104248	0.542526	-0.695437	-0.420426	-0.212778
59500		7.449386	-5.684441	-3.193573	0.063214	-0.025109	-0.060551	-0.224854	0.723145	0.104492	0.542746	-0.695011	-0.420926	-0.212623
59501		7.623955	-5.411558	-3.059193	0.007170	0.012784	-0.048128	-0.226074	0.729004	0.102295	0.542836	-0.694754	-0.421186	-0.212714
59502		7.523431	-5.489675	-2.958226	-0.044862	0.043931	-0.035184	-0.223633	0.723145	0.102051	0.542809	-0.694644	-0.421258	-0.213002
59503		7.351169	-5.708806	-3.006153	-0.018335	0.024654	-0.031460	-0.226807	0.720459	0.111816	0.542851	-0.694508	-0.421369	-0.213120
59504		7.449229	-5.631153	-3.046748	0.031603	-0.003034	-0.039662	-0.228027	0.725342	0.116943	0.542984	-0.694269	-0.421606	-0.213091
59505		7.646910	-5.187445	-3.163110	-0.009203	0.019838	-0.020602	-0.233887	0.723389	0.115479	0.543001	-0.694212	-0.421624	-0.213199
59506		7.494592	-5.606014	-3.078251	-0.110323	0.079432	0.005740	-0.222412	0.720947	0.109131	0.542645	-0.694657	-0.420930	-0.214025
59507		7.286690	-5.619866	-3.094445	-0.040738	0.037781	0.004386	-0.227783	0.717285	0.104004	0.542633	-0.694769	-0.420684	-0.214175
59508		7.507934	-5.525677	-3.152902	-0.058202	0.028983	0.013632	-0.221924	0.724365	0.110352	0.542468	-0.695066	-0.420272	-0.214438
59509		7.441397	-5.653921	-3.148918	-0.062443	0.023293	0.016476	-0.222656	0.725342	0.105957	0.542327	-0.695302	-0.420053	-0.214459
59510		7.507183	-5.460347	-3.100173	-0.079650	0.032190	0.020587	-0.218994	0.718262	0.114014	0.542151	-0.695580	-0.419774	-0.214546
59511		7.455991	-5.646652	-2.982928	-0.074305	0.041057	0.029484	-0.230957	0.718262	0.107422	0.541980	-0.695956	-0.419272	-0.214741
59512		7.263964	-5.923565	-3.002524	0.015541	-0.005494	0.016574	-0.219238	0.720947	0.107666	0.542100	-0.696018	-0.419082	-0.214609
59513		7.387706	-5.707437	-3.173017	0.099166	-0.036912	0.008026	-0.224121	0.726807	0.107178	0.542673	-0.695613	-0.419437	-0.213778
59514		7.527350	-5.392468	-3.258182	0.022598	0.015594	0.029032	-0.213867	0.722168	0.101562	0.543033	-0.695498	-0.419350	-0.213408
59515		7.542304	-5.428621	-3.119518	-0.042138	0.068156	0.046920	-0.219482	0.728271	0.111084	0.543284	-0.695607	-0.418863	-0.213369
59516		7.391359	-5.694420	-3.014431	-0.031711	0.077156	0.055839	-0.221191	0.726807	0.108154	0.543606	-0.695695	-0.418312	-0.213346
59517		7.280421	-5.939323	-3.030989	0.052883	0.040403	0.043266	-0.216309	0.720459	0.105225	0.544252	-0.695445	-0.418096	-0.212935
59518		7.350953	-5.696345	-3.032206	0.059544	0.033163	0.036720	-0.211182	0.725586	0.102295	0.544881	-0.695205	-0.417879	-0.212536
59519		7.289193	-5.740040	-2.891214	-0.009702	0.070684	0.047356	-0.214600	0.720703	0.101807	0.545346	-0.695125	-0.417512	-0.212326
59520		7.099870	-6.071625	-2.806825	-0.012363	0.051241	0.036202	-0.217285	0.723877	0.104980	0.545634	-0.695161	-0.417109	-0.212261
59521		7.073415	-6.201788	-2.695021	0.056571	-0.007853	0.006984	-0.219727	0.721191	0.104248	0.546053	-0.694885	-0.417272	-0.211764
59522		7.240900	-5.852464	-2.799912	0.048446	-0.020699	-0.014711	-0.214111	0.728516	0.104980	0.546295	-0.694665	-0.417483	-0.211449
59523		7.273224	-5.825658	-2.863844	-0.017936	0.006300	-0.016505	-0.218750	0.740723	0.108154	0.546347	-0.694531	-0.417745	-0.211237
59524		7.226181	-5.987909	-2.908823	-0.031800	0.002569	-0.022231	-0.218994	0.720703	0.109619	0.546368	-0.694300	-0.418276	-0.210890
59525		7.239891	-5.935657	-2.929780	0.016100	-0.027771	-0.040033	-0.223633	0.733887	0.098145	0.546324	-0.694186	-0.418571	-0.210795
59526		7.380706	-5.707423	-2.995381	0.017971	-0.032480	-0.042036	-0.220215	0.722656	0.104980	0.546435	-0.693805	-0.419279	-0.210356
59527		7.365715	-5.675394	-3.042409	-0.011656	-0.017438	-0.041581	-0.217041	0.724121	0.108154	0.546303	-0.693736	-0.419564	-0.210355
59528		7.364077	-5.740051	-2.999282	-0.003129	-0.022243	-0.041653	-0.218018	0.718750	0.104248	0.546231	-0.693591	-0.419979	-0.210193
59529		7.388371	-5.654601	-2.966457	-0.005537	-0.015803	-0.040225	-0.219482	0.729004	0.097900	0.546132	-0.693527	-0.420208	-0.210201
59530		7.316458	-5.745398	-2.973727	-0.015777	-0.016080	-0.035227	-0.221924	0.729004	0.109619	0.546117	-0.693309	-0.420726	-0.209923
59531		7.296511	-5.755514	-3.030879	-0.018613	-0.013647	-0.040635	-0.229980	0.731445	0.103760	0.546006	-0.693174	-0.421144	-0.209823
59532		7.373614	-5.625875	-3.085947	-0.026731	-0.011629	-0.039126	-0.221680	0.725586	0.100098	0.545858	-0.693070	-0.421503	-0.209831
59533		7.364803	-5.709650	-3.018797	-0.033650	-0.007126	-0.037085	-0.218262	0.721924	0.103271	0.545719	-0.692983	-0.421844	-0.209793
59534		7.400558	-5.602719	-2.950135	-0.029939	-0.010440	-0.036813	-0.223145	0.728027	0.104980	0.545565	-0.692933	-0.422146	-0.209749
59535		7.351840	-5.791636	-3.003677	-0.007567	-0.023887	-0.037896	-0.221924	0.722900	0.115479	0.545517	-0.692737	-0.422655	-0.209500
59536		7.243082	-5.871018	-3.046972	0.032188	-0.046312	-0.048014	-0.224854	0.723145	0.112793	0.545496	-0.692521	-0.423173	-0.209223
59537		7.380164	-5.655558	-3.116841	0.016114	-0.041334	-0.045764	-0.220947	0.717041	0.105225	0.545400	-0.692383	-0.423601	-0.209060
59538		7.366751	-5.627250	-3.012885	-0.015214	-0.025424	-0.041044	-0.226074	0.723145	0.107910	0.545197	-0.692398	-0.423824	-0.209087
59539		7.454518	-5.660471	-3.022171	-0.003721	-0.026972	-0.039476	-0.229980	0.730469	0.107178	0.545075	-0.692315	-0.424152	-0.209017
59540		7.383360	-5.710411	-3.082002	0.023946	-0.039626	-0.044408	-0.227295	0.720215	0.103027	0.545119	-0.691994	-0.424792	-0.208665
59541		7.411069	-5.592946	-3.132596	0.032079	-0.041304	-0.042822	-0.217773	0.725586	0.112305	0.545138	-0.691790	-0.425201	-0.208460
59542		7.439082	-5.570172	-3.095600	-0.025845	-0.004160	-0.028367	-0.217285	0.730713	0.110840	0.545065	-0.691683	-0.425557	-0.208277
59543		7.331741	-5.798362	-3.015123	-0.013486	-0.011914	-0.030132	-0.222900	0.720947	0.107422	0.545110	-0.691396	-0.426189	-0.207821
59544		7.400966	-5.650159	-3.020751	0.023389	-0.037171	-0.038847	-0.225830	0.723389	0.111816	0.545127	-0.691192	-0.426640	-0.207533
59545		7.447674	-5.571266	-3.044722	0.009395	-0.028464	-0.032863	-0.224609	0.716064	0.112793	0.545083	-0.691070	-0.426979	-0.207352
59546		7.408968	-5.583971	-3.089995	-0.030138	-0.009134	-0.019414	-0.218994	0.720947	0.114990	0.544824	-0.691292	-0.426848	-0.207564
59547		7.298842	-5.773919	-3.048860	-0.034417	-0.004091	-0.020262	-0.229004	0.719482	0.106934	0.544651	-0.691363	-0.426968	-0.207537
59548		7.368500	-5.704207	-3.040387	-0.004312	-0.018851	-0.032637	-0.226562	0.721924	0.120605	0.544530	-0.691358	-0.427099	-0.207602
59549		7.603877	-5.237720	-3.131472	-0.037262	-0.000276	-0.018399	-0.226562	0.726074	0.109375	0.544280	-0.691539	-0.427026	-0.207800
59550		7.496300	-5.542797	-3.113848	-0.116863	0.044975	0.003150	-0.224854	0.719971	0.110107	0.543889	-0.691903	-0.426734	-0.208214
59551		7.328207	-5.728247	-2.994804	-0.110783	0.039507	0.001052	-0.229980	0.720703	0.115479	0.543456	-0.692345	-0.426323	-0.208718
59552		7.277468	-5.860528	-2.902586	-0.083665	0.015869	-0.009252	-0.227539	0.722412	0.118164	0.543020	-0.692738	-0.426012	-0.209181
59553		7.281932	-5.843779	-2.829465	-0.051761	-0.009136	-0.020009	-0.226074	0.725098	0.123535	0.542692	-0.692940	-0.426029	-0.209332
59554		7.276298	-5.816661	-2.863534	-0.024134	-0.040838	-0.032196	-0.222168	0.732178	0.117920	0.542406	-0.692989	-0.426389	-0.209177
59555		7.385706	-5.653480	-3.014908	-0.026849	-0.049918	-0.040012	-0.227295	0.717773	0.119141	0.542210	-0.692802	-0.427199	-0.208650
59556		7.420043	-5.641879	-3.123912	-0.082060	-0.025443	-0.032775	-0.226074	0.719971	0.120605	0.541585	-0.693203	-0.427177	-0.208986
59557		7.429607	-5.545100	-3.191145	-0.107319	-0.009119	-0.030685	-0.213867	0.725586	0.121094	0.540913	-0.693633	-0.427133	-0.209389
59558		7.439262	-5.574714	-3.102235	-0.132291	0.009824	-0.023991	-0.224121	0.724365	0.120361	0.540348	-0.693905	-0.427366	-0.209472
59559		7.339115	-5.554942	-2.856756	-0.110054	-0.005148	-0.025572	-0.226074	0.720215	0.125488	0.539779	-0.694202	-0.427514	-0.209651
59560		7.318257	-5.725753	-3.062793	-0.034991	-0.048676	-0.034612	-0.233398	0.718750	0.133057	0.539388	-0.694339	-0.427833	-0.209553
59561		7.513633	-5.380323	-3.310589	-0.029569	-0.058296	-0.036784	-0.226807	0.717529	0.126221	0.538875	-0.694620	-0.427962	-0.209676
59562		7.557438	-5.327924	-3.273216	-0.170026	0.015590	-0.004477	-0.223633	0.720947	0.130127	0.537956	-0.695410	-0.427493	-0.210375
59563		7.309356	-5.805331	-3.292239	-0.193415	0.037716	-0.002681	-0.230469	0.722656	0.125488	0.537039	-0.696173	-0.427043	-0.211107
59564		7.364930	-5.745188	-3.221941	-0.129738	0.006437	-0.021863	-0.228760	0.715332	0.132812	0.536355	-0.696616	-0.426954	-0.211565
59565		7.344880	-5.488003	-3.243123	-0.139181	0.009724	-0.019712	-0.225830	0.715332	0.126709	0.535529	-0.697273	-0.426564	-0.212281
59566		7.360225	-5.562448	-3.225363	-0.140787	0.014858	-0.021291	-0.223145	0.717041	0.125977	0.534781	-0.697828	-0.426291	-0.212890
59567		7.302638	-5.752417	-3.142704	-0.133497	0.000209	-0.023638	-0.232422	0.715332	0.135254	0.534079	-0.698281	-0.426249	-0.213251
59568		7.356631	-5.645191	-3.198732	-0.117907	-0.009886	-0.035146	-0.227051	0.709717	0.141602	0.533277	-0.698814	-0.426065	-0.213875
59569		7.360655	-5.508304	-3.288283	-0.103625	-0.022445	-0.042282	-0.230713	0.717529	0.134277	0.532455	-0.699366	-0.425894	-0.214462
59570		7.487850	-5.296462	-3.242953	-0.126682	-0.009865	-0.039491	-0.232422	0.716064	0.148193	0.531668	-0.699812	-0.425891	-0.214963
59571		7.329938	-5.460055	-3.161879	-0.154423	0.004642	-0.035009	-0.232910	0.716553	0.146240	0.530684	-0.700486	-0.425594	-0.215786
59572		7.123669	-5.842501	-3.160120	-0.095782	-0.034900	-0.048029	-0.225098	0.709473	0.140381	0.529910	-0.700881	-0.425710	-0.216175
59573		7.314091	-5.604817	-3.295094	-0.058707	-0.063261	-0.063747	-0.235596	0.713135	0.144287	0.529249	-0.701121	-0.426082	-0.216285
59574		7.569563	-5.264945	-3.376676	-0.074186	-0.056504	-0.064443	-0.236572	0.706299	0.150635	0.528475	-0.701439	-0.426347	-0.216624
59575		7.676003	-5.353848	-3.562997	-0.071855	-0.044151	-0.056642	-0.234131	0.714600	0.150635	0.527669	-0.701906	-0.426279	-0.217207
59576		7.583016	-5.404593	-3.593110	-0.072509	-0.029352	-0.049166	-0.233154	0.710938	0.148193	0.527048	-0.702183	-0.426420	-0.217545
59577		7.395058	-5.369087	-3.512014	-0.117990	0.001231	-0.041076	-0.235107	0.711914	0.148438	0.526277	-0.702659	-0.426243	-0.218218
59578		7.347360	-5.493577	-3.505775	-0.146281	0.024357	-0.033330	-0.224854	0.718506	0.155273	0.525447	-0.703223	-0.425895	-0.219081
59579		7.357527	-5.420919	-3.405934	-0.117238	0.019371	-0.033625	-0.236328	0.711670	0.161377	0.524881	-0.703509	-0.425921	-0.219471
59580		7.463921	-5.483395	-3.458734	-0.095645	0.011822	-0.046109	-0.239990	0.706055	0.155029	0.524224	-0.703880	-0.425737	-0.220203
59581		7.509453	-5.423512	-3.491107	-0.090029	0.011316	-0.041457	-0.237061	0.697998	0.155029	0.523575	-0.704307	-0.425405	-0.221026
59582		7.425662	-5.507150	-3.402506	-0.129761	0.026434	-0.041802	-0.236816	0.712891	0.159424	0.522696	-0.704969	-0.424786	-0.222181
59583		7.349590	-5.567917	-3.339450	-0.145204	0.031330	-0.047581	-0.238525	0.713867	0.161377	0.521876	-0.705429	-0.424554	-0.223089
59584		7.324717	-5.525018	-3.224770	-0.151958	0.026375	-0.057061	-0.231201	0.702881	0.164062	0.520987	-0.705878	-0.424409	-0.224022
59585		7.383972	-5.354635	-3.152907	-0.149459	0.010833	-0.065595	-0.240723	0.710449	0.169922	0.519981	-0.706439	-0.424197	-0.224991
59586		7.393962	-5.321018	-3.175439	-0.119121	-0.023537	-0.076231	-0.238281	0.700928	0.168213	0.519017	-0.706832	-0.424351	-0.225691
59587		7.444654	-5.414459	-3.565102	-0.061396	-0.059186	-0.081870	-0.238525	0.705566	0.170654	0.518207	-0.707121	-0.424633	-0.226118
59588		7.508538	-5.323400	-3.699668	-0.090528	-0.037680	-0.076911	-0.242188	0.703857	0.169922	0.517355	-0.707440	-0.424860	-0.226642
59589		7.583105	-5.005077	-3.614200	-0.157666	0.008298	-0.058881	-0.239746	0.695557	0.169922	0.516287	-0.708040	-0.424618	-0.227654
59590		7.704795	-4.927576	-3.555101	-0.184147	0.026767	-0.041752	-0.241699	0.706787	0.171875	0.515118	-0.708857	-0.424013	-0.228883
59591		7.460884	-5.309088	-3.557796	-0.134552	0.006328	-0.039591	-0.242676	0.695801	0.181396	0.514273	-0.709350	-0.423830	-0.229592
59592		7.470676	-5.480956	-3.573118	-0.079052	-0.019244	-0.043198	-0.248047	0.701904	0.177246	0.513522	-0.709815	-0.423624	-0.230220
59593		7.557064	-5.425734	-3.600510	-0.110530	-0.004049	-0.038405	-0.244385	0.698486	0.171875	0.512709	-0.710299	-0.423405	-0.230939
59594		7.435920	-5.471972	-3.436127	-0.162191	0.023148	-0.039073	-0.239502	0.704834	0.177246	0.511717	-0.710938	-0.422975	-0.231960
59595		7.285950	-5.527371	-3.281969	-0.138444	-0.000531	-0.058037	-0.250977	0.700439	0.183594	0.510807	-0.711381	-0.422941	-0.232666
59596		7.265358	-5.503605	-3.219864	-0.083899	-0.051275	-0.081953	-0.247803	0.700195	0.180176	0.509890	-0.711687	-0.423234	-0.233211
59597		7.274685	-5.483176	-3.448770	-0.051170	-0.073467	-0.099336	-0.246826	0.691650	0.179932	0.509101	-0.711800	-0.423835	-0.233498
59598		7.382780	-5.281287	-3.589476	-0.048771	-0.085692	-0.116096	-0.244629	0.699463	0.184326	0.508202	-0.711943	-0.424465	-0.233875
59599		7.557501	-5.057366	-3.665067	-0.057424	-0.077564	-0.114246	-0.249023	0.694824	0.185547	0.507344	-0.712036	-0.425175	-0.234164
59600		7.340837	-5.244140	-3.565368	-0.026580	-0.094253	-0.125238	-0.248779	0.683838	0.189209	0.506544	-0.712033	-0.426008	-0.234392
59601		7.299892	-5.091573	-3.561648	0.030356	-0.131154	-0.139130	-0.253906	0.694336	0.190186	0.505836	-0.711924	-0.427019	-0.234413
59602		7.520237	-4.839332	-3.743114	0.034758	-0.135023	-0.131266	-0.259277	0.694336	0.190918	0.505221	-0.711720	-0.428185	-0.234233
59603		7.595178	-4.918495	-3.818539	0.015886	-0.114906	-0.120776	-0.265625	0.693115	0.197998	0.504572	-0.711583	-0.429178	-0.234229
59604		7.640161	-4.923590	-3.829044	0.023504	-0.104771	-0.116697	-0.257812	0.682373	0.185547	0.503954	-0.711436	-0.430089	-0.234334
59605		7.624962	-5.052585	-3.824249	0.013461	-0.092511	-0.109858	-0.263428	0.696777	0.193604	0.503370	-0.711356	-0.430822	-0.234488
59606		7.419877	-5.107164	-3.673810	0.027029	-0.096024	-0.112507	-0.260498	0.692139	0.193115	0.502888	-0.711123	-0.431778	-0.234469
59607		7.512469	-4.974167	-3.693907	0.015605	-0.089996	-0.109999	-0.258301	0.688477	0.186768	0.502354	-0.710968	-0.432621	-0.234529
59608		7.495198	-4.996023	-3.686913	0.010386	-0.086593	-0.108608	-0.261475	0.687988	0.190430	0.501834	-0.710825	-0.433426	-0.234589
59609		7.521753	-4.941655	-3.835236	0.015830	-0.088647	-0.104493	-0.263184	0.677002	0.195557	0.501323	-0.710686	-0.434222	-0.234633
59610		7.724411	-4.772884	-3.995250	0.032893	-0.076607	-0.090267	-0.266602	0.688232	0.192871	0.500899	-0.710587	-0.434798	-0.234771
59611		7.888924	-4.466400	-4.101316	0.025489	-0.048269	-0.069411	-0.269043	0.684570	0.190918	0.500653	-0.710434	-0.435273	-0.234878
59612		7.792876	-4.531875	-4.202806	0.024725	-0.014769	-0.039263	-0.261230	0.677002	0.199219	0.500577	-0.710325	-0.435427	-0.235085
59613		7.712683	-4.553428	-4.159808	-0.002403	0.024325	-0.001905	-0.265137	0.693848	0.192627	0.500488	-0.710497	-0.435005	-0.235534
59614		7.520407	-4.942714	-4.103197	-0.021660	0.056604	0.019714	-0.261963	0.688477	0.186768	0.500563	-0.710622	-0.434482	-0.235963
59615		7.685422	-5.012104	-3.812131	-0.020285	0.065210	0.030360	-0.277344	0.685303	0.193604	0.500715	-0.710766	-0.433842	-0.236385
59616		7.480816	-5.432941	-3.361710	0.011103	0.043260	0.016018	-0.266602	0.682373	0.191895	0.500872	-0.710750	-0.433481	-0.236764
59617		7.311869	-5.501253	-3.358037	0.040325	0.005306	-0.006749	-0.264893	0.684326	0.191895	0.501035	-0.710653	-0.433397	-0.236862
59618		7.279560	-5.341731	-3.314236	-0.042810	0.027219	-0.017386	-0.267822	0.688965	0.187012	0.500778	-0.710819	-0.433124	-0.237406
59619		7.175934	-5.211068	-3.204023	-0.059224	0.002756	-0.035347	-0.270752	0.687988	0.195068	0.500350	-0.710975	-0.433107	-0.237872
59620		7.538385	-4.893821	-3.334481	0.021607	-0.061418	-0.060581	-0.265869	0.685547	0.196045	0.500075	-0.710859	-0.433637	-0.237828
59621		7.834093	-4.850407	-3.961607	0.062217	-0.081974	-0.053032	-0.262451	0.684814	0.188232	0.499978	-0.710677	-0.434238	-0.237480
59622		7.845834	-4.790266	-4.349523	0.003765	-0.027745	-0.027033	-0.276367	0.685059	0.194336	0.499828	-0.710702	-0.434364	-0.237493
59623		7.471452	-4.577614	-4.163806	-0.065985	0.035048	-0.002056	-0.268311	0.680176	0.197754	0.499502	-0.710944	-0.434009	-0.238101
59624		7.359283	-4.676527	-3.717743	-0.043250	0.031149	0.008787	-0.264160	0.684326	0.201416	0.499297	-0.711204	-0.433560	-0.238572
59625		7.791193	-4.770410	-3.796506	0.093101	-0.028114	0.008261	-0.264404	0.688232	0.188477	0.499690	-0.711033	-0.433607	-0.238173
59626		8.083669	-4.861473	-4.171256	0.064788	0.004596	0.036540	-0.266113	0.689209	0.191406	0.500166	-0.710941	-0.433385	-0.237854
59627		7.752770	-5.283381	-4.003611	-0.074205	0.095644	0.066780	-0.263672	0.685303	0.197754	0.500190	-0.711362	-0.432325	-0.238472
59628		7.084641	-5.181804	-3.366546	-0.137967	0.122576	0.052217	-0.271240	0.689453	0.185791	0.499865	-0.711987	-0.431054	-0.239587
59629		6.859165	-4.825670	-2.643953	-0.064420	0.041472	0.025536	-0.257324	0.690430	0.192627	0.499708	-0.712258	-0.430568	-0.239983
59630		7.602243	-5.413777	-3.411049	0.086250	-0.058573	-0.004187	-0.259033	0.692139	0.190186	0.500003	-0.712091	-0.430844	-0.239368
59631		7.916047	-5.303496	-4.235652	0.177551	-0.103925	-0.017943	-0.253906	0.683105	0.182617	0.500662	-0.711562	-0.431600	-0.238200
59632		7.839082	-5.080882	-4.609798	0.015471	0.020494	0.010356	-0.259521	0.683594	0.188232	0.500868	-0.711573	-0.431322	-0.238234
59633		7.374727	-5.198305	-3.990421	-0.085610	0.097182	0.026499	-0.253906	0.677734	0.190674	0.500755	-0.711910	-0.430440	-0.239060
59634		7.423482	-4.491055	-3.252142	-0.035426	0.079776	0.021540	-0.255859	0.685791	0.197510	0.500847	-0.712095	-0.429704	-0.239642
59635		7.488617	-5.196438	-3.475178	0.165548	-0.031541	0.005096	-0.258301	0.696045	0.198975	0.501689	-0.711609	-0.429931	-0.238915
59636		7.759480	-4.819219	-3.984501	0.227074	-0.082150	0.002507	-0.258789	0.688965	0.192871	0.502716	-0.710943	-0.430529	-0.237659
59637		7.652558	-4.949892	-4.167425	0.023952	0.066265	0.044572	-0.262451	0.687012	0.189453	0.503157	-0.710968	-0.429870	-0.237844
59638		7.305340	-5.273493	-3.904255	0.020654	0.114226	0.049285	-0.260254	0.686768	0.186279	0.503770	-0.710896	-0.429016	-0.238302
59639		7.382048	-4.848591	-3.255203	-0.003243	0.107051	0.041726	-0.250000	0.687256	0.187256	0.504211	-0.710910	-0.428188	-0.238817
59640		7.110810	-5.256542	-2.775892	0.064369	0.017487	0.019862	-0.251709	0.688965	0.189209	0.504684	-0.710791	-0.427926	-0.238641
59641		7.223862	-5.814201	-3.557122	0.271423	-0.121831	-0.030815	-0.259521	0.686279	0.181641	0.505777	-0.709894	-0.428966	-0.237124
59642		7.869297	-4.913929	-4.330815	0.281365	-0.108966	-0.028686	-0.250732	0.693359	0.174316	0.506995	-0.708875	-0.430033	-0.235635
59643		7.836188	-4.927282	-4.310350	0.079657	0.044854	0.018376	-0.262451	0.696045	0.183105	0.507691	-0.708592	-0.429739	-0.235523
59644		7.529947	-5.179541	-3.447290	0.044212	0.074942	0.029564	-0.257568	0.689697	0.175293	0.508270	-0.708423	-0.429223	-0.235725
59645		7.382643	-5.115422	-3.176657	0.141418	0.016493	0.010067	-0.252930	0.691895	0.182861	0.509195	-0.707882	-0.429256	-0.235295
59646		7.458227	-5.139676	-3.507114	0.261986	-0.067072	0.002269	-0.255859	0.698975	0.171387	0.510479	-0.707020	-0.429855	-0.234005
59647		7.598023	-4.942623	-3.628386	0.199244	-0.056854	0.018636	-0.256592	0.701172	0.164795	0.511507	-0.706409	-0.430252	-0.232876
59648		7.702860	-5.142964	-3.681777	0.093873	0.014044	0.048675	-0.251709	0.693848	0.166260	0.512246	-0.706191	-0.429992	-0.232390
59649		7.614840	-5.397431	-3.764922	0.090370	0.042786	0.049525	-0.251709	0.699707	0.167480	0.513047	-0.705966	-0.429557	-0.232109
59650		7.537854	-5.179909	-3.686655	0.136067	0.023960	0.045765	-0.254150	0.690430	0.163818	0.514039	-0.705574	-0.429308	-0.231567
59651		7.477688	-5.157531	-3.349242	0.137871	0.027419	0.056291	-0.249756	0.707764	0.167480	0.515069	-0.705184	-0.429013	-0.231013
59652		7.429716	-5.415613	-3.099173	0.117044	0.024652	0.061862	-0.257080	0.697998	0.159912	0.515976	-0.704943	-0.428611	-0.230471
59653		7.350017	-5.500285	-3.026241	0.115160	0.008318	0.044044	-0.249023	0.700195	0.156494	0.516792	-0.704617	-0.428456	-0.229926
59654		7.155775	-5.783717	-3.027169	0.124250	-0.028968	0.023041	-0.251221	0.704834	0.157227	0.517497	-0.704274	-0.428561	-0.229196
59655		7.185013	-5.717625	-3.194624	0.178443	-0.094930	-0.012120	-0.254639	0.695557	0.151855	0.518213	-0.703692	-0.429268	-0.228040
59656		7.503436	-5.199416	-3.188840	0.118083	-0.077796	-0.015749	-0.235352	0.706787	0.145508	0.518632	-0.703295	-0.429842	-0.227230
59657		7.314498	-5.701005	-3.387604	0.150637	-0.084730	-0.022503	-0.249756	0.704834	0.156006	0.519236	-0.702806	-0.430450	-0.226210
59658		7.496670	-5.299468	-3.664428	0.221556	-0.122807	-0.038417	-0.249268	0.704102	0.146973	0.520038	-0.702006	-0.431491	-0.224864
59659		7.636060	-4.868574	-3.516370	0.149590	-0.083065	-0.020465	-0.242188	0.707275	0.148682	0.520620	-0.701482	-0.432141	-0.223903
59660		7.463287	-5.317283	-3.571970	0.074621	-0.028983	0.000159	-0.244385	0.706543	0.145752	0.520986	-0.701296	-0.432244	-0.223432
59661		7.295208	-5.491136	-3.452167	0.094840	-0.026905	-0.004178	-0.253418	0.705078	0.146729	0.521477	-0.700985	-0.432422	-0.222918
59662		7.425720	-5.326354	-3.310639	0.087035	-0.041099	-0.011417	-0.247070	0.701904	0.144531	0.521848	-0.700676	-0.432738	-0.222410
59663		7.400980	-5.527036	-3.176708	0.087969	-0.065099	-0.012326	-0.240967	0.705322	0.143311	0.522136	-0.700426	-0.433131	-0.221753
59664		7.313608	-5.911095	-3.263506	0.131217	-0.094341	-0.033510	-0.250488	0.699219	0.137939	0.522538	-0.699987	-0.433821	-0.220842
59665		7.288664	-5.539495	-3.362388	0.102369	-0.073833	-0.047208	-0.249756	0.698486	0.139404	0.522828	-0.699532	-0.434517	-0.220230
59666		7.272269	-5.440929	-3.388496	0.076561	-0.067936	-0.047618	-0.243164	0.703369	0.142090	0.522976	-0.699190	-0.435127	-0.219757
59667		7.386646	-5.429849	-3.461877	0.105312	-0.100382	-0.060860	-0.250000	0.705322	0.144775	0.523144	-0.698772	-0.435959	-0.219038
59668		7.479484	-5.377919	-3.576496	0.116235	-0.119571	-0.067686	-0.254395	0.704346	0.139160	0.523281	-0.698301	-0.436960	-0.218218
59669		7.643328	-5.231108	-3.599111	0.076813	-0.079907	-0.057148	-0.244141	0.703125	0.140381	0.523368	-0.697933	-0.437693	-0.217715
59670		7.697231	-5.034665	-3.413423	0.023553	-0.022030	-0.028309	-0.244873	0.700195	0.143311	0.523401	-0.697849	-0.437842	-0.217609
59671		7.586746	-5.093293	-3.519016	0.053692	-0.032587	-0.012433	-0.247559	0.701172	0.138672	0.523583	-0.697718	-0.437992	-0.217285
59672		7.628823	-5.216672	-3.597956	0.117216	-0.054025	-0.007736	-0.254150	0.703857	0.142090	0.524082	-0.697339	-0.438353	-0.216568
59673		7.477407	-5.332797	-3.669280	0.120191	-0.036516	0.009946	-0.251221	0.706787	0.145264	0.524679	-0.696967	-0.438567	-0.215889
59674		7.479658	-5.343313	-3.587396	0.090284	-0.017796	0.015803	-0.250244	0.706787	0.130859	0.525166	-0.696739	-0.438581	-0.215410
59675		7.656071	-5.009270	-3.346213	0.038430	0.004327	0.043325	-0.254883	0.702881	0.139648	0.525534	-0.696753	-0.438285	-0.215071
59676		7.444234	-5.640537	-3.324878	0.097543	-0.033208	0.035866	-0.245850	0.710205	0.130127	0.526053	-0.696560	-0.438305	-0.214389
59677		7.669388	-5.135755	-3.959808	0.229434	-0.085589	0.036395	-0.250244	0.697998	0.135010	0.527188	-0.695884	-0.438763	-0.212850
59678		7.719757	-4.921475	-3.998764	0.087593	0.028822	0.082389	-0.244873	0.699219	0.133057	0.527954	-0.695804	-0.438205	-0.212363
59679		7.562833	-5.023457	-3.543991	-0.008405	0.097556	0.117988	-0.238281	0.712891	0.128418	0.528481	-0.696167	-0.436946	-0.212455
59680		7.374986	-5.554259	-3.180703	0.072031	0.071768	0.113275	-0.236572	0.710938	0.123291	0.529405	-0.696206	-0.435954	-0.212063
59681		6.989225	-6.158659	-2.977057	0.240932	-0.039832	0.077457	-0.233398	0.703369	0.125732	0.530852	-0.695552	-0.435970	-0.210556
59682		7.002825	-5.828141	-2.628303	0.223241	-0.044513	0.044056	-0.243896	0.702148	0.128662	0.532088	-0.694889	-0.436137	-0.209274
59683		6.952626	-5.837696	-2.607696	0.059932	0.012740	0.038790	-0.229492	0.708740	0.125000	0.532552	-0.694803	-0.435845	-0.208988
59684		7.107087	-5.936365	-2.854336	-0.021955	0.046732	0.029233	-0.233154	0.713135	0.125488	0.532671	-0.695033	-0.435237	-0.209188
59685		7.099084	-6.082862	-3.016754	0.019422	0.009077	-0.001932	-0.226318	0.720947	0.120605	0.532841	-0.695015	-0.435072	-0.209158
59686		7.078075	-5.957490	-3.323834	0.096262	-0.052772	-0.038480	-0.228271	0.713623	0.117188	0.533197	-0.694642	-0.435495	-0.208607
59687		7.372854	-5.436412	-3.478579	0.065025	-0.047364	-0.040273	-0.225586	0.713379	0.114502	0.533388	-0.694376	-0.435871	-0.208220
59688		7.459917	-5.534896	-3.531176	0.020377	-0.021687	-0.030451	-0.240967	0.710693	0.123291	0.533439	-0.694305	-0.435984	-0.208088
59689		7.444810	-5.405489	-3.417108	0.050727	-0.011206	-0.025736	-0.243652	0.712402	0.118652	0.533671	-0.694063	-0.436152	-0.207950
59690		7.612509	-5.300863	-3.473428	0.092195	-0.016916	-0.025109	-0.237061	0.707764	0.124023	0.534139	-0.693625	-0.436439	-0.207610
59691		7.579770	-5.266008	-3.645664	0.080703	-0.008729	-0.000159	-0.238037	0.710205	0.109131	0.534585	-0.693363	-0.436468	-0.207272
59692		7.348315	-5.615883	-3.482138	0.083549	-0.004891	0.004324	-0.228271	0.713379	0.122559	0.535124	-0.693045	-0.436504	-0.206867
59693		7.259505	-5.740968	-3.222944	0.153183	-0.044878	-0.007337	-0.229980	0.712646	0.112793	0.535852	-0.692533	-0.436804	-0.206066
59694		7.286408	-5.574769	-3.192869	0.153686	-0.050748	-0.010034	-0.241699	0.715088	0.117432	0.536585	-0.691981	-0.437179	-0.205216
59695		7.309750	-5.621321	-3.294453	0.103403	-0.021439	-0.002589	-0.238281	0.718262	0.115479	0.537120	-0.691602	-0.437354	-0.204722
59696		7.406743	-5.430570	-3.329069	0.056467	0.000329	0.005260	-0.226562	0.715820	0.116943	0.537486	-0.691435	-0.437284	-0.204475
59697		7.445338	-5.495780	-3.090413	-0.006960	0.027149	0.015270	-0.238037	0.722168	0.119141	0.537594	-0.691598	-0.436849	-0.204567
59698		7.192500	-5.992705	-2.987733	0.062337	-0.027242	-0.000389	-0.235352	0.711426	0.107422	0.537871	-0.691446	-0.436932	-0.204177
59699		7.213835	-5.798195	-3.259059	0.222683	-0.123440	-0.029798	-0.236084	0.713623	0.106445	0.538701	-0.690600	-0.437908	-0.202755
59700		7.487676	-5.155066	-3.565886	0.148706	-0.075368	-0.014899	-0.238281	0.713379	0.106689	0.539301	-0.690059	-0.438457	-0.201814
59701		7.589087	-4.989061	-3.309968	-0.039938	0.030513	0.026067	-0.234131	0.716797	0.113281	0.539263	-0.690331	-0.437989	-0.201998
59702		7.423622	-5.603798	-3.153960	-0.115014	0.098468	0.050518	-0.235107	0.719971	0.115479	0.539064	-0.690953	-0.436906	-0.202749
59703		7.245971	-6.019187	-3.112280	0.042345	0.023682	0.026865	-0.227295	0.709717	0.105225	0.539457	-0.690905	-0.436564	-0.202603
59704		7.359175	-5.627144	-3.363677	0.112471	-0.016621	0.007135	-0.230225	0.722168	0.106445	0.540102	-0.690535	-0.436617	-0.202033
59705		7.434291	-5.440538	-3.460874	0.025542	0.052077	0.035739	-0.237305	0.716553	0.102783	0.540546	-0.690542	-0.436053	-0.202037
59706		7.277839	-5.589102	-3.259147	-0.044115	0.104570	0.054569	-0.229492	0.713623	0.116211	0.540813	-0.690797	-0.435095	-0.202519
59707		7.282559	-5.730460	-3.154178	-0.036507	0.092414	0.042913	-0.231689	0.715332	0.113525	0.541010	-0.691069	-0.434192	-0.203003
59708		7.349558	-5.677656	-3.155627	-0.007846	0.090239	0.042033	-0.231445	0.711914	0.104736	0.541372	-0.691190	-0.433377	-0.203364
59709		7.313055	-5.618472	-3.154746	-0.000143	0.082551	0.043576	-0.229980	0.716064	0.106201	0.541782	-0.691265	-0.432626	-0.203619
59710		7.290586	-5.768148	-3.083250	-0.002105	0.080236	0.047165	-0.230957	0.719727	0.104736	0.542176	-0.691376	-0.431845	-0.203851
59711		7.192283	-5.984435	-2.945353	0.030153	0.044686	0.031973	-0.212158	0.723633	0.099854	0.542608	-0.691337	-0.431377	-0.203822
59712		7.180319	-5.945508	-2.929779	0.087061	0.017428	0.013860	-0.225342	0.721680	0.099365	0.543272	-0.691089	-0.431104	-0.203473
59713		7.234607	-5.741157	-2.949553	0.101584	0.009537	0.012370	-0.224854	0.724609	0.106934	0.543973	-0.690726	-0.430997	-0.203055
59714		7.226384	-5.825384	-2.834586	0.102219	-0.019472	0.002818	-0.237305	0.717285	0.097656	0.544529	-0.690404	-0.431055	-0.202540
59715		7.171347	-5.925394	-2.942016	0.138706	-0.064453	-0.012746	-0.229248	0.722656	0.105713	0.545119	-0.689851	-0.431587	-0.201700
59716		7.299483	-5.759162	-3.114334	0.130749	-0.071422	-0.023192	-0.228516	0.726318	0.096436	0.545596	-0.689374	-0.432113	-0.200915
59717		7.423165	-5.534973	-3.100730	0.079678	-0.046840	-0.015439	-0.223877	0.723633	0.094727	0.545914	-0.689096	-0.432402	-0.200384
59718		7.437735	-5.576490	-3.134215	0.023636	-0.018653	-0.002362	-0.225830	0.718994	0.102295	0.546038	-0.689088	-0.432365	-0.200154
59719		7.238988	-5.938859	-3.027099	0.047566	-0.036421	-0.012269	-0.224854	0.722168	0.099609	0.546183	-0.688977	-0.432514	-0.199819
59720		7.194213	-5.826829	-3.059694	0.098641	-0.073315	-0.027448	-0.215820	0.716553	0.094238	0.546475	-0.688638	-0.432995	-0.199144
59721		7.338048	-5.644516	-3.234389	0.036655	-0.037619	-0.020870	-0.235352	0.725342	0.092041	0.546568	-0.688569	-0.433120	-0.198853
59722		7.334333	-5.664003	-3.106785	-0.078928	0.018854	-0.001685	-0.229736	0.723877	0.100342	0.546234	-0.688917	-0.432824	-0.199214
59723		7.261161	-5.764812	-3.079691	-0.050786	-0.005959	-0.002115	-0.224365	0.727051	0.089355	0.545946	-0.689220	-0.432639	-0.199355
59724		7.301597	-5.788111	-3.306534	0.063042	-0.071017	-0.021764	-0.223145	0.724609	0.094238	0.546095	-0.689033	-0.433026	-0.198752
59725		7.545634	-5.360043	-3.399115	0.053799	-0.051132	-0.010735	-0.224609	0.726562	0.101074	0.546260	-0.688913	-0.433230	-0.198268
59726		7.455627	-5.424940	-3.333835	-0.049146	0.022975	0.016849	-0.229004	0.711914	0.105713	0.546120	-0.689255	-0.432767	-0.198479
59727		7.221369	-5.742852	-3.016772	-0.143174	0.087286	0.026579	-0.229004	0.727539	0.101562	0.545653	-0.689934	-0.431854	-0.199391
59728		7.143387	-5.859374	-3.065358	-0.114688	0.080179	0.021370	-0.223389	0.722900	0.098633	0.545351	-0.690468	-0.431033	-0.200145
59729		7.332112	-5.801061	-2.865847	-0.101811	0.061768	0.012584	-0.225830	0.717041	0.094238	0.545055	-0.690950	-0.430340	-0.200774
59730		7.226468	-5.908652	-3.037815	-0.089255	0.049833	0.007667	-0.213379	0.723633	0.103271	0.544791	-0.691347	-0.429789	-0.201304
59731		7.232866	-5.908577	-3.190238	-0.055568	0.028187	-0.002153	-0.225342	0.718018	0.099854	0.544616	-0.691673	-0.429329	-0.201641
59732		7.273584	-5.699286	-3.106792	-0.072956	0.039705	-0.003772	-0.229492	0.724854	0.104004	0.544375	-0.691984	-0.428907	-0.202119
59733		7.351456	-5.632779	-3.071915	-0.083240	0.047303	0.000625	-0.219727	0.722900	0.103516	0.544101	-0.692341	-0.428423	-0.202662
59734		7.249950	-5.669294	-3.217290	-0.085474	0.041836	0.001769	-0.221191	0.723877	0.101318	0.543808	-0.692758	-0.427882	-0.203167
59735		7.356434	-5.762787	-3.297444	-0.110233	0.048630	0.007323	-0.217285	0.726074	0.098389	0.543414	-0.693280	-0.427251	-0.203765
59736		7.386762	-5.747710	-3.281559	-0.143518	0.068652	0.006687	-0.219727	0.719727	0.116455	0.542918	-0.693924	-0.426446	-0.204582
59737		7.284908	-5.744863	-3.063563	-0.168204	0.081117	0.006676	-0.215088	0.719971	0.119385	0.542254	-0.694683	-0.425555	-0.205618
59738		7.180933	-5.907429	-2.845716	-0.123320	0.054141	-0.003482	-0.224854	0.724854	0.108154	0.541736	-0.695272	-0.424882	-0.206385
59739		7.118592	-6.148899	-3.099898	0.020645	-0.027252	-0.028332	-0.217041	0.730225	0.109863	0.541760	-0.695193	-0.425046	-0.206249
59740		7.425180	-5.451661	-3.408090	0.044112	-0.029996	-0.032175	-0.218018	0.728516	0.110352	0.541910	-0.695044	-0.425207	-0.206026
59741		7.592663	-5.175964	-3.333383	-0.097817	0.057672	0.004385	-0.222412	0.724365	0.114990	0.541605	-0.695512	-0.424525	-0.206655
59742		7.242028	-5.721632	-3.219712	-0.123513	0.080913	0.020723	-0.215088	0.727295	0.107910	0.541239	-0.696097	-0.423643	-0.207452
59743		7.120855	-5.981156	-3.061918	-0.007733	0.014868	0.001824	-0.217773	0.727051	0.105957	0.541315	-0.696223	-0.423306	-0.207516
59744		7.195930	-5.949763	-3.252207	0.088140	-0.032157	-0.018176	-0.222412	0.722168	0.111084	0.541750	-0.695911	-0.423487	-0.207058
59745		7.312010	-5.656218	-3.115041	0.046718	-0.002157	-0.019696	-0.223145	0.720947	0.114258	0.542018	-0.695715	-0.423520	-0.206948
59746		7.228313	-5.782429	-3.117847	-0.010013	0.037828	-0.010531	-0.215332	0.724121	0.107422	0.542100	-0.695741	-0.423230	-0.207239
59747		7.201605	-5.897302	-3.199781	0.051863	-0.002401	-0.022702	-0.226807	0.719238	0.112305	0.542410	-0.695540	-0.423226	-0.207111
59748		7.436173	-5.522289	-3.210273	0.074394	-0.015041	-0.030145	-0.218750	0.724365	0.114990	0.542760	-0.695185	-0.423470	-0.206887
59749		7.522821	-5.480071	-3.140165	-0.008561	0.034270	-0.016031	-0.221680	0.724365	0.116943	0.542828	-0.695221	-0.423181	-0.207178
59750		7.240873	-5.776242	-3.114796	-0.000212	0.035396	-0.008278	-0.215576	0.719482	0.111816	0.542953	-0.695236	-0.422880	-0.207417
59751		7.270474	-5.859765	-3.150852	0.057277	0.000933	-0.020203	-0.219727	0.728271	0.110840	0.543285	-0.695019	-0.422868	-0.207298
59752		7.399162	-5.536922	-3.082769	0.024607	0.012553	-0.015615	-0.222900	0.721436	0.097168	0.543482	-0.694941	-0.422724	-0.207339
59753		7.378475	-5.693423	-3.022241	-0.069825	0.064405	-0.005760	-0.224121	0.719482	0.113281	0.543365	-0.695185	-0.422174	-0.207945
59754		7.204806	-5.937246	-2.989230	-0.046592	0.041711	-0.014922	-0.218994	0.717773	0.105469	0.543235	-0.695350	-0.421840	-0.208411
59755		7.262207	-5.749223	-3.036317	0.024422	-0.008327	-0.026955	-0.220947	0.717285	0.106445	0.543349	-0.695245	-0.421885	-0.208374
59756		7.458696	-5.426582	-3.141492	0.033514	-0.016999	-0.022855	-0.219971	0.720703	0.104980	0.543486	-0.695121	-0.421979	-0.208240
59757		7.499078	-5.372181	-3.275445	-0.018124	0.019251	-0.003030	-0.229004	0.719971	0.110596	0.543493	-0.695246	-0.421683	-0.208404
59758		7.394562	-5.609253	-3.319877	-0.044331	0.039209	0.012525	-0.219727	0.731445	0.111572	0.543419	-0.695474	-0.421245	-0.208720
59759		7.429477	-5.650155	-3.275161	-0.005751	0.021203	0.013469	-0.218018	0.726562	0.106201	0.543521	-0.695625	-0.420830	-0.208788
59760		7.370581	-5.567897	-3.221780	-0.009516	0.027135	0.019406	-0.217041	0.727783	0.109131	0.543646	-0.695793	-0.420352	-0.208867
59761		7.275139	-5.738602	-3.084708	-0.025868	0.040578	0.022099	-0.223389	0.727051	0.117676	0.543719	-0.696032	-0.419758	-0.209076
59762		7.184594	-5.970740	-3.016302	0.004684	0.055713	0.015585	-0.211182	0.721436	0.108887	0.543978	-0.696062	-0.419253	-0.209313
59763		7.277225	-5.807771	-2.814243	0.013895	0.029553	0.008866	-0.219971	0.719727	0.106201	0.544220	-0.696106	-0.418833	-0.209379
59764		7.195178	-5.892443	-2.810194	-0.021879	0.024427	0.001839	-0.215576	0.720703	0.103516	0.544223	-0.696246	-0.418501	-0.209570
59765		7.232853	-5.872094	-2.845869	-0.005091	-0.002655	-0.008092	-0.214355	0.725830	0.103516	0.544225	-0.696341	-0.418334	-0.209585
59766		7.310161	-5.714045	-3.062584	-0.008329	-0.011324	-0.015359	-0.221191	0.728027	0.110107	0.544168	-0.696456	-0.418210	-0.209597
59767		7.264033	-5.830375	-3.125363	-0.038794	0.002238	-0.019138	-0.221680	0.719482	0.114258	0.543951	-0.696653	-0.418050	-0.209824
59768		7.216094	-5.829098	-3.092802	-0.044457	0.002047	-0.026755	-0.224609	0.722168	0.112061	0.543670	-0.696835	-0.417970	-0.210106
59769		7.320101	-5.700658	-2.997197	-0.034538	-0.008367	-0.028779	-0.211914	0.722168	0.116943	0.543415	-0.696972	-0.417977	-0.210298
59770		7.336884	-5.696484	-2.999929	-0.038386	-0.014094	-0.032599	-0.215088	0.714600	0.109863	0.543108	-0.697193	-0.417908	-0.210496
59771		7.337083	-5.728005	-3.118472	-0.024563	-0.028253	-0.037304	-0.221191	0.715332	0.108887	0.542841	-0.697317	-0.418012	-0.210568
59772		7.362918	-5.673257	-3.156160	-0.011254	-0.036078	-0.031248	-0.218750	0.727295	0.110107	0.542634	-0.697386	-0.418189	-0.210519
59773		7.376359	-5.699255	-3.164913	-0.002980	-0.036857	-0.028648	-0.219971	0.721436	0.110352	0.542481	-0.697470	-0.418289	-0.210435
59774		7.433916	-5.591551	-3.185918	0.004618	-0.036592	-0.027776	-0.215576	0.717041	0.111084	0.542371	-0.697504	-0.418435	-0.210319
59775		7.306690	-5.795631	-3.158617	0.003439	-0.031634	-0.026850	-0.215332	0.726074	0.110840	0.542273	-0.697550	-0.418530	-0.210229
59776		7.239797	-5.746109	-3.073451	0.036717	-0.054608	-0.035450	-0.219971	0.725342	0.107178	0.542278	-0.697480	-0.418788	-0.209937
59777		7.367286	-5.616230	-3.154340	-0.010056	-0.032884	-0.029615	-0.221924	0.720703	0.116943	0.542102	-0.697575	-0.418874	-0.209902
59778		7.248016	-5.868433	-3.107057	-0.047830	-0.022444	-0.025964	-0.228271	0.717773	0.110107	0.541718	-0.697826	-0.418878	-0.210052
59779		7.220184	-5.807346	-3.079051	-0.051182	-0.026287	-0.038058	-0.214355	0.722412	0.115479	0.541297	-0.698008	-0.419031	-0.210231
59780		7.335326	-5.662694	-3.059047	-0.053039	-0.031256	-0.047487	-0.229004	0.722900	0.121826	0.540829	-0.698264	-0.419100	-0.210444
59781		7.376081	-5.547256	-3.162839	-0.095346	-0.006408	-0.038163	-0.225586	0.718262	0.111572	0.540191	-0.698634	-0.419070	-0.210912
59782		7.223029	-5.814790	-3.085224	-0.101249	-0.016691	-0.041660	-0.223877	0.723633	0.124268	0.539511	-0.699031	-0.419071	-0.211337
59783		7.233774	-5.808732	-3.156089	-0.035143	-0.057746	-0.055407	-0.227051	0.721680	0.109375	0.539018	-0.699193	-0.419415	-0.211377
59784		7.357990	-5.525711	-3.229538	-0.017467	-0.065657	-0.053386	-0.218262	0.720459	0.130371	0.538647	-0.699258	-0.419834	-0.211273
59785		7.465271	-5.369473	-3.268862	-0.029916	-0.050551	-0.035926	-0.217529	0.714600	0.120850	0.538233	-0.699483	-0.420000	-0.211255
59786		7.333554	-5.745114	-3.205653	0.001091	-0.061244	-0.039614	-0.227051	0.718750	0.117676	0.537984	-0.699552	-0.420301	-0.211062
59787		7.342828	-5.584396	-3.179322	0.078608	-0.095657	-0.045914	-0.218750	0.725586	0.124756	0.538060	-0.699269	-0.420995	-0.210422
59788		7.530353	-5.333477	-3.213423	0.051098	-0.082952	-0.037019	-0.228027	0.719971	0.126953	0.538020	-0.699191	-0.421418	-0.209934
59789		7.497390	-5.431736	-3.379154	-0.025142	-0.028676	-0.009981	-0.226807	0.714111	0.127197	0.537758	-0.699393	-0.421432	-0.209904
59790		7.347321	-5.701068	-3.324914	-0.070666	-0.002624	-0.005027	-0.219971	0.719971	0.118896	0.537331	-0.699760	-0.421243	-0.210156
59791		7.274869	-5.684931	-3.219783	-0.072781	0.000209	-0.008251	-0.226074	0.722900	0.128418	0.536930	-0.700162	-0.420945	-0.210441
59792		7.365014	-5.578258	-3.163614	-0.088184	0.006566	-0.004687	-0.219482	0.723877	0.128906	0.536437	-0.700620	-0.420622	-0.210818
59793		7.318096	-5.680584	-3.214730	-0.101482	0.015422	-0.006454	-0.225098	0.720947	0.127197	0.535900	-0.701153	-0.420174	-0.211304
59794		7.269396	-5.785107	-3.252249	-0.092176	0.005321	-0.011329	-0.228516	0.715332	0.114258	0.535378	-0.701602	-0.419886	-0.211710
59795		7.263032	-5.749850	-3.180273	-0.098096	0.012097	-0.013675	-0.223145	0.720215	0.129639	0.534878	-0.702005	-0.419625	-0.212154
59796		7.322269	-5.675288	-3.240875	-0.087160	0.011893	-0.014006	-0.226318	0.714355	0.129639	0.534403	-0.702419	-0.419315	-0.212592
59797		7.447944	-5.441298	-3.363542	-0.079610	0.011488	-0.014277	-0.228760	0.723389	0.137695	0.533970	-0.702764	-0.419086	-0.212992
59798		7.462764	-5.483301	-3.497791	-0.105083	0.038001	0.001063	-0.232666	0.720703	0.130127	0.533486	-0.703253	-0.418578	-0.213592
59799		7.433122	-5.512995	-3.394684	-0.155815	0.067395	0.007457	-0.229248	0.716553	0.133789	0.532840	-0.703895	-0.417861	-0.214491
59800		7.305106	-5.603597	-3.260127	-0.181282	0.080741	0.015942	-0.223389	0.714355	0.137939	0.532100	-0.704663	-0.416979	-0.215519
59801		7.254602	-5.811453	-3.230551	-0.146983	0.058519	0.004098	-0.221680	0.719727	0.135254	0.531459	-0.705304	-0.416279	-0.216353
59802		7.385468	-5.372379	-3.246556	-0.183981	0.070289	0.005150	-0.229736	0.718750	0.134766	0.530658	-0.706109	-0.415402	-0.217378
59803		7.280240	-5.499169	-3.090605	-0.254387	0.099462	0.017834	-0.221191	0.715576	0.137695	0.529565	-0.707164	-0.414278	-0.218754
59804		7.134014	-5.967995	-3.079868	-0.132270	0.026838	-0.013260	-0.227295	0.715332	0.143311	0.528888	-0.707740	-0.413810	-0.219415
59805		7.364282	-5.587505	-3.318053	-0.061068	-0.016152	-0.033145	-0.225098	0.713623	0.137695	0.528428	-0.707986	-0.413840	-0.219672
59806		7.494667	-5.357170	-3.468137	-0.103075	0.007448	-0.020922	-0.223389	0.715332	0.145752	0.527846	-0.708413	-0.413601	-0.220144
59807		7.379303	-5.346805	-3.266839	-0.134971	0.023208	-0.009594	-0.226807	0.719482	0.144287	0.527130	-0.709017	-0.413138	-0.220786
59808		7.216223	-5.692437	-3.276254	-0.054914	-0.018340	-0.021263	-0.235107	0.712646	0.143555	0.526730	-0.709294	-0.413081	-0.220956
59809		7.357680	-5.637954	-3.522746	0.011580	-0.053315	-0.031151	-0.226807	0.716797	0.154053	0.526582	-0.709243	-0.413482	-0.220722
59810		7.464398	-5.161759	-3.569503	-0.068384	-0.000846	-0.012339	-0.224854	0.715820	0.146973	0.526150	-0.709586	-0.413283	-0.221021
59811		7.344414	-5.409000	-3.501058	-0.088095	0.020466	-0.003330	-0.229248	0.716797	0.151367	0.525718	-0.710001	-0.412889	-0.221453
59812		7.386599	-5.554899	-3.580631	-0.032426	-0.013314	-0.008765	-0.227295	0.708252	0.157227	0.525475	-0.710201	-0.412814	-0.221527
59813		7.359501	-5.494629	-3.561187	-0.081124	0.022890	-0.004993	-0.231934	0.709473	0.147949	0.525057	-0.710556	-0.412497	-0.221972
59814		7.203278	-5.634344	-3.367190	-0.118878	0.041583	-0.006066	-0.228271	0.709473	0.152344	0.524508	-0.710998	-0.412077	-0.222637
59815		7.212100	-5.602092	-3.290653	-0.112718	0.032299	-0.016726	-0.222900	0.709717	0.157959	0.523935	-0.711419	-0.411730	-0.223280
59816		7.255852	-5.578745	-3.363900	-0.113405	0.029296	-0.026762	-0.229004	0.714600	0.155029	0.523317	-0.711854	-0.411392	-0.223965
59817		7.331289	-5.566184	-3.451650	-0.154847	0.049116	-0.032933	-0.227051	0.718018	0.159180	0.522522	-0.712384	-0.410959	-0.224928
59818		7.349542	-5.557743	-3.444019	-0.159317	0.051414	-0.034856	-0.231934	0.701904	0.159424	0.521697	-0.712949	-0.410473	-0.225937
59819		7.375824	-5.473934	-3.553495	-0.132403	0.035755	-0.043114	-0.225586	0.711426	0.164307	0.520960	-0.713328	-0.410284	-0.226783
59820		7.412879	-5.538384	-3.620953	-0.115643	0.031130	-0.038096	-0.224365	0.707764	0.162598	0.520311	-0.713731	-0.409990	-0.227537
59821		7.415238	-5.466775	-3.566488	-0.124853	0.047412	-0.032126	-0.231689	0.712158	0.167725	0.519683	-0.714155	-0.409578	-0.228382
59822		7.333304	-5.562838	-3.431414	-0.191702	0.086186	-0.026718	-0.230469	0.705322	0.155762	0.518783	-0.714796	-0.408875	-0.229679
59823		7.253480	-5.666690	-3.208846	-0.192275	0.073546	-0.036645	-0.230469	0.706543	0.162598	0.517864	-0.715387	-0.408322	-0.230893
59824		7.315903	-5.622234	-3.170345	-0.135718	0.029994	-0.057573	-0.230713	0.707520	0.173584	0.517076	-0.715763	-0.408168	-0.231763
59825		7.420889	-5.430257	-3.345801	-0.113187	0.014542	-0.062052	-0.236328	0.711426	0.165527	0.516328	-0.716086	-0.408120	-0.232517
59826		7.397464	-5.350871	-3.419241	-0.130899	0.015549	-0.063484	-0.234131	0.708252	0.169922	0.515507	-0.716438	-0.408085	-0.233315
59827		7.274536	-5.620791	-3.313331	-0.122043	0.000475	-0.072869	-0.231689	0.714111	0.172852	0.514659	-0.716764	-0.408167	-0.234040
59828		7.139067	-5.757736	-3.251021	-0.047408	-0.056535	-0.092679	-0.242188	0.710205	0.180908	0.514024	-0.716848	-0.408693	-0.234259
59829		7.326564	-5.508505	-3.261128	-0.008290	-0.100789	-0.111343	-0.228516	0.702881	0.173828	0.513401	-0.716747	-0.409689	-0.234195
59830		7.483515	-5.269466	-3.389475	-0.041316	-0.098732	-0.113359	-0.237061	0.700684	0.171875	0.512616	-0.716816	-0.410535	-0.234223
59831		7.433161	-5.321102	-3.479964	-0.061689	-0.098889	-0.109934	-0.237061	0.697021	0.181396	0.511721	-0.716930	-0.411408	-0.234301
59832		7.288103	-5.538399	-3.401976	-0.052369	-0.111041	-0.121525	-0.240723	0.700195	0.177979	0.510783	-0.717008	-0.412405	-0.234355
59833		7.434142	-5.338909	-3.379662	-0.045910	-0.128025	-0.132007	-0.241943	0.698730	0.176514	0.509821	-0.717037	-0.413566	-0.234316
59834		7.474176	-4.923388	-3.454115	-0.105927	-0.108030	-0.129862	-0.250244	0.704590	0.184570	0.508582	-0.717277	-0.414523	-0.234583
59835		7.320452	-5.138089	-3.643391	-0.082561	-0.125859	-0.135002	-0.241699	0.700195	0.175537	0.507385	-0.717429	-0.415648	-0.234719
59836		7.433996	-4.996291	-3.890404	-0.011488	-0.153614	-0.132499	-0.248291	0.695068	0.193604	0.506564	-0.717353	-0.416971	-0.234376
59837		7.573563	-4.873141	-4.135639	-0.012435	-0.130338	-0.116739	-0.254883	0.695068	0.186523	0.505774	-0.717303	-0.418118	-0.234194
59838		7.729700	-4.701048	-4.130998	-0.025732	-0.093777	-0.093581	-0.245605	0.695312	0.189697	0.505103	-0.717264	-0.419019	-0.234152
59839		7.687217	-4.756832	-4.060888	-0.014472	-0.067964	-0.078491	-0.249512	0.691162	0.196045	0.504614	-0.717243	-0.419639	-0.234160
59840		7.577858	-4.823154	-4.166406	0.019792	-0.051000	-0.068083	-0.254150	0.696045	0.186523	0.504380	-0.717075	-0.420216	-0.234143
59841		7.627567	-4.828564	-4.075999	-0.038544	-0.005953	-0.046477	-0.251465	0.684570	0.188965	0.504038	-0.717096	-0.420411	-0.234463
59842		7.668041	-4.913325	-3.809648	-0.124401	0.054133	-0.018530	-0.258057	0.685059	0.190430	0.503431	-0.717462	-0.420024	-0.235342
59843		7.314027	-5.412696	-3.656218	-0.147722	0.065451	-0.019772	-0.249023	0.696533	0.192139	0.502717	-0.717869	-0.419597	-0.236388
59844		7.112616	-5.682627	-3.678742	-0.068746	0.014735	-0.039582	-0.254639	0.689941	0.192627	0.502273	-0.718047	-0.419527	-0.236912
