// Start Time: Unknown
// Update Rate: 60.0Hz
// Filter Profile: human (46.1)
// Firmware Version: 4.6.0
PacketCounter	SampleTimeFine	Acc_X	Acc_Y	Acc_Z	Gyr_X	Gyr_Y	Gyr_Z	Mag_X	Mag_Y	Mag_Z	Quat_q0	Quat_q1	Quat_q2	Quat_q3
55664		9.525120	1.607091	1.927418	0.057043	-0.013545	0.009540	-0.629395	-0.485840	0.224365	-0.369164	-0.599758	0.205815	-0.679447
55665		9.503826	1.630004	1.917132	0.060212	-0.001426	0.017397	-0.625244	-0.485596	0.220215	-0.368762	-0.599922	0.205565	-0.679597
55666		9.468889	1.638989	1.934524	0.047685	-0.001870	0.014724	-0.614990	-0.484863	0.227295	-0.368442	-0.600051	0.205373	-0.679714
55667		9.473897	1.652027	1.933911	0.040231	-0.005690	0.014052	-0.620850	-0.484375	0.217529	-0.368152	-0.600183	0.205233	-0.679798
55668		9.465730	1.655508	1.913901	0.031478	-0.003396	0.011630	-0.625488	-0.488525	0.221680	-0.367924	-0.600278	0.205121	-0.679870
55669		9.452758	1.659448	1.909063	0.023083	0.007105	0.008251	-0.624756	-0.488281	0.222412	-0.367776	-0.600295	0.205007	-0.679969
55670		9.447811	1.612735	1.925022	0.019013	0.014779	0.009103	-0.631104	-0.487061	0.229980	-0.367659	-0.600256	0.204894	-0.680102
55671		9.425245	1.603008	1.935780	0.014740	0.021215	0.007655	-0.629395	-0.493408	0.227539	-0.367583	-0.600169	0.204777	-0.680255
55672		9.451367	1.667858	1.976772	0.008178	0.020132	0.004375	-0.627686	-0.490234	0.234863	-0.367558	-0.600072	0.204684	-0.680382
55673		9.491383	1.735934	1.930119	-0.005957	0.021303	-0.001943	-0.629639	-0.488281	0.229004	-0.367645	-0.599934	0.204630	-0.680472
55674		9.521685	1.716279	1.868788	-0.024531	0.036932	-0.009130	-0.622803	-0.485352	0.228516	-0.367899	-0.599666	0.204590	-0.680583
55675		9.475508	1.666302	1.908217	-0.026982	0.039325	-0.001743	-0.628662	-0.484619	0.216553	-0.368130	-0.599371	0.204589	-0.680719
55676		9.442778	1.596657	1.936334	-0.021499	0.030788	0.001759	-0.620117	-0.479736	0.222656	-0.368301	-0.599139	0.204596	-0.680828
55677		9.380275	1.586575	1.921003	-0.023857	0.021629	0.000114	-0.630615	-0.491699	0.214355	-0.368477	-0.598954	0.204638	-0.680884
55678		9.370532	1.558307	1.922664	-0.028966	0.021401	-0.004681	-0.624756	-0.483154	0.225830	-0.368707	-0.598762	0.204685	-0.680913
55679		9.378715	1.586204	1.928911	-0.033990	0.017163	-0.009774	-0.623779	-0.490967	0.221680	-0.368978	-0.598589	0.204754	-0.680899
55680		9.435463	1.600222	1.920612	-0.036514	0.019705	-0.013717	-0.625244	-0.484375	0.219238	-0.369290	-0.598400	0.204807	-0.680879
55681		9.434103	1.555009	1.925658	-0.032481	0.023329	-0.014364	-0.623535	-0.491211	0.212158	-0.369588	-0.598204	0.204826	-0.680884
55682		9.468299	1.574665	1.941470	-0.029100	0.023498	-0.013065	-0.618164	-0.485840	0.214844	-0.369863	-0.598014	0.204833	-0.680899
55683		9.466557	1.586047	2.006692	-0.027051	0.016839	-0.013545	-0.622803	-0.495361	0.218994	-0.370111	-0.597870	0.204855	-0.680885
55684		9.461007	1.601529	2.038756	-0.035502	0.010703	-0.014106	-0.625244	-0.481445	0.221680	-0.370400	-0.597738	0.204937	-0.680819
55685		9.456930	1.624669	1.977779	-0.036230	0.005600	-0.011983	-0.623779	-0.490723	0.217041	-0.370658	-0.597619	0.205058	-0.680745
55686		9.460757	1.638886	1.981861	-0.043054	0.016441	-0.008742	-0.632812	-0.497314	0.219727	-0.370964	-0.597413	0.205192	-0.680720
55687		9.464699	1.624430	1.956753	-0.047144	0.018439	-0.008026	-0.620850	-0.491699	0.225342	-0.371296	-0.597185	0.205341	-0.680694
55688		9.454961	1.610253	1.972935	-0.047069	0.010735	-0.005469	-0.632812	-0.485596	0.216309	-0.371587	-0.597008	0.205532	-0.680633
55689		9.441671	1.586035	1.940703	-0.049093	0.006084	-0.005232	-0.630371	-0.488525	0.216309	-0.371874	-0.596832	0.205757	-0.680562
55690		9.449878	1.580609	1.961466	-0.049790	0.008257	-0.003199	-0.626953	-0.486572	0.212158	-0.372157	-0.596644	0.205990	-0.680503
55691		9.485069	1.556436	1.930256	-0.040214	0.014442	-0.008914	-0.627930	-0.484619	0.206787	-0.372432	-0.596453	0.206125	-0.680478
55692		9.479372	1.524234	1.963260	-0.039094	0.016343	-0.006556	-0.626465	-0.489990	0.210693	-0.372687	-0.596242	0.206270	-0.680480
55693		9.447080	1.455057	1.987904	-0.030971	0.017979	-0.007899	-0.625488	-0.489746	0.218506	-0.372913	-0.596062	0.206359	-0.680487
55694		9.441579	1.455447	2.005737	-0.019122	0.024301	-0.005981	-0.625977	-0.486328	0.211914	-0.373057	-0.595896	0.206379	-0.680547
55695		9.422512	1.488785	2.049591	-0.013711	0.019891	-0.007821	-0.625488	-0.482178	0.209717	-0.373171	-0.595751	0.206389	-0.680608
55696		9.431326	1.521672	2.009528	-0.012612	0.018207	-0.008253	-0.623535	-0.493164	0.212158	-0.373270	-0.595605	0.206407	-0.680676
55697		9.439233	1.550272	2.016310	-0.006535	0.030079	-0.006301	-0.625732	-0.493408	0.208740	-0.373375	-0.595421	0.206349	-0.680798
55698		9.406204	1.509667	2.072300	0.003537	0.027345	-0.001940	-0.623291	-0.491699	0.211426	-0.373404	-0.595261	0.206271	-0.680945
55699		9.396074	1.510267	2.103502	0.008663	0.018338	-0.000030	-0.619629	-0.480469	0.216797	-0.373374	-0.595172	0.206198	-0.681061
55700		9.401353	1.560946	2.044799	0.008158	0.005234	0.001480	-0.620850	-0.502441	0.218262	-0.373268	-0.595174	0.206174	-0.681125
55701		9.405554	1.575178	2.047047	-0.000521	0.007194	-0.004189	-0.613281	-0.489014	0.215576	-0.373313	-0.595152	0.206136	-0.681131
55702		9.462502	1.556716	2.052328	-0.002899	0.009229	0.000028	-0.625000	-0.491455	0.208740	-0.373336	-0.595103	0.206134	-0.681162
55703		9.475291	1.491789	2.043668	0.007594	0.014376	0.000277	-0.635010	-0.499756	0.215332	-0.373313	-0.595006	0.206087	-0.681274
55704		9.524424	1.542526	2.000107	0.016081	0.014881	0.000768	-0.628418	-0.492188	0.209473	-0.373214	-0.594945	0.205988	-0.681410
55705		9.480017	1.589257	1.987998	0.003228	0.026422	-0.001093	-0.625000	-0.497559	0.211670	-0.373225	-0.594768	0.205931	-0.681576
55706		9.461479	1.580478	1.986275	0.000346	0.026422	-0.003984	-0.626709	-0.489502	0.209961	-0.373295	-0.594609	0.205857	-0.681699
55707		9.424941	1.590153	2.009101	0.001882	0.025135	0.002880	-0.630371	-0.485840	0.210693	-0.373278	-0.594445	0.205826	-0.681860
55708		9.393181	1.552899	2.017414	0.002908	0.014543	0.002725	-0.615723	-0.494629	0.202637	-0.373199	-0.594347	0.205826	-0.681990
55709		9.361162	1.543654	2.055083	-0.000907	0.010176	0.002645	-0.627930	-0.490723	0.212158	-0.373303	-0.594242	0.205853	-0.682016
55710		9.360866	1.543365	2.056648	-0.005659	0.008814	-0.000380	-0.624023	-0.492920	0.209473	-0.373300	-0.594170	0.205887	-0.682070
55711		9.414207	1.575269	2.029926	-0.002784	0.012497	-0.000368	-0.621338	-0.493408	0.198975	-0.373341	-0.594076	0.205892	-0.682128
55712		9.421877	1.584647	2.066000	-0.002187	0.017903	0.000679	-0.630127	-0.495117	0.209229	-0.373472	-0.593885	0.205912	-0.682216
55713		9.443466	1.607462	2.075510	-0.010751	0.008489	0.000448	-0.622803	-0.487549	0.208252	-0.373526	-0.593773	0.205984	-0.682263
55714		9.452148	1.634537	2.079762	-0.018950	0.005206	0.001946	-0.635010	-0.488281	0.210693	-0.373598	-0.593673	0.206110	-0.682273
55715		9.452033	1.634068	2.080654	-0.033097	-0.002878	-0.007440	-0.622559	-0.485840	0.213867	-0.373695	-0.593575	0.206301	-0.682246
55716		9.447217	1.573805	2.080452	-0.034322	0.002794	-0.006724	-0.626221	-0.489014	0.207764	-0.373836	-0.593508	0.206447	-0.682184
55717		9.490730	1.559944	2.082724	-0.036599	0.019157	-0.011526	-0.627930	-0.483398	0.205322	-0.374092	-0.593286	0.206562	-0.682202
55718		9.480588	1.546474	2.099436	-0.036600	0.022731	-0.008741	-0.631104	-0.492920	0.212646	-0.374293	-0.593018	0.206697	-0.682284
55719		9.430189	1.542162	2.148172	-0.034509	0.012406	-0.006344	-0.628662	-0.485596	0.202148	-0.374438	-0.592867	0.206823	-0.682297
55720		9.400441	1.527452	2.078317	-0.030708	0.002121	-0.000439	-0.624023	-0.490479	0.201904	-0.374564	-0.592689	0.207045	-0.682315
55721		9.417291	1.456950	2.101154	-0.019214	0.005901	0.002598	-0.631836	-0.489258	0.207764	-0.374699	-0.592534	0.207190	-0.682331
55722		9.421562	1.423111	2.103716	-0.011530	0.001623	0.008416	-0.624268	-0.492432	0.205566	-0.374619	-0.592450	0.207318	-0.682409
55723		9.408662	1.486167	2.114102	0.000426	-0.007003	0.013037	-0.630127	-0.492920	0.213623	-0.374549	-0.592447	0.207425	-0.682418
55724		9.369548	1.512409	2.114574	0.005282	-0.009526	0.010098	-0.626953	-0.490967	0.212402	-0.374341	-0.592539	0.207461	-0.682441
55725		9.366275	1.529622	2.095446	0.014709	-0.015601	0.010760	-0.631592	-0.497070	0.206543	-0.374093	-0.592692	0.207469	-0.682442
55726		9.384806	1.524112	2.083588	0.021683	-0.010216	0.007207	-0.632324	-0.491455	0.206543	-0.373935	-0.592757	0.207440	-0.682481
55727		9.407727	1.518956	2.058969	0.023631	0.000055	0.007084	-0.626953	-0.500244	0.203857	-0.373732	-0.592765	0.207379	-0.682603
55728		9.447829	1.536787	2.056319	0.020993	-0.000777	0.009174	-0.627197	-0.486572	0.207764	-0.373694	-0.592755	0.207336	-0.682646
55729		9.411310	1.541209	2.120849	0.010385	0.001763	0.006325	-0.634033	-0.489502	0.204834	-0.373547	-0.592748	0.207330	-0.682735
55730		9.386020	1.568383	2.080382	0.005323	-0.007779	0.004237	-0.631592	-0.483887	0.206299	-0.373434	-0.592720	0.207400	-0.682800
55731		9.407570	1.572678	2.117726	0.003753	-0.000961	0.003151	-0.621338	-0.491455	0.207275	-0.373292	-0.592678	0.207443	-0.682901
55732		9.429458	1.609795	2.139857	0.003619	-0.004124	-0.002139	-0.633545	-0.489746	0.204102	-0.373339	-0.592713	0.207430	-0.682848
55733		9.417008	1.587039	2.103627	0.000265	-0.009939	-0.003593	-0.628174	-0.487549	0.212402	-0.373318	-0.592684	0.207496	-0.682865
55734		9.412409	1.541264	2.115928	-0.003785	-0.013582	-0.003002	-0.628418	-0.486572	0.209717	-0.373221	-0.592787	0.207529	-0.682819
55735		9.429663	1.471779	2.136043	-0.000772	-0.006735	0.002308	-0.626953	-0.487305	0.210693	-0.373115	-0.592815	0.207572	-0.682840
55736		9.434866	1.457462	2.105945	0.008726	-0.003908	0.002701	-0.631104	-0.491455	0.198975	-0.372974	-0.592871	0.207544	-0.682876
55737		9.458114	1.484778	2.066217	0.013003	-0.004682	0.004297	-0.629883	-0.494629	0.213135	-0.372985	-0.592768	0.207601	-0.682942
55738		9.441945	1.479894	2.012111	0.033479	-0.014761	0.006422	-0.628906	-0.488525	0.209717	-0.372714	-0.592973	0.207464	-0.682954
55739		9.406596	1.457030	2.042808	0.052387	-0.018140	0.013115	-0.628906	-0.487549	0.212402	-0.372294	-0.593201	0.207301	-0.683034
55740		9.336841	1.448247	2.044701	0.066258	-0.029329	0.011852	-0.637695	-0.487061	0.220459	-0.371755	-0.593566	0.207073	-0.683080
55741		9.334073	1.406936	2.006646	0.082315	-0.027402	0.012546	-0.624512	-0.485596	0.212158	-0.370955	-0.594023	0.206719	-0.683224
55742		9.427249	1.435444	2.047014	0.091121	-0.020805	0.014710	-0.627930	-0.486572	0.215576	-0.370354	-0.594401	0.206351	-0.683333
55743		9.446215	1.491412	2.047038	0.098512	-0.017128	0.021028	-0.626465	-0.484375	0.217773	-0.369634	-0.594787	0.205945	-0.683510
55744		9.438901	1.616512	2.053510	0.095747	-0.006708	0.023269	-0.635010	-0.488525	0.219238	-0.368908	-0.595126	0.205524	-0.683734
55745		9.458053	1.657859	2.038749	0.094216	-0.020435	0.019037	-0.625000	-0.485107	0.215332	-0.368163	-0.595515	0.205134	-0.683914
55746		9.463958	1.658246	2.018563	0.083427	-0.028367	0.011020	-0.629395	-0.484375	0.214355	-0.367646	-0.595908	0.204813	-0.683946
55747		9.472686	1.604936	2.076438	0.076733	-0.038391	0.007965	-0.626953	-0.487305	0.222656	-0.367153	-0.596295	0.204576	-0.683945
55748		9.470535	1.596063	2.020989	0.074359	-0.038319	0.009157	-0.634033	-0.480225	0.221924	-0.366603	-0.596790	0.204268	-0.683899
55749		9.427915	1.582676	1.985104	0.063433	-0.016141	0.010257	-0.638916	-0.485107	0.215332	-0.366034	-0.597058	0.204025	-0.684043
55750		9.419234	1.569475	1.995367	0.058462	0.005386	0.010752	-0.627197	-0.485107	0.213379	-0.365663	-0.597064	0.203808	-0.684301
55751		9.436315	1.575402	2.046028	0.053215	-0.001799	0.009231	-0.623535	-0.486572	0.219482	-0.365465	-0.597123	0.203618	-0.684412
55752		9.486053	1.607205	2.027548	0.042379	-0.022365	0.010197	-0.634033	-0.482422	0.233643	-0.365236	-0.597367	0.203484	-0.684360
55753		9.460896	1.630071	2.028202	0.032483	-0.033000	0.014073	-0.636230	-0.486816	0.218018	-0.364661	-0.597777	0.203384	-0.684339
55754		9.441808	1.658592	1.923480	0.019513	-0.015075	0.018647	-0.629395	-0.486816	0.227051	-0.364454	-0.597794	0.203456	-0.684413
55755		9.463196	1.643670	1.992538	0.009848	0.020022	0.019092	-0.633301	-0.486084	0.211182	-0.364274	-0.597745	0.203375	-0.684576
55756		9.461516	1.633942	2.088067	0.001768	0.022105	0.017585	-0.622803	-0.483887	0.226318	-0.364363	-0.597417	0.203475	-0.684785
55757		9.475410	1.658965	2.077293	-0.002247	-0.011300	0.012417	-0.635498	-0.486084	0.219727	-0.364271	-0.597550	0.203517	-0.684705
55758		9.489684	1.610009	2.034142	-0.002866	-0.022300	0.005675	-0.634033	-0.483887	0.223389	-0.364226	-0.597597	0.203645	-0.684650
55759		9.398295	1.581497	1.984679	0.000025	-0.029859	-0.000173	-0.630859	-0.476807	0.221191	-0.364125	-0.597761	0.203727	-0.684537
55760		9.381583	1.544117	1.944987	0.013929	-0.019302	-0.001845	-0.634277	-0.479980	0.217285	-0.363968	-0.597884	0.203730	-0.684512
55761		9.354647	1.518397	1.995256	0.033535	-0.012425	0.005083	-0.634033	-0.481445	0.229980	-0.363757	-0.597941	0.203663	-0.684594
55762		9.434995	1.479583	1.957723	0.042411	-0.017181	0.012681	-0.632568	-0.478516	0.226074	-0.363287	-0.598219	0.203494	-0.684651
55763		9.427517	1.482794	1.934959	0.049632	-0.024031	0.019485	-0.620117	-0.473633	0.228271	-0.362782	-0.598487	0.203380	-0.684718
55764		9.491182	1.508383	1.917922	0.067200	-0.033042	0.020854	-0.627930	-0.475830	0.219482	-0.362191	-0.598940	0.203165	-0.684698
55765		9.475131	1.526771	1.934556	0.075676	-0.042286	0.020867	-0.634521	-0.481689	0.220947	-0.361668	-0.599291	0.203030	-0.684708
55766		9.442740	1.571427	1.881871	0.077724	-0.047352	0.020172	-0.636475	-0.470947	0.233398	-0.361138	-0.599659	0.202880	-0.684710
55767		9.484702	1.574178	1.854837	0.077074	-0.043542	0.021945	-0.627930	-0.479004	0.229492	-0.360291	-0.600149	0.202683	-0.684785
55768		9.504375	1.611173	1.881019	0.072866	-0.046789	0.020090	-0.634766	-0.476318	0.222900	-0.359723	-0.600628	0.202488	-0.684722
55769		9.582115	1.606007	1.789686	0.074908	-0.032961	0.028198	-0.631592	-0.477051	0.226562	-0.359168	-0.600870	0.202380	-0.684833
55770		9.609935	1.623597	1.822416	0.063635	-0.018437	0.022180	-0.635010	-0.474121	0.219482	-0.358723	-0.601068	0.202219	-0.684940
55771		9.536246	1.646227	1.823309	0.050903	-0.019707	0.020475	-0.632568	-0.479004	0.234863	-0.358414	-0.601110	0.202208	-0.685068
55772		9.488674	1.645404	1.818920	0.041307	-0.014382	0.015137	-0.633057	-0.483398	0.233643	-0.358047	-0.601336	0.202059	-0.685105
55773		9.440547	1.627289	1.846253	0.032449	-0.018979	0.016072	-0.630371	-0.473877	0.234375	-0.357796	-0.601537	0.201978	-0.685084
55774		9.450472	1.609889	1.800283	0.019018	-0.013993	0.016691	-0.632080	-0.460693	0.230713	-0.357517	-0.601682	0.201981	-0.685101
55775		9.516215	1.538345	1.822998	0.015675	0.002811	0.015576	-0.630859	-0.481445	0.232422	-0.357171	-0.601653	0.202023	-0.685295
55776		9.572932	1.470986	1.829110	0.014329	0.007276	0.013977	-0.633301	-0.470703	0.229248	-0.357107	-0.601638	0.201966	-0.685358
55777		9.559304	1.471563	1.872136	0.017549	0.013501	0.007158	-0.639160	-0.462891	0.232666	-0.356970	-0.601547	0.201906	-0.685527
55778		9.515496	1.514884	1.902345	0.006660	-0.008974	-0.000259	-0.630615	-0.479248	0.238770	-0.356698	-0.601582	0.201949	-0.685626
55779		9.485720	1.542408	1.872881	0.003188	-0.027732	-0.001470	-0.637207	-0.477051	0.235596	-0.356605	-0.601853	0.201935	-0.685440
55780		9.463857	1.519720	1.863778	0.002733	-0.007267	-0.002665	-0.626709	-0.469238	0.233887	-0.356535	-0.601920	0.201916	-0.685423
55781		9.463621	1.520142	1.864633	0.006073	0.019525	-0.000940	-0.633057	-0.469238	0.234619	-0.356493	-0.601863	0.201818	-0.685524
55782		9.472034	1.562745	1.885320	-0.003505	0.032516	-0.003251	-0.636230	-0.467041	0.235107	-0.356478	-0.601688	0.201737	-0.685710
55783		9.506848	1.599371	1.869950	-0.008053	0.032451	-0.009543	-0.637451	-0.471191	0.235107	-0.356463	-0.601504	0.201661	-0.685901
55784		9.549822	1.629512	1.918877	-0.020537	0.024818	-0.011933	-0.625488	-0.482666	0.230469	-0.356549	-0.601334	0.201651	-0.686008
55785		9.544319	1.616866	1.921446	-0.030377	0.010276	-0.013824	-0.636230	-0.474365	0.229004	-0.356949	-0.601233	0.201679	-0.685880
55786		9.495416	1.607041	1.862807	-0.030897	0.015763	-0.012224	-0.636719	-0.470215	0.234131	-0.357196	-0.601017	0.201782	-0.685911
55787		9.484548	1.519287	1.852519	-0.037086	0.032522	-0.010540	-0.630859	-0.476074	0.237305	-0.357356	-0.600757	0.201854	-0.686034
55788		9.513181	1.506864	1.902080	-0.042850	0.059094	-0.010120	-0.634033	-0.471680	0.223633	-0.357634	-0.600416	0.201806	-0.686202
55789		9.511030	1.579154	1.987101	-0.053009	0.060581	-0.011033	-0.637451	-0.474365	0.217529	-0.358098	-0.599836	0.201946	-0.686426
55790		9.465017	1.622403	2.026763	-0.068320	0.039600	-0.013742	-0.640381	-0.472900	0.227539	-0.358696	-0.599254	0.202257	-0.686531
55791		9.442450	1.662718	1.994655	-0.085243	0.025797	-0.014445	-0.628662	-0.471436	0.225586	-0.359148	-0.598842	0.202626	-0.686545
55792		9.387983	1.663234	2.014449	-0.094989	0.025788	-0.016751	-0.635498	-0.482178	0.221680	-0.359737	-0.598447	0.203016	-0.686466
55793		9.367829	1.575312	2.033035	-0.100780	0.022087	-0.019608	-0.636719	-0.479980	0.225098	-0.360480	-0.597995	0.203441	-0.686344
55794		9.393219	1.522614	2.002239	-0.099325	0.009563	-0.018614	-0.633545	-0.481445	0.229492	-0.361083	-0.597671	0.203879	-0.686180
55795		9.436065	1.447545	1.991458	-0.092713	0.002625	-0.021607	-0.630127	-0.478027	0.218262	-0.361616	-0.597496	0.204237	-0.685944
55796		9.457429	1.410026	1.986365	-0.086178	-0.004027	-0.015772	-0.628174	-0.480713	0.222412	-0.362192	-0.597240	0.204683	-0.685731
55797		9.466476	1.408717	1.959793	-0.083438	-0.005701	-0.012765	-0.628906	-0.477783	0.222656	-0.362704	-0.597070	0.205088	-0.685487
55798		9.471421	1.468068	1.960931	-0.082201	-0.006186	-0.010943	-0.639404	-0.478760	0.218750	-0.363143	-0.596907	0.205507	-0.685271
55799		9.436429	1.494502	1.950314	-0.086076	0.000654	-0.005193	-0.635010	-0.475586	0.223633	-0.363561	-0.596590	0.206008	-0.685175
55800		9.457866	1.483427	1.975844	-0.081815	0.007115	-0.003789	-0.637207	-0.479248	0.208496	-0.363877	-0.596339	0.206435	-0.685097
55801		9.484332	1.518365	1.986826	-0.081478	0.003987	-0.004995	-0.639160	-0.474854	0.222412	-0.364409	-0.595911	0.206951	-0.685031
55802		9.466313	1.507352	1.984163	-0.086577	0.007347	-0.007053	-0.633545	-0.470215	0.218262	-0.364722	-0.595634	0.207400	-0.684969
55803		9.452859	1.557078	1.983679	-0.100851	0.021839	-0.015966	-0.630371	-0.477295	0.223633	-0.365208	-0.595224	0.207862	-0.684927
55804		9.499965	1.583642	2.021795	-0.116621	0.031675	-0.014882	-0.635010	-0.478516	0.214844	-0.365790	-0.594812	0.208312	-0.684837
55805		9.541656	1.563479	2.076253	-0.126250	0.040102	-0.015109	-0.635742	-0.493652	0.210938	-0.366524	-0.594200	0.208859	-0.684810
55806		9.584941	1.597476	2.039917	-0.138112	0.051878	-0.014510	-0.639404	-0.483154	0.211182	-0.367515	-0.593462	0.209400	-0.684753
55807		9.551652	1.590886	2.043059	-0.153528	0.067559	-0.020633	-0.632568	-0.478760	0.209473	-0.368478	-0.592596	0.209993	-0.684804
55808		9.517704	1.538185	2.047381	-0.150214	0.063617	-0.019790	-0.636230	-0.474365	0.210693	-0.369397	-0.591790	0.210576	-0.684827
55809		9.513511	1.526724	2.152206	-0.149986	0.047391	-0.015545	-0.639160	-0.477051	0.206055	-0.370146	-0.591090	0.211237	-0.684824
55810		9.468002	1.449353	2.116357	-0.147747	0.028408	-0.005808	-0.630371	-0.470703	0.198242	-0.370843	-0.590436	0.212014	-0.684770
55811		9.400073	1.329726	2.101983	-0.134049	0.033938	-0.001105	-0.636230	-0.488770	0.208252	-0.371526	-0.589735	0.212759	-0.684774
55812		9.345859	1.237624	2.076525	-0.109676	0.036937	0.006513	-0.640625	-0.484131	0.197998	-0.372040	-0.589221	0.213263	-0.684780
55813		9.319135	1.215146	2.043480	-0.073121	0.025539	0.009834	-0.626953	-0.484131	0.204102	-0.372386	-0.588737	0.213710	-0.684869
55814		9.340897	1.220538	2.040502	-0.044080	0.021608	0.012697	-0.644775	-0.484863	0.195068	-0.372547	-0.588513	0.213921	-0.684908
55815		9.377029	1.300152	2.026197	-0.022081	0.017904	0.019217	-0.630859	-0.480225	0.207520	-0.372578	-0.588181	0.214168	-0.685099
55816		9.480506	1.333034	1.956350	-0.003660	0.016382	0.024894	-0.632324	-0.488525	0.205566	-0.372337	-0.588130	0.214214	-0.685260
55817		9.572721	1.327807	1.976192	0.019302	0.033522	0.031594	-0.635986	-0.479248	0.196777	-0.372086	-0.588018	0.214100	-0.685528
55818		9.559491	1.388618	1.992131	0.029639	0.030191	0.029673	-0.643799	-0.479492	0.203125	-0.371801	-0.587826	0.214037	-0.685866
55819		9.621256	1.446164	1.831150	0.033186	0.020885	0.024892	-0.635254	-0.479492	0.199463	-0.371384	-0.587761	0.213932	-0.686180
55820		9.704799	1.487308	1.491751	0.013685	0.027955	0.011115	-0.648682	-0.479980	0.205322	-0.371262	-0.587610	0.213847	-0.686402
55821		9.989055	1.497883	1.397580	-0.004532	0.084045	0.002270	-0.642090	-0.483887	0.198975	-0.371231	-0.587125	0.213648	-0.686897
55822		9.955973	1.412986	1.698367	0.020322	0.124563	-0.002392	-0.635986	-0.478027	0.201904	-0.371329	-0.586459	0.213161	-0.687563
55823		9.618016	1.221179	2.051252	0.050053	0.127282	-0.001798	-0.637695	-0.480469	0.195801	-0.371204	-0.585943	0.212468	-0.688285
55824		9.244996	1.198983	2.252948	0.092927	0.146744	-0.000181	-0.639160	-0.478027	0.198975	-0.370989	-0.585374	0.211513	-0.689178
55825		8.929555	1.449770	2.478831	0.111115	0.198770	0.015729	-0.637695	-0.480957	0.198242	-0.370601	-0.584577	0.210351	-0.690418
55826		8.809465	1.614646	2.618343	0.097880	0.166498	0.019586	-0.637939	-0.473633	0.188721	-0.370237	-0.583934	0.209353	-0.691460
55827		9.005111	1.589084	2.556635	0.073535	0.152515	0.033056	-0.645996	-0.481934	0.187012	-0.369960	-0.583152	0.208703	-0.692463
55828		9.111593	1.552791	2.552268	0.040816	0.101011	0.032966	-0.648193	-0.479248	0.190674	-0.369800	-0.582542	0.208383	-0.693159
55829		9.050680	1.577669	2.481542	0.018354	0.079144	0.030975	-0.644531	-0.474365	0.190918	-0.369628	-0.582041	0.208225	-0.693719
55830		9.190929	1.577047	2.466726	0.005743	0.070411	0.020171	-0.638672	-0.483887	0.190918	-0.369534	-0.581593	0.208109	-0.694179
55831		9.416898	1.618605	2.528127	-0.003670	0.048673	0.003553	-0.650879	-0.472412	0.189209	-0.369663	-0.581311	0.207968	-0.694389
55832		9.470289	1.520040	2.556118	-0.019754	0.038042	-0.002756	-0.652344	-0.474365	0.199707	-0.369730	-0.580983	0.208013	-0.694615
55833		9.419526	1.358383	2.622716	-0.034651	0.027370	-0.009663	-0.645996	-0.475098	0.182861	-0.369755	-0.580815	0.208057	-0.694729
55834		9.315975	1.239614	2.605661	-0.038490	0.019915	-0.015038	-0.645264	-0.472168	0.194092	-0.370088	-0.580507	0.208224	-0.694758
55835		9.195897	1.205117	2.582722	-0.030089	0.036887	-0.017366	-0.646729	-0.482910	0.191162	-0.370229	-0.580277	0.208193	-0.694885
55836		9.235907	1.298563	2.478980	-0.029194	0.033873	-0.014411	-0.650635	-0.479736	0.188965	-0.370460	-0.580038	0.208157	-0.694972
55837		9.466396	1.365574	2.460686	-0.025788	0.026243	-0.004760	-0.647461	-0.485596	0.182617	-0.370583	-0.579798	0.208214	-0.695090
55838		9.521987	1.359210	2.485261	-0.029362	0.011779	0.002915	-0.648682	-0.474121	0.187500	-0.370793	-0.579566	0.208376	-0.695122
55839		9.455325	1.302829	2.477481	-0.019274	-0.003369	0.005053	-0.645996	-0.476807	0.192139	-0.370750	-0.579494	0.208561	-0.695150
55840		9.370497	1.265468	2.491926	-0.004728	-0.010741	0.005376	-0.654297	-0.482666	0.184814	-0.370594	-0.579579	0.208626	-0.695143
55841		9.264577	1.308482	2.418855	0.012957	-0.016662	-0.000384	-0.651123	-0.475098	0.190430	-0.370482	-0.579652	0.208633	-0.695140
55842		9.260468	1.411212	2.353055	0.014564	0.001477	-0.000007	-0.643799	-0.475830	0.189697	-0.370283	-0.579687	0.208568	-0.695235
55843		9.305844	1.536545	2.355062	0.013726	0.014957	-0.003506	-0.648193	-0.477051	0.186523	-0.370183	-0.579667	0.208421	-0.695350
55844		9.363671	1.480904	2.410675	0.008899	0.020716	-0.001078	-0.653564	-0.475586	0.185303	-0.370135	-0.579543	0.208329	-0.695507
55845		9.417584	1.453626	2.371379	0.014930	0.018592	-0.006993	-0.647949	-0.474365	0.193115	-0.370073	-0.579426	0.208217	-0.695670
55846		9.393371	1.400720	2.381284	0.007279	0.019775	-0.018205	-0.650146	-0.477295	0.195801	-0.370025	-0.579411	0.208014	-0.695769
55847		9.354554	1.390821	2.338426	0.010535	0.013572	-0.021667	-0.645020	-0.483398	0.197754	-0.369945	-0.579476	0.207766	-0.695832
55848		9.330488	1.399828	2.362046	0.022822	0.004367	-0.023122	-0.645264	-0.476562	0.188965	-0.369820	-0.579686	0.207388	-0.695836
55849		9.336331	1.423314	2.318760	0.030080	0.017837	-0.027615	-0.646973	-0.478027	0.187500	-0.369797	-0.579727	0.207028	-0.695921
55850		9.343668	1.456688	2.325104	0.032592	0.031467	-0.029761	-0.645752	-0.475342	0.195068	-0.369819	-0.579680	0.206610	-0.696073
55851		9.388236	1.503921	2.377878	0.027675	0.032468	-0.032407	-0.640869	-0.471191	0.184570	-0.369769	-0.579702	0.206163	-0.696214
55852		9.398069	1.532861	2.416837	0.022147	0.019139	-0.030051	-0.649170	-0.476318	0.188965	-0.369857	-0.579666	0.205897	-0.696276
55853		9.366746	1.580390	2.407078	0.015964	0.008092	-0.031338	-0.644775	-0.482422	0.186035	-0.369889	-0.579711	0.205655	-0.696293
55854		9.351109	1.572297	2.432703	0.008674	-0.006459	-0.034787	-0.649170	-0.478516	0.186279	-0.370030	-0.579817	0.205439	-0.696193
55855		9.348499	1.568787	2.383599	-0.001872	-0.011142	-0.037693	-0.637451	-0.476318	0.193115	-0.370198	-0.579899	0.205339	-0.696065
55856		9.359750	1.537470	2.402761	-0.010820	-0.004917	-0.040128	-0.644043	-0.488770	0.194580	-0.370368	-0.580034	0.205171	-0.695912
55857		9.362997	1.510620	2.404239	-0.012718	-0.001106	-0.037743	-0.650146	-0.473145	0.181885	-0.370543	-0.580153	0.204937	-0.695788
55858		9.374119	1.525433	2.425397	-0.020781	0.007834	-0.042805	-0.646973	-0.486328	0.192139	-0.370906	-0.580001	0.204968	-0.695712
55859		9.361486	1.554105	2.391566	-0.022439	0.007254	-0.038184	-0.646484	-0.480469	0.191162	-0.371153	-0.579999	0.204823	-0.695625
55860		9.370063	1.572610	2.380217	-0.018660	-0.004596	-0.031916	-0.639648	-0.480957	0.182617	-0.371316	-0.580044	0.204781	-0.695512
55861		9.405660	1.520742	2.361798	-0.020193	-0.010766	-0.027348	-0.637207	-0.481689	0.191162	-0.371582	-0.580043	0.204819	-0.695360
55862		9.399380	1.445115	2.389016	-0.016269	-0.017738	-0.021689	-0.647217	-0.480957	0.191406	-0.371677	-0.580189	0.204801	-0.695193
55863		9.360616	1.415613	2.371137	-0.006223	-0.027241	-0.019455	-0.648682	-0.477783	0.185059	-0.371663	-0.580380	0.204826	-0.695034
55864		9.317011	1.432598	2.366434	0.003292	-0.022794	-0.019129	-0.631104	-0.479980	0.191162	-0.371685	-0.580487	0.204874	-0.694918
55865		9.368383	1.486303	2.319680	0.013717	-0.016162	-0.013253	-0.639404	-0.481934	0.190430	-0.371604	-0.580710	0.204712	-0.694823
55866		9.368045	1.502367	2.332031	0.019102	-0.017086	-0.006496	-0.644287	-0.481934	0.191406	-0.371454	-0.580906	0.204591	-0.694776
55867		9.373693	1.504143	2.314982	0.026371	-0.018154	-0.005055	-0.649658	-0.476074	0.186035	-0.371239	-0.581116	0.204459	-0.694753
55868		9.369979	1.538752	2.309723	0.027020	-0.019893	-0.009580	-0.642090	-0.479980	0.187256	-0.371097	-0.581251	0.204435	-0.694724
55869		9.384319	1.568992	2.295545	0.025876	-0.018233	-0.009197	-0.641602	-0.482910	0.194092	-0.370975	-0.581418	0.204328	-0.694681
55870		9.419427	1.590014	2.305338	0.026297	-0.012452	-0.010689	-0.640381	-0.488525	0.190674	-0.370793	-0.581632	0.204115	-0.694661
55871		9.431743	1.555420	2.323420	0.029698	-0.005465	-0.006945	-0.639648	-0.489990	0.192627	-0.370649	-0.581787	0.203850	-0.694686
55872		9.396343	1.506597	2.323833	0.031720	-0.011748	-0.004151	-0.637939	-0.486572	0.188965	-0.370448	-0.582004	0.203575	-0.694692
55873		9.394060	1.466552	2.287902	0.029496	-0.026120	-0.002680	-0.634033	-0.474609	0.192139	-0.370273	-0.582250	0.203416	-0.694626
55874		9.404623	1.481558	2.270410	0.029791	-0.032554	0.002254	-0.634521	-0.483154	0.190186	-0.370013	-0.582537	0.203373	-0.694536
55875		9.449332	1.528493	2.281029	0.036229	-0.024246	0.005541	-0.640137	-0.481934	0.187744	-0.369764	-0.582783	0.203224	-0.694506
55876		9.429144	1.538290	2.253920	0.038145	-0.010791	0.004920	-0.640625	-0.484375	0.197021	-0.369555	-0.582905	0.203081	-0.694557
55877		9.380256	1.553058	2.265015	0.039973	-0.000587	0.004707	-0.643555	-0.488770	0.193359	-0.369249	-0.583071	0.202809	-0.694660
55878		9.400754	1.558776	2.302224	0.039731	-0.005060	0.002811	-0.638184	-0.487793	0.191895	-0.368996	-0.583225	0.202542	-0.694743
55879		9.360643	1.555354	2.315967	0.036068	-0.015008	0.002656	-0.644775	-0.491699	0.199463	-0.368776	-0.583423	0.202317	-0.694759
55880		9.370118	1.583723	2.315682	0.024641	-0.017254	0.004987	-0.643555	-0.475830	0.199951	-0.368498	-0.583655	0.202122	-0.694768
55881		9.341163	1.565065	2.286011	0.014981	-0.017728	0.004969	-0.642334	-0.478027	0.197510	-0.368257	-0.583825	0.202136	-0.694749
55882		9.378811	1.587793	2.249852	0.011736	-0.013035	0.002968	-0.637939	-0.483643	0.188721	-0.368086	-0.583944	0.202130	-0.694742
55883		9.422729	1.587490	2.264221	0.010391	-0.003830	0.006377	-0.645264	-0.486328	0.199707	-0.368035	-0.583940	0.202096	-0.694782
55884		9.449296	1.577641	2.272203	0.009723	-0.014085	0.005992	-0.640137	-0.479492	0.202637	-0.367832	-0.584085	0.202035	-0.694785
55885		9.482308	1.586108	2.235721	-0.008615	-0.005389	0.000016	-0.639648	-0.480469	0.198486	-0.367745	-0.584159	0.202048	-0.694765
55886		9.429255	1.618593	2.232774	-0.030058	0.012879	-0.008580	-0.638184	-0.489746	0.199219	-0.367890	-0.584039	0.202101	-0.694774
55887		9.353288	1.642336	2.238810	-0.032069	0.010300	-0.011030	-0.637451	-0.484131	0.195801	-0.368037	-0.583975	0.202042	-0.694767
55888		9.351872	1.610375	2.256751	-0.034477	0.008752	-0.009636	-0.632568	-0.487793	0.200439	-0.368224	-0.583865	0.202090	-0.694746
55889		9.351121	1.518178	2.259305	-0.040555	0.004586	-0.014218	-0.649414	-0.489746	0.200928	-0.368402	-0.583845	0.202061	-0.694677
55890		9.341651	1.444631	2.258759	-0.041173	0.011619	-0.012829	-0.637695	-0.489014	0.199707	-0.368542	-0.583737	0.202085	-0.694687
55891		9.356923	1.436061	2.298320	-0.035288	0.007745	-0.012915	-0.633789	-0.489258	0.194092	-0.368668	-0.583700	0.202031	-0.694667
55892		9.402587	1.473461	2.255376	-0.031342	0.014925	-0.010732	-0.644775	-0.489990	0.194092	-0.368834	-0.583592	0.201951	-0.694692
55893		9.450658	1.505645	2.247396	-0.025499	0.042271	-0.001116	-0.640869	-0.482910	0.198975	-0.368936	-0.583298	0.201851	-0.694914
55894		9.578889	1.503782	2.305656	-0.005391	0.080186	0.016934	-0.634521	-0.490479	0.199463	-0.368875	-0.582853	0.201651	-0.695378
55895		9.568340	1.495847	2.380711	0.024634	0.114267	0.031541	-0.643311	-0.487061	0.198242	-0.368583	-0.582348	0.201071	-0.696124
55896		9.550431	1.468205	2.502498	0.018532	0.112672	0.040297	-0.637207	-0.480225	0.194580	-0.368269	-0.581776	0.200663	-0.696885
55897		9.512111	1.451635	2.428114	0.006438	0.104371	0.055346	-0.637207	-0.490723	0.181885	-0.368001	-0.581156	0.200510	-0.697588
55898		9.424671	1.707941	2.394238	0.014449	0.090746	0.049622	-0.644043	-0.488037	0.185791	-0.367760	-0.580591	0.200213	-0.698270
55899		9.394744	1.646397	2.427292	-0.000337	0.064889	0.032540	-0.641602	-0.480713	0.190918	-0.367592	-0.580178	0.200033	-0.698753
55900		9.404760	1.428409	2.377188	-0.008250	0.024895	0.024312	-0.641113	-0.479248	0.193848	-0.367435	-0.580017	0.200046	-0.698965
55901		9.230198	1.343083	2.238798	0.029994	0.049711	0.010900	-0.639404	-0.481201	0.187256	-0.367183	-0.579879	0.199688	-0.699315
55902		9.131595	1.260320	2.292446	0.072452	0.112422	0.015757	-0.642822	-0.480225	0.186035	-0.366867	-0.579451	0.198912	-0.700056
55903		9.241305	1.260810	2.399707	0.107624	0.127140	0.021651	-0.639893	-0.480713	0.197754	-0.366380	-0.579017	0.197948	-0.700944
55904		9.324991	1.447561	2.445667	0.126575	0.087411	0.016680	-0.648193	-0.483643	0.193604	-0.365595	-0.579014	0.196833	-0.701669
55905		9.405563	1.443654	2.405924	0.113445	0.036062	0.023775	-0.628906	-0.483398	0.188232	-0.364744	-0.579215	0.195987	-0.702183
55906		9.377879	1.481930	2.425886	0.105187	-0.004900	0.022294	-0.642578	-0.478760	0.192871	-0.363984	-0.579631	0.195241	-0.702442
55907		9.259825	1.542883	2.356829	0.094998	-0.040001	0.020493	-0.643555	-0.475586	0.191650	-0.363195	-0.580200	0.194774	-0.702510
55908		9.299475	1.596140	2.175179	0.096509	-0.017108	0.019872	-0.637695	-0.476318	0.195068	-0.362510	-0.580596	0.194311	-0.702665
55909		9.433444	1.610585	2.226433	0.110672	0.047210	0.018809	-0.647705	-0.480469	0.187256	-0.361824	-0.580708	0.193484	-0.703154
55910		9.497923	1.598725	2.305069	0.105207	0.060028	0.016695	-0.650635	-0.484131	0.193848	-0.361235	-0.580651	0.192663	-0.703729
55911		9.451218	1.522264	2.311511	0.093235	0.053341	0.007332	-0.643799	-0.478271	0.193848	-0.360580	-0.580696	0.191742	-0.704279
55912		9.352323	1.526353	2.310774	0.079617	0.047008	-0.008027	-0.642578	-0.480469	0.194824	-0.360164	-0.580745	0.190932	-0.704671
55913		9.278529	1.604782	2.270484	0.072491	0.048145	-0.015201	-0.647461	-0.478516	0.201416	-0.359775	-0.580805	0.190052	-0.705059
55914		9.266121	1.749803	2.302170	0.067460	0.077138	-0.019663	-0.644043	-0.479248	0.187500	-0.359385	-0.580729	0.189085	-0.705580
55915		9.265299	1.821697	2.406633	0.040210	0.082754	-0.014110	-0.646729	-0.476562	0.196045	-0.359327	-0.580402	0.188402	-0.706061
55916		9.265708	1.770307	2.483981	0.009619	0.072563	-0.005966	-0.636230	-0.484619	0.192627	-0.359235	-0.580101	0.187942	-0.706478
55917		9.327541	1.712484	2.570277	-0.019808	0.073565	-0.009858	-0.641357	-0.472412	0.194336	-0.359232	-0.579766	0.187404	-0.706897
55918		9.395334	1.664287	2.691844	-0.048318	0.078841	-0.016699	-0.643311	-0.473633	0.193848	-0.359597	-0.579250	0.187307	-0.707161
55919		9.377745	1.672368	2.826771	-0.084878	0.079350	-0.027591	-0.648438	-0.470215	0.187988	-0.360166	-0.578646	0.187344	-0.707355
55920		9.244282	1.743391	2.851450	-0.126796	0.075467	-0.042143	-0.646240	-0.472168	0.187744	-0.361169	-0.577872	0.187759	-0.707366
55921		9.179165	1.735035	2.842645	-0.146907	0.071152	-0.055944	-0.644531	-0.479492	0.185059	-0.362295	-0.577114	0.188174	-0.707299
55922		9.156521	1.657494	2.790685	-0.151449	0.089825	-0.067100	-0.644531	-0.482422	0.188721	-0.363427	-0.576290	0.188335	-0.707348
55923		9.141804	1.529582	2.633390	-0.132632	0.093771	-0.077339	-0.636719	-0.482910	0.183350	-0.364391	-0.575587	0.188205	-0.707458
55924		9.145011	1.330723	2.531585	-0.100727	0.103964	-0.076196	-0.646484	-0.477539	0.178711	-0.365310	-0.574893	0.187889	-0.707633
55925		9.142493	1.193474	2.456306	-0.049065	0.092761	-0.063093	-0.636963	-0.482910	0.172607	-0.366046	-0.574299	0.187627	-0.707804
55926		9.151859	1.126229	2.411983	0.010604	0.066746	-0.046117	-0.645996	-0.484131	0.190186	-0.366381	-0.574016	0.187069	-0.708008
55927		9.245243	1.123270	2.381251	0.068049	0.054877	-0.021837	-0.646729	-0.481445	0.175049	-0.365885	-0.574122	0.186112	-0.708431
55928		9.325451	1.240483	2.404660	0.124274	0.053501	-0.003449	-0.642822	-0.482666	0.173096	-0.365349	-0.574194	0.185185	-0.708892
55929		9.413489	1.445058	2.443095	0.160377	0.040107	0.015222	-0.645020	-0.489746	0.179443	-0.364536	-0.574420	0.184147	-0.709398
55930		9.348920	1.630583	2.509710	0.168898	0.027342	0.024351	-0.638916	-0.483154	0.178955	-0.363311	-0.574849	0.182847	-0.710015
55931		9.317344	1.817800	2.459626	0.172850	0.016435	0.029873	-0.643555	-0.480469	0.180908	-0.362212	-0.575291	0.181755	-0.710498
55932		9.342982	1.904051	2.466700	0.168632	0.029935	0.025959	-0.654297	-0.475342	0.184814	-0.361187	-0.575631	0.180688	-0.711017
55933		9.328454	1.936338	2.523389	0.145645	0.031879	0.019473	-0.641357	-0.484131	0.188721	-0.360311	-0.575879	0.179844	-0.711474
55934		9.305182	1.940922	2.577656	0.115404	0.025296	0.013020	-0.643555	-0.476074	0.178223	-0.359374	-0.576212	0.178791	-0.711944
55935		9.319058	1.842894	2.617482	0.082865	0.002449	0.007174	-0.643555	-0.474121	0.181885	-0.359013	-0.576406	0.178378	-0.712073
55936		9.311796	1.756274	2.599775	0.055095	0.003456	0.006612	-0.641113	-0.477295	0.187988	-0.358766	-0.576531	0.178127	-0.712158
55937		9.327365	1.723739	2.574907	0.035775	0.004577	0.009286	-0.648193	-0.472168	0.182129	-0.358408	-0.576680	0.177807	-0.712298
55938		9.297413	1.672106	2.564045	0.030239	0.006968	0.013553	-0.644775	-0.473877	0.187012	-0.358265	-0.576678	0.177788	-0.712377
55939		9.293137	1.668127	2.611082	0.019009	0.014857	0.011779	-0.637939	-0.479004	0.189941	-0.358072	-0.576668	0.177668	-0.712511
55940		9.235941	1.639284	2.605343	0.005637	0.006099	0.007412	-0.645996	-0.484619	0.182129	-0.357816	-0.576755	0.177420	-0.712631
55941		9.218653	1.629072	2.599589	0.001758	0.009344	0.004521	-0.643066	-0.481445	0.185059	-0.357561	-0.576769	0.177115	-0.712824
55942		9.201150	1.619617	2.594121	0.000979	0.009070	-0.003735	-0.642334	-0.476562	0.187744	-0.357391	-0.576806	0.176822	-0.712952
55943		9.241775	1.624706	2.581032	0.006306	0.012211	-0.008132	-0.641113	-0.471680	0.186523	-0.357301	-0.576836	0.176583	-0.713032
55944		9.282484	1.641124	2.615133	0.002923	0.007212	-0.008775	-0.641357	-0.473633	0.186768	-0.357392	-0.576834	0.176553	-0.712996
55945		9.297734	1.666504	2.637611	-0.004656	0.002968	-0.011149	-0.649902	-0.471436	0.187012	-0.357470	-0.576856	0.176505	-0.712951
55946		9.279024	1.683566	2.693337	-0.024779	-0.002964	-0.013178	-0.641846	-0.489746	0.187988	-0.357643	-0.576833	0.176665	-0.712843
55947		9.267223	1.663735	2.625941	-0.022968	-0.001631	-0.013057	-0.655273	-0.476807	0.186523	-0.357383	-0.576965	0.176222	-0.712976
55948		9.286678	1.667447	2.699047	-0.026199	0.008190	-0.018530	-0.643555	-0.474609	0.186035	-0.357446	-0.576911	0.176182	-0.712998
55949		9.274446	1.659049	2.680509	-0.027701	0.005754	-0.016796	-0.650146	-0.474854	0.181641	-0.357658	-0.576851	0.176238	-0.712926
55950		9.279532	1.613485	2.669604	-0.030791	-0.001955	-0.015326	-0.642822	-0.477051	0.191650	-0.357904	-0.576777	0.176409	-0.712821
55951		9.294716	1.581235	2.646225	-0.025008	0.002560	-0.013330	-0.646484	-0.490723	0.184570	-0.357905	-0.576817	0.176325	-0.712808
55952		9.311205	1.591667	2.654645	-0.020088	0.009621	-0.011906	-0.651611	-0.472900	0.181641	-0.357624	-0.576864	0.175852	-0.713028
55953		9.276313	1.584245	2.690504	-0.015776	0.013310	-0.008419	-0.640625	-0.482422	0.184570	-0.357837	-0.576714	0.176010	-0.713003
55954		9.250112	1.604404	2.728739	-0.010752	0.006803	-0.005597	-0.646240	-0.478760	0.186523	-0.357740	-0.576735	0.175792	-0.713090
55955		9.232935	1.595034	2.722098	-0.007898	-0.006742	-0.001238	-0.646484	-0.479492	0.179443	-0.357600	-0.576825	0.175715	-0.713106
55956		9.244583	1.547524	2.695672	-0.003625	-0.006263	0.002764	-0.645020	-0.481934	0.190674	-0.357550	-0.576849	0.175717	-0.713111
55957		9.249250	1.550015	2.648527	-0.001531	-0.009235	0.005273	-0.649902	-0.476074	0.185059	-0.357165	-0.577033	0.175468	-0.713217
55958		9.285365	1.600151	2.644651	0.005962	-0.007820	0.005659	-0.638916	-0.480225	0.189941	-0.357001	-0.577117	0.175464	-0.713231
55959		9.325369	1.618021	2.644788	0.014673	0.009575	0.008599	-0.643066	-0.477051	0.192139	-0.356661	-0.577210	0.175143	-0.713405
55960		9.339279	1.619804	2.732191	0.022137	0.022201	0.012878	-0.636230	-0.477295	0.191162	-0.356285	-0.577239	0.174832	-0.713646
55961		9.320215	1.612941	2.695192	0.008489	0.014152	0.009123	-0.644531	-0.476562	0.180664	-0.356055	-0.577275	0.174608	-0.713786
55962		9.306739	1.652135	2.643723	-0.004918	0.023769	0.002560	-0.652588	-0.481689	0.185547	-0.356140	-0.577102	0.174603	-0.713885
55963		9.211808	1.669267	2.607423	-0.008625	0.023448	-0.002994	-0.641602	-0.478027	0.190430	-0.355911	-0.577030	0.174312	-0.714128
55964		9.234751	1.664490	2.590037	0.004533	0.028520	-0.005381	-0.645264	-0.472900	0.183105	-0.355738	-0.576993	0.173967	-0.714328
55965		9.258912	1.563760	2.608245	0.017512	0.029978	0.000942	-0.648926	-0.480713	0.182129	-0.355780	-0.576851	0.173892	-0.714440
55966		9.250554	1.532724	2.641916	0.018690	0.026334	0.003384	-0.644287	-0.477051	0.182373	-0.355516	-0.576795	0.173542	-0.714702
55967		9.234053	1.473100	2.671703	0.014138	0.014220	0.009373	-0.644287	-0.474854	0.178467	-0.355378	-0.576760	0.173417	-0.714829
55968		9.216964	1.555827	2.662520	0.010485	-0.000893	0.002972	-0.651367	-0.480957	0.183105	-0.355437	-0.576752	0.173473	-0.714792
55969		9.251347	1.610184	2.627214	0.019555	0.002200	0.006653	-0.643066	-0.471924	0.185791	-0.355054	-0.576853	0.173168	-0.714976
55970		9.286791	1.661087	2.625413	0.021783	0.014044	0.004329	-0.648682	-0.478760	0.189209	-0.355008	-0.576838	0.173103	-0.715026
55971		9.274809	1.662649	2.653874	0.021670	0.013182	-0.000452	-0.645264	-0.468750	0.178711	-0.354633	-0.576932	0.172700	-0.715234
55972		9.264217	1.603910	2.668684	0.014985	0.007999	-0.002519	-0.645020	-0.470215	0.183594	-0.354898	-0.576841	0.172888	-0.715131
55973		9.251307	1.609453	2.662889	0.008747	-0.006651	-0.004579	-0.650879	-0.472412	0.183105	-0.355013	-0.576888	0.172999	-0.715009
55974		9.258560	1.595566	2.633666	0.004635	-0.003061	-0.004323	-0.642578	-0.476562	0.187256	-0.355028	-0.576917	0.173040	-0.714968
55975		9.292377	1.661578	2.646850	-0.000135	0.015534	-0.004205	-0.645020	-0.473145	0.196777	-0.354983	-0.576890	0.172879	-0.715051
55976		9.284236	1.676763	2.678340	-0.001995	0.025408	-0.000471	-0.647461	-0.485352	0.177002	-0.354826	-0.576859	0.172699	-0.715198
55977		9.283337	1.630587	2.682723	-0.000766	0.010561	-0.001881	-0.644531	-0.474609	0.183105	-0.354646	-0.576833	0.172389	-0.715383
55978		9.257496	1.582489	2.626878	0.002463	0.004329	0.000578	-0.645020	-0.479736	0.188232	-0.354657	-0.576821	0.172384	-0.715388
55979		9.240412	1.572945	2.620051	0.002384	-0.002087	0.001617	-0.646484	-0.479248	0.180908	-0.354396	-0.576937	0.172156	-0.715479
55980		9.243416	1.590382	2.588748	0.008725	0.002584	0.002066	-0.647949	-0.487061	0.183838	-0.354249	-0.576969	0.171990	-0.715566
55981		9.254551	1.600307	2.609864	0.010658	0.009963	0.003672	-0.641602	-0.480713	0.184814	-0.353780	-0.577053	0.171480	-0.715852
55982		9.252754	1.614711	2.625896	0.007623	0.009055	0.001605	-0.648193	-0.476562	0.185303	-0.353577	-0.577092	0.171200	-0.715988
55983		9.313657	1.645915	2.588741	0.005258	0.012745	-0.000274	-0.642090	-0.471924	0.188965	-0.353444	-0.577078	0.171036	-0.716104
55984		9.288554	1.662826	2.659455	0.004012	0.015145	-0.004991	-0.648193	-0.471191	0.182861	-0.353492	-0.577046	0.170982	-0.716119
55985		9.260714	1.640910	2.666629	0.004540	0.012094	-0.006020	-0.638916	-0.478516	0.181396	-0.353620	-0.576973	0.171027	-0.716104
55986		9.265901	1.641523	2.654443	0.001154	0.005495	-0.006399	-0.646484	-0.476318	0.186035	-0.353670	-0.576971	0.170901	-0.716111
55987		9.236978	1.680149	2.673777	-0.004790	0.006146	-0.006017	-0.644775	-0.472900	0.183105	-0.353629	-0.576979	0.170798	-0.716150
55988		9.260662	1.686120	2.700870	-0.010142	0.004979	-0.004406	-0.647461	-0.474609	0.182617	-0.353788	-0.576918	0.170907	-0.716094
55989		9.233114	1.709614	2.706126	-0.013315	0.012441	-0.004617	-0.650635	-0.477783	0.190186	-0.353895	-0.576816	0.170946	-0.716114
55990		9.233829	1.649050	2.695258	-0.011506	0.013774	-0.004490	-0.645508	-0.469971	0.188232	-0.353719	-0.576809	0.170755	-0.716252
55991		9.283040	1.635046	2.687154	-0.011624	0.007730	-0.005967	-0.650879	-0.467773	0.177490	-0.353876	-0.576757	0.170885	-0.716185
55992		9.326654	1.575003	2.693523	-0.017273	0.005680	-0.003455	-0.649658	-0.483643	0.184814	-0.354232	-0.576588	0.171253	-0.716057
55993		9.302203	1.580121	2.715520	-0.013488	-0.001994	-0.002278	-0.659912	-0.476807	0.190674	-0.353982	-0.576662	0.171016	-0.716178
55994		9.260918	1.622026	2.728419	-0.008369	-0.000474	-0.000723	-0.643066	-0.467529	0.185059	-0.353648	-0.576751	0.170856	-0.716310
55995		9.233647	1.644847	2.733096	-0.008139	0.011609	0.002231	-0.645996	-0.477295	0.179688	-0.353911	-0.576625	0.171130	-0.716216
55996		9.201807	1.607081	2.739014	-0.010485	0.013322	0.003127	-0.649902	-0.473877	0.190674	-0.353944	-0.576514	0.171132	-0.716289
55997		9.175802	1.615366	2.729707	-0.009736	0.008319	-0.000805	-0.651611	-0.470703	0.183350	-0.353846	-0.576516	0.171092	-0.716345
55998		9.219172	1.565968	2.783396	-0.008615	0.007033	-0.003643	-0.651611	-0.473877	0.189209	-0.353946	-0.576448	0.171213	-0.716322
55999		9.250527	1.592581	2.732880	-0.008530	-0.002565	-0.007764	-0.643066	-0.465820	0.178711	-0.353870	-0.576518	0.171171	-0.716313
56000		9.287570	1.654648	2.621161	-0.016316	0.019912	-0.010523	-0.651855	-0.474854	0.180420	-0.354396	-0.576275	0.171518	-0.716165
56001		9.270152	1.688851	2.650325	-0.016053	0.040376	-0.011394	-0.646240	-0.473633	0.181396	-0.354545	-0.576007	0.171435	-0.716327
56002		9.250869	1.691122	2.696780	-0.005632	0.034677	-0.007621	-0.649658	-0.470459	0.182861	-0.354704	-0.575795	0.171382	-0.716431
56003		9.227755	1.633244	2.741568	-0.007680	0.019659	-0.010454	-0.650879	-0.475586	0.181885	-0.354877	-0.575667	0.171433	-0.716436
56004		9.188363	1.601867	2.728896	-0.014742	0.012736	-0.016414	-0.645020	-0.476074	0.189453	-0.354976	-0.575598	0.171367	-0.716458
56005		9.164307	1.641294	2.736692	-0.017754	0.018607	-0.022059	-0.645508	-0.476562	0.177490	-0.355107	-0.575548	0.171236	-0.716465
56006		9.162781	1.690148	2.738724	-0.020444	0.019804	-0.022790	-0.641113	-0.470947	0.179443	-0.355393	-0.575395	0.171196	-0.716455
56007		9.185534	1.687862	2.721094	-0.016039	0.020681	-0.026981	-0.648926	-0.472900	0.186523	-0.355857	-0.575230	0.171283	-0.716336
56008		9.191126	1.677222	2.696337	-0.006903	0.021350	-0.033477	-0.649170	-0.476318	0.179688	-0.356076	-0.575174	0.171138	-0.716308
56009		9.227589	1.622955	2.717966	-0.007967	0.018590	-0.040601	-0.647461	-0.483887	0.180908	-0.356336	-0.575112	0.170926	-0.716279
56010		9.253956	1.556015	2.751536	-0.008341	0.020048	-0.045016	-0.646729	-0.479004	0.183350	-0.356473	-0.575098	0.170495	-0.716324
56011		9.179221	1.613382	2.768978	-0.005968	0.011182	-0.039830	-0.649170	-0.476562	0.176514	-0.356650	-0.575123	0.170233	-0.716279
56012		9.177623	1.665779	2.768667	0.003468	0.002386	-0.040617	-0.644287	-0.478027	0.186523	-0.356875	-0.575167	0.170044	-0.716176
56013		9.146385	1.723620	2.800798	-0.002354	-0.016936	-0.037779	-0.648682	-0.478516	0.186035	-0.357017	-0.575377	0.169895	-0.715972
56014		9.087146	1.765222	2.768876	-0.002405	-0.050562	-0.038005	-0.643555	-0.477539	0.183350	-0.357051	-0.575788	0.169819	-0.715642
56015		9.130495	1.800212	2.650541	-0.003366	-0.056056	-0.037319	-0.646484	-0.476807	0.179932	-0.357210	-0.576191	0.169851	-0.715231
56016		9.199029	1.744647	2.594807	0.002206	-0.033185	-0.037531	-0.645752	-0.477783	0.184570	-0.357394	-0.576443	0.169816	-0.714944
56017		9.261640	1.696517	2.635677	0.003047	-0.011708	-0.035156	-0.646973	-0.476562	0.181885	-0.357539	-0.576599	0.169684	-0.714777
56018		9.346632	1.692580	2.623545	0.003572	-0.004299	-0.027262	-0.644531	-0.482178	0.186768	-0.357683	-0.576675	0.169611	-0.714661
56019		9.354364	1.724415	2.625801	-0.002280	-0.002823	-0.022106	-0.642090	-0.484619	0.178467	-0.357700	-0.576777	0.169439	-0.714611
56020		9.342706	1.728317	2.650891	0.000595	-0.020761	-0.019432	-0.646240	-0.493896	0.185303	-0.357724	-0.576945	0.169312	-0.714494
56021		9.293706	1.734482	2.609459	0.014313	-0.029031	-0.016209	-0.648193	-0.482422	0.175781	-0.357330	-0.577300	0.168841	-0.714516
56022		9.267335	1.714158	2.610846	0.027441	-0.010230	-0.010149	-0.644287	-0.487305	0.182617	-0.357181	-0.577442	0.168620	-0.714528
56023		9.225800	1.676519	2.673236	0.027098	0.011310	-0.007184	-0.651367	-0.483154	0.185791	-0.356921	-0.577520	0.168197	-0.714694
56024		9.187104	1.709613	2.784665	0.016298	0.009648	-0.009036	-0.655762	-0.476807	0.181152	-0.356679	-0.577584	0.167886	-0.714837
56025		9.141959	1.736157	2.828817	0.003483	-0.003473	-0.016779	-0.643555	-0.484131	0.176270	-0.356666	-0.577633	0.167840	-0.714814
56026		9.126141	1.797529	2.754528	0.004570	-0.023245	-0.027267	-0.640381	-0.480957	0.176758	-0.356742	-0.577811	0.167697	-0.714666
56027		9.150945	1.786592	2.682540	0.011673	-0.017134	-0.031802	-0.644531	-0.481689	0.180908	-0.356945	-0.577956	0.167587	-0.714473
56028		9.148119	1.728656	2.713010	0.017900	-0.005284	-0.037450	-0.636719	-0.487305	0.184570	-0.357044	-0.578093	0.167307	-0.714379
56029		9.195972	1.725186	2.669192	0.009463	-0.005456	-0.040726	-0.645508	-0.484375	0.192383	-0.357159	-0.578254	0.166942	-0.714276
56030		9.306660	1.757220	2.700584	-0.000886	0.007439	-0.040773	-0.639404	-0.487793	0.184814	-0.357201	-0.578353	0.166582	-0.714259
56031		9.316221	1.737626	2.772154	-0.005171	0.020597	-0.036394	-0.645752	-0.485840	0.190430	-0.357349	-0.578313	0.166230	-0.714299
56032		9.296027	1.747268	2.782159	0.011976	0.008637	-0.026151	-0.649170	-0.491211	0.188477	-0.357228	-0.578416	0.165842	-0.714366
56033		9.238201	1.769316	2.772597	0.030179	-0.007445	-0.020767	-0.641846	-0.484619	0.187988	-0.356800	-0.578687	0.165255	-0.714498
56034		9.206340	1.740108	2.740151	0.043538	-0.025815	-0.017606	-0.640869	-0.479492	0.175049	-0.356542	-0.579044	0.164901	-0.714419
56035		9.205838	1.658997	2.672917	0.044197	-0.026393	-0.014114	-0.649658	-0.486084	0.187256	-0.356584	-0.579269	0.164848	-0.714227
56036		9.208828	1.691057	2.684528	0.040792	-0.017364	-0.008889	-0.644531	-0.479980	0.184326	-0.356165	-0.579562	0.164450	-0.714290
56037		9.239262	1.777364	2.676097	0.043747	-0.005570	-0.000414	-0.643799	-0.479492	0.185791	-0.355970	-0.579712	0.164282	-0.714304
56038		9.296246	1.875014	2.617626	0.041343	0.016600	0.005301	-0.651611	-0.487305	0.185303	-0.355787	-0.579720	0.164092	-0.714433
56039		9.341126	1.972991	2.588399	0.032654	0.023546	0.001628	-0.638672	-0.483887	0.187988	-0.355364	-0.579723	0.163631	-0.714747
56040		9.379362	1.950114	2.559905	0.024881	0.013189	0.003470	-0.646484	-0.484863	0.185303	-0.355206	-0.579740	0.163420	-0.714860
56041		9.384369	1.882890	2.611728	0.020619	-0.006925	0.005161	-0.650879	-0.478027	0.191162	-0.354915	-0.579861	0.163237	-0.714947
56042		9.292338	1.816641	2.618603	0.005924	-0.028198	0.006664	-0.642578	-0.480225	0.179688	-0.354688	-0.580069	0.163328	-0.714871
56043		9.202369	1.746079	2.656118	0.002423	-0.036417	0.012273	-0.643066	-0.480225	0.177002	-0.354654	-0.580226	0.163587	-0.714701
56044		9.182196	1.723730	2.609241	0.012329	-0.040584	0.017337	-0.647461	-0.479004	0.183594	-0.354552	-0.580414	0.163834	-0.714543
56045		9.162034	1.712127	2.608520	0.023393	-0.048013	0.022334	-0.643799	-0.481934	0.188965	-0.354230	-0.580715	0.163997	-0.714420
56046		9.186758	1.686920	2.609349	0.029656	-0.061300	0.028180	-0.644531	-0.474121	0.182129	-0.353758	-0.581150	0.164093	-0.714279
56047		9.220460	1.678091	2.563526	0.034405	-0.070260	0.032180	-0.647217	-0.480957	0.184082	-0.353465	-0.581555	0.164459	-0.714010
56048		9.287712	1.735117	2.528133	0.032678	-0.078064	0.027352	-0.644043	-0.480713	0.188965	-0.352972	-0.582061	0.164600	-0.713808
56049		9.297284	1.821251	2.532261	0.022899	-0.056624	0.021910	-0.637207	-0.478760	0.190186	-0.352600	-0.582438	0.164707	-0.713660
56050		9.335231	1.881191	2.567172	0.015425	-0.056485	0.021267	-0.649658	-0.478760	0.193359	-0.352412	-0.582774	0.164951	-0.713422
56051		9.342290	1.893076	2.559197	0.002019	-0.058234	0.010803	-0.648193	-0.468018	0.190674	-0.352111	-0.583135	0.165099	-0.713241
56052		9.304452	1.840663	2.566865	-0.016290	-0.059395	0.005887	-0.647217	-0.478760	0.194092	-0.352196	-0.583377	0.165630	-0.712878
56053		9.330030	1.791413	2.506310	-0.027263	-0.056790	-0.004003	-0.647705	-0.484375	0.190918	-0.352162	-0.583659	0.165887	-0.712605
56054		9.305080	1.779055	2.553194	-0.038488	-0.032566	-0.010910	-0.648193	-0.479980	0.189697	-0.352167	-0.583782	0.165986	-0.712479
56055		9.333029	1.767361	2.594734	-0.050277	-0.010095	-0.015980	-0.640381	-0.477783	0.193115	-0.352382	-0.583713	0.166179	-0.712383
56056		9.277496	1.781963	2.618563	-0.056402	-0.013590	-0.019861	-0.641602	-0.476562	0.187500	-0.352794	-0.583647	0.166508	-0.712156
56057		9.290158	1.746219	2.637875	-0.056089	-0.042369	-0.016807	-0.644775	-0.474365	0.198242	-0.353197	-0.583712	0.166988	-0.711791
56058		9.294955	1.660389	2.557506	-0.060711	-0.045406	-0.019680	-0.647949	-0.479248	0.194336	-0.353530	-0.583843	0.167453	-0.711409
56059		9.314242	1.666994	2.594490	-0.057799	-0.005185	-0.017417	-0.637939	-0.486816	0.193359	-0.353778	-0.583747	0.167676	-0.711312
56060		9.258804	1.770557	2.649176	-0.060925	-0.002563	-0.022548	-0.644775	-0.480225	0.191650	-0.354117	-0.583646	0.167816	-0.711193
56061		9.289294	1.808554	2.645515	-0.057704	-0.013616	-0.019384	-0.645508	-0.486572	0.184082	-0.354425	-0.583588	0.168085	-0.711025
56062		9.282992	1.777407	2.674675	-0.054153	-0.017356	-0.018143	-0.637695	-0.481934	0.181641	-0.354631	-0.583551	0.168241	-0.710915
56063		9.245065	1.733969	2.610598	-0.041772	-0.024848	-0.019555	-0.640869	-0.481201	0.204346	-0.355022	-0.583543	0.168543	-0.710655
56064		9.245064	1.646251	2.578795	-0.030568	-0.016212	-0.017169	-0.650879	-0.476807	0.190430	-0.355138	-0.583645	0.168634	-0.710491
56065		9.280546	1.652590	2.576683	-0.026459	-0.003707	-0.014266	-0.648926	-0.485107	0.191895	-0.355245	-0.583601	0.168751	-0.710447
56066		9.348648	1.724454	2.589161	-0.031318	0.014889	-0.014014	-0.646240	-0.487061	0.191162	-0.355272	-0.583477	0.168671	-0.710554
56067		9.353599	1.824300	2.656661	-0.041401	0.020648	-0.013562	-0.645264	-0.481445	0.189453	-0.355369	-0.583291	0.168623	-0.710669
56068		9.282501	1.857077	2.694180	-0.044342	0.009692	-0.017340	-0.646240	-0.479004	0.192383	-0.355626	-0.583127	0.168757	-0.710643
56069		9.269941	1.837324	2.629122	-0.046253	0.007086	-0.019773	-0.645508	-0.481445	0.187012	-0.355907	-0.582984	0.168929	-0.710579
56070		9.280342	1.880494	2.638651	-0.060434	0.040875	-0.025314	-0.647461	-0.483887	0.187012	-0.356348	-0.582588	0.169044	-0.710656
56071		9.221724	1.884210	2.782302	-0.071030	0.040022	-0.028075	-0.641846	-0.495117	0.188477	-0.356773	-0.582190	0.169136	-0.710747
56072		9.192249	1.808461	2.714415	-0.076113	0.003925	-0.025134	-0.645996	-0.482910	0.184570	-0.357026	-0.582043	0.169174	-0.710731
56073		9.267546	1.719679	2.624265	-0.087704	0.012005	-0.023745	-0.637207	-0.478027	0.189697	-0.357538	-0.581736	0.169537	-0.710638
56074		9.252811	1.723434	2.625598	-0.104580	0.039732	-0.023967	-0.636475	-0.484131	0.182617	-0.358380	-0.581201	0.170087	-0.710521
56075		9.261990	1.784812	2.736269	-0.113462	0.064278	-0.024631	-0.643799	-0.480713	0.183838	-0.359253	-0.580489	0.170525	-0.710557
56076		9.270888	1.825600	2.752227	-0.119588	0.037862	-0.028469	-0.646729	-0.491943	0.184570	-0.360055	-0.579933	0.171051	-0.710478
56077		9.266199	1.864848	2.679540	-0.122537	0.018449	-0.028665	-0.643066	-0.483643	0.177734	-0.360581	-0.579555	0.171377	-0.710441
56078		9.210191	1.810844	2.614599	-0.112783	0.002152	-0.026825	-0.643311	-0.491943	0.179443	-0.361299	-0.579215	0.171970	-0.710211
56079		9.195053	1.707319	2.609993	-0.082566	-0.023500	-0.012927	-0.638184	-0.493652	0.176025	-0.361578	-0.579152	0.172335	-0.710031
56080		9.243438	1.553225	2.611630	-0.057283	-0.035415	0.002058	-0.646484	-0.485107	0.183105	-0.361719	-0.579194	0.172699	-0.709837
56081		9.240752	1.414586	2.590216	-0.035250	-0.030693	0.023778	-0.637451	-0.490723	0.177490	-0.361583	-0.579257	0.173085	-0.709761
56082		9.214505	1.399043	2.606619	-0.027957	-0.026081	0.035197	-0.639648	-0.497803	0.178467	-0.361456	-0.579275	0.173472	-0.709717
56083		9.269725	1.517491	2.576783	-0.022249	-0.034822	0.047443	-0.646484	-0.486816	0.180420	-0.361035	-0.579393	0.173721	-0.709774
56084		9.325590	1.625049	2.497814	-0.016158	-0.044225	0.053289	-0.644287	-0.484131	0.182129	-0.360599	-0.579546	0.174146	-0.709766
56085		9.340746	1.736635	2.481024	-0.008799	-0.034347	0.055728	-0.643799	-0.485352	0.186035	-0.360204	-0.579650	0.174575	-0.709776
56086		9.395745	1.732900	2.435062	-0.006939	-0.021726	0.054223	-0.650635	-0.482666	0.187988	-0.359776	-0.579714	0.174889	-0.709864
56087		9.390564	1.738462	2.462342	-0.008364	0.000341	0.049874	-0.645752	-0.480713	0.190430	-0.359317	-0.579664	0.175091	-0.710087
56088		9.375361	1.684364	2.505512	-0.015220	0.023156	0.044346	-0.648438	-0.496094	0.187256	-0.359060	-0.579460	0.175307	-0.710330
56089		9.325687	1.700262	2.568710	-0.019335	0.028764	0.036148	-0.648682	-0.478760	0.181152	-0.358548	-0.579300	0.175121	-0.710765
56090		9.313015	1.652418	2.569100	-0.019187	0.033662	0.029718	-0.649414	-0.484131	0.179688	-0.358486	-0.578992	0.175337	-0.710994
56091		9.324489	1.620051	2.643404	-0.009549	0.035806	0.029666	-0.644043	-0.483887	0.174561	-0.358260	-0.578729	0.175352	-0.711319
56092		9.284121	1.596047	2.648576	-0.000481	0.036157	0.031402	-0.644775	-0.481689	0.180664	-0.358137	-0.578446	0.175422	-0.711594
56093		9.275439	1.563169	2.649831	0.014586	0.025878	0.036714	-0.647461	-0.486328	0.177002	-0.357858	-0.578289	0.175442	-0.711856
56094		9.314640	1.567456	2.606940	0.037758	0.036508	0.043827	-0.651855	-0.489502	0.179199	-0.357325	-0.578144	0.175208	-0.712300
56095		9.270956	1.626964	2.689341	0.047994	0.047589	0.051548	-0.641602	-0.481445	0.174072	-0.356533	-0.577997	0.174764	-0.712925
56096		9.275355	1.713305	2.679936	0.047626	0.033399	0.056810	-0.645752	-0.480469	0.185059	-0.356113	-0.577823	0.174735	-0.713282
56097		9.303858	1.705957	2.616091	0.047358	0.032083	0.060181	-0.650391	-0.477051	0.179199	-0.355486	-0.577725	0.174591	-0.713710
56098		9.289620	1.661685	2.583925	0.048895	0.052608	0.053280	-0.646973	-0.474854	0.176025	-0.354964	-0.577480	0.174415	-0.714211
56099		9.259518	1.702588	2.659628	0.044870	0.077030	0.050378	-0.653320	-0.482910	0.182861	-0.354653	-0.577045	0.174281	-0.714750
56100		9.265628	1.698354	2.770264	0.036703	0.088990	0.044423	-0.652344	-0.483643	0.177734	-0.354064	-0.576630	0.173796	-0.715494
56101		9.239011	1.688356	2.755551	0.019382	0.068571	0.035861	-0.642822	-0.474854	0.175293	-0.353623	-0.576276	0.173452	-0.716080
56102		9.213011	1.678810	2.738587	0.011887	0.055912	0.031369	-0.652588	-0.471680	0.180664	-0.353626	-0.575894	0.173505	-0.716373
56103		9.227192	1.688273	2.720893	0.006584	0.046716	0.028432	-0.659180	-0.469971	0.183594	-0.353467	-0.575601	0.173504	-0.716687
56104		9.227014	1.670392	2.713992	0.003649	0.061851	0.023857	-0.646484	-0.472412	0.177490	-0.353242	-0.575245	0.173386	-0.717113
56105		9.189887	1.667686	2.805456	-0.007339	0.076557	0.022612	-0.658203	-0.476807	0.177979	-0.353354	-0.574717	0.173414	-0.717474
56106		9.136040	1.682388	2.794159	-0.004917	0.063683	0.017712	-0.649414	-0.469971	0.173828	-0.353133	-0.574345	0.173191	-0.717934
56107		9.132182	1.683906	2.772098	-0.002498	0.071605	0.015309	-0.652100	-0.470703	0.168701	-0.353276	-0.573855	0.173207	-0.718252
56108		9.127884	1.649566	2.798337	0.000050	0.066368	0.011712	-0.656494	-0.474609	0.174561	-0.353389	-0.573398	0.173182	-0.718568
56109		9.109234	1.634619	2.833348	0.004719	0.063368	0.007387	-0.656494	-0.475098	0.170166	-0.353279	-0.573048	0.172928	-0.718962
56110		9.163545	1.615299	2.851112	0.001905	0.053322	0.008365	-0.654053	-0.474365	0.172363	-0.353187	-0.572730	0.172740	-0.719305
56111		9.174968	1.599444	2.816177	0.000587	0.038926	0.011157	-0.651367	-0.474854	0.177734	-0.353105	-0.572495	0.172641	-0.719556
56112		9.206228	1.620617	2.804702	-0.002052	0.044527	0.012176	-0.659424	-0.463867	0.177002	-0.353035	-0.572242	0.172524	-0.719819
56113		9.219656	1.641696	2.834627	-0.006123	0.052090	0.016669	-0.654297	-0.480469	0.171631	-0.353023	-0.571891	0.172581	-0.720092
56114		9.260055	1.593338	2.861970	0.001306	0.052712	0.012362	-0.652588	-0.470947	0.171875	-0.352829	-0.571609	0.172297	-0.720478
56115		9.283936	1.619390	2.833150	0.007216	0.052881	0.007001	-0.645508	-0.466309	0.172852	-0.352851	-0.571301	0.172174	-0.720741
56116		9.258474	1.609514	2.848101	0.000046	0.063526	0.003815	-0.653076	-0.475830	0.164795	-0.353162	-0.570876	0.172222	-0.720914
56117		9.176041	1.571643	2.854999	-0.007229	0.059754	0.002887	-0.653564	-0.478027	0.162354	-0.353232	-0.570486	0.172068	-0.721224
56118		9.136194	1.534598	2.879428	0.001295	0.049515	-0.002720	-0.649414	-0.476562	0.166504	-0.353248	-0.570194	0.171827	-0.721505
56119		9.105877	1.516583	2.858432	0.018980	0.048392	-0.002968	-0.655762	-0.476074	0.161377	-0.353261	-0.569964	0.171538	-0.721749
56120		9.128399	1.466222	2.844406	0.025634	0.043172	0.005771	-0.657959	-0.470703	0.166992	-0.353094	-0.569766	0.171225	-0.722062
56121		9.093474	1.489366	2.867324	0.024803	0.042914	0.012977	-0.647949	-0.469727	0.168701	-0.352899	-0.569566	0.171004	-0.722367
56122		9.128369	1.529640	2.824615	0.025065	0.040592	0.012573	-0.656006	-0.475586	0.163330	-0.352910	-0.569358	0.170912	-0.722548
56123		9.143670	1.584964	2.836669	0.026785	0.037907	0.008449	-0.651855	-0.474854	0.159912	-0.352701	-0.569203	0.170607	-0.722844
56124		9.158853	1.595254	2.849138	0.038691	0.039445	0.000046	-0.644531	-0.471191	0.162842	-0.352604	-0.569055	0.170262	-0.723089
56125		9.164890	1.583303	2.825031	0.051178	0.032372	-0.003572	-0.649658	-0.471436	0.166992	-0.352649	-0.568970	0.169988	-0.723198
56126		9.158039	1.582621	2.873942	0.049875	0.025189	-0.006780	-0.655518	-0.471436	0.169189	-0.352577	-0.568964	0.169644	-0.723319
56127		9.182475	1.530209	2.887711	0.033863	0.007258	-0.005566	-0.649414	-0.481934	0.163086	-0.352422	-0.569043	0.169377	-0.723395
56128		9.179109	1.554448	2.837549	0.035388	0.002134	0.001308	-0.658447	-0.474365	0.167480	-0.352209	-0.569144	0.169054	-0.723495
56129		9.236422	1.623343	2.764773	0.033950	-0.001468	0.010586	-0.658936	-0.480469	0.164795	-0.351850	-0.569264	0.168806	-0.723633
56130		9.274265	1.607427	2.669980	0.044612	0.019265	0.015105	-0.651367	-0.469971	0.166016	-0.351355	-0.569297	0.168345	-0.723955
56131		9.286333	1.645183	2.711600	0.044176	0.051044	0.011379	-0.654541	-0.469727	0.169922	-0.351227	-0.569084	0.168048	-0.724253
56132		9.227568	1.709500	2.853787	0.027916	0.066505	-0.006868	-0.650635	-0.472900	0.164307	-0.351233	-0.568783	0.167670	-0.724575
56133		9.029772	1.725480	2.999173	0.008421	0.052246	-0.032307	-0.651123	-0.468018	0.163086	-0.351518	-0.568525	0.167333	-0.724717
56134		8.963274	1.665927	2.943908	0.012517	0.011495	-0.049210	-0.654053	-0.469971	0.170654	-0.351887	-0.568529	0.167092	-0.724590
56135		9.046383	1.626487	2.870797	0.020179	-0.004598	-0.051482	-0.653076	-0.481201	0.167969	-0.352105	-0.568700	0.166766	-0.724425
56136		9.151239	1.517655	2.807697	0.027459	-0.000794	-0.040787	-0.647705	-0.484375	0.168945	-0.352114	-0.568879	0.166270	-0.724394
56137		9.225735	1.412536	2.778635	0.037757	-0.004437	-0.024115	-0.657227	-0.475098	0.164307	-0.352029	-0.569086	0.165814	-0.724378
56138		9.270704	1.439571	2.732823	0.048341	-0.002023	-0.011673	-0.657715	-0.471680	0.166504	-0.351758	-0.569266	0.165390	-0.724465
56139		9.234340	1.531679	2.729940	0.047139	0.007973	-0.015257	-0.651855	-0.470215	0.175293	-0.351557	-0.569384	0.164976	-0.724564
56140		9.225371	1.643715	2.755313	0.048250	0.000689	-0.019549	-0.652100	-0.476562	0.175293	-0.351482	-0.569568	0.164641	-0.724532
56141		9.274532	1.728233	2.742295	0.051139	-0.003290	-0.026487	-0.647217	-0.475586	0.167480	-0.351345	-0.569814	0.164161	-0.724514
56142		9.311479	1.721532	2.759397	0.043679	0.014414	-0.030236	-0.647217	-0.480469	0.163086	-0.351410	-0.569888	0.163733	-0.724520
56143		9.303564	1.728382	2.774886	0.029946	0.027065	-0.031980	-0.646973	-0.478271	0.171143	-0.351513	-0.569847	0.163267	-0.724608
56144		9.289522	1.731655	2.838229	0.021568	0.036117	-0.034462	-0.644775	-0.481689	0.168457	-0.351706	-0.569752	0.162854	-0.724682
56145		9.281526	1.687898	2.890643	0.012623	0.038250	-0.031787	-0.654053	-0.474609	0.165771	-0.351934	-0.569609	0.162477	-0.724768
56146		9.268991	1.636535	2.875251	0.003966	0.017340	-0.025932	-0.644775	-0.479492	0.171387	-0.352042	-0.569552	0.162245	-0.724813
56147		9.251118	1.630851	2.869093	0.010560	0.001792	-0.020258	-0.646973	-0.478271	0.166504	-0.352187	-0.569611	0.162086	-0.724731
56148		9.196819	1.587728	2.876977	0.024652	-0.006301	-0.012647	-0.655518	-0.483887	0.170410	-0.352179	-0.569735	0.161891	-0.724682
56149		9.149605	1.543429	2.868920	0.036365	-0.028651	-0.001456	-0.648926	-0.482422	0.165039	-0.351794	-0.570063	0.161570	-0.724682
56150		9.131712	1.556657	2.804524	0.039116	-0.046901	0.009614	-0.649170	-0.479248	0.166260	-0.351439	-0.570453	0.161422	-0.724580
56151		9.120405	1.657510	2.754619	0.042388	-0.053094	0.012151	-0.643799	-0.474854	0.165283	-0.351072	-0.570881	0.161327	-0.724442
56152		9.197640	1.685145	2.714604	0.036666	-0.048060	0.008435	-0.646973	-0.473633	0.171875	-0.350910	-0.571234	0.161356	-0.724236
56153		9.269388	1.663553	2.722658	0.045012	-0.041180	0.008135	-0.645752	-0.476807	0.164795	-0.350668	-0.571596	0.161298	-0.724081
56154		9.321697	1.650489	2.705767	0.055457	-0.042029	0.011225	-0.645996	-0.471680	0.172607	-0.350334	-0.571970	0.161142	-0.723982
56155		9.384551	1.650917	2.675504	0.059567	-0.056773	0.012923	-0.645752	-0.480957	0.173584	-0.350000	-0.572453	0.161092	-0.723772
56156		9.382617	1.683890	2.663270	0.051811	-0.041550	0.010328	-0.647949	-0.472900	0.164551	-0.349658	-0.572849	0.160909	-0.723666
56157		9.334861	1.651798	2.666557	0.057554	-0.034581	0.016832	-0.655273	-0.472900	0.179932	-0.349257	-0.573166	0.160744	-0.723644
56158		9.266915	1.681567	2.723401	0.062576	-0.035894	0.016406	-0.647949	-0.483887	0.179199	-0.348727	-0.573570	0.160510	-0.723632
56159		9.169194	1.663595	2.735673	0.064286	-0.042201	0.015344	-0.645508	-0.475586	0.180664	-0.348232	-0.574021	0.160218	-0.723577
56160		9.174054	1.646558	2.745395	0.066013	-0.040529	0.012904	-0.645508	-0.466309	0.177734	-0.347856	-0.574448	0.160028	-0.723462
56161		9.176878	1.644143	2.770546	0.063351	-0.033332	0.013549	-0.651855	-0.477295	0.179199	-0.347556	-0.574791	0.159931	-0.723355
56162		9.202427	1.650419	2.790275	0.051153	-0.032952	0.015117	-0.654785	-0.479004	0.175781	-0.347104	-0.575135	0.159708	-0.723348
56163		9.182291	1.638130	2.822753	0.032600	-0.034563	0.008400	-0.657471	-0.467773	0.172363	-0.346694	-0.575443	0.159493	-0.723347
56164		9.176199	1.691816	2.763177	0.016463	-0.033443	0.002526	-0.648193	-0.478027	0.178467	-0.346416	-0.575677	0.159426	-0.723309
56165		9.191328	1.820493	2.823161	0.006563	-0.030489	-0.004879	-0.652832	-0.475098	0.188477	-0.346351	-0.575891	0.159385	-0.723179
56166		9.230027	1.812391	2.802524	-0.002573	-0.040532	-0.014793	-0.647217	-0.469482	0.185059	-0.346334	-0.576185	0.159394	-0.722950
56167		9.194406	1.732153	2.815966	-0.008602	-0.034040	-0.022863	-0.649414	-0.467529	0.186523	-0.346538	-0.576397	0.159500	-0.722660
56168		9.163769	1.652827	2.818462	-0.016715	-0.011472	-0.038227	-0.649170	-0.474609	0.188232	-0.346876	-0.576474	0.159517	-0.722433
56169		9.180754	1.618333	2.860507	-0.030105	0.009211	-0.046927	-0.650879	-0.471436	0.180176	-0.347317	-0.576418	0.159444	-0.722282
56170		9.204252	1.661430	2.872409	-0.041729	0.006544	-0.046330	-0.647705	-0.471924	0.182861	-0.347764	-0.576319	0.159433	-0.722148
56171		9.241810	1.688655	2.841626	-0.046603	-0.010115	-0.046093	-0.646484	-0.478027	0.185059	-0.348277	-0.576307	0.159550	-0.721885
56172		9.261387	1.720354	2.816302	-0.043649	-0.021985	-0.041850	-0.642334	-0.475342	0.186523	-0.348726	-0.576384	0.159667	-0.721580
56173		9.234481	1.701028	2.818941	-0.044776	-0.024260	-0.035962	-0.649170	-0.475830	0.182617	-0.349241	-0.576453	0.159915	-0.721221
56174		9.192998	1.699821	2.830965	-0.044739	-0.016642	-0.034815	-0.645752	-0.470215	0.182373	-0.349605	-0.576481	0.160040	-0.720995
56175		9.168163	1.708460	2.850714	-0.047822	-0.017228	-0.039459	-0.652588	-0.479736	0.185791	-0.350103	-0.576491	0.160259	-0.720697
56176		9.189449	1.689912	2.859043	-0.050640	-0.024935	-0.043670	-0.648682	-0.477295	0.185547	-0.350466	-0.576585	0.160346	-0.720425
56177		9.165738	1.645217	2.798126	-0.047673	-0.041607	-0.038648	-0.639160	-0.483154	0.177734	-0.350842	-0.576768	0.160557	-0.720049
56178		9.206905	1.614318	2.714579	-0.038462	-0.053217	-0.035708	-0.645020	-0.480469	0.186768	-0.351241	-0.577012	0.160770	-0.719611
56179		9.236769	1.662576	2.639846	-0.021651	-0.036891	-0.031829	-0.643799	-0.484375	0.185791	-0.351506	-0.577231	0.160865	-0.719284
56180		9.237392	1.709196	2.667609	-0.009535	-0.010757	-0.027220	-0.643555	-0.488770	0.181641	-0.351714	-0.577324	0.160805	-0.719122
56181		9.254181	1.730158	2.753314	-0.009873	-0.009677	-0.029118	-0.648682	-0.482666	0.185791	-0.351891	-0.577409	0.160669	-0.718997
56182		9.241310	1.738379	2.745337	-0.018022	-0.024984	-0.030664	-0.642578	-0.481689	0.182129	-0.352052	-0.577575	0.160642	-0.718791
56183		9.181325	1.735166	2.683162	-0.018476	-0.034387	-0.035779	-0.644775	-0.481689	0.177002	-0.352321	-0.577779	0.160675	-0.718488
56184		9.200120	1.771038	2.622775	-0.016129	-0.021689	-0.039080	-0.645752	-0.482666	0.183105	-0.352536	-0.577912	0.160576	-0.718298
56185		9.218312	1.778966	2.694417	-0.017835	0.008235	-0.039464	-0.647705	-0.480469	0.180420	-0.352812	-0.577878	0.160420	-0.718224
56186		9.188262	1.817623	2.748069	-0.033079	0.018787	-0.041807	-0.642090	-0.478516	0.180176	-0.353146	-0.577734	0.160294	-0.718204
56187		9.200094	1.815319	2.789649	-0.036907	0.011117	-0.051198	-0.640869	-0.481689	0.179443	-0.353658	-0.577621	0.160256	-0.718052
56188		9.136288	1.792613	2.796724	-0.046289	-0.007019	-0.054226	-0.636963	-0.481445	0.179932	-0.354209	-0.577595	0.160298	-0.717792
56189		9.085372	1.769584	2.772994	-0.036867	-0.040632	-0.055881	-0.641113	-0.489502	0.182373	-0.354753	-0.577792	0.160429	-0.717335
56190		9.066941	1.738437	2.743721	-0.023166	-0.048458	-0.055171	-0.642822	-0.492920	0.179443	-0.355115	-0.578101	0.160404	-0.716912
56191		9.056535	1.735603	2.716757	-0.008753	-0.042796	-0.050763	-0.639404	-0.488525	0.184814	-0.355313	-0.578416	0.160222	-0.716601
56192		9.128092	1.753529	2.708701	0.002716	-0.046442	-0.044598	-0.641357	-0.484863	0.182617	-0.355518	-0.578775	0.160124	-0.716231
56193		9.210978	1.737756	2.688929	0.001848	-0.053028	-0.030542	-0.637939	-0.489502	0.179443	-0.355587	-0.579145	0.160103	-0.715902
56194		9.291846	1.745288	2.730722	-0.000677	-0.054563	-0.023405	-0.639404	-0.488770	0.183838	-0.355638	-0.579499	0.160109	-0.715589
56195		9.290216	1.845036	2.686643	-0.002482	-0.060743	-0.022787	-0.634033	-0.486816	0.189453	-0.355682	-0.579894	0.160163	-0.715235
56196		9.368781	1.926900	2.597929	-0.012433	-0.053819	-0.025914	-0.635986	-0.489258	0.183594	-0.355936	-0.580218	0.160355	-0.714803
56197		9.381394	1.997318	2.499813	-0.013211	-0.031556	-0.022261	-0.644775	-0.490479	0.185547	-0.356107	-0.580397	0.160412	-0.714559
56198		9.403759	1.952575	2.602536	-0.014308	-0.014613	-0.019447	-0.633301	-0.490967	0.195068	-0.356134	-0.580493	0.160336	-0.714485
56199		9.351861	1.828839	2.627027	-0.015995	-0.030766	-0.014719	-0.622314	-0.490967	0.180664	-0.356393	-0.580667	0.160548	-0.714167
56200		9.291798	1.680362	2.613014	0.001388	-0.051856	-0.011193	-0.638672	-0.494385	0.187012	-0.356607	-0.580962	0.160755	-0.713773
56201		9.178179	1.641099	2.572490	0.014327	-0.048220	-0.007580	-0.637939	-0.480225	0.187012	-0.356482	-0.581319	0.160721	-0.713552
56202		9.158815	1.629636	2.604221	0.042291	-0.037088	-0.001377	-0.638672	-0.485352	0.186768	-0.356228	-0.581667	0.160606	-0.713422
56203		9.211670	1.682483	2.555070	0.056262	-0.028683	0.006603	-0.632324	-0.484863	0.190186	-0.355837	-0.582001	0.160370	-0.713397
56204		9.293834	1.740528	2.519979	0.069298	-0.009736	0.012692	-0.632324	-0.490967	0.190674	-0.355510	-0.582244	0.160133	-0.713416
56205		9.357689	1.766595	2.544151	0.069525	0.008056	0.019731	-0.630859	-0.489990	0.195801	-0.355157	-0.582377	0.159841	-0.713548
56206		9.332750	1.828121	2.608270	0.074880	-0.021201	0.022995	-0.638184	-0.480713	0.190674	-0.354797	-0.582698	0.159691	-0.713499
56207		9.284621	1.908164	2.545235	0.082835	-0.051282	0.024424	-0.638916	-0.489014	0.187988	-0.354160	-0.583219	0.159481	-0.713437
56208		9.262299	1.947972	2.507354	0.087614	-0.047397	0.026303	-0.635010	-0.486084	0.198975	-0.353442	-0.583732	0.159153	-0.713447
56209		9.285227	1.928703	2.475412	0.086095	-0.035439	0.025648	-0.641357	-0.492432	0.197266	-0.352924	-0.584171	0.158957	-0.713387
56210		9.352007	1.896621	2.448641	0.085211	-0.022070	0.025710	-0.635498	-0.484131	0.191895	-0.352292	-0.584541	0.158595	-0.713477
56211		9.394003	1.869095	2.445363	0.071500	-0.012658	0.024794	-0.636963	-0.488281	0.194336	-0.351777	-0.584792	0.158319	-0.713586
56212		9.340953	1.835091	2.465849	0.074229	-0.025432	0.029847	-0.638916	-0.489014	0.193848	-0.351202	-0.585128	0.158074	-0.713649
56213		9.321295	1.844427	2.401914	0.082877	-0.030785	0.033147	-0.640137	-0.493164	0.206543	-0.350510	-0.585520	0.157768	-0.713736
56214		9.297520	1.861962	2.431261	0.082634	-0.024022	0.035221	-0.643555	-0.485840	0.195312	-0.349929	-0.585885	0.157552	-0.713769
56215		9.278623	1.913526	2.397655	0.086852	-0.031517	0.040495	-0.643555	-0.483398	0.208740	-0.349088	-0.586289	0.157207	-0.713925
56216		9.339155	1.925356	2.382089	0.081771	-0.030273	0.040921	-0.646973	-0.476318	0.202881	-0.348412	-0.586681	0.157037	-0.713971
56217		9.352240	1.900762	2.411974	0.070159	-0.029816	0.041095	-0.646973	-0.474854	0.211182	-0.347655	-0.587031	0.156843	-0.714094
56218		9.293524	1.899810	2.395237	0.056758	-0.033905	0.041717	-0.646484	-0.478027	0.209961	-0.347042	-0.587371	0.156831	-0.714116
56219		9.313475	1.937627	2.379042	0.040511	-0.022941	0.031905	-0.647705	-0.475830	0.211914	-0.346573	-0.587611	0.156806	-0.714152
56220		9.288366	2.000852	2.409299	0.020717	-0.009848	0.021103	-0.641113	-0.471436	0.206787	-0.346278	-0.587732	0.156817	-0.714193
56221		9.300646	2.009577	2.427227	0.001884	-0.013770	0.007598	-0.646484	-0.475830	0.202393	-0.346209	-0.587818	0.156925	-0.714132
56222		9.271154	1.983261	2.475817	-0.017363	-0.032664	-0.005108	-0.644287	-0.479248	0.208984	-0.346139	-0.587986	0.157005	-0.714009
56223		9.212968	1.893943	2.465315	-0.037011	-0.049182	-0.011722	-0.639893	-0.485352	0.207764	-0.346291	-0.588210	0.157299	-0.713686
56224		9.222841	1.853320	2.369866	-0.049680	-0.040317	-0.020492	-0.645264	-0.477295	0.204102	-0.346627	-0.588351	0.157614	-0.713338
56225		9.314180	1.869129	2.437841	-0.060434	0.006530	-0.027008	-0.638672	-0.474365	0.206299	-0.346973	-0.588192	0.157746	-0.713272
56226		9.317069	1.907728	2.537757	-0.068917	0.024019	-0.027396	-0.642822	-0.480225	0.213867	-0.347530	-0.587891	0.157999	-0.713192
56227		9.327589	1.951600	2.545262	-0.076535	-0.000916	-0.034585	-0.636719	-0.475830	0.210938	-0.348152	-0.587746	0.158350	-0.712931
56228		9.338934	1.917789	2.569417	-0.084399	-0.007770	-0.035784	-0.641113	-0.477295	0.205322	-0.348886	-0.587602	0.158827	-0.712584
56229		9.237221	1.903524	2.561827	-0.088737	-0.005154	-0.040367	-0.649414	-0.479736	0.204102	-0.349532	-0.587441	0.159182	-0.712321
56230		9.189347	1.890714	2.544794	-0.079713	-0.006470	-0.044282	-0.633057	-0.481445	0.210449	-0.349998	-0.587337	0.159346	-0.712141
56231		9.204601	1.872207	2.569501	-0.074646	-0.006519	-0.042552	-0.640625	-0.477539	0.202393	-0.350790	-0.587220	0.159764	-0.711755
56232		9.221764	1.838934	2.578740	-0.072824	-0.013571	-0.038645	-0.637207	-0.479736	0.198486	-0.351307	-0.587151	0.160037	-0.711495
56233		9.223040	1.806195	2.626045	-0.055739	-0.034764	-0.029587	-0.646729	-0.484863	0.207764	-0.351671	-0.587239	0.160308	-0.711182
56234		9.199828	1.770169	2.609959	-0.031647	-0.072303	-0.021539	-0.644775	-0.478271	0.200928	-0.351770	-0.587636	0.160562	-0.710748
56235		9.288867	1.695331	2.493568	-0.017509	-0.082288	-0.005811	-0.643311	-0.488770	0.202393	-0.351619	-0.588100	0.160784	-0.710388
56236		9.371463	1.708121	2.421944	-0.029065	-0.042335	0.004573	-0.639648	-0.485352	0.200439	-0.351558	-0.588286	0.161008	-0.710214
56237		9.422026	1.870197	2.466526	-0.037545	-0.007839	0.018080	-0.637939	-0.481445	0.208740	-0.351538	-0.588213	0.161278	-0.710222
56238		9.430746	1.982806	2.497341	-0.044794	-0.021342	0.018844	-0.647217	-0.483887	0.210693	-0.351655	-0.588198	0.161758	-0.710068
56239		9.404890	2.000686	2.498873	-0.056370	-0.032195	0.015075	-0.645020	-0.482178	0.197510	-0.351705	-0.588238	0.162219	-0.709904
56240		9.293934	1.937676	2.483088	-0.065044	-0.031724	0.006769	-0.642334	-0.479492	0.204102	-0.351735	-0.588248	0.162581	-0.709799
56241		9.242154	1.887690	2.492581	-0.061514	-0.017040	-0.005580	-0.640625	-0.487061	0.199951	-0.351962	-0.588194	0.162932	-0.709650
56242		9.226704	1.830408	2.486821	-0.062709	-0.015049	-0.013540	-0.642090	-0.492188	0.200928	-0.352232	-0.588136	0.163204	-0.709502
56243		9.251382	1.746300	2.483619	-0.057431	0.003524	-0.003939	-0.646484	-0.478516	0.211426	-0.352428	-0.587981	0.163413	-0.709485
56244		9.222699	1.734903	2.508224	-0.056192	0.028864	-0.000241	-0.637451	-0.489502	0.194580	-0.352670	-0.587677	0.163653	-0.709561
56245		9.267955	1.836848	2.563366	-0.072999	0.030881	-0.002111	-0.640869	-0.482666	0.196777	-0.352999	-0.587294	0.163904	-0.709657
56246		9.317546	1.885241	2.526444	-0.074051	0.024099	-0.003773	-0.643311	-0.486572	0.198486	-0.353312	-0.586952	0.164187	-0.709718
56247		9.333403	1.892807	2.538836	-0.075459	0.018408	-0.007317	-0.645020	-0.489502	0.204590	-0.353626	-0.586656	0.164456	-0.709745
56248		9.329045	1.908457	2.526245	-0.085364	0.012106	-0.005819	-0.640137	-0.482910	0.197754	-0.354000	-0.586378	0.164834	-0.709700
56249		9.339612	1.915437	2.551904	-0.100318	0.018306	-0.005568	-0.639648	-0.485352	0.195557	-0.354492	-0.585995	0.165323	-0.709657
56250		9.365164	1.846401	2.523662	-0.109302	0.036414	0.000578	-0.641357	-0.490479	0.203125	-0.355011	-0.585470	0.165829	-0.709713
56251		9.354800	1.781473	2.547524	-0.115861	0.059281	-0.000937	-0.642578	-0.484619	0.197510	-0.355646	-0.584809	0.166329	-0.709823
56252		9.338679	1.725876	2.634122	-0.121684	0.058636	0.006960	-0.636719	-0.485840	0.188232	-0.356219	-0.584113	0.166885	-0.709978
56253		9.285964	1.679886	2.576652	-0.131262	0.033499	0.007084	-0.645996	-0.483887	0.188965	-0.356835	-0.583519	0.167582	-0.709994
56254		9.284579	1.652951	2.490012	-0.134841	0.028313	0.011964	-0.640869	-0.480713	0.184082	-0.357299	-0.582954	0.168254	-0.710065
56255		9.234119	1.709712	2.590300	-0.143759	0.047594	0.014621	-0.643311	-0.486084	0.185303	-0.357887	-0.582226	0.168990	-0.710192
56256		9.179956	1.742278	2.640066	-0.133024	0.009496	0.013998	-0.638916	-0.487549	0.182861	-0.358352	-0.581769	0.169746	-0.710151
56257		9.196575	1.683660	2.522337	-0.088311	-0.016803	0.017636	-0.642334	-0.485840	0.193848	-0.358607	-0.581586	0.170376	-0.710021
56258		9.284093	1.535868	2.480300	-0.043635	0.017986	0.023964	-0.643311	-0.481934	0.192871	-0.358697	-0.581338	0.170718	-0.710097
56259		9.384286	1.444707	2.574762	-0.015979	0.045015	0.035431	-0.643311	-0.485840	0.186035	-0.358616	-0.580991	0.170876	-0.710384
56260		9.437027	1.397264	2.539065	0.015416	0.029365	0.050537	-0.636963	-0.486816	0.194580	-0.358219	-0.580809	0.170910	-0.710725
56261		9.356550	1.466694	2.479154	0.028223	0.038538	0.054212	-0.652344	-0.489990	0.186768	-0.357937	-0.580600	0.170998	-0.711016
56262		9.181939	1.604850	2.461561	0.039820	0.058246	0.046253	-0.650146	-0.492188	0.179932	-0.357356	-0.580350	0.170672	-0.711590
56263		9.116894	1.706294	2.508647	0.047001	0.084246	0.030720	-0.646484	-0.474365	0.189209	-0.356851	-0.579983	0.170121	-0.712276
56264		9.175431	1.822427	2.547310	0.055811	0.101108	0.011896	-0.647705	-0.487061	0.188477	-0.356629	-0.579541	0.169578	-0.712875
56265		9.271382	1.928378	2.604591	0.047777	0.114739	-0.005781	-0.646973	-0.488525	0.179932	-0.356523	-0.579040	0.168882	-0.713500
56266		9.275465	1.876821	2.673153	0.035123	0.119665	-0.014919	-0.644775	-0.480713	0.184814	-0.356490	-0.578478	0.168153	-0.714145
56267		9.238581	1.853488	2.741008	0.018986	0.115501	-0.029159	-0.643555	-0.484619	0.178223	-0.356722	-0.577900	0.167572	-0.714634
56268		9.180168	1.765877	2.767332	0.009847	0.107868	-0.040632	-0.645996	-0.480713	0.175537	-0.357023	-0.577353	0.166972	-0.715065
56269		9.183723	1.786871	2.771600	0.013890	0.106293	-0.043752	-0.650635	-0.482422	0.177734	-0.357280	-0.576828	0.166321	-0.715512
56270		9.154268	1.820564	2.746746	0.011587	0.121181	-0.037554	-0.642822	-0.483887	0.179932	-0.357476	-0.576213	0.165628	-0.716071
56271		9.150127	1.859807	2.861649	0.012864	0.119930	-0.030617	-0.645264	-0.492188	0.170654	-0.357776	-0.575588	0.165072	-0.716552
56272		9.126456	1.864705	2.918083	0.016544	0.098182	-0.024100	-0.645264	-0.488770	0.173340	-0.357864	-0.575103	0.164468	-0.717036
56273		9.188164	1.860657	2.848662	0.013444	0.081567	-0.026338	-0.649658	-0.489502	0.168701	-0.357996	-0.574709	0.163964	-0.717401
56274		9.228487	1.842370	2.818058	-0.001342	0.096201	-0.026016	-0.646240	-0.486328	0.174805	-0.358113	-0.574188	0.163429	-0.717882
56275		9.210863	1.813264	2.874236	-0.010820	0.080412	-0.019008	-0.643555	-0.483154	0.173828	-0.358335	-0.573718	0.163134	-0.718214
56276		9.203299	1.758788	2.851902	-0.009066	0.063712	-0.007814	-0.647461	-0.483398	0.178711	-0.358519	-0.573326	0.162983	-0.718469
56277		9.138346	1.730172	2.865464	0.005796	0.054300	-0.001553	-0.638184	-0.495117	0.171631	-0.358556	-0.573041	0.162788	-0.718722
56278		9.132401	1.674351	2.838976	0.011336	0.043597	0.003769	-0.644775	-0.483154	0.172119	-0.358587	-0.572823	0.162618	-0.718919
56279		9.105781	1.678331	2.866183	0.012909	0.042081	0.007627	-0.643799	-0.480225	0.173096	-0.358528	-0.572606	0.162463	-0.719156
56280		9.083448	1.732284	2.846522	0.009981	0.037163	0.011066	-0.644287	-0.486328	0.165283	-0.358495	-0.572401	0.162394	-0.719352
56281		9.060797	1.791427	2.906614	0.006348	0.037634	0.010206	-0.648926	-0.487061	0.161133	-0.358399	-0.572185	0.162255	-0.719602
56282		9.067065	1.818520	2.915410	0.007783	0.035669	0.006696	-0.649902	-0.485840	0.168213	-0.358210	-0.571997	0.162018	-0.719900
56283		9.111414	1.758853	2.923553	0.014482	0.017721	0.007689	-0.652832	-0.482666	0.167480	-0.358007	-0.571942	0.161843	-0.720084
56284		9.127284	1.651888	2.884365	0.020213	0.008683	0.007060	-0.640625	-0.484131	0.170898	-0.357728	-0.571959	0.161640	-0.720254
56285		9.144228	1.619604	2.860101	0.034388	0.003068	0.009339	-0.638428	-0.490234	0.167236	-0.357583	-0.572031	0.161528	-0.720294
56286		9.164412	1.606010	2.804537	0.044549	0.005411	0.007830	-0.644287	-0.490967	0.164551	-0.357390	-0.572122	0.161307	-0.720368
56287		9.167865	1.663124	2.837958	0.054155	0.010389	0.009891	-0.646729	-0.484131	0.177979	-0.357023	-0.572218	0.160936	-0.720556
56288		9.140441	1.644829	2.809191	0.068578	0.005640	0.011237	-0.645264	-0.491455	0.176758	-0.356652	-0.572393	0.160585	-0.720678
56289		9.195014	1.683931	2.752288	0.083254	0.009373	0.012897	-0.645752	-0.487061	0.172852	-0.356196	-0.572594	0.160108	-0.720851
56290		9.246801	1.700950	2.759711	0.084065	0.022425	0.013374	-0.652832	-0.480957	0.168213	-0.355723	-0.572707	0.159582	-0.721111
56291		9.230261	1.725366	2.738341	0.079106	0.032871	0.008919	-0.640869	-0.483398	0.182861	-0.355180	-0.572747	0.158959	-0.721485
56292		9.213312	1.788744	2.783220	0.069273	0.048997	0.000842	-0.644775	-0.489014	0.176758	-0.355053	-0.572668	0.158512	-0.721708
56293		9.141927	1.848490	2.869715	0.045887	0.048471	-0.017255	-0.649658	-0.489014	0.175293	-0.355023	-0.572555	0.158013	-0.721922
56294		9.098844	1.880914	2.872028	0.038857	0.033005	-0.029399	-0.654053	-0.483643	0.170898	-0.354989	-0.572538	0.157484	-0.722068
56295		9.089405	1.891936	2.856982	0.042272	0.038401	-0.037021	-0.636963	-0.487061	0.174805	-0.354896	-0.572505	0.156832	-0.722281
56296		9.103798	1.863126	2.871061	0.033746	0.050547	-0.040067	-0.634766	-0.477295	0.168945	-0.355177	-0.572354	0.156373	-0.722363
56297		9.143287	1.825569	2.898568	0.012447	0.053555	-0.041010	-0.649902	-0.483398	0.170410	-0.355586	-0.572099	0.156071	-0.722429
56298		9.107694	1.804481	2.955604	-0.006299	0.038947	-0.040103	-0.644287	-0.487793	0.171387	-0.355809	-0.571914	0.155742	-0.722537
56299		9.104284	1.814461	2.928183	-0.015895	0.023892	-0.047901	-0.638184	-0.490479	0.169434	-0.356196	-0.571797	0.155527	-0.722484
56300		9.082341	1.829585	2.906706	-0.017760	0.017244	-0.054640	-0.645508	-0.490234	0.170410	-0.356699	-0.571715	0.155354	-0.722339
56301		9.119357	1.818442	2.847281	-0.022021	0.012259	-0.060527	-0.646973	-0.489258	0.173096	-0.357140	-0.571671	0.155122	-0.722206
56302		9.184316	1.785369	2.784235	-0.019034	0.010378	-0.060421	-0.638916	-0.486816	0.174561	-0.357564	-0.571650	0.154888	-0.722062
56303		9.226589	1.780853	2.790470	-0.013531	0.007338	-0.053785	-0.641846	-0.499268	0.166260	-0.358064	-0.571639	0.154772	-0.721848
56304		9.189548	1.782666	2.790889	-0.014889	-0.005901	-0.052704	-0.644043	-0.496582	0.161377	-0.358391	-0.571717	0.154557	-0.721670
56305		9.156459	1.802068	2.758291	-0.008697	-0.019557	-0.048269	-0.635498	-0.497314	0.173828	-0.358561	-0.571887	0.154314	-0.721503
56306		9.181107	1.804799	2.734095	0.004290	-0.026685	-0.045117	-0.644775	-0.488770	0.172607	-0.358886	-0.572129	0.154209	-0.721172
56307		9.155586	1.783725	2.765323	0.019549	-0.040262	-0.036261	-0.636963	-0.493652	0.169434	-0.358919	-0.572492	0.154024	-0.720907
56308		9.177623	1.775290	2.701824	0.037617	-0.061359	-0.025561	-0.637207	-0.498291	0.171387	-0.358846	-0.573011	0.153874	-0.720562
56309		9.150645	1.774611	2.677036	0.052516	-0.071044	-0.016647	-0.635986	-0.489014	0.175049	-0.358629	-0.573629	0.153687	-0.720219
56310		9.169517	1.793171	2.638489	0.070061	-0.081520	-0.009550	-0.636719	-0.498779	0.177979	-0.358326	-0.574341	0.153532	-0.719835
56311		9.202474	1.803345	2.636322	0.084894	-0.089634	-0.000982	-0.637695	-0.495850	0.172852	-0.357877	-0.575148	0.153315	-0.719460
56312		9.217330	1.817542	2.639180	0.108353	-0.105111	0.003961	-0.627686	-0.487793	0.176514	-0.357176	-0.576107	0.152968	-0.719115
56313		9.318703	1.853987	2.503076	0.115926	-0.092316	0.006583	-0.628174	-0.498535	0.176514	-0.356621	-0.576983	0.152699	-0.718746
56314		9.323810	1.885884	2.503390	0.111177	-0.068137	0.008870	-0.631104	-0.491211	0.182129	-0.356065	-0.577707	0.152335	-0.718517
56315		9.372855	1.904826	2.510277	0.122512	-0.056486	0.017429	-0.633301	-0.491211	0.192139	-0.355418	-0.578385	0.151939	-0.718376
56316		9.363999	1.946825	2.588694	0.113714	-0.047227	0.018089	-0.636475	-0.499512	0.188721	-0.354891	-0.578986	0.151633	-0.718217
56317		9.349126	2.023903	2.631720	0.097696	-0.057042	0.021352	-0.635010	-0.497070	0.195312	-0.354312	-0.579602	0.151372	-0.718061
56318		9.318754	1.972512	2.620914	0.087610	-0.070243	0.022289	-0.635742	-0.485352	0.181885	-0.353855	-0.580261	0.151297	-0.717769
56319		9.313274	1.915938	2.588787	0.082799	-0.066929	0.023984	-0.640869	-0.501221	0.187744	-0.353174	-0.580881	0.151081	-0.717649
56320		9.295684	1.859568	2.584734	0.080354	-0.057646	0.025977	-0.632080	-0.491455	0.189697	-0.352524	-0.581449	0.150844	-0.717558
56321		9.274623	1.828675	2.644227	0.077873	-0.049610	0.025700	-0.631348	-0.481934	0.188232	-0.352024	-0.581944	0.150712	-0.717430
56322		9.317912	1.844212	2.667783	0.075281	-0.044716	0.031738	-0.635254	-0.478516	0.190918	-0.351462	-0.582390	0.150595	-0.717368
56323		9.301642	1.889652	2.697779	0.060393	-0.034073	0.033532	-0.634521	-0.491211	0.191895	-0.350929	-0.582732	0.150523	-0.717367
56324		9.295351	1.979639	2.700942	0.039546	-0.024095	0.033459	-0.640625	-0.483154	0.193604	-0.350563	-0.582955	0.150553	-0.717359
56325		9.278534	2.024080	2.734084	0.015821	-0.028828	0.022966	-0.637695	-0.488525	0.195801	-0.350271	-0.583157	0.150638	-0.717319
56326		9.278034	2.027682	2.664575	-0.000123	-0.023861	0.015660	-0.634033	-0.485596	0.197266	-0.350198	-0.583288	0.150823	-0.717209
56327		9.223737	1.961066	2.703987	-0.011982	-0.011236	0.006194	-0.638672	-0.482910	0.197998	-0.350322	-0.583314	0.151054	-0.717079
56328		9.176551	1.923316	2.747272	-0.030021	-0.011348	-0.002294	-0.639404	-0.491211	0.190186	-0.350516	-0.583304	0.151310	-0.716938
56329		9.142976	1.871076	2.748687	-0.038627	-0.021438	-0.013839	-0.635498	-0.486572	0.195312	-0.350704	-0.583350	0.151483	-0.716772
56330		9.140416	1.846198	2.698229	-0.051581	-0.023157	-0.020243	-0.642090	-0.492676	0.190674	-0.351113	-0.583367	0.151816	-0.716487
56331		9.184945	1.834729	2.701083	-0.051700	-0.008783	-0.022738	-0.644531	-0.487793	0.189453	-0.351401	-0.583315	0.151963	-0.716358
56332		9.153840	1.884209	2.767315	-0.046696	0.002403	-0.022845	-0.637207	-0.490234	0.187744	-0.351602	-0.583215	0.152001	-0.716333
56333		9.167898	1.910442	2.789931	-0.052206	-0.010258	-0.029249	-0.633057	-0.491211	0.192871	-0.351951	-0.583171	0.152142	-0.716166
56334		9.169748	1.898096	2.774313	-0.054612	-0.023891	-0.030754	-0.639160	-0.496094	0.193115	-0.352449	-0.583196	0.152445	-0.715837
56335		9.143695	1.876471	2.777093	-0.056729	-0.030601	-0.031728	-0.637939	-0.491455	0.196289	-0.352878	-0.583265	0.152713	-0.715512
56336		9.176638	1.934119	2.739387	-0.054999	-0.026059	-0.032178	-0.640625	-0.483643	0.194824	-0.353353	-0.583310	0.153005	-0.715179
56337		9.179061	1.953710	2.706913	-0.055260	-0.013243	-0.028606	-0.631592	-0.489502	0.194336	-0.353726	-0.583276	0.153220	-0.714975
56338		9.241819	1.938998	2.702917	-0.057404	-0.007500	-0.029186	-0.636719	-0.491455	0.190918	-0.354273	-0.583190	0.153528	-0.714709
56339		9.263561	1.875654	2.682799	-0.067513	-0.008250	-0.027793	-0.637939	-0.485596	0.192871	-0.354734	-0.583086	0.153806	-0.714506
56340		9.282835	1.837252	2.724136	-0.066301	-0.016312	-0.027081	-0.634277	-0.500488	0.195801	-0.355165	-0.583033	0.154112	-0.714269
56341		9.214270	1.887068	2.724562	-0.067798	-0.023226	-0.027105	-0.639648	-0.494141	0.191895	-0.355759	-0.583010	0.154550	-0.713897
56342		9.187643	1.931706	2.663155	-0.057341	-0.019118	-0.024892	-0.637695	-0.501221	0.197998	-0.356122	-0.583001	0.154803	-0.713669
56343		9.193525	1.964635	2.633548	-0.054389	-0.002495	-0.022900	-0.631348	-0.491211	0.197266	-0.356642	-0.582891	0.155119	-0.713430
56344		9.208429	1.911704	2.675985	-0.065853	0.014378	-0.023831	-0.635986	-0.489014	0.190918	-0.357288	-0.582638	0.155496	-0.713232
56345		9.202079	1.877149	2.742786	-0.078319	0.015601	-0.029885	-0.635986	-0.493408	0.190918	-0.357846	-0.582361	0.155772	-0.713117
56346		9.157142	1.929534	2.806643	-0.082919	-0.002805	-0.035337	-0.634277	-0.493896	0.191162	-0.358468	-0.582186	0.156123	-0.712871
56347		9.070972	1.970080	2.802291	-0.084357	-0.020243	-0.044469	-0.637451	-0.493896	0.192627	-0.359165	-0.582118	0.156519	-0.712490
56348		9.034886	1.992766	2.705912	-0.080033	-0.030192	-0.049513	-0.638672	-0.493164	0.186523	-0.359835	-0.582131	0.156882	-0.712060
56349		9.051648	1.964217	2.679881	-0.080392	-0.027909	-0.049182	-0.626953	-0.497314	0.184570	-0.360367	-0.582139	0.157129	-0.711731
56350		9.099379	1.937586	2.699334	-0.080596	-0.024741	-0.043986	-0.637939	-0.498291	0.186523	-0.361032	-0.582103	0.157501	-0.711340
56351		9.194130	1.883970	2.706635	-0.079505	-0.031217	-0.037831	-0.630615	-0.491699	0.190186	-0.361521	-0.582116	0.157828	-0.711009
56352		9.283053	1.888162	2.614582	-0.091346	-0.036651	-0.041948	-0.636719	-0.502930	0.184082	-0.362215	-0.582117	0.158336	-0.710542
56353		9.339475	1.943047	2.557213	-0.105392	-0.027098	-0.045555	-0.629639	-0.497559	0.188965	-0.362874	-0.582037	0.158754	-0.710178
56354		9.368784	2.016244	2.537971	-0.100409	-0.019082	-0.045024	-0.630615	-0.497559	0.186279	-0.363674	-0.581909	0.159256	-0.709761
56355		9.361029	1.958176	2.550052	-0.089316	-0.027599	-0.036539	-0.626465	-0.500000	0.182373	-0.364295	-0.581857	0.159711	-0.709382
56356		9.291195	1.873009	2.533163	-0.083686	-0.039893	-0.031084	-0.635742	-0.501465	0.190430	-0.364845	-0.581886	0.160190	-0.708968
56357		9.244052	1.764875	2.524998	-0.076868	-0.030854	-0.021982	-0.632080	-0.505859	0.187744	-0.365335	-0.581873	0.160672	-0.708617
56358		9.191952	1.726366	2.580222	-0.065258	-0.018659	-0.021457	-0.633057	-0.504883	0.180908	-0.365815	-0.581819	0.161067	-0.708324
56359		9.215924	1.732977	2.605584	-0.042027	-0.011161	-0.016970	-0.625000	-0.502686	0.187500	-0.366019	-0.581797	0.161204	-0.708206
56360		9.191616	1.769857	2.610448	-0.023808	-0.014945	-0.012645	-0.627930	-0.501465	0.187500	-0.366329	-0.581825	0.161449	-0.707967
56361		9.186429	1.835239	2.590098	-0.006395	-0.025839	-0.007425	-0.621582	-0.500732	0.189453	-0.366455	-0.581969	0.161613	-0.707746
56362		9.169992	1.877373	2.657854	0.000211	-0.037409	-0.001860	-0.625977	-0.502441	0.180664	-0.366619	-0.582181	0.161893	-0.707422
56363		9.169891	1.923681	2.650432	0.007131	-0.052912	0.003513	-0.621338	-0.498047	0.183105	-0.366464	-0.582520	0.162012	-0.707196
56364		9.141045	1.931260	2.643397	0.010595	-0.069938	0.005066	-0.627441	-0.506348	0.195068	-0.366326	-0.582961	0.162228	-0.706855
56365		9.159409	1.977885	2.590401	0.020241	-0.081743	0.004609	-0.619141	-0.503906	0.186279	-0.366330	-0.583484	0.162586	-0.706339
56366		9.244977	1.981247	2.501559	0.035825	-0.064620	0.006889	-0.624756	-0.503418	0.198975	-0.366169	-0.583956	0.162722	-0.706001
56367		9.277737	1.955162	2.518552	0.049311	-0.060681	0.014816	-0.629883	-0.506836	0.190186	-0.366064	-0.584421	0.162954	-0.705617
56368		9.292667	1.889814	2.510825	0.060053	-0.071349	0.027626	-0.633545	-0.508057	0.183594	-0.365575	-0.584986	0.163012	-0.705388
56369		9.306343	1.850026	2.405913	0.071687	-0.076490	0.033974	-0.629395	-0.504639	0.192627	-0.364775	-0.585631	0.162870	-0.705301
56370		9.313796	1.829562	2.410777	0.077862	-0.054356	0.034362	-0.630859	-0.503174	0.196045	-0.364171	-0.586142	0.162797	-0.705205
56371		9.358990	1.904118	2.435608	0.086091	-0.026720	0.033513	-0.630859	-0.497803	0.197998	-0.363590	-0.586515	0.162610	-0.705238
56372		9.351437	1.994778	2.441429	0.081538	-0.019329	0.033939	-0.626221	-0.496826	0.198730	-0.363012	-0.586833	0.162413	-0.705316
56373		9.308320	2.069288	2.402008	0.081695	-0.012039	0.032006	-0.625000	-0.493896	0.198486	-0.362516	-0.587105	0.162233	-0.705387
56374		9.285808	2.071730	2.418688	0.077964	-0.017692	0.029586	-0.626221	-0.503662	0.191162	-0.362015	-0.587405	0.162055	-0.705435
56375		9.265338	2.018112	2.387871	0.079309	-0.024541	0.026697	-0.625000	-0.501709	0.198730	-0.361430	-0.587760	0.161789	-0.705500
56376		9.237211	1.979357	2.385907	0.083246	-0.014844	0.021823	-0.639893	-0.505859	0.197754	-0.361027	-0.588059	0.161585	-0.705504
56377		9.202992	1.941346	2.399054	0.092166	-0.003140	0.021740	-0.626953	-0.502197	0.207520	-0.360403	-0.588335	0.161136	-0.705696
56378		9.203741	1.941717	2.395878	0.097236	0.001688	0.022759	-0.619141	-0.490967	0.212158	-0.360115	-0.588558	0.160949	-0.705699
56379		9.249013	1.972679	2.427244	0.083238	0.003635	0.018039	-0.626465	-0.499268	0.207275	-0.360009	-0.588728	0.160894	-0.705625
56380		9.299529	1.993100	2.398377	0.068992	0.006320	0.014006	-0.627930	-0.496826	0.206299	-0.359890	-0.588851	0.160798	-0.705604
56381		9.353357	2.112743	2.435553	0.049071	0.026150	0.009557	-0.625732	-0.504150	0.201660	-0.359840	-0.588814	0.160672	-0.705689
56382		9.291204	2.190066	2.443597	0.035049	0.025269	0.002838	-0.623779	-0.495117	0.201904	-0.359922	-0.588744	0.160606	-0.705721
56383		9.225375	2.179036	2.434459	0.031950	0.011767	0.000194	-0.625732	-0.500732	0.202881	-0.359908	-0.588764	0.160503	-0.705735
56384		9.199000	2.081993	2.424508	0.033547	-0.003483	-0.004575	-0.619385	-0.492188	0.202881	-0.359990	-0.588870	0.160491	-0.705607
56385		9.280753	1.957125	2.410609	0.028677	-0.005856	-0.006803	-0.623291	-0.489502	0.204102	-0.360035	-0.588994	0.160449	-0.705491
56386		9.336119	1.882793	2.418723	0.014577	0.013835	-0.008460	-0.634277	-0.500244	0.206299	-0.360108	-0.588971	0.160362	-0.705493
56387		9.314557	1.870049	2.461677	-0.005350	0.034987	0.000939	-0.618896	-0.498291	0.203613	-0.360370	-0.588726	0.160473	-0.705538
56388		9.274231	1.998187	2.497094	-0.019761	0.034884	0.006443	-0.628662	-0.491943	0.205322	-0.360777	-0.588425	0.160781	-0.705511
56389		9.252998	2.121243	2.523333	-0.018748	0.017896	0.009293	-0.619629	-0.504883	0.202637	-0.360957	-0.588245	0.161003	-0.705518
56390		9.294074	2.093098	2.525768	-0.005585	-0.010161	0.009612	-0.629150	-0.490234	0.202393	-0.361349	-0.588225	0.161489	-0.705224
56391		9.336001	1.894616	2.399848	0.000385	-0.028015	0.009421	-0.629150	-0.499023	0.199219	-0.361242	-0.588390	0.161625	-0.705109
56392		9.364814	1.774875	2.283355	0.012430	-0.006033	0.012441	-0.624756	-0.498535	0.206543	-0.361165	-0.588443	0.161697	-0.705088
56393		9.379743	1.765142	2.322693	0.025136	0.031139	0.024782	-0.630615	-0.492432	0.213135	-0.361303	-0.588261	0.161903	-0.705122
56394		9.281288	1.824961	2.410527	0.039235	0.015596	0.042328	-0.625977	-0.495117	0.205322	-0.361286	-0.588182	0.162204	-0.705127
56395		9.194073	1.875692	2.385492	0.055755	-0.037911	0.053897	-0.627686	-0.499512	0.213623	-0.360913	-0.588471	0.162502	-0.705008
56396		9.192403	1.912170	2.261667	0.075206	-0.064789	0.057668	-0.630127	-0.500977	0.200439	-0.360782	-0.588909	0.163129	-0.704564
56397		9.250344	1.864964	2.208962	0.084750	-0.061387	0.059691	-0.625244	-0.490723	0.202881	-0.360091	-0.589422	0.163255	-0.704460
56398		9.322874	1.873836	2.163242	0.088373	-0.036894	0.061372	-0.626221	-0.498047	0.204346	-0.359257	-0.589832	0.163174	-0.704562
56399		9.429998	1.899217	2.167382	0.084178	-0.008037	0.060054	-0.635986	-0.492188	0.209473	-0.358727	-0.590019	0.163225	-0.704663
56400		9.456746	1.985618	2.252508	0.074344	0.014548	0.051243	-0.634033	-0.491455	0.210205	-0.358249	-0.590064	0.163160	-0.704884
56401		9.383040	2.087459	2.311799	0.064979	-0.011834	0.043765	-0.634277	-0.485107	0.209717	-0.357870	-0.590240	0.163234	-0.704911
56402		9.301709	2.108661	2.286718	0.054972	-0.039316	0.027298	-0.629883	-0.487305	0.215088	-0.357388	-0.590607	0.163185	-0.704860
56403		9.267098	1.983953	2.236419	0.044314	-0.031545	0.012487	-0.634766	-0.481934	0.215088	-0.357379	-0.590868	0.163387	-0.704599
56404		9.244763	1.910445	2.274661	0.027481	0.020340	0.008415	-0.630859	-0.487549	0.217285	-0.357306	-0.590816	0.163304	-0.704699
56405		9.312001	2.005034	2.382798	0.010664	0.038772	0.001485	-0.631592	-0.489746	0.217529	-0.357702	-0.590566	0.163509	-0.704660
56406		9.350771	2.099859	2.401008	-0.001457	0.023272	-0.002389	-0.637207	-0.485840	0.214355	-0.358255	-0.590358	0.163897	-0.704463
56407		9.332903	2.058272	2.413742	-0.011414	0.008069	-0.004255	-0.635742	-0.493164	0.212158	-0.358530	-0.590259	0.164099	-0.704359
56408		9.274125	1.968255	2.409028	-0.024065	-0.005969	-0.006814	-0.627686	-0.484863	0.216064	-0.359033	-0.590177	0.164549	-0.704067
56409		9.221371	1.878004	2.388809	-0.023344	-0.019066	-0.009518	-0.641113	-0.491699	0.207520	-0.359527	-0.590191	0.165030	-0.703690
56410		9.262189	1.840817	2.341286	-0.021827	-0.013760	-0.009272	-0.636475	-0.489502	0.215332	-0.359691	-0.590212	0.165181	-0.703553
56411		9.283259	1.876173	2.395845	-0.019670	-0.000912	-0.001042	-0.631592	-0.487305	0.217041	-0.360154	-0.590104	0.165632	-0.703301
56412		9.339727	1.904911	2.401563	-0.033938	-0.017013	0.001360	-0.634766	-0.489746	0.213135	-0.360720	-0.590039	0.166292	-0.702909
56413		9.364674	1.897621	2.378469	-0.054508	-0.018926	0.008543	-0.629883	-0.483887	0.205322	-0.361211	-0.589929	0.166993	-0.702583
56414		9.341705	1.962481	2.367465	-0.085390	-0.004488	0.001265	-0.634277	-0.489746	0.209717	-0.361365	-0.589753	0.167311	-0.702576
56415		9.327680	2.074506	2.490809	-0.116430	0.026347	-0.011166	-0.640869	-0.484619	0.207764	-0.362202	-0.589241	0.168020	-0.702406
56416		9.288304	2.201553	2.527979	-0.139680	0.019334	-0.023607	-0.629150	-0.481934	0.205322	-0.362890	-0.588769	0.168534	-0.702324
56417		9.306867	2.170449	2.464368	-0.143497	0.001113	-0.032317	-0.635010	-0.494141	0.204102	-0.363571	-0.588427	0.169048	-0.702134
56418		9.305971	1.973859	2.441213	-0.147501	-0.002602	-0.031812	-0.636719	-0.492432	0.198242	-0.364619	-0.588017	0.169902	-0.701728
56419		9.242142	1.825880	2.407487	-0.160852	0.010049	-0.034825	-0.629150	-0.492920	0.207275	-0.365429	-0.587554	0.170480	-0.701555
56420		9.229046	1.825138	2.443052	-0.177896	0.032790	-0.040130	-0.633545	-0.484131	0.200195	-0.366939	-0.586825	0.171559	-0.701113
56421		9.223160	1.862306	2.531242	-0.185161	0.034461	-0.037063	-0.626221	-0.491211	0.209717	-0.367802	-0.586176	0.172105	-0.701070
56422		9.278373	1.833482	2.501473	-0.183521	0.019604	-0.034730	-0.632812	-0.493408	0.203369	-0.369449	-0.585473	0.173430	-0.700464
56423		9.281975	1.841076	2.544864	-0.181231	0.029925	-0.032740	-0.632812	-0.496826	0.203857	-0.370852	-0.584744	0.174505	-0.700065
56424		9.238940	1.855044	2.506030	-0.180604	0.022804	-0.034254	-0.629883	-0.492676	0.190918	-0.372453	-0.584019	0.175768	-0.699504
56425		9.235287	1.899355	2.514287	-0.168807	0.020049	-0.035002	-0.632812	-0.487793	0.185791	-0.373284	-0.583482	0.176343	-0.699365
56426		9.215094	1.878819	2.592642	-0.163168	0.002441	-0.032322	-0.635254	-0.496094	0.193848	-0.373623	-0.583138	0.176581	-0.699411
56427		9.201497	1.807113	2.573065	-0.143495	-0.032415	-0.033406	-0.631348	-0.500977	0.187256	-0.374533	-0.582921	0.177429	-0.698890
56428		9.277871	1.766887	2.477025	-0.131635	-0.022651	-0.027576	-0.624756	-0.493896	0.191895	-0.375296	-0.582687	0.178144	-0.698493
56429		9.292417	1.747270	2.469279	-0.120820	0.004093	-0.018533	-0.641602	-0.493164	0.192139	-0.376007	-0.582329	0.178778	-0.698248
56430		9.295820	1.684459	2.456549	-0.087922	-0.008476	-0.001895	-0.631104	-0.500000	0.191162	-0.376280	-0.582133	0.179189	-0.698158
56431		9.355828	1.585544	2.479426	-0.054741	-0.013678	0.012991	-0.631592	-0.497070	0.186035	-0.376629	-0.581995	0.179787	-0.697932
56432		9.334571	1.570821	2.484751	-0.039647	-0.016967	0.020637	-0.625000	-0.500000	0.193115	-0.376531	-0.581974	0.180063	-0.697931
56433		9.260098	1.692780	2.485299	-0.035032	-0.028008	0.023091	-0.634766	-0.500732	0.185791	-0.376866	-0.581942	0.180788	-0.697589
56434		9.264167	1.771127	2.420297	-0.020448	-0.036329	0.032970	-0.634033	-0.499756	0.185303	-0.376685	-0.582048	0.181167	-0.697501
56435		9.328121	1.804087	2.457797	-0.014822	-0.026519	0.037699	-0.627197	-0.496826	0.190186	-0.376417	-0.582117	0.181464	-0.697511
56436		9.333584	1.736960	2.439596	-0.004713	-0.010098	0.048204	-0.632080	-0.492920	0.182129	-0.376236	-0.582084	0.181860	-0.697533
56437		9.353298	1.618714	2.427930	0.004759	-0.002667	0.050745	-0.634521	-0.499268	0.181396	-0.375488	-0.582129	0.181736	-0.697930
56438		9.306920	1.627817	2.518188	0.016722	-0.009701	0.048363	-0.634766	-0.492432	0.190918	-0.374897	-0.582208	0.181734	-0.698183
56439		9.297983	1.653180	2.527163	0.012616	-0.023875	0.045341	-0.632812	-0.491455	0.194336	-0.374485	-0.582336	0.181932	-0.698246
56440		9.287557	1.683223	2.502285	0.017277	-0.028887	0.049422	-0.628418	-0.494873	0.185303	-0.374146	-0.582480	0.182249	-0.698225
56441		9.268449	1.740187	2.521406	0.015523	-0.027460	0.051317	-0.636475	-0.484131	0.194824	-0.373604	-0.582647	0.182407	-0.698334
56442		9.260141	1.755247	2.480699	0.009401	-0.031906	0.058067	-0.636719	-0.489014	0.188965	-0.372994	-0.582819	0.182602	-0.698465
56443		9.318807	1.701312	2.464789	0.012133	-0.041636	0.068138	-0.636719	-0.498291	0.185547	-0.372245	-0.583047	0.182812	-0.698620
56444		9.386333	1.739056	2.420357	0.032745	-0.049357	0.079854	-0.634277	-0.497314	0.191650	-0.371501	-0.583324	0.183141	-0.698699
56445		9.356323	1.796430	2.430219	0.052502	-0.048023	0.084374	-0.635254	-0.483398	0.189697	-0.370860	-0.583608	0.183569	-0.698689
56446		9.283666	1.709494	2.468374	0.061743	-0.043100	0.082178	-0.638916	-0.484619	0.189209	-0.369661	-0.584004	0.183458	-0.699023
56447		9.196883	1.619259	2.454559	0.071614	-0.036292	0.072458	-0.640869	-0.489258	0.192383	-0.368487	-0.584398	0.183224	-0.699375
56448		9.129549	1.666321	2.421208	0.068976	-0.013603	0.054808	-0.636475	-0.489990	0.198242	-0.367714	-0.584626	0.183066	-0.699633
56449		9.133512	1.690049	2.435547	0.066248	0.003035	0.035530	-0.631836	-0.485840	0.200684	-0.367360	-0.584732	0.183011	-0.699744
56450		9.209106	1.722515	2.482568	0.063878	0.029779	0.022294	-0.635986	-0.492920	0.195312	-0.367136	-0.584703	0.182828	-0.699934
56451		9.263160	1.797854	2.494451	0.053407	0.056392	0.009928	-0.640869	-0.486084	0.196777	-0.367075	-0.584496	0.182559	-0.700209
56452		9.368669	1.899268	2.563738	0.035267	0.080225	-0.005220	-0.636963	-0.476074	0.192383	-0.367046	-0.584150	0.182093	-0.700634
56453		9.484949	1.955356	2.609679	0.009780	0.091630	-0.011892	-0.634766	-0.486084	0.193848	-0.366782	-0.583756	0.181353	-0.701292
56454		9.514278	1.953026	2.701732	-0.032959	0.093964	-0.010051	-0.645508	-0.488770	0.187256	-0.367131	-0.583135	0.181220	-0.701661
56455		9.505402	1.905584	2.731542	-0.062366	0.089551	-0.003838	-0.637207	-0.479004	0.191406	-0.367387	-0.582462	0.181132	-0.702108
56456		9.450003	1.753018	2.710890	-0.083932	0.098845	0.000291	-0.636719	-0.491943	0.184082	-0.367708	-0.581683	0.181142	-0.702583
56457		9.358759	1.691268	2.772570	-0.094790	0.105857	0.001920	-0.642578	-0.484863	0.185791	-0.368265	-0.580785	0.181355	-0.702979
56458		9.286380	1.623948	2.824642	-0.111475	0.082073	0.007551	-0.645020	-0.493164	0.191650	-0.368707	-0.579988	0.181660	-0.703327
56459		9.240497	1.607255	2.773197	-0.111622	0.061069	0.010393	-0.643311	-0.490234	0.183594	-0.369559	-0.579220	0.182429	-0.703314
56460		9.151323	1.603232	2.716066	-0.091861	0.045819	0.019792	-0.649414	-0.498779	0.189453	-0.369953	-0.578641	0.182934	-0.703452
56461		9.123820	1.563111	2.680655	-0.074247	0.028720	0.027409	-0.645264	-0.487793	0.183105	-0.370625	-0.578115	0.183789	-0.703308
56462		9.055350	1.484706	2.671937	-0.062439	0.015071	0.031725	-0.642334	-0.485840	0.188721	-0.370734	-0.577793	0.184253	-0.703394
56463		9.020923	1.472133	2.673359	-0.043945	-0.026164	0.032278	-0.637939	-0.494629	0.185059	-0.370870	-0.577739	0.184893	-0.703198
56464		9.058198	1.499928	2.571590	-0.013008	-0.058296	0.032476	-0.643066	-0.481934	0.179199	-0.370980	-0.577935	0.185599	-0.702793
56465		9.196409	1.536240	2.430552	0.003780	-0.044540	0.024990	-0.646729	-0.490723	0.182861	-0.370447	-0.578234	0.185597	-0.702829
56466		9.181368	1.602121	2.403147	0.016345	-0.024576	0.025609	-0.641357	-0.484619	0.177246	-0.370242	-0.578376	0.185767	-0.702775
56467		9.176576	1.654759	2.460109	0.033012	-0.028129	0.018048	-0.648682	-0.473877	0.190430	-0.369655	-0.578675	0.185528	-0.702901
56468		9.189312	1.663486	2.475931	0.034533	-0.023509	0.007879	-0.633301	-0.484863	0.187500	-0.369208	-0.578951	0.185287	-0.702972
56469		9.186058	1.659395	2.518721	0.026144	-0.005886	-0.003665	-0.646973	-0.483643	0.187500	-0.369198	-0.579069	0.185240	-0.702892
56470		9.205362	1.619478	2.557541	0.013136	0.007791	-0.007411	-0.643799	-0.484863	0.184570	-0.369165	-0.579083	0.185098	-0.702936
56471		9.233368	1.649228	2.633201	0.011745	-0.002646	-0.010335	-0.639893	-0.483887	0.191162	-0.369097	-0.579169	0.184946	-0.702941
56472		9.226251	1.656207	2.612208	0.022474	-0.019390	-0.010726	-0.639648	-0.480957	0.188721	-0.369155	-0.579353	0.184953	-0.702757
56473		9.217149	1.645091	2.620135	0.028695	-0.020226	-0.014263	-0.642822	-0.486084	0.187500	-0.369027	-0.579602	0.184761	-0.702669
56474		9.245224	1.635061	2.659105	0.020382	-0.022767	-0.018065	-0.642334	-0.483887	0.183105	-0.369025	-0.579826	0.184662	-0.702511
56475		9.202822	1.605699	2.650414	0.022485	-0.049407	-0.020483	-0.641846	-0.487305	0.187744	-0.368769	-0.580258	0.184437	-0.702348
56476		9.182119	1.512719	2.615249	0.027661	-0.056982	-0.025774	-0.638672	-0.495850	0.185303	-0.368725	-0.580716	0.184363	-0.702012
56477		9.173447	1.462568	2.585055	0.041799	-0.054177	-0.027434	-0.635742	-0.488037	0.189697	-0.368765	-0.581176	0.184306	-0.701625
56478		9.246328	1.512002	2.558960	0.057057	-0.040210	-0.025520	-0.633301	-0.491211	0.180420	-0.368650	-0.581622	0.184051	-0.701383
56479		9.274679	1.607058	2.517329	0.066937	-0.022700	-0.022735	-0.637695	-0.487549	0.195557	-0.368270	-0.582034	0.183504	-0.701384
56480		9.298363	1.664989	2.537818	0.064074	-0.024378	-0.025567	-0.637695	-0.476807	0.193359	-0.368242	-0.582389	0.183242	-0.701173
56481		9.285313	1.676723	2.528010	0.064739	-0.011223	-0.034692	-0.627686	-0.487305	0.186279	-0.367893	-0.582761	0.182561	-0.701225
56482		9.257437	1.717452	2.577088	0.069552	-0.008043	-0.043239	-0.636230	-0.489746	0.184570	-0.367675	-0.583126	0.181883	-0.701211
56483		9.291116	1.658593	2.553996	0.078372	-0.027822	-0.043657	-0.628174	-0.485352	0.189697	-0.367322	-0.583636	0.181155	-0.701161
56484		9.314961	1.622921	2.490960	0.092881	-0.057106	-0.042438	-0.633301	-0.484619	0.203613	-0.366903	-0.584358	0.180488	-0.700950
56485		9.333838	1.577475	2.390259	0.111042	-0.069619	-0.034708	-0.636475	-0.487061	0.191162	-0.366650	-0.585135	0.180061	-0.700544
56486		9.338165	1.494033	2.377203	0.118855	-0.068085	-0.024478	-0.628174	-0.494385	0.197021	-0.365919	-0.585974	0.179308	-0.700419
56487		9.381574	1.539871	2.332915	0.126293	-0.067055	-0.015908	-0.627197	-0.488525	0.197266	-0.365462	-0.586755	0.178856	-0.700119
56488		9.381548	1.672095	2.302877	0.139908	-0.058832	-0.012124	-0.631836	-0.489014	0.206299	-0.364747	-0.587560	0.178165	-0.699993
56489		9.378360	1.743683	2.272963	0.147276	-0.042901	-0.008227	-0.629639	-0.489990	0.197510	-0.364203	-0.588246	0.177579	-0.699850
56490		9.451756	1.779767	2.230297	0.147713	-0.010596	-0.008881	-0.633301	-0.490967	0.201904	-0.363441	-0.588792	0.176659	-0.700019
56491		9.486914	1.769911	2.289217	0.123277	0.025223	-0.010692	-0.629395	-0.489502	0.205322	-0.362966	-0.589035	0.175855	-0.700263
56492		9.501269	1.832797	2.295297	0.113019	0.023200	-0.017363	-0.626465	-0.492676	0.204346	-0.362652	-0.589259	0.175149	-0.700414
56493		9.498334	1.854205	2.310300	0.107399	0.019403	-0.020408	-0.628662	-0.494873	0.209717	-0.362430	-0.589485	0.174516	-0.700497
56494		9.458273	1.884557	2.342227	0.089793	0.023541	-0.026068	-0.639404	-0.490967	0.202881	-0.362524	-0.589606	0.174111	-0.700447
56495		9.311832	1.877066	2.443569	0.067859	0.025514	-0.035490	-0.635986	-0.482910	0.203125	-0.362393	-0.589719	0.173444	-0.700585
56496		9.239065	1.917357	2.481364	0.051289	0.041627	-0.048509	-0.631836	-0.485840	0.207275	-0.362246	-0.589749	0.172592	-0.700846
56497		9.255805	1.918686	2.512492	0.020124	0.062861	-0.053556	-0.628174	-0.489502	0.204102	-0.362535	-0.589533	0.172027	-0.701018
56498		9.280699	1.858481	2.518346	0.009173	0.057828	-0.049134	-0.628906	-0.487549	0.212402	-0.362863	-0.589304	0.171578	-0.701150
56499		9.345976	1.859988	2.554024	0.012759	0.044455	-0.046434	-0.630371	-0.489258	0.205811	-0.363341	-0.589128	0.171336	-0.701111
56500		9.355772	1.788281	2.548529	0.008454	0.012937	-0.037479	-0.624268	-0.484131	0.204834	-0.363573	-0.589135	0.171111	-0.701039
56501		9.348273	1.730261	2.435608	0.001363	-0.017056	-0.031749	-0.634766	-0.490967	0.205322	-0.363626	-0.589320	0.170931	-0.700900
56502		9.371377	1.773933	2.285540	0.000685	0.004056	-0.035958	-0.628906	-0.493896	0.203369	-0.363851	-0.589352	0.170766	-0.700796
56503		9.372170	1.871625	2.271885	0.006974	0.029427	-0.030423	-0.619385	-0.489014	0.205322	-0.364088	-0.589244	0.170548	-0.700817
56504		9.383107	1.775504	2.329467	0.018948	0.021201	-0.013679	-0.623291	-0.490967	0.200928	-0.364144	-0.589212	0.170361	-0.700860
56505		9.339267	1.701175	2.297213	0.036639	-0.009014	-0.001521	-0.630371	-0.491211	0.204346	-0.363892	-0.589406	0.170127	-0.700886
56506		9.343319	1.695478	2.199601	0.058599	-0.027045	0.004610	-0.625732	-0.498291	0.210205	-0.363531	-0.589745	0.169901	-0.700843
56507		9.393095	1.762500	2.165116	0.082742	-0.021024	0.011529	-0.632324	-0.495361	0.202881	-0.363385	-0.590052	0.169866	-0.700668
56508		9.352109	1.846961	2.204390	0.093964	-0.014252	0.016674	-0.620117	-0.492188	0.209229	-0.362811	-0.590398	0.169466	-0.700770
56509		9.356934	1.829706	2.216717	0.096446	-0.016684	0.020763	-0.628662	-0.485840	0.210205	-0.362368	-0.590747	0.169230	-0.700763
56510		9.335758	1.852355	2.202396	0.090604	-0.008499	0.016672	-0.625488	-0.497559	0.206055	-0.361788	-0.591064	0.168809	-0.700897
56511		9.299915	1.936837	2.229706	0.085309	-0.000156	0.011015	-0.628906	-0.483643	0.216064	-0.361460	-0.591289	0.168522	-0.700945
56512		9.318107	2.034521	2.294757	0.076980	-0.005654	0.005339	-0.625000	-0.489014	0.216064	-0.361119	-0.591548	0.168205	-0.700979
56513		9.302240	2.026046	2.282720	0.068353	-0.032897	0.009679	-0.637451	-0.492920	0.203857	-0.360908	-0.591909	0.168173	-0.700791
56514		9.296394	1.998707	2.272147	0.059075	-0.045470	0.010752	-0.635010	-0.485840	0.217041	-0.360338	-0.592360	0.167903	-0.700767
56515		9.323702	1.948019	2.244571	0.050247	-0.030500	0.011656	-0.630615	-0.490723	0.208008	-0.360056	-0.592665	0.167844	-0.700668
56516		9.310712	1.977755	2.295992	0.030824	-0.019291	0.007925	-0.629150	-0.489746	0.207031	-0.359754	-0.592879	0.167715	-0.700674
56517		9.308534	2.006818	2.320964	0.016876	-0.028144	0.002647	-0.632080	-0.480225	0.218262	-0.359483	-0.593121	0.167619	-0.700631
56518		9.331451	1.973771	2.278337	0.003294	-0.031634	-0.001766	-0.626465	-0.487061	0.213135	-0.359380	-0.593338	0.167660	-0.700491
56519		9.350885	1.969550	2.266132	-0.007023	-0.020345	-0.001336	-0.625977	-0.494141	0.212158	-0.359376	-0.593453	0.167761	-0.700370
56520		9.364380	1.933749	2.285797	-0.016909	-0.015001	-0.004000	-0.625732	-0.480469	0.213379	-0.359591	-0.593484	0.168020	-0.700172
56521		9.370677	1.976546	2.301810	-0.029862	-0.007422	-0.009231	-0.631348	-0.489014	0.219482	-0.359594	-0.593500	0.168028	-0.700155
56522		9.324843	2.015189	2.361511	-0.042926	-0.005942	-0.015991	-0.635010	-0.492920	0.208008	-0.360079	-0.593404	0.168401	-0.699897
56523		9.304302	2.067142	2.368812	-0.063671	-0.005317	-0.028164	-0.620850	-0.492676	0.217773	-0.360464	-0.593298	0.168593	-0.699743
56524		9.299467	2.023194	2.386139	-0.076669	-0.000985	-0.032923	-0.625977	-0.493408	0.216553	-0.361319	-0.593088	0.169152	-0.699345
56525		9.314398	1.960749	2.381689	-0.079155	0.009075	-0.035834	-0.626953	-0.495850	0.210938	-0.362175	-0.592816	0.169643	-0.699013
56526		9.271351	1.914664	2.370897	-0.077571	0.018849	-0.033819	-0.627197	-0.491943	0.205811	-0.362914	-0.592505	0.170007	-0.698805
56527		9.267823	1.899249	2.407664	-0.079686	0.019782	-0.033580	-0.629883	-0.491943	0.217285	-0.363400	-0.592228	0.170152	-0.698752
56528		9.318300	1.916884	2.417897	-0.087733	0.014823	-0.031883	-0.627930	-0.494385	0.208740	-0.364267	-0.591889	0.170679	-0.698459
56529		9.353894	1.909640	2.405967	-0.085597	0.008647	-0.028930	-0.617676	-0.490479	0.207031	-0.364914	-0.591620	0.171066	-0.698255
56530		9.352633	1.910668	2.410052	-0.084108	0.009107	-0.027947	-0.625732	-0.488037	0.211914	-0.365449	-0.591382	0.171366	-0.698103
56531		9.337895	1.872548	2.378227	-0.082689	0.016028	-0.022184	-0.624268	-0.498535	0.212646	-0.366006	-0.591083	0.171707	-0.697981
56532		9.271318	1.829368	2.388843	-0.073746	0.013568	-0.028420	-0.626953	-0.501709	0.215332	-0.366878	-0.590773	0.172258	-0.697649
56533		9.269533	1.788149	2.362203	-0.054987	0.020345	-0.022624	-0.625732	-0.490967	0.209961	-0.367806	-0.590437	0.172859	-0.697297
56534		9.297802	1.763744	2.395616	-0.045735	0.028113	-0.022895	-0.632568	-0.488281	0.206543	-0.368242	-0.590172	0.172979	-0.697260
56535		9.296164	1.765345	2.400788	-0.042378	0.021925	-0.020508	-0.619385	-0.501709	0.203857	-0.368420	-0.589983	0.172915	-0.697342
56536		9.285505	1.817086	2.384608	-0.028262	0.014724	-0.018382	-0.617920	-0.500244	0.200928	-0.368884	-0.589816	0.173140	-0.697183
56537		9.276635	1.822624	2.369598	-0.007957	0.028468	-0.012448	-0.622314	-0.495117	0.200439	-0.369106	-0.589648	0.173125	-0.697211
56538		9.289941	1.848801	2.396556	0.004911	0.039015	-0.012411	-0.623535	-0.499268	0.211914	-0.369098	-0.589489	0.172841	-0.697421
56539		9.317469	1.878772	2.351187	0.001803	0.041236	-0.015010	-0.625000	-0.495117	0.203613	-0.369621	-0.589219	0.172987	-0.697335
56540		9.346795	1.905050	2.339238	0.000941	0.049833	-0.014018	-0.626465	-0.502441	0.203613	-0.369763	-0.588965	0.172776	-0.697527
56541		9.339004	1.906984	2.360291	0.012625	0.049154	-0.005888	-0.620117	-0.495361	0.204590	-0.370021	-0.588694	0.172731	-0.697630
56542		9.292862	1.940932	2.458599	0.015895	0.033696	0.001229	-0.622314	-0.485352	0.206055	-0.370068	-0.588548	0.172638	-0.697751
56543		9.187864	1.908933	2.450609	0.012070	0.007891	0.002782	-0.618164	-0.492920	0.204346	-0.369833	-0.588587	0.172430	-0.697894
56544		9.158035	1.860733	2.406658	0.019096	-0.008033	-0.000860	-0.618408	-0.512451	0.205811	-0.369755	-0.588712	0.172384	-0.697842
56545		9.147032	1.851495	2.384780	0.021144	-0.004162	-0.001888	-0.631348	-0.495605	0.206299	-0.370292	-0.588699	0.172847	-0.697453
56546		9.161757	1.866691	2.358420	0.032182	0.006607	-0.002240	-0.624023	-0.494873	0.203613	-0.370243	-0.588752	0.172721	-0.697466
56547		9.249106	1.932640	2.393309	0.018503	-0.000159	-0.000537	-0.623047	-0.500244	0.207764	-0.370157	-0.588823	0.172635	-0.697473
56548		9.297741	1.924520	2.348156	0.011475	-0.015681	0.002976	-0.614746	-0.493896	0.206055	-0.370372	-0.588900	0.172926	-0.697221
56549		9.356367	1.972310	2.319954	0.003431	-0.029931	0.003616	-0.633057	-0.495605	0.210938	-0.370378	-0.589088	0.173122	-0.697011
56550		9.370504	2.000004	2.304853	0.003387	-0.023501	0.002613	-0.619629	-0.505615	0.205078	-0.370523	-0.589195	0.173387	-0.696778
56551		9.400646	1.963124	2.284298	-0.006780	0.004306	0.002168	-0.624756	-0.495361	0.204102	-0.370929	-0.589087	0.173784	-0.696554
56552		9.402119	1.969404	2.367233	-0.019744	0.028788	-0.000787	-0.625244	-0.494873	0.199463	-0.371065	-0.588873	0.173822	-0.696653
56553		9.315663	2.017958	2.415033	-0.019075	0.016066	-0.006150	-0.629150	-0.492188	0.200684	-0.371040	-0.588773	0.173718	-0.696776
56554		9.298432	1.965509	2.378300	-0.015790	-0.007079	-0.006096	-0.624756	-0.495117	0.201172	-0.370915	-0.588825	0.173621	-0.696824
56555		9.239166	1.921739	2.368584	-0.012303	-0.019691	-0.008452	-0.628662	-0.494873	0.204346	-0.370901	-0.588943	0.173651	-0.696724
56556		9.139255	1.872231	2.372823	0.002242	-0.017047	-0.003571	-0.626953	-0.497070	0.206543	-0.370867	-0.589064	0.173674	-0.696633
56557		9.177087	1.800472	2.386119	0.012270	-0.014636	0.000473	-0.630127	-0.489502	0.198975	-0.370904	-0.589172	0.173777	-0.696497
56558		9.220591	1.770850	2.417257	0.026273	-0.010544	0.006675	-0.623047	-0.497070	0.209717	-0.370332	-0.589385	0.173366	-0.696724
56559		9.264222	1.772946	2.431804	0.036604	-0.015296	0.011037	-0.625244	-0.493652	0.204346	-0.370292	-0.589542	0.173475	-0.696585
56560		9.248776	1.858363	2.371186	0.047290	-0.036864	0.017211	-0.626221	-0.501953	0.204102	-0.369836	-0.589902	0.173358	-0.696552
56561		9.302919	1.937487	2.336419	0.051903	-0.040221	0.021063	-0.630615	-0.495361	0.201172	-0.369548	-0.590243	0.173436	-0.696396
56562		9.327515	1.977834	2.305228	0.052356	-0.041671	0.025476	-0.621582	-0.495605	0.216309	-0.368902	-0.590646	0.173246	-0.696444
56563		9.376202	1.981394	2.268753	0.053571	-0.035644	0.026399	-0.619385	-0.489990	0.205566	-0.368777	-0.590931	0.173500	-0.696205
56564		9.359905	1.919544	2.302519	0.054166	-0.032639	0.026844	-0.626709	-0.498535	0.207275	-0.368131	-0.591300	0.173288	-0.696287
56565		9.343767	1.857829	2.335698	0.057680	-0.044039	0.026757	-0.626221	-0.496338	0.204346	-0.367717	-0.591684	0.173321	-0.696172
56566		9.290708	1.825732	2.319464	0.063634	-0.060706	0.028758	-0.627930	-0.497314	0.209717	-0.367063	-0.592212	0.173227	-0.696090
56567		9.315825	1.822739	2.253439	0.069262	-0.063780	0.029402	-0.628906	-0.491455	0.205811	-0.366546	-0.592741	0.173265	-0.695904
56568		9.316525	1.855822	2.194244	0.067944	-0.041201	0.032206	-0.625732	-0.497314	0.215332	-0.365727	-0.593191	0.172967	-0.696025
56569		9.349081	1.902383	2.229965	0.057436	-0.023178	0.029074	-0.622559	-0.494385	0.211914	-0.365475	-0.593423	0.173078	-0.695932
56570		9.319889	1.983244	2.241366	0.053334	-0.029356	0.025124	-0.618896	-0.487549	0.215576	-0.365071	-0.593723	0.173051	-0.695895
56571		9.348289	1.973484	2.244099	0.047708	-0.050523	0.022413	-0.625732	-0.498535	0.218262	-0.364607	-0.594153	0.173043	-0.695773
56572		9.329871	1.904856	2.194877	0.052224	-0.068096	0.020166	-0.630615	-0.495117	0.217285	-0.364457	-0.594624	0.173358	-0.695371
56573		9.290880	1.844241	2.119866	0.054127	-0.071976	0.017767	-0.627197	-0.489990	0.219482	-0.364133	-0.595154	0.173505	-0.695051
56574		9.296025	1.840460	2.140429	0.060008	-0.059683	0.015210	-0.619873	-0.490723	0.208984	-0.363720	-0.595657	0.173488	-0.694840
56575		9.334008	1.814201	2.144107	0.063299	-0.057848	0.016293	-0.631592	-0.493652	0.222412	-0.362971	-0.596224	0.173179	-0.694823
56576		9.435062	1.802846	2.124613	0.067218	-0.061046	0.019095	-0.632568	-0.492920	0.217773	-0.362624	-0.596719	0.173255	-0.694559
56577		9.524091	1.875669	2.036133	0.055491	-0.042531	0.019834	-0.625977	-0.479736	0.223389	-0.362159	-0.597107	0.173170	-0.694490
56578		9.536102	1.961871	2.030031	0.052328	-0.027244	0.032513	-0.625244	-0.480469	0.224365	-0.361475	-0.597426	0.172956	-0.694625
56579		9.463064	1.990316	2.072145	0.059713	-0.027295	0.038741	-0.633057	-0.489746	0.225098	-0.360770	-0.597749	0.172779	-0.694758
56580		9.485519	1.966467	2.041832	0.058822	-0.039574	0.048723	-0.630859	-0.485596	0.224365	-0.360233	-0.598068	0.172905	-0.694730
56581		9.488497	1.897434	2.067301	0.053647	-0.041221	0.047208	-0.619629	-0.478516	0.222900	-0.359595	-0.598412	0.172941	-0.694756
