// Start Time: Unknown
// Update Rate: 60.0Hz
// Filter Profile: human (46.1)
// Firmware Version: 4.6.0
PacketCounter	SampleTimeFine	Acc_X	Acc_Y	Acc_Z	Gyr_X	Gyr_Y	Gyr_Z	Mag_X	Mag_Y	Mag_Z	Quat_q0	Quat_q1	Quat_q2	Quat_q3
51504		4.849367	2.706292	8.050878	0.002524	0.001357	-0.001260	-0.056641	-0.066895	-0.730469	0.931738	0.084713	-0.285032	-0.208436
51505		4.810653	2.777386	8.054315	0.008904	-0.001347	-0.001585	-0.061523	-0.075195	-0.728760	0.931725	0.084783	-0.285057	-0.208428
51506		4.839152	2.795193	8.039648	0.009962	0.001184	-0.000536	-0.062744	-0.071777	-0.734131	0.931717	0.084873	-0.285073	-0.208405
51507		4.797748	2.792177	8.042291	0.009845	0.002730	-0.001782	-0.062500	-0.067871	-0.730469	0.931714	0.084960	-0.285067	-0.208394
51508		4.823042	2.752547	8.045771	0.010452	0.000794	-0.001306	-0.061035	-0.068115	-0.730469	0.931705	0.085049	-0.285078	-0.208380
51509		4.802789	2.734637	8.028144	0.008858	0.001470	-0.001226	-0.058105	-0.069824	-0.731445	0.931700	0.085128	-0.285080	-0.208369
51510		4.822667	2.755286	8.045059	0.008230	-0.000679	-0.003666	-0.059814	-0.053223	-0.726807	0.931686	0.085206	-0.285095	-0.208380
51511		4.806798	2.791948	8.023550	0.009278	-0.000191	-0.003601	-0.058350	-0.066162	-0.734619	0.931672	0.085295	-0.285107	-0.208389
51512		4.803313	2.752751	8.059959	0.005647	-0.001264	-0.003028	-0.062256	-0.074463	-0.731201	0.931658	0.085358	-0.285121	-0.208405
51513		4.807880	2.791282	8.037149	0.007694	0.002528	-0.002538	-0.057861	-0.072510	-0.726807	0.931654	0.085445	-0.285107	-0.208410
51514		4.797032	2.784288	8.021078	0.007372	-0.001441	-0.000882	-0.060791	-0.066406	-0.731201	0.931642	0.085524	-0.285123	-0.208407
51515		4.814144	2.747179	8.056049	0.006637	-0.000003	-0.003586	-0.060059	-0.068359	-0.730225	0.931629	0.085612	-0.285124	-0.208428
51516		4.823431	2.759630	8.057145	0.008292	-0.001451	-0.003044	-0.063965	-0.067627	-0.729736	0.931613	0.085711	-0.285137	-0.208443
51517		4.831384	2.775362	8.043876	0.009771	-0.000581	-0.004372	-0.062256	-0.076660	-0.734619	0.931595	0.085829	-0.285143	-0.208465
51518		4.810769	2.774972	8.044763	0.011857	-0.001647	-0.005223	-0.059814	-0.071777	-0.731201	0.931571	0.085969	-0.285160	-0.208490
51519		4.801971	2.748482	8.023904	0.009273	-0.002232	-0.004584	-0.061035	-0.066162	-0.726318	0.931549	0.086088	-0.285176	-0.208518
51520		4.804886	2.744069	8.051754	0.009264	-0.004275	-0.005566	-0.058350	-0.067139	-0.734863	0.931520	0.086202	-0.285207	-0.208557
51521		4.798149	2.809311	8.050102	0.010253	-0.003014	-0.006124	-0.054199	-0.065918	-0.727783	0.931495	0.086334	-0.285223	-0.208595
51522		4.798819	2.793678	8.030770	0.005024	-0.003414	-0.005468	-0.058350	-0.067139	-0.728271	0.931473	0.086422	-0.285231	-0.208643
51523		4.803647	2.768433	8.054386	0.005280	-0.002415	-0.001014	-0.063232	-0.074463	-0.736816	0.931460	0.086512	-0.285236	-0.208658
51524		4.825827	2.768269	8.066789	0.001460	-0.003218	-0.003289	-0.058594	-0.071289	-0.727783	0.931443	0.086594	-0.285233	-0.208702
51525		4.804160	2.769780	8.053617	0.004535	-0.003022	-0.004699	-0.057861	-0.069092	-0.733643	0.931423	0.086687	-0.285235	-0.208750
51526		4.814085	2.765228	8.035860	0.009707	-0.001848	-0.005980	-0.069092	-0.065430	-0.729004	0.931403	0.086831	-0.285228	-0.208791
51527		4.815014	2.781096	8.068188	0.009209	-0.003500	-0.006192	-0.063232	-0.067383	-0.724609	0.931371	0.086958	-0.285254	-0.208847
51528		4.805834	2.771704	8.066002	0.010258	-0.003011	-0.006128	-0.060791	-0.064209	-0.730957	0.931342	0.087087	-0.285272	-0.208898
51529		4.790839	2.791159	8.025467	0.003970	-0.005946	-0.006514	-0.066162	-0.066895	-0.737305	0.931315	0.087165	-0.285288	-0.208962
51530		4.775491	2.763525	8.050449	0.000337	-0.007022	-0.005938	-0.063232	-0.065918	-0.738281	0.931288	0.087235	-0.285306	-0.209030
51531		4.758399	2.818935	8.033330	-0.002602	-0.004675	-0.001319	-0.058838	-0.072266	-0.734375	0.931281	0.087272	-0.285294	-0.209064
51532		4.841795	2.746456	8.055160	-0.010985	-0.008590	-0.001833	-0.060303	-0.071777	-0.719727	0.931270	0.087250	-0.285286	-0.209128
51533		4.807096	2.760585	8.016677	-0.012823	-0.008568	0.002493	-0.059814	-0.062500	-0.724121	0.931258	0.087159	-0.285313	-0.209184
51534		4.826310	2.735310	8.084786	-0.006928	-0.009174	-0.004786	-0.055420	-0.065430	-0.727539	0.931235	0.087111	-0.285341	-0.209269
51535		4.851161	2.777550	8.045943	-0.005390	-0.009075	-0.005492	-0.061279	-0.067871	-0.730225	0.931218	0.087091	-0.285345	-0.209346
51536		4.842561	2.766254	8.044067	-0.002857	-0.005672	-0.005776	-0.060059	-0.069336	-0.727051	0.931200	0.087114	-0.285344	-0.209420
51537		4.804850	2.755874	8.075198	-0.001198	-0.007117	-0.005236	-0.054443	-0.063477	-0.724121	0.931176	0.087143	-0.285362	-0.209490
51538		4.816806	2.747660	8.071525	0.006248	-0.007279	-0.004522	-0.057129	-0.070068	-0.730957	0.931157	0.087192	-0.285377	-0.209533
51539		4.862681	2.807702	8.063867	0.001817	-0.006148	-0.007272	-0.057861	-0.067627	-0.730957	0.931139	0.087260	-0.285365	-0.209600
51540		4.876008	2.779926	8.055846	0.009707	-0.001841	-0.005989	-0.062988	-0.053955	-0.727783	0.931127	0.087382	-0.285342	-0.209635
51541		4.855244	2.779797	8.056764	0.015503	0.001487	-0.004836	-0.062988	-0.064941	-0.737549	0.931117	0.087465	-0.285338	-0.209648
51542		4.780440	2.787483	8.049513	0.015941	0.003912	-0.005250	-0.061523	-0.071777	-0.732910	0.931114	0.087636	-0.285295	-0.209649
51543		4.802336	2.771975	8.043059	0.013411	0.000510	-0.004965	-0.062012	-0.069824	-0.734375	0.931099	0.087810	-0.285279	-0.209667
51544		4.779777	2.791686	8.048451	0.009967	-0.000840	-0.001535	-0.064453	-0.075195	-0.725342	0.931091	0.087936	-0.285269	-0.209662
51545		4.819321	2.801033	8.030600	0.014589	0.001501	-0.002675	-0.065186	-0.075684	-0.725342	0.931065	0.088116	-0.285288	-0.209676
51546		4.795488	2.823252	8.021811	0.004924	-0.001517	0.001979	-0.059082	-0.071533	-0.731201	0.931045	0.088207	-0.285323	-0.209678
51547		4.825872	2.756669	8.049636	0.004064	0.001460	-0.001974	-0.058838	-0.070068	-0.724609	0.931049	0.088298	-0.285275	-0.209688
51548		4.803295	2.775280	8.055410	0.004675	-0.000474	-0.001497	-0.061035	-0.072021	-0.728516	0.931043	0.088360	-0.285258	-0.209710
51549		4.835586	2.752243	8.031947	0.005784	-0.000756	-0.000809	-0.067627	-0.069824	-0.726807	0.931036	0.088449	-0.285252	-0.209715
51550		4.809424	2.811271	8.046380	0.005784	-0.000756	-0.000809	-0.058838	-0.073975	-0.729004	0.931011	0.088504	-0.285300	-0.209736
51551		4.811379	2.791523	8.041792	0.000618	0.000110	0.001457	-0.062012	-0.071533	-0.736816	0.931019	0.088567	-0.285263	-0.209724
51552		4.811464	2.791421	8.041776	-0.000430	-0.000380	0.001394	-0.055420	-0.067871	-0.722656	0.931029	0.088609	-0.285233	-0.209704
51553		4.822646	2.782223	8.038919	-0.001532	0.001945	0.001687	-0.056641	-0.068848	-0.732666	0.931050	0.088595	-0.285163	-0.209712
51554		4.821337	2.785052	8.024659	0.001230	-0.001824	0.001935	-0.063477	-0.071777	-0.730225	0.931068	0.088621	-0.285112	-0.209688
51555		4.811719	2.790951	8.041787	-0.002224	-0.001481	-0.002354	-0.060303	-0.065918	-0.728271	0.931056	0.088641	-0.285121	-0.209721
51556		4.833919	2.790149	8.054397	0.001291	-0.002596	0.002559	-0.057861	-0.066650	-0.729492	0.931060	0.088620	-0.285118	-0.209716
51557		4.820741	2.788003	8.009927	0.002217	-0.000563	0.001374	-0.053467	-0.070068	-0.732178	0.931075	0.088625	-0.285075	-0.209707
51558		4.793364	2.785442	8.057192	-0.004064	-0.001459	0.001975	-0.061279	-0.070801	-0.728027	0.931107	0.088628	-0.284985	-0.209688
51559		4.806754	2.755693	8.049867	-0.002398	-0.000860	0.003495	-0.061768	-0.070068	-0.730469	0.931110	0.088624	-0.284983	-0.209678
51560		4.797255	2.761215	8.067058	-0.000308	-0.001923	0.002642	-0.057617	-0.065918	-0.730957	0.931110	0.088629	-0.284990	-0.209664
51561		4.784053	2.775674	8.041180	-0.003277	-0.007751	0.003344	-0.061035	-0.065918	-0.732666	0.931121	0.088564	-0.284983	-0.209654
51562		4.785272	2.774464	8.040872	-0.009489	-0.007374	0.005548	-0.068848	-0.069580	-0.727539	0.931132	0.088439	-0.284995	-0.209643
51563		4.787065	2.755608	8.021997	-0.011223	-0.009244	0.002423	-0.061768	-0.072754	-0.722900	0.931095	0.088320	-0.285122	-0.209683
51564		4.834162	2.749526	8.061185	-0.008835	-0.016208	0.003707	-0.054688	-0.064697	-0.737793	0.931059	0.088258	-0.285246	-0.209701
51565		4.814332	2.749116	8.047587	-0.005941	-0.013695	0.000420	-0.062988	-0.067139	-0.728271	0.931076	0.088169	-0.285214	-0.209706
51566		4.844637	2.765061	8.032296	-0.001755	-0.013779	-0.000308	-0.067383	-0.060059	-0.729248	0.931043	0.088110	-0.285316	-0.209738
51567		4.797625	2.746214	8.047063	-0.000652	-0.016103	-0.000604	-0.064941	-0.067871	-0.730225	0.930997	0.087953	-0.285472	-0.209795
51568		4.836558	2.808457	8.070172	0.002914	-0.016296	-0.002791	-0.062256	-0.062500	-0.728516	0.930946	0.087939	-0.285616	-0.209831
51569		4.787813	2.761679	8.018833	-0.001696	-0.016591	-0.000668	-0.066406	-0.065918	-0.742676	0.930916	0.087820	-0.285712	-0.209883
51570		4.791422	2.758242	8.031938	-0.004210	-0.015907	0.001581	-0.067139	-0.072266	-0.723877	0.930893	0.087718	-0.285820	-0.209882
51571		4.784119	2.763908	8.047820	0.001692	-0.020248	0.001029	-0.061279	-0.070068	-0.731445	0.930822	0.087734	-0.286043	-0.209888
51572		4.878295	2.784336	8.041258	0.003920	-0.018768	0.003381	-0.062988	-0.066650	-0.724854	0.930792	0.087755	-0.286154	-0.209861
51573		4.863601	2.758894	8.051143	0.000792	-0.016151	0.005155	-0.064941	-0.068115	-0.734619	0.930763	0.087695	-0.286271	-0.209854
51574		4.883019	2.783602	8.038645	-0.003376	-0.011981	0.007851	-0.061768	-0.061279	-0.731445	0.930755	0.087622	-0.286353	-0.209807
51575		4.833273	2.769972	8.025198	-0.001224	-0.013815	0.007615	-0.069092	-0.067627	-0.719238	0.930758	0.087474	-0.286400	-0.209794
51576		4.845191	2.763255	8.006884	-0.000664	-0.012934	0.008448	-0.066406	-0.070801	-0.730957	0.930713	0.087398	-0.286590	-0.209765
51577		4.808991	2.752021	8.037662	-0.000788	-0.011391	0.007201	-0.068359	-0.066650	-0.729248	0.930692	0.087387	-0.286703	-0.209707
51578		4.867602	2.738174	8.073133	0.003452	-0.014289	0.006107	-0.065674	-0.065674	-0.732910	0.930654	0.087336	-0.286865	-0.209676
51579		4.865359	2.747188	8.029081	0.003949	-0.012638	0.006317	-0.065186	-0.070801	-0.726562	0.930637	0.087284	-0.286960	-0.209642
51580		4.866976	2.747054	8.028147	0.001680	-0.007219	0.006289	-0.053467	-0.061768	-0.733887	0.930626	0.087308	-0.287031	-0.209585
51581		4.875970	2.760932	8.014737	0.002246	-0.004297	0.008103	-0.069092	-0.068359	-0.724854	0.930690	0.087232	-0.286864	-0.209559
51582		4.818278	2.747988	8.047584	0.002665	-0.005959	0.005727	-0.055908	-0.070068	-0.725830	0.930663	0.087214	-0.286986	-0.209519
51583		4.798867	2.762853	8.067014	0.005133	-0.011647	0.008603	-0.060791	-0.070312	-0.739014	0.930683	0.087277	-0.286958	-0.209446
51584		4.839216	2.773510	8.033866	0.007278	-0.015523	0.007384	-0.065430	-0.060791	-0.730225	0.930683	0.087333	-0.287001	-0.209361
51585		4.867428	2.732128	8.036197	0.000225	-0.015898	0.012390	-0.057617	-0.061035	-0.727051	0.930678	0.087148	-0.287103	-0.209319
51586		4.855381	2.780764	8.046621	0.005585	-0.017037	0.012957	-0.067627	-0.071533	-0.736572	0.930698	0.087036	-0.287110	-0.209271
51587		4.863806	2.719992	8.031651	0.004469	-0.018795	0.011290	-0.061279	-0.067871	-0.727539	0.930667	0.087054	-0.287286	-0.209160
51588		4.885487	2.742177	8.032696	0.006567	-0.017817	0.011410	-0.064697	-0.062256	-0.731689	0.930659	0.087054	-0.287369	-0.209080
51589		4.850507	2.714582	8.044146	0.007066	-0.016166	0.011618	-0.064697	-0.071533	-0.729248	0.930654	0.086951	-0.287464	-0.209016
51590		4.903817	2.729883	8.040563	0.002943	-0.018886	0.011998	-0.066162	-0.066895	-0.725586	0.930631	0.086968	-0.287604	-0.208917
51591		4.835092	2.809155	8.033152	0.000859	-0.017818	0.012857	-0.063721	-0.077393	-0.724365	0.930611	0.086884	-0.287748	-0.208842
51592		4.906770	2.733816	8.009129	-0.002685	-0.015575	0.016033	-0.061035	-0.064209	-0.729492	0.930601	0.086965	-0.287864	-0.208694
51593		4.856563	2.770666	8.052016	-0.006219	-0.011290	0.020192	-0.065430	-0.062256	-0.732178	0.930648	0.086793	-0.287842	-0.208587
51594		4.903494	2.732544	8.039148	-0.003838	-0.010438	0.016690	-0.063721	-0.067383	-0.732178	0.930675	0.086600	-0.287872	-0.208504
51595		4.907346	2.727384	8.052699	-0.009149	-0.014143	0.014785	-0.067871	-0.067383	-0.731445	0.930694	0.086464	-0.287908	-0.208426
51596		4.895833	2.740502	8.026285	-0.002394	-0.015694	0.012405	-0.067383	-0.062988	-0.731689	0.930682	0.086370	-0.288034	-0.208346
51597		4.874496	2.760102	8.017138	-0.003559	-0.012599	0.012083	-0.065674	-0.069092	-0.729736	0.930687	0.086200	-0.288108	-0.208291
51598		4.895580	2.763620	8.000505	-0.006258	-0.009599	0.012475	-0.076172	-0.067871	-0.723389	0.930698	0.086131	-0.288150	-0.208213
51599		4.889254	2.747491	8.013111	-0.007975	-0.005342	0.012305	-0.070557	-0.071777	-0.731689	0.930669	0.086001	-0.288341	-0.208133
51600		4.901804	2.719123	7.991392	-0.010123	-0.003504	0.012546	-0.066406	-0.067871	-0.729980	0.930676	0.085946	-0.288407	-0.208031
51601		4.882615	2.714575	7.993086	-0.009936	-0.007852	0.013426	-0.071533	-0.058594	-0.723145	0.930696	0.085832	-0.288431	-0.207955
51602		4.906103	2.711724	8.005419	-0.005466	-0.006031	0.010045	-0.068359	-0.067627	-0.726074	0.930692	0.085581	-0.288519	-0.207957
51603		4.894684	2.739533	8.012520	-0.002766	-0.009031	0.009650	-0.062988	-0.066406	-0.729736	0.930686	0.085528	-0.288600	-0.207893
51604		4.883576	2.750624	8.000733	-0.000250	-0.007682	0.008376	-0.067871	-0.067871	-0.732422	0.930709	0.085498	-0.288569	-0.207844
51605		4.889894	2.723781	8.024047	0.001480	-0.009897	0.009525	-0.070801	-0.063477	-0.725098	0.930706	0.085481	-0.288640	-0.207765
51606		4.885134	2.723443	8.068867	0.005163	-0.011642	0.008569	-0.068848	-0.065186	-0.730713	0.930679	0.085405	-0.288781	-0.207720
51607		4.930370	2.673564	8.022238	0.008216	-0.013495	0.006158	-0.062500	-0.068115	-0.725586	0.930656	0.085391	-0.288894	-0.207674
51608		4.926300	2.703712	7.982264	0.012385	-0.015632	0.004428	-0.070801	-0.064453	-0.728027	0.930643	0.085493	-0.288943	-0.207622
51609		4.945520	2.666733	8.015946	0.009908	-0.009946	0.001566	-0.067627	-0.060059	-0.718994	0.930609	0.085486	-0.289062	-0.207611
51610		4.935419	2.694289	8.036514	0.010680	-0.008423	-0.001843	-0.056885	-0.062988	-0.730957	0.930583	0.085431	-0.289120	-0.207670
51611		4.903228	2.705528	8.026030	0.008113	-0.006961	-0.000205	-0.077148	-0.065674	-0.741943	0.930622	0.085441	-0.288960	-0.207711
51612		4.913760	2.701056	8.007599	0.013263	-0.007844	-0.002499	-0.068848	-0.067627	-0.722900	0.930570	0.085460	-0.289139	-0.207689
51613		4.905250	2.692211	8.004929	0.016815	-0.008050	-0.004701	-0.063721	-0.066162	-0.732666	0.930528	0.085594	-0.289235	-0.207687
51614		4.922798	2.754548	8.029404	0.015988	-0.005852	-0.008018	-0.076416	-0.062988	-0.734619	0.930520	0.085712	-0.289193	-0.207735
51615		4.872858	2.741760	8.030345	0.015154	-0.006602	-0.005231	-0.071289	-0.071289	-0.726562	0.930466	0.085706	-0.289355	-0.207755
51616		4.876877	2.801482	8.010541	0.013944	-0.012579	-0.002393	-0.060303	-0.067139	-0.727295	0.930410	0.085853	-0.289519	-0.207715
51617		4.894186	2.785105	8.048705	0.009425	-0.011585	0.001354	-0.070312	-0.062988	-0.732422	0.930419	0.085917	-0.289469	-0.207716
51618		4.888839	2.720722	8.003989	0.011700	-0.016998	0.001369	-0.067383	-0.066895	-0.729492	0.930380	0.085870	-0.289605	-0.207722
51619		4.911468	2.741482	8.019001	0.013461	-0.015128	0.004480	-0.074219	-0.073730	-0.728760	0.930356	0.085918	-0.289700	-0.207679
51620		4.926382	2.713472	8.009835	0.008516	-0.013604	0.002537	-0.072998	-0.066895	-0.726562	0.930299	0.086035	-0.289906	-0.207596
51621		4.932761	2.751413	7.985710	0.004764	-0.011092	0.002876	-0.079102	-0.068115	-0.724365	0.930263	0.086004	-0.290045	-0.207575
51622		4.923732	2.663255	7.997247	0.006152	-0.011502	-0.000065	-0.067871	-0.067383	-0.727051	0.930192	0.085993	-0.290295	-0.207551
51623		4.934297	2.675649	7.997425	0.010562	-0.006879	-0.003097	-0.075928	-0.065918	-0.731934	0.930176	0.086056	-0.290313	-0.207568
51624		4.935831	2.789353	8.019697	0.011059	-0.005231	-0.002889	-0.064453	-0.068359	-0.730957	0.930135	0.086061	-0.290437	-0.207578
51625		4.903491	2.766279	7.972176	0.007926	-0.004648	-0.002078	-0.081543	-0.069824	-0.726807	0.930147	0.086128	-0.290369	-0.207593
51626		4.932474	2.719806	8.003935	-0.000012	-0.002041	-0.000981	-0.062744	-0.066406	-0.731201	0.930094	0.086104	-0.290563	-0.207568
51627		4.902282	2.787435	7.975912	0.004815	0.000015	0.000696	-0.065186	-0.067383	-0.731689	0.930133	0.086118	-0.290420	-0.207586
51628		4.942362	2.651530	8.033117	0.005570	-0.000508	-0.003697	-0.068115	-0.070068	-0.721436	0.930152	0.086155	-0.290323	-0.207625
51629		4.913374	2.751846	8.056235	0.011264	-0.004592	-0.007132	-0.070801	-0.067139	-0.726807	0.930127	0.086286	-0.290346	-0.207647
51630		4.915651	2.762694	7.966561	0.011954	-0.007288	-0.006040	-0.087646	-0.060791	-0.727539	0.930093	0.086343	-0.290413	-0.207683
51631		4.923823	2.761310	7.934253	0.007600	0.001233	-0.004207	-0.068848	-0.067871	-0.726074	0.930019	0.086197	-0.290659	-0.207732
51632		4.951672	2.749920	8.003614	0.005931	0.002676	-0.004734	-0.074219	-0.066650	-0.727295	0.930024	0.086244	-0.290605	-0.207765
51633		4.899187	2.675513	8.038656	0.009011	0.004903	-0.005188	-0.072510	-0.065430	-0.732422	0.930010	0.086275	-0.290621	-0.207792
51634		4.931802	2.685187	8.066171	0.015804	-0.003542	-0.009906	-0.069824	-0.069824	-0.735596	0.929974	0.086332	-0.290668	-0.207866
51635		4.900151	2.804286	7.957128	0.015583	-0.008258	-0.007626	-0.073730	-0.070312	-0.733643	0.929941	0.086456	-0.290715	-0.207894
51636		4.905279	2.826112	7.914717	0.006273	-0.001161	-0.001626	-0.065674	-0.061279	-0.727783	0.929926	0.086502	-0.290760	-0.207878
51637		4.872302	2.726705	8.018150	-0.002484	0.004775	0.004224	-0.067383	-0.062744	-0.730225	0.929975	0.086346	-0.290608	-0.207937
51638		4.905806	2.671056	8.093041	0.008069	-0.006178	-0.000834	-0.067627	-0.064209	-0.728516	0.929974	0.086286	-0.290584	-0.208000
51639		4.940180	2.726390	8.053836	0.017238	-0.016718	-0.002952	-0.072510	-0.067627	-0.724609	0.929935	0.086312	-0.290668	-0.208049
51640		4.969001	2.776810	7.938364	0.016202	-0.015162	-0.002030	-0.069336	-0.064697	-0.728271	0.929880	0.086382	-0.290829	-0.208037
51641		4.969285	2.904299	7.843234	-0.000260	0.002174	0.004600	-0.066895	-0.064697	-0.731445	0.929907	0.086287	-0.290764	-0.208049
51642		4.940445	2.714419	8.019144	-0.010945	0.019639	0.003285	-0.069580	-0.066162	-0.721680	0.929990	0.086147	-0.290504	-0.208100
51643		4.888587	2.589411	8.135518	0.005740	0.007019	-0.005626	-0.075439	-0.070801	-0.731934	0.929999	0.086175	-0.290434	-0.208142
51644		4.910977	2.732049	8.086086	0.021524	-0.005581	-0.012367	-0.059570	-0.063965	-0.723389	0.929937	0.086369	-0.290566	-0.208154
51645		4.974244	2.859931	7.877617	0.020344	-0.007467	-0.007559	-0.064697	-0.067139	-0.726562	0.929935	0.086467	-0.290469	-0.208260
51646		4.923614	2.846427	7.879382	0.003934	0.007059	-0.001292	-0.066895	-0.074219	-0.733154	0.929972	0.086483	-0.290318	-0.208300
51647		4.892665	2.724167	7.993663	-0.001624	0.014582	-0.001745	-0.066406	-0.068115	-0.724121	0.930019	0.086578	-0.290142	-0.208294
51648		4.894153	2.673023	8.088800	0.006656	0.009041	-0.006821	-0.069580	-0.060059	-0.731445	0.930040	0.086648	-0.290018	-0.208345
51649		4.907671	2.678085	8.132325	0.021041	-0.007224	-0.012572	-0.070312	-0.066650	-0.725098	0.929999	0.086656	-0.290053	-0.208474
51650		4.934426	2.856281	7.922799	0.022221	-0.010310	-0.012252	-0.062256	-0.062988	-0.723877	0.929942	0.086786	-0.290154	-0.208536
51651		4.935674	2.884495	7.852008	0.005266	0.009456	-0.003884	-0.070557	-0.065674	-0.729980	0.929986	0.086755	-0.289950	-0.208634
51652		4.912101	2.712895	8.001209	-0.009346	0.023936	-0.001963	-0.063477	-0.076904	-0.721436	0.930053	0.086649	-0.289734	-0.208683
51653		4.839711	2.680781	8.124284	0.001158	0.013756	-0.007638	-0.064453	-0.066162	-0.729980	0.930088	0.086846	-0.289557	-0.208688
51654		4.919166	2.694474	8.102788	0.018340	-0.004225	-0.012174	-0.069580	-0.072510	-0.732666	0.930066	0.086953	-0.289519	-0.208794
51655		4.932158	2.778486	7.980644	0.026972	-0.013595	-0.014132	-0.064941	-0.065918	-0.723389	0.929992	0.087201	-0.289655	-0.208832
51656		4.934546	2.947557	7.847825	0.003440	0.005414	-0.001503	-0.076904	-0.067139	-0.727539	0.930020	0.087180	-0.289541	-0.208874
51657		4.861066	2.742840	7.980870	-0.011442	0.024999	-0.001106	-0.063965	-0.069824	-0.724609	0.930069	0.087065	-0.289421	-0.208869
51658		4.845566	2.662094	8.103432	-0.005736	0.018880	-0.005516	-0.062256	-0.077393	-0.730225	0.930128	0.087077	-0.289184	-0.208929
51659		4.864257	2.665080	8.102480	0.008177	0.003015	-0.010478	-0.063232	-0.061035	-0.728516	0.930131	0.087300	-0.289081	-0.208966
51660		4.927927	2.795203	8.030327	0.021974	-0.007230	-0.014734	-0.074951	-0.068359	-0.726074	0.930101	0.087350	-0.289053	-0.209117
51661		4.969764	2.936915	7.842795	0.004693	0.004494	-0.006671	-0.069580	-0.061279	-0.729492	0.930083	0.087362	-0.289101	-0.209127
51662		4.897425	2.792359	7.942938	-0.014930	0.026477	0.002692	-0.064941	-0.068115	-0.731201	0.930170	0.087130	-0.288850	-0.209182
51663		4.878211	2.733786	8.056092	-0.010875	0.025884	-0.000292	-0.069824	-0.075195	-0.723633	0.930256	0.087059	-0.288565	-0.209225
51664		4.870983	2.632910	8.128341	-0.001545	0.016753	-0.007258	-0.069336	-0.068115	-0.729492	0.930278	0.087181	-0.288468	-0.209209
51665		4.857702	2.706645	8.084683	0.012799	0.003306	-0.012628	-0.063965	-0.068359	-0.734619	0.930256	0.087277	-0.288462	-0.209277
51666		4.941624	2.867040	7.926870	0.011531	0.000142	-0.009415	-0.069580	-0.059570	-0.729492	0.930250	0.087356	-0.288397	-0.209358
51667		4.893564	2.924185	7.943914	-0.003347	0.020879	-0.000971	-0.069092	-0.075928	-0.728516	0.930308	0.087191	-0.288217	-0.209419
51668		4.873064	2.740149	8.000854	-0.008645	0.023288	0.000078	-0.062500	-0.068359	-0.727783	0.930365	0.087252	-0.288053	-0.209366
51669		4.837305	2.640679	8.106225	0.002730	0.017947	-0.006417	-0.060303	-0.070557	-0.734619	0.930413	0.087304	-0.287839	-0.209423
51670		4.834655	2.723056	8.078122	0.014289	0.006217	-0.012989	-0.069092	-0.068848	-0.725586	0.930419	0.087466	-0.287700	-0.209520
51671		4.839734	2.806208	8.003083	0.015031	-0.001331	-0.013216	-0.062988	-0.074463	-0.726074	0.930379	0.087588	-0.287753	-0.209573
51672		4.887791	2.872670	7.920485	0.006391	0.007149	-0.004187	-0.064209	-0.070068	-0.725830	0.930395	0.087732	-0.287662	-0.209566
51673		4.853613	2.819556	7.958910	-0.002893	0.011425	0.001439	-0.052734	-0.073242	-0.730469	0.930438	0.087726	-0.287534	-0.209557
51674		4.863438	2.701173	8.070219	-0.003719	0.013611	-0.001888	-0.059814	-0.073242	-0.730225	0.930513	0.087795	-0.287233	-0.209605
51675		4.832058	2.705923	8.089661	0.010567	0.000934	-0.007864	-0.067627	-0.070801	-0.726074	0.930514	0.087948	-0.287153	-0.209646
51676		4.871171	2.733382	8.089598	0.020054	-0.005642	-0.011615	-0.071289	-0.073486	-0.734863	0.930463	0.088120	-0.287244	-0.209678
51677		4.912629	2.787315	8.018732	0.021234	-0.008728	-0.011287	-0.067139	-0.069092	-0.733643	0.930393	0.088309	-0.287401	-0.209693
51678		4.915685	2.830736	7.980175	0.017423	0.000674	-0.008659	-0.063965	-0.074951	-0.731201	0.930371	0.088422	-0.287412	-0.209726
51679		4.899294	2.805041	8.005794	0.010584	0.005025	-0.005921	-0.062988	-0.070557	-0.730713	0.930372	0.088577	-0.287358	-0.209731
51680		4.893444	2.769912	8.028980	0.011377	0.010628	-0.007393	-0.066650	-0.071533	-0.728027	0.930391	0.088689	-0.287237	-0.209765
51681		4.827783	2.708094	8.053103	0.010872	0.004889	-0.009544	-0.066162	-0.071777	-0.734375	0.930379	0.088797	-0.287216	-0.209803
51682		4.873657	2.766797	8.059004	0.017366	0.001446	-0.009286	-0.068115	-0.081543	-0.724609	0.930357	0.088944	-0.287218	-0.209833
51683		4.871151	2.818558	7.978237	0.015849	0.004279	-0.014695	-0.059326	-0.070801	-0.729004	0.930314	0.089237	-0.287258	-0.209847
51684		4.874978	2.795760	8.002120	0.014510	0.001883	-0.012102	-0.061035	-0.067139	-0.727783	0.930313	0.089373	-0.287166	-0.209921
51685		4.848416	2.821928	7.979328	0.009700	0.007979	-0.009883	-0.061035	-0.074463	-0.728760	0.930331	0.089420	-0.287036	-0.209998
51686		4.829869	2.875525	7.977277	0.001124	0.018618	-0.006363	-0.056396	-0.071777	-0.729004	0.930379	0.089509	-0.286831	-0.210028
51687		4.760162	2.771942	8.040088	-0.001895	0.015611	-0.005277	-0.074707	-0.069580	-0.735840	0.930441	0.089543	-0.286583	-0.210078
51688		4.856164	2.764168	8.073940	0.005638	0.006527	-0.007877	-0.063965	-0.073975	-0.729492	0.930416	0.089537	-0.286638	-0.210112
51689		4.869343	2.797166	8.033475	0.013605	0.001908	-0.009930	-0.064941	-0.076660	-0.730225	0.930398	0.089685	-0.286625	-0.210149
51690		4.873316	2.837094	8.009670	0.015767	-0.001964	-0.011140	-0.057373	-0.069824	-0.733398	0.930360	0.089876	-0.286664	-0.210181
51691		4.864708	2.888666	7.974492	0.011573	0.000159	-0.009416	-0.060547	-0.064453	-0.734619	0.930369	0.089957	-0.286561	-0.210249
51692		4.817354	2.806671	8.052160	0.014995	0.000616	-0.005774	-0.064453	-0.076660	-0.731689	0.930379	0.089975	-0.286489	-0.210293
51693		4.832055	2.759816	8.040072	0.014993	-0.001429	-0.006747	-0.062988	-0.063721	-0.731934	0.930352	0.090143	-0.286520	-0.210301
51694		4.858748	2.781854	8.010102	0.017384	-0.002628	-0.011234	-0.062988	-0.069092	-0.737061	0.930335	0.090172	-0.286507	-0.210378
51695		4.845404	2.814135	8.016323	0.017525	-0.000068	-0.008039	-0.062256	-0.069336	-0.724365	0.930326	0.090262	-0.286483	-0.210416
51696		4.847594	2.873977	7.996648	0.011155	-0.000211	-0.008022	-0.065918	-0.070557	-0.733887	0.930316	0.090318	-0.286460	-0.210464
51697		4.823751	2.833781	8.035381	0.009056	0.000849	-0.007159	-0.063721	-0.069824	-0.736084	0.930304	0.090355	-0.286461	-0.210502
51698		4.812625	2.826744	8.019547	0.003308	-0.001221	-0.006658	-0.068359	-0.073486	-0.726562	0.930300	0.090335	-0.286435	-0.210561
51699		4.818265	2.861370	8.010699	-0.002859	0.002472	-0.001845	-0.062256	-0.073975	-0.725586	0.930296	0.090308	-0.286454	-0.210564
51700		4.840082	2.842927	8.005343	-0.005448	0.005972	0.000760	-0.065430	-0.072021	-0.726562	0.930323	0.090282	-0.286372	-0.210569
51701		4.830598	2.767445	8.052553	-0.010993	0.005693	0.005084	-0.056396	-0.070557	-0.722900	0.930355	0.090171	-0.286319	-0.210549
51702		4.861256	2.794121	8.085513	-0.009300	-0.000998	-0.004396	-0.057861	-0.080811	-0.732910	0.930378	0.090093	-0.286209	-0.210631
51703		4.885305	2.818312	8.027930	-0.004901	-0.005416	-0.004240	-0.062012	-0.069824	-0.721436	0.930372	0.090152	-0.286172	-0.210678
51704		4.854336	2.807280	8.014005	-0.004339	-0.002484	-0.002443	-0.063477	-0.069336	-0.723633	0.930376	0.090086	-0.286153	-0.210718
51705		4.836595	2.704553	8.040575	0.000157	-0.000652	-0.005850	-0.057617	-0.076660	-0.726562	0.930371	0.090055	-0.286138	-0.210771
51706		4.858387	2.705170	8.052906	0.006126	-0.002044	-0.012545	-0.060547	-0.078125	-0.727051	0.930356	0.090184	-0.286085	-0.210855
51707		4.845568	2.859545	7.978571	0.010329	-0.004162	-0.014271	-0.057861	-0.071533	-0.736328	0.930319	0.090355	-0.286093	-0.210933
51708		4.847354	2.796662	8.039588	0.016212	-0.001575	-0.012548	-0.066895	-0.069824	-0.736816	0.930309	0.090487	-0.286031	-0.211007
51709		4.838699	2.848554	8.004179	0.014112	-0.002560	-0.012658	-0.065430	-0.071777	-0.729248	0.930273	0.090556	-0.286074	-0.211076
51710		4.860582	2.850981	8.015797	0.014114	-0.004605	-0.013630	-0.058838	-0.070557	-0.731201	0.930229	0.090657	-0.286130	-0.211152
51711		4.778358	2.844726	8.021732	0.015302	-0.001551	-0.010381	-0.060303	-0.067383	-0.734619	0.930219	0.090763	-0.286084	-0.211213
51712		4.837183	2.797241	8.034768	0.015304	-0.001549	-0.010382	-0.066162	-0.064941	-0.728271	0.930211	0.090824	-0.286043	-0.211279
51713		4.868363	2.810940	8.047626	0.014122	-0.004602	-0.013633	-0.067871	-0.067627	-0.729004	0.930175	0.090843	-0.286090	-0.211362
51714		4.900174	2.808148	8.041570	0.025200	-0.006954	-0.016157	-0.068115	-0.073730	-0.727295	0.930114	0.090976	-0.286197	-0.211431
51715		4.828434	2.857703	7.996269	0.027535	-0.001245	-0.018369	-0.065674	-0.071289	-0.731689	0.930050	0.091210	-0.286282	-0.211495
51716		4.802495	2.840786	8.038335	0.027181	-0.000334	-0.015374	-0.060059	-0.071777	-0.727295	0.930006	0.091405	-0.286320	-0.211553
51717		4.835559	2.819136	8.028091	0.030280	-0.002173	-0.017787	-0.065430	-0.075195	-0.730225	0.929963	0.091646	-0.286320	-0.211637
51718		4.842951	2.821212	7.995107	0.030152	0.001409	-0.018080	-0.062744	-0.077148	-0.731201	0.929912	0.091913	-0.286355	-0.211698
51719		4.778469	2.917213	7.988220	0.028969	0.006542	-0.017458	-0.061279	-0.073242	-0.728271	0.929880	0.092200	-0.286323	-0.211759
51720		4.790735	2.830526	8.028184	0.028550	0.006174	-0.016061	-0.052490	-0.072021	-0.731689	0.929857	0.092439	-0.286272	-0.211822
51721		4.799265	2.906822	7.994889	0.028624	0.005413	-0.015435	-0.064453	-0.079346	-0.724609	0.929859	0.092673	-0.286125	-0.211911
51722		4.833131	2.881692	7.999714	0.020270	0.004775	-0.013289	-0.057129	-0.073242	-0.731689	0.929827	0.092896	-0.286130	-0.211949
51723		4.788991	2.900663	8.006687	0.019054	0.004944	-0.007489	-0.062744	-0.079102	-0.726074	0.929836	0.093033	-0.286032	-0.211982
51724		4.793583	2.860665	8.012257	0.019685	0.003023	-0.007003	-0.058594	-0.077881	-0.725586	0.929816	0.093227	-0.286034	-0.211981
51725		4.816909	2.843392	8.020012	0.020120	0.001348	-0.009372	-0.062744	-0.073242	-0.732910	0.929799	0.093419	-0.286001	-0.212012
51726		4.820493	2.883844	7.995740	0.021176	0.001847	-0.009323	-0.064697	-0.085938	-0.726562	0.929783	0.093552	-0.285990	-0.212042
51727		4.805569	2.901567	7.969164	0.018579	0.001248	-0.008655	-0.066406	-0.076172	-0.727295	0.929743	0.093797	-0.286041	-0.212041
51728		4.806804	2.856990	8.049082	0.017957	0.001123	-0.010110	-0.057617	-0.081299	-0.726807	0.929710	0.093928	-0.286082	-0.212070
51729		4.846178	2.850287	8.012116	0.021253	0.001088	-0.008698	-0.059326	-0.074219	-0.731934	0.929693	0.094154	-0.286050	-0.212087
51730		4.843474	2.874731	8.015060	0.028378	0.001486	-0.013762	-0.052979	-0.073242	-0.728516	0.929670	0.094361	-0.286018	-0.212140
51731		4.823855	2.857581	8.011499	0.036812	0.005473	-0.013364	-0.059814	-0.074463	-0.725342	0.929667	0.094643	-0.285905	-0.212181
51732		4.863544	2.824876	8.072870	0.054432	0.007525	-0.020493	-0.058350	-0.080811	-0.728516	0.929621	0.095078	-0.285883	-0.212215
51733		4.810976	2.940175	7.991127	0.058175	0.009926	-0.019535	-0.061768	-0.073975	-0.727539	0.929576	0.095604	-0.285846	-0.212226
51734		4.802426	2.932969	8.016613	0.058631	0.010309	-0.020954	-0.062012	-0.079834	-0.719238	0.929531	0.096052	-0.285827	-0.212250
51735		4.797969	2.962241	8.018689	0.051132	0.010402	-0.021614	-0.055664	-0.082764	-0.733398	0.929479	0.096505	-0.285819	-0.212282
51736		4.807076	2.944396	7.996013	0.052008	0.013203	-0.023476	-0.062988	-0.083984	-0.724609	0.929446	0.096997	-0.285715	-0.212342
51737		4.792931	2.961914	7.997377	0.050603	0.013634	-0.020540	-0.053467	-0.073730	-0.725830	0.929398	0.097470	-0.285697	-0.212359
51738		4.753986	2.984300	7.957465	0.046467	0.010879	-0.020109	-0.057861	-0.076904	-0.724609	0.929385	0.097813	-0.285570	-0.212428
51739		4.815692	2.934000	8.013831	0.039774	0.008802	-0.017407	-0.060059	-0.080566	-0.732910	0.929362	0.098113	-0.285506	-0.212477
51740		4.826607	2.912103	8.005997	0.045801	0.013578	-0.021259	-0.057129	-0.092529	-0.729004	0.929331	0.098497	-0.285434	-0.212531
51741		4.732851	2.958357	7.976519	0.043997	0.016528	-0.023084	-0.058838	-0.079590	-0.724854	0.929294	0.099001	-0.285339	-0.212585
51742		4.768129	3.008403	7.994218	0.038365	0.012896	-0.021286	-0.052734	-0.082275	-0.722900	0.929270	0.099315	-0.285257	-0.212657
51743		4.715109	3.042332	7.928962	0.027053	0.009726	-0.015767	-0.056885	-0.082031	-0.733398	0.929266	0.099560	-0.285131	-0.212725
51744		4.784450	3.020884	7.991221	0.018793	0.005475	-0.013282	-0.053711	-0.078613	-0.731445	0.929258	0.099702	-0.285057	-0.212794
51745		4.777293	2.990206	8.000350	0.018841	0.008823	-0.010743	-0.057861	-0.084717	-0.729492	0.929273	0.099818	-0.284923	-0.212853
51746		4.797845	2.993801	8.012486	0.022671	0.004309	-0.012010	-0.052246	-0.090332	-0.738770	0.929253	0.100010	-0.284889	-0.212894
51747		4.754177	2.995403	8.000750	0.022676	0.004311	-0.012012	-0.059570	-0.090576	-0.734863	0.929239	0.100254	-0.284804	-0.212956
51748		4.786160	2.990955	8.009757	0.029472	0.005648	-0.014098	-0.052734	-0.088623	-0.723389	0.929202	0.100545	-0.284798	-0.212991
51749		4.792430	3.009700	7.995465	0.026240	0.004902	-0.014876	-0.055908	-0.092285	-0.725586	0.929178	0.100816	-0.284731	-0.213054
51750		4.758406	3.005232	7.966598	0.022625	0.005081	-0.012658	-0.057129	-0.093506	-0.728516	0.929151	0.101075	-0.284698	-0.213097
51751		4.737470	3.021957	8.000044	0.022750	0.005616	-0.010436	-0.060303	-0.083252	-0.730469	0.929125	0.101333	-0.284674	-0.213119
51752		4.769821	3.016381	8.009286	0.016037	0.001464	-0.008664	-0.059082	-0.087891	-0.731445	0.929109	0.101421	-0.284676	-0.213144
51753		4.767210	3.021938	7.994439	0.020112	0.009116	-0.007860	-0.060303	-0.082764	-0.728760	0.929104	0.101595	-0.284625	-0.213149
51754		4.799862	2.998472	7.985867	0.019825	0.005175	-0.006128	-0.060791	-0.085205	-0.725830	0.929099	0.101707	-0.284608	-0.213142
51755		4.744142	3.025888	7.995233	0.019564	0.008219	-0.008681	-0.049072	-0.091309	-0.729980	0.929090	0.101851	-0.284579	-0.213148
51756		4.747894	3.003973	8.019804	0.020823	0.006445	-0.006724	-0.060059	-0.084229	-0.730469	0.929096	0.102071	-0.284466	-0.213168
51757		4.772773	3.043879	8.007908	0.020271	0.005546	-0.007541	-0.058105	-0.087646	-0.726318	0.929088	0.102197	-0.284447	-0.213170
51758		4.730405	3.085761	7.943662	0.015655	0.004456	-0.004727	-0.063965	-0.078125	-0.739502	0.929083	0.102315	-0.284426	-0.213163
51759		4.746377	3.053331	7.965639	0.006986	0.001118	0.000773	-0.055908	-0.085449	-0.723145	0.929095	0.102237	-0.284437	-0.213132
51760		4.751311	3.028965	7.990467	0.006418	0.002273	0.000905	-0.058838	-0.091064	-0.731934	0.929109	0.102254	-0.284399	-0.213113
51761		4.761184	3.023421	7.973056	0.008191	-0.001953	0.001147	-0.047607	-0.081543	-0.733398	0.929101	0.102311	-0.284428	-0.213081
51762		4.716964	3.041910	7.965243	0.004512	-0.003075	0.001784	-0.057129	-0.091797	-0.726318	0.929130	0.102273	-0.284331	-0.213106
51763		4.749082	3.053510	7.978265	0.002791	-0.008647	0.005526	-0.062256	-0.091064	-0.726807	0.929118	0.102281	-0.284399	-0.213061
51764		4.751191	3.035314	7.959496	-0.001457	-0.008612	0.006295	-0.054932	-0.088623	-0.726074	0.929105	0.102237	-0.284503	-0.213001
51765		4.788575	3.021189	7.997668	0.001958	-0.004451	0.003104	-0.056641	-0.085693	-0.729004	0.929109	0.102229	-0.284505	-0.212984
51766		4.759069	3.025212	8.015912	0.002528	-0.005606	0.002971	-0.050537	-0.087158	-0.727539	0.929112	0.102193	-0.284522	-0.212966
51767		4.750438	3.057775	7.947201	0.002091	-0.005970	0.004380	-0.059570	-0.084229	-0.722900	0.929125	0.102175	-0.284492	-0.212959
51768		4.821886	2.973498	8.044435	0.003455	-0.003580	0.001738	-0.055420	-0.092041	-0.732666	0.929125	0.102141	-0.284524	-0.212932
51769		4.757617	3.048890	8.003577	0.008577	-0.002886	-0.001851	-0.058105	-0.082520	-0.724365	0.929114	0.102220	-0.284527	-0.212937
51770		4.796044	2.983351	7.987375	0.012642	-0.002696	-0.005485	-0.054688	-0.088379	-0.725342	0.929101	0.102262	-0.284543	-0.212952
51771		4.775288	3.060113	7.971574	0.013133	-0.001035	-0.005310	-0.052002	-0.078125	-0.725098	0.929090	0.102365	-0.284529	-0.212971
51772		4.800966	3.022472	7.976150	0.020111	0.003712	-0.011368	-0.065430	-0.088135	-0.726807	0.929091	0.102462	-0.284438	-0.213040
51773		4.751144	3.083984	7.975509	0.016618	0.002369	-0.007868	-0.057129	-0.094238	-0.734131	0.929064	0.102578	-0.284497	-0.213023
51774		4.732112	3.063871	7.972944	0.013377	0.001612	-0.008638	-0.059814	-0.088379	-0.738525	0.929044	0.102726	-0.284486	-0.213056
51775		4.757325	3.043546	7.995673	0.012518	-0.001172	-0.006765	-0.052246	-0.094727	-0.725830	0.929025	0.102799	-0.284504	-0.213079
51776		4.777432	3.048302	7.993331	0.012320	0.001107	-0.008683	-0.061768	-0.087891	-0.728271	0.929009	0.102956	-0.284462	-0.213127
51777		4.773205	2.997111	7.998758	0.021570	0.003292	-0.014329	-0.052002	-0.090332	-0.729248	0.928976	0.103125	-0.284481	-0.213167
51778		4.717389	3.102062	7.990834	0.019135	0.002456	-0.010783	-0.055664	-0.091553	-0.731445	0.928961	0.103300	-0.284424	-0.213223
51779		4.745421	3.103380	7.957071	0.012260	0.001869	-0.009326	-0.056396	-0.082520	-0.732910	0.928946	0.103416	-0.284394	-0.213270
51780		4.737449	3.091567	7.969888	0.008911	-0.003051	-0.005486	-0.041504	-0.093262	-0.723877	0.928941	0.103412	-0.284384	-0.213308
51781		4.728596	3.080981	7.968435	0.000149	-0.003576	0.000335	-0.058838	-0.084961	-0.733643	0.928958	0.103447	-0.284272	-0.213367
51782		4.764998	3.051341	7.974472	-0.005892	-0.008356	0.004221	-0.053955	-0.091553	-0.728516	0.928964	0.103312	-0.284313	-0.213353
51783		4.748878	3.042749	8.004589	-0.006833	-0.008324	0.006402	-0.056885	-0.082275	-0.730957	0.928970	0.103230	-0.284331	-0.213340
51784		4.794625	3.023790	8.011722	-0.005484	-0.003877	0.004700	-0.051514	-0.091064	-0.735107	0.928993	0.103092	-0.284316	-0.213325
51785		4.744984	3.049720	7.946886	-0.008410	-0.006377	0.008074	-0.056152	-0.093750	-0.726807	0.929013	0.102993	-0.284290	-0.213321
51786		4.713084	3.056005	7.937041	-0.018966	-0.008086	0.010175	-0.060547	-0.092773	-0.731689	0.929030	0.102826	-0.284314	-0.213295
51787		4.714331	3.069971	7.955423	-0.026191	-0.011850	0.012736	-0.056396	-0.093018	-0.722656	0.929046	0.102572	-0.284386	-0.213253
51788		4.842133	2.956947	8.043709	-0.028153	-0.016433	0.012978	-0.054443	-0.090820	-0.727539	0.929056	0.102315	-0.284464	-0.213228
51789		4.775741	3.050632	7.992769	-0.012771	-0.006879	0.006618	-0.052490	-0.086426	-0.723877	0.929071	0.102194	-0.284463	-0.213222
51790		4.801562	3.010829	7.983742	-0.006536	-0.004381	0.004652	-0.054688	-0.097168	-0.738525	0.929091	0.102106	-0.284429	-0.213222
51791		4.700266	3.056321	7.957646	-0.008720	-0.004632	0.003927	-0.053711	-0.082764	-0.736084	0.929095	0.102064	-0.284422	-0.213234
51792		4.754583	3.065840	7.983948	-0.013758	-0.008142	0.007211	-0.055664	-0.086914	-0.729492	0.929123	0.101869	-0.284398	-0.213240
51793		4.744074	3.056451	7.954357	-0.019364	-0.010495	0.010627	-0.060059	-0.085449	-0.729980	0.929145	0.101653	-0.284418	-0.213220
51794		4.774007	3.009624	7.974160	-0.023909	-0.012342	0.014084	-0.055908	-0.092773	-0.733398	0.929170	0.101374	-0.284478	-0.213165
51795		4.812237	2.992156	8.013039	-0.017441	-0.007201	0.008795	-0.062012	-0.088135	-0.733154	0.929185	0.101225	-0.284485	-0.213157
51796		4.804359	2.978466	8.012141	-0.008510	-0.006907	0.005836	-0.060791	-0.082520	-0.727051	0.929189	0.101112	-0.284543	-0.213120
51797		4.781680	3.056481	7.968476	-0.008644	-0.005387	0.004560	-0.055176	-0.093018	-0.731689	0.929202	0.100972	-0.284570	-0.213092
51798		4.791727	2.989195	7.986276	-0.010541	-0.001697	0.002100	-0.056396	-0.093262	-0.728271	0.929213	0.100911	-0.284536	-0.213117
51799		4.764313	3.030687	7.967080	-0.009415	-0.001952	0.002781	-0.065430	-0.092285	-0.730957	0.929222	0.100859	-0.284521	-0.213123
51800		4.738874	3.069328	7.962139	-0.013254	-0.006474	0.007379	-0.051514	-0.087158	-0.730225	0.929222	0.100733	-0.284607	-0.213070
51801		4.731072	3.055268	7.961366	-0.017362	-0.007956	0.009427	-0.056641	-0.084961	-0.731934	0.929250	0.100561	-0.284575	-0.213070
51802		4.733925	3.032865	7.943703	-0.035841	-0.015651	0.018167	-0.058594	-0.085693	-0.724365	0.929287	0.100186	-0.284612	-0.213034
51803		4.784128	2.943965	8.014890	-0.039837	-0.012483	0.024333	-0.055908	-0.080078	-0.719971	0.929341	0.099784	-0.284646	-0.212943
51804		4.811096	2.916525	8.024636	-0.039445	-0.013403	0.021328	-0.061768	-0.080078	-0.730225	0.929397	0.099364	-0.284656	-0.212883
51805		4.797102	2.944786	8.003157	-0.027050	-0.009718	0.015819	-0.061035	-0.090576	-0.732178	0.929434	0.099044	-0.284692	-0.212820
51806		4.749683	2.983042	7.971617	-0.026771	-0.012756	0.018359	-0.058105	-0.086670	-0.734375	0.929456	0.098789	-0.284770	-0.212740
51807		4.761074	2.929633	8.007496	-0.032183	-0.013743	0.016859	-0.061035	-0.075195	-0.726074	0.929486	0.098474	-0.284810	-0.212701
51808		4.803653	2.990958	7.955622	-0.029992	-0.013494	0.017579	-0.055908	-0.081299	-0.729492	0.929525	0.098101	-0.284857	-0.212639
51809		4.799736	2.986356	8.002007	-0.036830	-0.014053	0.019029	-0.064697	-0.080078	-0.732178	0.929570	0.097723	-0.284867	-0.212602
51810		4.845500	2.964632	7.995345	-0.034148	-0.012147	0.019930	-0.052002	-0.082764	-0.729980	0.929609	0.097344	-0.284933	-0.212519
51811		4.793328	2.906120	8.022492	-0.028075	-0.006089	0.017659	-0.061035	-0.082275	-0.737061	0.929666	0.097074	-0.284868	-0.212482
51812		4.826425	2.912597	8.036689	-0.023386	-0.009870	0.013564	-0.056641	-0.090576	-0.724609	0.929691	0.096822	-0.284902	-0.212439
51813		4.815616	2.920298	8.025339	-0.017526	-0.010571	0.012696	-0.061279	-0.081055	-0.731201	0.929703	0.096690	-0.284944	-0.212391
51814		4.814400	2.922440	7.996629	-0.013427	-0.009095	0.010653	-0.067383	-0.084473	-0.732910	0.929718	0.096522	-0.284991	-0.212341
51815		4.807828	2.923873	8.028024	-0.011013	-0.008255	0.007113	-0.058105	-0.080566	-0.728271	0.929714	0.096394	-0.285086	-0.212290
51816		4.839525	2.918192	8.008805	-0.008523	-0.010228	0.003250	-0.062012	-0.082520	-0.728027	0.929713	0.096288	-0.285119	-0.212295
51817		4.829946	2.908310	7.993116	-0.004376	-0.005414	0.003757	-0.058105	-0.078857	-0.724609	0.929714	0.096228	-0.285158	-0.212268
51818		4.813819	2.882110	8.005251	-0.006067	-0.003996	0.003216	-0.069336	-0.079834	-0.736084	0.929728	0.096145	-0.285146	-0.212261
51819		4.832953	2.904076	8.007174	-0.001965	-0.004574	0.000218	-0.057617	-0.075928	-0.724121	0.929715	0.096077	-0.285223	-0.212241
51820		4.807480	2.944726	8.002019	0.002395	-0.004096	0.001668	-0.061279	-0.080811	-0.728760	0.929723	0.096046	-0.285216	-0.212230
51821		4.795637	2.938722	7.971952	0.002387	-0.002045	0.002625	-0.063965	-0.081055	-0.727539	0.929728	0.096039	-0.285229	-0.212198
51822		4.801280	2.912945	7.996577	-0.003328	-0.002862	0.004760	-0.058350	-0.077393	-0.732422	0.929734	0.095978	-0.285261	-0.212153
51823		4.824290	2.894424	7.990846	-0.002471	-0.002128	0.001948	-0.056885	-0.075195	-0.730713	0.929749	0.095916	-0.285232	-0.212156
51824		4.820549	2.934268	7.998655	-0.004032	-0.000183	0.003632	-0.053467	-0.084473	-0.720947	0.929776	0.095831	-0.285173	-0.212153
51825		4.801713	2.928559	8.014998	-0.003045	0.001079	0.003044	-0.065186	-0.081543	-0.737305	0.929800	0.095832	-0.285107	-0.212137
51826		4.843225	2.915134	7.993346	-0.002608	-0.000605	0.000681	-0.062500	-0.075684	-0.731445	0.929802	0.095786	-0.285123	-0.212126
51827		4.790467	2.936349	8.018247	-0.004735	0.002497	0.002504	-0.062012	-0.084961	-0.729736	0.929826	0.095697	-0.285086	-0.212113
51828		4.822465	2.911743	7.995671	0.000489	0.001656	0.000185	-0.064209	-0.081299	-0.734375	0.929831	0.095714	-0.285079	-0.212093
51829		4.824382	2.864995	8.076754	0.005347	0.001738	0.000863	-0.060791	-0.077881	-0.733398	0.929834	0.095737	-0.285086	-0.212060
51830		4.827038	2.887861	8.020240	0.011490	0.002921	-0.002677	-0.057617	-0.077148	-0.728516	0.929836	0.095802	-0.285061	-0.212053
51831		4.785991	2.944492	7.989301	0.013105	0.004316	-0.001814	-0.062988	-0.078857	-0.726562	0.929848	0.095885	-0.285007	-0.212039
51832		4.778156	2.914611	7.984144	0.010497	0.003711	-0.001134	-0.060303	-0.078125	-0.730957	0.929851	0.095947	-0.284999	-0.212006
51833		4.785160	2.947217	7.988794	0.004300	-0.000812	-0.000141	-0.061768	-0.075928	-0.722168	0.929856	0.095946	-0.284991	-0.211997
51834		4.790921	2.904319	7.995234	-0.000360	-0.001128	0.002039	-0.063721	-0.077881	-0.720947	0.929866	0.095894	-0.284993	-0.211974
51835		4.817106	2.863318	8.000099	-0.001492	0.001185	0.002317	-0.061035	-0.082031	-0.727539	0.929878	0.095846	-0.284995	-0.211939
51836		4.792621	2.901230	8.009668	0.000069	-0.000761	0.000634	-0.057617	-0.089600	-0.725586	0.929883	0.095838	-0.284995	-0.211920
51837		4.792181	2.918708	8.027927	-0.002119	0.001051	0.000866	-0.057129	-0.079346	-0.727783	0.929895	0.095873	-0.284969	-0.211889
51838		4.768692	2.920823	8.001220	-0.005647	-0.001577	0.002768	-0.058105	-0.083008	-0.729004	0.929914	0.095804	-0.284934	-0.211883
51839		4.813622	2.901577	8.008308	-0.007697	-0.001287	0.004267	-0.065918	-0.082275	-0.732666	0.929934	0.095737	-0.284908	-0.211860
51840		4.793366	2.898196	8.010321	-0.004789	-0.000844	-0.000044	-0.058105	-0.074707	-0.723145	0.929933	0.095681	-0.284934	-0.211855
51841		4.806216	2.886555	8.021844	0.002050	-0.000290	-0.001499	-0.066895	-0.078613	-0.730469	0.929942	0.095658	-0.284902	-0.211867
51842		4.781803	2.924773	8.031279	-0.000360	-0.001128	0.002039	-0.053467	-0.078125	-0.729248	0.929941	0.095608	-0.284941	-0.211841
51843		4.788662	2.923126	7.985447	-0.004093	-0.001471	0.002041	-0.065186	-0.073730	-0.730225	0.929965	0.095554	-0.284879	-0.211847
51844		4.838762	2.879070	8.017071	-0.001905	-0.003284	0.001808	-0.055908	-0.073242	-0.729980	0.929965	0.095462	-0.284911	-0.211845
51845		4.790564	2.937235	8.017865	-0.002540	-0.001366	0.001314	-0.066406	-0.075195	-0.723389	0.929984	0.095387	-0.284858	-0.211865
51846		4.802566	2.910037	7.996863	-0.003465	-0.001338	0.003492	-0.067627	-0.084229	-0.725342	0.929990	0.095297	-0.284891	-0.211835
51847		4.782088	2.924364	8.016938	-0.006005	-0.002704	0.004806	-0.060303	-0.081787	-0.727295	0.929992	0.095236	-0.284953	-0.211772
51848		4.800700	2.912708	7.968357	-0.010655	-0.005069	0.006028	-0.062256	-0.076660	-0.730225	0.930006	0.095130	-0.284968	-0.211737
51849		4.795277	2.911785	8.014267	-0.011441	-0.006563	0.009472	-0.058838	-0.078369	-0.731934	0.930022	0.094969	-0.284998	-0.211698
51850		4.783589	2.920971	8.002961	-0.012639	-0.003488	0.009117	-0.058350	-0.075928	-0.730225	0.930051	0.094823	-0.284979	-0.211663
51851		4.798352	2.871408	7.978345	-0.015604	-0.005219	0.011834	-0.061035	-0.074463	-0.738037	0.930084	0.094632	-0.284964	-0.211623
51852		4.787872	2.894882	7.999824	-0.017850	-0.004692	0.010475	-0.059814	-0.079834	-0.736084	0.930114	0.094410	-0.284952	-0.211608
51853		4.778319	2.882437	7.985044	-0.024611	-0.006001	0.012560	-0.063965	-0.086182	-0.733643	0.930149	0.094167	-0.284941	-0.211574
51854		4.783123	2.872304	8.014465	-0.032913	-0.009461	0.014409	-0.060791	-0.074463	-0.730713	0.930178	0.093886	-0.284986	-0.211513
51855		4.822886	2.877284	7.982842	-0.025578	-0.009305	0.012179	-0.054688	-0.076416	-0.732666	0.930206	0.093605	-0.285000	-0.211494
51856		4.816452	2.876558	8.014947	-0.025019	-0.006359	0.013955	-0.055420	-0.083008	-0.727783	0.930253	0.093354	-0.284953	-0.211461
51857		4.828452	2.821440	8.064752	-0.020710	-0.011275	0.011890	-0.062256	-0.074219	-0.733154	0.930278	0.093177	-0.284971	-0.211406
51858		4.818581	2.871431	8.001184	-0.020285	-0.008856	0.011444	-0.059570	-0.074219	-0.731201	0.930300	0.092940	-0.284998	-0.211377
51859		4.747985	2.869988	8.009453	-0.014519	-0.013750	0.015135	-0.057617	-0.077637	-0.727295	0.930316	0.092740	-0.285060	-0.211310
51860		4.787362	2.834717	8.029025	-0.016332	-0.014899	0.011410	-0.059570	-0.074463	-0.727539	0.930327	0.092560	-0.285118	-0.211263
51861		4.834077	2.831335	8.053450	-0.010983	-0.015222	0.011313	-0.055664	-0.079590	-0.725830	0.930331	0.092401	-0.285195	-0.211211
51862		4.898384	2.818433	8.029006	-0.009436	-0.013069	0.011547	-0.061523	-0.068359	-0.734131	0.930344	0.092298	-0.285241	-0.211136
51863		4.823995	2.859155	8.044626	-0.003104	-0.012135	0.010865	-0.064453	-0.075928	-0.734619	0.930348	0.092163	-0.285305	-0.211090
51864		4.867273	2.845020	8.021923	-0.000438	-0.008201	0.012741	-0.066895	-0.070557	-0.731934	0.930355	0.092092	-0.285378	-0.210994
51865		4.864659	2.806967	8.044999	-0.004439	-0.007533	0.009257	-0.066406	-0.070068	-0.743652	0.930358	0.091966	-0.285443	-0.210945
51866		4.838911	2.831647	8.007422	-0.002260	-0.007301	0.009981	-0.067627	-0.082764	-0.724609	0.930363	0.091847	-0.285499	-0.210900
51867		4.854671	2.816302	8.032691	-0.004150	-0.007688	0.005629	-0.058594	-0.069336	-0.727539	0.930355	0.091809	-0.285593	-0.210826
51868		4.843222	2.826951	8.020813	-0.002395	-0.007824	0.007756	-0.059570	-0.075928	-0.729004	0.930368	0.091715	-0.285606	-0.210792
51869		4.822313	2.843853	8.026097	-0.003378	-0.009082	0.008339	-0.059814	-0.072998	-0.726807	0.930376	0.091647	-0.285644	-0.210735
51870		4.800046	2.863294	8.016982	-0.003236	-0.010606	0.009599	-0.061523	-0.070312	-0.724365	0.930383	0.091558	-0.285692	-0.210675
51871		4.816905	2.812385	8.005518	-0.005208	-0.009025	0.012692	-0.063232	-0.079590	-0.731201	0.930399	0.091433	-0.285736	-0.210600
51872		4.840708	2.810269	8.017559	-0.006401	-0.007996	0.011384	-0.056396	-0.065430	-0.729248	0.930410	0.091352	-0.285791	-0.210511
51873		4.820094	2.809069	8.004762	-0.002045	-0.005489	0.013793	-0.067139	-0.074707	-0.725342	0.930445	0.091234	-0.285766	-0.210444
51874		4.819752	2.827883	8.008315	-0.002463	-0.007903	0.014232	-0.066406	-0.072998	-0.728516	0.930453	0.091146	-0.285851	-0.210328
51875		4.834266	2.814905	8.019137	-0.002108	-0.008821	0.011235	-0.061279	-0.078125	-0.724609	0.930456	0.091057	-0.285930	-0.210247
51876		4.855054	2.818473	8.002297	-0.002880	-0.010315	0.014670	-0.058594	-0.074951	-0.734863	0.930470	0.090993	-0.285998	-0.210121
51877		4.868439	2.808083	7.998526	-0.001892	-0.013153	0.012158	-0.060303	-0.077393	-0.729980	0.930477	0.090917	-0.286057	-0.210041
51878		4.872396	2.804481	8.011736	0.001766	-0.014109	0.010559	-0.063477	-0.076172	-0.723145	0.930473	0.090887	-0.286147	-0.209949
51879		4.852393	2.821775	8.016410	0.001276	-0.013713	0.011331	-0.062744	-0.070801	-0.738281	0.930467	0.090844	-0.286257	-0.209847
51880		4.789870	2.836819	8.010650	-0.002235	-0.014277	0.014188	-0.066895	-0.068115	-0.742432	0.930470	0.090726	-0.286341	-0.209769
51881		4.797981	2.810059	8.033891	0.001145	-0.021218	0.013321	-0.058838	-0.078613	-0.733154	0.930446	0.090600	-0.286505	-0.209707
51882		4.877799	2.784063	8.033658	0.001712	-0.024421	0.012210	-0.059570	-0.073730	-0.734375	0.930423	0.090557	-0.286661	-0.209612
51883		4.865306	2.817881	8.009950	0.003477	-0.022509	0.015295	-0.055176	-0.067871	-0.729736	0.930410	0.090493	-0.286803	-0.209504
51884		4.900743	2.810221	8.003104	0.000739	-0.023624	0.013753	-0.065918	-0.068848	-0.731201	0.930404	0.090389	-0.286911	-0.209429
51885		4.859848	2.844973	8.013076	-0.002418	-0.023057	0.014578	-0.068359	-0.070557	-0.731689	0.930384	0.090247	-0.287079	-0.209348
51886		4.908274	2.807112	7.999579	-0.005431	-0.021964	0.017626	-0.073242	-0.071045	-0.730713	0.930370	0.090082	-0.287252	-0.209244
51887		4.883702	2.788918	8.013298	-0.005080	-0.020835	0.015592	-0.070557	-0.076172	-0.728271	0.930347	0.089923	-0.287447	-0.209149
51888		4.888939	2.766942	8.007813	-0.003113	-0.020370	0.013457	-0.062012	-0.070068	-0.734619	0.930322	0.089820	-0.287631	-0.209048
51889		4.909332	2.790749	7.993963	-0.000438	-0.020538	0.013399	-0.066895	-0.070557	-0.729248	0.930312	0.089715	-0.287750	-0.208974
51890		4.923794	2.780726	7.989298	0.000473	-0.020568	0.011220	-0.068359	-0.070068	-0.725342	0.930290	0.089622	-0.287904	-0.208903
51891		4.941040	2.747969	7.995274	0.000041	-0.011908	0.009379	-0.061523	-0.069580	-0.729980	0.930283	0.089543	-0.287998	-0.208837
51892		4.937458	2.790497	7.988162	-0.000961	-0.008231	0.004790	-0.071533	-0.073486	-0.728516	0.930290	0.089479	-0.288010	-0.208817
51893		4.870183	2.846728	7.991205	-0.000885	-0.006945	0.006383	-0.067627	-0.073486	-0.734863	0.930285	0.089421	-0.288084	-0.208763
51894		4.887958	2.793669	7.993976	-0.003974	-0.009184	0.006878	-0.062988	-0.070557	-0.732422	0.930284	0.089336	-0.288141	-0.208725
51895		4.913281	2.789552	8.020030	-0.001864	-0.008198	0.006966	-0.060059	-0.072266	-0.725342	0.930293	0.089263	-0.288160	-0.208690
51896		4.922200	2.820419	8.024432	0.000095	-0.007737	0.004833	-0.068359	-0.070801	-0.732666	0.930302	0.089230	-0.288167	-0.208651
51897		4.912434	2.793903	7.990244	-0.001105	-0.006707	0.003533	-0.065186	-0.076904	-0.732422	0.930299	0.089167	-0.288208	-0.208635
51898		4.892118	2.749324	8.043840	0.002055	-0.007275	0.002700	-0.063721	-0.072021	-0.736084	0.930294	0.089168	-0.288248	-0.208601
51899		4.899213	2.783753	8.033729	0.005289	-0.008604	0.002494	-0.061279	-0.075684	-0.725098	0.930288	0.089166	-0.288284	-0.208580
51900		4.879528	2.827021	7.968019	0.007126	-0.013596	0.003309	-0.067139	-0.074463	-0.719238	0.930273	0.089198	-0.288360	-0.208529
51901		4.889967	2.743851	7.965123	0.004876	-0.008967	0.003896	-0.066650	-0.074951	-0.725830	0.930262	0.089207	-0.288434	-0.208472
51902		4.932238	2.766327	7.978405	0.006909	-0.009267	0.002390	-0.062744	-0.067139	-0.729248	0.930247	0.089234	-0.288505	-0.208427
51903		4.901833	2.791484	8.000641	0.006270	-0.009395	0.000943	-0.069092	-0.068115	-0.731934	0.930240	0.089222	-0.288536	-0.208421
51904		4.851292	2.814381	8.024703	0.004872	-0.015103	0.000998	-0.068359	-0.073730	-0.728271	0.930209	0.089182	-0.288647	-0.208424
51905		4.878323	2.853743	7.997537	0.004193	-0.017351	0.005059	-0.066650	-0.072754	-0.726807	0.930179	0.089157	-0.288784	-0.208379
51906		4.914294	2.791268	7.950513	0.001188	-0.014211	0.009079	-0.069336	-0.067383	-0.728271	0.930170	0.089103	-0.288881	-0.208308
51907		4.939452	2.710440	7.991647	0.002360	-0.010313	0.005208	-0.067383	-0.067139	-0.722412	0.930160	0.089041	-0.288954	-0.208281
51908		4.931630	2.734774	8.026093	0.007475	-0.012467	0.001271	-0.068848	-0.068848	-0.733154	0.930137	0.089030	-0.289040	-0.208267
51909		4.963821	2.808967	7.989753	0.008870	-0.010851	-0.000718	-0.071777	-0.072998	-0.733887	0.930111	0.089038	-0.289118	-0.208271
51910		4.919007	2.813435	7.949825	0.004170	-0.008331	0.001817	-0.063965	-0.077148	-0.719971	0.930093	0.089025	-0.289194	-0.208253
51911		4.943889	2.792791	7.957496	0.000375	-0.003800	0.003139	-0.067871	-0.078613	-0.722168	0.930104	0.089030	-0.289195	-0.208197
51912		4.916282	2.758914	7.954341	-0.000264	-0.001883	0.002658	-0.068359	-0.075928	-0.722412	0.930113	0.089035	-0.289205	-0.208145
51913		4.932815	2.741774	7.994092	0.001204	-0.001028	0.001298	-0.070557	-0.062988	-0.733154	0.930119	0.089040	-0.289208	-0.208108
51914		4.912305	2.740237	7.995921	0.006018	-0.000144	-0.005151	-0.068359	-0.076416	-0.728760	0.930111	0.089020	-0.289196	-0.208171
51915		4.943812	2.752657	8.008616	0.011849	-0.002930	-0.007017	-0.067383	-0.067627	-0.731689	0.930091	0.089124	-0.289223	-0.208179
51916		4.885816	2.847360	7.941908	0.012717	-0.005079	-0.003688	-0.065674	-0.074707	-0.730957	0.930074	0.089174	-0.289250	-0.208196
51917		4.900859	2.834110	7.966803	0.002332	-0.003340	0.001003	-0.064697	-0.065430	-0.726074	0.930079	0.089176	-0.289249	-0.208174
51918		4.921204	2.759265	7.980053	0.003462	-0.003608	0.001674	-0.069580	-0.071289	-0.727539	0.930087	0.089141	-0.289236	-0.208169
51919		4.904794	2.752186	8.010156	0.005155	-0.005031	0.002196	-0.068115	-0.079346	-0.718018	0.930081	0.089137	-0.289275	-0.208144
51920		4.911021	2.728140	8.033632	0.016667	-0.011129	-0.003758	-0.072266	-0.072998	-0.731445	0.930044	0.089278	-0.289385	-0.208098
51921		4.904497	2.839195	7.962753	0.019677	-0.014268	-0.007784	-0.061279	-0.070801	-0.724365	0.929982	0.089396	-0.289528	-0.208124
51922		4.926522	2.843482	7.958997	0.006772	-0.011830	-0.000804	-0.069824	-0.075195	-0.727783	0.929971	0.089411	-0.289568	-0.208112
51923		4.933047	2.801077	7.964316	0.005799	-0.006944	0.002676	-0.068848	-0.075195	-0.733398	0.929960	0.089425	-0.289627	-0.208071
51924		4.892486	2.737525	8.001647	0.004179	-0.008326	0.001817	-0.073242	-0.071777	-0.723633	0.929948	0.089425	-0.289683	-0.208046
51925		4.917915	2.735643	8.026860	0.013664	-0.014121	-0.002633	-0.065186	-0.073486	-0.727783	0.929899	0.089480	-0.289824	-0.208047
51926		4.945052	2.818969	7.946821	0.017318	-0.015084	-0.004251	-0.067627	-0.079346	-0.725342	0.929859	0.089585	-0.289928	-0.208037
51927		4.948428	2.818386	7.959376	0.010508	-0.011505	-0.000831	-0.070801	-0.072754	-0.730713	0.929833	0.089663	-0.290018	-0.207992
51928		4.947764	2.822203	7.943984	0.007762	-0.004437	0.001499	-0.070312	-0.071289	-0.731689	0.929824	0.089681	-0.290057	-0.207969
51929		4.936725	2.772386	7.980371	0.004444	-0.006443	-0.000844	-0.079590	-0.072998	-0.723633	0.929810	0.089669	-0.290097	-0.207980
51930		4.930080	2.759760	7.992718	0.013111	-0.008869	-0.000563	-0.068359	-0.072754	-0.723145	0.929765	0.089717	-0.290234	-0.207973
51931		4.957630	2.798248	7.979681	0.015401	-0.011381	-0.006663	-0.071533	-0.074219	-0.724609	0.929725	0.089811	-0.290321	-0.207987
51932		4.948113	2.869050	7.947190	0.010698	-0.006817	-0.003159	-0.062012	-0.069336	-0.726562	0.929700	0.089869	-0.290387	-0.207985
51933		4.909513	2.828170	7.928344	0.007536	-0.004204	-0.001353	-0.064453	-0.072754	-0.728027	0.929706	0.089890	-0.290363	-0.207979
51934		4.928190	2.792093	7.963593	0.007613	-0.004962	-0.000725	-0.073975	-0.082520	-0.726807	0.929707	0.089923	-0.290365	-0.207960
51935		4.913714	2.783102	8.007776	0.006558	-0.007501	-0.001728	-0.065430	-0.069580	-0.734863	0.929680	0.089982	-0.290453	-0.207930
51936		4.913148	2.787303	7.992190	0.012886	-0.012726	-0.005343	-0.084961	-0.077637	-0.722656	0.929649	0.090030	-0.290516	-0.207962
51937		4.945136	2.862097	7.955218	0.010599	-0.012255	-0.000207	-0.072754	-0.070801	-0.730957	0.929586	0.090065	-0.290709	-0.207957
51938		4.952116	2.862193	7.908111	0.008105	-0.005358	-0.001503	-0.066162	-0.075195	-0.723389	0.929566	0.090075	-0.290755	-0.207976
51939		4.934816	2.796004	7.972596	0.002599	0.000589	-0.000697	-0.077637	-0.070312	-0.728516	0.929582	0.090090	-0.290718	-0.207952
51940		4.947194	2.708157	7.999469	0.010551	-0.003251	-0.003458	-0.073975	-0.074219	-0.725342	0.929551	0.090118	-0.290780	-0.207990
51941		4.923801	2.766745	8.026359	0.019971	-0.010329	-0.009511	-0.066406	-0.068604	-0.735596	0.929495	0.090250	-0.290893	-0.208025
51942		4.957513	2.865023	7.932646	0.023785	-0.010760	-0.008915	-0.063965	-0.069092	-0.724121	0.929451	0.090383	-0.290959	-0.208074
51943		4.962406	2.928534	7.837016	0.008212	0.002130	-0.003501	-0.070801	-0.068359	-0.724854	0.929465	0.090418	-0.290895	-0.208087
51944		4.932163	2.829376	7.957942	-0.002165	0.012106	-0.001409	-0.067383	-0.077393	-0.728027	0.929499	0.090369	-0.290776	-0.208120
51945		4.933211	2.688071	8.037522	0.006126	0.005293	-0.008129	-0.077637	-0.075684	-0.726562	0.929508	0.090442	-0.290710	-0.208143
51946		4.923845	2.756814	8.019962	0.020987	-0.004921	-0.014653	-0.062256	-0.074463	-0.724609	0.929448	0.090604	-0.290801	-0.208212
51947		4.956926	2.890618	7.962811	0.019680	-0.011382	-0.013954	-0.071289	-0.078369	-0.715332	0.929406	0.090759	-0.290852	-0.208261
51948		4.933749	2.920707	7.864349	0.011720	-0.001405	-0.008309	-0.073975	-0.074463	-0.726318	0.929387	0.090870	-0.290877	-0.208262
51949		4.961964	2.893284	7.915936	-0.003948	0.014280	-0.002565	-0.070068	-0.073242	-0.723145	0.929420	0.090838	-0.290762	-0.208289
51950		4.912630	2.829700	8.002023	-0.011185	0.015445	0.001308	-0.068359	-0.069336	-0.731201	0.929476	0.090744	-0.290608	-0.208297
51951		4.904577	2.717297	8.029156	-0.005334	0.010623	-0.001530	-0.071045	-0.068604	-0.725342	0.929512	0.090670	-0.290481	-0.208345
51952		4.924691	2.779448	7.993137	0.005232	-0.000808	-0.008834	-0.071533	-0.074463	-0.727539	0.929494	0.090672	-0.290475	-0.208433
51953		4.940097	2.885515	7.949887	0.003840	-0.000373	-0.005877	-0.065918	-0.081787	-0.724365	0.929484	0.090688	-0.290473	-0.208472
51954		4.951001	2.918307	7.894883	-0.007293	0.010164	0.000612	-0.071045	-0.076904	-0.728760	0.929534	0.090672	-0.290354	-0.208420
51955		4.927770	2.794992	7.967403	-0.019477	0.018163	0.006098	-0.072998	-0.077881	-0.720459	0.929609	0.090524	-0.290177	-0.208397
51956		4.901127	2.753774	7.995460	-0.011821	0.015315	-0.000141	-0.069092	-0.075439	-0.726562	0.929657	0.090455	-0.290050	-0.208391
51957		4.884832	2.802352	8.007532	-0.004762	0.007423	-0.002640	-0.072266	-0.071533	-0.727051	0.929683	0.090422	-0.289967	-0.208406
51958		4.941883	2.814208	7.973171	0.000520	0.003755	-0.005328	-0.076172	-0.086426	-0.723877	0.929682	0.090402	-0.289934	-0.208466
51959		4.920832	2.812492	7.975439	0.002448	0.002108	-0.001956	-0.069580	-0.082520	-0.724365	0.929681	0.090467	-0.289959	-0.208407
51960		4.920241	2.813173	7.975564	0.003763	0.004480	-0.004581	-0.072510	-0.080322	-0.725586	0.929692	0.090540	-0.289925	-0.208371
51961		4.908442	2.822902	7.978710	0.002371	0.002866	-0.002586	-0.074951	-0.075684	-0.723389	0.929696	0.090575	-0.289916	-0.208352
51962		4.907819	2.787869	7.942652	0.000181	0.006729	-0.001371	-0.067139	-0.075439	-0.722900	0.929703	0.090567	-0.289885	-0.208366
51963		4.908345	2.803424	7.975713	0.002478	0.008308	-0.005549	-0.065674	-0.073730	-0.734375	0.929725	0.090603	-0.289798	-0.208375
51964		4.927633	2.824357	7.992159	0.006367	0.005073	-0.005279	-0.069336	-0.076904	-0.718506	0.929738	0.090648	-0.289728	-0.208395
51965		4.904504	2.825869	7.980081	0.004821	0.004976	-0.004543	-0.067383	-0.071045	-0.728271	0.929746	0.090701	-0.289689	-0.208389
51966		4.895987	2.812679	7.993831	0.000672	0.006333	-0.002149	-0.069824	-0.071777	-0.728516	0.929765	0.090680	-0.289613	-0.208418
51967		4.913640	2.835590	7.996111	0.002142	0.007189	-0.003515	-0.072510	-0.083984	-0.722900	0.929777	0.090676	-0.289547	-0.208459
51968		4.920190	2.832240	7.965020	0.001652	0.007586	-0.002739	-0.071289	-0.076660	-0.725098	0.929794	0.090736	-0.289508	-0.208410
51969		4.900044	2.845378	8.000318	-0.002310	0.009532	-0.004602	-0.076904	-0.080811	-0.718262	0.929812	0.090731	-0.289431	-0.208438
51970		4.924501	2.786963	7.987455	0.000520	0.009898	-0.002449	-0.067871	-0.062012	-0.724365	0.929822	0.090761	-0.289398	-0.208428
51971		4.962064	2.812264	7.987980	0.003461	0.011611	-0.005181	-0.069824	-0.075684	-0.727051	0.929835	0.090725	-0.289284	-0.208546
51972		4.917411	2.828871	7.996857	0.001199	0.012138	-0.006521	-0.065674	-0.070801	-0.725830	0.929856	0.090752	-0.289183	-0.208580
51973		4.889626	2.835074	7.957034	0.000482	0.014811	-0.007637	-0.070801	-0.076660	-0.725342	0.929887	0.090760	-0.289034	-0.208644
51974		4.868601	2.831106	7.974488	0.003238	0.013888	-0.007073	-0.073975	-0.072754	-0.726562	0.929908	0.090813	-0.288932	-0.208670
51975		4.899384	2.763245	8.018977	0.003882	0.011975	-0.006588	-0.071533	-0.075439	-0.725830	0.929911	0.090835	-0.288861	-0.208743
51976		4.920448	2.806098	7.979381	0.006415	0.009233	-0.009835	-0.061523	-0.074219	-0.731445	0.929910	0.090901	-0.288803	-0.208801
51977		4.925916	2.839258	7.984833	0.005057	0.013820	-0.011438	-0.064941	-0.072510	-0.726074	0.929940	0.090975	-0.288646	-0.208850
51978		4.902651	2.838213	7.988155	0.000751	0.020789	-0.008391	-0.067139	-0.068848	-0.726318	0.929985	0.091006	-0.288453	-0.208903
51979		4.899486	2.838999	7.989818	0.000754	0.020791	-0.008393	-0.059570	-0.072510	-0.727783	0.930020	0.091011	-0.288270	-0.208998
51980		4.788537	2.853465	7.977044	-0.005019	0.022806	-0.005903	-0.070312	-0.074463	-0.728516	0.930090	0.091004	-0.288025	-0.209027
51981		4.892787	2.779918	8.027740	-0.000560	0.016370	-0.006728	-0.058105	-0.075928	-0.721191	0.930115	0.091014	-0.287899	-0.209084
51982		4.881517	2.829097	7.993706	0.004653	0.015514	-0.009075	-0.065918	-0.075439	-0.732422	0.930162	0.091104	-0.287726	-0.209072
51983		4.869450	2.836662	8.012134	0.001410	0.016834	-0.008871	-0.059814	-0.069092	-0.734131	0.930194	0.091145	-0.287577	-0.209123
51984		4.881856	2.864982	7.986862	-0.001836	0.020202	-0.007708	-0.059814	-0.073486	-0.728516	0.930244	0.091136	-0.287358	-0.209202
51985		4.879772	2.803509	8.037235	0.000061	0.021425	-0.010480	-0.063965	-0.072021	-0.716309	0.930296	0.091180	-0.287139	-0.209253
51986		4.880209	2.764193	8.031096	0.004859	0.020209	-0.011419	-0.070801	-0.073975	-0.719727	0.930330	0.091254	-0.286965	-0.209310
51987		4.905021	2.782419	8.017022	0.011059	0.020611	-0.014354	-0.060547	-0.072266	-0.733154	0.930338	0.091380	-0.286837	-0.209392
51988		4.805618	2.866999	7.984189	0.008112	0.018895	-0.011628	-0.062500	-0.070557	-0.728027	0.930370	0.091471	-0.286656	-0.209460
51989		4.797123	2.835188	7.994549	0.012005	0.013615	-0.012301	-0.067871	-0.072266	-0.727539	0.930378	0.091573	-0.286535	-0.209543
51990		4.811595	2.821535	8.034574	0.018238	0.002954	-0.012910	-0.068359	-0.077393	-0.730713	0.930344	0.091708	-0.286540	-0.209631
51991		4.803563	2.793422	8.028971	0.018539	-0.002130	-0.011342	-0.066406	-0.078613	-0.732178	0.930304	0.091858	-0.286590	-0.209672
51992		4.829896	2.815460	7.998188	0.018052	-0.003781	-0.011527	-0.054932	-0.074951	-0.726074	0.930266	0.092010	-0.286642	-0.209703
51993		4.822559	2.881809	7.994262	0.015096	-0.003450	-0.007840	-0.063232	-0.077637	-0.733887	0.930261	0.092132	-0.286627	-0.209692
51994		4.826291	2.861092	8.003914	0.010092	-0.002824	-0.002645	-0.059326	-0.070312	-0.728516	0.930252	0.092199	-0.286645	-0.209677
51995		4.802067	2.841607	8.046998	0.013000	-0.007309	-0.001766	-0.056641	-0.071533	-0.727539	0.930233	0.092245	-0.286680	-0.209693
51996		4.831476	2.841909	8.012160	0.012444	-0.010252	-0.003538	-0.068359	-0.079590	-0.729248	0.930213	0.092298	-0.286722	-0.209705
51997		4.855648	2.885110	7.970510	0.009276	-0.011746	-0.003661	-0.061035	-0.069824	-0.720703	0.930172	0.092350	-0.286838	-0.209702
51998		4.863882	2.858839	8.008316	0.010897	-0.010352	-0.002807	-0.064697	-0.075684	-0.731201	0.930143	0.092376	-0.286902	-0.209733
51999		4.825952	2.853236	8.025245	0.008858	-0.012106	-0.002255	-0.070801	-0.076172	-0.729736	0.930108	0.092402	-0.286996	-0.209747
52000		4.859234	2.847903	8.018912	0.007735	-0.013895	-0.003885	-0.064697	-0.072021	-0.720215	0.930055	0.092415	-0.287133	-0.209792
52001		4.851556	2.838166	8.016483	0.010345	-0.013294	-0.004581	-0.054688	-0.081787	-0.728760	0.930010	0.092443	-0.287237	-0.209834
52002		4.849762	2.845211	7.986159	0.013524	-0.013848	-0.005419	-0.057373	-0.085938	-0.721924	0.929995	0.092562	-0.287300	-0.209764
52003		4.875772	2.885989	7.958585	0.009923	-0.011603	-0.002219	-0.060791	-0.073975	-0.728516	0.929993	0.092675	-0.287361	-0.209635
52004		4.837777	2.880223	7.975658	0.007092	-0.009929	-0.003422	-0.066895	-0.074951	-0.728271	0.929972	0.092691	-0.287409	-0.209656
52005		4.859026	2.824350	8.007036	0.007093	-0.009928	-0.003422	-0.060791	-0.078857	-0.732422	0.929937	0.092702	-0.287491	-0.209695
52006		4.889984	2.839299	8.004703	0.008083	-0.010721	-0.004973	-0.066406	-0.078125	-0.726074	0.929916	0.092752	-0.287547	-0.209689
52007		4.867027	2.861469	7.994884	0.010693	-0.010120	-0.005671	-0.061035	-0.077148	-0.728027	0.929880	0.092816	-0.287634	-0.209704
52008		4.879152	2.871936	8.008796	0.008086	-0.010720	-0.004974	-0.064209	-0.076660	-0.730713	0.929857	0.092859	-0.287690	-0.209708
52009		4.880398	2.855730	7.989495	0.010832	-0.007534	-0.002495	-0.065674	-0.074707	-0.724609	0.929836	0.092912	-0.287744	-0.209706
52010		4.849555	2.863822	7.993413	0.007017	-0.007118	-0.003102	-0.062012	-0.074219	-0.719482	0.929812	0.092929	-0.287796	-0.209734
52011		4.831936	2.842777	7.990549	0.009498	-0.011151	-0.007934	-0.061523	-0.076416	-0.729980	0.929777	0.092976	-0.287862	-0.209776
52012		4.846229	2.851079	8.018402	0.013208	-0.017005	-0.004346	-0.065430	-0.076904	-0.728271	0.929734	0.093038	-0.287976	-0.209780
52013		4.895212	2.874351	7.984348	0.015265	-0.019347	-0.006816	-0.062256	-0.072998	-0.729980	0.929671	0.093115	-0.288131	-0.209812
52014		4.911921	2.845014	7.989993	0.014111	-0.012938	-0.004622	-0.064453	-0.078613	-0.731689	0.929632	0.093171	-0.288215	-0.209847
52015		4.887161	2.870031	7.965738	0.009983	-0.007446	-0.006803	-0.061523	-0.076172	-0.731201	0.929606	0.093236	-0.288261	-0.209869
52016		4.861040	2.871183	8.012764	0.010880	-0.003382	-0.007078	-0.065674	-0.075928	-0.723877	0.929593	0.093306	-0.288260	-0.209896
52017		4.852121	2.879525	8.029006	0.009081	-0.009458	-0.005575	-0.063721	-0.073975	-0.729736	0.929561	0.093345	-0.288329	-0.209930
52018		4.862774	2.857153	7.992399	0.011624	-0.010148	-0.007866	-0.062256	-0.078613	-0.722900	0.929522	0.093396	-0.288391	-0.209994
52019		4.897082	2.832588	7.982405	0.014712	-0.005842	-0.007434	-0.065674	-0.078613	-0.723145	0.929502	0.093510	-0.288423	-0.209987
52020		4.890235	2.880616	7.960029	0.012456	-0.007376	-0.009731	-0.066895	-0.077637	-0.723145	0.929467	0.093602	-0.288480	-0.210022
52021		4.880935	2.889659	7.976244	0.013275	-0.002556	-0.010641	-0.059326	-0.077881	-0.719482	0.929438	0.093703	-0.288504	-0.210072
52022		4.847202	2.919133	7.984102	0.012859	-0.002915	-0.009232	-0.068359	-0.077881	-0.716797	0.929430	0.093814	-0.288495	-0.210072
52023		4.858661	2.894507	7.962315	0.009832	-0.003877	-0.007121	-0.065186	-0.081787	-0.721436	0.929403	0.093879	-0.288537	-0.210105
52024		4.901070	2.839280	8.006628	0.008535	-0.000057	-0.008104	-0.064697	-0.083984	-0.728516	0.929397	0.093967	-0.288531	-0.210101
52025		4.882450	2.877944	7.969677	0.011233	-0.002260	-0.009129	-0.060547	-0.080078	-0.732910	0.929384	0.094082	-0.288541	-0.210089
52026		4.864996	2.872879	7.999918	0.010498	0.002457	-0.009301	-0.063965	-0.076660	-0.729248	0.929389	0.094182	-0.288488	-0.210097
52027		4.853207	2.883825	8.002456	0.008538	-0.000056	-0.008106	-0.063965	-0.085205	-0.716064	0.929378	0.094236	-0.288468	-0.210147
52028		4.869833	2.910957	7.989103	0.012449	-0.003269	-0.007827	-0.065918	-0.075684	-0.726074	0.929368	0.094369	-0.288493	-0.210098
52029		4.881199	2.886285	7.967427	0.010247	-0.001464	-0.007580	-0.062256	-0.080566	-0.729736	0.929347	0.094424	-0.288499	-0.210160
52030		4.886173	2.880931	8.009872	0.011371	0.000332	-0.005957	-0.066162	-0.078125	-0.729980	0.929347	0.094518	-0.288477	-0.210146
52031		4.886299	2.924308	7.956434	0.009688	-0.002360	-0.008392	-0.063721	-0.081055	-0.726562	0.929324	0.094579	-0.288490	-0.210202
52032		4.839412	2.922966	8.005845	0.007793	-0.003579	-0.005608	-0.064941	-0.084473	-0.732422	0.929315	0.094638	-0.288502	-0.210199
52033		4.830539	2.913270	8.004218	0.010075	-0.006139	-0.005222	-0.072998	-0.078857	-0.719971	0.929299	0.094722	-0.288543	-0.210174
52034		4.838694	2.910593	7.971878	0.006383	-0.003145	-0.002647	-0.061523	-0.078857	-0.719238	0.929269	0.094735	-0.288601	-0.210221
52035		4.870722	2.904509	7.966502	0.001928	-0.001625	0.003384	-0.061279	-0.081787	-0.725342	0.929289	0.094727	-0.288585	-0.210162
52036		4.874611	2.881942	7.976985	0.003889	0.000889	0.002186	-0.071533	-0.082275	-0.725830	0.929315	0.094754	-0.288549	-0.210084
52037		4.879928	2.916410	7.967119	0.003019	0.003015	-0.001163	-0.064453	-0.072754	-0.726807	0.929313	0.094766	-0.288546	-0.210091
52038		4.849534	2.920819	7.986625	0.000472	0.003704	0.001129	-0.066650	-0.083252	-0.727051	0.929326	0.094717	-0.288492	-0.210131
52039		4.858513	2.913899	7.969841	-0.004344	0.004903	0.002082	-0.054688	-0.071777	-0.731934	0.929355	0.094683	-0.288439	-0.210090
52040		4.872892	2.881313	7.978263	-0.004698	0.005839	0.005079	-0.060547	-0.081299	-0.726318	0.929408	0.094601	-0.288310	-0.210066
52041		4.869892	2.900861	7.982853	-0.004321	0.011093	-0.001548	-0.055664	-0.084229	-0.733398	0.929459	0.094589	-0.288176	-0.210031
52042		4.860912	2.886614	7.997456	-0.003605	0.010479	0.000531	-0.062012	-0.080811	-0.725830	0.929528	0.094599	-0.288024	-0.209932
52043		4.837043	2.904437	8.004130	-0.000141	0.009753	-0.003946	-0.061035	-0.082764	-0.726562	0.929562	0.094618	-0.287915	-0.209920
52044		4.858434	2.868692	7.981098	-0.001961	0.007777	-0.000528	-0.059326	-0.076172	-0.731445	0.929604	0.094623	-0.287818	-0.209866
52045		4.855305	2.888789	7.985565	-0.001476	0.009432	-0.000351	-0.059326	-0.079102	-0.726807	0.929647	0.094601	-0.287694	-0.209854
52046		4.846409	2.892614	8.017908	-0.003018	0.007277	-0.000564	-0.063721	-0.079102	-0.720947	0.929689	0.094581	-0.287589	-0.209824
52047		4.855293	2.927286	7.948493	-0.000329	0.007126	-0.000633	-0.071533	-0.081543	-0.729980	0.929714	0.094575	-0.287516	-0.209815
52048		4.878384	2.906061	7.958051	-0.010315	0.010461	0.004262	-0.064209	-0.082031	-0.726074	0.929745	0.094477	-0.287441	-0.209825
52049		4.896763	2.865899	8.010298	-0.003852	0.016852	0.000530	-0.070068	-0.085449	-0.723145	0.929800	0.094470	-0.287291	-0.209787
52050		4.868295	2.846898	8.041690	-0.003418	0.015162	-0.001834	-0.061035	-0.080811	-0.721924	0.929834	0.094475	-0.287188	-0.209779
52051		4.849425	2.880774	8.021029	-0.003568	0.016676	-0.003104	-0.056641	-0.076172	-0.736816	0.929889	0.094480	-0.287024	-0.209757
52052		4.834290	2.892539	8.010756	0.003948	0.013275	-0.005071	-0.063721	-0.083496	-0.725830	0.929935	0.094523	-0.286865	-0.209751
52053		4.838246	2.891556	7.965927	0.000753	0.015874	-0.003278	-0.058594	-0.078857	-0.732910	0.929978	0.094567	-0.286731	-0.209723
52054		4.850232	2.895876	8.011111	0.000744	0.017927	-0.002327	-0.060303	-0.088379	-0.731934	0.930038	0.094596	-0.286549	-0.209691
52055		4.816209	2.885019	7.999386	0.000532	0.018146	-0.005185	-0.058594	-0.078125	-0.730957	0.930098	0.094675	-0.286381	-0.209619
52056		4.787260	2.885009	8.048430	0.002759	0.012239	-0.007332	-0.064209	-0.079346	-0.731689	0.930132	0.094719	-0.286246	-0.209632
52057		4.780923	2.875561	7.987899	0.005835	0.006254	-0.005175	-0.060791	-0.085449	-0.724854	0.930137	0.094762	-0.286195	-0.209661
52058		4.829742	2.851668	8.037591	0.006778	0.002114	-0.009263	-0.063965	-0.077881	-0.727051	0.930139	0.094855	-0.286165	-0.209650
52059		4.807076	2.912956	7.990123	0.012792	0.001957	-0.007948	-0.060059	-0.075684	-0.722168	0.930121	0.094945	-0.286158	-0.209699
52060		4.808426	2.912658	8.003896	0.010342	-0.002214	-0.006929	-0.066162	-0.081055	-0.729004	0.930105	0.095006	-0.286161	-0.209739
52061		4.806535	2.916756	7.989062	0.006508	0.000242	-0.006584	-0.060791	-0.076660	-0.725586	0.930087	0.095049	-0.286170	-0.209787
52062		4.774775	2.906607	7.975697	0.003957	0.000930	-0.004297	-0.064453	-0.069092	-0.727295	0.930087	0.095061	-0.286142	-0.209819
52063		4.774306	2.925226	7.993539	0.003049	-0.001085	-0.003063	-0.061035	-0.080078	-0.723633	0.930066	0.095013	-0.286142	-0.209934
52064		4.819279	2.890040	7.981918	0.003685	-0.000942	-0.001616	-0.067383	-0.080322	-0.723633	0.930070	0.095030	-0.286135	-0.209920
52065		4.774834	2.926220	7.992859	0.002019	-0.006485	0.002124	-0.062744	-0.072266	-0.732666	0.930050	0.095002	-0.286204	-0.209927
52066		4.850183	2.921576	7.997861	-0.004915	-0.006292	0.002994	-0.062988	-0.077637	-0.731934	0.930042	0.094887	-0.286225	-0.209984
52067		4.864499	2.891367	7.991033	-0.002372	-0.005723	0.008781	-0.062988	-0.083496	-0.722900	0.930050	0.094805	-0.286257	-0.209942
52068		4.844351	2.846745	8.045783	-0.002823	-0.001184	0.004969	-0.061523	-0.084473	-0.731201	0.930070	0.094771	-0.286257	-0.209870
52069		4.863494	2.851167	8.029332	0.001284	-0.001767	0.001942	-0.058838	-0.082520	-0.727295	0.930086	0.094780	-0.286256	-0.209797
52070		4.817549	2.871631	8.008100	0.001857	-0.002920	0.001803	-0.062500	-0.081299	-0.734375	0.930103	0.094789	-0.286252	-0.209722
52071		4.818213	2.930622	7.973015	-0.002388	-0.002876	0.002608	-0.059814	-0.075195	-0.729492	0.930114	0.094746	-0.286254	-0.209690
52072		4.822331	2.906940	7.983777	-0.006506	-0.000241	0.006585	-0.065918	-0.075439	-0.728516	0.930141	0.094645	-0.286218	-0.209667
52073		4.820565	2.866566	8.022595	-0.008760	-0.001783	0.004290	-0.063965	-0.072754	-0.729004	0.930145	0.094518	-0.286218	-0.209706
52074		4.807984	2.894384	8.029262	-0.008175	-0.004987	0.003199	-0.063232	-0.081299	-0.726562	0.930141	0.094384	-0.286232	-0.209764
52075		4.850298	2.862315	7.989071	-0.004428	-0.004635	0.003169	-0.060059	-0.074707	-0.731445	0.930148	0.094325	-0.286253	-0.209729
52076		4.822918	2.863667	8.022217	0.000261	-0.008424	-0.000950	-0.060547	-0.075928	-0.731201	0.930136	0.094279	-0.286285	-0.209759
52077		4.846200	2.863719	8.033824	-0.000935	-0.009463	-0.003208	-0.065918	-0.081787	-0.723145	0.930119	0.094232	-0.286325	-0.209801
52078		4.841762	2.889428	8.008049	0.004853	-0.007352	-0.003801	-0.056396	-0.076660	-0.727051	0.930095	0.094257	-0.286392	-0.209806
52079		4.822182	2.869879	7.991439	0.002216	-0.003856	-0.001196	-0.062012	-0.078125	-0.717773	0.930105	0.094254	-0.286377	-0.209785
52080		4.827745	2.863096	8.034019	0.003771	-0.003751	-0.001935	-0.058105	-0.075439	-0.723877	0.930099	0.094264	-0.286395	-0.209782
52081		4.811911	2.880450	7.993142	0.007328	-0.007284	-0.006726	-0.064209	-0.083252	-0.733643	0.930080	0.094300	-0.286420	-0.209813
52082		4.847802	2.929584	7.981199	0.007531	-0.005449	-0.002918	-0.064941	-0.077148	-0.730225	0.930067	0.094352	-0.286464	-0.209787
52083		4.831165	2.905229	7.993553	-0.000291	0.000974	-0.003492	-0.058594	-0.074463	-0.727783	0.930064	0.094327	-0.286446	-0.209837
52084		4.834641	2.882585	8.004326	-0.000573	0.001153	0.000140	-0.057129	-0.077393	-0.726318	0.930082	0.094292	-0.286397	-0.209843
52085		4.819463	2.855019	8.031463	0.000561	0.000898	0.000811	-0.066895	-0.072266	-0.727783	0.930107	0.094282	-0.286348	-0.209804
52086		4.825314	2.871262	8.003555	0.000573	-0.001153	-0.000140	-0.062012	-0.075439	-0.721924	0.930092	0.094225	-0.286358	-0.209882
52087		4.819785	2.914544	7.996374	0.003262	-0.001302	-0.000208	-0.062744	-0.083496	-0.736328	0.930091	0.094217	-0.286354	-0.209891
52088		4.810679	2.903471	7.995380	0.001771	-0.000112	0.002118	-0.057373	-0.078125	-0.732422	0.930109	0.094226	-0.286343	-0.209824
52089		4.811050	2.885430	7.977365	-0.001416	0.000434	0.002961	-0.068604	-0.080566	-0.727295	0.930138	0.094195	-0.286296	-0.209774
52090		4.835206	2.881960	8.004210	-0.007561	-0.000742	0.006552	-0.065918	-0.078857	-0.735596	0.930149	0.094098	-0.286307	-0.209752
52091		4.814895	2.878500	8.006546	-0.002486	0.001984	0.003876	-0.063721	-0.076660	-0.717773	0.930164	0.094045	-0.286287	-0.209740
52092		4.850330	2.848462	8.012542	-0.004665	-0.000315	0.002217	-0.062012	-0.077881	-0.730469	0.930174	0.093977	-0.286275	-0.209743
52093		4.826281	2.868477	8.003971	-0.000064	-0.001295	-0.001587	-0.064209	-0.079102	-0.734863	0.930177	0.093957	-0.286263	-0.209751
52094		4.841109	2.854811	8.029632	0.000509	-0.002448	-0.001727	-0.054443	-0.071289	-0.731201	0.930174	0.093939	-0.286270	-0.209765
52095		4.823107	2.891546	7.992871	0.000024	-0.004102	-0.001903	-0.062988	-0.079834	-0.721924	0.930180	0.093898	-0.286240	-0.209796
52096		4.823521	2.891707	7.992563	0.000585	-0.003204	-0.001092	-0.061523	-0.080566	-0.724121	0.930181	0.093890	-0.286254	-0.209780
52097		4.816330	2.878060	8.005841	-0.000548	-0.002949	-0.001763	-0.057617	-0.074707	-0.728027	0.930186	0.093880	-0.286256	-0.209758
52098		4.841158	2.899008	7.961448	-0.000982	-0.001258	0.000599	-0.061523	-0.071777	-0.734619	0.930201	0.093843	-0.286223	-0.209752
52099		4.809364	2.863891	8.019173	-0.001824	-0.001977	0.003419	-0.061768	-0.080078	-0.725830	0.930207	0.093767	-0.286209	-0.209780
52100		4.806086	2.885916	8.008512	-0.004513	-0.001827	0.003487	-0.058594	-0.078857	-0.725342	0.930226	0.093713	-0.286200	-0.209732
52101		4.840140	2.858157	8.000003	-0.003952	-0.000929	0.004299	-0.065430	-0.080078	-0.728516	0.930254	0.093664	-0.286170	-0.209668
52102		4.823518	2.850332	8.030693	-0.000193	-0.002628	0.003315	-0.060059	-0.075684	-0.726807	0.930258	0.093636	-0.286191	-0.209634
52103		4.838994	2.877542	8.003510	-0.001403	-0.001617	0.002009	-0.067139	-0.079590	-0.729248	0.930271	0.093593	-0.286174	-0.209620
52104		4.831683	2.863582	8.016971	0.000076	-0.000756	0.000635	-0.060303	-0.072510	-0.729492	0.930270	0.093570	-0.286185	-0.209618
52105		4.839543	2.877571	8.003168	0.003350	-0.004110	-0.000526	-0.056885	-0.075195	-0.730225	0.930264	0.093550	-0.286192	-0.209647
52106		4.812327	2.844323	8.000135	0.006536	-0.004657	-0.001370	-0.056396	-0.082275	-0.719482	0.930265	0.093574	-0.286193	-0.209631
52107		4.831164	2.868156	8.001140	0.007863	-0.002283	-0.004014	-0.062988	-0.078613	-0.720215	0.930277	0.093658	-0.286182	-0.209553
52108		4.824027	2.855369	8.014085	0.003924	-0.005263	-0.000667	-0.065674	-0.075439	-0.725586	0.930269	0.093666	-0.286219	-0.209537
52109		4.848962	2.895246	7.987081	0.009724	-0.005203	-0.002215	-0.055420	-0.081055	-0.730957	0.930242	0.093702	-0.286271	-0.209568
52110		4.830771	2.892056	8.002562	0.011279	-0.005097	-0.002955	-0.063721	-0.074951	-0.729248	0.930248	0.093795	-0.286279	-0.209490
52111		4.831640	2.876040	7.983508	0.012351	-0.006646	-0.003872	-0.066406	-0.078857	-0.725342	0.930217	0.093852	-0.286335	-0.209524
52112		4.809470	2.854808	8.040982	0.014966	-0.006039	-0.004578	-0.063232	-0.082275	-0.721924	0.930183	0.093946	-0.286406	-0.209536
52113		4.866403	2.871967	7.990331	0.019724	-0.008530	-0.007116	-0.058105	-0.079834	-0.730713	0.930148	0.094101	-0.286491	-0.209505
52114		4.839053	2.917890	7.969652	0.016513	-0.003880	-0.004370	-0.072998	-0.076904	-0.733887	0.930142	0.094227	-0.286507	-0.209454
52115		4.807554	2.926435	7.973748	0.007868	-0.002281	-0.004019	-0.060059	-0.078857	-0.730469	0.930103	0.094243	-0.286562	-0.209546
52116		4.820705	2.898149	7.966920	0.003035	0.000966	-0.002117	-0.058105	-0.079590	-0.733398	0.930115	0.094259	-0.286527	-0.209531
52117		4.820323	2.916077	7.984977	-0.003188	0.000545	0.000846	-0.056641	-0.078857	-0.728027	0.930143	0.094224	-0.286478	-0.209491
52118		4.859518	2.786884	8.018517	0.000982	0.001258	-0.000601	-0.055908	-0.073730	-0.727539	0.930169	0.094229	-0.286424	-0.209447
52119		4.822076	2.896355	7.981260	0.007295	-0.001129	-0.003879	-0.064209	-0.082275	-0.729492	0.930173	0.094264	-0.286392	-0.209456
52120		4.840693	2.919755	7.982488	0.001148	-0.002305	-0.000280	-0.060303	-0.073975	-0.729492	0.930176	0.094262	-0.286403	-0.209428
52121		4.809103	2.926497	7.987298	0.001058	0.000502	0.000035	-0.061523	-0.076904	-0.725098	0.930185	0.094234	-0.286370	-0.209447
52122		4.822297	2.896722	7.980994	-0.005599	0.001774	0.005360	-0.063232	-0.074463	-0.730957	0.930212	0.094156	-0.286329	-0.209419
52123		4.792404	2.899731	8.000652	-0.007358	-0.000167	0.002293	-0.055176	-0.079834	-0.729736	0.930223	0.094053	-0.286301	-0.209455
52124		4.832198	2.828402	7.999381	-0.009104	-0.002897	0.006350	-0.057617	-0.079590	-0.728271	0.930263	0.093963	-0.286263	-0.209367
52125		4.830477	2.865043	8.021270	-0.008339	-0.001424	0.002893	-0.059082	-0.076172	-0.731445	0.930295	0.093884	-0.286223	-0.209318
52126		4.828974	2.866201	8.007237	-0.007357	-0.000166	0.002292	-0.060547	-0.070312	-0.729492	0.930319	0.093799	-0.286178	-0.209308
52127		4.846147	2.872287	7.976776	-0.006221	-0.000420	0.002962	-0.065918	-0.078369	-0.730713	0.930332	0.093693	-0.286141	-0.209349
52128		4.836860	2.877385	7.994382	-0.010963	0.000022	0.004548	-0.061279	-0.081055	-0.729004	0.930350	0.093572	-0.286123	-0.209350
52129		4.829239	2.862208	8.008505	-0.006463	0.003899	0.002008	-0.063721	-0.073730	-0.727051	0.930384	0.093521	-0.286062	-0.209304
52130		4.831010	2.840578	8.005438	-0.009981	0.001280	0.003947	-0.059082	-0.078369	-0.733398	0.930401	0.093397	-0.286025	-0.209332
52131		4.832660	2.837037	8.020225	-0.003760	0.001699	0.000986	-0.060303	-0.079590	-0.728271	0.930429	0.093358	-0.285973	-0.209300
52132		4.823027	2.842987	8.037730	-0.004321	0.000801	0.000175	-0.069092	-0.072021	-0.729248	0.930451	0.093319	-0.285935	-0.209270
52133		4.847502	2.863929	7.993480	0.002549	-0.000689	-0.002291	-0.069092	-0.080811	-0.732910	0.930428	0.093287	-0.285952	-0.209362
52134		4.825255	2.882183	7.998981	0.001224	-0.003061	0.000354	-0.069336	-0.076904	-0.734863	0.930418	0.093272	-0.285992	-0.209361
52135		4.836750	2.873203	7.995952	-0.000420	-0.000359	0.001411	-0.060303	-0.083252	-0.724609	0.930411	0.093229	-0.286006	-0.209390
52136		4.809129	2.839174	7.993491	0.000574	-0.001153	-0.000141	-0.067871	-0.079834	-0.730225	0.930430	0.093244	-0.285995	-0.209314
52137		4.824030	2.884526	7.984363	-0.001058	-0.000502	-0.000035	-0.062256	-0.080078	-0.723389	0.930429	0.093215	-0.286005	-0.209319
52138		4.837249	2.872938	7.995746	-0.000828	-0.002769	0.001869	-0.060791	-0.072754	-0.731445	0.930439	0.093194	-0.286012	-0.209271
52139		4.826443	2.881527	7.998501	-0.002459	-0.002118	0.001975	-0.066162	-0.078613	-0.719727	0.930446	0.093130	-0.285998	-0.209290
52140		4.821126	2.847113	8.008365	-0.002754	-0.001145	-0.001517	-0.053223	-0.073975	-0.725098	0.930444	0.093093	-0.286005	-0.209305
52141		4.845257	2.844589	8.034872	0.001147	-0.002305	-0.000282	-0.061035	-0.077881	-0.718750	0.930464	0.093084	-0.285967	-0.209272
52142		4.819529	2.867453	8.011794	-0.000561	-0.000898	-0.000811	-0.068359	-0.073975	-0.727295	0.930474	0.093069	-0.285954	-0.209252
52143		4.841779	2.867387	8.024037	0.000000	0.000000	-0.000000	-0.062988	-0.081543	-0.728516	0.930463	0.093025	-0.285962	-0.209310
52144		4.827210	2.863301	7.980297	-0.000013	0.002051	0.000952	-0.055176	-0.084229	-0.723389	0.930484	0.093026	-0.285935	-0.209252
52145		4.823254	2.826855	8.004586	0.001058	0.000502	0.000035	-0.069580	-0.081299	-0.731689	0.930523	0.093063	-0.285891	-0.209124
52146		4.835810	2.833886	8.033970	0.005085	0.000673	-0.003632	-0.070068	-0.073242	-0.730469	0.930511	0.093096	-0.285908	-0.209141
52147		4.824763	2.884847	7.983804	0.003251	0.000749	0.000741	-0.064453	-0.068115	-0.740723	0.930493	0.093068	-0.285923	-0.209208
52148		4.819033	2.850952	7.993736	0.000549	0.002949	0.001763	-0.061035	-0.076904	-0.723633	0.930493	0.093007	-0.285885	-0.209291
52149		4.807514	2.877569	8.014729	0.000359	0.000323	0.005078	-0.058594	-0.069092	-0.733887	0.930514	0.092983	-0.285867	-0.209232
52150		4.807993	2.859337	7.996704	-0.000202	-0.000575	0.004267	-0.062256	-0.078369	-0.727539	0.930525	0.092921	-0.285835	-0.209253
52151		4.806084	2.896931	8.018410	-0.002254	-0.000283	0.005783	-0.056396	-0.079834	-0.729492	0.930548	0.092876	-0.285822	-0.209190
52152		4.840075	2.869005	8.009967	-0.004802	0.000406	0.008074	-0.064209	-0.070068	-0.724121	0.930594	0.092824	-0.285776	-0.209070
52153		4.823478	2.842428	8.023134	-0.008141	0.002466	0.007649	-0.065430	-0.076416	-0.720947	0.930613	0.092697	-0.285739	-0.209094
52154		4.844235	2.825464	8.003532	-0.004954	0.001919	0.006804	-0.070557	-0.072021	-0.725830	0.930634	0.092623	-0.285721	-0.209057
52155		4.793832	2.826102	8.025288	-0.005592	0.001777	0.005358	-0.062988	-0.076172	-0.731689	0.930633	0.092518	-0.285720	-0.209109
52156		4.818176	2.804442	8.034225	-0.006496	-0.000236	0.006591	-0.054932	-0.071777	-0.723389	0.930656	0.092429	-0.285701	-0.209074
52157		4.791154	2.828416	7.997038	-0.005338	-0.004593	0.005357	-0.054199	-0.074463	-0.727783	0.930676	0.092341	-0.285683	-0.209044
52158		4.788145	2.867585	8.004368	-0.007246	-0.003760	0.009093	-0.062988	-0.073486	-0.723877	0.930713	0.092244	-0.285656	-0.208961
52159		4.774269	2.838116	8.031424	-0.009627	-0.006632	0.011700	-0.056152	-0.072754	-0.728271	0.930728	0.092100	-0.285687	-0.208915
52160		4.841175	2.802476	8.017609	-0.006784	-0.008295	0.012898	-0.055420	-0.067627	-0.722900	0.930754	0.091980	-0.285705	-0.208829
52161		4.818797	2.838849	8.026532	-0.007323	-0.013293	0.010181	-0.066162	-0.073486	-0.732422	0.930757	0.091834	-0.285756	-0.208811
52162		4.811785	2.825858	8.024963	-0.005128	-0.013047	0.010885	-0.053955	-0.074463	-0.723389	0.930746	0.091711	-0.285853	-0.208783
52163		4.751094	2.837230	8.034004	-0.008409	-0.017929	0.014723	-0.072998	-0.076660	-0.735596	0.930762	0.091571	-0.285937	-0.208656
52164		4.782667	2.833407	7.999063	-0.004418	-0.021898	0.015634	-0.061279	-0.080566	-0.733398	0.930728	0.091430	-0.286135	-0.208596
52165		4.821588	2.819731	8.021233	-0.008081	-0.022997	0.016300	-0.061768	-0.069824	-0.724854	0.930730	0.091294	-0.286288	-0.208438
52166		4.862611	2.785759	8.039551	-0.004320	-0.024699	0.015307	-0.058350	-0.075195	-0.726318	0.930705	0.091144	-0.286459	-0.208382
52167		4.892818	2.802660	8.007720	-0.001705	-0.024094	0.014598	-0.068359	-0.076904	-0.736572	0.930695	0.091045	-0.286616	-0.208251
52168		4.878334	2.837893	7.969463	-0.001700	-0.024091	0.014595	-0.068604	-0.078125	-0.724609	0.930666	0.090935	-0.286810	-0.208161
52169		4.851619	2.799107	8.040115	-0.005198	-0.018465	0.013863	-0.071045	-0.069336	-0.729736	0.930655	0.090820	-0.286959	-0.208055
52170		4.842408	2.773344	7.991034	-0.001197	-0.024484	0.013813	-0.064453	-0.075439	-0.727051	0.930606	0.090682	-0.287165	-0.208051
52171		4.885167	2.814948	8.006581	-0.000361	-0.023766	0.010992	-0.068359	-0.075684	-0.725830	0.930580	0.090598	-0.287339	-0.207963
52172		4.844381	2.832208	7.998270	0.000295	-0.025672	0.011478	-0.070312	-0.068359	-0.728760	0.930542	0.090510	-0.287546	-0.207885
52173		4.848254	2.830822	7.996414	-0.004290	-0.022629	0.016244	-0.067627	-0.073975	-0.726318	0.930506	0.090345	-0.287726	-0.207868
52174		4.883353	2.822098	7.989903	-0.005517	-0.017516	0.016852	-0.068848	-0.069580	-0.723877	0.930502	0.090210	-0.287857	-0.207765
52175		4.871494	2.792497	8.015827	-0.006078	-0.018410	0.016039	-0.068359	-0.069092	-0.727051	0.930485	0.090050	-0.287995	-0.207719
52176		4.841508	2.817603	8.023238	-0.003784	-0.023020	0.015458	-0.065186	-0.065186	-0.724609	0.930454	0.089900	-0.288169	-0.207680
52177		4.841957	2.838668	8.010758	-0.003685	-0.027869	0.014176	-0.063721	-0.070312	-0.730469	0.930410	0.089734	-0.288365	-0.207678
52178		4.868852	2.818932	8.002654	-0.003438	-0.030131	0.016068	-0.063965	-0.079834	-0.730469	0.930376	0.089585	-0.288573	-0.207606
52179		4.895763	2.781460	7.976420	-0.000831	-0.027482	0.016310	-0.069580	-0.070801	-0.731445	0.930366	0.089503	-0.288769	-0.207416
52180		4.933277	2.770860	7.983517	-0.000015	-0.022669	0.015401	-0.072754	-0.074463	-0.726562	0.930336	0.089391	-0.288946	-0.207350
52181		4.927723	2.776200	7.998919	0.001128	-0.022924	0.016063	-0.072266	-0.075684	-0.723389	0.930309	0.089301	-0.289141	-0.207239
52182		4.922046	2.764215	7.996170	0.003838	-0.023047	0.009501	-0.068359	-0.071289	-0.727539	0.930273	0.089257	-0.289335	-0.207149
52183		4.944321	2.786386	7.995556	0.002866	-0.024296	0.010098	-0.071533	-0.072754	-0.724609	0.930234	0.089184	-0.289519	-0.207098
52184		4.947597	2.786182	7.993600	0.005145	-0.018633	0.007814	-0.069336	-0.073486	-0.728760	0.930201	0.089148	-0.289673	-0.207045
52185		4.959804	2.797233	7.992631	0.001403	-0.018968	0.007862	-0.069580	-0.074951	-0.727783	0.930176	0.089087	-0.289813	-0.206990
52186		4.934206	2.763238	7.989010	0.004245	-0.012413	0.006389	-0.065674	-0.070801	-0.726318	0.930165	0.089071	-0.289907	-0.206915
52187		4.950759	2.790602	7.960881	0.000011	-0.008223	0.002652	-0.062256	-0.063965	-0.727051	0.930161	0.089024	-0.289941	-0.206906
52188		4.909203	2.806247	7.968498	0.000578	-0.007328	0.003461	-0.069580	-0.072754	-0.726318	0.930153	0.088954	-0.289953	-0.206951
52189		4.923106	2.794403	7.979371	-0.001138	-0.003869	0.003901	-0.076904	-0.072021	-0.732422	0.930159	0.088908	-0.289968	-0.206923
52190		4.927423	2.830173	7.955148	-0.005052	-0.000649	0.003646	-0.068848	-0.069336	-0.732910	0.930159	0.088822	-0.289978	-0.206950
52191		4.925361	2.789834	7.994180	-0.011167	0.004381	0.003653	-0.068359	-0.078125	-0.737549	0.930185	0.088695	-0.289905	-0.206987
52192		4.911723	2.740478	8.018452	-0.007912	0.005115	0.004380	-0.074463	-0.071045	-0.725098	0.930229	0.088631	-0.289834	-0.206916
52193		4.924555	2.728430	8.030042	0.001553	-0.001950	-0.001703	-0.072021	-0.070557	-0.726318	0.930217	0.088613	-0.289853	-0.206954
52194		4.935936	2.761199	7.974034	0.001471	-0.001195	-0.002334	-0.073730	-0.068848	-0.718994	0.930208	0.088596	-0.289857	-0.206993
52195		4.961580	2.780024	7.944001	0.000485	0.005777	-0.004385	-0.073486	-0.067627	-0.735596	0.930209	0.088585	-0.289811	-0.207058
52196		4.922970	2.753334	7.959757	0.001292	0.010584	-0.005289	-0.060059	-0.070312	-0.731689	0.930213	0.088573	-0.289723	-0.207168
52197		4.917220	2.717849	7.984754	0.003986	0.012505	-0.010892	-0.066650	-0.068359	-0.722656	0.930241	0.088627	-0.289571	-0.207233
52198		4.858083	2.820751	8.040069	0.009045	0.006980	-0.010931	-0.065674	-0.070312	-0.731689	0.930238	0.088702	-0.289499	-0.207314
52199		4.891031	2.813814	8.048621	0.014681	-0.005873	-0.007506	-0.074219	-0.070557	-0.728516	0.930208	0.088793	-0.289534	-0.207359
52200		4.893923	2.837290	7.990652	0.013631	-0.012544	-0.003930	-0.072021	-0.068115	-0.723145	0.930156	0.088852	-0.289655	-0.207401
52201		4.897107	2.818562	7.985525	0.008566	-0.009099	0.001628	-0.067871	-0.067627	-0.726074	0.930126	0.088858	-0.289736	-0.207421
52202		4.874346	2.821718	7.958118	0.001807	-0.010386	0.003802	-0.073975	-0.074707	-0.728760	0.930106	0.088803	-0.289799	-0.207443
52203		4.896228	2.764623	7.989711	0.002456	-0.010245	0.005242	-0.067139	-0.063232	-0.729004	0.930093	0.088776	-0.289888	-0.207389
52204		4.879771	2.777881	8.023042	0.004837	-0.017656	0.004330	-0.071533	-0.072510	-0.730713	0.930046	0.088708	-0.290008	-0.207462
52205		4.930682	2.820017	7.932305	0.006954	-0.016662	0.004392	-0.067383	-0.071777	-0.726807	0.930012	0.088698	-0.290142	-0.207431
52206		4.947457	2.805822	7.956843	-0.003979	-0.008373	0.006334	-0.075439	-0.075439	-0.722900	0.930016	0.088615	-0.290179	-0.207397
52207		4.951970	2.764038	7.949239	-0.005868	-0.001360	0.006468	-0.072510	-0.073486	-0.723389	0.930036	0.088545	-0.290190	-0.207322
52208		4.927889	2.759598	8.012289	-0.008973	0.004618	0.004353	-0.067383	-0.069824	-0.732666	0.930069	0.088459	-0.290136	-0.207285
52209		4.923933	2.763558	7.984116	-0.002688	0.000160	0.000084	-0.061279	-0.077393	-0.727051	0.930077	0.088403	-0.290102	-0.207323
52210		4.911169	2.792217	7.990993	-0.004402	-0.000508	0.005089	-0.061523	-0.075928	-0.727539	0.930121	0.088366	-0.290056	-0.207207
52211		4.939207	2.806964	7.975459	-0.007826	0.002313	0.004058	-0.070557	-0.073730	-0.728271	0.930169	0.088302	-0.289981	-0.207122
52212		4.951488	2.758013	7.951632	-0.012808	0.009132	0.005687	-0.074951	-0.066650	-0.726807	0.930220	0.088191	-0.289880	-0.207083
52213		4.963214	2.685626	7.998939	-0.007266	0.009382	0.001260	-0.070801	-0.067871	-0.730469	0.930238	0.088099	-0.289797	-0.207154
52214		4.939862	2.721363	8.023797	0.003164	0.007662	-0.003511	-0.064697	-0.068604	-0.729248	0.930245	0.088104	-0.289727	-0.207218
52215		4.937205	2.743064	8.027590	0.011160	0.001793	-0.007262	-0.068604	-0.067627	-0.734375	0.930238	0.088178	-0.289692	-0.207270
52216		4.910926	2.827406	7.969759	0.010027	0.000004	-0.008883	-0.069580	-0.073975	-0.731934	0.930213	0.088232	-0.289681	-0.207372
52217		4.893449	2.827207	7.911753	0.002348	0.006951	-0.000695	-0.067383	-0.067871	-0.737061	0.930238	0.088249	-0.289615	-0.207349
52218		4.927059	2.621071	8.021721	0.010421	0.006503	-0.007423	-0.069336	-0.067627	-0.732666	0.930232	0.088313	-0.289551	-0.207437
52219		4.887692	2.747948	8.077341	0.024293	-0.002129	-0.013074	-0.061768	-0.069580	-0.728516	0.930183	0.088485	-0.289581	-0.207539
52220		4.868034	2.850834	7.990031	0.029369	-0.013823	-0.009504	-0.074463	-0.069336	-0.730469	0.930125	0.088681	-0.289689	-0.207565
52221		4.899380	2.891804	7.915178	0.022280	-0.014169	-0.004333	-0.065186	-0.069580	-0.729736	0.930060	0.088800	-0.289834	-0.207602
52222		4.905809	2.850333	7.920937	0.002030	-0.000328	0.004954	-0.064697	-0.074707	-0.729248	0.930073	0.088768	-0.289812	-0.207590
52223		4.853763	2.754805	8.016001	0.006442	-0.001868	-0.001093	-0.066162	-0.072998	-0.730469	0.930080	0.088807	-0.289804	-0.207554
52224		4.865995	2.782696	8.048048	0.010137	-0.013091	-0.001031	-0.069092	-0.073242	-0.723389	0.930051	0.088844	-0.289894	-0.207543
52225		4.901456	2.798751	7.984289	0.015615	-0.018255	-0.002481	-0.066650	-0.079834	-0.719238	0.930003	0.088926	-0.290043	-0.207515
52226		4.920701	2.866496	7.916417	0.006891	-0.017947	0.002812	-0.071289	-0.065430	-0.729492	0.929989	0.088961	-0.290173	-0.207379
52227		4.931865	2.877735	7.915977	-0.001943	-0.006621	0.005772	-0.069336	-0.080566	-0.724365	0.929975	0.088863	-0.290211	-0.207433
52228		4.910083	2.758332	7.973752	-0.009050	-0.000800	0.007338	-0.078125	-0.076660	-0.725830	0.930018	0.088791	-0.290191	-0.207299
52229		4.917937	2.670424	8.047993	-0.001784	-0.004007	0.002466	-0.062256	-0.073486	-0.722412	0.930017	0.088759	-0.290235	-0.207254
52230		4.971121	2.725543	8.004655	0.010543	-0.010687	-0.001493	-0.071777	-0.071777	-0.728760	0.930004	0.088817	-0.290292	-0.207205
52231		4.957882	2.818316	7.960567	0.014299	-0.012395	-0.002505	-0.071289	-0.067627	-0.727295	0.929962	0.088884	-0.290400	-0.207215
52232		4.927188	2.849971	7.893827	0.004903	-0.004013	-0.001305	-0.076904	-0.072998	-0.730713	0.929942	0.088873	-0.290424	-0.207275
52233		4.923087	2.737165	7.934895	0.002841	0.004503	-0.002437	-0.073975	-0.068359	-0.728271	0.929943	0.088882	-0.290399	-0.207303
52234		4.926455	2.710095	8.034390	0.009133	0.000046	-0.006710	-0.072998	-0.081543	-0.730957	0.929917	0.088924	-0.290405	-0.207392
52235		4.900983	2.753626	8.028527	0.021240	-0.012586	-0.009908	-0.067139	-0.073975	-0.728027	0.929874	0.089105	-0.290526	-0.207340
52236		4.954281	2.911849	7.896134	0.016997	-0.010477	-0.008119	-0.073975	-0.073730	-0.723877	0.929836	0.089221	-0.290603	-0.207353
52237		4.934074	2.834561	7.914484	0.006848	0.000537	-0.001557	-0.068848	-0.078125	-0.725342	0.929833	0.089260	-0.290606	-0.207342
52238		4.916778	2.769344	7.980459	0.004874	0.006250	-0.003014	-0.069092	-0.077881	-0.725830	0.929860	0.089319	-0.290544	-0.207285
52239		4.886741	2.752161	8.070755	0.013961	-0.003211	-0.008651	-0.076904	-0.069092	-0.730469	0.929846	0.089443	-0.290567	-0.207262
52240		4.911558	2.758168	8.006551	0.023055	-0.014739	-0.008764	-0.072510	-0.071777	-0.730469	0.929764	0.089568	-0.290720	-0.207361
52241		4.957752	2.862063	7.940175	0.023959	-0.014781	-0.010957	-0.072998	-0.072754	-0.726807	0.929690	0.089720	-0.290857	-0.207434
52242		4.941670	2.939840	7.863774	0.005876	-0.000711	-0.000957	-0.068115	-0.078857	-0.732422	0.929684	0.089738	-0.290863	-0.207447
52243		4.925944	2.776722	7.943644	-0.002163	0.011313	-0.000817	-0.062744	-0.075684	-0.727051	0.929730	0.089740	-0.290746	-0.207402
52244		4.893237	2.701675	8.055627	0.005206	0.005309	-0.006016	-0.072754	-0.070068	-0.734619	0.929752	0.089794	-0.290666	-0.207392
52245		4.915337	2.780718	8.049982	0.016512	-0.005954	-0.011917	-0.071045	-0.067139	-0.728760	0.929698	0.089893	-0.290721	-0.207516
52246		4.902696	2.818507	7.966198	0.017426	-0.010113	-0.009534	-0.073486	-0.079346	-0.724121	0.929635	0.089979	-0.290806	-0.207639
52247		4.967877	2.945769	7.827811	0.004076	0.001449	-0.002105	-0.073242	-0.074463	-0.726074	0.929646	0.090020	-0.290796	-0.207585
52248		4.929885	2.817809	7.932125	-0.012128	0.012621	0.003194	-0.067139	-0.072510	-0.733643	0.929695	0.089918	-0.290673	-0.207583
52249		4.900478	2.795007	8.038758	-0.009769	0.015476	0.000573	-0.069092	-0.075684	-0.731445	0.929747	0.089835	-0.290507	-0.207618
52250		4.873064	2.758147	8.052180	-0.002128	0.003119	-0.004632	-0.073486	-0.081299	-0.727539	0.929759	0.089817	-0.290456	-0.207646
52251		4.930355	2.770431	8.016446	0.006545	-0.002594	-0.006949	-0.062012	-0.072021	-0.727539	0.929752	0.089889	-0.290479	-0.207612
52252		4.960303	2.826864	7.960947	0.010966	-0.006203	-0.007476	-0.067139	-0.076416	-0.726562	0.929732	0.089955	-0.290495	-0.207650
52253		4.971136	2.919249	7.869516	0.001773	0.006055	-0.001522	-0.071777	-0.075928	-0.728516	0.929760	0.089973	-0.290424	-0.207619
52254		4.908239	2.793964	7.947813	-0.008795	0.016726	-0.000034	-0.065674	-0.076660	-0.732910	0.929814	0.089918	-0.290270	-0.207617
52255		4.859787	2.749080	8.053166	-0.009434	0.014533	-0.002428	-0.071289	-0.075684	-0.724854	0.929869	0.089864	-0.290108	-0.207620
52256		4.909975	2.726600	8.028703	0.001534	0.008332	-0.009901	-0.061768	-0.065918	-0.726318	0.929879	0.089901	-0.290029	-0.207667
52257		4.891989	2.857150	8.007768	0.009865	0.005612	-0.008266	-0.059814	-0.068359	-0.728271	0.929876	0.089955	-0.289952	-0.207765
52258		4.922965	2.816348	7.966246	0.008184	-0.003245	-0.007064	-0.069580	-0.069580	-0.723145	0.929862	0.089988	-0.289935	-0.207839
52259		4.917065	2.842796	7.940900	0.006028	0.003953	-0.003313	-0.072266	-0.071777	-0.720947	0.929861	0.090012	-0.289896	-0.207885
52260		4.880812	2.813903	7.970906	0.000466	0.007815	-0.003451	-0.070068	-0.072754	-0.722412	0.929874	0.090010	-0.289829	-0.207921
52261		4.907419	2.771207	7.990662	0.001442	0.009066	-0.004056	-0.073975	-0.071533	-0.731201	0.929894	0.090023	-0.289745	-0.207945
52262		4.898999	2.776482	8.022573	0.006859	0.002612	-0.007088	-0.065918	-0.071289	-0.727051	0.929876	0.090060	-0.289731	-0.208029
52263		4.903980	2.794181	7.994331	0.009070	0.000809	-0.007349	-0.072266	-0.078857	-0.729980	0.929865	0.090117	-0.289708	-0.208085
52264		4.918344	2.881981	7.931625	0.005548	0.002305	-0.003487	-0.065186	-0.077881	-0.733643	0.929871	0.090168	-0.289692	-0.208057
52265		4.915618	2.902031	7.935878	-0.009923	0.010813	0.002918	-0.071289	-0.079834	-0.728271	0.929927	0.090094	-0.289564	-0.208016
52266		4.880638	2.773625	7.980560	-0.010171	0.013071	0.001017	-0.067383	-0.069336	-0.729980	0.929983	0.090037	-0.289440	-0.207967
52267		4.881108	2.728889	8.049256	-0.009163	0.008176	-0.002444	-0.074219	-0.077637	-0.729492	0.930004	0.089943	-0.289337	-0.208054
52268		4.952697	2.785408	8.004984	-0.000570	0.003219	-0.005386	-0.068359	-0.074951	-0.724854	0.930008	0.089948	-0.289310	-0.208070
52269		4.899769	2.831100	7.959962	-0.003766	0.005821	-0.003569	-0.071289	-0.072754	-0.730957	0.930030	0.089924	-0.289240	-0.208082
52270		4.922605	2.869386	7.934238	-0.005586	0.012077	-0.002817	-0.067871	-0.077881	-0.723877	0.930058	0.089878	-0.289128	-0.208133
52271		4.877833	2.807252	7.961124	-0.009284	0.017127	0.000728	-0.063965	-0.071533	-0.725586	0.930125	0.089835	-0.288964	-0.208079
52272		4.894255	2.769712	7.999249	-0.006661	0.015678	-0.000944	-0.061035	-0.073242	-0.731445	0.930177	0.089787	-0.288800	-0.208096
52273		4.879589	2.798611	8.006986	-0.001572	0.008117	-0.001926	-0.065186	-0.072266	-0.729248	0.930211	0.089772	-0.288693	-0.208099
52274		4.898890	2.801226	8.005300	0.001953	0.006624	-0.005786	-0.062744	-0.074951	-0.732910	0.930224	0.089787	-0.288616	-0.208142
52275		4.886574	2.811213	8.008615	0.006353	0.007115	-0.004400	-0.067871	-0.072754	-0.722656	0.930244	0.089843	-0.288536	-0.208136
52276		4.876153	2.818599	8.026310	0.000556	0.007067	-0.002820	-0.074951	-0.074219	-0.727051	0.930263	0.089846	-0.288467	-0.208146
52277		4.836178	2.776321	8.009648	0.002694	0.003967	-0.004664	-0.067383	-0.072998	-0.720215	0.930259	0.089864	-0.288447	-0.208183
52278		4.861723	2.813122	7.997461	0.002036	0.001752	-0.000574	-0.066650	-0.075928	-0.720947	0.930270	0.089867	-0.288422	-0.208168
52279		4.874472	2.801976	8.008925	0.001542	0.002150	0.000204	-0.068604	-0.072021	-0.725098	0.930290	0.089877	-0.288393	-0.208115
52280		4.883316	2.813324	8.009861	-0.000750	0.004707	-0.000172	-0.062256	-0.070801	-0.729492	0.930305	0.089854	-0.288344	-0.208127
52281		4.869869	2.765579	8.033836	-0.001223	0.001007	-0.001297	-0.061035	-0.074707	-0.725586	0.930316	0.089819	-0.288300	-0.208156
52282		4.884784	2.775403	7.988426	0.004749	-0.002500	-0.002561	-0.072021	-0.072754	-0.738525	0.930322	0.089848	-0.288290	-0.208126
52283		4.920122	2.841796	7.994430	0.005716	0.000802	-0.002214	-0.065918	-0.076172	-0.723633	0.930310	0.089864	-0.288290	-0.208173
52284		4.858528	2.817959	7.983077	0.005716	0.000802	-0.002214	-0.069580	-0.068359	-0.725830	0.930320	0.089910	-0.288274	-0.208131
52285		4.908391	2.757760	7.996273	0.004412	0.002562	-0.004145	-0.062012	-0.067383	-0.737549	0.930310	0.089915	-0.288250	-0.208209
52286		4.896542	2.845118	7.981989	0.008989	0.003618	-0.007023	-0.062500	-0.074707	-0.727051	0.930299	0.089956	-0.288197	-0.208311
52287		4.878856	2.821624	7.995032	0.005791	0.006219	-0.005211	-0.061768	-0.070312	-0.731689	0.930318	0.090011	-0.288125	-0.208304
52288		4.909057	2.815939	7.990344	0.003407	0.011578	-0.005271	-0.061523	-0.074707	-0.730225	0.930342	0.090035	-0.288003	-0.208357
52289		4.849561	2.805469	8.026490	0.005949	0.010883	-0.007574	-0.069336	-0.072510	-0.732178	0.930367	0.090102	-0.287891	-0.208371
52290		4.898138	2.804665	8.005293	0.003914	0.009130	-0.007000	-0.063721	-0.074463	-0.721680	0.930373	0.090135	-0.287814	-0.208437
52291		4.872543	2.749518	8.014386	0.008174	0.007031	-0.008783	-0.067871	-0.075684	-0.729980	0.930384	0.090221	-0.287744	-0.208447
52292		4.858166	2.780957	8.020979	0.011858	0.006084	-0.010422	-0.057861	-0.077637	-0.729736	0.930379	0.090333	-0.287699	-0.208481
52293		4.892136	2.813187	7.991339	0.013333	0.006939	-0.011806	-0.064941	-0.073730	-0.725098	0.930392	0.090475	-0.287617	-0.208474
52294		4.864458	2.856517	7.986459	0.011618	0.008344	-0.012329	-0.066162	-0.074219	-0.730957	0.930391	0.090589	-0.287545	-0.208527
52295		4.831088	2.806499	8.027044	0.008995	0.009793	-0.010662	-0.063477	-0.074463	-0.733887	0.930395	0.090679	-0.287461	-0.208586
52296		4.847922	2.813268	8.010807	0.011347	0.010588	-0.007750	-0.055420	-0.069580	-0.732178	0.930408	0.090780	-0.287369	-0.208613
52297		4.840854	2.799314	8.038978	0.009900	0.005632	-0.008267	-0.066406	-0.072754	-0.729492	0.930413	0.090848	-0.287285	-0.208677
52298		4.865650	2.819944	8.008694	0.012285	0.006444	-0.011840	-0.064209	-0.071533	-0.726318	0.930400	0.090953	-0.287235	-0.208755
52299		4.843759	2.819950	8.010976	0.010950	0.008186	-0.007290	-0.063965	-0.077148	-0.725586	0.930403	0.091039	-0.287165	-0.208802
52300		4.864611	2.821677	8.023344	0.006055	0.008085	-0.007902	-0.072998	-0.075684	-0.725830	0.930419	0.091111	-0.287088	-0.208805
52301		4.833441	2.868180	7.990094	0.003590	0.008027	-0.004965	-0.062012	-0.075439	-0.725830	0.930425	0.091146	-0.287039	-0.208832
52302		4.763532	2.866175	8.028716	0.001795	0.004014	-0.002483	-0.067627	-0.077393	-0.732910	0.930443	0.091158	-0.286984	-0.208822
52303		4.858394	2.752034	8.012715	0.006799	-0.000739	-0.003132	-0.062012	-0.070312	-0.726562	0.930437	0.091202	-0.286993	-0.208819
52304		4.845180	2.800929	8.036517	0.011480	-0.002481	-0.006324	-0.061523	-0.074707	-0.732666	0.930415	0.091265	-0.287001	-0.208876
52305		4.850754	2.818928	8.007812	0.010904	-0.001329	-0.006183	-0.063721	-0.072266	-0.728516	0.930403	0.091339	-0.286998	-0.208900
52306		4.835928	2.793905	8.034348	0.015252	-0.004176	-0.007327	-0.063721	-0.073486	-0.735840	0.930373	0.091435	-0.287031	-0.208947
52307		4.858158	2.855435	8.010259	0.012810	-0.002169	-0.009929	-0.065918	-0.071777	-0.724854	0.930344	0.091521	-0.287042	-0.209025
52308		4.822499	2.887397	8.003764	0.013724	-0.002213	-0.012121	-0.066895	-0.067871	-0.726562	0.930307	0.091620	-0.287061	-0.209117
52309		4.820749	2.815090	8.006099	0.009286	-0.002729	-0.007021	-0.068115	-0.081055	-0.728760	0.930272	0.091653	-0.287082	-0.209230
52310		4.859678	2.841932	8.004546	0.008561	-0.002124	-0.009100	-0.069580	-0.085938	-0.722412	0.930258	0.091739	-0.287102	-0.209226
52311		4.840629	2.821005	8.002957	0.005524	0.003083	-0.010614	-0.063232	-0.071045	-0.733887	0.930266	0.091838	-0.287082	-0.209175
52312		4.871416	2.834173	8.015542	0.008883	0.001035	-0.010203	-0.066650	-0.074951	-0.722900	0.930243	0.091890	-0.287059	-0.209288
52313		4.859451	2.921872	8.000618	0.006348	-0.000324	-0.008848	-0.059082	-0.083252	-0.725342	0.930227	0.091939	-0.287056	-0.209340
52314		4.888711	2.900265	7.963439	-0.000853	0.007511	0.000126	-0.058594	-0.074463	-0.726807	0.930278	0.091960	-0.286964	-0.209231
52315		4.895373	2.795715	8.021209	-0.003484	0.008956	0.001793	-0.072021	-0.071289	-0.728760	0.930320	0.091923	-0.286855	-0.209209
52316		4.931588	2.728139	8.006323	0.003723	0.010628	-0.001809	-0.061279	-0.070068	-0.726318	0.930326	0.091931	-0.286785	-0.209275
52317		4.832998	2.846327	8.008146	0.009136	0.008286	-0.002923	-0.056885	-0.071777	-0.730469	0.930336	0.091983	-0.286708	-0.209314
52318		4.887583	2.803361	7.993980	0.015352	0.010757	-0.004971	-0.061768	-0.078613	-0.729736	0.930351	0.092097	-0.286607	-0.209334
52319		4.807670	2.810540	8.049270	0.024381	0.008228	-0.008360	-0.057861	-0.072021	-0.731689	0.930353	0.092310	-0.286557	-0.209300
52320		4.789740	2.772369	8.043631	0.032559	0.003702	-0.016994	-0.062500	-0.073975	-0.731201	0.930315	0.092572	-0.286535	-0.209385
52321		4.799729	2.864376	8.039384	0.034768	-0.005549	-0.021670	-0.056152	-0.081055	-0.722900	0.930241	0.092851	-0.286601	-0.209502
52322		4.801494	2.890944	7.980521	0.031742	-0.006506	-0.019540	-0.067383	-0.078613	-0.712891	0.930195	0.093135	-0.286653	-0.209504
52323		4.791756	2.921006	8.013740	0.026477	-0.003614	-0.016212	-0.063232	-0.076904	-0.734131	0.930149	0.093368	-0.286713	-0.209526
52324		4.819746	2.864490	8.014049	0.022512	-0.002475	-0.010942	-0.057373	-0.079834	-0.727295	0.930111	0.093537	-0.286744	-0.209576
52325		4.820366	2.810108	8.047799	0.025661	-0.013828	-0.018746	-0.069824	-0.077148	-0.723633	0.930047	0.093747	-0.286845	-0.209629
52326		4.839850	2.878626	7.993159	0.027329	-0.016522	-0.019806	-0.070801	-0.069824	-0.725830	0.929949	0.093953	-0.287009	-0.209745
52327		4.818408	2.901421	7.996475	0.022393	-0.012531	-0.018530	-0.057373	-0.077881	-0.721191	0.929851	0.094091	-0.287135	-0.209947
52328		4.822893	2.883209	8.005439	0.023087	-0.009019	-0.014567	-0.068359	-0.081055	-0.733398	0.929805	0.094274	-0.287197	-0.209985
52329		4.849234	2.905282	7.973454	0.018870	-0.005629	-0.011208	-0.054688	-0.079346	-0.727783	0.929760	0.094418	-0.287261	-0.210028
52330		4.843764	2.874721	7.982657	0.018108	-0.000923	-0.011405	-0.067627	-0.079346	-0.722656	0.929746	0.094569	-0.287245	-0.210045
52331		4.817222	2.899885	7.958829	0.013633	0.000612	-0.005351	-0.066162	-0.075684	-0.724854	0.929732	0.094670	-0.287255	-0.210047
52332		4.816966	2.861196	8.011863	0.007498	0.001484	-0.007257	-0.063232	-0.076416	-0.721924	0.929716	0.094713	-0.287241	-0.210121
52333		4.813880	2.959796	7.997128	0.005938	0.001377	-0.006505	-0.058105	-0.080566	-0.730713	0.929708	0.094749	-0.287216	-0.210170
52334		4.824766	2.951582	7.994234	0.000979	0.001256	-0.000613	-0.061768	-0.082031	-0.721436	0.929727	0.094744	-0.287173	-0.210151
52335		4.797014	2.916976	7.992756	-0.006266	0.001624	0.003950	-0.057617	-0.079834	-0.721680	0.929761	0.094684	-0.287130	-0.210083
52336		4.818022	2.841533	8.008798	-0.004622	0.000981	0.003836	-0.062744	-0.080078	-0.729980	0.929795	0.094630	-0.287082	-0.210026
52337		4.849722	2.852520	8.021570	-0.000897	-0.002007	0.001252	-0.060547	-0.080078	-0.731689	0.929803	0.094597	-0.287077	-0.210012
52338		4.825557	2.912781	7.959383	-0.003458	-0.001317	0.003559	-0.066162	-0.078369	-0.729248	0.929822	0.094541	-0.287056	-0.209982
52339		4.820405	2.895963	7.987665	-0.007224	-0.001685	0.003621	-0.057617	-0.070557	-0.730957	0.929832	0.094447	-0.287050	-0.209989
52340		4.802418	2.872148	7.986629	-0.005081	-0.002727	0.002730	-0.061279	-0.074219	-0.725098	0.929834	0.094342	-0.287026	-0.210060
52341		4.823235	2.891432	8.002266	-0.008702	-0.002542	0.005011	-0.074219	-0.076172	-0.735107	0.929847	0.094222	-0.287009	-0.210079
52342		4.868811	2.854441	7.990941	-0.003355	-0.004121	0.003255	-0.062012	-0.073486	-0.732910	0.929830	0.094139	-0.287052	-0.210129
52343		4.839610	2.858975	8.009937	0.007092	-0.005026	-0.002173	-0.053955	-0.075684	-0.725830	0.929807	0.094146	-0.287078	-0.210194
52344		4.823358	2.853377	8.040163	0.009215	-0.004015	-0.002122	-0.061523	-0.077148	-0.726807	0.929803	0.094187	-0.287076	-0.210198
52345		4.804840	2.908808	8.020354	0.007510	-0.004674	-0.003590	-0.062500	-0.078369	-0.729248	0.929788	0.094220	-0.287098	-0.210218
52346		4.842588	2.937271	8.004050	0.005635	-0.007936	-0.001725	-0.062012	-0.077148	-0.728027	0.929770	0.094231	-0.287147	-0.210226
52347		4.819254	2.939600	7.976993	-0.001294	-0.004412	0.001726	-0.056396	-0.082764	-0.726562	0.929771	0.094182	-0.287157	-0.210231
52348		4.841052	2.864125	7.992540	-0.008953	-0.004394	0.007707	-0.052490	-0.078613	-0.727539	0.929807	0.094085	-0.287142	-0.210135
52349		4.866173	2.842512	8.001251	-0.004852	-0.002924	0.005589	-0.054443	-0.072998	-0.729004	0.929837	0.094012	-0.287109	-0.210081
52350		4.892713	2.837622	8.041957	0.000248	-0.002251	0.001916	-0.062012	-0.077393	-0.724854	0.929844	0.093965	-0.287081	-0.210107
52351		4.853839	2.871343	8.007122	0.002807	-0.002942	-0.000392	-0.065918	-0.083252	-0.727295	0.929844	0.093961	-0.287086	-0.210102
52352		4.828196	2.893840	7.983728	-0.000794	-0.004810	0.000948	-0.063232	-0.077393	-0.720947	0.929850	0.093942	-0.287112	-0.210048
52353		4.834107	2.927536	7.973100	0.000393	-0.001699	0.004135	-0.068359	-0.080322	-0.727783	0.929863	0.093913	-0.287110	-0.210005
52354		4.828827	2.910984	8.001378	-0.005618	0.001780	0.005394	-0.056396	-0.076660	-0.735107	0.929887	0.093845	-0.287087	-0.209960
52355		4.817938	2.899988	7.987008	-0.013982	0.000343	0.008352	-0.059326	-0.079102	-0.727295	0.929926	0.093687	-0.287026	-0.209945
52356		4.820199	2.877213	7.984316	-0.013001	0.001600	0.007738	-0.061035	-0.076660	-0.728027	0.929970	0.093556	-0.286966	-0.209891
52357		4.798397	2.910265	8.008398	-0.018081	-0.005227	0.015073	-0.054688	-0.074951	-0.729736	0.930007	0.093346	-0.286961	-0.209826
52358		4.835336	2.859636	7.996868	-0.016184	-0.004017	0.012265	-0.068115	-0.072998	-0.723877	0.930046	0.093155	-0.286927	-0.209784
52359		4.862488	2.834276	8.020309	-0.013643	-0.002654	0.010900	-0.068115	-0.078857	-0.719971	0.930066	0.092983	-0.286927	-0.209772
52360		4.854009	2.820383	8.020163	-0.012809	-0.001949	0.008068	-0.062256	-0.083008	-0.731445	0.930095	0.092852	-0.286923	-0.209707
52361		4.843160	2.827577	8.023425	-0.006173	0.000879	0.004588	-0.065186	-0.078369	-0.730469	0.930130	0.092795	-0.286887	-0.209625
52362		4.792777	2.886993	8.009964	-0.009502	-0.001185	0.002291	-0.064209	-0.073730	-0.725586	0.930147	0.092697	-0.286868	-0.209620
52363		4.808180	2.912513	7.982661	-0.010003	-0.004892	0.007671	-0.063721	-0.077148	-0.732422	0.930160	0.092562	-0.286878	-0.209610
52364		4.837321	2.867373	8.002421	-0.013553	-0.003402	0.011533	-0.060791	-0.075684	-0.721924	0.930190	0.092402	-0.286871	-0.209556
52365		4.872237	2.760940	8.011958	-0.013218	-0.002298	0.009479	-0.057617	-0.075195	-0.725830	0.930225	0.092255	-0.286847	-0.209498
52366		4.826239	2.814907	8.027191	-0.011788	-0.004795	0.005563	-0.066650	-0.078613	-0.728516	0.930248	0.092122	-0.286831	-0.209475
52367		4.858572	2.901266	8.022153	-0.011106	-0.008747	0.005114	-0.064697	-0.072266	-0.728516	0.930254	0.091997	-0.286874	-0.209444
52368		4.815472	2.898650	7.997960	-0.018545	-0.010220	0.005873	-0.054199	-0.069336	-0.726074	0.930255	0.091787	-0.286909	-0.209485
52369		4.832245	2.863342	8.006246	-0.022556	-0.007033	0.018584	-0.070068	-0.079346	-0.723633	0.930299	0.091516	-0.286890	-0.209434
52370		4.866258	2.757517	8.001230	-0.020479	-0.009376	0.016106	-0.062744	-0.082764	-0.729736	0.930330	0.091300	-0.286941	-0.209319
52371		4.873482	2.806024	8.008888	-0.014892	-0.009106	0.011657	-0.064697	-0.069336	-0.725342	0.930365	0.091149	-0.286973	-0.209188
52372		4.904478	2.781020	7.971742	-0.012869	-0.001187	0.007424	-0.066406	-0.080566	-0.721680	0.930384	0.090990	-0.286948	-0.209207
52373		4.882115	2.833023	8.013829	-0.010582	0.002426	0.004154	-0.061279	-0.066895	-0.720703	0.930424	0.090909	-0.286905	-0.209123
52374		4.866995	2.863010	8.006528	-0.009588	0.001629	0.002597	-0.068359	-0.074951	-0.725342	0.930441	0.090789	-0.286850	-0.209173
52375		4.850354	2.818389	8.002414	-0.011144	0.001525	0.003348	-0.068359	-0.077148	-0.729004	0.930465	0.090680	-0.286816	-0.209163
52376		4.891307	2.821412	7.998409	-0.008212	0.001178	0.006115	-0.068115	-0.068848	-0.729736	0.930492	0.090593	-0.286792	-0.209110
52377		4.854061	2.792634	8.014402	-0.006836	0.004836	0.005039	-0.061035	-0.070068	-0.722168	0.930511	0.090494	-0.286739	-0.209143
52378		4.848389	2.757947	8.024994	-0.000496	0.000399	0.000778	-0.066162	-0.072021	-0.719971	0.930522	0.090460	-0.286709	-0.209151
52379		4.865018	2.783174	8.011812	0.004255	-0.000041	-0.000838	-0.067383	-0.070312	-0.727539	0.930523	0.090473	-0.286705	-0.209147
52380		4.858967	2.844985	8.022209	0.004354	0.001267	-0.005743	-0.064453	-0.067383	-0.734375	0.930510	0.090488	-0.286690	-0.209217
52381		4.832480	2.886459	8.017039	0.002963	-0.000340	-0.003721	-0.067871	-0.074219	-0.728271	0.930494	0.090470	-0.286676	-0.209315
52382		4.858463	2.827987	8.004338	-0.002234	0.003849	0.001204	-0.068115	-0.071045	-0.731201	0.930512	0.090437	-0.286636	-0.209304
52383		4.860012	2.807249	8.001208	-0.002151	0.003097	0.001840	-0.058838	-0.079346	-0.726074	0.930521	0.090387	-0.286603	-0.209330
52384		4.835491	2.768439	8.028401	-0.000263	0.004306	-0.000961	-0.060547	-0.073975	-0.731689	0.930558	0.090401	-0.286537	-0.209253
52385		4.836563	2.825184	8.007653	0.001376	0.003659	-0.001075	-0.059082	-0.077393	-0.727539	0.930576	0.090400	-0.286482	-0.209247
52386		4.848905	2.814353	8.019375	0.002122	0.005117	-0.004540	-0.061523	-0.072754	-0.734131	0.930602	0.090433	-0.286411	-0.209216
52387		4.855582	2.793111	7.970059	0.007868	0.003881	-0.007711	-0.063232	-0.076904	-0.723877	0.930599	0.090493	-0.286364	-0.209265
52388		4.867370	2.819649	8.017273	0.010536	0.007840	-0.005905	-0.060791	-0.077881	-0.727539	0.930617	0.090597	-0.286299	-0.209230
52389		4.845511	2.800961	8.002002	0.006531	0.009736	-0.007755	-0.065918	-0.072021	-0.721924	0.930642	0.090681	-0.286204	-0.209211
52390		4.840457	2.766711	8.026766	0.014233	0.006900	-0.007548	-0.059326	-0.069580	-0.729004	0.930638	0.090797	-0.286160	-0.209238
52391		4.837496	2.808254	8.047553	0.022384	0.000315	-0.010648	-0.070557	-0.072266	-0.727295	0.930609	0.090961	-0.286158	-0.209299
52392		4.829421	2.839675	8.006838	0.027144	-0.000119	-0.012266	-0.062012	-0.067139	-0.721680	0.930562	0.091170	-0.286201	-0.209360
52393		4.828947	2.843892	8.005627	0.021267	-0.001484	-0.012263	-0.053955	-0.074951	-0.735596	0.930519	0.091319	-0.286219	-0.209460
52394		4.815578	2.799682	8.028800	0.015916	0.002155	-0.009563	-0.057373	-0.076172	-0.736816	0.930514	0.091447	-0.286177	-0.209483
52395		4.820248	2.854561	8.035709	0.015438	0.000503	-0.009731	-0.062988	-0.074463	-0.729980	0.930502	0.091571	-0.286157	-0.209509
52396		4.829093	2.850378	8.017897	0.011179	0.000540	-0.008894	-0.064453	-0.080811	-0.728271	0.930487	0.091657	-0.286147	-0.209556
52397		4.784199	2.851839	7.993298	0.006816	-0.000728	-0.003146	-0.062500	-0.070557	-0.726074	0.930492	0.091716	-0.286150	-0.209505
52398		4.806578	2.835044	7.987187	0.006816	-0.000727	-0.003146	-0.062500	-0.075195	-0.741211	0.930480	0.091739	-0.286145	-0.209550
52399		4.821767	2.822689	8.012470	0.007082	-0.005032	-0.002178	-0.064209	-0.077148	-0.729980	0.930463	0.091761	-0.286174	-0.209577
52400		4.831458	2.835243	8.012363	0.009269	-0.002722	-0.000544	-0.060547	-0.080811	-0.719238	0.930459	0.091814	-0.286196	-0.209544
52401		4.818665	2.847275	8.000419	0.002222	-0.001795	-0.000254	-0.065430	-0.074707	-0.732178	0.930478	0.091836	-0.286191	-0.209456
52402		4.807965	2.838686	7.985058	0.006234	-0.003684	0.001596	-0.057373	-0.077148	-0.732178	0.930470	0.091847	-0.286220	-0.209448
52403		4.834516	2.835273	8.025187	0.009353	-0.003472	0.000092	-0.060059	-0.072021	-0.734863	0.930473	0.091899	-0.286229	-0.209400
52404		4.794218	2.872560	7.975399	0.010616	-0.008574	-0.000495	-0.063965	-0.075684	-0.721436	0.930447	0.091931	-0.286285	-0.209422
52405		4.814005	2.837470	8.011207	0.005340	-0.005688	0.002845	-0.057373	-0.073975	-0.727539	0.930444	0.091940	-0.286326	-0.209374
52406		4.850228	2.808960	8.016305	0.006088	-0.004234	-0.000624	-0.066895	-0.078857	-0.729980	0.930442	0.091958	-0.286335	-0.209364
52407		4.807864	2.843341	8.041483	0.004612	-0.005090	0.000766	-0.061768	-0.080811	-0.732666	0.930437	0.091971	-0.286376	-0.209327
52408		4.823440	2.853189	7.995434	0.007316	-0.005230	0.000676	-0.064209	-0.078857	-0.729492	0.930438	0.092013	-0.286408	-0.209259
52409		4.763077	2.864736	8.019231	0.002758	-0.010402	0.001684	-0.062256	-0.074463	-0.725830	0.930426	0.092001	-0.286480	-0.209217
52410		4.841015	2.840895	8.019279	0.007603	-0.011586	0.000701	-0.062500	-0.074219	-0.725830	0.930402	0.092015	-0.286563	-0.209204
52411		4.853742	2.833013	8.015109	0.009727	-0.010577	0.000750	-0.065674	-0.079590	-0.723145	0.930379	0.092046	-0.286641	-0.209188
52412		4.836560	2.829608	8.030498	0.007937	-0.010483	-0.001354	-0.062988	-0.074951	-0.733154	0.930359	0.092088	-0.286725	-0.209143
52413		4.854631	2.837737	7.998197	0.009581	-0.011128	-0.001470	-0.060059	-0.077393	-0.728027	0.930329	0.092119	-0.286806	-0.209153
52414		4.857976	2.836960	8.011147	0.009518	-0.012429	-0.003052	-0.064697	-0.078369	-0.730713	0.930303	0.092165	-0.286888	-0.209136
52415		4.857437	2.858705	8.013198	0.008439	-0.010880	-0.002134	-0.066162	-0.078613	-0.729736	0.930277	0.092202	-0.286970	-0.209122
52416		4.871825	2.830597	8.005749	0.007276	-0.008582	-0.001854	-0.067139	-0.069580	-0.727051	0.930257	0.092233	-0.287036	-0.209108
52417		4.818885	2.856399	8.015553	0.008358	-0.010129	-0.002773	-0.064697	-0.070801	-0.724854	0.930213	0.092242	-0.287117	-0.209186
52418		4.847811	2.854733	7.980841	-0.001767	-0.006061	0.001560	-0.063721	-0.074219	-0.724121	0.930202	0.092175	-0.287145	-0.209228
52419		4.841162	2.858925	8.012070	-0.001288	-0.004407	0.001724	-0.059326	-0.077148	-0.728516	0.930202	0.092129	-0.287159	-0.209228
52420		4.865941	2.838418	8.020509	-0.002038	-0.001759	0.000589	-0.060303	-0.079102	-0.724854	0.930218	0.092093	-0.287137	-0.209204
