// Start Time: Unknown
// Update Rate: 60.0Hz
// Filter Profile: human (46.1)
// Firmware Version: 4.6.0
PacketCounter	SampleTimeFine	Acc_X	Acc_Y	Acc_Z	Gyr_X	Gyr_Y	Gyr_Z	Mag_X	Mag_Y	Mag_Z	Quat_q0	Quat_q1	Quat_q2	Quat_q3
46518		9.598588	-2.492079	-0.757053	0.029959	-0.146837	-0.007154	-0.804443	-0.070801	0.329834	-0.184331	-0.633110	0.369691	-0.654616
46519		9.574644	-2.448438	-0.773223	0.010778	-0.135509	-0.007509	-0.808594	-0.070312	0.327881	-0.183898	-0.633889	0.369801	-0.653922
46520		9.533589	-2.470961	-0.806436	-0.010740	-0.109808	-0.013140	-0.809326	-0.069824	0.332764	-0.183689	-0.634506	0.369958	-0.653293
46521		9.511386	-2.428310	-0.832424	-0.028679	-0.097364	-0.014818	-0.802734	-0.067139	0.330078	-0.183621	-0.635038	0.370184	-0.652667
46522		9.439444	-2.464637	-0.756721	-0.061563	-0.076558	-0.020282	-0.810059	-0.070801	0.329346	-0.183822	-0.635424	0.370529	-0.652039
46523		9.334757	-2.548106	-0.748674	-0.084941	-0.074374	-0.030288	-0.804443	-0.074707	0.337158	-0.184206	-0.635791	0.370944	-0.651336
46524		9.288318	-2.619772	-0.739810	-0.106618	-0.084044	-0.042436	-0.797363	-0.063477	0.322266	-0.184738	-0.636211	0.371429	-0.650498
46525		9.220775	-2.649358	-0.743528	-0.131864	-0.113842	-0.052901	-0.804199	-0.079346	0.328613	-0.185360	-0.636778	0.372046	-0.649412
46526		9.219307	-2.711876	-0.757301	-0.176515	-0.136667	-0.066472	-0.809570	-0.070801	0.334229	-0.186210	-0.637432	0.372875	-0.648052
46527		9.239275	-2.802824	-0.800280	-0.213248	-0.161605	-0.075754	-0.806152	-0.078369	0.336182	-0.187212	-0.638176	0.373902	-0.646437
46528		9.243467	-2.882529	-0.866117	-0.239610	-0.178689	-0.082201	-0.804443	-0.075928	0.332764	-0.188311	-0.638973	0.375078	-0.644647
46529		9.184176	-2.940762	-0.926732	-0.250987	-0.175263	-0.079554	-0.799316	-0.081299	0.346924	-0.189437	-0.639704	0.376344	-0.642852
46530		9.190726	-2.948179	-1.022787	-0.262808	-0.190301	-0.072174	-0.801514	-0.086670	0.339844	-0.190500	-0.640450	0.377763	-0.640959
46531		9.273332	-2.971496	-1.114803	-0.286223	-0.192415	-0.062147	-0.793945	-0.082275	0.348633	-0.191586	-0.641117	0.379395	-0.639001
46532		9.418480	-2.929544	-1.243527	-0.316818	-0.173365	-0.045998	-0.793213	-0.083252	0.350342	-0.192766	-0.641567	0.381273	-0.637075
46533		9.359831	-2.988653	-1.501362	-0.355770	-0.164675	-0.020059	-0.795410	-0.099609	0.348877	-0.194001	-0.641811	0.383513	-0.635106
46534		9.275920	-2.943890	-1.611254	-0.365769	-0.149081	0.032013	-0.792969	-0.084229	0.348633	-0.195010	-0.641777	0.386110	-0.633255
46535		9.095058	-2.868327	-1.771195	-0.380807	-0.132197	0.069631	-0.787598	-0.096924	0.352295	-0.195912	-0.641526	0.389000	-0.631460
46536		9.161931	-2.712754	-1.735985	-0.371043	-0.128874	0.099405	-0.789795	-0.100342	0.352539	-0.196591	-0.641192	0.392005	-0.629728
46537		9.168600	-2.638895	-1.750350	-0.347031	-0.122821	0.118805	-0.786133	-0.094238	0.356934	-0.197009	-0.640807	0.395015	-0.628106
46538		9.178418	-2.674956	-1.781610	-0.280923	-0.150964	0.131583	-0.795898	-0.090088	0.364258	-0.196911	-0.640678	0.397783	-0.626520
46539		9.289389	-2.530825	-1.798680	-0.207709	-0.154502	0.132597	-0.788086	-0.092285	0.352783	-0.196205	-0.640705	0.400254	-0.625138
46540		9.358048	-2.301987	-1.909953	-0.169670	-0.134585	0.132584	-0.788574	-0.085693	0.362793	-0.195599	-0.640659	0.402507	-0.623927
46541		9.488725	-2.166282	-2.002856	-0.187505	-0.075717	0.128104	-0.788086	-0.087158	0.361816	-0.195226	-0.640385	0.404692	-0.622911
46542		9.473374	-2.308584	-1.946336	-0.208905	-0.012654	0.126744	-0.790527	-0.084961	0.360352	-0.195252	-0.639781	0.406856	-0.622113
46543		9.463223	-2.386933	-1.844351	-0.193753	0.025666	0.123751	-0.783936	-0.092529	0.362061	-0.195338	-0.639035	0.408896	-0.621515
46544		9.481647	-2.368089	-1.686393	-0.186702	0.050765	0.130447	-0.785400	-0.087158	0.358154	-0.195604	-0.638173	0.410696	-0.621131
46545		9.463296	-2.484542	-1.617531	-0.162872	0.061751	0.132776	-0.791260	-0.079102	0.362793	-0.195814	-0.637256	0.412436	-0.620853
46546		9.449439	-2.631745	-1.559410	-0.119583	0.058058	0.124274	-0.795410	-0.083252	0.360840	-0.195651	-0.636536	0.413979	-0.620615
46547		9.470895	-2.717999	-1.549726	-0.047124	0.030504	0.110624	-0.790283	-0.079590	0.361572	-0.195009	-0.636132	0.415085	-0.620493
46548		9.548742	-2.690498	-1.534414	0.025123	-0.002612	0.092668	-0.793945	-0.082520	0.360352	-0.194129	-0.636031	0.415727	-0.620443
46549		9.538700	-2.765461	-1.529245	0.085287	-0.022889	0.078595	-0.796387	-0.072510	0.356201	-0.192854	-0.636193	0.415977	-0.620507
46550		9.570776	-2.728025	-1.502195	0.142516	-0.031090	0.071121	-0.780762	-0.074463	0.360596	-0.191336	-0.636417	0.416095	-0.620668
46551		9.526248	-2.766929	-1.527881	0.177788	-0.024910	0.073165	-0.798340	-0.071533	0.351807	-0.190060	-0.636562	0.415764	-0.621134
46552		9.550024	-2.666253	-1.575824	0.184039	-0.005482	0.086633	-0.783447	-0.071289	0.361816	-0.188354	-0.636591	0.415676	-0.621682
46553		9.413885	-2.692120	-1.583895	0.157065	0.032101	0.108635	-0.788574	-0.068359	0.362061	-0.187115	-0.636321	0.415513	-0.622441
46554		9.324960	-2.741112	-1.569629	0.143143	0.061409	0.122667	-0.793457	-0.064941	0.355225	-0.185832	-0.635879	0.415480	-0.623298
46555		9.307626	-2.666526	-1.591614	0.116606	0.085479	0.138076	-0.792236	-0.073486	0.358398	-0.184670	-0.635149	0.415720	-0.624227
46556		9.379013	-2.582880	-1.639593	0.080806	0.105928	0.134677	-0.791260	-0.058105	0.350342	-0.183780	-0.634365	0.415842	-0.625205
46557		9.304147	-2.622545	-1.561313	0.078040	0.103783	0.108094	-0.791748	-0.064209	0.353027	-0.183211	-0.633505	0.416109	-0.626066
46558		9.333048	-2.658598	-1.482814	0.119421	0.054590	0.078653	-0.789307	-0.059326	0.351807	-0.182356	-0.633174	0.415887	-0.626797
46559		9.454137	-2.482106	-1.517589	0.164599	-0.002629	0.046500	-0.789795	-0.063965	0.352783	-0.181313	-0.633277	0.415383	-0.627330
46560		9.465963	-2.380166	-1.467280	0.154187	-0.045947	0.019437	-0.789307	-0.055664	0.358643	-0.180314	-0.633739	0.414738	-0.627578
46561		9.417071	-2.352836	-1.534708	0.138219	-0.072500	-0.017008	-0.790283	-0.052734	0.358398	-0.179451	-0.634496	0.414067	-0.627503
46562		9.392570	-2.496862	-1.615003	0.103979	-0.080978	-0.040350	-0.791504	-0.051025	0.354492	-0.178868	-0.635314	0.413490	-0.627222
46563		9.303427	-2.596417	-1.660854	0.081315	-0.107363	-0.063811	-0.790527	-0.053955	0.355713	-0.178469	-0.636253	0.412994	-0.626712
46564		9.285356	-2.668603	-1.710018	0.054084	-0.106547	-0.074552	-0.786865	-0.049561	0.358398	-0.178288	-0.637197	0.412534	-0.626106
46565		9.262546	-2.811614	-1.737171	0.034754	-0.108517	-0.077232	-0.791260	-0.062012	0.358643	-0.178228	-0.638108	0.412226	-0.625399
46566		9.289151	-2.772811	-1.798985	0.037307	-0.107527	-0.078579	-0.795410	-0.053223	0.359375	-0.178128	-0.639100	0.411735	-0.624736
46567		9.274916	-2.766419	-1.709413	0.026384	-0.090737	-0.076404	-0.787598	-0.052002	0.357666	-0.178031	-0.639960	0.411407	-0.624100
46568		9.181437	-2.822770	-1.671756	0.027238	-0.084890	-0.070248	-0.788330	-0.058105	0.358887	-0.178034	-0.640660	0.411156	-0.623546
46569		9.191114	-2.876189	-1.602463	0.034898	-0.091736	-0.073056	-0.781006	-0.055664	0.360840	-0.177978	-0.641455	0.410783	-0.622990
46570		9.204143	-2.847818	-1.602792	0.043639	-0.104761	-0.073549	-0.779053	-0.055420	0.357910	-0.177878	-0.642275	0.410440	-0.622400
46571		9.167610	-2.887777	-1.494207	0.035025	-0.111450	-0.073204	-0.793701	-0.055908	0.368652	-0.177822	-0.643044	0.410180	-0.621793
46572		9.172162	-3.005949	-1.465729	0.051940	-0.129400	-0.072084	-0.781738	-0.063721	0.371094	-0.177347	-0.644139	0.409765	-0.621069
46573		9.306282	-2.999669	-1.421349	0.058788	-0.125475	-0.061260	-0.780273	-0.058350	0.374756	-0.176949	-0.645148	0.409334	-0.620418
46574		9.314493	-2.948959	-1.456269	0.041972	-0.100513	-0.046547	-0.779297	-0.061035	0.374023	-0.176582	-0.645935	0.409090	-0.619865
46575		9.347106	-2.867310	-1.491340	0.016527	-0.064556	-0.027292	-0.779297	-0.063965	0.377686	-0.176409	-0.646401	0.409011	-0.619481
46576		9.359459	-2.851681	-1.528825	-0.002814	-0.023276	-0.008344	-0.786133	-0.051025	0.370850	-0.176371	-0.646607	0.409032	-0.619262
46577		9.351397	-2.900388	-1.554800	-0.008243	-0.002850	0.008627	-0.783203	-0.063965	0.374512	-0.176234	-0.646499	0.409264	-0.619261
46578		9.326542	-2.940862	-1.594370	0.007968	0.006507	0.018467	-0.778320	-0.059326	0.371582	-0.176098	-0.646431	0.409320	-0.619333
46579		9.397693	-2.833152	-1.619184	0.037188	0.015854	0.027007	-0.790283	-0.060059	0.363525	-0.175815	-0.646242	0.409333	-0.619603
46580		9.413868	-2.761019	-1.726518	0.050081	0.026157	0.034834	-0.783936	-0.048340	0.379883	-0.175468	-0.645921	0.409276	-0.620073
46581		9.356778	-2.686593	-1.714272	0.051110	0.047454	0.038726	-0.778809	-0.054688	0.367432	-0.174904	-0.645660	0.409228	-0.620535
46582		9.280672	-2.688706	-1.809832	0.068798	0.036942	0.036784	-0.771729	-0.054688	0.380127	-0.174490	-0.645323	0.409121	-0.621073
46583		9.260917	-2.664264	-1.761082	0.074222	0.034010	0.034367	-0.788330	-0.053223	0.369873	-0.173930	-0.645223	0.408913	-0.621471
46584		9.232983	-2.684145	-1.708012	0.054708	0.025249	0.029039	-0.782715	-0.060303	0.374512	-0.173501	-0.645029	0.408794	-0.621870
46585		9.254627	-2.745397	-1.813268	0.034237	0.020643	0.025399	-0.776855	-0.046143	0.362549	-0.173257	-0.644947	0.408704	-0.622082
46586		9.177543	-2.832008	-1.785017	-0.016802	0.024985	0.022443	-0.776611	-0.057373	0.367920	-0.173327	-0.644528	0.409037	-0.622278
46587		9.136760	-2.963030	-1.810641	-0.045895	0.031739	0.016758	-0.786377	-0.050781	0.364746	-0.173679	-0.644201	0.409376	-0.622295
46588		9.110271	-2.986450	-1.835607	-0.060784	0.030720	0.020042	-0.781738	-0.052246	0.369873	-0.173977	-0.643786	0.409834	-0.622341
46589		9.098512	-3.011115	-1.891024	-0.080655	0.026711	0.020896	-0.789062	-0.055908	0.367432	-0.174317	-0.643459	0.410379	-0.622225
46590		9.060455	-3.059772	-1.872034	-0.092250	0.015896	0.028687	-0.785400	-0.054688	0.361328	-0.174698	-0.643120	0.411028	-0.622040
46591		9.008222	-3.120425	-1.927296	-0.092625	0.011776	0.037387	-0.784912	-0.055908	0.369385	-0.175091	-0.642672	0.411793	-0.621886
46592		9.089139	-3.079532	-1.787633	-0.081294	-0.001484	0.044721	-0.783936	-0.051758	0.369629	-0.175227	-0.642430	0.412505	-0.621626
46593		9.481150	-2.632921	-1.723248	-0.116126	-0.006052	0.063092	-0.785400	-0.060791	0.368408	-0.175361	-0.642091	0.413516	-0.621267
46594		8.846112	-3.291776	-1.853010	-0.157870	0.015698	0.035673	-0.783203	-0.053223	0.360352	-0.176119	-0.641677	0.414538	-0.620799
46595		9.098510	-3.200962	-1.779847	-0.082200	-0.042311	0.001540	-0.779785	-0.037842	0.371826	-0.176424	-0.641635	0.415165	-0.620336
46596		9.390955	-2.666405	-1.906776	-0.085578	-0.050752	0.028007	-0.784668	-0.048828	0.364258	-0.176105	-0.641701	0.415918	-0.619854
46597		9.295199	-2.630392	-1.878188	-0.187491	-0.005805	0.026524	-0.780518	-0.054688	0.366943	-0.176847	-0.641260	0.417160	-0.619264
46598		9.074160	-3.070691	-1.696569	-0.072494	-0.061022	0.018760	-0.785400	-0.043701	0.362061	-0.176882	-0.641378	0.417814	-0.618691
46599		9.351225	-2.638684	-1.928958	-0.054374	-0.059328	-0.000798	-0.775146	-0.054932	0.370850	-0.176808	-0.641437	0.418332	-0.618301
46600		9.444335	-2.460162	-1.809472	-0.098796	-0.027789	-0.001908	-0.774658	-0.054443	0.377686	-0.177165	-0.641481	0.418937	-0.617742
46601		9.564272	-2.356992	-1.588466	-0.123987	0.016792	0.006098	-0.778564	-0.054688	0.368652	-0.177626	-0.641363	0.419570	-0.617304
46602		9.605880	-2.427700	-1.342572	-0.171685	0.086305	0.010214	-0.781982	-0.051514	0.365234	-0.178749	-0.640611	0.420454	-0.617158
46603		9.463499	-2.770626	-1.169755	-0.155449	0.096168	0.005837	-0.784912	-0.050293	0.372559	-0.179817	-0.639784	0.421232	-0.617176
46604		9.428938	-2.931215	-1.118628	-0.052336	0.043984	-0.024418	-0.784668	-0.051514	0.367188	-0.180084	-0.639650	0.421280	-0.617204
46605		9.575265	-2.789714	-1.008791	0.060432	-0.006213	-0.063152	-0.792725	-0.049561	0.372803	-0.179902	-0.639970	0.420675	-0.617338
46606		9.827879	-2.447611	-1.021084	0.106017	-0.015414	-0.093084	-0.794678	-0.058350	0.363525	-0.179432	-0.640590	0.419603	-0.617561
46607		9.886725	-2.398839	-0.916669	0.083779	0.015684	-0.120070	-0.786621	-0.052734	0.365723	-0.179717	-0.640922	0.418549	-0.617849
46608		9.852114	-2.405756	-0.832912	0.086103	0.039238	-0.148568	-0.785645	-0.059814	0.372559	-0.180063	-0.641281	0.417275	-0.618237
46609		9.890203	-2.390821	-0.820789	0.132559	0.036627	-0.174926	-0.786865	-0.055176	0.370117	-0.180236	-0.641984	0.415500	-0.618652
46610		9.971507	-2.258882	-0.921224	0.188599	0.036639	-0.200735	-0.784912	-0.060547	0.367676	-0.180196	-0.642781	0.413329	-0.619291
46611		9.961264	-2.199795	-0.909554	0.224170	0.049867	-0.228660	-0.790771	-0.059570	0.364502	-0.180293	-0.643623	0.410817	-0.620059
46612		9.942118	-2.076135	-0.872869	0.241076	0.060408	-0.252008	-0.785400	-0.062500	0.357178	-0.180486	-0.644423	0.408103	-0.620964
46613		9.966168	-1.939470	-0.937393	0.232016	0.086267	-0.271212	-0.791504	-0.070557	0.357910	-0.181106	-0.645016	0.405375	-0.621953
46614		9.999679	-1.767595	-0.986835	0.194844	0.128307	-0.280564	-0.779785	-0.073975	0.359131	-0.182201	-0.645395	0.402677	-0.622992
46615		9.981024	-1.722613	-1.030764	0.138354	0.181885	-0.286978	-0.790771	-0.074219	0.358887	-0.183760	-0.645538	0.400105	-0.624042
46616		10.039081	-1.768532	-0.964585	0.095207	0.239001	-0.304739	-0.790527	-0.084961	0.350830	-0.185757	-0.645364	0.397534	-0.625273
46617		10.142745	-1.651393	-0.777374	0.070490	0.264354	-0.328251	-0.789551	-0.083008	0.348633	-0.188366	-0.645004	0.394991	-0.626474
46618		10.298883	-1.243200	-0.781717	0.051070	0.297700	-0.364704	-0.795898	-0.091309	0.347900	-0.191211	-0.644589	0.392246	-0.627763
46619		10.445341	-1.028816	-0.709314	-0.008554	0.343126	-0.402708	-0.800049	-0.091064	0.332520	-0.194785	-0.643980	0.389515	-0.628988
46620		10.558816	-1.162315	-0.659125	-0.037520	0.381936	-0.442570	-0.797363	-0.105469	0.325684	-0.198898	-0.643060	0.386686	-0.630387
46621		10.621470	-1.166262	-0.636180	-0.055968	0.402506	-0.489654	-0.803223	-0.108398	0.311523	-0.203657	-0.642120	0.383705	-0.631646
46622		10.761704	-0.954535	-0.643680	-0.096979	0.435046	-0.516071	-0.801025	-0.114014	0.313721	-0.208880	-0.640880	0.380717	-0.633006
46623		10.888247	-0.752048	-0.625211	-0.181726	0.499014	-0.527152	-0.801270	-0.125732	0.305908	-0.214621	-0.639332	0.377909	-0.634332
46624		10.868619	-0.739942	-0.671466	-0.256112	0.568877	-0.541958	-0.805176	-0.133545	0.290039	-0.221168	-0.637287	0.375303	-0.635687
46625		10.838498	-0.930895	-0.641100	-0.285175	0.631174	-0.561439	-0.811279	-0.146729	0.285889	-0.228197	-0.634799	0.372590	-0.637286
46626		10.835829	-1.224233	-0.530407	-0.287452	0.686576	-0.593216	-0.810791	-0.156250	0.270508	-0.235677	-0.632085	0.369658	-0.638966
46627		10.910826	-1.349528	-0.348324	-0.267971	0.719796	-0.612146	-0.814453	-0.172852	0.263916	-0.243222	-0.629232	0.366392	-0.640833
46628		11.203218	-1.116209	-0.237572	-0.246877	0.751839	-0.655757	-0.819580	-0.180664	0.249512	-0.251175	-0.626319	0.362823	-0.642647
46629		11.173061	-1.047405	-0.097626	-0.221570	0.806823	-0.698409	-0.816406	-0.189453	0.236816	-0.259214	-0.623263	0.358661	-0.644759
46630		11.116096	-0.948193	-0.045075	-0.168750	0.845570	-0.716473	-0.816895	-0.211182	0.214355	-0.266972	-0.620213	0.353913	-0.647154
46631		11.278414	-0.765298	0.033993	-0.144228	0.902586	-0.718475	-0.830811	-0.216064	0.204590	-0.274878	-0.616823	0.348918	-0.649791
46632		11.720343	-0.325466	0.097517	-0.235750	1.018832	-0.726724	-0.816895	-0.231689	0.191406	-0.283266	-0.612700	0.343963	-0.652724
46633		11.602605	-0.690382	0.512083	-0.345230	1.155690	-0.725800	-0.825195	-0.244629	0.169922	-0.292483	-0.607565	0.339216	-0.655935
46634		11.423607	-0.797871	0.846176	-0.302568	1.216280	-0.728299	-0.825195	-0.266113	0.154785	-0.301594	-0.602123	0.334013	-0.659487
46635		11.483867	-0.636368	1.075447	-0.188936	1.201787	-0.754013	-0.830566	-0.278564	0.142578	-0.310181	-0.597030	0.328046	-0.663121
46636		11.668770	-0.121720	1.100353	-0.112102	1.201386	-0.786801	-0.820312	-0.283936	0.106934	-0.318507	-0.592138	0.321442	-0.666784
46637		11.594590	-0.106481	1.080177	-0.077652	1.220660	-0.790703	-0.826172	-0.307129	0.089844	-0.326682	-0.587153	0.314526	-0.670525
46638		11.631228	-0.132514	1.050920	-0.046141	1.241031	-0.798279	-0.818115	-0.309570	0.077393	-0.334745	-0.582072	0.307295	-0.674320
46639		11.733109	0.244691	1.080641	-0.005797	1.246260	-0.833006	-0.817139	-0.318604	0.053711	-0.342758	-0.577075	0.299610	-0.678037
46640		11.484712	0.454871	1.446543	-0.028296	1.274391	-0.854319	-0.813477	-0.350830	0.038574	-0.351008	-0.571819	0.291824	-0.681656
46641		11.150477	-0.002954	1.754578	0.026870	1.239450	-0.877982	-0.808105	-0.363281	0.021729	-0.358981	-0.566890	0.283667	-0.685055
46642		11.192622	0.008000	2.062161	0.121127	1.163551	-0.931130	-0.805176	-0.382324	0.004883	-0.366565	-0.562713	0.274908	-0.688048
46643		11.269247	0.679119	2.179548	0.104240	1.128371	-0.976313	-0.787598	-0.391357	-0.011230	-0.374340	-0.558700	0.266105	-0.690589
46644		11.128881	0.556304	2.208163	0.038436	1.156443	-0.987200	-0.785889	-0.408203	-0.025146	-0.382478	-0.554257	0.257503	-0.692966
46645		10.878174	0.219729	2.206976	0.048628	1.143900	-1.013486	-0.774414	-0.424316	-0.037354	-0.390624	-0.549887	0.248723	-0.695107
46646		10.840535	0.546874	2.335388	0.078662	1.111470	-1.056720	-0.766357	-0.438477	-0.056396	-0.398738	-0.545804	0.239646	-0.696904
46647		10.556078	0.527253	2.537113	0.094481	1.082871	-1.085199	-0.758789	-0.470215	-0.060059	-0.406813	-0.541908	0.230411	-0.698390
46648		10.260301	0.335727	2.810313	0.173509	1.020849	-1.119468	-0.751709	-0.489502	-0.077637	-0.414534	-0.538620	0.220744	-0.699515
46649		10.360406	0.746393	2.807779	0.194119	0.986713	-1.145111	-0.741943	-0.500000	-0.093506	-0.422171	-0.535561	0.210934	-0.700323
46650		10.111937	0.655253	2.744600	0.127943	0.968152	-1.150030	-0.714844	-0.523438	-0.096436	-0.430020	-0.532302	0.201529	-0.700801
46651		10.016404	0.596741	2.885680	0.065259	0.956814	-1.150815	-0.707764	-0.539062	-0.116211	-0.438055	-0.528804	0.192508	-0.701010
46652		9.912567	0.717808	2.852253	0.018647	0.942179	-1.143599	-0.694580	-0.556885	-0.118652	-0.446149	-0.525129	0.183828	-0.700997
46653		9.704625	0.848485	2.849203	-0.050561	0.920217	-1.139082	-0.677002	-0.579346	-0.128906	-0.454408	-0.521242	0.175638	-0.700694
46654		9.654849	1.006005	2.860729	-0.083976	0.904026	-1.132605	-0.667969	-0.590332	-0.142578	-0.462672	-0.517238	0.167721	-0.700192
46655		9.383774	0.977789	2.980038	-0.085219	0.888420	-1.115738	-0.658447	-0.608154	-0.156250	-0.470743	-0.513227	0.159932	-0.699586
46656		9.278275	1.153270	3.016281	-0.065648	0.873718	-1.095288	-0.644043	-0.621582	-0.173584	-0.478517	-0.509283	0.152165	-0.698926
46657		9.199613	1.435483	2.997478	-0.111746	0.898419	-1.078375	-0.624512	-0.638916	-0.164062	-0.486343	-0.504924	0.144633	-0.698286
46658		8.873952	1.377068	3.300615	-0.159066	0.908498	-1.068770	-0.607178	-0.640381	-0.175049	-0.494249	-0.500239	0.137367	-0.697574
46659		8.644433	1.276957	3.531006	-0.097773	0.861731	-1.067064	-0.588867	-0.660645	-0.184082	-0.501761	-0.496012	0.129937	-0.696652
46660		8.504051	1.492622	3.608729	-0.015664	0.785346	-1.054136	-0.569580	-0.670166	-0.193115	-0.508706	-0.492498	0.122400	-0.695473
46661		8.422017	1.752049	3.539415	0.006081	0.730663	-1.036940	-0.559570	-0.695312	-0.203857	-0.515340	-0.489321	0.115036	-0.694087
46662		8.128295	1.980644	3.469554	0.037575	0.684797	-1.031658	-0.551758	-0.694580	-0.213379	-0.521709	-0.486489	0.107706	-0.692494
46663		7.866377	1.923425	3.560608	0.072169	0.625707	-1.022457	-0.532715	-0.715820	-0.213135	-0.527772	-0.484095	0.100468	-0.690663
46664		7.580331	1.917161	3.721213	0.169923	0.537170	-0.999035	-0.527588	-0.725342	-0.207275	-0.533176	-0.482578	0.093151	-0.688596
46665		7.235833	2.135119	3.609556	0.228378	0.449432	-0.963961	-0.499268	-0.741211	-0.215820	-0.538025	-0.481758	0.086029	-0.686322
46666		7.180591	2.498870	3.563552	0.200793	0.390215	-0.941545	-0.496094	-0.743652	-0.213623	-0.542768	-0.481101	0.079421	-0.683840
46667		7.124731	2.655266	3.578021	0.127116	0.370008	-0.908725	-0.479492	-0.751953	-0.211426	-0.547564	-0.480174	0.073455	-0.681330
46668		6.667882	2.340363	3.549245	0.099683	0.337834	-0.864587	-0.467285	-0.757080	-0.213379	-0.552162	-0.479250	0.067969	-0.678835
46669		6.271294	2.093799	3.578856	0.157127	0.269207	-0.818175	-0.452393	-0.771484	-0.212891	-0.556195	-0.478928	0.062661	-0.676276
46670		6.141063	2.469516	3.345977	0.194731	0.206254	-0.770984	-0.445068	-0.782715	-0.205811	-0.559748	-0.479086	0.057624	-0.673675
46671		6.176324	2.810713	3.010219	0.090316	0.225642	-0.709677	-0.438965	-0.796387	-0.204834	-0.563358	-0.478601	0.053328	-0.671360
46672		5.637843	2.420583	2.928332	-0.019733	0.234285	-0.635633	-0.433594	-0.791992	-0.218262	-0.566974	-0.477506	0.049904	-0.669356
46673		5.224831	1.917689	3.099342	-0.023568	0.206294	-0.544951	-0.419922	-0.796875	-0.207520	-0.570070	-0.476501	0.046997	-0.667651
46674		5.146300	1.955483	3.125642	-0.002233	0.139562	-0.448510	-0.406738	-0.809570	-0.204102	-0.572507	-0.475922	0.044675	-0.666137
46675		5.287882	1.953960	3.067178	-0.071889	0.118792	-0.346936	-0.410156	-0.803223	-0.215088	-0.574640	-0.475081	0.043245	-0.664994
46676		4.674708	1.233241	3.024342	-0.074828	0.075088	-0.237181	-0.400146	-0.812744	-0.216553	-0.576154	-0.474425	0.042480	-0.664200
46677		4.255536	1.013815	2.844297	0.020648	-0.006122	-0.117954	-0.406006	-0.810059	-0.212646	-0.576600	-0.474631	0.042054	-0.663694
46678		4.327159	1.327486	2.633295	0.056066	-0.054070	0.001876	-0.404053	-0.808594	-0.201172	-0.576224	-0.475227	0.042141	-0.663588
46679		4.779303	1.785703	2.623227	-0.051756	-0.039952	0.105525	-0.399414	-0.801514	-0.214355	-0.575705	-0.475188	0.043172	-0.664001
46680		4.621607	1.261392	2.835554	-0.157213	-0.016182	0.215217	-0.404297	-0.809082	-0.209717	-0.575001	-0.474470	0.045111	-0.664994
46681		4.202453	0.666390	3.067206	-0.063407	-0.112347	0.297141	-0.406982	-0.806641	-0.212402	-0.573431	-0.474698	0.047320	-0.666033
46682		4.475289	0.846089	3.102948	0.071983	-0.240755	0.367746	-0.424561	-0.799805	-0.208984	-0.570875	-0.476246	0.049675	-0.666951
46683		4.940653	1.298607	2.945493	0.104539	-0.317537	0.438007	-0.421143	-0.792725	-0.213379	-0.567756	-0.478334	0.052499	-0.667903
46684		5.211539	1.391161	2.733679	0.069121	-0.348261	0.531812	-0.430908	-0.784912	-0.205811	-0.564225	-0.480368	0.056042	-0.669146
46685		5.309646	1.220136	2.535499	0.050958	-0.388131	0.644245	-0.442383	-0.782715	-0.204834	-0.560098	-0.482469	0.060327	-0.670727
46686		5.543923	1.233958	2.683541	0.048598	-0.433572	0.748054	-0.452148	-0.778320	-0.200684	-0.555347	-0.484736	0.065258	-0.672578
46687		6.173696	1.508898	3.036200	0.011130	-0.454272	0.837772	-0.468994	-0.768799	-0.197510	-0.550197	-0.486867	0.070859	-0.674702
46688		6.519612	1.261646	3.364290	-0.079867	-0.474169	0.932655	-0.484863	-0.761963	-0.196045	-0.544828	-0.488599	0.077449	-0.677078
46689		6.662582	1.067007	3.348261	-0.081585	-0.541931	1.008055	-0.499512	-0.746582	-0.197754	-0.538945	-0.490612	0.084663	-0.679463
46690		7.049160	1.256462	3.342511	-0.049248	-0.616281	1.064774	-0.513184	-0.733154	-0.195801	-0.532498	-0.493098	0.092258	-0.681754
46691		7.768893	1.734434	3.259312	-0.023799	-0.669426	1.105698	-0.528564	-0.725342	-0.194580	-0.525608	-0.495908	0.100108	-0.683951
46692		8.256971	1.970122	3.396881	-0.028720	-0.704888	1.144635	-0.546875	-0.703369	-0.188232	-0.518417	-0.498805	0.108296	-0.686083
46693		8.555795	1.916412	3.770057	-0.030890	-0.731677	1.174610	-0.568359	-0.694824	-0.181396	-0.510965	-0.501751	0.116726	-0.688139
46694		8.554398	1.761778	3.938821	-0.007106	-0.787584	1.183695	-0.581299	-0.685059	-0.174072	-0.503232	-0.505037	0.125283	-0.689927
46695		8.915330	2.122337	3.606633	0.010348	-0.881927	1.154253	-0.605469	-0.665283	-0.166504	-0.495418	-0.508893	0.133996	-0.691111
46696		9.302461	2.267242	3.527086	-0.011028	-0.914686	1.116738	-0.617188	-0.653564	-0.154053	-0.487797	-0.512814	0.142789	-0.691872
46697		9.789499	2.099218	3.710026	-0.010800	-0.924331	1.109030	-0.629150	-0.638916	-0.146484	-0.480132	-0.516724	0.151567	-0.692457
46698		9.999037	2.295948	3.875547	-0.020403	-0.935609	1.114208	-0.656982	-0.619385	-0.139893	-0.472389	-0.520576	0.160445	-0.692897
46699		10.216510	2.166877	3.970315	-0.108954	-0.944856	1.127542	-0.662354	-0.604492	-0.134521	-0.464867	-0.524035	0.169903	-0.693123
46700		10.130497	1.698737	3.995601	-0.142559	-0.927107	1.099031	-0.681641	-0.584961	-0.125732	-0.457608	-0.527219	0.179335	-0.693162
46701		10.395881	1.534379	4.058311	-0.064830	-0.975495	1.066462	-0.691406	-0.573242	-0.120117	-0.450054	-0.530947	0.188332	-0.692876
46702		10.676435	1.860567	3.920000	-0.005921	-0.960189	1.065024	-0.708252	-0.555176	-0.099365	-0.442204	-0.534728	0.196896	-0.692643
46703		10.843698	2.077651	3.644134	-0.037020	-0.911690	1.063977	-0.719727	-0.538330	-0.088135	-0.434512	-0.538037	0.205424	-0.692471
46704		10.872500	2.262091	3.205419	-0.090226	-0.861225	1.033904	-0.731689	-0.523682	-0.093994	-0.427262	-0.540839	0.213911	-0.692230
46705		10.872137	1.654349	3.237906	-0.096150	-0.808883	0.999751	-0.738037	-0.513672	-0.079834	-0.420279	-0.543311	0.222062	-0.692003
46706		10.983316	1.460761	3.032303	-0.047516	-0.806504	0.990500	-0.749512	-0.488281	-0.064453	-0.413081	-0.545893	0.229850	-0.691761
46707		10.933624	1.397871	2.934204	-0.074421	-0.773542	0.984829	-0.752197	-0.476318	-0.055420	-0.406053	-0.548140	0.237625	-0.691518
46708		10.887799	1.552192	2.679802	-0.205068	-0.697576	0.978081	-0.774170	-0.450195	-0.051514	-0.399772	-0.549460	0.245836	-0.691261
46709		10.429675	0.837200	2.728304	-0.275621	-0.644062	0.936068	-0.778320	-0.440918	-0.038330	-0.394124	-0.550265	0.254055	-0.690891
46710		10.378760	0.093905	2.714252	-0.137763	-0.697331	0.884394	-0.783936	-0.418457	-0.028320	-0.387991	-0.551888	0.261386	-0.690333
46711		10.421759	-0.037439	2.428546	0.024103	-0.784935	0.850356	-0.793213	-0.407227	-0.021240	-0.381084	-0.554557	0.267890	-0.689548
46712		10.632699	0.399270	1.979543	0.027260	-0.816872	0.837445	-0.790039	-0.397705	-0.015625	-0.374129	-0.557391	0.274389	-0.688515
46713		10.854065	0.416478	1.653568	-0.075495	-0.773447	0.831990	-0.807129	-0.377441	-0.004150	-0.367746	-0.559616	0.281288	-0.687365
46714		10.573215	0.236035	1.478052	-0.122641	-0.756041	0.813277	-0.802490	-0.363770	0.004395	-0.361698	-0.561590	0.288287	-0.686062
46715		10.459119	-0.271098	1.348004	-0.068295	-0.790922	0.787066	-0.814941	-0.344482	0.012939	-0.355430	-0.563941	0.294930	-0.684584
46716		10.484842	-0.453722	1.273660	0.042407	-0.845991	0.761803	-0.812988	-0.333252	0.035889	-0.348618	-0.566945	0.300957	-0.682981
46717		10.596371	-0.340217	1.098180	0.115522	-0.873162	0.753686	-0.824463	-0.325195	0.051758	-0.341404	-0.570283	0.306579	-0.681344
46718		10.721666	-0.182851	0.969548	0.062484	-0.849758	0.740762	-0.820068	-0.315186	0.054688	-0.334545	-0.573317	0.312342	-0.679581
46719		10.766389	-0.193574	1.002720	-0.006953	-0.807762	0.736170	-0.837402	-0.286377	0.071289	-0.328124	-0.575881	0.318329	-0.677763
46720		10.861085	-0.215569	0.964120	-0.048792	-0.778633	0.731399	-0.827393	-0.280762	0.082275	-0.321982	-0.578132	0.324419	-0.675902
46721		10.746994	-0.442488	1.020551	-0.102744	-0.735473	0.720552	-0.832031	-0.275146	0.083740	-0.316255	-0.579979	0.330615	-0.674019
46722		10.726306	-0.753133	0.994094	-0.096444	-0.716166	0.693863	-0.835449	-0.257324	0.100098	-0.310679	-0.581764	0.336568	-0.672125
46723		10.867521	-0.720535	0.857335	-0.075467	-0.701701	0.653765	-0.835938	-0.245850	0.114014	-0.305247	-0.583594	0.342144	-0.670208
46724		10.802297	-0.869642	0.895192	-0.113361	-0.688666	0.626751	-0.834717	-0.238525	0.125977	-0.300170	-0.585294	0.347742	-0.668135
46725		10.720449	-0.971821	0.822420	-0.115558	-0.691232	0.618740	-0.833984	-0.218994	0.135010	-0.295125	-0.586989	0.353293	-0.665980
46726		10.556113	-1.083396	0.713589	-0.078845	-0.712116	0.602593	-0.838379	-0.212891	0.149902	-0.289912	-0.588900	0.358587	-0.663749
46727		10.531006	-1.090910	0.545984	-0.053793	-0.736198	0.575709	-0.837891	-0.204346	0.162109	-0.284638	-0.591048	0.363642	-0.661368
46728		10.600441	-1.016989	0.546586	-0.065064	-0.743732	0.542623	-0.838379	-0.194824	0.166504	-0.279563	-0.593274	0.368588	-0.658797
46729		10.621957	-1.168912	0.527368	-0.084169	-0.735072	0.509624	-0.833984	-0.182129	0.183594	-0.274778	-0.595473	0.373429	-0.656094
46730		10.626835	-1.199284	0.500306	-0.090489	-0.732486	0.480361	-0.840088	-0.174316	0.200439	-0.270179	-0.597701	0.378128	-0.653281
46731		10.706630	-1.219790	0.486927	-0.068558	-0.739445	0.455586	-0.833984	-0.166748	0.199707	-0.265572	-0.600061	0.382575	-0.650411
46732		10.557289	-1.296092	0.298033	-0.063056	-0.731374	0.436007	-0.831299	-0.168457	0.209473	-0.261060	-0.602420	0.386850	-0.647522
46733		10.362125	-1.665289	0.298568	-0.061821	-0.699462	0.414116	-0.822021	-0.155273	0.223389	-0.256753	-0.604649	0.390915	-0.644719
46734		10.362510	-1.508774	0.141820	-0.041335	-0.674017	0.390123	-0.827148	-0.155273	0.243164	-0.252545	-0.606835	0.394674	-0.642032
46735		10.573442	-1.322850	0.082815	-0.082704	-0.597191	0.374602	-0.832031	-0.137939	0.245117	-0.248876	-0.608549	0.398394	-0.639540
46736		10.691175	-1.303097	0.145878	-0.171419	-0.493898	0.367988	-0.814697	-0.133301	0.254639	-0.246031	-0.609530	0.402320	-0.637244
46737		10.648731	-1.400744	0.161693	-0.219746	-0.402397	0.368789	-0.824463	-0.127930	0.258301	-0.243733	-0.609908	0.406304	-0.635235
46738		10.459096	-1.462001	0.083144	-0.249623	-0.334331	0.371640	-0.824707	-0.119629	0.267090	-0.241800	-0.609839	0.410307	-0.633464
46739		10.290839	-1.648300	0.068519	-0.266518	-0.260544	0.368868	-0.831543	-0.108154	0.273193	-0.240220	-0.609344	0.414223	-0.631992
46740		10.257556	-1.942657	0.275833	-0.268893	-0.189606	0.348949	-0.823975	-0.114502	0.284424	-0.239002	-0.608526	0.417897	-0.630822
46741		10.256333	-2.011457	0.312909	-0.234546	-0.156255	0.326639	-0.814941	-0.106689	0.273438	-0.237843	-0.607669	0.421200	-0.629888
46742		10.053223	-2.014039	0.303314	-0.211882	-0.131693	0.308461	-0.821045	-0.112061	0.281982	-0.236753	-0.606783	0.424233	-0.629118
46743		9.929623	-2.107113	0.147562	-0.218199	-0.096773	0.303012	-0.818359	-0.098877	0.274170	-0.235847	-0.605711	0.427195	-0.628485
46744		9.927455	-2.129840	-0.005451	-0.244306	-0.058369	0.297879	-0.817139	-0.096924	0.282227	-0.235238	-0.604398	0.430184	-0.627939
46745		9.972737	-2.143236	-0.191394	-0.325969	0.003135	0.296273	-0.812256	-0.100342	0.280029	-0.235269	-0.602600	0.433463	-0.627401
46746		9.830117	-2.305217	-0.316457	-0.388609	0.052984	0.289974	-0.810303	-0.087891	0.284912	-0.235828	-0.600431	0.436931	-0.626865
46747		9.786654	-2.369943	-0.400291	-0.380368	0.048513	0.264230	-0.814453	-0.093262	0.277588	-0.236462	-0.598385	0.440225	-0.626277
46748		9.812154	-2.342698	-0.418381	-0.354738	0.035293	0.230971	-0.815918	-0.078125	0.282471	-0.237093	-0.596571	0.443237	-0.625644
46749		9.841599	-2.264985	-0.524568	-0.318073	0.018049	0.191797	-0.814697	-0.080078	0.282227	-0.237682	-0.595058	0.445890	-0.624976
46750		9.746892	-2.408486	-0.649274	-0.282631	0.002918	0.159724	-0.817383	-0.075928	0.276855	-0.238206	-0.593808	0.448223	-0.624297
46751		9.745825	-2.442024	-0.822965	-0.229173	-0.021175	0.131808	-0.815674	-0.080078	0.272217	-0.238522	-0.592890	0.450183	-0.623639
46752		9.716520	-2.431721	-0.926024	-0.196780	-0.030203	0.110673	-0.811035	-0.074707	0.279053	-0.238754	-0.592160	0.451883	-0.623013
46753		9.716249	-2.475020	-0.937809	-0.188594	-0.013064	0.103470	-0.826416	-0.089355	0.285156	-0.239049	-0.591382	0.453469	-0.622486
46754		9.617096	-2.637621	-0.829816	-0.161648	-0.014513	0.087973	-0.811035	-0.077881	0.277100	-0.239287	-0.590724	0.454838	-0.622020
46755		9.493030	-2.740002	-0.841180	-0.090620	-0.042280	0.062793	-0.811523	-0.079590	0.278809	-0.239202	-0.590445	0.455769	-0.621637
46756		9.634030	-2.696558	-0.879235	-0.035599	-0.058075	0.052500	-0.818359	-0.077393	0.278320	-0.238840	-0.590396	0.456394	-0.621364
46757		9.677823	-2.771663	-0.812995	-0.025639	-0.044920	0.030470	-0.817139	-0.076172	0.282715	-0.238594	-0.590383	0.456831	-0.621149
46758		9.602467	-2.816613	-0.770629	-0.002392	-0.039017	0.012933	-0.813965	-0.076416	0.277100	-0.238348	-0.590451	0.457049	-0.621019
46759		9.628000	-2.664820	-0.812814	0.033723	-0.050474	-0.002901	-0.821289	-0.071289	0.283203	-0.237964	-0.590710	0.457023	-0.620938
46760		9.652872	-2.674059	-0.904911	0.036369	-0.042815	-0.002001	-0.808838	-0.075684	0.287842	-0.237593	-0.590931	0.456972	-0.620908
46761		9.608420	-2.723917	-0.988320	0.037128	-0.021448	0.003551	-0.813477	-0.071533	0.288574	-0.237271	-0.591022	0.456901	-0.620996
46762		9.577324	-2.683982	-1.034033	0.030225	0.003791	0.000958	-0.813721	-0.077148	0.286377	-0.237095	-0.590979	0.456801	-0.621178
46763		9.545813	-2.659576	-1.047545	0.021947	0.025565	0.004740	-0.813965	-0.074463	0.285645	-0.237023	-0.590792	0.456720	-0.621444
46764		9.537841	-2.660359	-1.100548	0.001211	0.053363	0.002105	-0.807861	-0.078857	0.284424	-0.237174	-0.590430	0.456676	-0.621761
46765		9.485778	-2.667010	-1.141090	-0.027911	0.071760	-0.001109	-0.810791	-0.074463	0.279053	-0.237556	-0.589928	0.456731	-0.622052
46766		9.421823	-2.777628	-1.200978	-0.038012	0.071796	-0.006845	-0.814209	-0.079102	0.282715	-0.238018	-0.589428	0.456808	-0.622293
46767		9.322686	-2.878506	-1.221187	-0.035114	0.063027	-0.012670	-0.819580	-0.078369	0.281006	-0.238463	-0.589001	0.456859	-0.622489
46768		9.238741	-2.827027	-1.309553	-0.034923	0.053022	-0.014759	-0.811279	-0.069336	0.277100	-0.238880	-0.588634	0.456919	-0.622632
46769		9.282899	-2.833260	-1.269116	-0.051252	0.061588	-0.012922	-0.812256	-0.080566	0.274414	-0.239400	-0.588184	0.457055	-0.622758
46770		9.224305	-3.015996	-1.276232	-0.051720	0.056136	-0.020836	-0.821777	-0.078369	0.278564	-0.239943	-0.587791	0.457166	-0.622839
46771		9.210098	-3.087427	-1.290505	-0.038657	0.042086	-0.026838	-0.814697	-0.074219	0.274902	-0.240399	-0.587520	0.457208	-0.622888
46772		9.173901	-3.044067	-1.260150	0.006888	0.014536	-0.037746	-0.806641	-0.068604	0.278076	-0.240583	-0.587524	0.457016	-0.622954
46773		9.222214	-2.942070	-1.264783	0.032013	-0.010924	-0.046504	-0.813965	-0.074951	0.279053	-0.240592	-0.587745	0.456702	-0.622973
46774		9.241876	-2.813050	-1.317672	0.040024	-0.020289	-0.049458	-0.818115	-0.082520	0.280273	-0.240541	-0.588041	0.456352	-0.622969
46775		9.321186	-2.808482	-1.340323	0.037851	-0.022041	-0.054810	-0.810059	-0.081299	0.267090	-0.240522	-0.588362	0.455990	-0.622938
46776		9.278630	-2.883867	-1.232136	0.050898	-0.027428	-0.060026	-0.816162	-0.074463	0.271240	-0.240446	-0.588758	0.455546	-0.622919
46777		9.259040	-2.849187	-1.207153	0.095027	-0.057923	-0.075612	-0.821045	-0.086182	0.279297	-0.240118	-0.589459	0.454857	-0.622885
46778		9.394106	-2.774772	-1.152135	0.122135	-0.079988	-0.088765	-0.818604	-0.080322	0.277832	-0.239641	-0.590378	0.454007	-0.622819
46779		9.455258	-2.724759	-1.063930	0.133077	-0.091489	-0.106557	-0.811523	-0.073975	0.281250	-0.239160	-0.591445	0.453034	-0.622700
46780		9.506412	-2.614298	-0.961836	0.142394	-0.100603	-0.121808	-0.821289	-0.078369	0.279785	-0.238676	-0.592634	0.451954	-0.622540
46781		9.642235	-2.428021	-0.923547	0.138213	-0.095293	-0.124597	-0.817139	-0.084717	0.281738	-0.238248	-0.593796	0.450870	-0.622383
46782		9.701179	-2.385664	-0.926750	0.118898	-0.085337	-0.131364	-0.811523	-0.083008	0.282227	-0.237989	-0.594892	0.449830	-0.622188
46783		9.692575	-2.457404	-0.805938	0.097325	-0.067377	-0.145317	-0.811279	-0.082275	0.281982	-0.237977	-0.595903	0.448794	-0.621973
46784		9.705891	-2.463195	-0.694770	0.103905	-0.065836	-0.162564	-0.819580	-0.086670	0.291992	-0.238028	-0.596983	0.447633	-0.621754
46785		9.785379	-2.335914	-0.558927	0.100265	-0.059044	-0.179633	-0.809570	-0.094971	0.288330	-0.238212	-0.598083	0.446390	-0.621521
46786		9.855015	-2.250869	-0.541998	0.093472	-0.047443	-0.194226	-0.817871	-0.096436	0.288818	-0.238549	-0.599161	0.445083	-0.621291
46787		9.872500	-2.202222	-0.529406	0.099718	-0.038220	-0.205616	-0.807861	-0.098389	0.291992	-0.238949	-0.600244	0.443665	-0.621106
46788		9.956757	-2.035286	-0.491887	0.132355	-0.031883	-0.219689	-0.807129	-0.099609	0.287354	-0.239283	-0.601408	0.441991	-0.621044
46789		10.096690	-1.810501	-0.518705	0.139209	-0.000514	-0.232291	-0.818604	-0.096924	0.279053	-0.239764	-0.602468	0.440151	-0.621137
46790		10.161391	-1.789773	-0.447538	0.144507	0.036273	-0.251500	-0.812500	-0.103516	0.281494	-0.240455	-0.603416	0.438109	-0.621394
46791		10.294852	-1.705868	-0.260105	0.167619	0.066441	-0.277756	-0.813477	-0.115967	0.278076	-0.241276	-0.604347	0.435749	-0.621831
46792		10.392391	-1.413508	-0.112565	0.183011	0.096578	-0.307044	-0.816895	-0.114746	0.283203	-0.242282	-0.605253	0.433093	-0.622413
46793		10.534434	-1.090911	-0.028344	0.166398	0.144847	-0.332745	-0.811768	-0.111084	0.281250	-0.243679	-0.605963	0.430288	-0.623122
46794		10.743064	-0.988592	-0.002496	0.105733	0.223005	-0.349067	-0.815186	-0.115479	0.273193	-0.245749	-0.606196	0.427547	-0.623969
46795		10.709865	-1.186790	0.098862	0.051815	0.297460	-0.366556	-0.815186	-0.121094	0.277344	-0.248448	-0.605986	0.424835	-0.624956
46796		10.702678	-1.346514	0.197304	0.060930	0.327411	-0.390517	-0.819336	-0.129883	0.259521	-0.251331	-0.605714	0.421880	-0.626067
46797		10.778610	-1.302387	0.252621	0.097099	0.351574	-0.431908	-0.822754	-0.138916	0.255371	-0.254331	-0.605525	0.418464	-0.627330
46798		10.927624	-1.035554	0.293945	0.116423	0.377680	-0.489339	-0.821289	-0.138916	0.257324	-0.257621	-0.605425	0.414587	-0.628657
46799		11.042413	-1.114751	0.219395	0.126703	0.417304	-0.541640	-0.817871	-0.145996	0.250000	-0.261264	-0.605303	0.410291	-0.630088
46800		11.024086	-1.351980	0.254621	0.134995	0.466947	-0.582538	-0.827148	-0.148682	0.240479	-0.265243	-0.605055	0.405617	-0.631687
46801		11.046603	-1.389581	0.332690	0.166150	0.490312	-0.621804	-0.831787	-0.163086	0.231201	-0.269342	-0.604860	0.400509	-0.633397
46802		11.166463	-1.078822	0.269390	0.173101	0.533235	-0.669685	-0.826904	-0.179688	0.219971	-0.273791	-0.604582	0.395005	-0.635209
46803		11.144988	-0.957613	0.388210	0.141092	0.607504	-0.712064	-0.836914	-0.187744	0.211914	-0.278857	-0.603943	0.389261	-0.637156
46804		11.371541	-0.583063	0.517305	0.123117	0.673535	-0.769471	-0.829590	-0.197998	0.201172	-0.284513	-0.603057	0.383141	-0.639201
46805		11.697203	-0.327685	0.655553	0.095288	0.766031	-0.822124	-0.829834	-0.217529	0.189209	-0.290864	-0.601731	0.376649	-0.641446
46806		11.661115	-0.374677	0.779124	0.063815	0.866562	-0.874023	-0.831543	-0.234131	0.176025	-0.297945	-0.599895	0.369782	-0.643907
46807		11.530514	-1.011439	1.047057	0.092531	0.942375	-0.928757	-0.831543	-0.246582	0.154053	-0.305380	-0.597823	0.362253	-0.646625
46808		11.475083	-0.831680	1.191859	0.132226	0.985723	-0.989393	-0.829102	-0.259277	0.142090	-0.313039	-0.595715	0.354052	-0.649444
46809		11.477499	-0.678069	1.406665	0.117283	1.058239	-1.018345	-0.822266	-0.282715	0.133789	-0.321089	-0.593179	0.345544	-0.652410
46810		11.675895	0.175767	1.602421	0.105476	1.105475	-1.025807	-0.831055	-0.297607	0.114990	-0.329329	-0.590292	0.336873	-0.655450
46811		11.788434	0.538979	1.458635	0.040047	1.188971	-0.980699	-0.821777	-0.318115	0.091064	-0.337826	-0.586536	0.328504	-0.658737
46812		11.450415	-0.344348	1.620232	0.023399	1.268385	-0.911092	-0.814697	-0.328857	0.075928	-0.346184	-0.582008	0.320282	-0.662452
46813		11.428230	-0.601895	1.856300	0.152469	1.258165	-0.899349	-0.817139	-0.351562	0.060059	-0.353757	-0.577781	0.311377	-0.666386
46814		11.556348	-0.374463	2.016240	0.231866	1.258961	-0.928197	-0.810303	-0.358398	0.041260	-0.361047	-0.573757	0.301838	-0.670330
46815		11.542955	0.113159	2.184825	0.235677	1.278569	-0.971035	-0.799561	-0.380371	0.017578	-0.368541	-0.569637	0.291962	-0.674128
46816		11.312071	0.158592	2.164200	0.220531	1.288934	-0.996747	-0.797363	-0.396484	-0.009033	-0.376207	-0.565369	0.281962	-0.677734
46817		11.241759	0.266210	2.156374	0.209829	1.289553	-1.017698	-0.787354	-0.414795	-0.016846	-0.383970	-0.561004	0.271869	-0.681123
46818		11.078896	0.307124	2.164003	0.182501	1.286077	-1.015791	-0.778809	-0.438477	-0.030518	-0.391767	-0.556460	0.261900	-0.684309
46819		10.998036	0.269123	2.264307	0.160765	1.286028	-1.018698	-0.765869	-0.445312	-0.050781	-0.399605	-0.551745	0.251995	-0.687307
46820		10.982279	0.557840	2.442011	0.112526	1.285727	-1.029077	-0.758057	-0.464844	-0.059570	-0.407646	-0.546789	0.242274	-0.690036
46821		10.792408	0.650005	2.634628	0.061259	1.258929	-1.041049	-0.745361	-0.483887	-0.089600	-0.415856	-0.541733	0.232842	-0.692368
46822		10.579835	0.595944	2.726742	0.074419	1.220357	-1.055626	-0.733643	-0.501953	-0.084961	-0.423937	-0.536874	0.223361	-0.694373
46823		10.529262	0.860446	2.782987	0.106861	1.182150	-1.069744	-0.720459	-0.517578	-0.115967	-0.431806	-0.532280	0.213729	-0.696091
46824		10.613083	1.265454	2.999034	0.069851	1.180098	-1.077287	-0.707520	-0.533691	-0.124268	-0.439799	-0.527483	0.204250	-0.697581
46825		10.289054	1.260353	3.037890	-0.018479	1.198484	-1.067109	-0.693848	-0.554443	-0.139893	-0.448073	-0.522145	0.195229	-0.698914
46826		10.073388	1.056362	3.344246	-0.060108	1.187668	-1.078312	-0.681152	-0.564209	-0.154541	-0.456492	-0.516640	0.186411	-0.699963
46827		10.053056	1.303691	3.400621	-0.067978	1.162096	-1.071138	-0.670654	-0.578857	-0.162598	-0.464782	-0.511152	0.177739	-0.700793
46828		9.728830	1.358031	3.176703	-0.109577	1.143038	-1.048136	-0.648926	-0.600098	-0.177979	-0.473004	-0.505493	0.169455	-0.701448
46829		9.401821	1.467807	3.045073	-0.128548	1.098573	-1.055350	-0.638916	-0.612305	-0.188232	-0.481205	-0.499946	0.161404	-0.701744
46830		9.024094	1.408517	2.987225	-0.096396	1.030900	-1.081068	-0.621338	-0.625732	-0.201416	-0.489253	-0.494881	0.153309	-0.701584
46831		8.848613	1.437029	3.146273	-0.032985	0.932828	-1.098243	-0.599121	-0.642578	-0.207031	-0.496939	-0.490597	0.145155	-0.700925
46832		8.504458	1.467668	3.070358	0.009356	0.844043	-1.088303	-0.584717	-0.668945	-0.211426	-0.504216	-0.486930	0.137147	-0.699897
46833		8.280994	1.779505	2.841536	-0.025013	0.761381	-1.083501	-0.578125	-0.663086	-0.222412	-0.511444	-0.483534	0.129694	-0.698426
46834		8.069124	1.972563	2.696367	-0.064103	0.691156	-1.077490	-0.549561	-0.682861	-0.228027	-0.518657	-0.480320	0.122783	-0.696571
46835		7.770572	1.729358	2.763041	-0.065823	0.636133	-1.049286	-0.535645	-0.689941	-0.230957	-0.525599	-0.477340	0.116224	-0.694539
46836		7.574956	1.705456	2.698468	-0.025510	0.559602	-1.008582	-0.527344	-0.712402	-0.229004	-0.532017	-0.474896	0.109923	-0.692350
46837		7.185935	1.792823	2.598364	-0.032419	0.494490	-0.972532	-0.510742	-0.719971	-0.233887	-0.538146	-0.472726	0.104089	-0.689996
46838		6.747301	1.797125	2.655133	-0.010453	0.420439	-0.962360	-0.504395	-0.735107	-0.242188	-0.544022	-0.471036	0.098499	-0.687359
46839		6.627122	1.799261	2.798553	0.042004	0.335646	-0.937872	-0.492432	-0.734131	-0.239258	-0.549442	-0.470019	0.093086	-0.684493
46840		6.519730	1.756901	3.048463	0.037059	0.276510	-0.879667	-0.471924	-0.744629	-0.246826	-0.554467	-0.469243	0.088199	-0.681615
46841		6.094552	1.598437	3.024233	-0.017886	0.232884	-0.797042	-0.460938	-0.756592	-0.250488	-0.559174	-0.468377	0.084149	-0.678871
46842		5.747337	1.625543	2.947652	-0.067416	0.189817	-0.732519	-0.445801	-0.767822	-0.246338	-0.563654	-0.467461	0.080833	-0.676195
46843		5.746589	1.709567	2.874890	-0.099001	0.142886	-0.668587	-0.437256	-0.765625	-0.245605	-0.567844	-0.466601	0.078166	-0.673592
46844		5.552823	1.632275	2.826593	-0.109820	0.092243	-0.576963	-0.433350	-0.769775	-0.247314	-0.571512	-0.465903	0.076158	-0.671199
46845		5.056024	1.325876	2.791556	-0.063166	-0.002780	-0.481001	-0.432373	-0.775635	-0.245605	-0.574389	-0.465890	0.074716	-0.668910
46846		5.088405	1.497825	2.819367	-0.024796	-0.095111	-0.405327	-0.421387	-0.781494	-0.243164	-0.576629	-0.466523	0.073801	-0.666640
46847		5.082563	1.724945	2.665486	-0.057766	-0.133321	-0.327857	-0.422852	-0.787842	-0.244629	-0.578536	-0.467157	0.073556	-0.664567
46848		4.877209	1.398508	2.676262	-0.086365	-0.155856	-0.219828	-0.419922	-0.782959	-0.246094	-0.579938	-0.467710	0.074002	-0.662905
46849		4.636586	0.951841	2.744471	-0.033007	-0.192448	-0.094525	-0.421631	-0.790771	-0.246338	-0.580413	-0.468644	0.074822	-0.661737
46850		4.768866	1.335909	2.878308	-0.019549	-0.215893	0.017388	-0.419922	-0.786865	-0.246338	-0.580201	-0.469700	0.076123	-0.661025
46851		5.148162	1.598941	3.117465	-0.093135	-0.178761	0.108184	-0.413818	-0.781982	-0.236328	-0.579798	-0.470137	0.078009	-0.660849
46852		5.116248	1.238490	3.552633	-0.104426	-0.168628	0.184476	-0.424072	-0.783203	-0.244629	-0.579022	-0.470410	0.080210	-0.661071
46853		5.339323	0.939370	3.763095	0.009150	-0.211680	0.284040	-0.430176	-0.781738	-0.251953	-0.577218	-0.471397	0.082388	-0.661677
46854		5.561305	1.057085	3.670794	0.116845	-0.261662	0.400892	-0.429688	-0.775879	-0.238525	-0.574305	-0.473089	0.084675	-0.662715
46855		5.800710	1.455957	3.601584	0.096139	-0.259441	0.510415	-0.441406	-0.764160	-0.234619	-0.570857	-0.474580	0.087501	-0.664259
46856		5.915091	1.788819	3.499109	0.018734	-0.236077	0.588616	-0.456787	-0.768311	-0.237305	-0.567283	-0.475502	0.090956	-0.666194
46857		6.072914	1.713560	3.539130	-0.036187	-0.220981	0.667920	-0.467529	-0.750977	-0.240234	-0.563479	-0.476004	0.094960	-0.668502
46858		6.230123	1.458547	3.610253	-0.000869	-0.279208	0.734281	-0.473145	-0.747314	-0.232910	-0.559096	-0.476922	0.099303	-0.670892
46859		6.655364	1.452035	3.708627	0.069747	-0.380756	0.794564	-0.487305	-0.738281	-0.231689	-0.553982	-0.478662	0.103965	-0.673185
46860		6.989958	1.886966	3.529484	0.084982	-0.450973	0.839193	-0.503174	-0.733643	-0.236572	-0.548461	-0.480797	0.109041	-0.675377
46861		7.208233	2.264346	3.256583	0.009615	-0.479969	0.879757	-0.514893	-0.726562	-0.224365	-0.542949	-0.482679	0.114834	-0.677525
46862		7.242277	2.039456	3.101707	-0.059374	-0.506728	0.918139	-0.521240	-0.708252	-0.222900	-0.537431	-0.484328	0.121286	-0.679621
46863		7.496701	1.811309	3.356207	-0.054159	-0.571933	0.936170	-0.542236	-0.696045	-0.226074	-0.531677	-0.486310	0.128067	-0.681484
46864		8.087308	1.844982	3.515792	-0.028759	-0.656480	0.957199	-0.562256	-0.686768	-0.210938	-0.525562	-0.488818	0.135156	-0.683063
46865		8.201356	1.721806	3.501844	-0.087121	-0.712839	0.993939	-0.575684	-0.680664	-0.218262	-0.519356	-0.491299	0.142964	-0.684438
46866		8.137366	1.707050	3.501569	-0.123460	-0.785078	0.988448	-0.585938	-0.660645	-0.201416	-0.513186	-0.493986	0.151257	-0.685375
46867		8.730178	2.083988	3.273216	-0.099839	-0.875210	0.965987	-0.603760	-0.651123	-0.207520	-0.506871	-0.497258	0.159695	-0.685794
46868		9.084861	2.242742	3.510111	-0.137366	-0.924068	0.945285	-0.618408	-0.631836	-0.200928	-0.500700	-0.500617	0.168450	-0.685789
46869		9.462409	2.075834	3.992652	-0.157035	-0.980393	0.933659	-0.631592	-0.629150	-0.185547	-0.494533	-0.504168	0.177484	-0.685384
46870		9.664374	1.690593	4.300198	-0.174774	-0.998471	0.932710	-0.648682	-0.607666	-0.184814	-0.488352	-0.507682	0.186669	-0.684782
46871		9.888433	1.786361	3.744918	-0.218423	-1.014919	0.928810	-0.664062	-0.592041	-0.164307	-0.482284	-0.511048	0.196129	-0.683934
46872		9.846238	1.730156	3.523605	-0.280232	-0.990102	0.900395	-0.679199	-0.582764	-0.154541	-0.476615	-0.514000	0.205696	-0.682884
46873		9.964638	0.935979	3.720275	-0.102405	-1.040378	0.864379	-0.688232	-0.572754	-0.155762	-0.470239	-0.517938	0.214271	-0.681691
46874		10.389960	1.299371	3.824563	0.133394	-1.097184	0.844448	-0.703613	-0.559326	-0.142090	-0.462794	-0.523087	0.221617	-0.680506
46875		10.559265	2.028675	3.447626	0.154273	-1.068091	0.870297	-0.708008	-0.538330	-0.119141	-0.455098	-0.528030	0.228817	-0.679494
46876		10.683327	1.978170	2.898732	-0.009933	-0.935446	0.915994	-0.724121	-0.528564	-0.113281	-0.448057	-0.531446	0.236612	-0.678841
46877		10.396307	1.253219	2.906599	-0.117399	-0.815265	0.927381	-0.730713	-0.517334	-0.104004	-0.441616	-0.533693	0.244593	-0.678470
46878		10.394632	0.643464	3.008577	0.001010	-0.820481	0.919818	-0.735107	-0.491699	-0.100342	-0.434631	-0.536364	0.251861	-0.678215
46879		10.652306	0.760224	3.057083	0.112746	-0.822517	0.907683	-0.741211	-0.473145	-0.080078	-0.427170	-0.539408	0.258438	-0.678067
46880		10.743717	1.441938	2.531847	0.119124	-0.817465	0.907514	-0.760010	-0.464111	-0.068604	-0.419632	-0.542398	0.264918	-0.677888
46881		10.774795	1.348302	2.275775	-0.055966	-0.717929	0.925517	-0.774414	-0.456299	-0.060791	-0.412962	-0.544116	0.272094	-0.677766
46882		10.466118	0.713632	2.200583	-0.141343	-0.658338	0.917377	-0.781006	-0.434326	-0.054688	-0.406822	-0.545169	0.279482	-0.677626
46883		10.634551	0.248986	2.266028	-0.098047	-0.666454	0.895796	-0.784912	-0.416504	-0.045166	-0.400553	-0.546413	0.286532	-0.677413
46884		10.499397	0.191133	2.272157	-0.012459	-0.717971	0.861826	-0.791992	-0.389893	-0.041992	-0.393926	-0.548266	0.293089	-0.676997
46885		10.631762	0.355841	2.083641	0.044996	-0.770972	0.813774	-0.787109	-0.387939	-0.026123	-0.387143	-0.550673	0.299250	-0.676261
46886		10.640922	0.578911	1.899619	0.033375	-0.786522	0.778881	-0.795654	-0.375000	-0.009277	-0.380536	-0.553168	0.305338	-0.675252
46887		10.608723	0.195138	1.844088	0.020004	-0.786048	0.745083	-0.812256	-0.365723	-0.005859	-0.374150	-0.555657	0.311317	-0.674047
46888		10.727524	-0.079925	1.747168	0.026040	-0.799727	0.721785	-0.814209	-0.351807	0.003662	-0.367800	-0.558255	0.317169	-0.672665
46889		10.778617	-0.240694	1.614438	0.009644	-0.791863	0.706829	-0.815186	-0.343994	0.025391	-0.361601	-0.560752	0.322993	-0.671177
46890		10.749672	0.070337	1.526627	-0.022667	-0.776621	0.695840	-0.829834	-0.318848	0.026611	-0.355625	-0.563051	0.328873	-0.669587
46891		10.548522	-0.220499	1.320778	-0.061693	-0.743191	0.670359	-0.823242	-0.307373	0.049072	-0.350041	-0.565076	0.334727	-0.667921
46892		10.469846	-0.569836	1.318977	-0.017606	-0.739520	0.632508	-0.828613	-0.296143	0.057861	-0.344446	-0.567275	0.340120	-0.666239
46893		10.523403	-0.740070	1.336764	0.071984	-0.781556	0.597918	-0.830078	-0.284180	0.067139	-0.338476	-0.570023	0.344950	-0.664468
46894		10.795800	-0.637711	1.243193	0.090718	-0.788469	0.594631	-0.831787	-0.281494	0.088379	-0.332391	-0.572831	0.349654	-0.662663
46895		10.879708	-0.498204	1.060359	0.012039	-0.740210	0.611271	-0.837402	-0.261719	0.087891	-0.326709	-0.575067	0.354713	-0.660862
46896		10.694647	-0.896758	0.807190	-0.085599	-0.682029	0.611027	-0.833496	-0.251221	0.106445	-0.321648	-0.576681	0.360125	-0.659008
46897		10.585293	-1.171997	0.666618	-0.092650	-0.665825	0.592636	-0.834473	-0.242676	0.113770	-0.316751	-0.578208	0.365422	-0.657123
46898		10.531053	-1.088000	0.585732	-0.069399	-0.662388	0.573268	-0.839111	-0.233154	0.128418	-0.311841	-0.579803	0.370468	-0.655238
46899		10.445290	-1.429311	0.563432	-0.049259	-0.655134	0.571993	-0.826660	-0.233398	0.134033	-0.306846	-0.581383	0.375357	-0.653411
46900		10.476119	-1.648957	0.528884	0.014632	-0.674936	0.553702	-0.840820	-0.212402	0.142334	-0.301562	-0.583260	0.379838	-0.651607
46901		10.434156	-1.596728	0.467491	0.061190	-0.683343	0.534985	-0.840576	-0.203613	0.156738	-0.296111	-0.585325	0.383976	-0.649827
46902		10.275203	-1.644196	0.317964	0.119579	-0.708104	0.508894	-0.839111	-0.198730	0.180176	-0.290420	-0.587720	0.387709	-0.648015
46903		10.175123	-1.799457	0.283895	0.193058	-0.743644	0.496639	-0.837158	-0.182617	0.183105	-0.284305	-0.590489	0.391048	-0.646200
46904		10.106995	-1.703618	0.078839	0.252494	-0.771152	0.484447	-0.837402	-0.187012	0.190674	-0.277855	-0.593550	0.394047	-0.644377
46905		10.383623	-1.064848	-0.212688	0.225427	-0.751961	0.491223	-0.839111	-0.166504	0.202637	-0.271549	-0.596386	0.397155	-0.642537
46906		10.559261	-0.820897	-0.285291	0.051002	-0.638853	0.512444	-0.841553	-0.157959	0.213623	-0.266357	-0.598119	0.401021	-0.640695
46907		10.479362	-1.219314	-0.057580	-0.074841	-0.531837	0.503250	-0.832764	-0.149902	0.224121	-0.262189	-0.599008	0.405255	-0.638917
46908		10.411655	-1.594351	0.168178	-0.073738	-0.507078	0.460543	-0.836182	-0.136719	0.227051	-0.258318	-0.599890	0.409198	-0.637151
46909		10.492317	-1.592800	0.268560	-0.039637	-0.503821	0.406728	-0.827148	-0.136230	0.240479	-0.254566	-0.600993	0.412667	-0.635382
46910		10.625611	-1.618698	0.302889	-0.060872	-0.475285	0.354938	-0.831055	-0.129883	0.246826	-0.251288	-0.602060	0.415914	-0.633556
46911		10.603329	-1.798662	0.351594	-0.087114	-0.433067	0.312093	-0.830322	-0.127441	0.256348	-0.248509	-0.602985	0.418982	-0.631748
46912		10.582706	-1.929006	0.302473	-0.085148	-0.409968	0.273851	-0.824219	-0.115234	0.268555	-0.246000	-0.603913	0.421789	-0.629974
46913		10.392640	-2.108981	0.267935	-0.072013	-0.401765	0.242264	-0.821045	-0.122070	0.263672	-0.243616	-0.604926	0.424340	-0.628213
46914		10.205611	-2.147953	0.178203	-0.039122	-0.406998	0.224161	-0.828125	-0.104736	0.277344	-0.241141	-0.606086	0.426629	-0.626497
46915		10.274275	-1.960038	0.013757	-0.039474	-0.384227	0.230348	-0.822754	-0.108887	0.277832	-0.238713	-0.607095	0.428896	-0.624900
46916		10.249572	-1.900167	-0.122804	-0.120546	-0.307026	0.239283	-0.809814	-0.109863	0.286865	-0.236924	-0.607501	0.431467	-0.623414
46917		10.171914	-1.972425	-0.164173	-0.219262	-0.218218	0.253625	-0.816406	-0.104004	0.280762	-0.235878	-0.607192	0.434441	-0.622046
46918		10.018351	-2.213057	-0.289958	-0.284090	-0.146904	0.257945	-0.814209	-0.097168	0.291992	-0.235394	-0.606363	0.437623	-0.620805
46919		9.968422	-2.188662	-0.381890	-0.321752	-0.089280	0.260285	-0.817139	-0.095215	0.291016	-0.235297	-0.605146	0.440891	-0.619716
46920		9.915769	-2.163539	-0.420542	-0.348526	-0.026219	0.256064	-0.813721	-0.099609	0.296387	-0.235587	-0.603558	0.444145	-0.618831
46921		9.915999	-2.124284	-0.562436	-0.353505	0.033113	0.241119	-0.818359	-0.091553	0.294922	-0.236197	-0.601702	0.447223	-0.618189
46922		9.848893	-2.306273	-0.574211	-0.355706	0.085335	0.227039	-0.815918	-0.081787	0.298340	-0.237084	-0.599617	0.450131	-0.617764
46923		9.666461	-2.492692	-0.619949	-0.300727	0.103362	0.207204	-0.818359	-0.092041	0.292480	-0.237864	-0.597615	0.452614	-0.617590
46924		9.630001	-2.481561	-0.717921	-0.249874	0.110190	0.204752	-0.811768	-0.097900	0.289062	-0.238428	-0.595682	0.454803	-0.617632
46925		9.713417	-2.476704	-0.787424	-0.260998	0.144251	0.204740	-0.812988	-0.079346	0.284912	-0.239175	-0.593547	0.456976	-0.617795
46926		9.608835	-2.597395	-0.815323	-0.255826	0.165163	0.189628	-0.813721	-0.075684	0.281250	-0.240053	-0.591366	0.459000	-0.618045
46927		9.608581	-2.635727	-0.828744	-0.223197	0.167577	0.168294	-0.819824	-0.081787	0.283691	-0.240888	-0.589315	0.460741	-0.618384
46928		9.588675	-2.718816	-0.846097	-0.170136	0.150803	0.138469	-0.824463	-0.080566	0.273193	-0.241550	-0.587568	0.462091	-0.618781
46929		9.554798	-2.743011	-0.818962	-0.099116	0.120491	0.113190	-0.822754	-0.078369	0.273926	-0.241879	-0.586214	0.463009	-0.619250
46930		9.547882	-2.727943	-0.819067	-0.029101	0.083681	0.080624	-0.826416	-0.072021	0.275391	-0.241891	-0.585316	0.463479	-0.619742
46931		9.645643	-2.494024	-0.887116	-0.007293	0.070916	0.057976	-0.817627	-0.070068	0.272949	-0.241866	-0.584616	0.463751	-0.620210
46932		9.677676	-2.494100	-0.916445	-0.037196	0.080229	0.041041	-0.816650	-0.069336	0.272461	-0.242110	-0.583872	0.464073	-0.620574
46933		9.556255	-2.638322	-0.940153	-0.052853	0.082475	0.025304	-0.822266	-0.074951	0.264648	-0.242521	-0.583146	0.464394	-0.620856
46934		9.462740	-2.849069	-0.966955	-0.039236	0.065363	0.005411	-0.821045	-0.077393	0.271484	-0.242904	-0.582613	0.464581	-0.621067
46935		9.476926	-2.756718	-0.952709	-0.018510	0.046803	-0.010880	-0.825195	-0.070801	0.270264	-0.243198	-0.582281	0.464618	-0.621235
46936		9.539056	-2.652065	-0.978482	-0.031472	0.045919	-0.022667	-0.816895	-0.079102	0.269043	-0.243614	-0.581973	0.464666	-0.621325
46937		9.512046	-2.604806	-1.046497	-0.057550	0.056394	-0.027068	-0.813965	-0.075195	0.271240	-0.244219	-0.581576	0.464806	-0.621355
46938		9.481694	-2.664387	-1.047583	-0.073333	0.059435	-0.029158	-0.821533	-0.074951	0.272705	-0.244925	-0.581139	0.465009	-0.621334
46939		9.453824	-2.779870	-1.111332	-0.078534	0.061090	-0.032013	-0.818604	-0.080078	0.260498	-0.245677	-0.580693	0.465222	-0.621294
46940		9.391411	-2.829063	-1.101492	-0.061206	0.052101	-0.048230	-0.821289	-0.076904	0.256348	-0.246394	-0.580393	0.465284	-0.621245
46941		9.402829	-2.862414	-1.098791	-0.023250	0.032923	-0.067474	-0.815186	-0.082275	0.263916	-0.246953	-0.580344	0.465095	-0.621210
46942		9.465796	-2.839116	-1.102606	0.016164	0.018919	-0.085835	-0.827881	-0.075195	0.262695	-0.247363	-0.580521	0.464641	-0.621221
46943		9.486490	-2.673607	-1.087653	0.048088	0.004465	-0.097464	-0.820312	-0.083008	0.261230	-0.247622	-0.580882	0.463996	-0.621262
46944		9.549149	-2.573756	-1.072072	0.057183	0.014948	-0.102536	-0.821777	-0.077881	0.267090	-0.247904	-0.581228	0.463256	-0.621378
46945		9.537504	-2.636066	-1.058268	0.057733	0.026847	-0.108710	-0.826660	-0.075928	0.261963	-0.248262	-0.581538	0.462458	-0.621540
46946		9.490533	-2.690994	-1.001779	0.063921	0.035507	-0.117264	-0.823242	-0.088623	0.262451	-0.248668	-0.581848	0.461567	-0.621750
46947		9.468096	-2.741914	-0.897161	0.087161	0.031056	-0.129104	-0.834473	-0.083740	0.263184	-0.249005	-0.582274	0.460507	-0.622002
46948		9.569802	-2.509050	-0.893904	0.081467	0.040780	-0.137023	-0.822021	-0.088135	0.255615	-0.249448	-0.582668	0.459416	-0.622262
46949		9.587080	-2.353867	-0.815111	0.048718	0.057595	-0.139813	-0.822998	-0.084717	0.256104	-0.250129	-0.582917	0.458445	-0.622472
46950		9.557656	-2.463571	-0.667686	0.051834	0.062297	-0.145406	-0.827393	-0.087646	0.250488	-0.250842	-0.583169	0.457419	-0.622704
46951		9.628735	-2.461124	-0.532059	0.110280	0.041731	-0.162727	-0.822998	-0.095215	0.252930	-0.251283	-0.583715	0.456046	-0.623021
46952		9.793331	-2.374131	-0.426699	0.177912	0.018303	-0.197819	-0.827637	-0.095947	0.261475	-0.251488	-0.584655	0.454198	-0.623407
46953		9.942792	-2.133494	-0.315846	0.215250	0.014017	-0.238184	-0.823486	-0.099609	0.258789	-0.251704	-0.585846	0.451964	-0.623825
46954		10.074944	-1.826307	-0.293153	0.243267	0.014865	-0.273154	-0.822510	-0.109131	0.247559	-0.251967	-0.587219	0.449406	-0.624276
46955		10.257124	-1.788174	-0.202833	0.230768	0.046227	-0.295619	-0.829590	-0.101562	0.256104	-0.252525	-0.588482	0.446730	-0.624782
46956		10.345105	-1.703768	-0.145935	0.231973	0.074671	-0.325242	-0.822754	-0.108887	0.256592	-0.253336	-0.589705	0.443835	-0.625364
46957		10.468507	-1.529752	-0.033349	0.235564	0.096303	-0.361437	-0.827637	-0.114258	0.250000	-0.254397	-0.590950	0.440689	-0.625982
46958		10.554455	-1.461971	0.105658	0.229197	0.144054	-0.391457	-0.821533	-0.118408	0.246094	-0.255819	-0.592035	0.437318	-0.626741
46959		10.507304	-1.509819	0.217257	0.238885	0.176149	-0.420822	-0.829102	-0.121094	0.241211	-0.257462	-0.593072	0.433672	-0.627621
46960		10.646541	-1.188628	0.308652	0.264009	0.196655	-0.445532	-0.826904	-0.129150	0.239258	-0.259180	-0.594134	0.429716	-0.628630
46961		10.845100	-1.011387	0.336151	0.233405	0.261065	-0.463072	-0.836182	-0.130859	0.239258	-0.261369	-0.594842	0.425681	-0.629797
46962		10.768790	-1.173325	0.480099	0.207036	0.332561	-0.483175	-0.826904	-0.139404	0.237793	-0.264043	-0.595176	0.421514	-0.631167
46963		10.886403	-1.202056	0.649088	0.228794	0.377210	-0.506940	-0.837891	-0.149414	0.221680	-0.266885	-0.595390	0.417001	-0.632766
46964		11.001494	-1.104021	0.713015	0.246842	0.431131	-0.535041	-0.832275	-0.153076	0.208740	-0.269967	-0.595437	0.412115	-0.634613
46965		11.196719	-0.881064	0.832531	0.225189	0.493097	-0.566939	-0.827148	-0.176758	0.216553	-0.273528	-0.595194	0.407026	-0.636598
46966		11.410796	-0.594841	0.912486	0.166026	0.579663	-0.621942	-0.843994	-0.174072	0.199219	-0.277958	-0.594517	0.401757	-0.638655
46967		11.272527	-0.817570	1.106575	0.151957	0.642284	-0.663927	-0.840576	-0.177979	0.187500	-0.282876	-0.593579	0.396183	-0.640847
46968		11.394973	-0.956955	1.131607	0.195178	0.664100	-0.708262	-0.832031	-0.199951	0.174072	-0.287871	-0.592736	0.390077	-0.643144
46969		11.634356	-0.677768	1.074605	0.188009	0.712672	-0.766863	-0.837646	-0.205322	0.171631	-0.293361	-0.591761	0.383573	-0.645469
46970		11.868426	-0.347811	1.065048	0.121336	0.802800	-0.850226	-0.833252	-0.218506	0.148193	-0.299882	-0.590356	0.376758	-0.647769
46971		11.996784	-0.070610	1.222382	0.058927	0.912890	-0.934638	-0.835693	-0.236816	0.137207	-0.307490	-0.588396	0.369549	-0.650134
46972		11.726739	-0.296060	1.541708	0.045835	0.983306	-0.993018	-0.833984	-0.257812	0.119629	-0.315657	-0.586129	0.361891	-0.652571
46973		11.899086	0.035535	1.772556	0.080675	0.998877	-1.040179	-0.835205	-0.269287	0.105713	-0.323919	-0.583927	0.353719	-0.654972
46974		11.883855	0.088357	1.747443	0.072185	1.034051	-1.054203	-0.825928	-0.288086	0.094238	-0.332347	-0.581465	0.345375	-0.657389
46975		11.859307	-0.065660	1.662197	0.019178	1.103566	-1.052850	-0.817139	-0.310791	0.085938	-0.341172	-0.578385	0.337073	-0.659890
46976		11.632569	-0.466367	1.744173	0.018149	1.156141	-1.064513	-0.826660	-0.324219	0.060791	-0.350154	-0.574956	0.328505	-0.662497
46977		11.768260	0.023070	1.864596	0.046117	1.165399	-1.077898	-0.810303	-0.340820	0.039307	-0.359049	-0.571476	0.319651	-0.665073
46978		11.727149	0.110954	1.906506	0.004326	1.222172	-1.086091	-0.808594	-0.364990	0.028320	-0.368273	-0.567477	0.310757	-0.667664
46979		11.379029	-0.282504	2.082151	-0.013723	1.252451	-1.071322	-0.802979	-0.379883	0.008301	-0.377503	-0.563113	0.301879	-0.670272
46980		11.565666	0.087225	2.059209	-0.048286	1.272567	-1.065405	-0.805908	-0.398926	-0.015137	-0.386840	-0.558403	0.293103	-0.672779
46981		11.337246	0.077459	2.059239	-0.124388	1.311265	-1.067121	-0.792725	-0.426758	-0.036865	-0.396557	-0.553124	0.284566	-0.675143
46982		11.109980	-0.042905	2.171519	-0.123451	1.317053	-1.073203	-0.774170	-0.441162	-0.055420	-0.406237	-0.547718	0.275920	-0.677380
46983		11.224835	0.249907	2.303915	-0.063064	1.287754	-1.088467	-0.760986	-0.455078	-0.067627	-0.415578	-0.542607	0.266911	-0.679435
46984		10.908854	0.505191	2.324658	-0.081191	1.294518	-1.085669	-0.757324	-0.479248	-0.096191	-0.424915	-0.537280	0.257943	-0.681353
46985		10.767968	0.415801	2.404661	-0.092322	1.287266	-1.063599	-0.735107	-0.489014	-0.109375	-0.434077	-0.531801	0.249115	-0.683159
46986		10.511285	0.515112	2.519623	-0.127307	1.289316	-1.053868	-0.726074	-0.501221	-0.122803	-0.443257	-0.526060	0.240477	-0.684803
46987		10.309245	0.419275	2.681620	-0.164989	1.283604	-1.046601	-0.706299	-0.526855	-0.143066	-0.452461	-0.520096	0.232064	-0.686240
46988		10.049570	0.409852	2.925962	-0.109078	1.219852	-1.063316	-0.706055	-0.537842	-0.157471	-0.461310	-0.514641	0.223460	-0.687316
46989		10.106420	0.779723	2.903600	-0.033962	1.146381	-1.067400	-0.684570	-0.565674	-0.161377	-0.469640	-0.509812	0.214655	-0.688079
46990		9.918761	1.241621	2.771108	-0.045545	1.116076	-1.050980	-0.676025	-0.575195	-0.184082	-0.477791	-0.504998	0.206074	-0.688641
46991		9.610867	1.178697	2.789754	-0.070648	1.098904	-1.039286	-0.656982	-0.593506	-0.187988	-0.485874	-0.500081	0.197725	-0.689022
46992		9.460169	1.099083	3.058811	-0.062680	1.070293	-1.035059	-0.633545	-0.604980	-0.204346	-0.493774	-0.495276	0.189436	-0.689204
46993		9.308366	1.268372	3.208886	-0.051613	1.027974	-1.027654	-0.625488	-0.613281	-0.215332	-0.501444	-0.490675	0.181265	-0.689155
46994		9.080153	1.545183	3.285896	-0.099543	0.990637	-1.023106	-0.609375	-0.631104	-0.232178	-0.509154	-0.486011	0.173522	-0.688800
46995		8.797843	1.429714	3.455238	-0.090776	0.923781	-1.033861	-0.586426	-0.644775	-0.240723	-0.516724	-0.481717	0.165949	-0.688045
46996		8.659355	1.629571	3.343576	-0.033279	0.836532	-1.043697	-0.578369	-0.662354	-0.246094	-0.523930	-0.478124	0.158365	-0.686888
46997		8.553075	1.834662	3.316223	-0.021862	0.757103	-1.053289	-0.559814	-0.668701	-0.238037	-0.530978	-0.474992	0.151009	-0.685304
46998		8.476411	1.910429	3.354975	0.021842	0.688412	-1.046040	-0.541992	-0.690430	-0.257324	-0.537664	-0.472384	0.143724	-0.683457
46999		8.355260	2.266174	3.262159	0.012761	0.649568	-1.016559	-0.522461	-0.696777	-0.251465	-0.544115	-0.469875	0.136770	-0.681506
47000		8.201460	2.486271	3.234887	-0.065872	0.624447	-0.984889	-0.510986	-0.705811	-0.263428	-0.550612	-0.467071	0.130491	-0.679443
47001		7.869194	2.445198	3.423151	-0.142623	0.612285	-0.969831	-0.500977	-0.719727	-0.270508	-0.557257	-0.463927	0.124752	-0.677254
47002		7.494379	2.372054	3.653838	-0.119011	0.536372	-0.986633	-0.479248	-0.720459	-0.279541	-0.563776	-0.461299	0.119159	-0.674656
47003		7.473088	2.522188	3.894209	-0.057733	0.433573	-1.006415	-0.471191	-0.749756	-0.280029	-0.570020	-0.459519	0.113622	-0.671573
47004		7.423540	2.656661	3.845150	-0.033249	0.353630	-0.992759	-0.452881	-0.744873	-0.278076	-0.575973	-0.458254	0.108373	-0.668217
47005		6.992748	2.754869	3.581042	-0.047248	0.308935	-0.974087	-0.443359	-0.757812	-0.283447	-0.581791	-0.457122	0.103483	-0.664718
47006		6.707334	2.663496	3.515310	-0.043927	0.263920	-0.955962	-0.430420	-0.768066	-0.271729	-0.587416	-0.456210	0.098858	-0.661091
47007		6.241645	2.412935	3.451005	-0.003896	0.197138	-0.937007	-0.409424	-0.770752	-0.284668	-0.592692	-0.455819	0.094407	-0.657293
47008		6.033260	2.261526	3.434656	0.040923	0.135615	-0.890578	-0.408936	-0.786133	-0.279053	-0.597458	-0.455923	0.090188	-0.653486
47009		5.747750	1.978479	3.479825	0.075151	0.083097	-0.817925	-0.393311	-0.795654	-0.286377	-0.601629	-0.456408	0.086319	-0.649833
47010		5.420626	1.985485	3.293909	0.078000	0.036543	-0.736808	-0.384521	-0.795898	-0.280029	-0.605291	-0.457082	0.082976	-0.646385
47011		5.252463	2.171634	2.966814	0.025052	0.041722	-0.622947	-0.367920	-0.801514	-0.277344	-0.608525	-0.457368	0.080325	-0.643474
47012		4.758675	1.872941	2.658858	-0.035707	0.087261	-0.497744	-0.360352	-0.795898	-0.277100	-0.611336	-0.457010	0.078248	-0.641317
47013		4.368826	1.431384	2.658228	-0.043233	0.090418	-0.371358	-0.358398	-0.803711	-0.281982	-0.613494	-0.456508	0.076678	-0.639801
47014		4.285459	1.323106	2.949065	-0.023191	0.063837	-0.263026	-0.358154	-0.809570	-0.291504	-0.614977	-0.456178	0.075551	-0.638747
47015		4.284105	1.316154	3.072486	-0.041516	0.044121	-0.167171	-0.352051	-0.803223	-0.276611	-0.616004	-0.455797	0.074990	-0.638095
47016		4.361605	1.384596	3.158064	-0.075237	0.001751	-0.078819	-0.352539	-0.813477	-0.274902	-0.616662	-0.455411	0.075165	-0.637714
47017		4.227730	0.991042	3.474934	-0.082574	-0.061543	0.028883	-0.352539	-0.807861	-0.272461	-0.616735	-0.455256	0.076115	-0.637641
47018		4.279087	0.741090	3.748171	0.003244	-0.144876	0.119302	-0.356445	-0.814453	-0.274414	-0.615949	-0.455924	0.077383	-0.637771
47019		4.593524	1.149866	3.676528	0.066944	-0.210321	0.195407	-0.359375	-0.802002	-0.283203	-0.614472	-0.457214	0.078942	-0.638082
47020		4.925934	1.565567	3.720205	0.037393	-0.219281	0.289545	-0.364014	-0.805908	-0.279541	-0.612596	-0.458332	0.081065	-0.638817
47021		4.979998	1.342371	3.954152	0.012339	-0.217515	0.395330	-0.375977	-0.797607	-0.272461	-0.610246	-0.459235	0.083718	-0.640074
47022		5.061329	1.103005	4.161498	0.058904	-0.256537	0.491875	-0.376465	-0.798340	-0.270508	-0.607164	-0.460505	0.086693	-0.641694
47023		5.402864	1.233228	4.318563	0.100060	-0.306316	0.568549	-0.397949	-0.794922	-0.278809	-0.603462	-0.462178	0.089995	-0.643526
47024		5.627762	1.362795	4.247037	0.112279	-0.335423	0.647870	-0.405029	-0.791504	-0.270996	-0.599246	-0.463991	0.093684	-0.645631
47025		5.636697	1.465770	3.857997	0.124821	-0.369272	0.736032	-0.414551	-0.784180	-0.264404	-0.594453	-0.465957	0.097815	-0.648029
47026		5.857579	1.650170	3.638191	0.124377	-0.395821	0.815577	-0.422119	-0.780029	-0.263916	-0.589179	-0.467972	0.102386	-0.650682
47027		6.277775	1.970813	3.516313	0.114648	-0.419008	0.883571	-0.443359	-0.767090	-0.266113	-0.583516	-0.469975	0.107386	-0.653530
47028		6.662553	1.903992	3.447521	0.084794	-0.427188	0.960747	-0.455078	-0.758057	-0.257324	-0.577498	-0.471772	0.112886	-0.656646
47029		6.982506	1.833254	3.465885	0.057010	-0.440542	1.044194	-0.473877	-0.743896	-0.262939	-0.571071	-0.473388	0.118924	-0.660029
47030		7.327686	2.149795	3.411207	-0.076532	-0.413318	1.127678	-0.489990	-0.736572	-0.264160	-0.564682	-0.474090	0.125887	-0.663721
47031		7.355059	1.909508	3.400619	-0.195319	-0.398257	1.181788	-0.510498	-0.717773	-0.256836	-0.558418	-0.474040	0.133640	-0.667530
47032		7.535608	1.521111	3.497894	-0.172250	-0.468532	1.203806	-0.523926	-0.704834	-0.254883	-0.551796	-0.474407	0.141667	-0.671111
47033		7.999123	1.527519	3.520052	-0.054650	-0.577018	1.213436	-0.538818	-0.693359	-0.240967	-0.544457	-0.475850	0.149558	-0.674363
47034		8.399330	1.776552	3.679414	0.046944	-0.679144	1.207316	-0.562744	-0.685547	-0.248291	-0.536550	-0.478271	0.157301	-0.677220
47035		8.893417	1.872257	3.772338	0.043145	-0.717453	1.227512	-0.586914	-0.674316	-0.233398	-0.528419	-0.480797	0.165299	-0.679915
47036		9.217623	1.855750	3.516961	0.013774	-0.744223	1.239633	-0.595459	-0.636230	-0.234375	-0.520221	-0.483257	0.173608	-0.682417
47037		9.400320	1.842902	3.413000	-0.011300	-0.773192	1.221453	-0.614014	-0.637207	-0.224854	-0.512108	-0.485727	0.182089	-0.684586
47038		9.375695	1.147327	3.795826	0.085901	-0.845519	1.194812	-0.629150	-0.613281	-0.216309	-0.503565	-0.488992	0.190191	-0.686394
47039		9.643600	1.413950	3.857313	0.248600	-0.943167	1.187127	-0.649902	-0.595215	-0.203613	-0.494168	-0.493430	0.197714	-0.687921
47040		10.283406	2.321711	3.419365	0.162552	-0.929932	1.190756	-0.662109	-0.588867	-0.193604	-0.485042	-0.497348	0.205660	-0.689263
47041		10.201196	2.017090	3.305846	-0.041577	-0.834130	1.182215	-0.677979	-0.571289	-0.181641	-0.476899	-0.499829	0.214323	-0.690510
47042		10.254548	1.032641	3.579397	-0.031870	-0.838332	1.163113	-0.682617	-0.553223	-0.183594	-0.468746	-0.502333	0.222837	-0.691580
47043		10.437731	1.082698	3.752520	0.094313	-0.932016	1.146050	-0.698242	-0.530029	-0.157471	-0.459922	-0.505822	0.230890	-0.692319
47044		10.643130	1.105604	3.577955	0.134272	-0.957495	1.139713	-0.716797	-0.516602	-0.159668	-0.450833	-0.509549	0.238740	-0.692902
47045		10.947016	1.537445	3.135716	0.093902	-0.954372	1.127613	-0.724854	-0.491943	-0.137451	-0.441934	-0.513040	0.246735	-0.693258
47046		10.854201	1.297452	3.253711	-0.004752	-0.913741	1.096351	-0.738525	-0.475342	-0.138672	-0.433642	-0.515927	0.254971	-0.693371
47047		11.030960	0.937143	3.375935	0.042914	-0.950362	1.052510	-0.750000	-0.461182	-0.115479	-0.425267	-0.519211	0.262844	-0.693167
47048		11.109605	1.268141	3.313367	0.068568	-0.955121	1.032052	-0.763672	-0.443604	-0.108887	-0.416818	-0.522591	0.270451	-0.692833
47049		11.312008	1.472063	2.817121	-0.003009	-0.903460	1.003048	-0.773193	-0.419922	-0.097656	-0.408915	-0.525414	0.278133	-0.692367
47050		11.197336	1.205443	2.853518	-0.099203	-0.838243	0.958988	-0.779053	-0.413086	-0.088379	-0.401786	-0.527572	0.285917	-0.691728
47051		11.104741	0.789266	2.868237	-0.077446	-0.828018	0.910637	-0.791992	-0.393311	-0.069336	-0.394819	-0.529801	0.293293	-0.690947
47052		11.086390	0.444584	3.057362	-0.039141	-0.847436	0.856921	-0.796875	-0.380615	-0.062744	-0.387902	-0.532343	0.300244	-0.689925
47053		11.110144	0.363931	3.040338	-0.046388	-0.851724	0.828871	-0.803467	-0.367920	-0.050049	-0.381129	-0.534901	0.307093	-0.688706
47054		11.078850	0.307486	2.696824	-0.097649	-0.832766	0.795688	-0.811768	-0.348145	-0.048096	-0.374786	-0.537220	0.313996	-0.687268
47055		11.042746	0.164422	2.386983	-0.144509	-0.803862	0.759206	-0.808350	-0.333252	-0.030518	-0.368903	-0.539273	0.320882	-0.685661
47056		10.952638	-0.059758	2.293454	-0.103012	-0.819104	0.715354	-0.819092	-0.318604	-0.017334	-0.363010	-0.541611	0.327352	-0.683902
47057		10.997822	0.125696	2.134572	-0.024661	-0.833543	0.680176	-0.819092	-0.313965	-0.012939	-0.356895	-0.544319	0.333231	-0.682129
47058		10.966016	-0.088603	1.990097	-0.035129	-0.782708	0.646831	-0.825195	-0.306885	0.002197	-0.351131	-0.546758	0.338838	-0.680406
47059		10.870750	-0.487584	1.931283	-0.007788	-0.774013	0.598675	-0.830078	-0.292480	0.022217	-0.345514	-0.549325	0.344019	-0.678611
47060		10.705837	-0.751993	1.935854	0.061602	-0.789251	0.564500	-0.827393	-0.280762	0.025146	-0.339706	-0.552239	0.348670	-0.676802
47061		10.640639	-0.847405	1.690128	0.109835	-0.800289	0.559827	-0.837158	-0.266602	0.043213	-0.333647	-0.555328	0.353034	-0.675024
47062		10.571315	-0.633545	1.335185	0.099488	-0.780761	0.562206	-0.831543	-0.247314	0.047363	-0.327658	-0.558233	0.357388	-0.673268
47063		10.483311	-0.811853	0.941385	0.024128	-0.717253	0.569264	-0.833740	-0.239990	0.069580	-0.322148	-0.560520	0.361999	-0.671561
47064		10.476348	-0.954018	0.908490	-0.036284	-0.664161	0.564697	-0.838623	-0.234375	0.076172	-0.317087	-0.562330	0.366763	-0.669869
47065		10.424429	-0.936101	0.920143	-0.068261	-0.627273	0.557674	-0.843262	-0.234619	0.098633	-0.312312	-0.563843	0.371554	-0.668199
47066		10.402751	-1.405984	0.949389	-0.079669	-0.602599	0.540040	-0.841797	-0.213135	0.094482	-0.307750	-0.565215	0.376242	-0.666531
47067		10.217045	-1.756339	0.983665	-0.012013	-0.643304	0.507462	-0.835938	-0.211914	0.109131	-0.302908	-0.567062	0.380485	-0.664769
47068		10.334129	-1.819893	0.993140	0.067000	-0.684294	0.486603	-0.840088	-0.198242	0.114502	-0.297663	-0.569374	0.384277	-0.662980
47069		10.463918	-1.493437	0.704168	0.101817	-0.699210	0.472801	-0.851807	-0.187012	0.134033	-0.292266	-0.571868	0.387827	-0.661164
47070		10.356955	-1.465768	0.655226	0.063025	-0.669018	0.472862	-0.846191	-0.176025	0.142334	-0.287137	-0.574073	0.391497	-0.659334
47071		10.264284	-1.546389	0.509018	0.061387	-0.650830	0.466911	-0.842285	-0.167480	0.150146	-0.282094	-0.576168	0.395085	-0.657543
47072		10.271058	-1.704790	0.538352	0.069858	-0.627861	0.458082	-0.842773	-0.163330	0.161133	-0.277122	-0.578159	0.398509	-0.655839
47073		10.323042	-1.684953	0.447067	0.065317	-0.603305	0.445339	-0.837402	-0.159424	0.170410	-0.272313	-0.580024	0.401823	-0.654184
47074		10.549365	-1.527713	0.452248	0.044370	-0.556459	0.423655	-0.835693	-0.143066	0.174316	-0.267869	-0.581637	0.405022	-0.652611
47075		10.476213	-1.432939	0.438435	-0.017193	-0.489577	0.411470	-0.840332	-0.143311	0.193848	-0.264008	-0.582772	0.408333	-0.651107
47076		10.375194	-1.575300	0.399522	-0.053296	-0.446586	0.398851	-0.842285	-0.131348	0.195312	-0.260531	-0.583621	0.411669	-0.649645
47077		10.348722	-1.768052	0.379689	-0.063461	-0.417277	0.383485	-0.833740	-0.130615	0.203125	-0.257281	-0.584329	0.414910	-0.648241
47078		10.346770	-1.889287	0.368644	-0.082159	-0.385484	0.364271	-0.833984	-0.125244	0.208740	-0.254332	-0.584878	0.418078	-0.646873
47079		10.345763	-1.840857	0.347561	-0.119036	-0.352364	0.349733	-0.836670	-0.111084	0.217285	-0.251751	-0.585210	0.421293	-0.645494
47080		10.284444	-1.943808	0.308024	-0.165699	-0.311018	0.329371	-0.830811	-0.108154	0.209229	-0.249649	-0.585283	0.424563	-0.644101
47081		10.203986	-2.089957	0.389432	-0.200621	-0.275937	0.313359	-0.836426	-0.104980	0.224121	-0.247924	-0.585142	0.427860	-0.642711
47082		10.066145	-2.204809	0.393311	-0.209539	-0.257598	0.294119	-0.830322	-0.096436	0.223877	-0.246409	-0.584945	0.431064	-0.641331
47083		10.094340	-2.260630	0.304461	-0.207149	-0.237291	0.278308	-0.834229	-0.087646	0.233398	-0.245037	-0.584693	0.434129	-0.640018
47084		10.014630	-2.249804	0.221341	-0.220178	-0.208659	0.262874	-0.835449	-0.090576	0.237793	-0.243912	-0.584310	0.437122	-0.638759
47085		9.988158	-2.236887	0.210143	-0.240872	-0.160749	0.249679	-0.825928	-0.089600	0.238037	-0.243130	-0.583671	0.440056	-0.637625
47086		9.972785	-2.219631	0.118971	-0.257386	-0.117562	0.232297	-0.824707	-0.087402	0.235840	-0.242678	-0.582828	0.442900	-0.636600
47087		9.942417	-2.337537	0.058869	-0.261910	-0.079379	0.211166	-0.836670	-0.091553	0.235596	-0.242500	-0.581845	0.445581	-0.635695
47088		9.863614	-2.522502	0.039857	-0.252068	-0.055742	0.186334	-0.821045	-0.085693	0.249023	-0.242492	-0.580845	0.448036	-0.634887
47089		9.889359	-2.422784	-0.119404	-0.224056	-0.060430	0.163066	-0.823242	-0.084473	0.245605	-0.242454	-0.580009	0.450234	-0.634110
47090		9.957705	-2.235847	-0.149578	-0.253449	-0.024921	0.151176	-0.828369	-0.081787	0.249512	-0.242752	-0.578967	0.452454	-0.633367
47091		9.836219	-2.373867	-0.237017	-0.325037	0.028622	0.135768	-0.824463	-0.074463	0.242432	-0.243679	-0.577552	0.454864	-0.632577
47092		9.685955	-2.621292	-0.256213	-0.339823	0.047566	0.129832	-0.833008	-0.074951	0.239990	-0.244778	-0.576024	0.457278	-0.631804
47093		9.582637	-2.825912	-0.239898	-0.300664	0.037986	0.103209	-0.828613	-0.076416	0.238281	-0.245791	-0.574724	0.459373	-0.631075
47094		9.623353	-2.738228	-0.296417	-0.231707	0.016649	0.079503	-0.825195	-0.076416	0.238770	-0.246516	-0.573764	0.461031	-0.630456
47095		9.674602	-2.689982	-0.352733	-0.194795	0.017971	0.060217	-0.830078	-0.077148	0.238770	-0.247170	-0.572945	0.462397	-0.629944
47096		9.601480	-2.755512	-0.414219	-0.148697	0.012098	0.042010	-0.826660	-0.074707	0.241211	-0.247678	-0.572320	0.463445	-0.629543
47097		9.586974	-2.698993	-0.534316	-0.107944	0.008824	0.032035	-0.815186	-0.068848	0.248291	-0.248030	-0.571835	0.464235	-0.629263
47098		9.568603	-2.691104	-0.537561	-0.098638	0.025147	0.022580	-0.826660	-0.072510	0.242188	-0.248451	-0.571319	0.464897	-0.629076
47099		9.562810	-2.754938	-0.511656	-0.089059	0.041236	0.009239	-0.829834	-0.070068	0.244873	-0.248960	-0.570791	0.465411	-0.628975
47100		9.478452	-2.863400	-0.496529	-0.083626	0.045928	-0.002045	-0.822266	-0.070801	0.242188	-0.249519	-0.570293	0.465831	-0.628894
47101		9.460125	-2.786817	-0.578767	-0.063728	0.044896	-0.015831	-0.830078	-0.072510	0.237793	-0.250053	-0.569894	0.466083	-0.628857
47102		9.569516	-2.714416	-0.585019	-0.071867	0.064209	-0.022335	-0.833496	-0.073730	0.236572	-0.250735	-0.569403	0.466305	-0.628866
47103		9.553133	-2.789917	-0.540668	-0.067752	0.074932	-0.032865	-0.830078	-0.082031	0.241211	-0.251494	-0.568904	0.466432	-0.628920
47104		9.517556	-2.821191	-0.524582	-0.025941	0.062704	-0.054013	-0.824463	-0.075439	0.236328	-0.252118	-0.568640	0.466264	-0.629034
47105		9.508951	-2.861134	-0.462231	0.021827	0.042800	-0.073673	-0.828125	-0.074219	0.229248	-0.252542	-0.568656	0.465793	-0.629198
47106		9.533472	-2.750682	-0.533866	0.054040	0.029995	-0.086300	-0.825684	-0.082031	0.231689	-0.252830	-0.568856	0.465120	-0.629399
47107		9.572740	-2.683958	-0.533163	0.050188	0.032696	-0.091708	-0.827881	-0.075928	0.234619	-0.253175	-0.569054	0.464435	-0.629587
47108		9.658376	-2.529793	-0.563666	0.029056	0.053159	-0.091880	-0.831055	-0.072754	0.234131	-0.253701	-0.569101	0.463815	-0.629790
47109		9.630475	-2.550655	-0.588465	-0.001932	0.081890	-0.095100	-0.833252	-0.078369	0.226562	-0.254502	-0.568945	0.463280	-0.630002
47110		9.607744	-2.664122	-0.498760	-0.005963	0.090130	-0.106908	-0.831055	-0.077881	0.232422	-0.255416	-0.568781	0.462692	-0.630212
47111		9.562075	-2.644462	-0.446396	0.029410	0.083957	-0.117760	-0.831543	-0.083740	0.227783	-0.256195	-0.568767	0.461878	-0.630505
47112		9.607235	-2.573844	-0.363767	0.055047	0.076607	-0.127334	-0.828613	-0.090576	0.221924	-0.256875	-0.568883	0.460898	-0.630841
47113		9.692142	-2.488748	-0.363215	0.065033	0.082799	-0.140217	-0.837402	-0.094727	0.230225	-0.257599	-0.569036	0.459790	-0.631217
47114		9.730117	-2.373178	-0.188290	0.094356	0.078646	-0.160532	-0.836914	-0.096680	0.231445	-0.258275	-0.569350	0.458438	-0.631640
47115		9.818696	-2.222787	-0.094418	0.166609	0.049712	-0.192861	-0.832031	-0.082520	0.221924	-0.258667	-0.570095	0.456611	-0.632131
47116		9.957569	-2.175004	0.041435	0.235707	0.028618	-0.238930	-0.836426	-0.098633	0.227295	-0.258893	-0.571271	0.454243	-0.632682
47117		10.148302	-1.907121	0.107416	0.297741	0.016097	-0.282056	-0.829346	-0.098145	0.218506	-0.259002	-0.572806	0.451363	-0.633310
47118		10.389676	-1.573752	0.242553	0.290308	0.041398	-0.313618	-0.833252	-0.097900	0.219971	-0.259406	-0.574305	0.448309	-0.633957
47119		10.474158	-1.498272	0.331695	0.243107	0.094300	-0.331843	-0.828613	-0.105225	0.221680	-0.260328	-0.575484	0.445295	-0.634634
47120		10.445338	-1.493297	0.497000	0.224623	0.127629	-0.362244	-0.835693	-0.110596	0.217285	-0.261621	-0.576553	0.442151	-0.635329
47121		10.589190	-1.250276	0.537717	0.260252	0.134760	-0.416133	-0.834229	-0.112305	0.212891	-0.263052	-0.577853	0.438534	-0.636064
47122		10.762280	-1.047283	0.673945	0.258889	0.186709	-0.476154	-0.843750	-0.118652	0.208252	-0.264994	-0.579084	0.434509	-0.636900
47123		10.871657	-1.032242	0.786779	0.264885	0.229325	-0.513682	-0.832031	-0.134521	0.212158	-0.267255	-0.580225	0.430163	-0.637867
47124		11.060935	-0.984425	0.847788	0.272282	0.278923	-0.549932	-0.831787	-0.130615	0.204590	-0.269845	-0.581232	0.425474	-0.639002
47125		11.270120	-0.525196	0.792448	0.217577	0.377540	-0.566613	-0.838623	-0.144775	0.186279	-0.273131	-0.581633	0.420757	-0.640364
47126		11.301868	-0.531500	0.716218	0.105597	0.518493	-0.570444	-0.838135	-0.150879	0.187988	-0.277465	-0.581019	0.416277	-0.641984
47127		11.158193	-1.035648	0.915769	0.033042	0.644916	-0.594839	-0.843994	-0.163818	0.168945	-0.282708	-0.579619	0.411751	-0.643878
47128		11.383094	-1.085966	1.152393	0.073058	0.710226	-0.660738	-0.842529	-0.177490	0.156982	-0.288320	-0.578155	0.406510	-0.646033
47129		11.518651	-1.003554	1.484293	0.094290	0.778419	-0.755083	-0.841064	-0.187744	0.148926	-0.294548	-0.576651	0.400503	-0.648315
47130		11.507120	-1.049914	1.706019	0.138952	0.815430	-0.829017	-0.841064	-0.204346	0.139404	-0.301058	-0.575254	0.393770	-0.650686
47131		11.749884	-0.825723	1.656421	0.160527	0.853693	-0.884548	-0.851074	-0.211670	0.122070	-0.307863	-0.573825	0.386516	-0.653108
47132		11.638744	-0.755036	1.684689	0.108155	0.925079	-0.922002	-0.835693	-0.227783	0.110596	-0.315318	-0.571928	0.379139	-0.655535
47133		11.756078	-0.646702	1.796257	0.077387	0.986105	-0.948395	-0.843262	-0.246826	0.096191	-0.323218	-0.569631	0.371592	-0.658005
47134		11.516487	-0.724815	2.014940	0.080942	1.026364	-0.972210	-0.842285	-0.264404	0.074951	-0.331317	-0.567116	0.363755	-0.660523
47135		11.399157	-0.954713	2.122083	0.130556	1.033889	-0.969554	-0.830322	-0.282959	0.065186	-0.339150	-0.564603	0.355587	-0.663143
47136		11.380955	-0.949650	2.221274	0.188085	1.032391	-0.974109	-0.835449	-0.297119	0.042236	-0.346678	-0.562202	0.347026	-0.665820
47137		11.599039	-0.612013	2.198470	0.194793	1.039994	-0.983904	-0.822266	-0.318115	0.040527	-0.354209	-0.559714	0.338319	-0.668429
47138		11.794402	-0.405029	2.064365	0.157362	1.079555	-1.001861	-0.822266	-0.338379	0.013916	-0.362057	-0.556878	0.329553	-0.670967
47139		11.549280	-0.294758	2.043652	0.129519	1.122129	-1.010882	-0.815674	-0.349854	-0.009521	-0.370158	-0.553644	0.320733	-0.673492
47140		11.422932	-0.276818	2.170810	0.094162	1.157997	-1.004895	-0.809814	-0.362793	-0.011963	-0.378418	-0.549995	0.311975	-0.676001
47141		11.184630	-0.278968	2.282766	0.071005	1.163542	-1.010864	-0.804932	-0.381592	-0.039795	-0.386763	-0.546170	0.303248	-0.678346
47142		11.202150	-0.034799	2.497330	0.025381	1.164020	-1.030820	-0.796143	-0.405029	-0.049072	-0.395369	-0.542151	0.294640	-0.680399
47143		11.133075	0.150372	2.644091	-0.070439	1.189291	-1.037014	-0.780762	-0.416992	-0.065186	-0.404435	-0.537595	0.286414	-0.682196
47144		10.999988	0.067813	2.709032	-0.121873	1.210503	-1.037708	-0.775146	-0.434082	-0.083008	-0.413714	-0.532652	0.278357	-0.683842
47145		10.834512	0.127542	2.750848	-0.135217	1.213208	-1.038594	-0.756104	-0.452881	-0.101807	-0.422990	-0.527554	0.270315	-0.685344
47146		10.753192	0.073593	2.865727	-0.134810	1.212002	-1.025691	-0.750244	-0.466064	-0.122803	-0.432111	-0.522340	0.262286	-0.686766
47147		10.494255	0.075079	2.985319	-0.086990	1.192240	-1.015131	-0.743896	-0.494385	-0.135010	-0.440845	-0.517296	0.254058	-0.688124
47148		10.288209	0.146368	3.113951	-0.050470	1.173594	-1.009982	-0.724609	-0.509033	-0.146729	-0.449277	-0.512395	0.245671	-0.689382
47149		10.040929	0.188209	2.979395	0.000604	1.136435	-1.004650	-0.711426	-0.522217	-0.156494	-0.457310	-0.507803	0.237116	-0.690493
47150		9.975829	0.466062	3.094248	0.070683	1.092836	-1.007766	-0.703369	-0.536865	-0.174805	-0.464905	-0.503655	0.228277	-0.691437
47151		10.061976	0.785590	3.134025	0.070718	1.081315	-0.992604	-0.695068	-0.551270	-0.186768	-0.472321	-0.499467	0.219515	-0.692285
47152		9.833503	0.909374	3.202177	0.049909	1.068156	-0.973847	-0.667480	-0.573730	-0.199707	-0.479620	-0.495166	0.210973	-0.693012
47153		9.635862	0.936683	3.334628	0.041961	1.037343	-0.958199	-0.666016	-0.582764	-0.209229	-0.486738	-0.490914	0.202639	-0.693561
47154		9.437522	1.180483	3.321638	0.009415	1.009334	-0.948717	-0.631592	-0.596680	-0.214600	-0.493821	-0.486609	0.194622	-0.693884
47155		9.125013	1.156373	3.652106	0.003185	0.965999	-0.950069	-0.620117	-0.610840	-0.228760	-0.500802	-0.482469	0.186791	-0.693924
47156		8.993056	1.313995	3.585651	0.069894	0.875869	-0.954036	-0.611816	-0.630127	-0.236084	-0.507336	-0.479076	0.178916	-0.693604
47157		8.991453	1.686632	3.743055	0.113993	0.788707	-0.977697	-0.597656	-0.625000	-0.238525	-0.513642	-0.476355	0.171042	-0.692822
47158		9.027011	2.014497	3.777959	0.111984	0.727980	-0.981307	-0.579346	-0.649658	-0.248047	-0.519836	-0.473931	0.163411	-0.691706
47159		8.858308	2.171739	3.659344	0.083727	0.692034	-0.976302	-0.558105	-0.658936	-0.250732	-0.526010	-0.471538	0.156104	-0.690360
47160		8.734519	2.408440	3.497562	0.049444	0.677146	-0.965365	-0.552246	-0.673584	-0.260498	-0.532185	-0.469021	0.149090	-0.688891
47161		8.576435	2.558804	3.381619	-0.040317	0.696235	-0.944831	-0.539795	-0.689453	-0.265381	-0.538565	-0.465929	0.142575	-0.687409
47162		8.186747	2.519439	3.505458	-0.083418	0.693468	-0.940639	-0.523438	-0.697021	-0.268799	-0.545033	-0.462612	0.136325	-0.685817
47163		8.047543	2.516988	3.645643	-0.042558	0.658236	-0.950811	-0.495605	-0.702393	-0.266357	-0.551310	-0.459652	0.129951	-0.684025
47164		7.766933	2.654543	3.643437	0.005140	0.609222	-0.955732	-0.493164	-0.720459	-0.280273	-0.557329	-0.457156	0.123503	-0.682011
47165		7.587183	2.780091	3.550413	0.024709	0.554745	-0.945904	-0.483643	-0.721191	-0.272949	-0.563114	-0.455014	0.117225	-0.679797
47166		7.359352	2.637648	3.707752	-0.009708	0.523020	-0.926111	-0.464600	-0.733887	-0.273926	-0.568840	-0.452836	0.111360	-0.677466
47167		6.913958	2.388181	3.580570	-0.069626	0.487721	-0.898664	-0.448975	-0.742920	-0.290527	-0.574561	-0.450515	0.106097	-0.675025
47168		6.388471	2.043208	3.343447	-0.091665	0.422077	-0.882859	-0.432373	-0.753174	-0.286621	-0.580179	-0.448415	0.101327	-0.672347
47169		6.018724	1.767173	3.310519	-0.051267	0.321925	-0.852307	-0.416504	-0.757812	-0.284668	-0.585353	-0.447019	0.096926	-0.669434
47170		5.835501	2.050731	3.076631	-0.044567	0.249457	-0.786228	-0.404785	-0.770996	-0.300293	-0.590045	-0.445984	0.093085	-0.666543
47171		5.358736	1.868768	2.879457	-0.114473	0.208871	-0.706843	-0.399414	-0.781494	-0.293457	-0.594500	-0.444752	0.090126	-0.663810
47172		4.911718	1.455805	2.713821	-0.150556	0.133143	-0.629964	-0.389893	-0.781006	-0.292725	-0.598585	-0.443688	0.088026	-0.661126
47173		4.487953	1.168461	2.575940	-0.181247	0.076564	-0.530603	-0.387451	-0.775391	-0.302734	-0.602180	-0.442699	0.086745	-0.658690
47174		3.997896	1.081797	2.241080	-0.198260	0.025299	-0.415737	-0.380127	-0.795654	-0.302734	-0.605159	-0.441816	0.086240	-0.656615
47175		3.835181	0.902012	2.381450	-0.182011	-0.031383	-0.311691	-0.373779	-0.788086	-0.302002	-0.607461	-0.441246	0.086317	-0.654861
47176		3.920899	0.887278	2.402150	-0.112236	-0.090649	-0.220921	-0.366211	-0.782959	-0.302979	-0.608964	-0.441284	0.086649	-0.653393
47177		4.145845	0.829725	2.941625	-0.071973	-0.128373	-0.113529	-0.372314	-0.779785	-0.299805	-0.609706	-0.441652	0.087350	-0.652359
47178		4.233023	0.768229	3.456767	-0.044631	-0.156957	0.015423	-0.373779	-0.795898	-0.296631	-0.609624	-0.442220	0.088526	-0.651892
47179		4.529589	0.778867	3.837223	-0.074367	-0.155999	0.147019	-0.382812	-0.781250	-0.302490	-0.608936	-0.442531	0.090346	-0.652075
47180		4.575096	0.820765	3.928650	-0.078365	-0.179306	0.240105	-0.387207	-0.788330	-0.298096	-0.607737	-0.442874	0.092652	-0.652637
47181		4.821088	0.826223	4.048178	-0.031092	-0.213224	0.305558	-0.382324	-0.790283	-0.293945	-0.605976	-0.443584	0.095117	-0.653436
47182		5.035365	0.830305	4.318345	0.059337	-0.268240	0.372028	-0.391846	-0.782227	-0.304199	-0.603468	-0.444990	0.097616	-0.654432
47183		5.292261	1.224266	4.226940	0.140789	-0.340033	0.461841	-0.405029	-0.779297	-0.296875	-0.600098	-0.447113	0.100365	-0.655666
47184		5.578851	1.655194	3.961631	0.077395	-0.354855	0.564451	-0.406494	-0.777100	-0.293213	-0.596375	-0.448900	0.103918	-0.657287
47185		5.510958	1.483999	3.880222	0.004761	-0.365631	0.640122	-0.417236	-0.758545	-0.291016	-0.592479	-0.450301	0.108205	-0.659158
47186		5.693400	1.192236	3.914957	0.063325	-0.420794	0.689300	-0.441650	-0.753906	-0.291504	-0.588018	-0.452230	0.112624	-0.661089
47187		6.079567	1.346279	3.891513	0.144774	-0.488798	0.738573	-0.442871	-0.755615	-0.291504	-0.582884	-0.454861	0.117111	-0.663048
47188		6.658328	1.607182	3.678868	0.140359	-0.522734	0.840394	-0.465088	-0.748535	-0.284668	-0.577133	-0.457528	0.122169	-0.665327
47189		6.974993	1.985093	3.476747	0.000676	-0.501225	0.948641	-0.476074	-0.730469	-0.280762	-0.571293	-0.459259	0.128304	-0.668015
47190		6.773247	1.921290	3.288739	-0.115101	-0.480393	1.012429	-0.479736	-0.721924	-0.275391	-0.565514	-0.460214	0.135221	-0.670905
47191		6.971171	1.575097	3.398091	-0.081798	-0.516870	1.028758	-0.499023	-0.699951	-0.272217	-0.559421	-0.461468	0.142176	-0.673707
47192		7.436653	1.416351	3.607550	0.025760	-0.610488	1.028172	-0.521973	-0.697266	-0.269287	-0.552752	-0.463704	0.148949	-0.676208
47193		8.106905	1.666811	4.003423	0.112211	-0.705172	1.047961	-0.542236	-0.690430	-0.262207	-0.545461	-0.466797	0.155736	-0.678468
47194		8.398496	2.166260	3.805088	0.078984	-0.750261	1.081947	-0.563965	-0.668701	-0.255371	-0.537982	-0.469893	0.163032	-0.680585
47195		8.635081	2.220370	3.480610	-0.024709	-0.754711	1.106541	-0.567383	-0.661377	-0.261230	-0.530697	-0.472457	0.171014	-0.682568
47196		8.666207	1.642017	3.505559	-0.048683	-0.788158	1.082394	-0.593994	-0.644287	-0.247314	-0.523527	-0.475080	0.179165	-0.684192
47197		8.838781	1.280300	3.844068	0.095479	-0.864541	1.064366	-0.604248	-0.632080	-0.233398	-0.515706	-0.478732	0.186734	-0.685561
47198		9.568270	2.443132	3.672274	0.126003	-0.839126	1.091525	-0.625244	-0.620850	-0.234863	-0.507577	-0.482262	0.194107	-0.687104
47199		10.055127	3.249559	3.644359	-0.163824	-0.663375	1.154389	-0.632324	-0.607178	-0.224854	-0.500471	-0.483395	0.202623	-0.689059
47200		9.510227	2.182949	3.927673	-0.420395	-0.492335	1.177506	-0.655762	-0.575928	-0.224609	-0.494489	-0.482376	0.211964	-0.691278
47201		9.175480	0.331555	4.309977	-0.233265	-0.548701	1.132723	-0.667725	-0.569580	-0.221924	-0.487852	-0.482473	0.220254	-0.693331
47202		9.787576	0.186732	4.364951	0.163265	-0.725252	1.103587	-0.676270	-0.541748	-0.213867	-0.479407	-0.485194	0.226830	-0.695200
47203		10.431468	1.123977	3.763176	0.358062	-0.816675	1.112638	-0.686768	-0.531982	-0.206543	-0.469885	-0.489138	0.232652	-0.697012
47204		10.986730	2.105464	3.355379	0.195301	-0.760804	1.139452	-0.692627	-0.517578	-0.190674	-0.460913	-0.491999	0.239279	-0.698743
47205		10.673395	1.320259	3.258576	0.025550	-0.687326	1.148481	-0.718262	-0.496582	-0.183105	-0.452668	-0.493700	0.246614	-0.700381
47206		10.507049	0.504590	3.798594	0.019537	-0.730656	1.121058	-0.725342	-0.480713	-0.174316	-0.444460	-0.495623	0.254007	-0.701636
47207		10.364969	0.342487	3.781814	0.125484	-0.876222	1.066366	-0.747314	-0.462402	-0.170898	-0.435769	-0.498840	0.261061	-0.702219
47208		10.755671	0.815883	3.281949	0.141578	-0.969572	1.003931	-0.754150	-0.446777	-0.148438	-0.427115	-0.502725	0.268067	-0.702126
47209		10.979081	0.967855	3.149467	0.053877	-0.968970	0.941659	-0.765869	-0.427246	-0.143555	-0.419129	-0.506370	0.275281	-0.701527
47210		10.847172	0.514156	3.301457	0.022862	-0.987071	0.877231	-0.775146	-0.413574	-0.135986	-0.411561	-0.510094	0.282437	-0.700465
47211		10.901072	0.595991	3.419577	0.057511	-1.032590	0.820471	-0.786865	-0.399414	-0.109863	-0.404017	-0.514274	0.289268	-0.699011
47212		10.885517	0.931573	3.200763	0.006250	-1.033853	0.787330	-0.792236	-0.388672	-0.102295	-0.396833	-0.518307	0.296222	-0.697233
47213		10.922482	0.561932	2.809305	-0.139246	-0.963619	0.764152	-0.796875	-0.367676	-0.091064	-0.390540	-0.521449	0.303655	-0.695244
47214		10.934292	0.098748	2.775674	-0.198106	-0.908663	0.745559	-0.801270	-0.355469	-0.074219	-0.384708	-0.524073	0.311135	-0.693212
47215		10.739318	-0.456085	2.810145	-0.163043	-0.912215	0.717482	-0.808105	-0.347900	-0.058838	-0.378837	-0.526852	0.318269	-0.691097
47216		10.786922	-0.422785	2.916649	-0.087276	-0.930798	0.685593	-0.816162	-0.332275	-0.051270	-0.372731	-0.530010	0.324854	-0.688934
47217		10.946134	-0.029102	2.583507	-0.072374	-0.894739	0.668921	-0.823975	-0.324219	-0.033936	-0.366718	-0.533003	0.331138	-0.686858
47218		10.904884	-0.357676	2.323231	-0.191750	-0.787227	0.675840	-0.815918	-0.297119	-0.028076	-0.361462	-0.534952	0.337776	-0.684893
47219		10.735513	-0.963240	2.282239	-0.264773	-0.735022	0.658583	-0.831055	-0.285889	-0.007568	-0.356749	-0.536390	0.344571	-0.682852
47220		10.707877	-1.001952	2.230241	-0.243858	-0.728461	0.633385	-0.828613	-0.268311	-0.007080	-0.352078	-0.537887	0.351088	-0.680776
47221		10.715676	-0.802270	2.102033	-0.245216	-0.692280	0.632283	-0.836670	-0.269287	-0.000977	-0.347502	-0.539139	0.357477	-0.678809
47222		10.409434	-1.180452	1.972969	-0.218358	-0.676002	0.623772	-0.838379	-0.260742	0.021973	-0.342878	-0.540368	0.363603	-0.676927
47223		10.294132	-1.111290	1.773231	-0.096262	-0.705567	0.588896	-0.841309	-0.243896	0.030273	-0.337791	-0.542183	0.368945	-0.675140
47224		10.544272	-0.917323	1.639968	-0.036532	-0.691854	0.563089	-0.848389	-0.243164	0.039795	-0.332602	-0.544136	0.373773	-0.673488
47225		10.575411	-1.210195	1.561803	-0.006701	-0.665266	0.547037	-0.845947	-0.224854	0.045410	-0.327432	-0.546043	0.378264	-0.671968
47226		10.620420	-1.303400	1.474350	0.025296	-0.639861	0.539997	-0.844971	-0.215332	0.058594	-0.322219	-0.547890	0.382454	-0.670612
47227		10.636904	-1.065362	1.295322	0.018150	-0.597567	0.540394	-0.845215	-0.208008	0.063965	-0.317156	-0.549452	0.386553	-0.669396
47228		10.716643	-1.103804	1.404105	-0.035106	-0.513004	0.550927	-0.850098	-0.195312	0.078125	-0.312537	-0.550346	0.390754	-0.668395
47229		10.503159	-1.446347	1.488867	-0.032075	-0.472786	0.536473	-0.860352	-0.182129	0.083008	-0.308104	-0.551049	0.394750	-0.667525
47230		10.535216	-1.560851	1.608892	0.057732	-0.497747	0.500675	-0.851807	-0.177734	0.090576	-0.303365	-0.552219	0.398130	-0.666721
47231		10.530054	-1.532299	1.570341	0.148562	-0.524879	0.452111	-0.849121	-0.177979	0.094482	-0.298377	-0.553910	0.400834	-0.665948
47232		10.424386	-1.627487	1.437282	0.218776	-0.563161	0.400646	-0.854492	-0.164795	0.110107	-0.293213	-0.556140	0.402989	-0.665082
47233		10.375218	-1.588184	1.213369	0.272326	-0.601937	0.358151	-0.849365	-0.159912	0.119385	-0.287895	-0.558837	0.404728	-0.664088
47234		10.477666	-1.427255	1.040112	0.214850	-0.585029	0.338795	-0.853760	-0.145264	0.128174	-0.282999	-0.561347	0.406637	-0.662909
47235		10.603082	-1.394602	0.961161	0.084787	-0.515800	0.335334	-0.850830	-0.141113	0.140381	-0.278956	-0.563162	0.409069	-0.661585
47236		10.379780	-1.619740	0.856406	-0.008578	-0.462755	0.324665	-0.844238	-0.139160	0.151123	-0.275585	-0.564490	0.411830	-0.660151
47237		10.207318	-1.911451	0.843980	-0.039225	-0.440713	0.299261	-0.846680	-0.137207	0.158447	-0.272568	-0.565703	0.414578	-0.658644
47238		10.113423	-1.912743	0.750983	-0.015384	-0.450249	0.266362	-0.840576	-0.127197	0.163574	-0.269581	-0.567124	0.417052	-0.657087
47239		10.120384	-2.001955	0.616665	-0.007192	-0.444435	0.253585	-0.851807	-0.119629	0.170410	-0.266641	-0.568566	0.419398	-0.655546
47240		9.967331	-2.212870	0.543398	-0.014188	-0.428808	0.238744	-0.843750	-0.126221	0.176270	-0.263866	-0.569949	0.421668	-0.654010
47241		9.976799	-2.339414	0.458858	-0.006172	-0.416960	0.223969	-0.842773	-0.106201	0.186035	-0.261170	-0.571327	0.423789	-0.652517
47242		10.052738	-2.217374	0.257239	-0.004990	-0.410170	0.213254	-0.842529	-0.110596	0.188965	-0.258548	-0.572700	0.425830	-0.651027
47243		9.999843	-2.177285	0.140019	-0.062105	-0.373507	0.218849	-0.848389	-0.108887	0.191162	-0.256294	-0.573723	0.428122	-0.649513
47244		9.888457	-2.293395	0.001634	-0.091763	-0.342065	0.228746	-0.841064	-0.099365	0.208496	-0.254238	-0.574470	0.430547	-0.648056
47245		9.909444	-2.336736	-0.036260	-0.105801	-0.301762	0.224168	-0.841797	-0.100830	0.210205	-0.252416	-0.574979	0.432934	-0.646725
47246		9.832798	-2.375992	-0.037091	-0.110348	-0.259636	0.212512	-0.835449	-0.097900	0.203613	-0.250828	-0.575288	0.435196	-0.645549
47247		9.834347	-2.360353	-0.034192	-0.100804	-0.223971	0.200606	-0.835205	-0.094482	0.219482	-0.249386	-0.575465	0.437270	-0.644548
47248		9.826385	-2.392435	-0.071895	-0.090558	-0.190007	0.192069	-0.839355	-0.083740	0.218750	-0.248063	-0.575507	0.439173	-0.643726
47249		9.774583	-2.360037	-0.137837	-0.089183	-0.160138	0.188216	-0.834717	-0.083740	0.220459	-0.246863	-0.575403	0.440985	-0.643041
47250		9.711569	-2.450085	-0.084381	-0.111448	-0.119744	0.184220	-0.838867	-0.085449	0.228760	-0.245939	-0.575049	0.442810	-0.642457
47251		9.592517	-2.629494	0.008981	-0.123706	-0.090218	0.170411	-0.833496	-0.082031	0.224609	-0.245255	-0.574561	0.444571	-0.641939
47252		9.584481	-2.701392	-0.026610	-0.103083	-0.090857	0.155948	-0.834473	-0.084229	0.224121	-0.244547	-0.574170	0.446151	-0.641463
47253		9.638391	-2.663419	-0.050952	-0.092083	-0.087804	0.140907	-0.834473	-0.083740	0.220947	-0.243879	-0.573838	0.447592	-0.641010
47254		9.672292	-2.749673	-0.006878	-0.093747	-0.081704	0.123150	-0.837891	-0.072754	0.230713	-0.243335	-0.573535	0.448942	-0.640543
47255		9.698558	-2.608260	-0.001279	-0.057270	-0.096686	0.103651	-0.837402	-0.070068	0.230957	-0.242665	-0.573458	0.450033	-0.640101
47256		9.772893	-2.557581	-0.052170	-0.058558	-0.092998	0.084619	-0.830322	-0.071777	0.226807	-0.242117	-0.573429	0.451030	-0.639633
47257		9.686036	-2.667095	-0.052342	-0.060639	-0.083183	0.065603	-0.833496	-0.079590	0.236572	-0.241717	-0.573415	0.451926	-0.639165
47258		9.693074	-2.628321	-0.124230	-0.061958	-0.076412	0.051193	-0.823242	-0.071533	0.229736	-0.241426	-0.573415	0.452744	-0.638695
47259		9.748578	-2.605327	-0.174430	-0.086829	-0.050110	0.039530	-0.837158	-0.075684	0.236084	-0.241415	-0.573269	0.453584	-0.638234
47260		9.754651	-2.608822	-0.124155	-0.111306	-0.015373	0.025393	-0.833252	-0.066162	0.238770	-0.241728	-0.572942	0.454416	-0.637818
47261		9.668511	-2.754403	-0.130481	-0.108435	-0.000550	0.011339	-0.829590	-0.060547	0.237305	-0.242159	-0.572595	0.455133	-0.637455
47262		9.650608	-2.744165	-0.137152	-0.072844	-0.011237	-0.004380	-0.840820	-0.069092	0.236084	-0.242462	-0.572435	0.455607	-0.637144
47263		9.692063	-2.595508	-0.160495	-0.063130	-0.005075	-0.016158	-0.833496	-0.067627	0.240234	-0.242806	-0.572307	0.455959	-0.636876
47264		9.609025	-2.718522	-0.207060	-0.056808	0.007919	-0.029344	-0.834229	-0.066895	0.229980	-0.243239	-0.572173	0.456187	-0.636668
47265		9.619107	-2.680027	-0.219659	-0.043626	0.018162	-0.042161	-0.838379	-0.068848	0.235352	-0.243717	-0.572060	0.456262	-0.636533
47266		9.635512	-2.668256	-0.215883	-0.043085	0.031383	-0.057632	-0.833008	-0.069336	0.234619	-0.244325	-0.571937	0.456232	-0.636432
47267		9.595989	-2.760711	-0.147383	-0.026284	0.038489	-0.069620	-0.831543	-0.075684	0.225098	-0.244943	-0.571856	0.456040	-0.636405
47268		9.612068	-2.774319	-0.186414	0.016256	0.027157	-0.090167	-0.831787	-0.080566	0.236328	-0.245425	-0.571999	0.455547	-0.636444
47269		9.652181	-2.688071	-0.247849	0.056972	0.016392	-0.102963	-0.827148	-0.077637	0.237549	-0.245741	-0.572331	0.454798	-0.636560
47270		9.711096	-2.549643	-0.319184	0.075498	0.019006	-0.112305	-0.838135	-0.077393	0.232178	-0.246027	-0.572721	0.453899	-0.636739
47271		9.752903	-2.506572	-0.290959	0.073351	0.043724	-0.119305	-0.833252	-0.078613	0.228027	-0.246454	-0.573003	0.452926	-0.637013
47272		9.834294	-2.391028	-0.236304	0.072083	0.072086	-0.127533	-0.833740	-0.075195	0.233643	-0.247038	-0.573162	0.451861	-0.637401
47273		9.896110	-2.339846	-0.123245	0.065282	0.099212	-0.139407	-0.835449	-0.085205	0.223633	-0.247820	-0.573207	0.450716	-0.637867
47274		9.916824	-2.191036	-0.008369	0.090535	0.102163	-0.152268	-0.833740	-0.083496	0.223877	-0.248560	-0.573335	0.449367	-0.638414
47275		10.072562	-1.955135	0.068086	0.111069	0.108671	-0.181088	-0.834473	-0.084961	0.226074	-0.249380	-0.573579	0.447755	-0.639009
47276		10.236785	-1.665119	0.090766	0.113847	0.128921	-0.206964	-0.832520	-0.081787	0.220215	-0.250400	-0.573815	0.445958	-0.639655
47277		10.373809	-1.756817	0.217687	0.108247	0.147850	-0.242599	-0.837646	-0.089355	0.220215	-0.251706	-0.574069	0.443975	-0.640293
47278		10.461547	-1.626289	0.377378	0.138711	0.140290	-0.282089	-0.844238	-0.093506	0.215576	-0.253048	-0.574571	0.441651	-0.640921
47279		10.591824	-1.322546	0.429315	0.159373	0.137293	-0.320889	-0.835938	-0.099365	0.209473	-0.254486	-0.575271	0.439031	-0.641524
47280		10.709319	-1.212549	0.549701	0.120114	0.173242	-0.351673	-0.842041	-0.106689	0.209717	-0.256406	-0.575803	0.436388	-0.642085
47281		10.682330	-1.200263	0.609190	0.100898	0.204582	-0.398321	-0.843018	-0.109619	0.203369	-0.258780	-0.576290	0.433548	-0.642619
47282		10.864876	-1.158611	0.688579	0.101453	0.238321	-0.461470	-0.836670	-0.113281	0.198242	-0.261608	-0.576817	0.430318	-0.643171
47283		10.936800	-1.289218	0.886715	0.130120	0.257602	-0.537297	-0.842773	-0.123535	0.197754	-0.264769	-0.577564	0.426515	-0.643741
47284		10.917765	-1.387626	1.060971	0.217846	0.255758	-0.626778	-0.842285	-0.134277	0.193115	-0.267974	-0.578815	0.421799	-0.644398
47285		11.258051	-0.882269	1.159965	0.233871	0.295332	-0.708620	-0.834717	-0.139893	0.185791	-0.271671	-0.580155	0.416494	-0.645095
47286		11.392329	-0.754180	1.230500	0.189359	0.371038	-0.770532	-0.833252	-0.167725	0.176025	-0.276167	-0.581175	0.410933	-0.645834
47287		11.492160	-0.743810	1.427723	0.159202	0.455062	-0.837183	-0.845215	-0.174316	0.174561	-0.281441	-0.581867	0.404992	-0.646686
47288		11.477014	-0.874380	1.556803	0.200220	0.497075	-0.914832	-0.844482	-0.186035	0.164307	-0.287056	-0.582651	0.398321	-0.647655
47289		11.711406	-0.873060	1.681111	0.280763	0.526118	-0.990688	-0.849609	-0.198486	0.149414	-0.292764	-0.583672	0.390741	-0.648798
47290		11.881199	-0.615167	1.633086	0.303356	0.588414	-1.069927	-0.843018	-0.216553	0.152832	-0.298965	-0.584609	0.382460	-0.650059
47291		11.799040	-0.272646	1.611976	0.280467	0.658607	-1.123838	-0.847168	-0.235352	0.134033	-0.305757	-0.585215	0.373816	-0.651381
47292		11.903537	0.083121	1.596289	0.259598	0.723766	-1.138323	-0.840576	-0.259033	0.130371	-0.312901	-0.585380	0.365004	-0.652837
47293		12.157909	0.085601	1.490871	0.222808	0.811658	-1.140239	-0.839844	-0.271240	0.111328	-0.320459	-0.584901	0.356098	-0.654516
47294		12.062396	-0.052038	1.595083	0.186220	0.898036	-1.148360	-0.832520	-0.290039	0.101562	-0.328452	-0.583788	0.347071	-0.656394
47295		11.746177	-0.403615	1.527195	0.226684	0.923105	-1.153976	-0.834473	-0.308838	0.087158	-0.336299	-0.582579	0.337669	-0.658395
47296		11.588202	-0.413980	1.727369	0.276145	0.921890	-1.180196	-0.825195	-0.329834	0.070557	-0.343997	-0.581494	0.327821	-0.660352
47297		11.610155	-0.166169	1.798126	0.258100	0.928530	-1.201159	-0.816895	-0.351318	0.064697	-0.351863	-0.580280	0.317900	-0.662123
47298		11.543693	0.122029	1.770614	0.198316	0.950304	-1.221794	-0.810059	-0.379883	0.052490	-0.360121	-0.578734	0.308085	-0.663674
47299		11.167493	-0.072583	1.727505	0.108491	0.983028	-1.238868	-0.800049	-0.401367	0.031738	-0.368932	-0.576678	0.298536	-0.664987
47300		11.173917	0.155984	1.661011	0.048772	0.996912	-1.252285	-0.792480	-0.418213	0.015137	-0.378072	-0.574293	0.289159	-0.666061
47301		10.922281	0.295330	1.693027	-0.061918	1.047591	-1.244460	-0.789307	-0.441162	0.003662	-0.387749	-0.571154	0.280222	-0.667015
47302		10.874647	0.397701	1.708830	-0.160626	1.107750	-1.223108	-0.775391	-0.455322	-0.011230	-0.397845	-0.567203	0.271690	-0.667970
47303		10.870553	0.535003	1.787643	-0.259601	1.186654	-1.190014	-0.762207	-0.477295	-0.032471	-0.408324	-0.562299	0.263553	-0.669052
47304		10.630301	0.322511	1.917877	-0.315539	1.261800	-1.152867	-0.757568	-0.493408	-0.052734	-0.418939	-0.556587	0.255594	-0.670353
47305		10.321421	0.212529	2.148606	-0.313971	1.278954	-1.123591	-0.734131	-0.512451	-0.073242	-0.429330	-0.550605	0.247652	-0.671698
47306		10.257701	0.389055	2.315392	-0.269956	1.274500	-1.106894	-0.725098	-0.536865	-0.087402	-0.439328	-0.544656	0.239508	-0.673036
47307		10.296762	0.865852	2.276401	-0.276757	1.293907	-1.071617	-0.704834	-0.545654	-0.103271	-0.449107	-0.538392	0.231446	-0.674440
47308		9.976302	0.724722	2.350141	-0.350542	1.312418	-1.014234	-0.700684	-0.564941	-0.131836	-0.458839	-0.531528	0.223944	-0.675865
47309		9.677190	0.410117	2.572451	-0.324385	1.248340	-1.003445	-0.689941	-0.571777	-0.136475	-0.468186	-0.525002	0.216548	-0.676965
47310		9.588764	0.626257	2.797657	-0.257049	1.150944	-1.002654	-0.663330	-0.583984	-0.159180	-0.476975	-0.519194	0.209121	-0.677643
47311		9.585512	0.950349	3.081034	-0.256737	1.075843	-0.979680	-0.658936	-0.602051	-0.172852	-0.485425	-0.513688	0.202062	-0.677981
47312		9.221551	1.049226	2.994007	-0.269478	0.988261	-0.962588	-0.648682	-0.617432	-0.179932	-0.493616	-0.508521	0.195476	-0.677893
47313		9.015153	1.151676	2.977354	-0.220673	0.892272	-0.969941	-0.631104	-0.628906	-0.193115	-0.501420	-0.504043	0.188957	-0.677358
47314		8.932331	1.481762	2.996394	-0.124541	0.794518	-0.975447	-0.611572	-0.641357	-0.196289	-0.508638	-0.500468	0.182261	-0.676461
47315		8.908683	1.865190	3.072547	-0.084762	0.726782	-0.971684	-0.602051	-0.657715	-0.213623	-0.515512	-0.497385	0.175628	-0.675285
47316		8.930425	2.335902	2.964973	-0.101313	0.684815	-0.958621	-0.585938	-0.658203	-0.212158	-0.522267	-0.494400	0.169309	-0.673899
47317		8.757076	2.651734	2.871719	-0.196257	0.688405	-0.947157	-0.562988	-0.679199	-0.230225	-0.529303	-0.490918	0.163539	-0.672378
47318		8.505993	2.484899	3.009194	-0.201467	0.654030	-0.960030	-0.549072	-0.683838	-0.240234	-0.536334	-0.487578	0.157884	-0.670587
47319		8.222948	2.403468	3.260591	-0.118881	0.587095	-0.961833	-0.534668	-0.701904	-0.240967	-0.542901	-0.484939	0.152047	-0.668561
47320		8.123648	2.622633	3.312868	-0.080242	0.529712	-0.950061	-0.522705	-0.713623	-0.244873	-0.549128	-0.482740	0.146291	-0.666348
47321		8.059150	2.674863	3.425065	-0.105571	0.512032	-0.924379	-0.513916	-0.722656	-0.242188	-0.555247	-0.480455	0.140850	-0.664097
47322		7.824985	2.661383	3.410864	-0.146691	0.520767	-0.899242	-0.493164	-0.730225	-0.253174	-0.561360	-0.477866	0.135689	-0.661897
47323		7.547292	2.390807	3.421090	-0.163257	0.521728	-0.874883	-0.478027	-0.741211	-0.259033	-0.567363	-0.475133	0.130703	-0.659746
47324		7.128693	2.084283	3.580941	-0.084557	0.446487	-0.854120	-0.470459	-0.744629	-0.248047	-0.572819	-0.473131	0.125716	-0.657436
47325		7.019316	2.339058	3.495529	0.039753	0.357838	-0.827285	-0.454590	-0.760010	-0.253662	-0.577510	-0.472151	0.120573	-0.654994
47326		6.820758	2.552491	3.450350	0.057311	0.323043	-0.768597	-0.449219	-0.762939	-0.259521	-0.581748	-0.471364	0.115728	-0.652681
47327		6.539025	2.755756	3.044708	0.033948	0.289736	-0.711562	-0.435547	-0.763184	-0.258057	-0.585709	-0.470569	0.111393	-0.650462
47328		6.145305	2.360130	3.073978	0.014664	0.264342	-0.674848	-0.423096	-0.770020	-0.259033	-0.589501	-0.469768	0.107428	-0.648280
47329		6.196839	2.500716	3.374169	0.045048	0.227290	-0.637542	-0.412109	-0.777832	-0.263184	-0.592919	-0.469267	0.103625	-0.646140
47330		6.186860	2.446948	3.893267	0.010360	0.211757	-0.567103	-0.415283	-0.790283	-0.256836	-0.596063	-0.468606	0.100361	-0.644240
47331		5.536716	2.015474	3.941618	0.057836	0.136493	-0.499281	-0.401855	-0.791504	-0.260742	-0.598582	-0.468517	0.097480	-0.642408
47332		5.640514	2.381760	3.991628	0.133078	0.050880	-0.446908	-0.395752	-0.803711	-0.264648	-0.600449	-0.469212	0.094829	-0.640554
47333		5.993380	2.842809	3.996982	0.075885	0.053038	-0.370330	-0.393555	-0.801514	-0.259521	-0.602125	-0.469542	0.092773	-0.639038
47334		5.684832	2.481357	4.089445	-0.016367	0.079362	-0.279745	-0.380615	-0.798340	-0.264404	-0.603695	-0.469195	0.091431	-0.638004
47335		5.437343	2.129594	3.941281	-0.021153	0.058742	-0.214541	-0.378418	-0.803955	-0.258545	-0.604920	-0.468882	0.090474	-0.637210
47336		5.263117	2.000513	3.907426	0.018724	0.013720	-0.164033	-0.383789	-0.808350	-0.260986	-0.605685	-0.468969	0.089732	-0.636523
47337		5.463820	2.251762	3.661802	0.062576	-0.026805	-0.097599	-0.375732	-0.805420	-0.261230	-0.605897	-0.469441	0.089224	-0.636045
47338		5.315729	2.169464	3.344618	0.052944	-0.039752	0.003782	-0.374023	-0.802246	-0.260986	-0.605599	-0.469857	0.089231	-0.636021
47339		4.945383	1.952878	3.035436	-0.015564	-0.038318	0.116264	-0.376709	-0.801514	-0.262695	-0.604973	-0.469835	0.090036	-0.636518
47340		4.936771	1.885821	2.798160	-0.047045	-0.077108	0.159148	-0.378174	-0.798828	-0.259766	-0.604214	-0.469827	0.091373	-0.637055
47341		5.053380	1.553209	3.017754	-0.020340	-0.132208	0.207744	-0.378418	-0.797363	-0.261963	-0.603048	-0.470208	0.093039	-0.637638
47342		5.168069	1.498747	3.061929	0.050312	-0.216782	0.290027	-0.385010	-0.798096	-0.256592	-0.601098	-0.471325	0.095078	-0.638352
47343		5.368652	1.795872	2.968554	0.083973	-0.290403	0.372946	-0.403076	-0.798340	-0.252686	-0.598509	-0.472931	0.097635	-0.639211
47344		5.581034	1.981000	2.961831	0.031272	-0.316734	0.448264	-0.401611	-0.792725	-0.259277	-0.595693	-0.474343	0.100901	-0.640287
47345		5.589357	1.706681	3.064254	0.017550	-0.323304	0.513124	-0.410156	-0.784668	-0.248535	-0.592566	-0.475656	0.104530	-0.641631
47346		5.706984	1.507315	3.451752	0.066154	-0.363105	0.566638	-0.425293	-0.787109	-0.246826	-0.588908	-0.477360	0.108307	-0.643105
47347		6.069727	1.698152	3.425836	0.131020	-0.408773	0.639217	-0.436035	-0.779053	-0.244385	-0.584540	-0.479544	0.112248	-0.644788
47348		6.383042	2.029249	3.167385	0.075266	-0.397579	0.741803	-0.441895	-0.771484	-0.238770	-0.579827	-0.481276	0.116841	-0.646933
47349		6.455499	1.724475	3.054014	0.040315	-0.389977	0.822597	-0.458984	-0.760498	-0.231934	-0.574795	-0.482693	0.121907	-0.649429
47350		6.746373	1.721195	3.199016	0.069561	-0.408244	0.886290	-0.464600	-0.751221	-0.229248	-0.569245	-0.484252	0.127153	-0.652144
47351		7.083900	1.775127	3.540325	0.091801	-0.441775	0.943990	-0.486816	-0.745117	-0.236816	-0.563214	-0.486002	0.132664	-0.654974
47352		7.625368	1.938670	3.694930	0.103324	-0.495309	1.009317	-0.514648	-0.728271	-0.230469	-0.556674	-0.487985	0.138620	-0.657852
47353		7.725080	1.995257	3.696522	0.069731	-0.508468	1.072383	-0.511719	-0.717285	-0.222412	-0.549857	-0.489763	0.145067	-0.660867
47354		7.968284	1.761723	3.404879	0.077955	-0.533756	1.123795	-0.539307	-0.714111	-0.223389	-0.542635	-0.491603	0.151782	-0.663955
47355		8.159403	1.778919	3.211790	0.075262	-0.553032	1.154776	-0.546875	-0.695068	-0.221924	-0.535166	-0.493442	0.158711	-0.667025
47356		8.743020	2.279713	2.817780	0.022822	-0.582177	1.161956	-0.568115	-0.680664	-0.217285	-0.527772	-0.495141	0.166075	-0.669859
47357		8.630226	2.139859	3.029370	-0.042856	-0.641323	1.123550	-0.587402	-0.666016	-0.203613	-0.520717	-0.496875	0.173889	-0.672110
47358		8.818055	1.549444	3.302025	0.095643	-0.762606	1.115470	-0.610107	-0.657227	-0.201172	-0.512892	-0.499840	0.181401	-0.673940
47359		9.035440	1.329259	3.395505	0.265581	-0.873550	1.126939	-0.619629	-0.636963	-0.185791	-0.504057	-0.504066	0.188458	-0.675520
47360		9.816962	1.923056	3.118029	0.287860	-0.949648	1.125802	-0.639648	-0.630615	-0.176270	-0.494936	-0.508738	0.195677	-0.676709
47361		9.982677	2.415692	3.143452	0.177106	-0.913472	1.120829	-0.657715	-0.605469	-0.169189	-0.486295	-0.512678	0.203323	-0.677745
47362		10.267677	2.030751	3.290444	0.139740	-0.837005	1.128698	-0.665527	-0.596191	-0.159668	-0.477828	-0.515947	0.210875	-0.678978
47363		10.117997	1.154398	3.756612	0.295539	-0.847194	1.104287	-0.681641	-0.568848	-0.148926	-0.468743	-0.519863	0.217451	-0.680248
47364		10.260455	1.097800	3.412862	0.562121	-0.956285	1.056336	-0.696289	-0.565674	-0.128662	-0.458505	-0.525444	0.222704	-0.681238
47365		10.836242	2.053800	2.749472	0.656553	-0.963804	1.042910	-0.701172	-0.547119	-0.109863	-0.447832	-0.531366	0.227350	-0.682208
47366		10.792287	1.740728	2.668210	0.527870	-0.868980	1.077386	-0.721680	-0.528076	-0.102295	-0.437643	-0.536116	0.232492	-0.683371
47367		10.770145	1.446376	2.853047	0.459923	-0.863135	1.110496	-0.726807	-0.513184	-0.083252	-0.427521	-0.540431	0.238123	-0.684439
47368		11.108726	1.656027	3.132054	0.316736	-0.817228	1.141022	-0.741943	-0.495361	-0.080078	-0.417883	-0.543840	0.244495	-0.685444
47369		11.111594	1.574952	2.775236	0.173044	-0.782850	1.119690	-0.752197	-0.469971	-0.065186	-0.409043	-0.546511	0.251450	-0.686136
47370		10.928654	1.383894	2.434227	0.113564	-0.799012	1.063340	-0.762451	-0.465820	-0.055908	-0.400698	-0.549125	0.258499	-0.686354
47371		10.675314	0.840651	2.592371	0.168315	-0.877340	0.981552	-0.770508	-0.447998	-0.042480	-0.392352	-0.552476	0.265090	-0.685972
47372		10.911798	1.044350	2.734339	0.309121	-0.984269	0.902494	-0.784180	-0.428711	-0.025879	-0.383522	-0.557002	0.270827	-0.685064
47373		11.240639	1.578020	2.624479	0.297202	-0.983284	0.867066	-0.781250	-0.406250	-0.016113	-0.374901	-0.561492	0.276428	-0.683933
47374		11.072369	1.181556	2.521094	0.156442	-0.932989	0.853747	-0.797119	-0.396973	0.001953	-0.367086	-0.565218	0.282576	-0.682589
47375		10.891283	0.592817	2.214958	0.058077	-0.915207	0.831514	-0.806641	-0.390625	0.013916	-0.359860	-0.568532	0.289091	-0.680954
47376		11.053586	0.661973	2.109668	-0.005503	-0.875774	0.805024	-0.804688	-0.373779	0.030029	-0.353144	-0.571435	0.295692	-0.679204
47377		10.941831	0.222395	2.012985	-0.019611	-0.831277	0.790757	-0.809814	-0.357422	0.042480	-0.346651	-0.574025	0.302143	-0.677524
47378		10.831022	-0.044128	2.001428	0.090535	-0.846226	0.747985	-0.817627	-0.340332	0.052246	-0.339802	-0.577072	0.307782	-0.675864
47379		11.119161	0.218960	1.797326	0.188921	-0.856349	0.714899	-0.822754	-0.328613	0.064209	-0.332610	-0.580487	0.312708	-0.674255
47380		10.978579	-0.075511	1.536026	0.217030	-0.832666	0.692889	-0.820312	-0.314941	0.078369	-0.325438	-0.583852	0.317274	-0.672713
47381		10.827336	-0.450869	1.363016	0.274909	-0.816849	0.671773	-0.828857	-0.305176	0.091309	-0.318117	-0.587292	0.321342	-0.671289
47382		10.884460	-0.458288	1.195744	0.306807	-0.810513	0.661151	-0.826904	-0.294189	0.112549	-0.310690	-0.590760	0.325135	-0.669897
47383		10.817721	-0.929141	1.185711	0.322753	-0.804203	0.653252	-0.824463	-0.288086	0.122803	-0.303218	-0.594205	0.328756	-0.668504
47384		10.390677	-1.582585	1.093684	0.470008	-0.883790	0.618685	-0.823242	-0.269287	0.131104	-0.294965	-0.598507	0.331557	-0.666974
47385		10.279491	-1.503539	0.926091	0.686301	-1.011020	0.574476	-0.828613	-0.254150	0.156738	-0.285495	-0.604101	0.333211	-0.665226
47386		10.560458	-0.539740	0.288566	0.788202	-1.050908	0.565666	-0.828125	-0.252197	0.171387	-0.275410	-0.610100	0.334307	-0.663450
47387		10.638225	-0.594697	-0.052887	0.702447	-0.984393	0.588216	-0.828369	-0.236084	0.182373	-0.265785	-0.615390	0.335792	-0.661738
47388		10.336271	-1.046551	-0.283440	0.664046	-0.940795	0.596436	-0.822021	-0.221191	0.205078	-0.256401	-0.620257	0.337393	-0.660080
47389		10.254907	-1.185800	-0.436475	0.670194	-0.923613	0.586160	-0.819824	-0.211670	0.225342	-0.247059	-0.625000	0.338829	-0.658431
47390		10.404004	-0.854930	-0.465982	0.636169	-0.887018	0.578557	-0.819092	-0.197021	0.241211	-0.238012	-0.629425	0.340300	-0.656788
47391		10.566293	-0.526555	-0.603132	0.536838	-0.814743	0.578770	-0.816895	-0.195801	0.250244	-0.229666	-0.633195	0.342136	-0.655180
47392		10.562891	-0.455280	-0.684860	0.387523	-0.713636	0.588827	-0.809570	-0.171631	0.263428	-0.222322	-0.636049	0.344618	-0.653646
47393		10.516924	-0.563960	-0.801665	0.232138	-0.614181	0.610875	-0.810059	-0.172363	0.275391	-0.215953	-0.637972	0.347853	-0.652192
47394		10.533990	-0.668805	-0.689273	0.076817	-0.511013	0.619143	-0.821289	-0.154297	0.279053	-0.210652	-0.638998	0.351771	-0.650818
47395		10.618363	-0.701831	-0.598400	-0.081301	-0.409783	0.615270	-0.818604	-0.135986	0.290039	-0.206503	-0.639183	0.356329	-0.649485
47396		10.601102	-0.965352	-0.358915	-0.214846	-0.330495	0.597762	-0.807861	-0.128662	0.293701	-0.203388	-0.638738	0.361364	-0.648122
47397		10.515615	-1.292755	-0.148752	-0.275847	-0.292064	0.564856	-0.815918	-0.123779	0.289551	-0.200884	-0.638059	0.366473	-0.646702
47398		10.381575	-1.538891	0.049291	-0.253330	-0.299598	0.517780	-0.812500	-0.110840	0.306885	-0.198485	-0.637582	0.371208	-0.645211
47399		10.379582	-1.650797	-0.006156	-0.192861	-0.323005	0.464798	-0.810059	-0.102295	0.304932	-0.195973	-0.637476	0.375363	-0.643678
47400		10.468788	-1.547474	-0.090889	-0.164461	-0.325509	0.423442	-0.810059	-0.103760	0.310547	-0.193520	-0.637543	0.379139	-0.642138
47401		10.663684	-1.463919	-0.181348	-0.200866	-0.275490	0.396369	-0.810059	-0.094971	0.321045	-0.191560	-0.637357	0.382876	-0.640693
47402		10.638270	-1.403505	-0.173303	-0.291939	-0.196453	0.383003	-0.809326	-0.094238	0.318848	-0.190404	-0.636633	0.386891	-0.639343
47403		10.570454	-1.396678	-0.204319	-0.419542	-0.110189	0.381606	-0.806641	-0.094727	0.317383	-0.190208	-0.635238	0.391430	-0.638025
47404		10.431099	-1.617393	-0.208343	-0.547546	-0.012046	0.379714	-0.803711	-0.080078	0.319336	-0.191016	-0.633108	0.396471	-0.636788
47405		10.233825	-2.024487	-0.182510	-0.594491	0.053578	0.361002	-0.806396	-0.082764	0.317627	-0.192382	-0.630595	0.401541	-0.635692
47406		10.108291	-2.196377	-0.164694	-0.551199	0.080826	0.321105	-0.808838	-0.076416	0.313965	-0.193817	-0.628120	0.406114	-0.634800
47407		10.041546	-2.218372	-0.172922	-0.458901	0.078859	0.278175	-0.805176	-0.075195	0.317383	-0.194986	-0.625934	0.409966	-0.634125
47408		9.884829	-2.332700	-0.243595	-0.353810	0.074814	0.241494	-0.815186	-0.074707	0.316895	-0.195785	-0.624054	0.413069	-0.633719
47409		9.725543	-2.439549	-0.474734	-0.224762	0.056605	0.211522	-0.816650	-0.078125	0.325684	-0.196006	-0.622576	0.415358	-0.633607
47410		9.738170	-2.402821	-0.669792	-0.142575	0.051662	0.190446	-0.808105	-0.073486	0.310791	-0.195895	-0.621328	0.417109	-0.633717
47411		9.645629	-2.413249	-0.857693	-0.141450	0.085428	0.177191	-0.806641	-0.066895	0.311035	-0.195964	-0.619947	0.418727	-0.633981
47412		9.565916	-2.546337	-0.913405	-0.177503	0.126526	0.180101	-0.811035	-0.063477	0.316895	-0.196348	-0.618276	0.420480	-0.634333
47413		9.520436	-2.546903	-1.004258	-0.222888	0.160760	0.183242	-0.806641	-0.070801	0.311035	-0.197067	-0.616335	0.422429	-0.634704
47414		9.530204	-2.570429	-1.031011	-0.301897	0.196651	0.186836	-0.807861	-0.068115	0.311279	-0.198298	-0.614056	0.424751	-0.634980
47415		9.422328	-2.753023	-1.064403	-0.345367	0.198596	0.177186	-0.818115	-0.057617	0.303955	-0.199807	-0.611721	0.427244	-0.635088
47416		9.317352	-2.894979	-1.017222	-0.334872	0.169482	0.161556	-0.809326	-0.051270	0.305908	-0.201238	-0.609606	0.429644	-0.635051
47417		9.209475	-3.023354	-1.050879	-0.275655	0.113582	0.127439	-0.810791	-0.056396	0.297607	-0.202348	-0.608001	0.431647	-0.634879
47418		9.278173	-2.923741	-1.084324	-0.188261	0.031033	0.094987	-0.815186	-0.056396	0.299561	-0.202888	-0.607094	0.433160	-0.634544
47419		9.462112	-2.693415	-1.126825	-0.143599	-0.020162	0.061304	-0.813232	-0.057861	0.297852	-0.203195	-0.606653	0.434352	-0.634052
47420		9.420831	-2.723818	-1.108898	-0.132751	-0.047160	0.033218	-0.815430	-0.065674	0.297119	-0.203497	-0.606474	0.435388	-0.633415
47421		9.365554	-2.802686	-1.122108	-0.099881	-0.077621	0.013904	-0.815430	-0.063721	0.302490	-0.203625	-0.606582	0.436204	-0.632710
47422		9.402518	-2.729385	-1.141887	-0.084065	-0.095396	0.005248	-0.814697	-0.067627	0.301514	-0.203654	-0.606841	0.436922	-0.631956
