// Start Time: Unknown
// Update Rate: 60.0Hz
// Filter Profile: human (46.1)
// Firmware Version: 4.6.0
PacketCounter	SampleTimeFine	Acc_X	Acc_Y	Acc_Z	Gyr_X	Gyr_Y	Gyr_Z	Mag_X	Mag_Y	Mag_Z	Quat_q0	Quat_q1	Quat_q2	Quat_q3
43929		5.337150	1.365671	7.989346	0.032613	0.005763	0.024533	-0.183838	-0.118896	-0.562988	0.951427	0.097542	-0.280810	0.080117
43930		5.373981	1.404762	7.978350	0.035629	-0.003473	0.027485	-0.191895	-0.119629	-0.569580	0.951371	0.097762	-0.280836	0.080415
43931		5.354382	1.443389	8.012075	0.033440	-0.008711	0.027003	-0.182373	-0.122070	-0.570557	0.951303	0.097969	-0.280912	0.080701
43932		5.305129	1.438183	7.992563	0.019849	-0.014916	0.021104	-0.183350	-0.124268	-0.569580	0.951238	0.098088	-0.281034	0.080902
43933		5.318742	1.443115	8.042087	0.016924	-0.020788	0.008189	-0.183838	-0.124512	-0.573486	0.951170	0.098220	-0.281193	0.080989
43934		5.354957	1.410270	8.077022	0.008592	-0.021128	0.001854	-0.177246	-0.126221	-0.572266	0.951113	0.098302	-0.281353	0.081005
43935		5.359231	1.335154	8.038658	0.001219	-0.021194	-0.004046	-0.179199	-0.120117	-0.571777	0.951066	0.098341	-0.281511	0.080956
43936		5.357981	1.310356	8.035016	-0.003789	-0.031036	-0.002097	-0.187744	-0.125488	-0.565430	0.950999	0.098339	-0.281752	0.080904
43937		5.376731	1.339615	8.064373	-0.009229	-0.036691	0.000575	-0.180176	-0.122803	-0.571045	0.950923	0.098288	-0.282042	0.080857
43938		5.339931	1.381829	8.046000	-0.003148	-0.041555	0.002652	-0.189697	-0.127441	-0.573730	0.950829	0.098280	-0.282367	0.080837
43939		5.364173	1.435878	8.076211	-0.009996	-0.037157	-0.002083	-0.191406	-0.118896	-0.559082	0.950755	0.098226	-0.282653	0.080767
43940		5.305724	1.455468	8.068468	-0.013114	-0.041478	-0.004977	-0.187500	-0.118408	-0.571777	0.950677	0.098160	-0.282968	0.080662
43941		5.260872	1.446540	8.068274	-0.013366	-0.038828	-0.014268	-0.187500	-0.129639	-0.571533	0.950615	0.098118	-0.283244	0.080482
43942		5.265924	1.446250	8.065030	-0.011493	-0.041972	-0.017223	-0.182129	-0.117188	-0.574219	0.950549	0.098105	-0.283527	0.080278
43943		5.299534	1.432212	8.068999	-0.008923	-0.040867	-0.021247	-0.186768	-0.125977	-0.574463	0.950490	0.098125	-0.283782	0.080047
43944		5.316881	1.360764	8.080740	-0.009207	-0.038072	-0.020763	-0.192139	-0.129395	-0.575195	0.950441	0.098145	-0.284003	0.079818
43945		5.302437	1.321939	8.076108	-0.005816	-0.042631	-0.014435	-0.193848	-0.120850	-0.563232	0.950378	0.098176	-0.284252	0.079643
43946		5.321343	1.293913	8.079995	0.001311	-0.038588	-0.010061	-0.192383	-0.115479	-0.570801	0.950317	0.098238	-0.284467	0.079528
43947		5.300297	1.350668	8.082495	-0.001856	-0.035300	-0.003080	-0.188721	-0.122070	-0.570801	0.950268	0.098244	-0.284647	0.079471
43948		5.299379	1.400986	8.114450	-0.007590	-0.039353	0.002076	-0.189209	-0.118408	-0.572998	0.950214	0.098193	-0.284853	0.079432
43949		5.291395	1.458132	8.189332	-0.013221	-0.033736	-0.002639	-0.192383	-0.130371	-0.566895	0.950188	0.098102	-0.284997	0.079350
43950		5.300221	1.452209	8.248839	-0.020328	-0.027922	-0.010877	-0.187256	-0.134766	-0.572754	0.950189	0.097984	-0.285083	0.079170
43951		5.238661	1.427594	8.250606	-0.026775	-0.023969	-0.016261	-0.186768	-0.125000	-0.573975	0.950221	0.097830	-0.285098	0.078923
43952		5.227099	1.395432	8.216949	-0.026595	-0.024162	-0.018487	-0.189453	-0.125488	-0.571289	0.950261	0.097674	-0.285086	0.078678
43953		5.261416	1.360747	8.231939	-0.025013	-0.013368	-0.017039	-0.191162	-0.122559	-0.583252	0.950328	0.097519	-0.284978	0.078454
43954		5.154964	1.320715	8.195507	-0.018451	-0.011243	-0.011802	-0.187012	-0.123779	-0.571533	0.950415	0.097388	-0.284775	0.078301
43955		5.190787	1.344109	8.256368	-0.011056	-0.011187	-0.005943	-0.187988	-0.125977	-0.566650	0.950477	0.097300	-0.284622	0.078205
43956		5.205293	1.388878	8.320817	-0.008207	0.003203	-0.008463	-0.190186	-0.124512	-0.564209	0.950570	0.097229	-0.284365	0.078096
43957		5.241341	1.334513	8.242244	-0.004977	0.019695	-0.009626	-0.189941	-0.121826	-0.573486	0.950701	0.097173	-0.283973	0.078005
43958		5.255706	1.285693	8.135457	-0.003171	0.029054	-0.004642	-0.192139	-0.122070	-0.565430	0.950874	0.097095	-0.283425	0.077987
43959		5.249133	1.273237	8.064279	0.002858	0.025544	0.001416	-0.189941	-0.131104	-0.575439	0.951006	0.097053	-0.282983	0.078029
43960		5.324083	1.312302	8.042005	0.006071	0.019861	0.002166	-0.191895	-0.120117	-0.563232	0.951158	0.097032	-0.282484	0.078009
43961		5.375637	1.271483	7.984632	0.002992	0.022969	0.003154	-0.191162	-0.124023	-0.580322	0.951264	0.096982	-0.282122	0.078093
43962		5.388079	1.315384	7.925555	0.007673	0.012159	0.009361	-0.175781	-0.127441	-0.562012	0.951392	0.096935	-0.281677	0.078195
43963		5.405486	1.385643	7.992376	0.003529	0.008920	0.010056	-0.195312	-0.129150	-0.572021	0.951443	0.096907	-0.281503	0.078242
43964		5.410463	1.378621	8.075914	-0.007331	0.014915	0.011664	-0.195557	-0.121582	-0.573730	0.951551	0.096761	-0.281177	0.078282
43965		5.345421	1.382122	8.040901	-0.002200	0.014699	0.011348	-0.186523	-0.127197	-0.575928	0.951645	0.096645	-0.280860	0.078416
43966		5.311724	1.384556	8.086514	0.006149	0.015028	0.017648	-0.196289	-0.124756	-0.567871	0.951739	0.096596	-0.280524	0.078542
43967		5.326439	1.382113	8.076026	0.018547	0.022370	0.019534	-0.180176	-0.120361	-0.564453	0.951801	0.096651	-0.280233	0.078761
43968		5.329939	1.420379	8.007108	0.024713	0.031051	0.021546	-0.187988	-0.115234	-0.570557	0.951861	0.096757	-0.279910	0.079051
43969		5.328440	1.522915	8.026593	0.006428	0.024654	0.015328	-0.180664	-0.126221	-0.572021	0.951938	0.096709	-0.279593	0.079310
43970		5.381728	1.508758	8.075902	-0.008354	0.028283	0.003630	-0.185547	-0.121094	-0.565430	0.952058	0.096613	-0.279219	0.079299
43971		5.376396	1.419154	7.968684	-0.012337	0.032188	-0.007579	-0.185303	-0.123779	-0.567871	0.952164	0.096519	-0.278900	0.079259
43972		5.334608	1.383106	7.815265	0.000552	0.019226	-0.004633	-0.187744	-0.124268	-0.567627	0.952235	0.096535	-0.278660	0.079227
43973		5.383517	1.466396	7.870065	0.009981	-0.001393	-0.000179	-0.188721	-0.114502	-0.575439	0.952241	0.096633	-0.278606	0.079235
43974		5.410819	1.515732	8.005952	0.008238	-0.012122	-0.009181	-0.184082	-0.124512	-0.569824	0.952239	0.096698	-0.278580	0.079265
43975		5.396877	1.534545	8.069048	0.006098	-0.021219	-0.019485	-0.184814	-0.121826	-0.570557	0.952216	0.096840	-0.278663	0.079082
43976		5.436174	1.574165	8.202137	-0.007354	-0.026377	-0.033327	-0.191895	-0.129150	-0.567627	0.952198	0.096904	-0.278786	0.078782
43977		5.318960	1.535170	8.237523	-0.033959	-0.029495	-0.055584	-0.184082	-0.122803	-0.569580	0.952195	0.096856	-0.278985	0.078169
43978		5.156675	1.452299	8.252482	-0.058925	-0.045336	-0.078481	-0.189209	-0.120605	-0.573486	0.952204	0.096646	-0.279253	0.077360
43979		5.108213	1.372611	8.425431	-0.082132	-0.054211	-0.105971	-0.196777	-0.123779	-0.568115	0.952234	0.096301	-0.279564	0.076295
43980		5.085546	1.190004	8.475057	-0.104623	-0.040113	-0.116913	-0.189209	-0.122803	-0.571045	0.952301	0.095813	-0.279833	0.075069
43981		5.049121	1.046477	8.446466	-0.111476	-0.021827	-0.105839	-0.189697	-0.121826	-0.565430	0.952435	0.095212	-0.279887	0.073934
43982		5.009176	0.961962	8.423769	-0.099179	0.000630	-0.080367	-0.195801	-0.120605	-0.565430	0.952584	0.094619	-0.279812	0.073053
43983		5.046724	0.958333	8.392044	-0.081010	0.022004	-0.046784	-0.189453	-0.120361	-0.570801	0.952741	0.094051	-0.279607	0.072512
43984		5.088172	1.021926	8.377104	-0.054341	0.047051	-0.015047	-0.186035	-0.114502	-0.572510	0.952946	0.093579	-0.279122	0.072307
43985		5.158593	1.172009	8.284970	-0.031546	0.069776	0.016960	-0.194336	-0.121338	-0.575439	0.953177	0.093143	-0.278434	0.072478
43986		5.290580	1.419214	8.249899	-0.023740	0.092798	0.031921	-0.190430	-0.112061	-0.564697	0.953436	0.092759	-0.277605	0.072746
43987		5.350858	1.545699	8.139490	-0.022336	0.106291	0.041485	-0.184082	-0.111328	-0.569336	0.953690	0.092325	-0.276758	0.073188
43988		5.394701	1.659882	8.009093	-0.014595	0.104826	0.031342	-0.185059	-0.109619	-0.568848	0.953961	0.091975	-0.275843	0.073554
43989		5.445685	1.741108	7.874715	-0.007013	0.089920	0.013618	-0.185547	-0.108398	-0.569336	0.954189	0.091743	-0.275063	0.073797
43990		5.587145	1.748905	7.862140	-0.005696	0.072650	-0.007837	-0.178467	-0.112793	-0.572266	0.954381	0.091591	-0.274430	0.073863
43991		5.619427	1.634352	7.804770	-0.012163	0.069413	-0.024695	-0.175537	-0.114258	-0.564453	0.954598	0.091479	-0.273755	0.073711
43992		5.536988	1.431455	7.705593	-0.018393	0.054730	-0.030457	-0.180664	-0.117188	-0.564941	0.954766	0.091392	-0.273261	0.073473
43993		5.519824	1.340705	7.692798	-0.013109	0.032068	-0.031191	-0.182129	-0.113281	-0.567383	0.954858	0.091395	-0.273009	0.073212
43994		5.496279	1.259043	7.700216	-0.016940	0.014944	-0.038815	-0.184326	-0.113281	-0.571777	0.954914	0.091349	-0.272910	0.072901
43995		5.531027	1.105101	7.728163	-0.020988	0.006582	-0.028718	-0.177734	-0.112793	-0.565674	0.954948	0.091237	-0.272896	0.072654
43996		5.571269	0.975041	7.757215	-0.011811	0.003340	-0.008457	-0.181396	-0.111816	-0.567139	0.954956	0.091161	-0.272914	0.072579
43997		5.508306	0.920875	7.694720	0.008078	0.002833	0.018176	-0.180908	-0.114258	-0.570557	0.954920	0.091156	-0.272989	0.072774
43998		5.425719	1.003829	7.685544	0.020594	-0.013762	0.046569	-0.174316	-0.113770	-0.573242	0.954825	0.091202	-0.273191	0.073195
43999		5.400735	1.146613	7.780258	0.026487	-0.028453	0.058421	-0.179688	-0.114502	-0.570068	0.954714	0.091251	-0.273430	0.073692
44000		5.365756	1.270915	7.914836	0.017115	-0.037496	0.055689	-0.182129	-0.108154	-0.575928	0.954563	0.091255	-0.273829	0.074156
44001		5.369022	1.299589	7.955495	0.005844	-0.042126	0.050184	-0.179199	-0.110596	-0.566162	0.954424	0.091079	-0.274264	0.074560
44002		5.395333	1.335522	7.953173	-0.000683	-0.051535	0.037199	-0.177002	-0.112793	-0.569336	0.954264	0.090954	-0.274787	0.074833
44003		5.267516	1.409123	8.046903	-0.016458	-0.070198	0.032818	-0.182373	-0.116211	-0.569580	0.954093	0.090746	-0.275405	0.074994
44004		5.324798	1.355219	8.262486	-0.015721	-0.081980	0.016139	-0.187256	-0.112305	-0.572266	0.953884	0.090648	-0.276150	0.075028
44005		5.390975	1.250701	8.337902	-0.000560	-0.057651	0.017739	-0.172852	-0.104736	-0.565430	0.953713	0.090589	-0.276729	0.075139
44006		5.258559	1.125916	8.229078	0.006757	-0.042772	0.041250	-0.181641	-0.116943	-0.574951	0.953614	0.090418	-0.277051	0.075409
44007		5.119122	1.124821	8.214569	0.020397	-0.051586	0.060415	-0.180908	-0.114990	-0.580322	0.953448	0.090474	-0.277478	0.075872
44008		5.253097	1.288470	8.339401	0.016931	-0.048004	0.062095	-0.177734	-0.118652	-0.573486	0.953315	0.090437	-0.277825	0.076321
44009		5.093377	1.248344	8.178221	0.002073	-0.032905	0.056630	-0.188232	-0.115234	-0.566162	0.953230	0.090366	-0.278033	0.076704
44010		4.965195	1.234229	8.183677	0.006185	-0.053132	0.049948	-0.185547	-0.111572	-0.570801	0.953042	0.090346	-0.278574	0.077104
44011		5.100584	1.219011	8.397793	0.007520	-0.054480	0.038127	-0.181396	-0.111328	-0.570557	0.952890	0.090280	-0.279039	0.077377
44012		5.233653	1.190407	8.288791	-0.011645	-0.031293	0.039573	-0.182861	-0.116211	-0.573486	0.952831	0.090033	-0.279255	0.077607
44013		5.158661	1.163673	8.051091	-0.013949	-0.028836	0.054988	-0.184570	-0.119385	-0.572754	0.952768	0.089803	-0.279450	0.077957
44014		5.074814	1.294601	8.055632	0.000168	-0.049205	0.069444	-0.178467	-0.109375	-0.580566	0.952625	0.089728	-0.279822	0.078452
44015		5.113826	1.405891	8.287796	0.009552	-0.050052	0.062373	-0.191650	-0.113281	-0.578857	0.952540	0.089534	-0.280060	0.078848
44016		5.004872	1.431691	8.420775	0.000892	-0.032579	0.056877	-0.182617	-0.115967	-0.575684	0.952437	0.089371	-0.280343	0.079269
44017		4.969077	1.393799	8.513260	0.002684	-0.008315	0.062207	-0.181641	-0.110107	-0.577637	0.952426	0.089244	-0.280300	0.079703
44018		4.957549	1.373392	8.408562	0.018542	0.011590	0.070520	-0.181152	-0.117920	-0.573242	0.952462	0.089106	-0.280066	0.080247
44019		4.901981	1.562478	8.418804	0.029659	0.020086	0.064704	-0.178955	-0.109619	-0.572021	0.952500	0.089218	-0.279750	0.080772
44020		4.967216	1.626348	8.409540	0.011975	0.016860	0.045864	-0.185059	-0.110596	-0.571045	0.952573	0.089102	-0.279439	0.081114
44021		5.070406	1.634153	8.341434	-0.008604	0.026306	0.012212	-0.184570	-0.116699	-0.572754	0.952672	0.088935	-0.279134	0.081188
44022		5.057148	1.523048	8.189729	-0.031257	0.015570	-0.018462	-0.182861	-0.118408	-0.572021	0.952785	0.088769	-0.278877	0.080927
44023		4.941729	1.444977	8.224569	-0.046882	-0.017022	-0.033256	-0.182373	-0.111328	-0.577148	0.952848	0.088574	-0.278854	0.080472
44024		4.949438	1.420403	8.523862	-0.047593	-0.030075	-0.049940	-0.179688	-0.111084	-0.571045	0.952913	0.088286	-0.278891	0.079888
44025		4.934875	1.343257	8.768972	-0.052672	-0.000087	-0.055015	-0.177979	-0.112305	-0.572510	0.953056	0.087974	-0.278677	0.079270
44026		4.921279	1.156598	8.704737	-0.049274	0.037484	-0.046081	-0.182861	-0.113770	-0.567871	0.953290	0.087661	-0.278125	0.078738
44027		4.891928	1.043247	8.503750	-0.023456	0.065918	-0.022178	-0.174561	-0.112793	-0.572510	0.953516	0.087535	-0.277455	0.078511
44028		4.882402	1.133144	8.329510	0.005154	0.070414	0.002741	-0.178223	-0.107910	-0.574463	0.953767	0.087526	-0.276595	0.078504
44029		4.922407	1.201627	8.337105	0.011611	0.067676	0.015902	-0.183105	-0.107422	-0.571289	0.953981	0.087456	-0.275828	0.078677
44030		5.049469	1.329382	8.239466	0.008769	0.075650	0.022559	-0.178467	-0.115723	-0.576904	0.954173	0.087358	-0.275116	0.078948
44031		4.928914	1.504975	8.143194	0.016296	0.072914	0.010611	-0.178223	-0.116211	-0.583740	0.954392	0.087457	-0.274301	0.079034
44032		4.900895	1.555160	8.236934	-0.003156	0.047974	-0.011609	-0.182617	-0.116211	-0.572021	0.954594	0.087451	-0.273646	0.078869
44033		5.015395	1.546360	8.398744	-0.030617	0.047380	-0.042093	-0.182129	-0.111572	-0.574219	0.954780	0.087357	-0.273150	0.078442
44034		4.893235	1.365989	8.313143	-0.053108	0.051759	-0.062779	-0.182373	-0.114746	-0.574707	0.955010	0.087051	-0.272613	0.077846
44035		4.651989	1.306477	8.411979	-0.046512	0.027664	-0.058062	-0.184082	-0.111816	-0.571289	0.955173	0.086860	-0.272273	0.077253
44036		4.575438	1.416471	8.835705	-0.040618	0.015463	-0.053968	-0.177734	-0.110596	-0.572266	0.955283	0.086687	-0.272087	0.076739
44037		4.469091	1.525505	9.220383	-0.050609	0.044444	-0.072509	-0.181641	-0.111328	-0.563232	0.955514	0.086430	-0.271548	0.076053
44038		4.280423	1.402307	9.415641	-0.079359	0.085319	-0.101850	-0.175781	-0.105469	-0.580322	0.955834	0.086043	-0.270805	0.075115
44039		4.199281	1.207865	9.443436	-0.091910	0.123380	-0.104352	-0.189941	-0.109863	-0.572510	0.956318	0.085377	-0.269565	0.074177
44040		4.138805	1.031368	9.524682	-0.053639	0.155270	-0.076698	-0.175781	-0.106689	-0.572266	0.956728	0.085065	-0.268364	0.073594
44041		4.124952	1.115985	9.617161	-0.012619	0.194265	-0.045502	-0.180176	-0.104004	-0.578857	0.957245	0.084919	-0.266630	0.073348
44042		4.065538	1.284954	9.732331	-0.012701	0.235805	-0.024925	-0.178223	-0.106934	-0.577637	0.957822	0.084637	-0.264638	0.073347
44043		4.087999	1.352432	9.721614	-0.018456	0.277469	-0.024070	-0.170898	-0.102295	-0.572754	0.958487	0.084338	-0.262317	0.073342
44044		4.080219	1.332160	9.582122	-0.006108	0.319576	-0.020403	-0.164795	-0.103027	-0.577393	0.959244	0.084042	-0.259604	0.073444
44045		3.947652	1.433403	9.502405	-0.001165	0.334559	-0.022921	-0.166260	-0.112305	-0.572021	0.960048	0.083775	-0.256678	0.073521
44046		3.917393	1.597054	9.570559	-0.029061	0.347451	-0.035730	-0.166504	-0.098877	-0.585938	0.960860	0.083490	-0.253756	0.073385
44047		3.864236	1.661996	9.590690	-0.054110	0.369462	-0.063701	-0.157227	-0.102051	-0.583496	0.961759	0.082785	-0.250640	0.073120
44048		3.737441	1.578296	9.568975	-0.064042	0.387776	-0.099281	-0.157715	-0.098633	-0.576416	0.962734	0.082132	-0.247267	0.072497
44049		3.878930	1.465393	9.633425	-0.083404	0.405654	-0.118556	-0.156006	-0.100830	-0.579590	0.963723	0.081341	-0.243871	0.071751
44050		4.009773	1.241864	9.691200	-0.084619	0.435771	-0.112205	-0.154053	-0.099121	-0.580322	0.964749	0.080551	-0.240253	0.071056
44051		3.988656	1.136027	9.608327	-0.059455	0.464981	-0.098523	-0.145020	-0.097656	-0.592285	0.965783	0.079902	-0.236433	0.070561
44052		4.001599	1.212299	9.555202	-0.061256	0.481908	-0.087868	-0.150635	-0.080322	-0.591553	0.966871	0.079138	-0.232338	0.070124
44053		4.129213	1.069720	9.515213	-0.067619	0.501453	-0.079472	-0.140625	-0.092041	-0.589111	0.967932	0.078032	-0.228304	0.069965
44054		4.200703	1.042909	9.447999	-0.051902	0.524812	-0.068115	-0.144531	-0.089111	-0.589600	0.969015	0.077234	-0.223992	0.069805
44055		4.473160	0.997815	9.346704	-0.045011	0.554587	-0.045448	-0.140137	-0.093994	-0.600830	0.970073	0.076409	-0.219608	0.069944
44056		4.562487	0.993651	8.979438	-0.037260	0.582884	-0.027418	-0.135010	-0.090820	-0.598633	0.971157	0.075654	-0.214949	0.070199
44057		4.603018	0.992637	8.664847	-0.033213	0.566168	-0.008647	-0.130615	-0.079102	-0.600830	0.972171	0.074880	-0.210452	0.070609
44058		4.650349	1.082433	8.620085	-0.018873	0.540266	0.010799	-0.123535	-0.079590	-0.600830	0.973112	0.074047	-0.206160	0.071195
44059		4.839787	1.314664	8.568481	-0.034473	0.531014	0.014354	-0.112549	-0.089600	-0.616455	0.974039	0.073169	-0.201871	0.071705
44060		4.847220	1.508287	8.253088	-0.064676	0.531260	0.003510	-0.111572	-0.081543	-0.609131	0.975003	0.072203	-0.197431	0.071944
44061		4.817662	1.467039	7.867610	-0.074577	0.499105	-0.031960	-0.105957	-0.076416	-0.620361	0.975908	0.071233	-0.193288	0.071894
44062		4.774712	1.294689	7.692248	-0.070955	0.446052	-0.058161	-0.104004	-0.074951	-0.622803	0.976732	0.070378	-0.189525	0.071566
44063		4.834408	1.049024	7.868910	-0.066219	0.390616	-0.047196	-0.107422	-0.074951	-0.616211	0.977440	0.069624	-0.186225	0.071299
44064		5.038389	0.972526	8.045478	-0.037530	0.382957	-0.021551	-0.100586	-0.073975	-0.626465	0.978089	0.069086	-0.182998	0.071282
44065		5.145155	1.092873	7.879403	-0.016324	0.400364	-0.006003	-0.097900	-0.067139	-0.625732	0.978730	0.068687	-0.179634	0.071428
44066		5.110360	1.207335	7.445872	-0.040369	0.386285	-0.003707	-0.084717	-0.071045	-0.627930	0.979347	0.068097	-0.176417	0.071550
44067		5.061360	1.232223	7.049540	-0.063430	0.329792	-0.020249	-0.086182	-0.071289	-0.641357	0.979891	0.067381	-0.173683	0.071473
44068		5.138446	1.212661	6.867845	-0.073570	0.257723	-0.046809	-0.079346	-0.075684	-0.636963	0.980341	0.066666	-0.171547	0.071126
44069		5.354481	1.142857	6.861090	-0.095906	0.191775	-0.060903	-0.080322	-0.069336	-0.630859	0.980709	0.065832	-0.169975	0.070597
44070		5.437471	0.942157	6.679679	-0.104123	0.140409	-0.048547	-0.083008	-0.058838	-0.640625	0.980995	0.064946	-0.168856	0.070131
44071		5.419610	0.841618	6.563216	-0.070501	0.076414	-0.015996	-0.072266	-0.064209	-0.641602	0.981148	0.064328	-0.168279	0.069946
44072		5.496130	1.027508	6.592022	-0.047884	0.016816	0.014150	-0.074219	-0.060547	-0.643555	0.981183	0.063889	-0.168214	0.070010
44073		5.425486	1.157338	6.608745	-0.047796	-0.040431	0.024920	-0.079102	-0.055908	-0.643066	0.981128	0.063472	-0.168642	0.070133
44074		5.451812	1.294693	6.591758	-0.067562	-0.105726	0.018615	-0.092041	-0.060059	-0.637939	0.980991	0.062943	-0.169632	0.070145
44075		5.441191	1.237743	6.581910	-0.063316	-0.166472	0.013947	-0.093262	-0.057617	-0.646973	0.980762	0.062495	-0.171132	0.070094
44076		5.451000	1.262971	6.715014	-0.039895	-0.223332	0.015321	-0.086914	-0.058350	-0.634521	0.980433	0.062274	-0.173100	0.070060
44077		5.480053	1.344399	6.809239	-0.028597	-0.272015	0.021488	-0.091797	-0.056885	-0.635254	0.980017	0.062169	-0.175478	0.070067
44078		5.441323	1.454688	6.777254	-0.024238	-0.324390	0.006366	-0.093506	-0.059082	-0.639893	0.979520	0.062155	-0.178288	0.069931
44079		5.339232	1.451193	6.833597	-0.037296	-0.395858	-0.023002	-0.111084	-0.068359	-0.628906	0.978929	0.062124	-0.181685	0.069500
44080		5.397074	1.393301	7.126453	-0.046927	-0.459166	-0.052196	-0.102783	-0.058838	-0.629150	0.978246	0.062100	-0.185598	0.068782
44081		5.412584	1.197314	7.349629	-0.051297	-0.495454	-0.063387	-0.107178	-0.064453	-0.621094	0.977497	0.062080	-0.189812	0.067946
44082		5.401079	0.970060	7.404886	-0.035986	-0.526766	-0.069210	-0.117432	-0.060791	-0.620850	0.976672	0.062214	-0.194275	0.067071
44083		5.408233	0.820971	7.447095	-0.028406	-0.566133	-0.056580	-0.121338	-0.064453	-0.613281	0.975748	0.062410	-0.199065	0.066289
44084		5.376389	0.682300	7.578215	-0.015466	-0.605851	-0.028331	-0.124756	-0.068848	-0.607910	0.974709	0.062684	-0.204188	0.065737
44085		5.368262	0.723462	7.825502	0.005790	-0.632617	-0.009840	-0.130127	-0.055664	-0.608887	0.973573	0.063112	-0.209526	0.065358
44086		5.411631	0.682828	8.053163	-0.003006	-0.648383	-0.001192	-0.139893	-0.068359	-0.605957	0.972379	0.063454	-0.215001	0.065014
44087		5.618954	0.418037	8.101616	0.011213	-0.641651	0.008822	-0.149170	-0.068848	-0.601318	0.971152	0.063892	-0.220416	0.064793
44088		5.722177	0.081019	7.966985	0.045490	-0.647456	0.057055	-0.148682	-0.073486	-0.594971	0.969839	0.064515	-0.225883	0.065018
44089		5.723916	0.076022	8.110093	0.085093	-0.670688	0.125671	-0.152100	-0.078857	-0.586914	0.968390	0.065336	-0.231547	0.065862
44090		5.771718	0.193936	8.445552	0.101768	-0.684554	0.190912	-0.155518	-0.074707	-0.588379	0.966833	0.066169	-0.237342	0.067263
44091		5.787650	0.273217	8.577927	0.131261	-0.664666	0.236386	-0.150635	-0.077148	-0.593506	0.965238	0.067122	-0.242977	0.069084
44092		5.662272	0.344357	8.618871	0.152702	-0.655311	0.286235	-0.164062	-0.073730	-0.592041	0.963586	0.068134	-0.248535	0.071353
44093		5.751564	0.472050	8.603029	0.171551	-0.647389	0.331208	-0.166504	-0.075195	-0.579590	0.961873	0.069184	-0.254040	0.074013
44094		5.772699	0.647360	8.489433	0.184480	-0.645625	0.353593	-0.178467	-0.080566	-0.585693	0.960103	0.070286	-0.259522	0.076882
44095		5.825160	0.907071	8.403867	0.169635	-0.661965	0.369023	-0.175293	-0.091553	-0.579590	0.958251	0.071251	-0.265144	0.079851
44096		5.839281	1.070177	8.380227	0.148270	-0.685704	0.364132	-0.182861	-0.083252	-0.581787	0.956320	0.072097	-0.270934	0.082763
44097		5.654628	1.202308	8.469042	0.134850	-0.706182	0.348996	-0.180420	-0.093018	-0.577148	0.954321	0.072851	-0.276876	0.085456
44098		5.637554	1.174481	8.855516	0.134269	-0.720154	0.323319	-0.191406	-0.092041	-0.576660	0.952266	0.073699	-0.282875	0.087979
44099		5.694122	1.082848	8.959931	0.134932	-0.689589	0.310758	-0.200195	-0.087646	-0.578369	0.950248	0.074551	-0.288614	0.090410
44100		5.795648	0.924117	8.815453	0.141764	-0.655861	0.315647	-0.199463	-0.101318	-0.576172	0.948268	0.075394	-0.294071	0.092878
44101		5.970451	0.965861	8.527203	0.145124	-0.642370	0.321354	-0.207275	-0.094971	-0.577148	0.946274	0.076288	-0.299384	0.095476
44102		5.870721	1.216930	8.436163	0.114074	-0.657829	0.339575	-0.209961	-0.095459	-0.575928	0.944214	0.076860	-0.304852	0.098071
44103		6.022192	1.319613	8.488767	0.105860	-0.669006	0.302191	-0.218262	-0.089844	-0.572266	0.942126	0.077462	-0.310376	0.100325
44104		6.084378	1.314846	8.404803	0.077167	-0.658342	0.247912	-0.227539	-0.093994	-0.576904	0.940094	0.077945	-0.315805	0.102053
44105		6.244902	0.990145	8.128217	0.048713	-0.660378	0.217708	-0.229980	-0.090820	-0.577881	0.938065	0.078295	-0.321243	0.103477
44106		6.654609	0.735252	7.888745	0.030525	-0.668319	0.203163	-0.232910	-0.093994	-0.577637	0.936008	0.078536	-0.326734	0.104717
44107		6.716972	0.774601	7.623433	0.002008	-0.680691	0.222929	-0.242432	-0.090576	-0.569336	0.933884	0.078513	-0.332347	0.106027
44108		6.900777	0.715986	7.513886	-0.007625	-0.717309	0.245686	-0.252930	-0.096191	-0.571533	0.931606	0.078378	-0.338260	0.107457
44109		7.111432	0.824002	7.568847	0.004903	-0.733847	0.256825	-0.263184	-0.086670	-0.570557	0.929223	0.078323	-0.344281	0.108997
44110		7.127135	0.993296	7.421474	-0.006521	-0.753468	0.264472	-0.267578	-0.078613	-0.571533	0.926743	0.078166	-0.350454	0.110539
44111		7.180151	1.113448	7.333785	-0.030572	-0.794821	0.255891	-0.279541	-0.073975	-0.565186	0.924123	0.077881	-0.356942	0.111910
44112		7.212274	1.279804	7.338636	-0.054068	-0.827326	0.242279	-0.284912	-0.072510	-0.561035	0.921384	0.077486	-0.363676	0.113080
44113		7.127184	1.501720	7.281292	-0.085458	-0.858922	0.199935	-0.304199	-0.070068	-0.560059	0.918560	0.077007	-0.370629	0.113802
44114		6.993333	1.544709	7.305937	-0.137077	-0.902538	0.141831	-0.300049	-0.065674	-0.551270	0.915635	0.076354	-0.377907	0.113885
44115		6.880545	1.360333	7.486754	-0.168643	-0.940937	0.085871	-0.317627	-0.064697	-0.547119	0.912607	0.075670	-0.385438	0.113404
44116		6.729832	1.164447	7.714080	-0.176546	-0.965676	0.051243	-0.327148	-0.062256	-0.543213	0.909475	0.075060	-0.393115	0.112612
44117		6.598982	0.949067	7.972566	-0.176619	-0.969911	0.021517	-0.340332	-0.056152	-0.545410	0.906298	0.074547	-0.400771	0.111581
44118		6.454472	0.783319	8.261546	-0.188888	-0.952684	0.018120	-0.358643	-0.050293	-0.535645	0.903130	0.073928	-0.408269	0.110484
44119		6.422520	0.592851	8.419986	-0.196050	-0.907797	0.045893	-0.361816	-0.047363	-0.533936	0.900038	0.073114	-0.415422	0.109590
44120		6.423573	0.453242	8.469334	-0.158524	-0.834166	0.088749	-0.371582	-0.034180	-0.518555	0.897096	0.072361	-0.421973	0.109185
44121		6.310512	0.493238	8.279357	-0.109238	-0.757180	0.134085	-0.382568	-0.034424	-0.521729	0.894315	0.071738	-0.427902	0.109331
44122		6.162448	0.691290	8.232178	-0.074530	-0.714720	0.177866	-0.393066	-0.030518	-0.510742	0.891595	0.071179	-0.433479	0.109948
44123		6.008873	0.979156	8.252542	-0.065871	-0.674363	0.181975	-0.395996	-0.031250	-0.508057	0.888983	0.070629	-0.438723	0.110645
44124		5.861450	1.212006	8.338419	-0.079755	-0.633989	0.159399	-0.399902	-0.026855	-0.500000	0.886526	0.070019	-0.443639	0.111142
44125		5.761916	1.190836	8.316801	-0.103241	-0.591315	0.134233	-0.413818	-0.026367	-0.499756	0.884245	0.069287	-0.448222	0.111385
44126		5.792181	1.083244	8.285638	-0.097296	-0.535409	0.111383	-0.411865	-0.021240	-0.491211	0.882176	0.068632	-0.452350	0.111508
44127		5.794953	0.966941	8.174751	-0.085113	-0.473684	0.111971	-0.414551	-0.021729	-0.495850	0.880322	0.068005	-0.455991	0.111714
44128		5.776288	0.820459	8.081682	-0.057870	-0.408498	0.137077	-0.415039	-0.005371	-0.490234	0.878671	0.067420	-0.459123	0.112239
44129		5.742927	0.891298	7.973671	-0.020876	-0.340442	0.164981	-0.427002	-0.018555	-0.486084	0.877230	0.066934	-0.461720	0.113147
44130		5.588860	1.036626	7.960543	0.004042	-0.285478	0.190527	-0.427002	0.001709	-0.484131	0.875960	0.066481	-0.463891	0.114363
44131		5.497580	1.295511	7.973500	0.020479	-0.232627	0.186550	-0.436279	-0.007080	-0.480469	0.874890	0.066111	-0.465643	0.115642
44132		5.407041	1.590263	8.087658	0.010936	-0.177171	0.164261	-0.429443	-0.011963	-0.493896	0.874065	0.065707	-0.466973	0.116747
44133		5.329107	1.737586	8.115499	0.000021	-0.110463	0.121709	-0.425049	-0.007080	-0.481201	0.873551	0.065325	-0.467790	0.117533
44134		5.272661	1.752022	8.123664	-0.008505	-0.037759	0.074297	-0.437988	0.002441	-0.488525	0.873378	0.064997	-0.468047	0.117977
44135		5.253223	1.816055	8.145896	-0.005664	0.038966	0.035060	-0.431885	-0.009033	-0.477051	0.873547	0.064771	-0.467709	0.118186
44136		5.275066	1.883882	8.207120	-0.001322	0.118647	-0.008706	-0.435547	-0.010010	-0.479980	0.874075	0.064671	-0.466750	0.118131
44137		5.354424	1.958427	8.206967	-0.015257	0.197797	-0.069492	-0.426514	-0.014893	-0.487793	0.874982	0.064630	-0.465183	0.117618
44138		5.529796	1.866074	8.168783	-0.023575	0.272475	-0.129106	-0.430420	-0.008545	-0.486572	0.876244	0.064690	-0.463031	0.116675
44139		5.769899	1.602214	8.062410	-0.015487	0.353869	-0.174795	-0.426025	-0.017090	-0.499756	0.877858	0.064907	-0.460239	0.115471
44140		6.010829	1.360891	7.906262	0.009672	0.423926	-0.203438	-0.413574	-0.018311	-0.488770	0.879747	0.065353	-0.456876	0.114185
44141		6.254437	1.212587	7.747425	0.024150	0.485804	-0.215518	-0.413574	-0.020752	-0.493164	0.881863	0.065891	-0.453024	0.112895
44142		6.415774	1.024398	7.580980	0.041010	0.533437	-0.231705	-0.410889	-0.025635	-0.498291	0.884148	0.066569	-0.448780	0.111572
44143		6.723083	0.748190	7.515347	0.065517	0.578987	-0.237117	-0.403809	-0.027832	-0.495117	0.886573	0.067404	-0.444156	0.110320
44144		7.030930	0.513459	7.341357	0.089794	0.626652	-0.220304	-0.396484	-0.033936	-0.513672	0.889120	0.068309	-0.439150	0.109304
44145		7.252382	0.470134	7.040189	0.102449	0.652245	-0.197051	-0.392822	-0.036133	-0.514160	0.891706	0.069198	-0.433930	0.108517
44146		7.389483	0.452523	6.753319	0.090547	0.655588	-0.172393	-0.386230	-0.034668	-0.516602	0.894257	0.069903	-0.428699	0.107869
44147		7.601602	0.408179	6.642302	0.094620	0.646443	-0.162114	-0.369141	-0.047119	-0.533447	0.896731	0.070606	-0.423525	0.107310
44148		7.884302	0.479081	6.470890	0.107260	0.647417	-0.165572	-0.361572	-0.045166	-0.521484	0.899182	0.071414	-0.418301	0.106751
44149		8.127840	0.425045	6.204678	0.090200	0.634879	-0.161856	-0.358154	-0.053467	-0.517578	0.901559	0.072087	-0.413191	0.106154
44150		8.254062	0.390115	5.945201	0.095525	0.609791	-0.157212	-0.361084	-0.057861	-0.533936	0.903809	0.072807	-0.408269	0.105570
44151		8.252199	0.198540	5.822231	0.117443	0.567609	-0.151103	-0.350098	-0.059326	-0.533936	0.905869	0.073710	-0.403639	0.105085
44152		8.396219	0.011430	6.067615	0.160195	0.537529	-0.144215	-0.343994	-0.062012	-0.536133	0.907772	0.074936	-0.399194	0.104778
44153		8.511005	0.022112	6.194155	0.155060	0.536700	-0.120895	-0.329590	-0.073242	-0.541504	0.909630	0.076042	-0.394770	0.104629
44154		8.462516	0.046146	6.025480	0.115835	0.513092	-0.077146	-0.319580	-0.073486	-0.540283	0.911385	0.076732	-0.390566	0.104635
44155		8.437821	0.154672	5.846266	0.103478	0.470850	-0.062816	-0.322266	-0.081543	-0.551270	0.912976	0.077312	-0.386700	0.104691
44156		8.366523	0.404372	5.790348	0.086679	0.418547	-0.071985	-0.313232	-0.081787	-0.549805	0.914397	0.077844	-0.383249	0.104587
44157		8.308973	0.516674	5.806074	0.047271	0.364271	-0.092734	-0.316650	-0.073730	-0.541504	0.915670	0.078181	-0.380239	0.104189
44158		8.277750	0.576893	5.846316	0.001515	0.321885	-0.118115	-0.306396	-0.083496	-0.545654	0.916837	0.078278	-0.377597	0.103453
44159		8.234704	0.425158	5.786681	-0.013603	0.286186	-0.142665	-0.304688	-0.077881	-0.547363	0.917920	0.078373	-0.375216	0.102442
44160		8.207555	0.357690	5.728360	-0.030543	0.256028	-0.139137	-0.307861	-0.082764	-0.549316	0.918904	0.078346	-0.373089	0.101402
44161		8.197473	0.247571	5.701008	-0.033959	0.224366	-0.115556	-0.301758	-0.078613	-0.556641	0.919762	0.078251	-0.371233	0.100506
44162		8.075406	0.245102	5.637111	-0.015881	0.197872	-0.074411	-0.303223	-0.078125	-0.550537	0.920488	0.078182	-0.369588	0.099973
44163		8.043071	0.396105	5.659934	0.014168	0.172849	-0.027180	-0.293701	-0.086914	-0.550537	0.921068	0.078220	-0.368156	0.099879
44164		7.928305	0.583637	5.705508	0.048576	0.149386	0.013152	-0.305176	-0.082031	-0.556641	0.921521	0.078424	-0.366899	0.100173
44165		7.694869	0.795409	5.726946	0.076436	0.123816	0.023779	-0.298828	-0.080811	-0.553467	0.921858	0.078826	-0.365838	0.100631
44166		7.480017	0.962560	5.927157	0.073294	0.079067	0.017222	-0.290527	-0.093994	-0.554199	0.922065	0.079260	-0.365121	0.101000
44167		7.404729	0.959066	6.219759	0.059246	0.054010	0.001375	-0.286621	-0.082520	-0.566406	0.922220	0.079669	-0.364592	0.101172
44168		7.330259	0.926643	6.357216	0.050751	0.052021	-0.007370	-0.299561	-0.088379	-0.558838	0.922382	0.080024	-0.364078	0.101268
44169		7.251265	0.866196	6.320642	0.049536	0.044691	-0.002264	-0.291748	-0.088379	-0.560547	0.922508	0.080372	-0.363648	0.101390
44170		7.180279	0.810686	6.345461	0.059267	0.020542	-0.000043	-0.292480	-0.087402	-0.555664	0.922554	0.080806	-0.363391	0.101542
44171		7.096349	0.802347	6.429560	0.071056	-0.002697	-0.002032	-0.289795	-0.082520	-0.550293	0.922521	0.081355	-0.363308	0.101700
44172		7.053526	0.852749	6.550095	0.061204	-0.020511	-0.000469	-0.288086	-0.105469	-0.557129	0.922439	0.081834	-0.363374	0.101830
44173		6.989799	0.944943	6.593103	0.038302	-0.033966	-0.000991	-0.286377	-0.098633	-0.567627	0.922332	0.082168	-0.363559	0.101868
44174		6.894782	1.043571	6.643523	0.007277	-0.061465	-0.010761	-0.298096	-0.085205	-0.561279	0.922170	0.082304	-0.363977	0.101726
44175		6.850104	1.099291	6.761186	-0.028067	-0.090966	-0.033055	-0.296143	-0.091309	-0.557129	0.921958	0.082257	-0.364646	0.101289
44176		6.845189	1.066482	6.815632	-0.057706	-0.112622	-0.050415	-0.295410	-0.093506	-0.564453	0.921715	0.082060	-0.365493	0.100609
44177		6.776674	0.978830	6.933663	-0.064755	-0.130311	-0.063875	-0.300049	-0.090576	-0.548828	0.921434	0.081864	-0.366469	0.099791
44178		6.770716	0.928609	7.027519	-0.059958	-0.136156	-0.066086	-0.292480	-0.091797	-0.556641	0.921129	0.081717	-0.367491	0.098968
44179		6.675713	0.910056	7.158769	-0.049700	-0.135346	-0.055796	-0.299561	-0.094971	-0.554199	0.920813	0.081615	-0.368495	0.098253
44180		6.595939	0.878774	7.306527	-0.030395	-0.137796	-0.047279	-0.295654	-0.093506	-0.548340	0.920466	0.081640	-0.369514	0.097661
44181		6.394460	0.914807	7.483760	-0.013579	-0.128762	-0.038917	-0.304443	-0.097900	-0.548096	0.920128	0.081758	-0.370452	0.097191
44182		6.282855	0.933447	7.765801	-0.003544	-0.116236	-0.035980	-0.299072	-0.094727	-0.548584	0.919817	0.081937	-0.371291	0.096782
44183		6.211704	0.968902	7.987022	-0.006021	-0.074648	-0.032521	-0.304443	-0.087646	-0.542725	0.919637	0.082046	-0.371806	0.096421
44184		6.016570	0.892841	7.953951	-0.008524	-0.027862	-0.014847	-0.308838	-0.095703	-0.547363	0.919587	0.082038	-0.371982	0.096224
44185		5.774852	0.964139	8.027139	0.015332	0.011625	0.001380	-0.304688	-0.090332	-0.549805	0.919632	0.082139	-0.371842	0.096247
44186		5.617588	1.160163	8.188275	0.029782	0.039838	0.001443	-0.304688	-0.084961	-0.541504	0.919759	0.082320	-0.371466	0.096337
44187		5.538355	1.343720	8.360372	0.008549	0.073159	-0.021085	-0.307617	-0.095703	-0.548584	0.920020	0.082375	-0.370838	0.096214
44188		5.464207	1.272815	8.442646	-0.011882	0.107850	-0.045253	-0.303467	-0.094238	-0.549561	0.920423	0.082337	-0.369936	0.095856
44189		5.414348	1.097688	8.563065	-0.000674	0.134161	-0.050204	-0.301270	-0.093018	-0.546387	0.920908	0.082374	-0.368810	0.095513
44190		5.412727	1.038905	8.769455	0.020948	0.175558	-0.029147	-0.302734	-0.097656	-0.548584	0.921487	0.082476	-0.367360	0.095425
44191		5.339632	1.123344	8.860450	0.036986	0.238930	-0.004493	-0.295410	-0.099854	-0.555176	0.922227	0.082583	-0.365425	0.095614
44192		5.237771	1.153906	8.891347	0.045118	0.300483	0.005808	-0.291992	-0.095703	-0.558838	0.923145	0.082670	-0.362994	0.095944
44193		5.230027	1.253370	8.981849	0.066375	0.355054	0.021042	-0.291992	-0.101074	-0.554199	0.924195	0.082818	-0.360127	0.096501
44194		5.122395	1.378314	9.069229	0.081545	0.404697	0.037528	-0.279053	-0.101807	-0.555664	0.925358	0.083005	-0.356882	0.097255
44195		5.036795	1.602977	9.182117	0.116447	0.455557	0.036217	-0.278320	-0.101318	-0.548584	0.926644	0.083418	-0.353189	0.098131
44196		4.922235	1.843897	9.335086	0.114723	0.514179	0.017520	-0.276855	-0.105957	-0.558105	0.928097	0.083824	-0.349038	0.098902
44197		4.907316	1.869416	9.340160	0.093886	0.570927	-0.015759	-0.266113	-0.099365	-0.564209	0.929741	0.084120	-0.344424	0.099390
44198		5.028831	1.788554	9.331628	0.089647	0.624435	-0.045751	-0.262451	-0.115479	-0.567383	0.931546	0.084409	-0.339355	0.099676
44199		5.194074	1.700013	9.235229	0.100256	0.678360	-0.055351	-0.249268	-0.115967	-0.570801	0.933475	0.084781	-0.333839	0.099935
44200		5.275723	1.574043	9.116843	0.122193	0.719649	-0.042587	-0.253906	-0.110107	-0.574463	0.935462	0.085243	-0.327975	0.100386
44201		5.350096	1.556281	9.035429	0.164551	0.753791	-0.024817	-0.238037	-0.115723	-0.579346	0.937456	0.085951	-0.321814	0.101119
44202		5.387496	1.589600	8.874096	0.195404	0.785915	-0.020125	-0.233887	-0.125488	-0.580078	0.939471	0.086860	-0.315356	0.101983
44203		5.411035	1.671895	8.701704	0.194011	0.798950	-0.019663	-0.221680	-0.124268	-0.582764	0.941475	0.087745	-0.308782	0.102851
44204		5.232410	1.758529	8.591154	0.175510	0.786733	-0.034236	-0.212402	-0.118408	-0.583740	0.943430	0.088528	-0.302292	0.103544
44205		5.119881	1.786624	8.652929	0.156107	0.759001	-0.064846	-0.208496	-0.124512	-0.587646	0.945313	0.089255	-0.296000	0.103923
44206		5.253590	1.713540	8.835481	0.136417	0.747858	-0.088485	-0.194092	-0.128906	-0.581299	0.947163	0.089895	-0.289782	0.104052
44207		5.239746	1.639411	8.849659	0.120828	0.758359	-0.099724	-0.193359	-0.124756	-0.585938	0.949020	0.090428	-0.283472	0.104058
44208		5.150658	1.618318	8.854812	0.112989	0.759578	-0.113789	-0.181641	-0.123535	-0.581299	0.950855	0.090927	-0.277137	0.103931
44209		5.075951	1.660505	8.914331	0.099313	0.755817	-0.124498	-0.170410	-0.136230	-0.592529	0.952661	0.091342	-0.270822	0.103680
44210		5.126014	1.653491	9.005115	0.088611	0.761081	-0.149492	-0.173584	-0.132324	-0.600830	0.954467	0.091724	-0.264440	0.103204
44211		5.260653	1.563598	8.935479	0.067692	0.774319	-0.161554	-0.160400	-0.120117	-0.588623	0.956284	0.091949	-0.257954	0.102594
44212		5.172021	1.386262	8.687983	0.062677	0.779115	-0.161593	-0.151611	-0.125000	-0.595947	0.958072	0.092123	-0.251423	0.101971
44213		5.170404	1.286223	8.598230	0.066072	0.767266	-0.152382	-0.156982	-0.122803	-0.609375	0.959781	0.092315	-0.244977	0.101416
44214		5.166947	1.249902	8.657665	0.072222	0.754597	-0.149567	-0.139404	-0.122803	-0.601807	0.961412	0.092553	-0.238629	0.100885
44215		5.258493	1.144908	8.632024	0.056359	0.753616	-0.156857	-0.145508	-0.125732	-0.615967	0.963019	0.092677	-0.232280	0.100256
44216		5.244297	0.983396	8.439644	0.023003	0.742312	-0.148746	-0.133301	-0.129395	-0.610107	0.964578	0.092525	-0.226061	0.099622
44217		5.086525	0.990521	8.344663	-0.005284	0.705734	-0.113473	-0.123291	-0.124512	-0.614746	0.966023	0.092111	-0.220176	0.099188
44218		4.946857	1.318338	8.417208	-0.008992	0.670826	-0.099459	-0.118164	-0.121582	-0.626953	0.967362	0.091656	-0.214576	0.098824
44219		5.038143	1.658096	8.467639	-0.029689	0.659189	-0.129225	-0.112305	-0.122070	-0.623047	0.968690	0.091085	-0.209060	0.098168
44220		5.158880	1.703607	8.269114	-0.077078	0.650273	-0.164847	-0.110352	-0.117676	-0.620117	0.970033	0.090203	-0.203629	0.097136
44221		5.249663	1.450711	7.847629	-0.104397	0.634983	-0.185692	-0.099854	-0.113037	-0.633057	0.971350	0.089141	-0.198343	0.095877
44222		5.217649	1.235362	7.562111	-0.083838	0.591994	-0.187391	-0.096191	-0.114746	-0.630615	0.972559	0.088261	-0.193371	0.094585
44223		5.346252	1.208026	7.514623	-0.080433	0.531375	-0.170029	-0.096924	-0.109619	-0.637939	0.973623	0.087440	-0.188911	0.093404
44224		5.554737	1.084858	7.404860	-0.083799	0.497055	-0.152496	-0.084961	-0.112793	-0.654053	0.974598	0.086573	-0.184769	0.092328
44225		5.589583	1.064281	7.094554	-0.074113	0.469187	-0.129545	-0.084229	-0.104004	-0.657959	0.975492	0.085781	-0.180827	0.091426
44226		5.674679	1.061500	6.786991	-0.072728	0.413240	-0.109286	-0.075684	-0.108398	-0.651855	0.976266	0.085023	-0.177362	0.090660
44227		5.743426	0.996119	6.561986	-0.066894	0.350535	-0.099476	-0.078857	-0.103271	-0.649170	0.976921	0.084362	-0.174406	0.089954
44228		5.864694	0.949458	6.317535	-0.066916	0.286102	-0.069253	-0.072266	-0.103516	-0.656738	0.977449	0.083705	-0.172006	0.089449
44229		5.958063	0.986697	6.058314	-0.061204	0.223304	-0.045021	-0.064697	-0.101562	-0.662109	0.977859	0.083107	-0.170134	0.089107
44230		5.937325	1.049972	5.840797	-0.053205	0.145304	-0.032403	-0.064697	-0.097900	-0.651367	0.978138	0.082615	-0.168910	0.088828
44231		5.954846	1.129001	5.755891	-0.058058	0.047671	-0.024335	-0.070068	-0.104492	-0.653564	0.978274	0.082146	-0.168501	0.088542
44232		6.118601	1.140673	5.739271	-0.064663	-0.037597	-0.019645	-0.062500	-0.106445	-0.653320	0.978288	0.081682	-0.168805	0.088232
44233		6.108134	1.116647	5.697172	-0.068394	-0.121921	-0.013394	-0.069824	-0.102539	-0.653320	0.978180	0.081242	-0.169810	0.087910
44234		6.105097	1.117138	5.742658	-0.072469	-0.205316	-0.008095	-0.068359	-0.098145	-0.649658	0.977948	0.080822	-0.171514	0.087570
44235		6.182881	1.167969	5.824127	-0.073271	-0.291541	0.008322	-0.075439	-0.095703	-0.656982	0.977575	0.080436	-0.173938	0.087303
44236		6.214826	1.143748	5.874140	-0.053937	-0.361169	0.019729	-0.078613	-0.097656	-0.643555	0.977071	0.080242	-0.176933	0.087113
44237		6.230707	1.199688	5.940367	-0.033434	-0.431572	0.035142	-0.082031	-0.093994	-0.656982	0.976424	0.080246	-0.180504	0.087035
44238		6.245166	1.265198	5.998714	-0.035086	-0.505168	0.054061	-0.091064	-0.091797	-0.643311	0.975638	0.080260	-0.184692	0.087055
44239		6.321775	1.381660	6.121378	-0.031187	-0.580266	0.066445	-0.096924	-0.109131	-0.638184	0.974701	0.080341	-0.189503	0.087132
44240		6.357325	1.508439	6.221197	-0.038516	-0.653214	0.058493	-0.099609	-0.100830	-0.639404	0.973629	0.080440	-0.194907	0.087102
44241		6.477360	1.463452	6.347553	-0.042737	-0.728272	0.034933	-0.106934	-0.105957	-0.627686	0.972424	0.080586	-0.200907	0.086803
44242		6.612191	1.320117	6.498087	-0.052238	-0.802250	0.030254	-0.120850	-0.101562	-0.623047	0.971060	0.080723	-0.207510	0.086409
44243		6.719816	1.158240	6.634377	-0.048792	-0.874025	0.032310	-0.126221	-0.093262	-0.624023	0.969517	0.080928	-0.214699	0.085975
44244		6.750089	1.067978	6.815195	-0.049448	-0.941508	0.058025	-0.141602	-0.104980	-0.609619	0.967782	0.081108	-0.222442	0.085673
44245		6.764847	0.981051	7.103379	-0.020557	-0.996548	0.085867	-0.145996	-0.104736	-0.600586	0.965829	0.081540	-0.230628	0.085656
44246		6.811745	1.025287	7.438624	-0.001039	-1.043200	0.108950	-0.156494	-0.097900	-0.602295	0.963686	0.082113	-0.239168	0.085822
44247		7.001408	0.914931	7.630839	0.005141	-1.075216	0.140815	-0.165283	-0.112305	-0.599121	0.961378	0.082664	-0.247972	0.086195
44248		7.090929	0.753467	7.846509	0.041150	-1.090043	0.195867	-0.170654	-0.112305	-0.591797	0.958884	0.083448	-0.256874	0.087137
44249		6.914804	0.739766	8.022253	0.108885	-1.106191	0.270348	-0.179688	-0.115479	-0.588867	0.956172	0.084612	-0.265879	0.088791
44250		6.714622	0.999667	8.320762	0.170326	-1.130406	0.332650	-0.190430	-0.117676	-0.587402	0.953225	0.086138	-0.275050	0.091053
44251		6.607741	1.292732	8.631596	0.190120	-1.135522	0.334912	-0.196289	-0.118408	-0.581299	0.950153	0.087802	-0.284227	0.093353
44252		6.508649	1.330106	8.794168	0.151966	-1.135901	0.307424	-0.204590	-0.114990	-0.571533	0.947037	0.089205	-0.293389	0.095316
44253		6.547197	1.049125	8.957534	0.109407	-1.130621	0.291217	-0.221191	-0.134033	-0.571777	0.943886	0.090278	-0.302517	0.097018
44254		6.428284	0.924998	9.001411	0.116718	-1.126336	0.291501	-0.226562	-0.128906	-0.578369	0.940643	0.091409	-0.311584	0.098747
44255		6.292136	0.873092	9.187553	0.108653	-1.136821	0.319182	-0.234131	-0.125977	-0.569580	0.937267	0.092384	-0.320729	0.100638
44256		6.372352	0.845539	9.452292	0.106261	-1.112973	0.323984	-0.251465	-0.122803	-0.564941	0.933862	0.093297	-0.329663	0.102568
44257		6.396126	0.565563	9.505542	0.104361	-1.053795	0.349083	-0.262695	-0.125977	-0.567383	0.930514	0.094064	-0.338126	0.104724
44258		6.350685	0.293959	9.412691	0.141993	-0.978880	0.404604	-0.264893	-0.119141	-0.561035	0.927222	0.094892	-0.345985	0.107467
44259		6.197331	0.391426	9.388395	0.192680	-0.931382	0.500407	-0.276611	-0.123535	-0.559814	0.923869	0.095777	-0.353476	0.111123
44260		6.154553	0.671921	9.540115	0.246856	-0.877826	0.566952	-0.284424	-0.118652	-0.563965	0.920494	0.096827	-0.360525	0.115487
44261		6.195539	1.126192	9.656463	0.268818	-0.780715	0.587201	-0.297119	-0.118896	-0.564209	0.917306	0.097876	-0.366792	0.120140
44262		6.138795	1.294330	9.476142	0.240902	-0.684466	0.567110	-0.308350	-0.121582	-0.559326	0.914397	0.098670	-0.372306	0.124625
44263		6.227930	1.358272	9.082460	0.190050	-0.607374	0.528867	-0.310791	-0.114502	-0.561035	0.911760	0.099110	-0.377230	0.128716
44264		6.303831	1.331799	8.668106	0.122746	-0.558850	0.502258	-0.313721	-0.115967	-0.553467	0.909324	0.099061	-0.381811	0.132424
44265		6.375752	1.451235	8.330001	0.098401	-0.525837	0.468115	-0.317383	-0.113525	-0.553223	0.907018	0.098898	-0.386123	0.135817
44266		6.669621	1.568512	8.106967	0.076912	-0.503005	0.410515	-0.326172	-0.111572	-0.556396	0.904841	0.098727	-0.390221	0.138718
44267		6.997139	1.614309	7.702600	0.015147	-0.475554	0.362949	-0.329102	-0.105957	-0.555664	0.902836	0.098211	-0.394132	0.141077
44268		7.293940	1.224645	7.177658	-0.020522	-0.467794	0.333115	-0.336914	-0.100342	-0.560059	0.900899	0.097512	-0.397989	0.143094
44269		7.510170	0.987076	6.703490	-0.009030	-0.495062	0.330477	-0.345215	-0.086426	-0.547363	0.898846	0.096940	-0.402025	0.145104
44270		7.599379	1.054466	6.372515	-0.005247	-0.558376	0.345187	-0.352783	-0.093994	-0.547119	0.896534	0.096419	-0.406533	0.147180
44271		7.666592	1.333204	6.277450	-0.048482	-0.630104	0.337073	-0.345215	-0.086426	-0.539795	0.893994	0.095692	-0.411608	0.148985
44272		7.606237	1.543181	6.175772	-0.114194	-0.699040	0.296457	-0.357178	-0.082764	-0.530273	0.891288	0.094695	-0.417227	0.150198
44273		7.504128	1.527360	6.192266	-0.179181	-0.781939	0.229004	-0.370850	-0.073730	-0.533203	0.888388	0.093552	-0.423475	0.150611
44274		7.431607	1.420550	6.422852	-0.227407	-0.850441	0.178650	-0.380615	-0.066895	-0.527832	0.885300	0.092309	-0.430229	0.150419
44275		7.234137	1.362247	6.734803	-0.256569	-0.889889	0.169526	-0.388672	-0.066162	-0.526123	0.882053	0.090928	-0.437276	0.150014
44276		6.888549	1.532715	7.086399	-0.248703	-0.912161	0.146774	-0.400391	-0.049316	-0.513672	0.878695	0.089714	-0.444427	0.149439
44277		6.500441	1.632018	7.513675	-0.243411	-0.917595	0.123539	-0.415283	-0.046387	-0.507080	0.875284	0.088619	-0.451566	0.148703
44278		6.254391	1.504993	8.008329	-0.217987	-0.880492	0.090023	-0.425781	-0.045898	-0.496338	0.871985	0.087789	-0.458346	0.147829
44279		5.991938	1.456623	8.327984	-0.208357	-0.812439	0.074339	-0.427490	-0.043213	-0.494385	0.868916	0.087004	-0.464577	0.146912
44280		5.753423	1.369316	8.529595	-0.205850	-0.722280	0.071655	-0.430908	-0.042969	-0.492676	0.866167	0.086133	-0.470114	0.146043
44281		5.501565	1.360604	8.547548	-0.182984	-0.632126	0.068890	-0.442139	-0.036133	-0.488525	0.863735	0.085325	-0.474942	0.145299
44282		5.272225	1.417812	8.604619	-0.154104	-0.540644	0.061613	-0.444824	-0.028564	-0.481445	0.861632	0.084637	-0.479055	0.144679
44283		5.229387	1.503145	8.700664	-0.138568	-0.447549	0.054848	-0.448486	-0.026123	-0.477539	0.859889	0.083972	-0.482457	0.144135
44284		5.159493	1.495604	8.682448	-0.109348	-0.334411	0.053162	-0.456787	-0.025879	-0.470215	0.858578	0.083387	-0.484996	0.143768
44285		5.089875	1.560980	8.578651	-0.072477	-0.226347	0.046939	-0.453857	-0.023193	-0.471924	0.857686	0.082961	-0.486703	0.143571
44286		5.172940	1.637966	8.593533	-0.047868	-0.117717	0.035633	-0.459961	-0.025391	-0.473145	0.857237	0.082626	-0.487581	0.143469
44287		5.260929	1.685866	8.433313	-0.032038	-0.002977	0.022421	-0.458984	-0.026367	-0.463623	0.857264	0.082321	-0.487602	0.143409
44288		5.360490	1.693813	8.212790	-0.008623	0.102080	0.007473	-0.466553	-0.023926	-0.474365	0.857725	0.082117	-0.486827	0.143404
44289		5.463903	1.748731	8.045006	0.015622	0.189770	0.000224	-0.454590	-0.024414	-0.468506	0.858538	0.082012	-0.485379	0.143507
44290		5.562623	1.822101	7.859598	0.043552	0.269052	-0.017384	-0.451172	-0.026367	-0.470703	0.859676	0.082084	-0.483307	0.143647
44291		5.705999	1.843703	7.798589	0.077689	0.338835	-0.038351	-0.437744	-0.028076	-0.478027	0.861095	0.082401	-0.480669	0.143815
44292		5.978027	1.825412	7.735741	0.103427	0.410297	-0.070697	-0.442627	-0.027832	-0.475830	0.862819	0.082948	-0.477446	0.143902
44293		6.206337	1.748950	7.622760	0.114444	0.485115	-0.100765	-0.438965	-0.027832	-0.481201	0.864855	0.083603	-0.473646	0.143861
44294		6.349344	1.637556	7.427012	0.130372	0.539831	-0.127961	-0.441406	-0.030029	-0.495850	0.867114	0.084415	-0.469394	0.143723
44295		6.545106	1.594115	7.290108	0.129497	0.590175	-0.163394	-0.423340	-0.046875	-0.491943	0.869594	0.085299	-0.464735	0.143355
44296		6.834762	1.645586	7.068245	0.099080	0.628072	-0.208555	-0.419922	-0.044434	-0.493896	0.872278	0.086094	-0.459786	0.142533
44297		7.017346	1.517451	6.760461	0.070298	0.647576	-0.265484	-0.398926	-0.047607	-0.496094	0.875092	0.086870	-0.454672	0.141210
44298		7.223514	1.337276	6.537071	0.035749	0.639081	-0.311429	-0.408936	-0.047852	-0.513428	0.877929	0.087577	-0.449595	0.139411
44299		7.437023	1.081879	6.481489	0.020360	0.621973	-0.352376	-0.403076	-0.061523	-0.507080	0.880723	0.088344	-0.444618	0.137249
44300		7.726392	0.790157	6.462798	0.015043	0.613157	-0.373704	-0.397705	-0.066162	-0.514160	0.883480	0.089164	-0.439692	0.134846
44301		7.893186	0.348853	6.411013	0.027614	0.616165	-0.354158	-0.384521	-0.070068	-0.519043	0.886186	0.090000	-0.434722	0.132632
44302		8.047224	0.056025	6.319580	0.066787	0.623591	-0.296725	-0.387451	-0.074951	-0.525879	0.888800	0.090907	-0.429667	0.130987
44303		8.088039	0.017750	6.373492	0.130681	0.626905	-0.236038	-0.370117	-0.078613	-0.532471	0.891274	0.092067	-0.424561	0.130011
44304		8.182901	0.115029	6.387339	0.141630	0.634275	-0.157740	-0.364014	-0.085449	-0.538330	0.893662	0.093019	-0.419406	0.129666
44305		8.064974	0.172076	6.416634	0.157372	0.640197	-0.101567	-0.358398	-0.085205	-0.542480	0.895972	0.093889	-0.414219	0.129775
44306		8.090823	0.061862	6.510253	0.209562	0.641447	-0.050555	-0.349365	-0.091309	-0.537598	0.898155	0.094963	-0.408997	0.130467
44307		8.040980	0.182025	6.586015	0.263135	0.668037	-0.006930	-0.341309	-0.099609	-0.536621	0.900303	0.096260	-0.403554	0.131656
44308		7.973923	0.301589	6.568990	0.273068	0.675894	0.023222	-0.334473	-0.101074	-0.543945	0.902400	0.097523	-0.398059	0.133087
44309		7.981428	0.404297	6.448407	0.250383	0.667536	0.040060	-0.328125	-0.104980	-0.563721	0.904432	0.098560	-0.392646	0.134601
44310		7.978088	0.525668	6.333531	0.240934	0.656538	0.052618	-0.312500	-0.110840	-0.557861	0.906388	0.099489	-0.387313	0.136203
44311		7.882400	0.809545	6.158981	0.218862	0.630449	0.053440	-0.314697	-0.110107	-0.559082	0.908237	0.100271	-0.382210	0.137718
44312		7.711322	1.072867	6.109339	0.177340	0.584041	0.022911	-0.304932	-0.125488	-0.563721	0.909975	0.100886	-0.377480	0.138839
44313		7.663139	1.260237	6.238276	0.135421	0.524532	-0.036861	-0.291748	-0.127441	-0.562988	0.911608	0.101439	-0.373190	0.139319
44314		7.612197	1.231684	6.436817	0.083529	0.485592	-0.098885	-0.293457	-0.122559	-0.567383	0.913216	0.101836	-0.369199	0.139133
44315		7.629408	1.009489	6.592858	0.047135	0.465822	-0.148296	-0.285889	-0.127197	-0.569824	0.914833	0.102129	-0.365355	0.138441
44316		7.704438	0.707578	6.568585	0.027346	0.458998	-0.171814	-0.278564	-0.131104	-0.567383	0.916456	0.102350	-0.361561	0.137500
44317		7.781657	0.517870	6.444393	0.024352	0.458393	-0.154951	-0.285889	-0.127441	-0.575684	0.918043	0.102497	-0.357785	0.136678
44318		7.776240	0.481192	6.328567	0.036113	0.446154	-0.121882	-0.272461	-0.137451	-0.572998	0.919529	0.102648	-0.354116	0.136133
44319		7.746724	0.736153	6.177447	0.039612	0.417797	-0.094737	-0.272461	-0.130859	-0.570312	0.920882	0.102776	-0.350680	0.135782
44320		7.588740	0.981103	6.041670	0.018651	0.371541	-0.097015	-0.265381	-0.135498	-0.574219	0.922107	0.102801	-0.347622	0.135312
44321		7.573031	1.076345	6.030764	-0.001044	0.320902	-0.124520	-0.251953	-0.144775	-0.576416	0.923223	0.102812	-0.344951	0.134529
44322		7.625014	1.053047	6.016052	-0.024734	0.273190	-0.144142	-0.255127	-0.135010	-0.577881	0.924235	0.102751	-0.342657	0.133486
44323		7.531283	0.963473	5.973100	-0.035430	0.223819	-0.146673	-0.252686	-0.134277	-0.577393	0.925110	0.102670	-0.340755	0.132351
44324		7.417822	1.035281	6.020412	-0.044854	0.165645	-0.142581	-0.250977	-0.136963	-0.571289	0.925817	0.102569	-0.339318	0.131171
44325		7.292013	1.185199	6.152790	-0.057751	0.117338	-0.155525	-0.247559	-0.131348	-0.575928	0.926408	0.102459	-0.338259	0.129813
44326		7.163966	1.166665	6.273623	-0.081322	0.076998	-0.170995	-0.251221	-0.139648	-0.580322	0.926917	0.102254	-0.337526	0.128236
44327		7.086186	1.097493	6.441523	-0.088059	0.045214	-0.179081	-0.248535	-0.134521	-0.566650	0.927348	0.102054	-0.337040	0.126549
44328		7.044679	0.927826	6.583869	-0.083724	0.025683	-0.177952	-0.252686	-0.134033	-0.580811	0.927714	0.101905	-0.336704	0.124867
44329		7.052917	0.768253	6.661486	-0.064142	0.016696	-0.159450	-0.243896	-0.136230	-0.574463	0.928017	0.101864	-0.336433	0.123376
44330		7.052730	0.680786	6.700796	-0.045113	0.008316	-0.118802	-0.240234	-0.136963	-0.579834	0.928235	0.101865	-0.336244	0.122246
44331		6.984763	0.762625	6.729679	-0.021082	-0.000553	-0.071668	-0.251709	-0.138916	-0.583008	0.928358	0.101928	-0.336141	0.121542
44332		6.862078	0.912924	6.751061	0.006264	-0.011555	-0.038212	-0.246094	-0.146729	-0.570068	0.928391	0.102120	-0.336126	0.121164
44333		6.768505	1.064598	6.860173	0.013578	-0.031828	-0.029119	-0.246582	-0.145996	-0.574219	0.928352	0.102363	-0.336270	0.120861
44334		6.717078	1.123042	6.933415	0.007588	-0.045068	-0.029196	-0.248779	-0.139404	-0.578613	0.928279	0.102573	-0.336524	0.120530
44335		6.698211	1.169351	6.902814	0.000282	-0.059731	-0.031379	-0.250732	-0.138428	-0.570068	0.928174	0.102747	-0.336899	0.120148
44336		6.698818	1.201707	6.908215	-0.010241	-0.086480	-0.039011	-0.250732	-0.136963	-0.573486	0.928009	0.102888	-0.337485	0.119656
44337		6.668450	1.199532	6.948666	-0.039379	-0.111495	-0.047694	-0.247803	-0.142822	-0.577148	0.927806	0.102853	-0.338288	0.118993
44338		6.615990	1.140767	6.979135	-0.053279	-0.136711	-0.046084	-0.259766	-0.149170	-0.573730	0.927540	0.102731	-0.339301	0.118281
44339		6.492823	1.130551	7.036344	-0.050526	-0.162402	-0.041709	-0.252441	-0.144287	-0.581787	0.927193	0.102643	-0.340515	0.117589
44340		6.463883	1.155577	7.158005	-0.042486	-0.184619	-0.035831	-0.258057	-0.137695	-0.569336	0.926768	0.102622	-0.341896	0.116946
44341		6.394196	1.194339	7.320706	-0.043993	-0.190910	-0.034747	-0.259521	-0.132324	-0.570068	0.926323	0.102591	-0.343329	0.116301
44342		6.335306	1.175431	7.436180	-0.046794	-0.189513	-0.031118	-0.262451	-0.138916	-0.575195	0.925878	0.102525	-0.344756	0.115677
44343		6.270342	1.236261	7.504925	-0.045431	-0.181376	-0.026349	-0.258545	-0.136963	-0.570312	0.925449	0.102450	-0.346122	0.115101
44344		6.229494	1.297387	7.569418	-0.053499	-0.172719	-0.024240	-0.268311	-0.141113	-0.565186	0.925048	0.102296	-0.347428	0.114524
44345		6.193974	1.319319	7.578541	-0.056540	-0.164825	-0.025071	-0.259277	-0.132568	-0.563721	0.924671	0.102114	-0.348676	0.113938
44346		6.162039	1.286972	7.595436	-0.052580	-0.157501	-0.023243	-0.276123	-0.132812	-0.560303	0.924309	0.101947	-0.349862	0.113383
44347		6.123751	1.301402	7.638624	-0.034067	-0.140211	-0.010185	-0.275635	-0.141113	-0.561279	0.923967	0.101870	-0.350911	0.112999
44348		6.106629	1.346507	7.711221	-0.012299	-0.126572	-0.006192	-0.266846	-0.132568	-0.570801	0.923643	0.101938	-0.351833	0.112719
44349		6.068269	1.398568	7.780013	-0.000416	-0.099642	0.005474	-0.273926	-0.134766	-0.564697	0.923379	0.102031	-0.352541	0.112584
44350		5.962828	1.354749	7.819563	0.010952	-0.069018	0.015605	-0.276123	-0.140869	-0.568604	0.923184	0.102157	-0.353015	0.112588
44351		5.921161	1.360781	7.794500	0.023779	-0.034222	0.017730	-0.286377	-0.127930	-0.573975	0.923079	0.102345	-0.353208	0.112675
44352		5.921259	1.343752	7.706087	0.033333	-0.004864	0.024233	-0.269531	-0.133789	-0.566895	0.923045	0.102550	-0.353174	0.112868
44353		5.957269	1.406342	7.721058	0.043074	0.008644	0.028304	-0.269531	-0.133789	-0.571289	0.923044	0.102810	-0.353020	0.113124
44354		5.950315	1.506771	7.685619	0.041964	0.028123	0.032598	-0.275635	-0.134033	-0.570557	0.923097	0.103031	-0.352720	0.113428
44355		5.986592	1.566972	7.648811	0.043055	0.037980	0.027748	-0.271484	-0.139160	-0.566650	0.923180	0.103266	-0.352343	0.113709
44356		6.013380	1.587866	7.676921	0.045901	0.045503	0.019365	-0.273926	-0.132080	-0.564697	0.923291	0.103546	-0.351895	0.113937
44357		5.947017	1.627043	7.654865	0.033199	0.052139	0.006348	-0.273682	-0.135742	-0.568604	0.923445	0.103751	-0.351400	0.114036
44358		5.977991	1.611616	7.702378	0.024095	0.052476	-0.009032	-0.270752	-0.132812	-0.565186	0.923623	0.103935	-0.350892	0.113988
44359		5.919100	1.729587	7.768443	0.003743	0.051831	-0.025706	-0.276611	-0.143066	-0.564453	0.923833	0.104009	-0.350393	0.113749
44360		5.872754	1.780686	7.839040	-0.027397	0.046727	-0.054221	-0.271484	-0.144287	-0.563232	0.924079	0.103948	-0.349943	0.113197
44361		5.720573	1.899277	7.992850	-0.063007	0.040858	-0.085637	-0.267090	-0.143066	-0.567627	0.924371	0.103707	-0.349535	0.112289
44362		5.492615	1.958850	8.152208	-0.096235	0.044075	-0.126735	-0.270752	-0.144043	-0.572021	0.924742	0.103319	-0.349089	0.110968
44363		5.182660	1.999198	8.448672	-0.119530	0.050244	-0.170868	-0.272217	-0.134277	-0.571289	0.925188	0.102874	-0.348581	0.109246
44364		4.923323	1.935735	8.877232	-0.139187	0.071944	-0.222334	-0.269531	-0.144287	-0.567139	0.925758	0.102398	-0.347878	0.107090
44365		4.880270	1.639235	9.273181	-0.127925	0.131906	-0.267136	-0.272949	-0.129883	-0.563965	0.926527	0.102098	-0.346655	0.104665
44366		4.935754	1.362586	9.477648	-0.132859	0.213585	-0.270025	-0.270752	-0.134033	-0.565430	0.927529	0.101678	-0.344804	0.102279
44367		4.968803	1.060006	9.518687	-0.124578	0.293156	-0.235038	-0.261230	-0.134521	-0.563477	0.928716	0.101160	-0.342349	0.100251
44368		5.102514	0.859169	9.513953	-0.075580	0.378783	-0.177284	-0.260498	-0.140137	-0.567871	0.930051	0.100783	-0.339222	0.098875
44369		5.210529	0.859068	9.447087	-0.012519	0.472159	-0.102764	-0.250977	-0.139404	-0.564697	0.931521	0.100612	-0.335375	0.098333
44370		5.190915	0.973465	9.250601	0.051557	0.557948	-0.029424	-0.255859	-0.140137	-0.567871	0.933102	0.100656	-0.330857	0.098607
44371		5.197525	1.169980	8.993943	0.111353	0.618054	0.035147	-0.241943	-0.141357	-0.564209	0.934716	0.100936	-0.325879	0.099607
44372		5.170739	1.570233	8.831884	0.148436	0.647564	0.071207	-0.233398	-0.140381	-0.567139	0.936326	0.101377	-0.320646	0.101003
44373		5.195362	1.912475	8.679211	0.140058	0.661336	0.078017	-0.237305	-0.141113	-0.580811	0.937947	0.101715	-0.315303	0.102437
44374		5.108585	2.221908	8.598197	0.117773	0.661098	0.063669	-0.220947	-0.140869	-0.583740	0.939565	0.101913	-0.309963	0.103701
44375		5.065872	2.405229	8.555204	0.107467	0.650560	0.025083	-0.210693	-0.148926	-0.588379	0.941175	0.102134	-0.304655	0.104614
44376		5.061926	2.597475	8.537543	0.090129	0.638530	-0.033632	-0.210449	-0.141846	-0.584229	0.942792	0.102388	-0.299391	0.105004
44377		5.083578	2.660563	8.511206	0.042519	0.623117	-0.101320	-0.210938	-0.152100	-0.588135	0.944436	0.102441	-0.294239	0.104736
44378		5.093511	2.464004	8.508158	0.013544	0.613642	-0.169004	-0.193848	-0.150635	-0.591064	0.946110	0.102456	-0.289124	0.103856
44379		5.106637	2.100503	8.634537	0.003091	0.605533	-0.200210	-0.196777	-0.150391	-0.591309	0.947780	0.102461	-0.284027	0.102683
44380		5.150761	1.773787	8.843575	0.026233	0.611525	-0.195569	-0.185059	-0.152344	-0.591553	0.949405	0.102631	-0.278877	0.101613
44381		5.106857	1.605372	8.923901	0.050168	0.629510	-0.162631	-0.177979	-0.147461	-0.585449	0.950997	0.102897	-0.273573	0.100866
44382		4.877955	1.678818	8.906034	0.067369	0.649630	-0.128745	-0.178955	-0.138184	-0.593506	0.952562	0.103194	-0.268120	0.100441
44383		4.805853	1.840264	8.949961	0.073689	0.665635	-0.115881	-0.166260	-0.146973	-0.597412	0.954113	0.103476	-0.262550	0.100140
44384		4.768540	1.957896	8.989983	0.077077	0.678021	-0.128489	-0.161133	-0.146973	-0.603271	0.955670	0.103817	-0.256839	0.099751
44385		4.751537	1.827743	9.020504	0.081165	0.686783	-0.151961	-0.161377	-0.151611	-0.604492	0.957227	0.104228	-0.251027	0.099187
44386		4.919379	1.626407	9.074303	0.085993	0.701727	-0.154108	-0.144531	-0.155273	-0.612305	0.958770	0.104678	-0.245096	0.098643
44387		4.885607	1.450489	9.068993	0.092648	0.723619	-0.119380	-0.142578	-0.151855	-0.606445	0.960296	0.105089	-0.238974	0.098387
44388		4.755147	1.572799	9.180169	0.112027	0.729321	-0.083752	-0.144531	-0.148682	-0.614746	0.961741	0.105568	-0.232839	0.098466
44389		4.611018	1.628890	9.318593	0.138996	0.748512	-0.073977	-0.134521	-0.154541	-0.623047	0.963148	0.106207	-0.226555	0.098688
44390		4.453227	1.685691	9.321226	0.159308	0.784519	-0.082972	-0.120850	-0.151855	-0.617676	0.964572	0.107001	-0.219931	0.098903
44391		4.388191	1.709311	9.355523	0.134144	0.798637	-0.079166	-0.121094	-0.145264	-0.617188	0.966002	0.107556	-0.213197	0.099087
44392		4.319075	1.592390	9.377619	0.130556	0.812297	-0.082125	-0.109131	-0.150146	-0.634033	0.967410	0.108044	-0.206387	0.099241
44393		4.484780	1.457861	9.630448	0.153018	0.833304	-0.091453	-0.097656	-0.151367	-0.639404	0.968802	0.108703	-0.199342	0.099343
44394		4.627886	1.461382	9.582755	0.157309	0.878777	-0.076432	-0.088867	-0.156006	-0.649170	0.970206	0.109322	-0.191916	0.099588
44395		4.486541	1.741562	9.256750	0.094970	0.906401	-0.036426	-0.076660	-0.144043	-0.645752	0.971618	0.109361	-0.184338	0.100090
44396		4.368331	2.037707	8.848148	0.060841	0.892282	-0.045770	-0.069092	-0.148926	-0.649170	0.972993	0.109132	-0.176889	0.100425
44397		4.527648	2.235727	8.475008	0.041965	0.868631	-0.122328	-0.062256	-0.147949	-0.652344	0.974348	0.108923	-0.169565	0.100150
44398		4.607999	2.134534	8.091820	-0.019203	0.825737	-0.196334	-0.043457	-0.148682	-0.664795	0.975703	0.108366	-0.162565	0.099159
44399		4.578802	1.768532	7.803844	-0.074945	0.752009	-0.229196	-0.035889	-0.146484	-0.663086	0.976988	0.107461	-0.156171	0.097759
44400		4.726835	1.462732	7.672001	-0.082532	0.681686	-0.231173	-0.032471	-0.148926	-0.667236	0.978148	0.106553	-0.150352	0.096271
44401		4.618440	1.435588	7.605730	-0.091483	0.619543	-0.201153	-0.028564	-0.145508	-0.669189	0.979177	0.105581	-0.145074	0.094962
44402		4.371390	1.643646	7.670314	-0.117524	0.541417	-0.173296	-0.016357	-0.137451	-0.673828	0.980086	0.104422	-0.140478	0.093779
44403		4.409230	1.643118	7.730479	-0.125713	0.492254	-0.173254	-0.011475	-0.137451	-0.679688	0.980920	0.103233	-0.136290	0.092543
44404		4.461388	1.482494	7.713073	-0.100063	0.472701	-0.172903	0.002197	-0.135254	-0.689209	0.981689	0.102267	-0.132244	0.091323
44405		4.507623	1.257334	7.574356	-0.068816	0.453698	-0.144789	0.006592	-0.135254	-0.682861	0.982370	0.101539	-0.128356	0.090351
44406		4.632698	1.073896	7.396828	-0.036243	0.428422	-0.081711	0.018066	-0.141357	-0.687256	0.982933	0.101028	-0.124706	0.089911
44407		4.814863	0.941433	7.114524	0.036213	0.416164	-0.002500	0.017334	-0.139160	-0.687012	0.983349	0.101035	-0.121172	0.090186
44408		4.888169	1.168895	6.732779	0.106947	0.391140	0.067221	0.028809	-0.139893	-0.691162	0.983615	0.101570	-0.117854	0.091084
44409		4.814117	1.590219	6.465021	0.109930	0.315807	0.107045	0.031738	-0.136475	-0.687012	0.983762	0.102146	-0.115189	0.092249
44410		4.737224	2.005929	6.376450	0.063752	0.219357	0.105000	0.038330	-0.139893	-0.694092	0.983850	0.102420	-0.113355	0.093273
44411		4.803591	1.985006	6.311357	0.036014	0.130291	0.064329	0.043701	-0.135254	-0.694336	0.983905	0.102577	-0.112243	0.093861
44412		4.794725	1.958887	6.188802	0.024941	0.043868	0.031926	0.041748	-0.138672	-0.695312	0.983912	0.102743	-0.111828	0.094101
44413		4.819888	1.852986	6.148483	0.008709	-0.054132	0.015071	0.046875	-0.136719	-0.690918	0.983854	0.102869	-0.112220	0.094105
44414		4.845306	1.655387	6.192750	-0.005053	-0.142616	0.012831	0.038818	-0.137695	-0.692139	0.983725	0.102956	-0.113352	0.094003
44415		4.879346	1.379294	6.239166	0.016241	-0.216565	0.027277	0.030762	-0.140137	-0.684814	0.983493	0.103263	-0.115093	0.093977
44416		4.849224	1.280979	6.298602	0.044209	-0.287147	0.068763	0.025146	-0.148926	-0.688477	0.983132	0.103815	-0.117432	0.094259
44417		4.874016	1.297496	6.428415	0.059432	-0.357108	0.102959	0.025879	-0.140137	-0.689697	0.982653	0.104511	-0.120366	0.094776
44418		4.981663	1.280221	6.556593	0.060926	-0.423171	0.126651	0.008301	-0.147217	-0.680664	0.982076	0.105248	-0.123866	0.095431
44419		5.029990	1.294071	6.654027	0.060674	-0.490252	0.149736	0.013672	-0.143799	-0.679443	0.981395	0.106010	-0.127939	0.096217
44420		5.108845	1.308464	6.770773	0.056021	-0.553839	0.177686	0.015869	-0.157471	-0.678711	0.980606	0.106753	-0.132564	0.097170
44421		5.062352	1.370886	6.972622	0.055702	-0.621620	0.195971	-0.005371	-0.151123	-0.678955	0.979701	0.107526	-0.137761	0.098210
44422		5.081577	1.540645	7.191346	0.036681	-0.690164	0.207831	-0.012207	-0.151123	-0.670166	0.978692	0.108181	-0.143545	0.099262
44423		5.104826	1.651586	7.350805	0.008391	-0.746475	0.210040	-0.024170	-0.151123	-0.663086	0.977601	0.108646	-0.149813	0.100244
44424		5.184820	1.740687	7.512832	-0.008767	-0.802442	0.213100	-0.036133	-0.153076	-0.659180	0.976408	0.109010	-0.156553	0.101176
44425		5.094960	1.923152	7.677086	-0.006326	-0.865982	0.203691	-0.046875	-0.150635	-0.655518	0.975086	0.109453	-0.163795	0.101973
44426		5.089200	1.994530	8.076858	-0.020827	-0.926466	0.184414	-0.056641	-0.156738	-0.646973	0.973654	0.109851	-0.171518	0.102530
44427		5.156997	1.831220	8.352956	-0.026337	-0.959616	0.169369	-0.069580	-0.160645	-0.648193	0.972128	0.110251	-0.179491	0.102932
44428		5.105893	1.625740	8.521083	-0.014250	-0.980743	0.168097	-0.065186	-0.158691	-0.631592	0.970493	0.110764	-0.187615	0.103321
44429		5.104055	1.496922	8.736300	-0.005572	-0.995663	0.199409	-0.079346	-0.159668	-0.631104	0.968734	0.111301	-0.195858	0.103950
44430		5.004380	1.429700	8.947852	0.014133	-0.996797	0.237460	-0.095947	-0.156738	-0.625244	0.966850	0.111929	-0.204123	0.104913
44431		5.064622	1.588062	9.120719	0.028395	-0.990484	0.256546	-0.107666	-0.161865	-0.618164	0.964875	0.112620	-0.212338	0.106044
44432		5.084696	1.760264	9.076420	0.000580	-0.981961	0.261398	-0.111084	-0.156006	-0.615234	0.962863	0.113075	-0.220496	0.107193
44433		5.158502	1.801213	8.972083	-0.037855	-0.983373	0.247042	-0.123047	-0.165039	-0.617676	0.960836	0.113224	-0.228665	0.108108
44434		5.190917	1.823470	8.909887	-0.061842	-1.000997	0.227543	-0.134766	-0.163574	-0.600342	0.958739	0.113245	-0.236961	0.108837
44435		5.312450	1.741461	8.947801	-0.079132	-1.026467	0.213355	-0.145752	-0.158203	-0.601807	0.956550	0.113161	-0.245451	0.109366
44436		5.585984	1.609281	8.996201	-0.080905	-1.026913	0.188689	-0.153564	-0.167969	-0.604248	0.954314	0.113094	-0.253907	0.109667
44437		5.802367	1.324290	8.883740	-0.095254	-1.025423	0.197925	-0.163574	-0.173096	-0.603271	0.952012	0.112887	-0.262350	0.110011
44438		5.801547	1.097326	8.898403	-0.085012	-1.033883	0.247080	-0.160400	-0.159424	-0.598877	0.949563	0.112649	-0.270879	0.110748
44439		5.715087	1.326892	9.055566	-0.061574	-1.057524	0.308334	-0.170654	-0.164307	-0.605713	0.946905	0.112467	-0.279608	0.111986
44440		5.713750	1.765838	9.348605	-0.052287	-1.061783	0.334475	-0.186035	-0.164551	-0.592529	0.944123	0.112292	-0.288363	0.113442
44441		5.787482	2.058137	9.405519	-0.069232	-1.029968	0.306143	-0.196533	-0.156982	-0.585693	0.941382	0.112011	-0.296831	0.114653
44442		5.805461	1.996187	9.153060	-0.110619	-1.010215	0.280297	-0.209961	-0.163818	-0.592285	0.938679	0.111440	-0.305135	0.115565
44443		5.966021	1.888209	8.982935	-0.116979	-1.005329	0.274736	-0.214600	-0.164795	-0.586182	0.935928	0.110821	-0.313377	0.116413
44444		5.927456	1.924229	8.860627	-0.087697	-1.002813	0.275275	-0.231201	-0.152344	-0.588379	0.933086	0.110417	-0.321545	0.117333
44445		5.848071	2.118354	8.955155	-0.077105	-1.013228	0.255346	-0.249023	-0.149170	-0.579590	0.930156	0.110150	-0.329739	0.118105
44446		6.012880	2.019247	9.120271	-0.098328	-1.001444	0.197766	-0.248047	-0.148438	-0.579834	0.927266	0.109857	-0.337783	0.118374
44447		6.235876	1.545621	9.088345	-0.128389	-0.948742	0.158471	-0.264404	-0.145264	-0.583008	0.924528	0.109382	-0.345386	0.118291
44448		6.439716	0.912021	8.838295	-0.123072	-0.884974	0.174658	-0.276855	-0.139648	-0.566650	0.921896	0.108830	-0.352485	0.118399
44449		6.568779	0.544671	8.368233	-0.058923	-0.815220	0.261061	-0.286133	-0.136230	-0.573975	0.919276	0.108441	-0.359043	0.119416
44450		6.413280	0.830873	7.960582	-0.000942	-0.806228	0.364940	-0.301758	-0.132080	-0.566162	0.916481	0.108167	-0.365546	0.121403
44451		6.342941	1.494369	7.959442	0.023023	-0.825748	0.400889	-0.309326	-0.139160	-0.572998	0.913516	0.107979	-0.372188	0.123715
44452		6.528299	1.947968	7.950104	-0.009005	-0.819093	0.347829	-0.310547	-0.122803	-0.564453	0.910606	0.107704	-0.378735	0.125524
44453		6.570466	1.835598	7.741466	-0.095953	-0.811423	0.278889	-0.327393	-0.121338	-0.560547	0.907827	0.106955	-0.385230	0.126523
44454		6.708427	1.302680	7.477015	-0.125651	-0.817821	0.254105	-0.324707	-0.119385	-0.556396	0.905029	0.106067	-0.391770	0.127234
44455		6.939954	1.080818	7.288236	-0.093658	-0.818859	0.277307	-0.346924	-0.112793	-0.546631	0.902136	0.105339	-0.398268	0.128207
44456		7.033289	1.214033	7.231525	-0.063142	-0.814301	0.333033	-0.343262	-0.109131	-0.545166	0.899111	0.104642	-0.404752	0.129711
44457		6.954018	1.594706	7.224218	-0.041531	-0.817307	0.368974	-0.358887	-0.104004	-0.536133	0.895983	0.103975	-0.411220	0.131535
44458		6.814734	2.062127	7.275078	-0.024190	-0.822394	0.356926	-0.366699	-0.106934	-0.538574	0.892777	0.103479	-0.417692	0.133326
44459		6.691356	2.454613	7.378344	-0.045633	-0.827270	0.300068	-0.383789	-0.089600	-0.533447	0.889592	0.103033	-0.424137	0.134603
44460		6.504225	2.632884	7.388871	-0.096700	-0.832069	0.218866	-0.395020	-0.088867	-0.526367	0.886469	0.102452	-0.430608	0.135107
44461		6.409901	2.510340	7.535818	-0.128531	-0.836074	0.136616	-0.399902	-0.091064	-0.520508	0.883400	0.101944	-0.437058	0.134880
44462		6.332773	2.221727	7.757675	-0.119279	-0.813733	0.066583	-0.401123	-0.088379	-0.512207	0.880445	0.101745	-0.443240	0.134173
44463		6.232736	1.965535	7.975491	-0.103606	-0.762252	0.032145	-0.412354	-0.085938	-0.511230	0.877677	0.101722	-0.448962	0.133300
44464		6.013905	1.689481	8.141454	-0.069782	-0.696524	0.017183	-0.425781	-0.075928	-0.507812	0.875108	0.101922	-0.454137	0.132504
44465		5.880927	1.654086	8.293207	-0.034452	-0.620906	0.014301	-0.432129	-0.071533	-0.490967	0.872761	0.102272	-0.458723	0.131916
44466		5.798916	1.538490	8.394144	-0.010486	-0.520721	0.005255	-0.443848	-0.079346	-0.494385	0.870758	0.102734	-0.462548	0.131434
44467		5.749768	1.527058	8.350181	0.001406	-0.419408	0.006337	-0.438721	-0.072998	-0.495605	0.869143	0.103204	-0.465581	0.131047
44468		5.795671	1.447473	8.239366	0.005566	-0.321463	0.001560	-0.434814	-0.074219	-0.490967	0.867927	0.103606	-0.467850	0.130711
44469		5.740652	1.482590	8.041031	0.017240	-0.235945	-0.005227	-0.441895	-0.069580	-0.479004	0.867043	0.104035	-0.469469	0.130430
44470		5.650347	1.522453	7.946590	0.023216	-0.174002	-0.019902	-0.451172	-0.077393	-0.486084	0.866406	0.104497	-0.470626	0.130120
44471		5.790035	1.560842	7.974550	0.028780	-0.110370	-0.052704	-0.443115	-0.068115	-0.480957	0.866056	0.105061	-0.471278	0.129639
44472		5.940822	1.453917	7.971802	0.034845	-0.025653	-0.087749	-0.453369	-0.076904	-0.487305	0.866073	0.105712	-0.471273	0.129011
44473		6.024999	1.430409	7.872355	0.034993	0.052303	-0.087528	-0.440918	-0.079590	-0.483887	0.866399	0.106280	-0.470701	0.128443
44474		6.099015	1.494230	7.824046	0.035078	0.115666	-0.073359	-0.444092	-0.092041	-0.483643	0.866962	0.106723	-0.469675	0.128031
44475		6.131668	1.705086	7.765578	0.038892	0.180037	-0.082403	-0.442383	-0.083984	-0.488037	0.867785	0.107161	-0.468169	0.127609
44476		6.184920	1.905224	7.696068	0.033733	0.230272	-0.117796	-0.435791	-0.090088	-0.491699	0.868842	0.107645	-0.466265	0.126976
44477		6.390451	2.006684	7.667428	0.004842	0.281611	-0.167009	-0.436035	-0.091553	-0.500488	0.870178	0.108056	-0.463964	0.125906
44478		6.581732	1.964780	7.557033	-0.033349	0.345143	-0.209137	-0.437012	-0.082764	-0.499756	0.871832	0.108286	-0.461192	0.124442
44479		6.590562	1.840726	7.272642	-0.060625	0.390704	-0.241917	-0.434570	-0.098633	-0.490234	0.873700	0.108394	-0.458085	0.122704
44480		6.615501	1.864490	7.053788	-0.070907	0.407356	-0.268644	-0.419922	-0.095459	-0.494385	0.875657	0.108513	-0.454848	0.120675
44481		6.694386	1.880409	6.995923	-0.085578	0.410879	-0.299690	-0.420166	-0.105225	-0.504395	0.877663	0.108634	-0.451543	0.118387
44482		6.747465	1.974106	7.039832	-0.103244	0.414742	-0.358168	-0.422607	-0.101318	-0.503662	0.879744	0.108845	-0.448159	0.115576
44483		6.814956	1.885592	7.180399	-0.148583	0.421089	-0.410798	-0.403564	-0.101318	-0.509766	0.881907	0.108911	-0.444725	0.112242
44484		6.982576	1.682524	7.323858	-0.180546	0.448802	-0.451319	-0.411621	-0.105225	-0.514648	0.884230	0.108857	-0.441034	0.108519
44485		7.148758	1.449646	7.321040	-0.180834	0.498599	-0.448446	-0.398193	-0.114746	-0.510986	0.886694	0.108748	-0.436983	0.104851
44486		7.305439	1.122976	7.185234	-0.133674	0.557933	-0.429965	-0.404785	-0.114258	-0.516357	0.889291	0.108866	-0.432449	0.101473
44487		7.535128	1.051999	7.007151	-0.085129	0.608115	-0.401235	-0.385742	-0.121338	-0.522705	0.891952	0.109198	-0.427533	0.098557
44488		7.689590	0.994016	6.771303	-0.067849	0.639933	-0.350332	-0.386230	-0.121094	-0.524170	0.894655	0.109444	-0.422358	0.096063
44489		7.695244	0.946555	6.676920	-0.042617	0.646232	-0.293514	-0.370361	-0.130371	-0.523193	0.897263	0.109672	-0.417175	0.094105
44490		7.857717	1.096062	6.689322	-0.010819	0.655097	-0.249205	-0.364990	-0.128418	-0.528809	0.899819	0.109978	-0.411912	0.092516
44491		7.949218	1.205444	6.576888	0.022068	0.682315	-0.219334	-0.357910	-0.132568	-0.541016	0.902378	0.110400	-0.406430	0.091327
44492		8.136900	1.301259	6.386688	0.045810	0.701976	-0.216791	-0.349121	-0.139404	-0.538330	0.904954	0.110975	-0.400746	0.090249
44493		8.326113	1.314563	5.943815	0.037854	0.701863	-0.215636	-0.344482	-0.138184	-0.540283	0.907498	0.111492	-0.395069	0.089095
44494		8.292001	1.213016	5.551676	0.022906	0.659270	-0.209732	-0.335205	-0.144287	-0.544678	0.909865	0.111905	-0.389731	0.087937
44495		8.380280	1.086519	5.476801	0.028479	0.599804	-0.196915	-0.332031	-0.142578	-0.548584	0.912000	0.112364	-0.384830	0.086809
44496		8.399732	1.102335	5.540641	0.032347	0.555666	-0.183061	-0.324707	-0.145508	-0.543945	0.913944	0.112834	-0.380277	0.085815
44497		8.318891	1.028796	5.565228	0.035983	0.525480	-0.152658	-0.319092	-0.146729	-0.546631	0.915738	0.113259	-0.375986	0.085034
44498		8.183008	1.026279	5.694618	0.056976	0.496729	-0.128122	-0.309814	-0.154053	-0.558594	0.917383	0.113781	-0.371915	0.084509
44499		8.144335	1.057813	5.822415	0.071611	0.480949	-0.117110	-0.302734	-0.156982	-0.555908	0.918949	0.114389	-0.367933	0.084102
44500		8.054524	1.099546	5.899103	0.063398	0.466553	-0.095147	-0.294434	-0.153320	-0.551025	0.920439	0.114871	-0.364097	0.083849
44501		8.077129	0.986120	5.803443	0.056904	0.454464	-0.075044	-0.295166	-0.156250	-0.558838	0.921862	0.115241	-0.360384	0.083752
44502		8.144358	0.910390	5.674727	0.071764	0.436392	-0.052684	-0.295410	-0.158691	-0.557373	0.923183	0.115669	-0.356820	0.083865
44503		8.030487	1.064468	5.475827	0.068374	0.390812	-0.034937	-0.288574	-0.160156	-0.557129	0.924344	0.116051	-0.353630	0.084065
44504		7.945132	1.206872	5.434109	0.030602	0.317168	-0.030502	-0.279541	-0.156494	-0.558594	0.925312	0.116177	-0.351034	0.084117
44505		7.922619	1.277993	5.601443	-0.006269	0.247430	-0.041318	-0.278076	-0.161133	-0.560791	0.926113	0.116097	-0.348992	0.083909
44506		7.958109	1.196074	5.623459	-0.035254	0.199242	-0.048435	-0.274902	-0.165527	-0.559082	0.926801	0.115850	-0.347338	0.083518
44507		7.702883	1.172865	5.602812	-0.038567	0.152374	-0.033247	-0.276367	-0.168213	-0.558350	0.927341	0.115567	-0.346067	0.083192
44508		7.365801	1.284360	5.816366	-0.027507	0.086220	-0.010101	-0.279785	-0.156738	-0.561279	0.927661	0.115348	-0.345325	0.083015
44509		7.192340	1.560927	6.243500	-0.025599	0.036460	-0.008260	-0.270752	-0.161377	-0.566895	0.927833	0.115170	-0.344971	0.082810
44510		7.084459	1.705300	6.634889	-0.036856	0.029579	-0.023501	-0.271484	-0.154053	-0.566895	0.928006	0.114955	-0.344663	0.082448
44511		7.038306	1.726823	6.727488	-0.051255	0.051326	-0.043807	-0.273193	-0.161377	-0.558838	0.928268	0.114671	-0.344181	0.081909
44512		6.886879	1.577313	6.638682	-0.067282	0.053952	-0.049897	-0.272461	-0.164795	-0.562988	0.928554	0.114284	-0.343685	0.081283
44513		6.787249	1.518613	6.571515	-0.067135	0.040207	-0.034815	-0.275146	-0.160889	-0.558105	0.928790	0.113864	-0.343310	0.080761
44514		6.715571	1.563388	6.702940	-0.043893	0.017662	-0.017940	-0.278809	-0.157959	-0.561279	0.928927	0.113589	-0.343113	0.080415
44515		6.651618	1.678603	6.876134	-0.020700	0.004997	-0.004047	-0.273438	-0.162842	-0.560303	0.928995	0.113461	-0.343012	0.080230
44516		6.524085	1.808972	6.936827	-0.013190	-0.001348	-0.006829	-0.268311	-0.163574	-0.562256	0.929041	0.113405	-0.342952	0.080040
44517		6.369108	1.869450	7.033123	-0.021704	-0.014993	-0.012737	-0.267578	-0.155273	-0.560791	0.929060	0.113309	-0.342997	0.079765
44518		6.278931	1.913764	7.164642	-0.030777	-0.030953	-0.022146	-0.271240	-0.161621	-0.559326	0.929047	0.113178	-0.343165	0.079376
44519		6.283915	1.890734	7.332130	-0.024813	-0.033817	-0.026801	-0.276367	-0.155029	-0.567627	0.929022	0.113113	-0.343347	0.078967
44520		6.174578	1.887252	7.369458	-0.007881	-0.024603	-0.028043	-0.270264	-0.162598	-0.567627	0.929009	0.113172	-0.343446	0.078604
44521		6.024956	1.932483	7.473048	-0.003041	-0.024172	-0.033047	-0.276855	-0.161377	-0.562744	0.928997	0.113287	-0.343530	0.078216
44522		6.035048	1.938679	7.640145	0.004057	-0.020096	-0.045255	-0.276367	-0.160645	-0.568359	0.928996	0.113490	-0.343570	0.077761
44523		6.081427	1.826725	7.643201	0.000816	-0.001637	-0.049492	-0.270020	-0.158936	-0.558350	0.929054	0.113665	-0.343462	0.077277
44524		6.124137	1.705440	7.605235	0.011854	0.018658	-0.037202	-0.271240	-0.160400	-0.577637	0.929153	0.113878	-0.343201	0.076938
44525		6.064100	1.635259	7.500986	0.029095	0.034999	-0.020425	-0.273926	-0.161377	-0.564453	0.929274	0.114162	-0.342813	0.076790
44526		5.993281	1.692218	7.469426	0.033622	0.033916	-0.015099	-0.270996	-0.161133	-0.562988	0.929379	0.114472	-0.342442	0.076703
44527		5.997057	1.801031	7.538192	0.008698	0.022924	-0.014308	-0.272461	-0.163330	-0.555664	0.929478	0.114593	-0.342171	0.076538
44528		6.000717	1.811721	7.602990	-0.013521	0.013551	-0.031042	-0.268799	-0.164795	-0.561523	0.929580	0.114599	-0.341972	0.076175
44529		5.986687	1.765361	7.680918	-0.027425	0.013138	-0.043609	-0.269043	-0.156738	-0.557861	0.929705	0.114531	-0.341768	0.075669
44530		6.020822	1.723205	7.746916	-0.029477	0.022553	-0.047252	-0.266846	-0.160645	-0.557129	0.929861	0.114444	-0.341491	0.075136
44531		5.999189	1.763594	7.767186	-0.032007	0.029881	-0.045014	-0.272949	-0.159912	-0.558838	0.930038	0.114331	-0.341158	0.074622
44532		6.056075	1.764157	7.744954	-0.039633	0.045855	-0.047422	-0.268066	-0.154053	-0.574219	0.930268	0.114157	-0.340706	0.074086
44533		6.109824	1.676957	7.689051	-0.029235	0.067761	-0.043542	-0.261963	-0.165039	-0.569580	0.930553	0.114026	-0.340074	0.073617
44534		6.087739	1.615423	7.526571	-0.013278	0.089048	-0.024599	-0.273438	-0.159668	-0.562500	0.930869	0.113967	-0.339281	0.073367
44535		5.964016	1.618849	7.543064	0.007110	0.088841	0.001166	-0.266846	-0.163330	-0.563477	0.931143	0.113993	-0.338516	0.073387
44536		6.017242	1.711042	7.635369	0.030930	0.097132	0.005299	-0.262939	-0.153564	-0.556152	0.931417	0.114188	-0.337667	0.073508
44537		5.967978	1.680491	7.663387	0.032616	0.114127	0.005690	-0.265625	-0.167480	-0.564697	0.931738	0.114372	-0.336689	0.073647
44538		5.946466	1.760773	7.572632	0.021565	0.129464	0.015012	-0.260986	-0.160889	-0.564453	0.932104	0.114452	-0.335601	0.073851
44539		5.866898	1.767053	7.504808	0.013386	0.128766	0.019663	-0.268799	-0.159180	-0.566162	0.932475	0.114443	-0.334527	0.074058
44540		5.887376	1.881332	7.566105	0.011826	0.127652	0.008890	-0.262207	-0.162842	-0.565918	0.932846	0.114453	-0.333461	0.074184
44541		5.794605	1.902663	7.629824	-0.001199	0.124163	-0.004956	-0.255371	-0.162842	-0.560303	0.933229	0.114407	-0.332408	0.074159
44542		5.787995	1.816097	7.796285	-0.010437	0.128770	-0.010313	-0.267090	-0.163818	-0.571045	0.933638	0.114301	-0.331316	0.074068
44543		5.638331	1.660232	7.930662	0.003344	0.148598	-0.000855	-0.258301	-0.157471	-0.565674	0.934076	0.114265	-0.330078	0.074117
44544		5.492228	1.716983	8.253812	0.026977	0.168421	0.024407	-0.260742	-0.159424	-0.561035	0.934534	0.114319	-0.328690	0.074433
44545		5.276588	1.912220	8.502728	0.041365	0.200605	0.041574	-0.255371	-0.160889	-0.565186	0.935049	0.114427	-0.327062	0.074965
44546		5.092151	2.237948	8.738847	0.031191	0.233565	0.030045	-0.249512	-0.162598	-0.567627	0.935672	0.114464	-0.325161	0.075402
44547		5.033103	2.378062	8.833767	0.003652	0.272726	-0.014980	-0.247314	-0.167236	-0.570801	0.936454	0.114384	-0.322920	0.075444
44548		5.042122	2.346553	8.771420	-0.034705	0.310586	-0.070891	-0.241455	-0.164551	-0.564209	0.937404	0.114139	-0.320348	0.074986
44549		4.956904	2.215482	8.738552	-0.060933	0.324461	-0.109475	-0.241211	-0.161865	-0.574951	0.938432	0.113780	-0.317646	0.074169
44550		4.895152	2.078553	8.828156	-0.078455	0.334218	-0.127634	-0.234863	-0.160400	-0.567139	0.939506	0.113314	-0.314858	0.073163
44551		4.754046	1.986847	8.946269	-0.075560	0.349007	-0.129916	-0.237549	-0.161621	-0.570312	0.940608	0.112870	-0.311946	0.072163
44552		4.638386	1.915265	9.090747	-0.055747	0.372723	-0.130214	-0.232666	-0.158447	-0.577148	0.941739	0.112571	-0.308837	0.071245
44553		4.634965	1.911817	9.300648	-0.049744	0.402657	-0.122728	-0.229004	-0.156006	-0.577393	0.942929	0.112270	-0.305486	0.070414
44554		4.535998	1.860000	9.474594	-0.038922	0.441193	-0.095317	-0.223877	-0.155762	-0.570801	0.944179	0.111956	-0.301847	0.069858
44555		4.321979	1.896086	9.630215	-0.013713	0.480380	-0.078423	-0.218262	-0.154785	-0.582275	0.945477	0.111781	-0.297895	0.069544
44556		4.324551	1.975666	9.875815	0.012479	0.529027	-0.069524	-0.215332	-0.157959	-0.576660	0.946854	0.111748	-0.293538	0.069389
44557		4.340834	2.112912	9.945319	0.023465	0.593562	-0.058964	-0.210205	-0.158447	-0.572510	0.948346	0.111753	-0.288672	0.069427
44558		4.230591	2.330917	9.872773	0.019860	0.652059	-0.045283	-0.210449	-0.159668	-0.582031	0.949945	0.111666	-0.283350	0.069627
44559		4.074354	2.557793	9.766205	0.009370	0.683346	-0.067435	-0.191406	-0.158691	-0.584717	0.951609	0.111524	-0.277760	0.069653
44560		4.124322	2.733783	9.788386	-0.010519	0.696295	-0.135629	-0.193115	-0.160156	-0.586426	0.953340	0.111360	-0.271978	0.069066
44561		4.309064	2.503887	9.825043	-0.041793	0.718161	-0.202167	-0.183105	-0.154053	-0.596924	0.955143	0.111092	-0.265982	0.067922
44562		4.393984	2.165943	9.895538	-0.060001	0.735235	-0.219710	-0.177490	-0.158447	-0.592773	0.956980	0.110677	-0.259825	0.066567
44563		4.371949	1.781071	10.071053	-0.034408	0.753220	-0.178961	-0.176025	-0.157471	-0.599609	0.958762	0.110387	-0.253539	0.065642
44564		4.299172	1.763621	10.370550	0.041183	0.805563	-0.120005	-0.174805	-0.150146	-0.598145	0.960506	0.110538	-0.246846	0.065395
44565		4.081129	2.063322	10.577843	0.103759	0.875145	-0.082617	-0.147461	-0.154053	-0.610596	0.962264	0.111051	-0.239603	0.065624
44566		4.119764	2.385707	10.471521	0.106378	0.954285	-0.098435	-0.156250	-0.152100	-0.596436	0.964145	0.111557	-0.231640	0.065739
44567		4.180042	2.459949	10.011021	0.067673	1.013732	-0.140493	-0.143066	-0.151611	-0.614258	0.966111	0.111817	-0.223218	0.065574
44568		4.246748	2.473999	9.433198	0.027955	1.026786	-0.175858	-0.133789	-0.142822	-0.619141	0.968095	0.111786	-0.214642	0.065000
44569		4.336804	2.443247	9.047132	-0.004545	1.006341	-0.215542	-0.114502	-0.151367	-0.629395	0.970023	0.111547	-0.206201	0.063981
44570		4.395066	2.245374	8.783496	-0.023151	0.973520	-0.259331	-0.112061	-0.149414	-0.638428	0.971865	0.111271	-0.197947	0.062562
44571		4.516157	1.891795	8.726151	-0.044387	0.938875	-0.279629	-0.100586	-0.148438	-0.638428	0.973606	0.110870	-0.189969	0.060923
44572		4.371946	1.597323	8.711859	-0.059173	0.904372	-0.241184	-0.098389	-0.146240	-0.648438	0.975220	0.110309	-0.182297	0.059551
44573		4.020803	1.705749	8.962659	-0.047140	0.848968	-0.190591	-0.088867	-0.133789	-0.656006	0.976653	0.109796	-0.175109	0.058571
44574		3.952396	2.176169	9.448223	-0.041704	0.824714	-0.190187	-0.066406	-0.138916	-0.663818	0.977994	0.109338	-0.168101	0.057582
44575		4.029454	2.288434	9.488128	-0.075606	0.850759	-0.229956	-0.067139	-0.142334	-0.667725	0.979367	0.108646	-0.160850	0.056253
44576		3.734332	2.186159	9.277084	-0.119791	0.862217	-0.258470	-0.049072	-0.136475	-0.680176	0.980751	0.107621	-0.153494	0.054640
44577		3.874793	1.917493	9.231461	-0.134761	0.845369	-0.268558	-0.035156	-0.136475	-0.679199	0.982073	0.106489	-0.146265	0.052908
44578		3.911553	1.738846	9.064155	-0.117287	0.846473	-0.271044	-0.028076	-0.131836	-0.686035	0.983325	0.105496	-0.139010	0.051177
44579		3.937854	1.519209	8.841391	-0.105166	0.846823	-0.250284	-0.012939	-0.128174	-0.697754	0.984500	0.104573	-0.131760	0.049629
44580		3.840717	1.396170	8.644236	-0.108890	0.818840	-0.211531	0.002197	-0.129883	-0.697510	0.985578	0.103582	-0.124770	0.048369
44581		3.952461	1.440814	8.531384	-0.099711	0.795747	-0.178993	0.014648	-0.123047	-0.697266	0.986560	0.102637	-0.117990	0.047367
44582		4.196339	1.386268	8.282396	-0.088889	0.794002	-0.169530	0.027832	-0.120850	-0.701660	0.987479	0.101768	-0.111226	0.046451
44583		4.504920	1.164482	7.650030	-0.080805	0.786297	-0.151203	0.029541	-0.126465	-0.704590	0.988329	0.100946	-0.104536	0.045688
44584		4.600955	1.003288	6.922971	-0.085799	0.733118	-0.100851	0.058105	-0.121094	-0.712158	0.989075	0.100055	-0.098330	0.045292
44585		4.590581	1.008768	6.502901	-0.088229	0.629006	-0.038343	0.061279	-0.116211	-0.720703	0.989679	0.099129	-0.093036	0.045324
44586		4.644206	1.182098	6.300371	-0.057763	0.537197	0.007080	0.077393	-0.120361	-0.720703	0.990143	0.098451	-0.088529	0.045680
44587		4.769223	1.360662	6.139803	-0.033415	0.462711	0.030628	0.083496	-0.118408	-0.729492	0.990505	0.097983	-0.084651	0.046190
44588		4.706613	1.446870	5.885921	-0.023634	0.393904	0.045453	0.097900	-0.113770	-0.719727	0.990790	0.097612	-0.081354	0.046775
44589		4.572376	1.507901	5.719105	-0.034422	0.291340	0.065824	0.098145	-0.118408	-0.723633	0.990997	0.097178	-0.078930	0.047441
44590		4.568697	1.708029	5.757100	-0.053756	0.183067	0.089505	0.099365	-0.118896	-0.723877	0.991134	0.096612	-0.077434	0.048204
44591		4.542501	1.708527	5.594177	-0.052379	0.104378	0.079824	0.108643	-0.115723	-0.720215	0.991220	0.096096	-0.076585	0.048827
44592		4.440720	1.785298	5.481694	-0.048749	0.001153	0.050402	0.100342	-0.107666	-0.718750	0.991247	0.095672	-0.076569	0.049129
44593		4.720402	1.677012	5.493690	-0.068387	-0.100809	0.032617	0.094482	-0.111816	-0.720703	0.991231	0.095140	-0.077396	0.049192
44594		4.789170	1.429787	5.385367	-0.070012	-0.187873	0.055754	0.095947	-0.109131	-0.720459	0.991148	0.094617	-0.078967	0.049379
44595		4.894310	1.220920	5.428716	-0.014711	-0.288957	0.101318	0.096680	-0.103760	-0.725830	0.990931	0.094562	-0.081392	0.049901
44596		5.015895	1.391996	5.672948	0.037491	-0.378955	0.172461	0.083984	-0.110107	-0.715820	0.990572	0.094927	-0.084600	0.050977
44597		4.916478	1.698349	5.761601	0.069096	-0.449803	0.216859	0.077148	-0.118896	-0.706055	0.990105	0.095551	-0.088421	0.052388
44598		4.617360	2.038212	5.923012	0.066024	-0.539576	0.220289	0.062500	-0.121094	-0.718994	0.989551	0.096185	-0.092990	0.053755
44599		4.562505	2.262735	6.128574	0.043487	-0.647911	0.170221	0.052490	-0.112305	-0.713135	0.988927	0.096720	-0.098426	0.054605
44600		4.583596	2.159254	6.342741	-0.003776	-0.755636	0.100273	0.054199	-0.109863	-0.705322	0.988248	0.096970	-0.104717	0.054751
44601		4.608051	1.743634	6.761609	-0.040932	-0.863529	0.075861	0.027100	-0.113770	-0.708984	0.987469	0.096982	-0.111893	0.054576
44602		4.797748	1.397499	7.269525	-0.021187	-0.932987	0.082451	0.014404	-0.111572	-0.693604	0.986551	0.097177	-0.119636	0.054415
44603		4.999403	1.255509	7.642733	0.017921	-0.950717	0.113286	0.001465	-0.122314	-0.694336	0.985507	0.097664	-0.127528	0.054531
44604		4.958363	1.290049	7.779218	0.025346	-0.968537	0.171753	-0.012695	-0.121826	-0.686035	0.984347	0.098152	-0.135608	0.055119
44605		5.032117	1.447026	7.959619	0.039828	-1.010900	0.208487	-0.031738	-0.119385	-0.680176	0.983040	0.098730	-0.144052	0.055987
44606		5.162891	1.665357	8.134334	0.054048	-1.047031	0.220408	-0.042969	-0.125732	-0.676025	0.981595	0.099419	-0.152789	0.056938
44607		5.073463	1.796488	8.219761	0.046735	-1.099904	0.221940	-0.058105	-0.126709	-0.667969	0.980006	0.100063	-0.161953	0.057845
44608		5.157020	1.822150	8.501989	0.033214	-1.164942	0.207714	-0.083008	-0.125000	-0.660645	0.978256	0.100639	-0.171632	0.058558
44609		5.373978	1.714034	8.769849	0.035550	-1.198815	0.197103	-0.092773	-0.134277	-0.654053	0.976362	0.101255	-0.181562	0.059154
44610		5.575949	1.599289	8.976434	0.049930	-1.208769	0.200852	-0.103760	-0.130615	-0.643799	0.974337	0.101978	-0.191553	0.059793
44611		5.393595	1.497374	9.020404	0.034248	-1.238182	0.226063	-0.117676	-0.134521	-0.630371	0.972161	0.102536	-0.201793	0.060576
44612		5.330638	1.560907	9.393915	0.034914	-1.278302	0.250798	-0.131104	-0.137695	-0.631104	0.969792	0.103067	-0.212358	0.061522
44613		5.371416	1.657657	9.814202	0.046215	-1.275734	0.259785	-0.138428	-0.142090	-0.614014	0.967298	0.103660	-0.222880	0.062556
44614		5.407947	1.802057	9.919533	0.044826	-1.243786	0.241374	-0.158691	-0.132812	-0.608154	0.964763	0.104246	-0.233104	0.063458
44615		5.551083	1.654784	9.730349	0.008173	-1.204278	0.237722	-0.159424	-0.142334	-0.601074	0.962234	0.104511	-0.243002	0.064286
44616		5.542456	1.532579	9.409461	-0.003113	-1.181291	0.234070	-0.174316	-0.140625	-0.597168	0.959664	0.104670	-0.252692	0.065076
44617		5.647830	1.523716	9.212979	-0.006008	-1.192977	0.247804	-0.186035	-0.140625	-0.595215	0.956967	0.104772	-0.262464	0.065952
44618		5.853721	1.709061	9.233603	-0.003294	-1.185937	0.251033	-0.192627	-0.149170	-0.586670	0.954182	0.104874	-0.272154	0.066859
44619		5.966846	1.918572	9.191665	-0.016348	-1.173720	0.232909	-0.191406	-0.151367	-0.581787	0.951350	0.104895	-0.281710	0.067595
44620		6.196056	1.785280	9.009345	-0.048946	-1.171275	0.207888	-0.208740	-0.145020	-0.572021	0.948473	0.104705	-0.291214	0.068051
44621		6.540103	1.540675	8.816244	-0.042748	-1.169328	0.206412	-0.223877	-0.150635	-0.576660	0.945501	0.104555	-0.300670	0.068505
44622		6.636884	1.512249	8.724613	-0.043086	-1.172203	0.252581	-0.233643	-0.145752	-0.574951	0.942403	0.104279	-0.310158	0.069312
44623		6.413750	1.855917	8.785130	-0.016737	-1.191902	0.281683	-0.240479	-0.149902	-0.570801	0.939118	0.104134	-0.319779	0.070391
44624		6.221317	2.418602	9.130381	-0.008482	-1.216496	0.268488	-0.258545	-0.139404	-0.566406	0.935668	0.104093	-0.329541	0.071359
44625		6.438775	2.607000	9.429017	-0.022384	-1.178189	0.192608	-0.269775	-0.136719	-0.562744	0.932285	0.104118	-0.338911	0.071721
44626		6.528620	2.151592	9.218701	-0.056660	-1.107259	0.143911	-0.275146	-0.143066	-0.557373	0.929074	0.103963	-0.347674	0.071660
44627		6.613857	1.557943	8.806908	-0.034005	-1.065158	0.171810	-0.290527	-0.142334	-0.550781	0.925872	0.103870	-0.356090	0.071909
44628		6.694961	1.441976	8.620680	0.058815	-1.023690	0.254332	-0.302734	-0.139893	-0.555908	0.922591	0.104213	-0.364172	0.073100
44629		6.562825	1.782839	8.610968	0.153206	-0.996248	0.321986	-0.311768	-0.142090	-0.552246	0.919199	0.105052	-0.372014	0.075114
44630		6.545435	2.141845	8.832937	0.199537	-0.962281	0.335296	-0.326660	-0.143555	-0.551025	0.915795	0.106174	-0.379548	0.077396
44631		6.559893	2.316467	8.905112	0.185372	-0.904455	0.283690	-0.334229	-0.133301	-0.541504	0.912556	0.107306	-0.386575	0.079284
44632		6.629737	1.907385	8.635672	0.124225	-0.856465	0.237379	-0.346191	-0.132812	-0.539551	0.909505	0.108084	-0.393209	0.080657
44633		6.795991	1.569318	8.278579	0.095336	-0.813854	0.217483	-0.353760	-0.128906	-0.537109	0.906585	0.108673	-0.399498	0.081818
44634		6.839503	1.298588	7.827324	0.083349	-0.784385	0.230247	-0.362549	-0.125000	-0.537354	0.903724	0.109102	-0.405563	0.083056
44635		6.860454	1.313276	7.537388	0.083477	-0.777843	0.244152	-0.376221	-0.125244	-0.536377	0.900835	0.109474	-0.411569	0.084401
44636		7.086375	1.464735	7.403119	0.052101	-0.779229	0.243047	-0.382080	-0.123535	-0.530029	0.897928	0.109610	-0.417587	0.085625
44637		7.172852	1.475264	7.239000	0.007080	-0.777897	0.226213	-0.386719	-0.112793	-0.515381	0.895040	0.109461	-0.423590	0.086562
44638		7.122061	1.400396	7.063509	-0.022072	-0.781541	0.216454	-0.399170	-0.118408	-0.515381	0.892132	0.109120	-0.429615	0.087315
44639		7.069584	1.459444	7.015284	-0.044046	-0.790931	0.213153	-0.411621	-0.112793	-0.518311	0.889172	0.108636	-0.435701	0.087953
44640		7.045289	1.574879	7.006726	-0.058915	-0.793868	0.201578	-0.416992	-0.104980	-0.515137	0.886184	0.108075	-0.441787	0.088448
44641		6.804442	1.735528	7.094796	-0.079753	-0.797834	0.194409	-0.427734	-0.102783	-0.500732	0.883166	0.107376	-0.447885	0.088808
44642		6.595398	1.835197	7.383744	-0.083892	-0.792412	0.179105	-0.430664	-0.104980	-0.499756	0.880138	0.106700	-0.453921	0.089042
44643		6.498476	1.993750	7.699281	-0.065329	-0.755163	0.165756	-0.437256	-0.093750	-0.489258	0.877213	0.106181	-0.459624	0.089268
44644		6.314114	2.112642	7.915959	-0.054221	-0.691017	0.146581	-0.456299	-0.094238	-0.491943	0.874503	0.105754	-0.464819	0.089464
44645		5.982014	2.197080	7.997450	-0.048871	-0.620889	0.127533	-0.458008	-0.091064	-0.481445	0.872044	0.105391	-0.469471	0.089604
44646		5.678814	2.319908	8.184192	-0.046619	-0.573522	0.096176	-0.462402	-0.083496	-0.480957	0.869775	0.105131	-0.473729	0.089555
44647		5.633725	2.315988	8.489485	-0.035009	-0.494343	0.048995	-0.467529	-0.078857	-0.461426	0.867835	0.105077	-0.477338	0.089274
44648		5.642449	2.141516	8.552025	-0.025324	-0.386567	0.009185	-0.464355	-0.084717	-0.473389	0.866337	0.105176	-0.480115	0.088816
44649		5.637676	1.945290	8.326062	-0.011617	-0.272676	-0.006481	-0.477295	-0.083984	-0.473389	0.865297	0.105352	-0.482026	0.088387
44650		5.598241	1.783222	8.173588	0.006743	-0.192691	0.012446	-0.459717	-0.079102	-0.459717	0.864547	0.105523	-0.483360	0.088236
44651		5.594264	1.868878	8.182867	0.053353	-0.109470	0.024013	-0.478027	-0.076172	-0.471680	0.864086	0.105921	-0.484063	0.088427
44652		5.576088	2.078477	8.212462	0.078755	-0.013467	0.016069	-0.471680	-0.088135	-0.472168	0.863998	0.106462	-0.484043	0.088746
44653		5.690946	2.191633	8.134390	0.067433	0.083988	-0.027606	-0.480713	-0.086426	-0.468506	0.864349	0.107025	-0.483285	0.088781
44654		5.819028	1.995476	7.870809	0.052259	0.177719	-0.067931	-0.476074	-0.088867	-0.468506	0.865122	0.107570	-0.481822	0.088549
44655		6.012329	1.832587	7.559690	0.061885	0.237875	-0.087100	-0.466553	-0.083984	-0.473389	0.866141	0.108217	-0.479893	0.088267
44656		6.256025	1.852426	7.409309	0.074974	0.288038	-0.106882	-0.468262	-0.092773	-0.470459	0.867362	0.109000	-0.477565	0.087942
44657		6.532704	1.990871	7.216630	0.061077	0.334356	-0.127668	-0.458496	-0.086914	-0.471680	0.868789	0.109728	-0.474889	0.087441
44658		6.674997	2.030673	7.042304	0.022529	0.357663	-0.144752	-0.462646	-0.097412	-0.478027	0.870349	0.110228	-0.472045	0.086692
44659		6.798138	2.079388	6.909470	-0.001628	0.380622	-0.160857	-0.458252	-0.097168	-0.475342	0.872025	0.110597	-0.469031	0.085737
44660		6.864264	2.191337	6.856000	-0.015740	0.405539	-0.184225	-0.451416	-0.094971	-0.483643	0.873816	0.110936	-0.465816	0.084580
44661		6.888709	2.354152	6.809153	-0.027857	0.423741	-0.215174	-0.445557	-0.095947	-0.490479	0.875700	0.111295	-0.462434	0.083174
44662		6.860094	2.570586	6.833805	-0.048545	0.433519	-0.269380	-0.448242	-0.113525	-0.481445	0.877664	0.111703	-0.458933	0.081298
44663		6.782734	2.653093	6.862950	-0.090659	0.434403	-0.340687	-0.442383	-0.109863	-0.495850	0.879700	0.112068	-0.455386	0.078695
44664		6.857436	2.552985	7.042409	-0.132348	0.438834	-0.412170	-0.430420	-0.117188	-0.494629	0.881818	0.112398	-0.451744	0.075439
44665		7.179065	2.213948	7.141295	-0.139155	0.478124	-0.479709	-0.427246	-0.116943	-0.500000	0.884109	0.112901	-0.447737	0.071673
44666		7.395596	1.911201	6.988255	-0.123243	0.530424	-0.508457	-0.420898	-0.122070	-0.506348	0.886562	0.113595	-0.443289	0.067814
44667		7.586737	1.650713	6.755489	-0.121813	0.563670	-0.479504	-0.409668	-0.131836	-0.505127	0.889086	0.114168	-0.438600	0.064193
44668		7.735977	1.532081	6.563413	-0.102022	0.583423	-0.445751	-0.413086	-0.135986	-0.508789	0.891612	0.114743	-0.433770	0.060871
44669		7.898241	1.430587	6.489550	-0.083294	0.600422	-0.421730	-0.402344	-0.146240	-0.513428	0.894127	0.115363	-0.428819	0.057812
44670		7.970473	1.369374	6.353231	-0.061115	0.617334	-0.407497	-0.396484	-0.140137	-0.520508	0.896644	0.116080	-0.423722	0.054911
44671		8.126265	1.256226	6.259656	-0.047701	0.626083	-0.383348	-0.387939	-0.150391	-0.524170	0.899128	0.116808	-0.418557	0.052303
44672		8.335812	1.198357	6.127939	-0.024526	0.637762	-0.350300	-0.370850	-0.145752	-0.524902	0.901582	0.117582	-0.413310	0.049991
44673		8.342938	1.110203	5.969062	-0.011250	0.640425	-0.293646	-0.374512	-0.155762	-0.529785	0.903977	0.118251	-0.408069	0.048182
44674		8.408536	1.066454	5.835537	0.014117	0.635132	-0.238386	-0.362061	-0.163086	-0.532227	0.906267	0.118931	-0.402914	0.046855
44675		8.353202	1.095327	5.749150	0.041551	0.621840	-0.184985	-0.354492	-0.154297	-0.538818	0.908437	0.119638	-0.397885	0.046000
44676		8.297907	1.132440	5.718598	0.071853	0.607222	-0.133824	-0.347656	-0.166260	-0.534424	0.910478	0.120408	-0.392994	0.045688
44677		8.221473	1.226546	5.730918	0.100598	0.588852	-0.095568	-0.345459	-0.163086	-0.536865	0.912386	0.121280	-0.388269	0.045725
44678		8.039061	1.390047	5.784507	0.119448	0.566684	-0.069216	-0.333740	-0.173584	-0.550781	0.914166	0.122217	-0.383725	0.046032
44679		8.040184	1.513446	5.915869	0.121358	0.545268	-0.063164	-0.328613	-0.171875	-0.532471	0.915853	0.123151	-0.379338	0.046360
44680		8.171083	1.606180	5.874492	0.111349	0.543415	-0.075842	-0.315918	-0.171387	-0.537109	0.917525	0.124051	-0.374954	0.046571
44681		8.141800	1.506665	5.600940	0.086345	0.532757	-0.076877	-0.313721	-0.179688	-0.551270	0.919169	0.124763	-0.370654	0.046684
44682		8.041659	1.407556	5.407402	0.051909	0.480957	-0.053622	-0.305664	-0.171631	-0.546875	0.920660	0.125157	-0.366783	0.046816
44683		8.078903	1.397625	5.427467	0.053512	0.417466	-0.032141	-0.299561	-0.177246	-0.542725	0.921931	0.125522	-0.363420	0.047053
44684		8.103406	1.478867	5.471698	0.061526	0.372905	-0.023272	-0.296387	-0.174561	-0.552979	0.923043	0.125938	-0.360404	0.047339
44685		8.079648	1.495704	5.384056	0.061668	0.332710	-0.013759	-0.287598	-0.184082	-0.556152	0.924020	0.126341	-0.357707	0.047656
44686		7.974983	1.534057	5.362475	0.049863	0.279094	0.000072	-0.291992	-0.171875	-0.566162	0.924836	0.126634	-0.355443	0.047991
44687		7.856934	1.616964	5.514382	0.032062	0.220166	0.019260	-0.286865	-0.184814	-0.559814	0.925482	0.126755	-0.353662	0.048361
44688		7.840088	1.680663	5.595736	0.032178	0.188307	0.018805	-0.293701	-0.177490	-0.558105	0.926030	0.126893	-0.352129	0.048696
44689		7.663974	1.772072	5.648140	0.021369	0.152104	0.021889	-0.286377	-0.185059	-0.550293	0.926479	0.126952	-0.350885	0.048987
44690		7.504442	1.836194	5.754985	0.009315	0.101879	0.021740	-0.280762	-0.181641	-0.550293	0.926791	0.126940	-0.350036	0.049190
44691		7.469989	1.907958	5.905459	-0.003524	0.059648	0.019550	-0.281982	-0.180908	-0.552490	0.926993	0.126852	-0.349518	0.049295
44692		7.370571	1.932908	6.017639	-0.006748	0.038322	0.014227	-0.283447	-0.187744	-0.551514	0.927137	0.126765	-0.349164	0.049328
44693		7.268425	1.954651	6.052921	-0.017412	0.019001	0.021717	-0.274414	-0.180908	-0.559570	0.927231	0.126582	-0.348973	0.049369
44694		6.992689	1.984975	6.150458	-0.022482	-0.018565	0.029626	-0.284912	-0.181641	-0.558350	0.927218	0.126352	-0.349084	0.049417
44695		6.747005	2.076393	6.378047	-0.015030	-0.063389	0.027034	-0.276367	-0.186035	-0.561523	0.927067	0.126206	-0.349538	0.049421
44696		6.694316	2.199388	6.706854	-0.012323	-0.090865	0.002633	-0.284912	-0.183350	-0.547363	0.926842	0.126164	-0.350178	0.049216
44697		6.641698	2.169357	6.890038	-0.035162	-0.086726	-0.021530	-0.287598	-0.186279	-0.558838	0.926662	0.126015	-0.350771	0.048762
44698		6.465425	1.998280	7.000691	-0.069776	-0.087736	-0.032618	-0.282471	-0.181885	-0.552002	0.926519	0.125631	-0.351374	0.048120
44699		6.411846	1.738187	7.157558	-0.051212	-0.091168	-0.021595	-0.287354	-0.182617	-0.563232	0.926341	0.125360	-0.352008	0.047614
44700		6.465375	1.632273	7.426531	-0.016040	-0.065660	0.012606	-0.288086	-0.177002	-0.552490	0.926188	0.125248	-0.352466	0.047502
44701		6.464949	1.677915	7.501228	0.023047	-0.026942	0.054173	-0.293945	-0.187012	-0.559082	0.926091	0.125301	-0.352654	0.047867
44702		6.286938	1.845872	7.464144	0.032062	0.007261	0.087955	-0.291260	-0.180176	-0.553223	0.926071	0.125310	-0.352608	0.048556
44703		6.136936	1.946653	7.471957	0.035486	0.015142	0.099727	-0.295654	-0.178955	-0.548584	0.926066	0.125306	-0.352512	0.049352
44704		6.184310	2.070521	7.494391	0.039221	0.024150	0.093283	-0.292480	-0.174316	-0.553711	0.926085	0.125347	-0.352338	0.050121
44705		6.136371	2.153873	7.459445	0.028368	0.034318	0.082730	-0.287354	-0.180664	-0.553955	0.926151	0.125329	-0.352077	0.050783
44706		6.008123	2.161724	7.459108	0.010672	0.032281	0.075715	-0.289062	-0.179443	-0.557373	0.926232	0.125197	-0.351831	0.051338
44707		5.992544	2.207935	7.576777	-0.003727	0.031203	0.059050	-0.285400	-0.182617	-0.562012	0.926331	0.125003	-0.351582	0.051720
44708		6.067102	2.161018	7.674866	-0.010231	0.048826	0.043325	-0.288086	-0.171631	-0.553711	0.926496	0.124797	-0.351182	0.051979
44709		6.072240	2.138305	7.568749	-0.020332	0.068726	0.035000	-0.282471	-0.182373	-0.556641	0.926733	0.124527	-0.350624	0.052166
44710		5.992668	2.101418	7.478911	-0.026172	0.076514	0.036574	-0.288330	-0.175781	-0.557617	0.926998	0.124207	-0.350008	0.052356
44711		6.036714	2.060989	7.415913	-0.018729	0.079505	0.040489	-0.281250	-0.179199	-0.551270	0.927262	0.123930	-0.349370	0.052600
44712		6.026914	2.133359	7.416656	-0.018543	0.080722	0.035073	-0.278564	-0.178711	-0.559082	0.927532	0.123671	-0.348715	0.052805
44713		5.919223	2.229002	7.394113	-0.035150	0.073010	0.026355	-0.279541	-0.172363	-0.561279	0.927800	0.123311	-0.348117	0.052882
44714		5.939974	2.202043	7.490353	-0.036646	0.065718	0.008037	-0.283203	-0.172363	-0.566650	0.928056	0.122993	-0.347557	0.052805
44715		5.909521	2.129221	7.611279	-0.034473	0.076844	-0.007605	-0.277344	-0.177734	-0.561768	0.928349	0.122734	-0.346894	0.052625
44716		5.832211	2.097424	7.596574	-0.039180	0.087705	-0.008683	-0.275391	-0.178467	-0.559082	0.928678	0.122441	-0.346145	0.052437
44717		5.756581	2.095160	7.691076	-0.045575	0.093550	-0.015540	-0.270752	-0.172852	-0.553955	0.929032	0.122115	-0.345346	0.052183
44718		5.695979	2.143075	7.859067	-0.062428	0.101680	-0.025346	-0.272217	-0.176758	-0.563232	0.929432	0.121680	-0.344480	0.051809
44719		5.771089	2.033923	8.024702	-0.060190	0.118877	-0.039005	-0.276611	-0.174316	-0.558838	0.929883	0.121295	-0.343464	0.051354
44720		5.786959	2.018971	7.974727	-0.053845	0.151260	-0.040539	-0.270264	-0.172119	-0.559326	0.930419	0.120950	-0.342193	0.050940
44721		5.691417	2.065855	7.939756	-0.066833	0.164360	-0.034105	-0.274414	-0.175293	-0.559082	0.931003	0.120477	-0.340829	0.050547
44722		5.608104	2.093855	8.009185	-0.072820	0.175281	-0.037030	-0.261719	-0.171387	-0.563721	0.931621	0.119965	-0.339379	0.050130
44723		5.593803	2.193874	8.169849	-0.075999	0.186194	-0.045668	-0.266602	-0.168213	-0.562744	0.932277	0.119442	-0.337832	0.049636
44724		5.529963	2.121570	8.262546	-0.067951	0.209552	-0.068709	-0.265625	-0.166748	-0.554932	0.932995	0.119038	-0.336077	0.049014
44725		5.447777	2.063017	8.339404	-0.072099	0.222333	-0.087301	-0.258545	-0.172852	-0.562012	0.933757	0.118650	-0.334204	0.048253
44726		5.294550	2.039504	8.502013	-0.091230	0.230698	-0.084436	-0.259033	-0.166748	-0.563721	0.934557	0.118102	-0.332270	0.047464
44727		5.211433	2.134351	8.661696	-0.103348	0.257542	-0.090097	-0.255859	-0.165527	-0.560547	0.935440	0.117460	-0.330124	0.046620
44728		4.984052	2.191242	8.816107	-0.114346	0.282641	-0.102356	-0.255615	-0.166992	-0.564941	0.936402	0.116756	-0.327771	0.045676
44729		4.954532	2.104073	8.986245	-0.103466	0.318135	-0.125760	-0.251953	-0.173828	-0.564453	0.937451	0.116188	-0.325109	0.044614
44730		4.853703	2.024711	9.078825	-0.095130	0.350130	-0.136301	-0.250000	-0.166260	-0.564209	0.938573	0.115705	-0.322176	0.043528
44731		4.819249	1.910197	9.239230	-0.112379	0.392236	-0.122473	-0.245605	-0.169922	-0.568359	0.939810	0.115026	-0.318930	0.042535
44732		4.758792	1.832006	9.345162	-0.092396	0.442888	-0.086747	-0.236816	-0.162598	-0.568359	0.941138	0.114391	-0.315305	0.041923
44733		4.691803	1.954940	9.378310	-0.049843	0.504422	-0.065156	-0.245361	-0.171631	-0.567383	0.942564	0.114002	-0.311195	0.041640
44734		4.608126	2.126625	9.439718	-0.028416	0.546757	-0.046760	-0.232910	-0.164307	-0.567871	0.944052	0.113729	-0.306757	0.041619
44735		4.652483	2.259760	9.504167	-0.019908	0.592438	-0.039595	-0.226807	-0.163086	-0.575684	0.945627	0.113476	-0.301952	0.041698
44736		4.551118	2.424666	9.508130	-0.025315	0.629893	-0.032110	-0.214111	-0.160400	-0.570068	0.947274	0.113144	-0.296849	0.041852
44737		4.483669	2.475858	9.553117	-0.024906	0.655085	-0.038701	-0.210693	-0.165771	-0.574951	0.948957	0.112821	-0.291529	0.041976
44738		4.494189	2.457758	9.727992	0.001044	0.683328	-0.058479	-0.207031	-0.157959	-0.573486	0.950661	0.112743	-0.285947	0.042039
44739		4.571903	2.203891	9.880472	0.044677	0.737584	-0.070761	-0.194824	-0.154053	-0.574219	0.952423	0.113012	-0.279898	0.042152
44740		4.504287	1.929423	9.869672	0.088632	0.792963	-0.054305	-0.195068	-0.166016	-0.584961	0.954227	0.113568	-0.273394	0.042542
44741		4.585506	1.778620	9.971530	0.119771	0.836186	-0.016217	-0.197266	-0.160889	-0.586426	0.956039	0.114269	-0.266556	0.043359
44742		4.678615	2.033835	9.898764	0.121054	0.897489	0.017239	-0.179199	-0.160156	-0.580811	0.957922	0.114875	-0.259248	0.044495
44743		4.583042	2.357915	9.555296	0.090316	0.930999	0.002373	-0.173096	-0.162842	-0.599609	0.959855	0.115248	-0.251650	0.045471
44744		4.478006	2.643114	9.337960	0.030254	0.908039	-0.049525	-0.164307	-0.159180	-0.596191	0.961760	0.115250	-0.244192	0.045876
44745		4.518810	2.720868	9.350432	-0.052180	0.870416	-0.115981	-0.151855	-0.156006	-0.602051	0.963638	0.114734	-0.236991	0.045539
44746		4.619262	2.343858	9.250357	-0.084132	0.869649	-0.179047	-0.143066	-0.152588	-0.608398	0.965515	0.114078	-0.229732	0.044617
44747		4.637396	2.064373	9.225952	-0.065777	0.879147	-0.202404	-0.147705	-0.159424	-0.607910	0.967345	0.113600	-0.222356	0.043537
44748		4.714817	1.984192	9.158953	-0.068676	0.889366	-0.184712	-0.134521	-0.158691	-0.625732	0.969128	0.113075	-0.214908	0.042655
44749		4.746395	2.002110	9.050776	-0.071022	0.896344	-0.175707	-0.123291	-0.151855	-0.633057	0.970867	0.112494	-0.207397	0.041810
44750		4.805664	1.969033	8.839787	-0.066024	0.900827	-0.177742	-0.119629	-0.148682	-0.625244	0.972554	0.111934	-0.199837	0.040916
44751		4.679942	1.975280	8.642980	-0.068594	0.883079	-0.169748	-0.105713	-0.147461	-0.633789	0.974150	0.111347	-0.192425	0.040088
44752		4.753169	1.774286	8.561370	-0.055598	0.869230	-0.158691	-0.098389	-0.145752	-0.638672	0.975653	0.110844	-0.185116	0.039337
44753		4.894891	1.739194	8.441126	-0.021976	0.875380	-0.141426	-0.079346	-0.150879	-0.643799	0.977072	0.110581	-0.177755	0.038789
44754		4.826171	1.843159	8.145982	-0.032087	0.863907	-0.114717	-0.069092	-0.143066	-0.647217	0.978421	0.110206	-0.170495	0.038454
44755		4.826474	1.936555	7.800679	-0.052827	0.827173	-0.104297	-0.068359	-0.140625	-0.660889	0.979682	0.109643	-0.163550	0.038109
44756		4.809555	2.019696	7.555175	-0.053754	0.778864	-0.106567	-0.053467	-0.139648	-0.663330	0.980830	0.109094	-0.156997	0.037728
44757		4.674370	2.160089	7.329306	-0.068833	0.719750	-0.126519	-0.043701	-0.140625	-0.673096	0.981877	0.108472	-0.150906	0.037135
44758		4.591738	2.137795	7.207141	-0.104124	0.644483	-0.149671	-0.041748	-0.138916	-0.672119	0.982832	0.107611	-0.145419	0.036246
44759		4.634673	2.046019	7.151155	-0.120266	0.580175	-0.175389	-0.031006	-0.136230	-0.682861	0.983701	0.106668	-0.140440	0.035071
44760		4.661591	1.866311	7.063052	-0.127981	0.526418	-0.169111	-0.025391	-0.120605	-0.692139	0.984487	0.105667	-0.135910	0.033892
44761		4.712952	1.737606	6.861495	-0.098095	0.487451	-0.154311	-0.015869	-0.127197	-0.688965	0.985176	0.104905	-0.131704	0.032835
44762		4.606884	1.734267	6.651868	-0.076393	0.430754	-0.136323	-0.002197	-0.127197	-0.689209	0.985760	0.104315	-0.127975	0.031903
44763		4.659065	1.798744	6.472309	-0.077624	0.364201	-0.124507	-0.003662	-0.124756	-0.693359	0.986258	0.103720	-0.124806	0.031010
44764		4.661881	1.757854	6.230518	-0.076063	0.293103	-0.122129	0.006104	-0.131104	-0.694092	0.986669	0.103153	-0.122226	0.030080
44765		4.807986	1.736511	6.109321	-0.080897	0.204318	-0.122210	0.003662	-0.122314	-0.697998	0.986987	0.102569	-0.120381	0.029071
44766		5.014834	1.476366	5.983944	-0.070980	0.129716	-0.122954	0.008301	-0.125000	-0.701660	0.987217	0.102086	-0.119150	0.028004
44767		5.038532	1.294695	5.879904	-0.068600	0.043898	-0.086044	0.006592	-0.120850	-0.697266	0.987349	0.101606	-0.118661	0.027173
44768		4.983567	1.174990	5.863678	-0.045706	-0.048134	-0.032289	0.007812	-0.116943	-0.697021	0.987356	0.101283	-0.118974	0.026733
44769		4.947805	1.225785	6.011271	0.003733	-0.130997	0.004553	0.007568	-0.119141	-0.702148	0.987230	0.101348	-0.119993	0.026579
44770		4.947235	1.417195	6.260984	0.016370	-0.202374	0.030328	-0.002197	-0.122314	-0.696045	0.987014	0.101506	-0.121624	0.026591
44771		4.977816	1.386230	6.345617	-0.001781	-0.256450	0.058079	-0.000977	-0.114014	-0.696045	0.986748	0.101500	-0.123731	0.026771
44772		4.864978	1.386593	6.406137	0.009798	-0.317413	0.078517	-0.010254	-0.122070	-0.684082	0.986398	0.101580	-0.126357	0.027083
44773		4.766509	1.630452	6.596422	0.012042	-0.390389	0.105023	-0.014160	-0.127686	-0.695068	0.985954	0.101667	-0.129609	0.027555
44774		4.783686	1.893593	6.756084	0.001314	-0.453988	0.104220	-0.021729	-0.114990	-0.688477	0.985438	0.101681	-0.133387	0.027957
44775		4.717476	2.099801	6.843409	-0.014333	-0.513697	0.090405	-0.028076	-0.121094	-0.686768	0.984854	0.101594	-0.137649	0.028180
44776		4.727467	2.164168	6.862410	-0.020635	-0.580803	0.056130	-0.041748	-0.126221	-0.674072	0.984185	0.101510	-0.142435	0.028058
44777		4.885966	2.082878	6.922132	-0.022309	-0.652191	0.024624	-0.060059	-0.118652	-0.679688	0.983414	0.101464	-0.147780	0.027617
44778		4.964279	1.933082	6.949933	-0.033906	-0.720107	0.017423	-0.056152	-0.121338	-0.677002	0.982538	0.101346	-0.153676	0.027046
44779		5.002324	1.816546	7.167489	-0.043069	-0.796431	0.017866	-0.069824	-0.122314	-0.668213	0.981532	0.101166	-0.160197	0.026403
44780		5.001140	1.686360	7.437219	-0.044017	-0.859951	0.009457	-0.087646	-0.126709	-0.662109	0.980396	0.101000	-0.167226	0.025637
44781		5.097058	1.472724	7.721952	-0.029414	-0.906782	0.006534	-0.093506	-0.116211	-0.656250	0.979130	0.100962	-0.174626	0.024829
44782		5.294347	1.305616	7.997775	-0.013342	-0.932663	0.026578	-0.104248	-0.124268	-0.649414	0.977751	0.101026	-0.182243	0.024184
44783		5.591921	1.254398	8.122165	0.001180	-0.937137	0.063018	-0.108643	-0.134277	-0.645752	0.976285	0.101148	-0.189915	0.023858
44784		5.676296	1.409298	8.024843	-0.003890	-0.944438	0.115211	-0.130127	-0.133545	-0.633057	0.974740	0.101142	-0.197682	0.023947
44785		5.508919	1.756308	7.963407	-0.032037	-0.992828	0.145444	-0.135254	-0.133301	-0.634277	0.973068	0.100860	-0.205864	0.024190
44786		5.332691	2.088026	8.247775	-0.055392	-1.064858	0.126702	-0.155273	-0.131104	-0.614258	0.971223	0.100428	-0.214605	0.024179
44787		5.354591	2.248297	8.691736	-0.061327	-1.105768	0.064751	-0.154541	-0.135010	-0.619141	0.969241	0.100059	-0.223610	0.023620
44788		5.547069	2.093804	8.924568	-0.088653	-1.113116	0.017368	-0.160889	-0.136719	-0.607666	0.967194	0.099552	-0.232622	0.022620
44789		5.748655	1.562972	8.800497	-0.107441	-1.098212	0.020698	-0.180908	-0.134521	-0.596680	0.965108	0.098877	-0.241501	0.021621
44790		5.665585	1.277400	8.751194	-0.083380	-1.105034	0.075343	-0.180664	-0.131348	-0.589844	0.962896	0.098278	-0.250456	0.021102
44791		5.518223	1.447498	8.991957	-0.022445	-1.121771	0.108073	-0.194824	-0.138672	-0.586914	0.960509	0.098094	-0.259540	0.020957
44792		5.563446	1.715870	9.411357	0.009240	-1.114742	0.118689	-0.200928	-0.139404	-0.584229	0.958025	0.098130	-0.268548	0.020970
44793		5.720642	1.745073	9.609733	0.005041	-1.043516	0.110208	-0.213135	-0.137695	-0.580322	0.955628	0.098131	-0.276959	0.020962
44794		5.932869	1.368968	9.367647	0.008798	-0.953043	0.122996	-0.221191	-0.138916	-0.574951	0.953367	0.098110	-0.284638	0.021136
44795		5.949754	1.041111	8.859543	0.048708	-0.895380	0.179536	-0.235107	-0.134277	-0.569824	0.951142	0.098255	-0.291881	0.021900
44796		5.875110	1.195361	8.570795	0.104162	-0.900624	0.262555	-0.237305	-0.132080	-0.567139	0.948787	0.098632	-0.299206	0.023451
44797		6.041532	1.708299	8.653957	0.139561	-0.913148	0.303125	-0.248047	-0.139648	-0.571777	0.946304	0.099183	-0.306636	0.025399
44798		6.146535	1.969371	8.695488	0.133630	-0.888556	0.292882	-0.248291	-0.141846	-0.566162	0.943831	0.099702	-0.313846	0.027271
44799		6.120661	1.805971	8.500038	0.109148	-0.870594	0.277270	-0.258057	-0.141846	-0.568359	0.941372	0.100059	-0.320886	0.028967
44800		6.121940	1.553061	8.432506	0.122585	-0.870496	0.301251	-0.269775	-0.141357	-0.562256	0.938841	0.100451	-0.327923	0.030885
44801		6.070416	1.666847	8.573378	0.160349	-0.868270	0.340306	-0.269775	-0.145508	-0.556396	0.936217	0.101025	-0.334945	0.033212
44802		6.068412	1.886919	8.821004	0.203592	-0.833298	0.365939	-0.284180	-0.134033	-0.559326	0.933591	0.101848	-0.341682	0.035886
44803		6.188320	2.075253	8.891873	0.227646	-0.766627	0.360058	-0.290771	-0.148193	-0.554688	0.931084	0.102848	-0.347867	0.038634
44804		6.325729	1.961091	8.542384	0.226329	-0.703295	0.347659	-0.293213	-0.154297	-0.556641	0.928721	0.103851	-0.353531	0.041336
44805		6.495247	1.715887	8.117039	0.218193	-0.661662	0.353650	-0.313965	-0.143311	-0.553711	0.926445	0.104753	-0.358864	0.044093
44806		6.574648	1.607463	7.720019	0.221815	-0.648488	0.392977	-0.310303	-0.144043	-0.549561	0.924151	0.105553	-0.364113	0.047170
44807		6.572270	1.802777	7.592485	0.245720	-0.662312	0.418751	-0.317627	-0.138916	-0.541016	0.921745	0.106460	-0.369463	0.050503
44808		6.602939	2.129991	7.693114	0.242641	-0.684045	0.404372	-0.313965	-0.143066	-0.546631	0.919237	0.107391	-0.374951	0.053694
44809		6.717795	2.310549	7.729249	0.190607	-0.681263	0.347177	-0.335205	-0.138428	-0.542725	0.916770	0.108097	-0.380369	0.056282
44810		6.783820	2.082214	7.599858	0.128439	-0.675930	0.284689	-0.333008	-0.147217	-0.546143	0.914367	0.108519	-0.385707	0.058199
44811		6.982949	1.570661	7.440822	0.108607	-0.674572	0.258405	-0.343018	-0.137207	-0.545166	0.911967	0.108873	-0.391000	0.059851
44812		7.218900	1.465619	7.370163	0.112535	-0.667469	0.257512	-0.348877	-0.140137	-0.547119	0.909554	0.109245	-0.396224	0.061506
44813		7.296946	1.588401	7.279480	0.063588	-0.664211	0.278482	-0.365234	-0.136230	-0.539062	0.907155	0.109173	-0.401451	0.063161
44814		7.402256	1.603922	7.158549	0.014813	-0.660979	0.281589	-0.370117	-0.136719	-0.529541	0.904774	0.108717	-0.406671	0.064681
44815		7.619122	1.681216	6.967868	0.010960	-0.642273	0.274880	-0.383301	-0.123535	-0.525879	0.902432	0.108245	-0.411732	0.066154
44816		7.600068	1.896666	6.689119	0.003994	-0.632097	0.271339	-0.374023	-0.130859	-0.530518	0.900104	0.107711	-0.416707	0.067576
44817		7.622241	2.139126	6.369618	-0.014869	-0.641160	0.256507	-0.389893	-0.121094	-0.526367	0.897747	0.107093	-0.421719	0.068804
44818		7.532491	2.362013	6.112992	-0.042107	-0.675272	0.211753	-0.398682	-0.123047	-0.515137	0.895287	0.106439	-0.426956	0.069571
44819		7.347684	2.586878	5.984915	-0.090011	-0.743851	0.148054	-0.412598	-0.108643	-0.511963	0.892625	0.105702	-0.432665	0.069638
44820		7.068077	2.499916	6.255186	-0.135872	-0.832233	0.066356	-0.417236	-0.109375	-0.510010	0.889690	0.104948	-0.438973	0.068851
44821		6.985140	2.307454	6.877849	-0.148302	-0.880738	-0.004286	-0.415283	-0.103760	-0.500732	0.886586	0.104387	-0.445555	0.067444
44822		6.813524	1.893210	7.493157	-0.137294	-0.850853	-0.039921	-0.432617	-0.100342	-0.495361	0.883562	0.104010	-0.451848	0.065830
44823		6.713363	1.500186	7.868345	-0.096907	-0.773132	-0.030075	-0.442139	-0.097412	-0.486816	0.880743	0.103850	-0.457542	0.064521
44824		6.636246	1.157934	8.015781	-0.049847	-0.670993	0.021192	-0.448975	-0.097412	-0.481201	0.878211	0.103784	-0.462490	0.063861
44825		6.532455	0.979806	7.959539	0.020424	-0.561961	0.090477	-0.459473	-0.098145	-0.478760	0.875980	0.103910	-0.466644	0.064067
44826		6.487990	1.025450	7.881713	0.074916	-0.460281	0.164808	-0.463623	-0.090332	-0.477051	0.874044	0.104093	-0.470078	0.065109
44827		6.337396	1.254840	7.733477	0.115725	-0.376986	0.218422	-0.467285	-0.096680	-0.470459	0.872363	0.104312	-0.472910	0.066768
44828		6.341277	1.595006	7.710906	0.128141	-0.301712	0.237662	-0.469238	-0.089844	-0.471191	0.870951	0.104506	-0.475193	0.068660
44829		6.417424	1.833266	7.582909	0.129016	-0.225648	0.222080	-0.476562	-0.093994	-0.468750	0.869845	0.104721	-0.476898	0.070510
44830		6.465709	1.859679	7.277043	0.117078	-0.157013	0.182007	-0.473633	-0.094727	-0.476074	0.869042	0.104967	-0.478073	0.072071
44831		6.510774	1.777445	6.986709	0.096211	-0.114353	0.153269	-0.474121	-0.097168	-0.471680	0.868445	0.105150	-0.478919	0.073377
44832		6.551875	1.766954	6.856398	0.076486	-0.095940	0.135401	-0.473633	-0.090820	-0.474121	0.867949	0.105248	-0.479625	0.074486
44833		6.473095	1.795888	6.934451	0.062261	-0.080322	0.114125	-0.481445	-0.090088	-0.460205	0.867540	0.105320	-0.480204	0.075402
44834		6.366805	1.940596	7.205993	0.046175	-0.056032	0.080343	-0.476807	-0.091797	-0.470215	0.867265	0.105394	-0.480588	0.076024
44835		6.341628	2.063847	7.397928	0.016044	-0.005051	0.045078	-0.474121	-0.085449	-0.473633	0.867245	0.105358	-0.480584	0.076313
44836		6.280879	2.101685	7.480882	-0.009259	0.060985	-0.000458	-0.476074	-0.090332	-0.471436	0.867543	0.105280	-0.480076	0.076232
44837		6.276237	2.068428	7.457340	-0.016453	0.124892	-0.046489	-0.477295	-0.094238	-0.468262	0.868134	0.105291	-0.479068	0.075835
44838		6.300154	2.046661	7.466498	-0.026882	0.182550	-0.086210	-0.467285	-0.086426	-0.468506	0.868989	0.105347	-0.477611	0.075153
44839		6.492999	2.010230	7.414916	-0.047851	0.247033	-0.120872	-0.470215	-0.094727	-0.469482	0.870138	0.105351	-0.475662	0.074201
44840		6.617446	1.956181	7.186620	-0.066325	0.315218	-0.148344	-0.465332	-0.094727	-0.473389	0.871587	0.105283	-0.473201	0.073021
44841		6.684738	1.887719	6.899305	-0.073144	0.356799	-0.165017	-0.472656	-0.096436	-0.474609	0.873208	0.105206	-0.470419	0.071730
44842		6.849516	1.838830	6.740988	-0.059424	0.386020	-0.179369	-0.459229	-0.098633	-0.483398	0.874929	0.105265	-0.467398	0.070411
44843		6.979851	1.850302	6.663173	-0.047008	0.414897	-0.196052	-0.449951	-0.105225	-0.481445	0.876752	0.105462	-0.464130	0.069041
44844		7.177146	1.835417	6.703934	-0.057597	0.443253	-0.209058	-0.449219	-0.104736	-0.482178	0.878689	0.105609	-0.460641	0.067542
44845		7.235161	1.814236	6.590106	-0.067312	0.470223	-0.197641	-0.438721	-0.105957	-0.485596	0.880714	0.105626	-0.456963	0.066117
44846		7.333233	1.785194	6.515891	-0.036916	0.496786	-0.211789	-0.431396	-0.108398	-0.499268	0.882805	0.105902	-0.453047	0.064724
44847		7.354024	1.958704	6.472852	-0.035998	0.510180	-0.231142	-0.434570	-0.113281	-0.497314	0.884940	0.106249	-0.448997	0.063202
44848		7.448070	1.896887	6.451542	-0.063076	0.519509	-0.255637	-0.427002	-0.116699	-0.501709	0.887122	0.106479	-0.444869	0.061389
44849		7.676156	1.744557	6.374434	-0.065779	0.530325	-0.279063	-0.417480	-0.114502	-0.500000	0.889338	0.106765	-0.440627	0.059391
44850		7.853750	1.636698	6.264550	-0.057642	0.555194	-0.283093	-0.415771	-0.122070	-0.508789	0.891613	0.107115	-0.436181	0.057427
44851		8.036006	1.428791	6.102669	-0.043388	0.562754	-0.274320	-0.405518	-0.126953	-0.509521	0.893876	0.107528	-0.431668	0.055558
44852		8.158854	1.369445	5.979632	-0.026454	0.565890	-0.249444	-0.401123	-0.130615	-0.518066	0.896099	0.107967	-0.427134	0.053912
