// Start Time: Unknown
// Update Rate: 60.0Hz
// Filter Profile: human (46.1)
// Firmware Version: 4.6.0
PacketCounter	SampleTimeFine	Acc_X	Acc_Y	Acc_Z	Gyr_X	Gyr_Y	Gyr_Z	Mag_X	Mag_Y	Mag_Z	Quat_q0	Quat_q1	Quat_q2	Quat_q3
41360		6.110305	-1.687259	7.462214	-0.028110	-0.006233	0.023023	-0.129639	0.425049	-0.607178	0.863110	-0.214924	-0.269636	-0.368979
41361		6.125445	-1.718935	7.474006	-0.028020	-0.004871	0.021086	-0.131104	0.419434	-0.612061	0.863114	-0.215188	-0.269547	-0.368882
41362		6.097184	-1.756958	7.456557	-0.022024	-0.003869	0.018084	-0.136719	0.424316	-0.606934	0.863122	-0.215390	-0.269479	-0.368793
41363		6.111520	-1.743443	7.474044	-0.017067	-0.003426	0.015695	-0.129150	0.424561	-0.600586	0.863132	-0.215559	-0.269423	-0.368712
41364		6.114689	-1.767759	7.444379	-0.014410	-0.002592	0.010370	-0.135498	0.429199	-0.606201	0.863132	-0.215695	-0.269377	-0.368665
41365		6.118237	-1.742658	7.461357	-0.007463	-0.002398	0.008689	-0.133789	0.424316	-0.603027	0.863141	-0.215780	-0.269354	-0.368613
41366		6.111062	-1.753261	7.451705	-0.006666	-0.002076	0.009025	-0.115967	0.412354	-0.603516	0.863152	-0.215860	-0.269330	-0.368557
41367		6.117713	-1.748466	7.440008	-0.007127	-0.000805	0.005810	-0.137207	0.424805	-0.601318	0.863156	-0.215934	-0.269300	-0.368527
41368		6.089684	-1.734302	7.469934	-0.005533	-0.000161	0.006483	-0.131104	0.428955	-0.606689	0.863165	-0.215999	-0.269270	-0.368489
41369		6.103540	-1.766234	7.441769	-0.003054	0.000059	0.005291	-0.121582	0.422852	-0.603516	0.863177	-0.216044	-0.269245	-0.368453
41370		6.099639	-1.748387	7.450130	-0.000419	0.001258	0.005351	-0.134277	0.424072	-0.599609	0.863197	-0.216070	-0.269218	-0.368412
41371		6.106606	-1.740241	7.459385	-0.001064	-0.000189	0.005995	-0.131104	0.417969	-0.605225	0.863214	-0.216109	-0.269197	-0.368364
41372		6.117393	-1.750998	7.460097	-0.003944	-0.001621	0.006882	-0.135254	0.419434	-0.603271	0.863226	-0.216176	-0.269174	-0.368313
41373		6.096223	-1.776123	7.452802	-0.001552	-0.000657	0.007892	-0.132568	0.416260	-0.609375	0.863247	-0.216229	-0.269150	-0.368250
41374		6.103246	-1.768021	7.462002	0.000222	0.000600	0.004434	-0.135010	0.420410	-0.601562	0.863265	-0.216260	-0.269124	-0.368208
41375		6.098931	-1.752096	7.449838	0.001106	0.000176	0.002570	-0.131348	0.417480	-0.597168	0.863278	-0.216287	-0.269106	-0.368175
41376		6.092054	-1.758639	7.461301	-0.000239	0.001871	0.001221	-0.135986	0.423340	-0.606934	0.863289	-0.216316	-0.269073	-0.368157
41377		6.107056	-1.784639	7.474415	0.002538	-0.002266	0.001717	-0.135498	0.419922	-0.608154	0.863297	-0.216345	-0.269073	-0.368121
41378		6.092161	-1.758336	7.461286	0.004225	-0.000264	0.000461	-0.128906	0.419922	-0.603271	0.863310	-0.216354	-0.269063	-0.368093
41379		6.106188	-1.742597	7.459177	0.005017	-0.002047	0.000525	-0.127441	0.429199	-0.606934	0.863322	-0.216361	-0.269064	-0.368059
41380		6.092043	-1.759683	7.440646	0.004220	-0.002369	0.000189	-0.128906	0.423828	-0.599121	0.863332	-0.216384	-0.269056	-0.368028
41381		6.106869	-1.787336	7.433101	0.006146	-0.002238	-0.002288	-0.134766	0.424805	-0.602051	0.863337	-0.216382	-0.269067	-0.368009
41382		6.099988	-1.749071	7.449683	0.005989	-0.003218	-0.003541	-0.122070	0.425049	-0.606201	0.863334	-0.216393	-0.269089	-0.367994
41383		6.114362	-1.732720	7.447423	0.006786	-0.002896	-0.003205	-0.134033	0.421631	-0.607910	0.863340	-0.216389	-0.269091	-0.367981
41384		6.080887	-1.765477	7.483602	0.012936	-0.003029	-0.005222	-0.139648	0.427246	-0.599609	0.863344	-0.216341	-0.269137	-0.367966
41385		6.091793	-1.774772	7.464151	0.018560	-0.001512	-0.013636	-0.131592	0.425781	-0.602539	0.863333	-0.216246	-0.269209	-0.367995
41386		6.106387	-1.755725	7.462336	0.021342	-0.003541	-0.012870	-0.129883	0.424072	-0.612061	0.863331	-0.216128	-0.269286	-0.368013
41387		6.099477	-1.763206	7.432795	0.017361	-0.003044	-0.014280	-0.129883	0.423584	-0.605957	0.863321	-0.216030	-0.269336	-0.368057
41388		6.092987	-1.722965	7.449442	0.012069	-0.005073	-0.009015	-0.136719	0.422363	-0.596680	0.863312	-0.215988	-0.269384	-0.368067
41389		6.133513	-1.741531	7.461171	0.007670	-0.003318	-0.005073	-0.130859	0.425293	-0.610352	0.863304	-0.215982	-0.269433	-0.368054
41390		6.101603	-1.756945	7.432532	0.005435	-0.003304	-0.004828	-0.126709	0.424561	-0.605713	0.863299	-0.215998	-0.269433	-0.368056
41391		6.075086	-1.783248	7.457244	0.010078	-0.004825	-0.009721	-0.129150	0.425049	-0.598389	0.863288	-0.215964	-0.269465	-0.368079
41392		6.088635	-1.723960	7.439729	0.016561	-0.003362	-0.014623	-0.130859	0.416504	-0.601807	0.863274	-0.215877	-0.269529	-0.368116
41393		6.101553	-1.771424	7.456079	0.016317	-0.003594	-0.013676	-0.128174	0.416260	-0.602051	0.863262	-0.215761	-0.269613	-0.368151
41394		6.085005	-1.763809	7.466738	0.025980	-0.005046	-0.017780	-0.129150	0.420654	-0.597900	0.863255	-0.215568	-0.269733	-0.368192
41395		6.107351	-1.733824	7.474063	0.034137	-0.005785	-0.024491	-0.129639	0.418213	-0.598389	0.863239	-0.215331	-0.269888	-0.368255
41396		6.090120	-1.728853	7.443824	0.031505	-0.004878	-0.024284	-0.129150	0.414307	-0.605957	0.863221	-0.215101	-0.270034	-0.368324
41397		6.081943	-1.753628	7.458680	0.033978	-0.006756	-0.025756	-0.134033	0.423828	-0.601807	0.863204	-0.214828	-0.270198	-0.368402
41398		6.115429	-1.732158	7.466922	0.037249	-0.006203	-0.026626	-0.125488	0.420654	-0.613770	0.863179	-0.214598	-0.270363	-0.368475
41399		6.087719	-1.715634	7.435856	0.048674	-0.008490	-0.034481	-0.124512	0.424316	-0.609619	0.863169	-0.214226	-0.270541	-0.368583
41400		6.128620	-1.682081	7.453693	0.054993	-0.003781	-0.040130	-0.137207	0.417480	-0.610840	0.863163	-0.213810	-0.270703	-0.368720
41401		6.117480	-1.682130	7.497995	0.047785	-0.005935	-0.032375	-0.135254	0.422119	-0.609131	0.863138	-0.213453	-0.270930	-0.368820
41402		6.134474	-1.592779	7.477353	0.033327	-0.008169	-0.025146	-0.142090	0.419678	-0.608643	0.863106	-0.213251	-0.271090	-0.368894
41403		6.123970	-1.689499	7.469695	0.025172	-0.007433	-0.018429	-0.141602	0.411621	-0.605713	0.863066	-0.213114	-0.271259	-0.368943
41404		6.118331	-1.693499	7.460435	0.024531	-0.008877	-0.017780	-0.132812	0.417725	-0.604736	0.863026	-0.212937	-0.271469	-0.368984
41405		6.126614	-1.682082	7.448805	0.025655	-0.009068	-0.020604	-0.131348	0.419189	-0.604004	0.862997	-0.212775	-0.271612	-0.369039
41406		6.115215	-1.688528	7.471543	0.035795	-0.010029	-0.026638	-0.130859	0.414307	-0.604248	0.862969	-0.212541	-0.271787	-0.369112
41407		6.144437	-1.650684	7.467168	0.035874	-0.004461	-0.028059	-0.129639	0.414062	-0.603760	0.862954	-0.212252	-0.271936	-0.369202
41408		6.134906	-1.634409	7.466500	0.029319	-0.007284	-0.021193	-0.126953	0.412354	-0.610107	0.862947	-0.212035	-0.272065	-0.369249
41409		6.165096	-1.639888	7.477654	0.020766	-0.003561	-0.014236	-0.132568	0.416260	-0.598633	0.862970	-0.211847	-0.272103	-0.369275
41410		6.151290	-1.608941	7.484624	0.004247	-0.006940	-0.005730	-0.137695	0.420166	-0.602539	0.862949	-0.211892	-0.272144	-0.369268
41411		6.138451	-1.624246	7.486211	-0.003912	-0.007929	0.006135	-0.133301	0.421387	-0.612305	0.862929	-0.212057	-0.272160	-0.369207
41412		6.138166	-1.631343	7.444082	-0.013084	-0.008152	0.008100	-0.134277	0.413818	-0.604492	0.862924	-0.212256	-0.272089	-0.369158
41413		6.136728	-1.657325	7.466432	-0.025536	-0.010644	0.016065	-0.129150	0.407959	-0.609375	0.862911	-0.212529	-0.272043	-0.369065
41414		6.155193	-1.619125	7.499646	-0.054031	-0.011834	0.031150	-0.135254	0.423096	-0.609619	0.862924	-0.212956	-0.271869	-0.368915
41415		6.130538	-1.639623	7.477316	-0.079500	-0.014786	0.046031	-0.132568	0.417236	-0.602783	0.862891	-0.213755	-0.271595	-0.368734
41416		6.138243	-1.694516	7.436403	-0.083104	-0.019000	0.049491	-0.133301	0.417725	-0.604736	0.862861	-0.214554	-0.271355	-0.368514
41417		6.150127	-1.718378	7.433270	-0.068509	-0.017851	0.043190	-0.132812	0.417236	-0.602295	0.862841	-0.215218	-0.271170	-0.368312
41418		6.115907	-1.723335	7.450925	-0.054862	-0.013816	0.035854	-0.140625	0.424561	-0.604004	0.862831	-0.215751	-0.271017	-0.368136
41419		6.122371	-1.728254	7.416563	-0.035067	-0.007805	0.026763	-0.125977	0.419678	-0.606689	0.862798	-0.216181	-0.270936	-0.368020
41420		6.130329	-1.722688	7.444778	-0.022369	-0.005095	0.017865	-0.132324	0.419434	-0.605225	0.862850	-0.216383	-0.270771	-0.367902
41421		6.109312	-1.750272	7.437069	-0.010308	-0.001732	0.009891	-0.125732	0.423096	-0.601562	0.862873	-0.216487	-0.270704	-0.367835
41422		6.102748	-1.757689	7.448188	0.003343	-0.001931	0.002046	-0.130859	0.411133	-0.601807	0.862920	-0.216517	-0.270610	-0.367776
41423		6.073850	-1.745553	7.437565	0.015331	0.001804	-0.009110	-0.135498	0.419922	-0.594971	0.862956	-0.216304	-0.270665	-0.367777
41424		6.097976	-1.692487	7.442088	0.026748	0.001616	-0.016707	-0.127930	0.424316	-0.604492	0.862934	-0.216151	-0.270774	-0.367837
41425		6.120192	-1.752031	7.419394	0.037212	0.004335	-0.025354	-0.133301	0.416260	-0.601562	0.862966	-0.215866	-0.270790	-0.367918
41426		6.081163	-1.720570	7.429920	0.053889	0.004466	-0.033134	-0.134277	0.419189	-0.603027	0.862981	-0.215390	-0.270978	-0.368025
41427		6.117817	-1.756922	7.426888	0.068101	0.010316	-0.044307	-0.126221	0.412598	-0.600098	0.862990	-0.214806	-0.271173	-0.368200
41428		6.145005	-1.666968	7.450982	0.070568	0.012667	-0.045271	-0.131836	0.419922	-0.613281	0.863063	-0.214123	-0.271301	-0.368332
41429		6.148157	-1.672898	7.446129	0.063138	0.016216	-0.041152	-0.138184	0.417725	-0.612793	0.863119	-0.213519	-0.271382	-0.368493
41430		6.112240	-1.654330	7.470471	0.061613	0.015213	-0.038650	-0.132568	0.421387	-0.607422	0.863135	-0.212943	-0.271546	-0.368668
41431		6.118946	-1.634507	7.482332	0.054267	0.007863	-0.032651	-0.128418	0.415039	-0.604980	0.863157	-0.212533	-0.271639	-0.368784
41432		6.094753	-1.628480	7.506264	0.042055	0.005609	-0.025644	-0.132324	0.428467	-0.609619	0.863207	-0.212168	-0.271683	-0.368844
41433		6.125798	-1.612187	7.474150	0.030816	0.000062	-0.022962	-0.136963	0.415771	-0.598877	0.863192	-0.212060	-0.271688	-0.368938
41434		6.095114	-1.666514	7.442048	0.040616	-0.002074	-0.020726	-0.135254	0.420166	-0.609863	0.863166	-0.211827	-0.271878	-0.368995
41435		6.122885	-1.690449	7.478150	0.053712	-0.000617	-0.035030	-0.131836	0.413818	-0.607910	0.863146	-0.211441	-0.272058	-0.369130
41436		6.120679	-1.549303	7.493685	0.052426	0.000711	-0.033211	-0.132568	0.413818	-0.609375	0.863163	-0.210996	-0.272212	-0.369230
41437		6.147243	-1.626661	7.443281	0.052342	-0.000625	-0.031282	-0.138672	0.412354	-0.608887	0.863180	-0.210559	-0.272375	-0.369319
41438		6.093372	-1.677166	7.454566	0.063588	0.000350	-0.039921	-0.145996	0.411133	-0.610840	0.863153	-0.210031	-0.272667	-0.369468
41439		6.066561	-1.648405	7.486479	0.073000	0.000442	-0.048278	-0.136963	0.410645	-0.614990	0.863072	-0.209419	-0.273098	-0.369686
41440		6.091486	-1.585319	7.491385	0.067741	-0.001983	-0.048376	-0.131836	0.412109	-0.612061	0.863049	-0.208802	-0.273396	-0.369870
41441		6.111400	-1.572999	7.502674	0.060022	-0.006754	-0.047508	-0.142822	0.408936	-0.604492	0.863029	-0.208297	-0.273615	-0.370038
41442		6.128031	-1.592090	7.475924	0.057717	-0.010194	-0.045575	-0.139893	0.407227	-0.612305	0.862916	-0.207886	-0.274015	-0.370238
41443		6.155598	-1.571384	7.495591	0.057865	-0.007490	-0.049497	-0.138916	0.411621	-0.616943	0.862841	-0.207370	-0.274358	-0.370447
41444		6.115000	-1.564158	7.487861	0.060166	-0.006119	-0.051732	-0.142334	0.414551	-0.616455	0.862772	-0.206863	-0.274646	-0.370677
41445		6.137371	-1.529656	7.474654	0.059451	-0.007198	-0.054287	-0.136963	0.399902	-0.611328	0.862659	-0.206426	-0.274962	-0.370951
41446		6.101411	-1.537686	7.479521	0.061359	-0.007044	-0.056817	-0.135498	0.404297	-0.612793	0.862608	-0.205795	-0.275304	-0.371165
41447		6.130582	-1.444181	7.520313	0.054900	-0.006838	-0.057013	-0.135010	0.405029	-0.611572	0.862548	-0.205271	-0.275561	-0.371405
41448		6.114824	-1.431980	7.510617	0.045034	-0.009898	-0.052399	-0.127930	0.408936	-0.613037	0.862477	-0.204868	-0.275780	-0.371629
41449		6.111925	-1.474214	7.497422	0.043298	-0.013236	-0.049159	-0.142334	0.401855	-0.614746	0.862454	-0.204524	-0.275875	-0.371802
41450		6.143573	-1.476484	7.487689	0.041476	-0.014545	-0.054277	-0.140625	0.406494	-0.609131	0.862320	-0.204123	-0.276228	-0.372070
41451		6.147771	-1.397756	7.487260	0.034809	-0.018377	-0.048585	-0.133301	0.396240	-0.614014	0.862173	-0.203914	-0.276513	-0.372313
41452		6.141713	-1.423240	7.480922	0.027642	-0.018880	-0.045883	-0.135498	0.402100	-0.606689	0.862120	-0.203550	-0.276730	-0.372473
41453		6.180893	-1.418910	7.479106	0.025898	-0.020119	-0.042384	-0.140625	0.400391	-0.618652	0.862022	-0.203377	-0.276929	-0.372647
41454		6.168884	-1.449012	7.504680	0.024523	-0.018032	-0.038353	-0.135986	0.403076	-0.616455	0.861935	-0.203106	-0.277178	-0.372812
41455		6.169996	-1.401636	7.486709	0.022008	-0.021718	-0.035419	-0.142822	0.407227	-0.607422	0.861873	-0.202919	-0.277347	-0.372931
41456		6.164185	-1.365047	7.459399	0.012313	-0.023402	-0.024102	-0.142578	0.398682	-0.608398	0.861735	-0.203007	-0.277546	-0.373054
41457		6.159691	-1.439607	7.448353	0.005906	-0.019376	-0.020565	-0.143311	0.397705	-0.611328	0.861635	-0.202996	-0.277740	-0.373147
41458		6.177297	-1.415658	7.484599	0.000911	-0.021214	-0.016148	-0.143066	0.407471	-0.610107	0.861543	-0.202999	-0.277935	-0.373212
41459		6.174912	-1.466760	7.469716	0.003119	-0.019083	-0.016176	-0.138428	0.400146	-0.616211	0.861434	-0.203138	-0.278043	-0.373307
41460		6.184776	-1.454607	7.476813	0.009072	-0.018432	-0.024687	-0.145752	0.404297	-0.610596	0.861391	-0.203024	-0.278159	-0.373383
41461		6.164727	-1.434774	7.452594	0.013915	-0.017156	-0.024949	-0.143066	0.402100	-0.613770	0.861269	-0.203017	-0.278356	-0.373522
41462		6.179061	-1.436805	7.472854	0.014127	-0.014821	-0.025669	-0.150635	0.399170	-0.607178	0.861191	-0.202927	-0.278508	-0.373637
41463		6.166324	-1.404454	7.478252	0.011835	-0.016182	-0.023440	-0.143066	0.401855	-0.616455	0.861038	-0.202910	-0.278786	-0.373789
41464		6.193620	-1.394439	7.475086	0.011298	-0.018396	-0.024974	-0.136230	0.397217	-0.612793	0.860964	-0.202826	-0.278941	-0.373891
41465		6.216081	-1.368733	7.459267	0.012218	-0.014953	-0.023163	-0.145020	0.405762	-0.611572	0.860969	-0.202667	-0.279000	-0.373922
41466		6.221064	-1.338353	7.474576	-0.003948	-0.012307	-0.011466	-0.145508	0.398438	-0.610352	0.860883	-0.202824	-0.279034	-0.374008
41467		6.225832	-1.179184	7.468974	-0.041896	-0.015863	0.018513	-0.150391	0.401611	-0.600830	0.860834	-0.203230	-0.278985	-0.373937
41468		6.201171	-1.387318	7.381831	-0.049238	-0.017455	0.038201	-0.149414	0.401367	-0.614014	0.860747	-0.203889	-0.278941	-0.373813
41469		6.208231	-1.603616	7.473592	-0.017526	-0.010998	0.012778	-0.142578	0.400391	-0.607910	0.860708	-0.204086	-0.278989	-0.373759
41470		6.235311	-1.443912	7.426555	-0.010643	-0.001358	0.004610	-0.146973	0.399414	-0.606934	0.860722	-0.204201	-0.278907	-0.373724
41471		6.175268	-1.395199	7.493936	-0.005779	-0.002187	0.004103	-0.146729	0.407227	-0.605713	0.860702	-0.204291	-0.278922	-0.373710
41472		6.193569	-1.448872	7.438074	0.000755	-0.003102	0.002037	-0.144531	0.395996	-0.604980	0.860652	-0.204469	-0.278901	-0.373746
41473		6.210534	-1.402634	7.472479	-0.001772	0.002954	0.004012	-0.141602	0.397705	-0.610596	0.860683	-0.204460	-0.278884	-0.373690
41474		6.187430	-1.453117	7.470283	-0.001985	0.000623	0.004726	-0.148438	0.393555	-0.606689	0.860751	-0.204422	-0.278827	-0.373597
41475		6.172066	-1.425975	7.476946	-0.004508	-0.000970	0.007919	-0.137451	0.402100	-0.614990	0.860759	-0.204415	-0.278903	-0.373526
41476		6.178872	-1.470184	7.420304	0.001587	0.000679	0.000649	-0.149658	0.395752	-0.613770	0.860859	-0.204349	-0.278773	-0.373428
41477		6.170742	-1.497325	7.456458	0.010878	0.001584	-0.005570	-0.150391	0.403564	-0.606445	0.860860	-0.204165	-0.278905	-0.373427
41478		6.172772	-1.404106	7.433006	0.016331	0.003888	-0.011919	-0.145264	0.407227	-0.615967	0.860781	-0.204136	-0.278984	-0.373567
41479		6.164687	-1.428720	7.469606	0.020015	0.001498	-0.013038	-0.146973	0.409668	-0.616699	0.860776	-0.204021	-0.278997	-0.373631
41480		6.146075	-1.427317	7.439850	0.022468	0.001333	-0.019689	-0.146240	0.391113	-0.610596	0.860730	-0.203917	-0.279033	-0.373768
41481		6.192203	-1.389245	7.465150	0.016395	-0.002418	-0.012664	-0.136230	0.399170	-0.605225	0.860753	-0.203642	-0.279199	-0.373740
41482		6.171910	-1.413821	7.438532	0.016032	-0.005742	-0.013197	-0.145264	0.396729	-0.603760	0.860799	-0.203534	-0.279169	-0.373716
41483		6.208236	-1.429454	7.503042	0.016650	-0.004291	-0.013875	-0.142334	0.397705	-0.617188	0.860761	-0.203434	-0.279278	-0.373776
41484		6.172911	-1.426255	7.482894	0.012249	-0.008129	-0.008405	-0.142334	0.402832	-0.615479	0.860811	-0.203251	-0.279352	-0.373704
41485		6.189831	-1.383940	7.475582	0.006065	-0.009436	-0.004335	-0.145264	0.395264	-0.613770	0.860828	-0.203233	-0.279364	-0.373666
41486		6.202327	-1.392558	7.475695	0.003311	-0.011256	-0.000177	-0.135986	0.399170	-0.608154	0.860845	-0.203161	-0.279472	-0.373586
41487		6.208165	-1.342256	7.466957	0.001701	-0.009834	-0.000579	-0.138916	0.400391	-0.604736	0.860912	-0.203176	-0.279400	-0.373478
41488		6.188512	-1.435920	7.459822	-0.001635	-0.009664	0.002541	-0.155273	0.399414	-0.607666	0.860931	-0.203292	-0.279339	-0.373416
41489		6.178645	-1.427039	7.457581	-0.000317	-0.012649	0.005865	-0.144531	0.397705	-0.615967	0.860807	-0.203445	-0.279532	-0.373474
41490		6.176031	-1.526522	7.419360	0.007497	-0.009748	-0.004938	-0.143311	0.409668	-0.613281	0.860832	-0.203334	-0.279622	-0.373411
41491		6.175767	-1.529273	7.378237	0.025983	-0.002041	-0.022086	-0.148926	0.396240	-0.614746	0.860799	-0.203244	-0.279627	-0.373532
41492		6.178999	-1.510652	7.460917	0.031228	0.003478	-0.029208	-0.145020	0.405762	-0.609863	0.860774	-0.202884	-0.279801	-0.373655
41493		6.169637	-1.353193	7.481356	0.034723	0.001781	-0.036754	-0.144531	0.406738	-0.614502	0.860700	-0.202682	-0.279871	-0.373881
41494		6.183288	-1.265248	7.458710	0.025011	-0.001260	-0.023426	-0.141113	0.405518	-0.613770	0.860666	-0.202559	-0.279896	-0.374008
41495		6.218478	-1.335804	7.438125	0.017209	0.001380	-0.014091	-0.150879	0.393066	-0.617188	0.860686	-0.202482	-0.279822	-0.374058
41496		6.238053	-1.311488	7.424245	0.006443	0.004979	-0.006764	-0.142090	0.401367	-0.619141	0.860696	-0.202302	-0.279908	-0.374068
41497		6.238554	-1.304275	7.466018	0.003713	0.009130	0.001341	-0.144043	0.393066	-0.616943	0.860789	-0.202224	-0.279760	-0.374008
41498		6.222654	-1.273156	7.494105	0.000473	0.008959	0.007674	-0.152100	0.395508	-0.614258	0.860898	-0.202090	-0.279683	-0.373887
41499		6.198041	-1.327421	7.472470	-0.004297	0.009438	0.011396	-0.158691	0.402100	-0.616211	0.860913	-0.202100	-0.279668	-0.373859
41500		6.178358	-1.398039	7.463309	-0.003267	0.004897	0.017651	-0.147217	0.401123	-0.616943	0.860860	-0.202238	-0.279719	-0.373867
41501		6.187755	-1.412153	7.444577	0.001209	0.007967	0.009959	-0.146973	0.395508	-0.616699	0.860913	-0.202243	-0.279633	-0.373807
41502		6.185087	-1.434313	7.469797	0.008150	0.006183	0.007926	-0.136963	0.392578	-0.611572	0.860990	-0.202116	-0.279626	-0.373704
41503		6.197917	-1.350022	7.467604	0.005537	0.004930	0.007918	-0.139648	0.399902	-0.613525	0.861141	-0.201980	-0.279508	-0.373519
41504		6.149196	-1.424963	7.512500	0.006238	0.000500	0.011927	-0.143311	0.400146	-0.608154	0.861245	-0.201966	-0.279404	-0.373363
41505		6.172921	-1.422331	7.490411	0.005936	-0.001492	0.009437	-0.141602	0.395752	-0.611084	0.861275	-0.202031	-0.279358	-0.373293
41506		6.174748	-1.400942	7.465752	0.003522	-0.005955	0.010191	-0.147949	0.401123	-0.625244	0.861339	-0.202026	-0.279350	-0.373155
41507		6.149955	-1.410753	7.446564	0.004140	-0.004505	0.009511	-0.144775	0.399414	-0.608398	0.861385	-0.201977	-0.279391	-0.373045
41508		6.190746	-1.429602	7.458462	0.006800	-0.002352	0.002137	-0.140869	0.394775	-0.611816	0.861379	-0.202016	-0.279392	-0.373034
41509		6.167810	-1.428833	7.500953	0.006181	-0.003801	0.002817	-0.142822	0.402588	-0.610107	0.861441	-0.201947	-0.279389	-0.372932
41510		6.194183	-1.335346	7.453817	0.000874	-0.005535	0.005011	-0.146729	0.398438	-0.614746	0.861440	-0.202067	-0.279346	-0.372901
41511		6.174937	-1.423323	7.488560	-0.000513	-0.001352	0.009303	-0.148438	0.394043	-0.608643	0.861460	-0.202103	-0.279344	-0.372837
41512		6.203779	-1.368724	7.478891	-0.005633	0.001348	0.011019	-0.145020	0.398193	-0.613281	0.861457	-0.202176	-0.279350	-0.372800
41513		6.198666	-1.421197	7.486767	-0.010158	0.002494	0.019191	-0.147949	0.401367	-0.615234	0.861511	-0.202294	-0.279254	-0.372683
41514		6.152267	-1.458535	7.462015	-0.009751	0.001615	0.019230	-0.146484	0.411621	-0.618652	0.861532	-0.202449	-0.279185	-0.372603
41515		6.171716	-1.504070	7.468271	0.000690	0.003216	0.002771	-0.139404	0.397217	-0.612549	0.861511	-0.202589	-0.279082	-0.372651
41516		6.174721	-1.407122	7.485023	0.006520	0.001626	0.003582	-0.146240	0.404053	-0.611572	0.861593	-0.202517	-0.279016	-0.372552
41517		6.171883	-1.381672	7.533771	0.005130	-0.002268	0.003697	-0.130859	0.406982	-0.610107	0.861571	-0.202603	-0.279010	-0.372560
41518		6.151984	-1.390892	7.462280	0.005071	-0.003601	0.005660	-0.141846	0.401611	-0.608398	0.861664	-0.202691	-0.278802	-0.372453
41519		6.180339	-1.471980	7.452922	0.006776	-0.000252	0.002378	-0.137207	0.401855	-0.617432	0.861680	-0.202730	-0.278754	-0.372431
41520		6.182182	-1.445710	7.449610	0.012800	0.007697	-0.004182	-0.144287	0.393066	-0.617188	0.861773	-0.202590	-0.278629	-0.372385
41521		6.189618	-1.363044	7.479598	0.005672	0.005058	-0.001671	-0.148193	0.397949	-0.614990	0.861828	-0.202425	-0.278644	-0.372336
41522		6.153524	-1.306536	7.545779	0.001375	0.001329	0.012432	-0.144531	0.404541	-0.613770	0.861851	-0.202441	-0.278661	-0.372261
41523		6.191059	-1.405088	7.496869	-0.001494	0.001957	0.013629	-0.144287	0.396484	-0.612061	0.861877	-0.202565	-0.278574	-0.372200
41524		6.159476	-1.472620	7.445073	-0.005836	-0.000538	0.017147	-0.145020	0.399902	-0.616699	0.861925	-0.202639	-0.278537	-0.372076
41525		6.158217	-1.477707	7.424730	-0.001048	0.004513	0.011946	-0.143311	0.403809	-0.612793	0.861974	-0.202657	-0.278479	-0.371995
41526		6.198842	-1.426130	7.457754	-0.000042	0.007184	0.011547	-0.139893	0.395752	-0.605225	0.862014	-0.202740	-0.278358	-0.371946
41527		6.201276	-1.396415	7.495426	-0.002412	0.006597	0.015991	-0.148926	0.399658	-0.619141	0.862092	-0.202798	-0.278236	-0.371827
41528		6.171655	-1.386128	7.505187	-0.004651	0.001468	0.023157	-0.137939	0.400879	-0.608887	0.862139	-0.202866	-0.278228	-0.371686
41529		6.188906	-1.389667	7.515251	-0.009209	0.004293	0.026152	-0.140869	0.399170	-0.615479	0.862238	-0.203031	-0.278036	-0.371511
41530		6.165681	-1.426012	7.468499	-0.022497	0.006349	0.036658	-0.141602	0.405273	-0.611816	0.862358	-0.203236	-0.277827	-0.371276
41531		6.147959	-1.473108	7.475501	-0.024124	0.009881	0.036488	-0.143555	0.400879	-0.616455	0.862439	-0.203553	-0.277560	-0.371114
41532		6.147810	-1.455216	7.472282	-0.026879	0.015726	0.039402	-0.140625	0.401611	-0.614990	0.862556	-0.203781	-0.277300	-0.370911
41533		6.186816	-1.525412	7.481634	-0.027783	0.017834	0.036107	-0.143555	0.406738	-0.613770	0.862679	-0.204009	-0.276995	-0.370729
41534		6.171350	-1.477082	7.506044	-0.034157	0.020203	0.044810	-0.137451	0.407715	-0.617676	0.862776	-0.204379	-0.276646	-0.370560
41535		6.251662	-1.433336	7.527293	-0.060382	0.017507	0.061876	-0.146729	0.401123	-0.617920	0.862927	-0.204936	-0.276142	-0.370275
41536		6.223639	-1.504470	7.504531	-0.107597	0.021847	0.089358	-0.137451	0.415283	-0.610596	0.863050	-0.205815	-0.275577	-0.369923
41537		6.234466	-1.376319	7.521897	-0.164703	0.024868	0.116253	-0.136475	0.412842	-0.610352	0.863154	-0.207348	-0.274583	-0.369562
41538		6.229237	-1.617738	7.466871	-0.191475	0.036287	0.139925	-0.134277	0.412109	-0.606445	0.863326	-0.209026	-0.273414	-0.369082
41539		6.120117	-1.749727	7.450799	-0.180401	0.040298	0.133483	-0.135742	0.418213	-0.606201	0.863511	-0.210577	-0.272268	-0.368613
41540		6.076661	-1.663475	7.476571	-0.143884	0.041407	0.116680	-0.135986	0.423340	-0.602539	0.863679	-0.211872	-0.271264	-0.368219
41541		6.063344	-1.835748	7.413654	-0.107658	0.042561	0.097738	-0.128662	0.417236	-0.606689	0.863823	-0.212925	-0.270389	-0.367917
41542		5.922229	-1.760430	7.427236	-0.056238	0.036083	0.067417	-0.131104	0.417969	-0.601807	0.864029	-0.213411	-0.269751	-0.367619
41543		5.993306	-1.837866	7.436294	-0.014999	0.028753	0.039780	-0.135498	0.418457	-0.603760	0.864177	-0.213603	-0.269377	-0.367434
41544		6.049674	-1.791069	7.482432	0.003916	0.022199	0.025532	-0.142090	0.426025	-0.609619	0.864277	-0.213643	-0.269192	-0.367311
41545		6.076985	-1.627670	7.461697	0.009336	0.019309	0.026075	-0.133301	0.417969	-0.609619	0.864329	-0.213715	-0.269082	-0.367228
41546		6.016279	-1.666610	7.522521	0.006216	0.015938	0.033073	-0.127930	0.417236	-0.601318	0.864468	-0.213720	-0.268925	-0.367012
41547		6.113645	-1.738123	7.488432	-0.004481	0.010900	0.042451	-0.130859	0.416016	-0.602783	0.864615	-0.213880	-0.268695	-0.366741
41548		6.057011	-1.693204	7.504569	-0.019091	0.008080	0.053876	-0.127441	0.419922	-0.602539	0.864757	-0.214157	-0.268471	-0.366409
41549		6.138477	-1.700957	7.460194	-0.028772	0.004021	0.068001	-0.128906	0.423584	-0.601074	0.864914	-0.214587	-0.268163	-0.366013
41550		6.074077	-1.825109	7.455925	-0.022023	0.006178	0.076043	-0.124023	0.420654	-0.609131	0.865083	-0.215030	-0.267847	-0.365582
41551		5.979145	-1.801128	7.495961	-0.010939	0.006519	0.071558	-0.122559	0.417480	-0.604248	0.865315	-0.215275	-0.267549	-0.365109
41552		5.985093	-1.595609	7.561452	-0.015486	0.002695	0.068347	-0.129395	0.433350	-0.595459	0.865529	-0.215546	-0.267281	-0.364637
41553		6.082446	-1.720478	7.500453	-0.030488	0.004627	0.074832	-0.128662	0.422852	-0.607910	0.865615	-0.216193	-0.266923	-0.364312
41554		5.992796	-1.699854	7.467004	-0.031355	0.006782	0.071552	-0.126221	0.419922	-0.606934	0.865775	-0.216606	-0.266630	-0.363902
41555		5.973221	-1.750501	7.472407	-0.028482	0.003612	0.064725	-0.121582	0.420410	-0.599609	0.865934	-0.216953	-0.266382	-0.363497
41556		5.926717	-1.783035	7.507519	-0.015085	-0.003587	0.051656	-0.121582	0.428955	-0.609131	0.866065	-0.217240	-0.266196	-0.363151
41557		6.019153	-1.907275	7.477839	-0.006666	-0.004955	0.033225	-0.120361	0.427979	-0.606934	0.866127	-0.217465	-0.266035	-0.362985
41558		6.033295	-1.938448	7.470231	0.010100	-0.005678	0.023257	-0.121826	0.429199	-0.607910	0.866193	-0.217549	-0.265943	-0.362845
41559		6.019181	-1.863872	7.502479	0.016811	-0.006131	0.017119	-0.121338	0.424561	-0.601318	0.866241	-0.217581	-0.265898	-0.362745
41560		5.965073	-1.680042	7.532081	0.020078	-0.010214	0.010350	-0.130371	0.416504	-0.601074	0.866278	-0.217573	-0.265928	-0.362637
41561		6.044129	-1.681757	7.519073	0.013452	-0.013031	0.008657	-0.122559	0.425537	-0.607422	0.866305	-0.217526	-0.266124	-0.362459
41562		6.002538	-1.821417	7.454457	0.013569	-0.009992	0.001604	-0.125977	0.427490	-0.612061	0.866303	-0.217522	-0.266156	-0.362442
41563		6.029785	-1.943531	7.438803	0.033719	-0.007156	-0.016298	-0.122803	0.427002	-0.602539	0.866276	-0.217321	-0.266289	-0.362530
41564		5.975118	-1.863173	7.483395	0.045205	-0.010284	-0.026360	-0.127686	0.434814	-0.604492	0.866231	-0.217079	-0.266459	-0.362657
41565		6.059411	-1.736732	7.538727	0.052432	-0.014432	-0.026374	-0.127686	0.427490	-0.605957	0.866141	-0.216882	-0.266683	-0.362826
41566		6.150685	-1.740520	7.547671	0.020835	-0.010333	-0.003263	-0.125000	0.426270	-0.602295	0.866107	-0.216864	-0.266781	-0.362844
41567		6.070767	-1.854265	7.512425	0.007230	-0.014200	0.012647	-0.124512	0.424316	-0.602295	0.866097	-0.216999	-0.266810	-0.362767
41568		6.065343	-1.861682	7.522606	0.002340	-0.014552	0.023617	-0.117188	0.423340	-0.597412	0.866122	-0.217171	-0.266814	-0.362602
41569		6.047123	-1.869142	7.469919	-0.000176	-0.018137	0.035057	-0.132080	0.423340	-0.607422	0.866184	-0.217414	-0.266734	-0.362368
41570		6.079653	-1.771382	7.484730	0.001307	-0.020509	0.042762	-0.117432	0.418457	-0.604736	0.866248	-0.217605	-0.266847	-0.362016
41571		6.220058	-1.637871	7.564152	-0.013692	-0.015166	0.065647	-0.124756	0.422119	-0.593262	0.866414	-0.217905	-0.266688	-0.361556
41572		6.109683	-1.927350	7.498673	-0.030260	-0.006242	0.088373	-0.126465	0.421143	-0.603760	0.866601	-0.218439	-0.266450	-0.360959
41573		6.059482	-1.843588	7.464889	-0.023119	-0.007094	0.096148	-0.120850	0.425293	-0.609131	0.866833	-0.218866	-0.266260	-0.360284
41574		6.029676	-1.973391	7.459055	-0.014321	-0.010174	0.102122	-0.126709	0.431641	-0.604980	0.867083	-0.219270	-0.266022	-0.359612
41575		6.022040	-1.944283	7.494017	-0.000701	-0.018829	0.101730	-0.121582	0.427002	-0.601318	0.867294	-0.219682	-0.265929	-0.358920
41576		6.044735	-2.041622	7.440259	0.013264	-0.023407	0.104074	-0.124268	0.423096	-0.602783	0.867557	-0.219977	-0.265883	-0.358135
41577		5.975111	-1.773172	7.508194	0.016859	-0.027108	0.113391	-0.120605	0.432129	-0.600342	0.867865	-0.220220	-0.265924	-0.357209
41578		6.000114	-1.649140	7.497567	0.006718	-0.029336	0.103040	-0.122314	0.429199	-0.602051	0.868073	-0.220637	-0.265872	-0.356485
41579		6.073242	-1.865406	7.446640	-0.000419	-0.025867	0.100830	-0.130371	0.427246	-0.609131	0.868283	-0.221040	-0.265825	-0.355757
41580		6.098858	-1.910165	7.478949	-0.011220	-0.021146	0.110178	-0.121826	0.426270	-0.601318	0.868518	-0.221457	-0.265811	-0.354933
41581		6.008281	-1.997832	7.458407	0.001922	-0.026092	0.112168	-0.126221	0.432373	-0.605469	0.868783	-0.221829	-0.265781	-0.354074
41582		5.998728	-1.866604	7.469043	0.008741	-0.023600	0.098970	-0.117920	0.433105	-0.601318	0.868993	-0.222153	-0.265797	-0.353343
41583		5.978900	-2.003992	7.443337	0.015075	-0.021999	0.082329	-0.119873	0.427246	-0.602783	0.869171	-0.222424	-0.265751	-0.352769
41584		5.979904	-1.769378	7.493370	0.018448	-0.021029	0.068800	-0.120361	0.427002	-0.607910	0.869348	-0.222562	-0.265802	-0.352207
41585		6.047586	-1.810304	7.493893	0.001223	-0.017243	0.061970	-0.125000	0.431152	-0.610352	0.869483	-0.222770	-0.265797	-0.351746
41586		5.982065	-1.734626	7.515216	-0.008993	-0.013703	0.056579	-0.113281	0.431885	-0.604004	0.869567	-0.223054	-0.265778	-0.351371
41587		6.064258	-1.871286	7.475396	-0.018478	-0.009950	0.043011	-0.121094	0.427979	-0.608154	0.869603	-0.223418	-0.265589	-0.351194
41588		6.007106	-2.004104	7.430618	-0.021152	-0.000462	0.024096	-0.122559	0.430664	-0.611328	0.869621	-0.223651	-0.265483	-0.351082
41589		5.946346	-2.006623	7.432332	-0.009901	-0.000682	0.004829	-0.118896	0.431152	-0.608887	0.869589	-0.223769	-0.265450	-0.351110
41590		5.982210	-2.011780	7.431403	0.006017	-0.002884	-0.016163	-0.118408	0.427246	-0.609863	0.869519	-0.223753	-0.265473	-0.351277
41591		6.048174	-2.022074	7.462338	0.018043	0.000093	-0.032665	-0.114014	0.431152	-0.606201	0.869450	-0.223561	-0.265557	-0.351507
41592		5.927608	-1.974422	7.431788	0.034394	0.008205	-0.058671	-0.115723	0.431396	-0.602539	0.869331	-0.223238	-0.265598	-0.351975
41593		5.868890	-2.110167	7.394974	0.084876	0.016581	-0.121128	-0.117676	0.422852	-0.609863	0.869139	-0.222404	-0.265857	-0.352780
41594		5.829991	-2.121676	7.429282	0.148872	0.024506	-0.200118	-0.114258	0.425049	-0.612061	0.868885	-0.220801	-0.266454	-0.353959
41595		5.946769	-1.809839	7.457987	0.163986	0.026007	-0.226578	-0.126709	0.424561	-0.609375	0.868555	-0.219077	-0.267049	-0.355391
41596		6.018150	-1.672102	7.460243	0.188599	0.020255	-0.226148	-0.121094	0.417480	-0.614990	0.868253	-0.217192	-0.267885	-0.356653
41597		6.087415	-1.679985	7.514882	0.198363	0.019326	-0.205034	-0.124023	0.425537	-0.610596	0.868042	-0.215240	-0.268659	-0.357767
41598		6.074566	-1.495394	7.585064	0.183140	0.011574	-0.176575	-0.127441	0.411865	-0.616211	0.867817	-0.213607	-0.269349	-0.358772
41599		6.186782	-1.582144	7.552877	0.149299	0.011142	-0.137896	-0.125244	0.412354	-0.625732	0.867702	-0.212166	-0.269971	-0.359436
41600		6.125112	-1.758836	7.507587	0.124459	0.006745	-0.113349	-0.129150	0.408936	-0.609619	0.867577	-0.210982	-0.270446	-0.360077
41601		6.081394	-1.583586	7.562273	0.085064	0.001285	-0.082327	-0.129150	0.411133	-0.615723	0.867500	-0.210186	-0.270856	-0.360421
41602		6.126556	-1.653848	7.544510	0.057693	-0.006843	-0.054698	-0.130127	0.404785	-0.613281	0.867412	-0.209695	-0.271160	-0.360689
41603		6.112333	-1.727246	7.548160	0.036005	-0.011831	-0.032117	-0.126221	0.405029	-0.615967	0.867377	-0.209374	-0.271441	-0.360748
41604		6.131640	-1.681997	7.540597	0.008217	-0.013434	-0.017696	-0.124268	0.411377	-0.615967	0.867324	-0.209303	-0.271570	-0.360821
41605		6.079729	-1.769806	7.481485	-0.010348	-0.017755	-0.007737	-0.137695	0.408203	-0.619873	0.867225	-0.209471	-0.271590	-0.360946
41606		6.086657	-1.739875	7.516019	-0.021018	-0.018917	-0.003142	-0.128174	0.413330	-0.606934	0.867135	-0.209657	-0.271746	-0.360936
41607		6.057685	-1.663943	7.554068	-0.038383	-0.022163	0.002040	-0.131592	0.407471	-0.620117	0.867009	-0.210096	-0.271734	-0.360993
41608		6.103693	-1.666616	7.558214	-0.065322	-0.030545	0.013889	-0.131104	0.410889	-0.609375	0.866870	-0.210675	-0.271744	-0.360982
41609		6.098094	-1.696582	7.482370	-0.080257	-0.041041	0.027616	-0.133301	0.416992	-0.608398	0.866719	-0.211480	-0.271745	-0.360873
41610		6.156399	-1.667541	7.509571	-0.076515	-0.039576	0.030136	-0.136475	0.405762	-0.609863	0.866559	-0.212307	-0.271730	-0.360781
41611		6.091902	-1.646386	7.501127	-0.073453	-0.032449	0.036242	-0.125000	0.411133	-0.608398	0.866498	-0.212972	-0.271770	-0.360506
41612		6.118153	-1.656491	7.474385	-0.064231	-0.019624	0.035612	-0.131836	0.412109	-0.615234	0.866457	-0.213602	-0.271591	-0.360367
41613		6.117089	-1.733586	7.491485	-0.061002	-0.011976	0.037599	-0.130371	0.414062	-0.604492	0.866437	-0.214158	-0.271431	-0.360207
41614		6.101948	-1.719287	7.475188	-0.057770	-0.004331	0.039593	-0.127930	0.416016	-0.612061	0.866446	-0.214717	-0.271206	-0.360021
41615		6.122271	-1.705793	7.479645	-0.051279	0.003384	0.035318	-0.131104	0.419922	-0.606689	0.866461	-0.215187	-0.270917	-0.359921
41616		6.062890	-1.647192	7.481692	-0.045808	0.012654	0.031929	-0.128418	0.424072	-0.608643	0.866483	-0.215622	-0.270603	-0.359845
41617		6.103903	-1.781926	7.478155	-0.033605	0.016886	0.025050	-0.124512	0.429199	-0.612061	0.866498	-0.215969	-0.270260	-0.359858
41618		6.104089	-1.673149	7.504162	-0.033624	0.025638	0.022849	-0.125000	0.415039	-0.607422	0.866502	-0.216325	-0.269789	-0.359988
41619		6.053614	-1.798882	7.472892	-0.028991	0.028261	0.018415	-0.119629	0.423096	-0.612793	0.866579	-0.216503	-0.269425	-0.359968
41620		6.064113	-1.742524	7.496775	-0.028753	0.028486	0.017455	-0.126221	0.419189	-0.609375	0.866610	-0.216745	-0.268956	-0.360099
41621		6.067986	-1.782601	7.503279	-0.026497	0.021830	0.019615	-0.127197	0.414795	-0.607178	0.866662	-0.216948	-0.268644	-0.360084
41622		6.061025	-1.859216	7.483709	-0.022856	0.019367	0.018502	-0.125244	0.422607	-0.615723	0.866739	-0.217087	-0.268409	-0.359991
41623		6.043699	-1.747700	7.500019	-0.022874	0.017266	0.018250	-0.124023	0.417480	-0.603027	0.866762	-0.217284	-0.268118	-0.360033
41624		6.061666	-1.775538	7.482680	-0.027799	0.018975	0.020931	-0.124512	0.419678	-0.602783	0.866829	-0.217501	-0.267830	-0.359956
41625		6.059437	-1.778503	7.504168	-0.028058	0.017102	0.026993	-0.117920	0.422852	-0.605957	0.866900	-0.217753	-0.267541	-0.359847
41626		6.070882	-1.767583	7.523037	-0.038765	0.022635	0.029100	-0.126221	0.419189	-0.607666	0.866951	-0.218101	-0.267090	-0.359848
41627		6.061557	-1.852725	7.462307	-0.035236	0.025936	0.032860	-0.121094	0.426514	-0.609863	0.867048	-0.218360	-0.266738	-0.359718
41628		5.937839	-1.900589	7.484275	-0.023009	0.020948	0.022850	-0.125488	0.426270	-0.607178	0.867089	-0.218589	-0.266383	-0.359744
41629		5.951838	-1.779465	7.467292	-0.006187	0.012252	0.007693	-0.127686	0.424805	-0.603760	0.867103	-0.218678	-0.266226	-0.359773
41630		5.957902	-1.727924	7.481271	-0.005202	0.006037	0.000953	-0.115967	0.416992	-0.608643	0.867098	-0.218752	-0.266166	-0.359783
41631		5.993953	-1.861299	7.488582	0.001431	-0.000347	-0.000588	-0.119385	0.427002	-0.612549	0.867113	-0.218738	-0.266097	-0.359807
41632		6.016347	-1.877956	7.511045	0.001412	-0.002452	-0.000838	-0.121826	0.426025	-0.612793	0.867070	-0.218802	-0.266016	-0.359931
41633		6.006281	-1.824304	7.513726	-0.001362	-0.009185	0.000576	-0.124756	0.422363	-0.613281	0.867016	-0.218896	-0.266003	-0.360014
41634		6.010038	-1.846551	7.484297	-0.001773	-0.009957	0.005652	-0.120361	0.420410	-0.613281	0.866995	-0.218965	-0.266038	-0.359998
41635		6.032723	-1.909959	7.481168	0.007002	-0.009379	-0.001756	-0.117188	0.425049	-0.612305	0.866973	-0.218946	-0.266074	-0.360034
41636		6.001867	-1.878362	7.477459	0.015126	-0.010235	-0.008503	-0.117676	0.416260	-0.606689	0.866919	-0.218909	-0.266092	-0.360174
41637		6.107407	-1.824283	7.507933	0.018787	-0.010603	-0.009358	-0.119629	0.425293	-0.604736	0.866922	-0.218778	-0.266188	-0.360175
41638		6.034512	-1.836877	7.512145	0.013526	-0.010438	-0.003790	-0.123047	0.429199	-0.607666	0.866892	-0.218777	-0.266222	-0.360223
41639		6.014567	-1.815124	7.509320	0.013023	-0.012981	-0.002139	-0.125244	0.424805	-0.613281	0.866838	-0.218811	-0.266277	-0.360292
41640		6.012203	-1.840866	7.491652	0.014547	-0.011998	-0.004669	-0.125000	0.425293	-0.606445	0.866794	-0.218773	-0.266376	-0.360347
41641		6.003249	-1.784606	7.494000	0.017072	-0.014681	-0.008325	-0.121338	0.415283	-0.603271	0.866748	-0.218733	-0.266510	-0.360382
41642		6.008030	-1.845966	7.460729	0.028963	-0.012470	-0.017628	-0.123047	0.423584	-0.611084	0.866755	-0.218509	-0.266705	-0.360358
41643		5.996151	-1.852211	7.463819	0.064054	-0.007594	-0.041711	-0.127441	0.423828	-0.612061	0.866705	-0.218023	-0.266967	-0.360579
41644		5.928426	-1.851889	7.398524	0.135019	0.002976	-0.084255	-0.124268	0.412842	-0.614990	0.866677	-0.216894	-0.267478	-0.360947
41645		5.954512	-1.787921	7.471710	0.197849	0.007414	-0.123110	-0.126221	0.416504	-0.610596	0.866694	-0.215137	-0.268233	-0.361399
41646		5.982117	-1.698871	7.480831	0.231849	0.005337	-0.144430	-0.125977	0.415771	-0.612061	0.866682	-0.213148	-0.269125	-0.361943
41647		6.055075	-1.500895	7.587073	0.239072	0.000649	-0.146929	-0.127197	0.411377	-0.609131	0.866649	-0.211134	-0.270053	-0.362509
41648		6.074916	-1.571809	7.599419	0.207391	-0.005162	-0.128212	-0.123535	0.406494	-0.612793	0.866619	-0.209397	-0.270911	-0.362947
41649		6.091822	-1.571699	7.556432	0.165574	-0.007597	-0.106210	-0.126221	0.411865	-0.616455	0.866578	-0.208006	-0.271589	-0.363340
41650		6.086007	-1.573911	7.575256	0.129986	-0.011035	-0.088396	-0.124512	0.401367	-0.614990	0.866479	-0.206976	-0.272125	-0.363764
41651		6.070813	-1.506169	7.570328	0.110720	-0.013876	-0.075343	-0.132080	0.401611	-0.618896	0.866426	-0.206054	-0.272634	-0.364031
41652		6.082417	-1.473850	7.600349	0.085181	-0.016033	-0.066513	-0.129639	0.400879	-0.626221	0.866343	-0.205334	-0.273121	-0.364270
41653		6.131100	-1.526428	7.537154	0.064191	-0.014293	-0.054574	-0.132812	0.403076	-0.622559	0.866243	-0.204791	-0.273470	-0.364551
41654		6.101734	-1.480747	7.554121	0.058305	-0.007632	-0.052773	-0.132324	0.405273	-0.619141	0.866151	-0.204297	-0.273765	-0.364827
41655		6.091404	-1.574087	7.531621	0.059883	-0.007438	-0.057550	-0.127686	0.400879	-0.619385	0.866041	-0.203810	-0.274050	-0.365146
41656		6.027104	-1.568385	7.546350	0.050171	-0.008304	-0.062135	-0.136475	0.402344	-0.621826	0.865911	-0.203367	-0.274293	-0.365519
41657		6.105222	-1.473936	7.519106	0.050010	-0.013512	-0.063826	-0.134766	0.403320	-0.615234	0.865757	-0.202932	-0.274641	-0.365863
41658		6.107947	-1.414617	7.542164	0.041506	-0.011810	-0.057056	-0.132568	0.390137	-0.619385	0.865620	-0.202593	-0.274918	-0.366167
41659		6.065730	-1.481569	7.514980	0.038808	-0.014339	-0.055084	-0.137695	0.402588	-0.619629	0.865528	-0.202181	-0.275245	-0.366365
41660		6.048795	-1.445600	7.552047	0.030095	-0.023397	-0.048424	-0.134277	0.389160	-0.622314	0.865362	-0.201974	-0.275566	-0.366631
41661		6.105792	-1.444555	7.539614	0.029757	-0.019092	-0.050242	-0.138184	0.398926	-0.624268	0.865252	-0.201650	-0.275894	-0.366823
41662		6.081416	-1.470008	7.524354	0.028488	-0.019847	-0.048645	-0.136963	0.404785	-0.622803	0.865092	-0.201418	-0.276190	-0.367106
41663		6.098116	-1.450280	7.499282	0.024367	-0.022059	-0.046058	-0.134766	0.391602	-0.622559	0.864902	-0.201283	-0.276435	-0.367442
41664		6.151211	-1.380429	7.537405	0.022704	-0.019317	-0.038898	-0.135254	0.396973	-0.619385	0.864795	-0.201069	-0.276693	-0.367616
41665		6.120898	-1.410240	7.554139	0.020969	-0.020501	-0.035367	-0.136719	0.397705	-0.619141	0.864675	-0.200929	-0.276920	-0.367803
41666		6.122770	-1.411300	7.511857	0.023115	-0.019671	-0.033477	-0.138428	0.395020	-0.622314	0.864563	-0.200781	-0.277150	-0.367974
41667		6.128957	-1.376121	7.526535	0.028170	-0.013972	-0.034338	-0.136963	0.396240	-0.617188	0.864475	-0.200553	-0.277377	-0.368135
41668		6.115628	-1.344348	7.511416	0.025765	-0.010790	-0.034850	-0.139648	0.394043	-0.610596	0.864393	-0.200351	-0.277556	-0.368303
41669		6.135662	-1.337475	7.521038	0.025247	-0.005404	-0.037680	-0.142822	0.395996	-0.622803	0.864338	-0.200117	-0.277741	-0.368420
41670		6.106864	-1.338566	7.555160	0.025105	-0.005897	-0.033521	-0.135986	0.392090	-0.619629	0.864258	-0.199896	-0.277918	-0.368594
41671		6.102791	-1.385252	7.543893	0.024788	-0.007922	-0.035982	-0.135498	0.392334	-0.625488	0.864185	-0.199665	-0.278073	-0.368773
41672		6.080127	-1.384098	7.545551	0.025499	-0.009388	-0.039097	-0.136719	0.392822	-0.626221	0.864085	-0.199427	-0.278230	-0.369018
41673		6.107116	-1.370943	7.543007	0.026953	-0.013915	-0.040139	-0.136230	0.396973	-0.623535	0.863969	-0.199193	-0.278427	-0.369267
41674		6.089548	-1.323744	7.514253	0.023092	-0.018038	-0.038709	-0.138672	0.397705	-0.621826	0.863828	-0.199043	-0.278613	-0.369537
41675		6.108017	-1.294865	7.549900	0.013136	-0.024215	-0.035327	-0.137451	0.391602	-0.620361	0.863667	-0.198998	-0.278821	-0.369781
41676		6.115947	-1.309821	7.540212	0.002162	-0.028332	-0.025674	-0.137451	0.392090	-0.616943	0.863536	-0.199024	-0.279028	-0.369917
41677		6.146599	-1.281200	7.509870	-0.011345	-0.034512	-0.018174	-0.139404	0.386230	-0.617188	0.863397	-0.199191	-0.279224	-0.370004
41678		6.154500	-1.369022	7.500927	-0.013433	-0.036410	-0.009490	-0.145508	0.385742	-0.624756	0.863301	-0.199350	-0.279459	-0.369965
41679		6.150375	-1.399994	7.513602	-0.009738	-0.033288	-0.012167	-0.144531	0.386719	-0.617920	0.863194	-0.199447	-0.279727	-0.369958
41680		6.159458	-1.415030	7.523272	-0.007300	-0.030938	-0.013221	-0.142578	0.391846	-0.619385	0.863103	-0.199534	-0.279979	-0.369933
41681		6.169775	-1.343668	7.485753	-0.004299	-0.028452	-0.013000	-0.135254	0.394775	-0.611084	0.863000	-0.199633	-0.280173	-0.369973
41682		6.183633	-1.304664	7.507186	-0.003307	-0.023680	-0.013229	-0.142822	0.395508	-0.628662	0.862918	-0.199748	-0.280267	-0.370033
41683		6.193725	-1.294497	7.513358	-0.003135	-0.020045	-0.006386	-0.144775	0.393311	-0.611084	0.862825	-0.199843	-0.280361	-0.370127
41684		6.189117	-1.303990	7.502783	-0.006168	-0.018318	-0.006181	-0.147461	0.399414	-0.621582	0.862773	-0.199958	-0.280479	-0.370096
41685		6.165466	-1.332061	7.527694	-0.014449	-0.019893	0.001480	-0.136475	0.392822	-0.622803	0.862683	-0.200184	-0.280548	-0.370131
41686		6.147218	-1.244777	7.540756	-0.037163	-0.021407	0.013793	-0.142578	0.398193	-0.623535	0.862618	-0.200565	-0.280477	-0.370132
41687		6.199261	-1.339529	7.467128	-0.052890	-0.020797	0.027656	-0.147705	0.394043	-0.617920	0.862546	-0.201119	-0.280354	-0.370090
41688		6.191567	-1.446795	7.482678	-0.035347	-0.015766	0.019263	-0.143066	0.397705	-0.619141	0.862517	-0.201477	-0.280336	-0.369978
41689		6.188416	-1.386109	7.510614	-0.029983	-0.014853	0.014794	-0.147705	0.393311	-0.610107	0.862471	-0.201810	-0.280279	-0.369946
41690		6.158747	-1.339130	7.500120	-0.040849	-0.012166	0.020945	-0.139648	0.396973	-0.624756	0.862465	-0.202199	-0.280231	-0.369784
41691		6.195630	-1.352296	7.496534	-0.067592	-0.016695	0.033663	-0.146484	0.388916	-0.621094	0.862406	-0.202834	-0.280012	-0.369741
41692		6.191641	-1.255720	7.546149	-0.123260	-0.020538	0.070607	-0.145752	0.394531	-0.611572	0.862389	-0.203903	-0.279689	-0.369435
41693		6.213082	-1.359128	7.458450	-0.158246	-0.030257	0.095804	-0.139893	0.396484	-0.611572	0.862367	-0.205354	-0.279271	-0.368999
41694		6.114828	-1.514333	7.352288	-0.120310	-0.035581	0.085774	-0.145996	0.399658	-0.616455	0.862366	-0.206527	-0.278978	-0.368568
41695		6.172047	-1.755427	7.372945	-0.036434	-0.022076	0.034033	-0.148438	0.413574	-0.613037	0.862360	-0.206937	-0.278970	-0.368360
41696		6.133325	-1.703335	7.468888	0.005704	0.000812	-0.002209	-0.142822	0.403320	-0.620605	0.862326	-0.206987	-0.278949	-0.368427
41697		6.135706	-1.464582	7.534459	0.026825	0.006606	-0.022004	-0.143799	0.400391	-0.619873	0.862309	-0.206741	-0.278981	-0.368580
41698		6.128668	-1.403957	7.505121	0.019021	0.001268	-0.016759	-0.140137	0.400635	-0.613770	0.862291	-0.206562	-0.279038	-0.368678
41699		6.188296	-1.402006	7.482039	0.014164	-0.000815	-0.009070	-0.139648	0.400146	-0.620605	0.862297	-0.206456	-0.279058	-0.368710
41700		6.218321	-1.457048	7.469619	0.006738	-0.000730	-0.003091	-0.141113	0.399902	-0.608643	0.862298	-0.206405	-0.279034	-0.368753
41701		6.146876	-1.448583	7.471855	0.006261	0.003045	-0.000707	-0.140381	0.398926	-0.612793	0.862333	-0.206367	-0.279004	-0.368715
41702		6.168567	-1.466629	7.474696	0.008878	0.004288	-0.000736	-0.149902	0.401855	-0.618652	0.862373	-0.206294	-0.278968	-0.368690
41703		6.138696	-1.519441	7.486418	0.022368	0.003649	-0.014285	-0.133545	0.405029	-0.612549	0.862363	-0.206104	-0.279053	-0.368757
41704		6.136708	-1.520782	7.446914	0.037374	0.006594	-0.024791	-0.141357	0.403320	-0.615723	0.862372	-0.205808	-0.279049	-0.368902
41705		6.092972	-1.488438	7.509400	0.048994	0.001651	-0.036272	-0.137451	0.406738	-0.621826	0.862344	-0.205403	-0.279197	-0.369081
41706		6.087505	-1.468461	7.457006	0.067743	-0.002786	-0.050588	-0.146973	0.398193	-0.625488	0.862277	-0.204862	-0.279405	-0.369382
41707		6.119201	-1.510378	7.446165	0.080024	-0.002860	-0.064538	-0.140625	0.390625	-0.616699	0.862194	-0.204141	-0.279774	-0.369695
41708		6.124743	-1.529161	7.485895	0.090251	-0.004041	-0.077201	-0.137451	0.388428	-0.617676	0.862130	-0.203292	-0.280194	-0.369994
41709		6.135361	-1.366709	7.471991	0.086801	-0.008203	-0.083157	-0.139404	0.399902	-0.618408	0.862039	-0.202459	-0.280619	-0.370341
41710		6.178301	-1.319331	7.508000	0.079059	-0.012220	-0.079893	-0.143799	0.393066	-0.625000	0.861895	-0.201784	-0.281000	-0.370754
41711		6.237902	-1.263758	7.467338	0.065200	-0.007292	-0.068140	-0.140625	0.391357	-0.615723	0.861776	-0.201174	-0.281328	-0.371114
41712		6.227724	-1.244970	7.446388	0.047119	-0.003028	-0.049340	-0.143311	0.396484	-0.608887	0.861719	-0.200732	-0.281527	-0.371334
41713		6.260189	-1.237143	7.498624	0.038197	-0.002635	-0.033146	-0.150391	0.394287	-0.616699	0.861692	-0.200438	-0.281671	-0.371448
41714		6.217545	-1.304778	7.493923	0.029084	0.001736	-0.025122	-0.155029	0.393799	-0.620850	0.861666	-0.200192	-0.281790	-0.371551
41715		6.223952	-1.293633	7.482811	0.022164	0.002734	-0.015637	-0.147705	0.396240	-0.622559	0.861647	-0.200009	-0.281892	-0.371616
41716		6.210429	-1.237664	7.484989	0.009377	0.008692	0.000918	-0.141357	0.394043	-0.616699	0.861673	-0.199952	-0.281817	-0.371643
41717		6.168695	-1.168263	7.516783	-0.005894	0.006278	0.014670	-0.141357	0.388428	-0.623779	0.861734	-0.200039	-0.281661	-0.371571
41718		6.197748	-1.296415	7.507380	-0.007062	0.001813	0.021270	-0.138672	0.391846	-0.619873	0.861807	-0.200115	-0.281540	-0.371454
41719		6.180850	-1.326016	7.449954	-0.004631	0.004165	0.020211	-0.144531	0.383301	-0.621582	0.861888	-0.200191	-0.281384	-0.371344
41720		6.163211	-1.321233	7.481423	-0.003628	0.006831	0.019767	-0.143066	0.390625	-0.620605	0.861985	-0.200193	-0.281289	-0.371188
41721		6.172228	-1.285876	7.506094	-0.006535	0.006162	0.022972	-0.144775	0.390381	-0.621826	0.862072	-0.200273	-0.281149	-0.371051
41722		6.164678	-1.296290	7.518258	-0.018569	0.004360	0.035745	-0.143066	0.394775	-0.622559	0.862168	-0.200472	-0.280976	-0.370850
41723		6.183966	-1.329176	7.479911	-0.023116	0.001697	0.040306	-0.145508	0.396973	-0.615723	0.862256	-0.200746	-0.280774	-0.370650
41724		6.132866	-1.416818	7.486213	-0.024512	0.005424	0.039149	-0.141113	0.394043	-0.623047	0.862348	-0.201038	-0.280563	-0.370438
41725		6.197451	-1.415096	7.471602	-0.020563	0.012165	0.033737	-0.146729	0.394531	-0.613525	0.862449	-0.201235	-0.280301	-0.370295
41726		6.169949	-1.379017	7.497475	-0.014852	0.010900	0.031282	-0.148926	0.393555	-0.621094	0.862552	-0.201406	-0.280121	-0.370096
41727		6.118057	-1.398804	7.482169	-0.006216	0.008195	0.025411	-0.142334	0.387451	-0.616455	0.862632	-0.201492	-0.280010	-0.369948
41728		6.115791	-1.469706	7.485027	0.004522	0.007907	0.016252	-0.147217	0.395752	-0.616699	0.862734	-0.201446	-0.279935	-0.369791
41729		6.097510	-1.465947	7.496398	0.016097	0.001655	0.006749	-0.139648	0.401123	-0.615234	0.862782	-0.201369	-0.279959	-0.369705
41730		6.049604	-1.569277	7.455675	0.036038	0.001679	-0.014161	-0.136475	0.394775	-0.616699	0.862803	-0.201130	-0.280010	-0.369747
41731		6.136063	-1.433533	7.492577	0.047221	-0.002906	-0.031095	-0.141602	0.389160	-0.623779	0.862798	-0.200744	-0.280157	-0.369856
41732		6.117655	-1.329319	7.529188	0.046278	-0.006363	-0.032861	-0.139160	0.385010	-0.615967	0.862770	-0.200333	-0.280373	-0.369980
41733		6.088640	-1.382556	7.500245	0.052545	-0.012210	-0.039884	-0.143066	0.390381	-0.624512	0.862742	-0.199868	-0.280667	-0.370074
41734		6.155888	-1.319759	7.487710	0.050827	-0.010508	-0.043511	-0.142334	0.394775	-0.626953	0.862672	-0.199427	-0.280941	-0.370267
41735		6.182617	-1.303659	7.485515	0.044426	-0.009863	-0.038173	-0.143555	0.398682	-0.620850	0.862598	-0.199068	-0.281155	-0.370470
41736		6.197096	-1.347854	7.484691	0.041058	-0.003333	-0.034384	-0.139404	0.389404	-0.623047	0.862543	-0.198760	-0.281303	-0.370653
41737		6.200476	-1.264131	7.523321	0.029075	-0.003818	-0.023583	-0.142090	0.395508	-0.621338	0.862524	-0.198505	-0.281399	-0.370760
41738		6.206144	-1.142133	7.511309	0.003676	-0.001612	-0.008521	-0.140869	0.391846	-0.620605	0.862499	-0.198505	-0.281373	-0.370838
41739		6.159511	-1.263574	7.535820	-0.014570	-0.003859	0.010649	-0.136719	0.395264	-0.621826	0.862508	-0.198666	-0.281280	-0.370800
41740		6.172020	-1.306358	7.468486	-0.011414	-0.000353	0.012087	-0.138428	0.391113	-0.623779	0.862536	-0.198810	-0.281130	-0.370773
41741		6.199512	-1.389996	7.461716	-0.004051	0.005889	0.006704	-0.146729	0.393799	-0.623047	0.862574	-0.198842	-0.280992	-0.370771
41742		6.205247	-1.329990	7.514145	-0.003102	0.014864	0.006893	-0.147217	0.391113	-0.612061	0.862615	-0.198864	-0.280839	-0.370779
41743		6.210720	-1.253792	7.521592	-0.011224	0.016407	0.016024	-0.147461	0.390869	-0.623535	0.862696	-0.198961	-0.280662	-0.370674
41744		6.134444	-1.343464	7.531741	-0.010039	0.010378	0.017933	-0.142090	0.394775	-0.618896	0.862752	-0.199054	-0.280520	-0.370602
41745		6.116580	-1.373118	7.475183	-0.006179	0.012411	0.016257	-0.146973	0.400879	-0.626465	0.862824	-0.199132	-0.280337	-0.370531
41746		6.119613	-1.390413	7.489497	-0.005990	0.012098	0.009885	-0.142334	0.392578	-0.622803	0.862843	-0.199222	-0.280172	-0.370561
41747		6.130643	-1.329128	7.509698	-0.006766	0.009645	0.009364	-0.137451	0.395752	-0.616455	0.862883	-0.199277	-0.280027	-0.370547
41748		6.142652	-1.265544	7.549921	-0.021772	0.008780	0.020157	-0.139648	0.394287	-0.620361	0.862943	-0.199492	-0.279791	-0.370472
41749		6.152258	-1.283012	7.551102	-0.055986	0.005099	0.041160	-0.138916	0.399902	-0.614990	0.862994	-0.199998	-0.279458	-0.370332
41750		6.172860	-1.366852	7.509447	-0.078409	0.002231	0.057710	-0.146973	0.397949	-0.618164	0.863051	-0.200747	-0.279036	-0.370111
41751		6.129268	-1.384971	7.520609	-0.078876	0.001836	0.059604	-0.144043	0.394043	-0.620605	0.863096	-0.201489	-0.278674	-0.369876
41752		6.096347	-1.512556	7.446933	-0.047460	0.004558	0.045019	-0.137451	0.395020	-0.616455	0.863163	-0.201929	-0.278408	-0.369679
41753		6.170227	-1.430192	7.458637	-0.020235	0.008197	0.022725	-0.140869	0.400146	-0.618164	0.863232	-0.202113	-0.278201	-0.369574
41754		6.154849	-1.397879	7.506388	-0.005005	0.018183	0.017264	-0.135010	0.397705	-0.618408	0.863315	-0.202171	-0.277984	-0.369512
41755		6.141821	-1.387185	7.527317	-0.003715	0.019470	0.021038	-0.141846	0.394287	-0.622803	0.863429	-0.202205	-0.277727	-0.369420
41756		6.137827	-1.458329	7.531381	-0.003833	0.021864	0.018048	-0.135254	0.397461	-0.621826	0.863525	-0.202206	-0.277511	-0.369357
41757		6.109356	-1.470114	7.515139	-0.000860	0.018833	0.019813	-0.141357	0.396973	-0.623779	0.863632	-0.202212	-0.277275	-0.369282
41758		6.099675	-1.482310	7.508141	-0.006597	0.012505	0.023572	-0.128418	0.402832	-0.620850	0.863712	-0.202287	-0.277101	-0.369183
41759		6.112407	-1.416077	7.569239	-0.017359	0.008096	0.026872	-0.134277	0.394531	-0.616455	0.863791	-0.202486	-0.276824	-0.369097
41760		6.140819	-1.416249	7.534792	-0.049064	0.004459	0.049698	-0.141113	0.394531	-0.620361	0.863890	-0.202941	-0.276510	-0.368853
41761		6.157160	-1.318712	7.543924	-0.088074	-0.000655	0.074084	-0.136719	0.405518	-0.614746	0.863966	-0.203745	-0.276115	-0.368526
41762		6.174598	-1.434491	7.505175	-0.109860	-0.000685	0.087831	-0.136475	0.405762	-0.622070	0.864044	-0.204795	-0.275579	-0.368161
41763		6.214636	-1.564449	7.509548	-0.111012	0.010137	0.091702	-0.132568	0.409180	-0.617188	0.864144	-0.205811	-0.274952	-0.367830
41764		6.137502	-1.585780	7.469193	-0.093521	0.018030	0.085729	-0.128662	0.404785	-0.618652	0.864281	-0.206676	-0.274309	-0.367502
41765		6.183771	-1.587010	7.505660	-0.081224	0.021820	0.085002	-0.127930	0.403320	-0.615967	0.864455	-0.207406	-0.273672	-0.367157
41766		6.138234	-1.586298	7.493865	-0.075899	0.026139	0.088320	-0.136230	0.402344	-0.609375	0.864665	-0.208081	-0.273027	-0.366760
41767		6.065958	-1.611748	7.509132	-0.065552	0.024288	0.091655	-0.135254	0.399414	-0.611816	0.864899	-0.208698	-0.272495	-0.366254
41768		6.059754	-1.584366	7.512980	-0.053900	0.021898	0.085815	-0.128174	0.411133	-0.619141	0.865130	-0.209201	-0.272032	-0.365765
41769		6.025565	-1.588929	7.502936	-0.042547	0.022178	0.083368	-0.128662	0.408691	-0.623047	0.865353	-0.209658	-0.271523	-0.365353
41770		5.991545	-1.654100	7.534632	-0.042025	0.015522	0.078540	-0.137695	0.411621	-0.608643	0.865541	-0.210101	-0.271085	-0.364978
41771		5.994701	-1.703868	7.520277	-0.031906	0.017441	0.065226	-0.126221	0.420410	-0.607422	0.865715	-0.210472	-0.270759	-0.364595
41772		5.967233	-1.762602	7.519569	-0.023934	0.010626	0.054486	-0.122559	0.415771	-0.617188	0.865859	-0.210818	-0.270431	-0.364295
41773		6.028718	-1.740722	7.533366	-0.015228	0.007038	0.046488	-0.126709	0.415283	-0.607666	0.865983	-0.211052	-0.270154	-0.364070
41774		6.065266	-1.573698	7.513758	-0.012608	0.006161	0.046235	-0.129883	0.415039	-0.618652	0.866119	-0.211281	-0.269935	-0.363777
41775		6.060522	-1.558144	7.541908	-0.016646	0.005777	0.052215	-0.123779	0.411621	-0.610596	0.866241	-0.211538	-0.269706	-0.363507
41776		6.079547	-1.633167	7.520750	-0.024795	0.009520	0.061453	-0.136475	0.409424	-0.600098	0.866413	-0.211852	-0.269395	-0.363145
41777		6.056879	-1.706776	7.532587	-0.017725	0.008639	0.060622	-0.126709	0.412842	-0.618896	0.866596	-0.212121	-0.269217	-0.362682
41778		5.934457	-1.654316	7.496452	-0.013701	0.006930	0.054392	-0.129150	0.410889	-0.603027	0.866739	-0.212339	-0.268984	-0.362385
41779		5.961645	-1.670889	7.507563	-0.009314	0.001734	0.042607	-0.127930	0.413818	-0.607910	0.866868	-0.212525	-0.268865	-0.362057
41780		5.928508	-1.689455	7.500663	-0.000551	-0.001073	0.027305	-0.127441	0.415527	-0.610596	0.866947	-0.212629	-0.268799	-0.361855
41781		5.978693	-1.677081	7.517084	0.009323	-0.005747	0.014320	-0.126221	0.415039	-0.614502	0.866987	-0.212651	-0.268811	-0.361737
41782		6.047628	-1.664022	7.543211	0.006446	-0.005559	0.010148	-0.123779	0.409180	-0.609863	0.867008	-0.212675	-0.268810	-0.361675
41783		6.039359	-1.723916	7.489973	0.007637	-0.006111	0.010504	-0.131592	0.413086	-0.614990	0.867051	-0.212669	-0.268824	-0.361563
41784		6.040397	-1.676355	7.513345	0.012394	-0.006709	0.006791	-0.123779	0.402588	-0.616699	0.867062	-0.212639	-0.268894	-0.361502
41785		6.075216	-1.698842	7.557218	0.009399	-0.008149	0.017269	-0.125488	0.417725	-0.611328	0.867127	-0.212602	-0.268931	-0.361340
41786		6.088532	-1.688237	7.533280	0.006017	-0.004987	0.022795	-0.117432	0.411621	-0.616943	0.867187	-0.212673	-0.268893	-0.361184
41787		6.070900	-1.686596	7.543570	-0.002380	-0.001930	0.027622	-0.117920	0.415771	-0.612549	0.867271	-0.212765	-0.268768	-0.361021
41788		6.041578	-1.767205	7.525951	-0.004645	0.003087	0.030550	-0.126465	0.410645	-0.611816	0.867368	-0.212890	-0.268590	-0.360846
41789		5.993779	-1.712182	7.528990	-0.002049	0.001697	0.024936	-0.121338	0.415283	-0.607422	0.867444	-0.212969	-0.268508	-0.360677
41790		6.023261	-1.706933	7.495121	-0.000067	0.003086	0.020469	-0.127930	0.416016	-0.611084	0.867521	-0.213043	-0.268392	-0.360536
41791		6.067154	-1.741826	7.540930	-0.005066	0.005090	0.019998	-0.121338	0.415771	-0.618164	0.867572	-0.213149	-0.268280	-0.360434
41792		6.001385	-1.773135	7.527918	-0.006721	0.008936	0.016647	-0.129150	0.416748	-0.604004	0.867621	-0.213234	-0.268100	-0.360398
41793		6.016876	-1.691948	7.524488	-0.006908	0.005824	0.015187	-0.121826	0.406494	-0.614502	0.867663	-0.213350	-0.268000	-0.360304
41794		6.000386	-1.759483	7.483744	-0.002235	0.003908	0.013430	-0.131348	0.413574	-0.615723	0.867720	-0.213370	-0.267915	-0.360217
41795		6.011142	-1.810302	7.502794	0.008603	0.009759	0.005106	-0.134033	0.412354	-0.604248	0.867752	-0.213312	-0.267865	-0.360212
41796		6.054277	-1.754099	7.556258	0.015756	0.010147	0.002340	-0.122803	0.420654	-0.606689	0.867800	-0.213205	-0.267866	-0.360158
41797		6.069867	-1.713361	7.550441	0.007516	0.012121	0.008159	-0.127441	0.409912	-0.608398	0.867858	-0.213194	-0.267727	-0.360129
41798		6.053960	-1.728952	7.554911	0.002216	0.013110	0.015960	-0.119873	0.416504	-0.611328	0.867941	-0.213188	-0.267611	-0.360019
41799		6.025228	-1.742895	7.517280	-0.002133	0.013336	0.025071	-0.124268	0.416504	-0.609131	0.868043	-0.213254	-0.267402	-0.359890
41800		6.019537	-1.726871	7.525961	-0.003256	0.011489	0.027662	-0.121094	0.415039	-0.616211	0.868139	-0.213345	-0.267225	-0.359736
41801		5.997095	-1.794519	7.538362	-0.003207	0.008588	0.025247	-0.128418	0.414062	-0.608398	0.868222	-0.213421	-0.267059	-0.359612
41802		6.011702	-1.804763	7.508225	0.002452	0.008509	0.030396	-0.122070	0.422363	-0.608643	0.868326	-0.213476	-0.266950	-0.359409
41803		6.004025	-1.765510	7.544618	0.009589	0.006784	0.027404	-0.124023	0.424316	-0.614990	0.868426	-0.213512	-0.266820	-0.359244
41804		5.997998	-1.795332	7.529574	0.007638	0.011222	0.027187	-0.123779	0.416260	-0.606689	0.868516	-0.213550	-0.266654	-0.359127
41805		5.985129	-1.787062	7.529685	0.012155	0.008793	0.029567	-0.120605	0.418701	-0.617920	0.868641	-0.213540	-0.266548	-0.358909
41806		5.977665	-1.790747	7.562892	0.015850	0.003926	0.031404	-0.112061	0.423828	-0.613281	0.868755	-0.213520	-0.266455	-0.358714
41807		5.992576	-1.756014	7.536051	0.012449	0.005007	0.036684	-0.121338	0.414551	-0.605957	0.868889	-0.213559	-0.266274	-0.358499
41808		5.994179	-1.821721	7.525992	0.007271	0.002820	0.045237	-0.122314	0.424561	-0.618164	0.869047	-0.213629	-0.266168	-0.358153
41809		5.935730	-1.800844	7.524481	0.010715	-0.003853	0.053154	-0.116211	0.424561	-0.619873	0.869182	-0.213745	-0.266071	-0.357829
41810		5.956493	-1.780383	7.529866	0.015507	-0.008981	0.052165	-0.117432	0.419678	-0.613037	0.869317	-0.213836	-0.265994	-0.357504
41811		5.954095	-1.717587	7.560264	0.015448	-0.014779	0.056826	-0.120361	0.419189	-0.622803	0.869469	-0.213940	-0.265981	-0.357082
41812		6.127486	-1.775703	7.539578	0.003544	-0.013972	0.068622	-0.119141	0.416016	-0.616943	0.869619	-0.214145	-0.265918	-0.356640
41813		6.019673	-1.811945	7.537476	0.001681	-0.005870	0.084669	-0.110596	0.413330	-0.614990	0.869848	-0.214364	-0.265773	-0.356057
41814		5.929905	-1.806054	7.548491	0.000633	-0.012992	0.087774	-0.121094	0.420898	-0.619873	0.870087	-0.214609	-0.265638	-0.355428
41815		5.933363	-1.873989	7.556371	0.001490	-0.025070	0.085742	-0.116699	0.415771	-0.615479	0.870257	-0.214906	-0.265628	-0.354838
41816		5.964268	-1.918925	7.516469	0.001661	-0.029053	0.084305	-0.116211	0.419189	-0.618896	0.870437	-0.215191	-0.265650	-0.354207
41817		6.042746	-1.774813	7.558507	0.000760	-0.025639	0.088539	-0.117920	0.412598	-0.610596	0.870621	-0.215494	-0.265621	-0.353590
41818		6.030645	-1.822464	7.531234	-0.013358	-0.019700	0.103219	-0.115967	0.419189	-0.609131	0.870865	-0.215887	-0.265525	-0.352821
41819		5.974887	-1.762399	7.550757	-0.019903	-0.020664	0.105026	-0.120117	0.417236	-0.614746	0.871087	-0.216364	-0.265383	-0.352087
41820		5.942153	-1.789536	7.541070	-0.026908	-0.024941	0.106332	-0.110596	0.425781	-0.608887	0.871283	-0.216891	-0.265280	-0.351356
41821		5.908109	-1.863938	7.507252	-0.024292	-0.028744	0.103641	-0.116455	0.427490	-0.614014	0.871463	-0.217444	-0.265138	-0.350674
41822		5.983911	-1.599092	7.569920	-0.028829	-0.030202	0.088163	-0.108887	0.422119	-0.612305	0.871568	-0.218001	-0.265049	-0.350133
41823		5.962347	-1.979641	7.522743	-0.033251	-0.022435	0.075790	-0.119629	0.427002	-0.612061	0.871668	-0.218518	-0.264894	-0.349679
41824		6.017902	-2.019758	7.500783	-0.028541	-0.016219	0.066440	-0.107178	0.422363	-0.607910	0.871744	-0.218974	-0.264773	-0.349295
41825		5.963439	-1.915996	7.503476	-0.024223	-0.018109	0.062456	-0.114014	0.424805	-0.605713	0.871839	-0.219383	-0.264636	-0.348907
41826		6.060097	-1.847886	7.483826	-0.028279	-0.009908	0.057657	-0.109863	0.423096	-0.610840	0.871924	-0.219790	-0.264472	-0.348562
41827		5.940375	-1.957925	7.493911	-0.030442	-0.006163	0.053063	-0.106201	0.423584	-0.608398	0.871998	-0.220184	-0.264265	-0.348285
41828		5.922629	-2.026510	7.472269	-0.014871	0.003050	0.029908	-0.113037	0.421387	-0.609863	0.872058	-0.220391	-0.264061	-0.348159
41829		5.983168	-1.918407	7.524742	-0.011163	0.007388	0.013734	-0.113525	0.421387	-0.614990	0.872089	-0.220506	-0.263917	-0.348118
41830		5.952879	-1.910069	7.514335	-0.020699	0.012247	0.007762	-0.116943	0.422607	-0.609619	0.872087	-0.220660	-0.263721	-0.348173
41831		5.993110	-1.954247	7.519197	-0.024294	0.011859	0.006471	-0.113525	0.429443	-0.609131	0.872079	-0.220841	-0.263542	-0.348215
41832		5.959248	-2.037130	7.481512	-0.022341	0.014002	0.004208	-0.117432	0.431885	-0.611084	0.872056	-0.221026	-0.263310	-0.348330
41833		5.941505	-1.991932	7.496150	-0.019465	0.010873	0.005936	-0.113281	0.422119	-0.610596	0.872025	-0.221209	-0.263120	-0.348435
41834		5.965240	-1.990034	7.494477	-0.016321	0.006624	-0.000782	-0.116455	0.423584	-0.612793	0.872001	-0.221327	-0.263002	-0.348508
41835		6.012168	-2.001176	7.535940	-0.009887	0.009185	0.001720	-0.113770	0.424805	-0.608154	0.871994	-0.221398	-0.262890	-0.348565
41836		5.958205	-1.952571	7.531112	-0.019417	0.012980	0.006166	-0.112061	0.424561	-0.613037	0.871996	-0.221545	-0.262699	-0.348612
41837		5.928000	-1.944289	7.520599	-0.021367	0.007930	0.006017	-0.116699	0.430664	-0.616211	0.871975	-0.221720	-0.262528	-0.348681
41838		5.877853	-2.021834	7.492854	-0.016050	0.004438	0.001187	-0.109863	0.429932	-0.609619	0.871919	-0.221875	-0.262408	-0.348815
41839		5.912673	-1.962656	7.523328	-0.005896	-0.002954	-0.006574	-0.109863	0.427246	-0.605713	0.871856	-0.221964	-0.262353	-0.348955
41840		5.984282	-1.933589	7.504259	-0.008284	-0.002320	-0.012608	-0.109619	0.432373	-0.612793	0.871789	-0.222043	-0.262312	-0.349104
41841		5.940011	-1.914755	7.523891	-0.018831	-0.000365	-0.015029	-0.115723	0.425781	-0.610352	0.871670	-0.222210	-0.262201	-0.349378
41842		5.944973	-1.997492	7.504383	-0.019395	-0.000479	-0.016293	-0.104248	0.430176	-0.608643	0.871573	-0.222341	-0.262161	-0.349567
41843		5.942863	-2.019123	7.528234	-0.010859	-0.002687	-0.019871	-0.120117	0.429199	-0.617676	0.871463	-0.222443	-0.262079	-0.349838
41844		5.994889	-1.966463	7.527132	-0.019012	-0.004277	-0.018667	-0.110840	0.433838	-0.611328	0.871327	-0.222587	-0.262077	-0.350085
41845		5.953789	-1.967647	7.538583	-0.023923	-0.004080	-0.010878	-0.109619	0.425781	-0.609619	0.871199	-0.222814	-0.261970	-0.350341
41846		5.966510	-2.111523	7.475057	-0.019147	-0.004265	-0.009234	-0.109863	0.425537	-0.613770	0.871114	-0.222976	-0.261908	-0.350493
41847		5.915984	-2.058076	7.489275	-0.009221	-0.004435	-0.016329	-0.107422	0.432129	-0.620605	0.871020	-0.223052	-0.261889	-0.350694
41848		5.935682	-2.017643	7.481434	-0.003660	-0.007710	-0.022112	-0.107422	0.428955	-0.600830	0.870870	-0.223122	-0.261868	-0.351038
41849		5.991052	-1.913750	7.524931	-0.010967	-0.003976	-0.017946	-0.114258	0.427979	-0.616211	0.870781	-0.223218	-0.261820	-0.351232
41850		5.995672	-2.038999	7.501493	-0.008521	-0.005416	-0.014084	-0.117432	0.426025	-0.613770	0.870680	-0.223301	-0.261817	-0.351433
41851		5.945149	-1.984635	7.515980	-0.011808	-0.001892	-0.021184	-0.103027	0.427002	-0.611572	0.870575	-0.223366	-0.261824	-0.351646
41852		5.904453	-1.942302	7.511155	-0.002623	-0.006075	-0.033184	-0.108398	0.434082	-0.608398	0.870430	-0.223383	-0.261816	-0.352000
41853		5.907292	-2.044889	7.495620	0.000471	-0.003892	-0.050857	-0.111084	0.429443	-0.610596	0.870226	-0.223351	-0.261832	-0.352512
41854		5.906985	-2.088035	7.450869	0.013903	-0.005145	-0.072681	-0.106201	0.421387	-0.610840	0.869995	-0.223155	-0.261973	-0.353101
41855		5.888564	-1.950014	7.463847	0.036417	-0.010049	-0.091747	-0.105469	0.427246	-0.617432	0.869764	-0.222746	-0.262257	-0.353717
41856		5.926146	-2.029964	7.435791	0.064282	-0.013375	-0.113034	-0.108643	0.426514	-0.604492	0.869466	-0.222138	-0.262637	-0.354550
41857		6.047258	-1.971106	7.466740	0.073517	-0.014673	-0.101575	-0.112305	0.423340	-0.607422	0.869254	-0.221472	-0.263061	-0.355171
41858		5.989826	-1.929732	7.498555	0.069198	-0.013849	-0.087208	-0.102783	0.425293	-0.614502	0.869085	-0.220852	-0.263468	-0.355667
41859		5.994187	-1.956508	7.495499	0.071287	-0.023356	-0.078029	-0.123779	0.423828	-0.614258	0.868876	-0.220314	-0.263842	-0.356235
41860		6.059495	-1.873040	7.543880	0.050281	-0.027054	-0.061453	-0.114502	0.421387	-0.609619	0.868709	-0.219918	-0.264289	-0.356557
41861		6.026804	-1.948323	7.516306	0.031946	-0.024581	-0.042218	-0.114746	0.416748	-0.614746	0.868575	-0.219702	-0.264578	-0.356800
41862		6.105120	-1.858119	7.560202	0.015446	-0.026272	-0.025937	-0.107422	0.424316	-0.604980	0.868460	-0.219633	-0.264817	-0.356945
41863		6.140037	-1.844961	7.544212	0.001937	-0.021864	-0.004800	-0.116699	0.419922	-0.614258	0.868373	-0.219739	-0.264863	-0.357058
41864		6.094157	-1.837642	7.501034	-0.016439	-0.017019	0.011535	-0.119629	0.423096	-0.610596	0.868319	-0.219968	-0.264862	-0.357049
41865		6.043539	-1.873075	7.527412	-0.027824	-0.015762	0.021458	-0.113037	0.424316	-0.613770	0.868279	-0.220299	-0.264807	-0.356983
41866		5.998970	-1.933010	7.473144	-0.028027	-0.013861	0.022639	-0.116211	0.415527	-0.611084	0.868217	-0.220657	-0.264681	-0.357007
41867		6.024714	-1.932937	7.469148	-0.018947	-0.009783	0.012478	-0.118164	0.429199	-0.608154	0.868212	-0.220855	-0.264651	-0.356918
41868		5.972430	-1.969601	7.476060	-0.004829	-0.010151	0.005701	-0.114502	0.421631	-0.611816	0.868157	-0.220994	-0.264616	-0.356992
41869		5.951810	-1.909039	7.455994	0.006587	-0.009305	-0.003991	-0.122314	0.418213	-0.609863	0.868114	-0.221006	-0.264641	-0.357071
41870		6.019578	-1.832648	7.492457	0.008899	-0.006438	-0.011335	-0.120117	0.420410	-0.608398	0.868103	-0.220932	-0.264743	-0.357069
41871		6.014812	-1.862849	7.455337	-0.002007	-0.004768	-0.003310	-0.115723	0.425537	-0.605469	0.868086	-0.220966	-0.264757	-0.357078
41872		6.070624	-1.822885	7.487274	-0.008604	-0.003662	0.008255	-0.118164	0.429688	-0.608887	0.868069	-0.221103	-0.264667	-0.357101
41873		6.065256	-1.827441	7.518863	-0.010647	-0.002623	0.009770	-0.110352	0.421631	-0.608398	0.868026	-0.221274	-0.264548	-0.357187
41874		5.996227	-1.926044	7.505828	-0.009604	-0.003687	0.014239	-0.117920	0.415283	-0.606445	0.868024	-0.221432	-0.264430	-0.357182
41875		5.976554	-1.974180	7.471555	-0.006179	-0.005588	0.006774	-0.119629	0.420410	-0.606689	0.868061	-0.221494	-0.264445	-0.357043
41876		6.034205	-1.956600	7.475547	-0.003449	-0.001507	-0.000295	-0.112549	0.426758	-0.608398	0.868066	-0.221530	-0.264430	-0.357020
41877		6.033267	-1.960332	7.454889	-0.005585	-0.000173	-0.001946	-0.109131	0.424561	-0.602051	0.868012	-0.221628	-0.264317	-0.357174
41878		6.036502	-1.867355	7.502355	-0.010468	-0.000017	0.005885	-0.118408	0.427002	-0.602539	0.868000	-0.221766	-0.264175	-0.357222
41879		6.037843	-1.906910	7.539385	-0.012270	-0.000369	0.011558	-0.116455	0.424316	-0.605469	0.868005	-0.221915	-0.264067	-0.357197
41880		6.026825	-1.969988	7.485971	-0.019250	0.001627	0.023081	-0.115967	0.425781	-0.608887	0.868037	-0.222131	-0.263902	-0.357107
41881		5.978617	-1.962851	7.465061	-0.020343	0.001898	0.025895	-0.114746	0.435303	-0.605713	0.868056	-0.222373	-0.263713	-0.357050
41882		5.959213	-1.897334	7.506812	-0.016166	-0.000475	0.026026	-0.122070	0.427490	-0.608398	0.868037	-0.222635	-0.263496	-0.357093
41883		6.040539	-2.032268	7.470278	-0.011531	0.000466	0.026669	-0.117188	0.424072	-0.608643	0.868080	-0.222805	-0.263378	-0.356969
41884		5.964482	-2.009639	7.459375	-0.008794	0.002949	0.024711	-0.114746	0.427002	-0.600342	0.868136	-0.222940	-0.263244	-0.356848
41885		5.955353	-1.911692	7.485765	-0.000350	-0.000505	0.023037	-0.116699	0.430176	-0.610596	0.868205	-0.223025	-0.263146	-0.356698
41886		6.016412	-1.911351	7.502808	0.001942	-0.005839	0.023258	-0.118164	0.429688	-0.597900	0.868217	-0.223139	-0.263072	-0.356653
41887		6.036431	-1.936959	7.483941	-0.001615	-0.004139	0.022208	-0.114258	0.427734	-0.610840	0.868278	-0.223237	-0.263011	-0.356489
41888		5.985041	-2.035204	7.480907	0.007853	-0.000970	0.012102	-0.112305	0.431885	-0.605469	0.868286	-0.223264	-0.262941	-0.356503
41889		5.965336	-1.927056	7.485931	0.012842	-0.004332	0.005028	-0.117432	0.425049	-0.611328	0.868268	-0.223265	-0.262894	-0.356581
41890		6.000696	-1.974236	7.481420	0.019200	-0.005658	-0.005575	-0.106445	0.430908	-0.606934	0.868255	-0.223162	-0.262962	-0.356626
41891		5.991776	-1.917065	7.483962	0.022518	-0.005964	-0.008683	-0.115723	0.422607	-0.612305	0.868193	-0.223088	-0.262944	-0.356838
41892		5.993224	-1.953493	7.501131	0.025123	-0.005291	-0.014044	-0.117920	0.423828	-0.604004	0.868171	-0.222920	-0.263043	-0.356923
41893		5.971989	-1.931811	7.479025	0.027676	-0.003818	-0.017230	-0.116699	0.426758	-0.614502	0.868180	-0.222703	-0.263164	-0.356949
41894		6.005328	-1.912876	7.486285	0.026857	0.000359	-0.020239	-0.117676	0.423828	-0.616943	0.868121	-0.222518	-0.263210	-0.357172
41895		5.974327	-1.877413	7.483822	0.025592	-0.003277	-0.021063	-0.111572	0.428223	-0.612061	0.868058	-0.222341	-0.263298	-0.357371
41896		5.965425	-1.902718	7.500084	0.024658	-0.007001	-0.019672	-0.119873	0.419189	-0.611572	0.867963	-0.222221	-0.263344	-0.357644
41897		6.003615	-1.968271	7.468004	0.033791	-0.005336	-0.026906	-0.122559	0.430176	-0.616699	0.867949	-0.221934	-0.263533	-0.357716
41898		5.941534	-1.984157	7.476093	0.045066	-0.006313	-0.040018	-0.118164	0.421875	-0.606689	0.867827	-0.221605	-0.263719	-0.358077
41899		5.957275	-1.960362	7.453680	0.073676	-0.009263	-0.061108	-0.114990	0.417480	-0.610107	0.867770	-0.220980	-0.264090	-0.358328
41900		6.015274	-1.861951	7.470688	0.091453	-0.006304	-0.073726	-0.126465	0.424316	-0.604980	0.867712	-0.220192	-0.264509	-0.358644
41901		5.911459	-1.784344	7.459250	0.117412	-0.003786	-0.097341	-0.112549	0.421631	-0.615723	0.867644	-0.219143	-0.265063	-0.359043
41902		5.830632	-1.827855	7.417622	0.182800	0.001611	-0.150527	-0.120361	0.423828	-0.616455	0.867467	-0.217560	-0.265763	-0.359914
41903		5.855856	-1.822373	7.471707	0.234726	0.003103	-0.202600	-0.123047	0.415527	-0.615234	0.867220	-0.215479	-0.266717	-0.361054
41904		5.980938	-1.662679	7.505286	0.233940	-0.007269	-0.205337	-0.124023	0.415527	-0.607666	0.866987	-0.213385	-0.267800	-0.362055
41905		6.043621	-1.306380	7.577305	0.207330	-0.018939	-0.186285	-0.116455	0.414062	-0.617676	0.866756	-0.211549	-0.268847	-0.362907
41906		6.091120	-1.721042	7.568286	0.203987	-0.012863	-0.175472	-0.118652	0.410400	-0.622070	0.866485	-0.209808	-0.269737	-0.363903
41907		6.085848	-1.865020	7.587554	0.191412	-0.010195	-0.173386	-0.122314	0.402588	-0.623535	0.866194	-0.208154	-0.270572	-0.364926
41908		6.080381	-1.549272	7.623257	0.162181	-0.019516	-0.149440	-0.126953	0.398438	-0.615967	0.865944	-0.206753	-0.271395	-0.365704
41909		6.142233	-1.500416	7.608466	0.133498	-0.020094	-0.126485	-0.128174	0.399170	-0.610840	0.865784	-0.205556	-0.272154	-0.366192
41910		6.115954	-1.580238	7.578952	0.101863	-0.024011	-0.105817	-0.129883	0.387939	-0.627686	0.865638	-0.204639	-0.272807	-0.366566
41911		6.080256	-1.590901	7.523889	0.081034	-0.027182	-0.096227	-0.134766	0.406006	-0.633057	0.865463	-0.203896	-0.273437	-0.366923
41912		6.062619	-1.572073	7.545910	0.083867	-0.027805	-0.097523	-0.130859	0.400146	-0.622314	0.865145	-0.203243	-0.273972	-0.367636
41913		6.105319	-1.443618	7.542682	0.078281	-0.025974	-0.099286	-0.131836	0.401855	-0.619141	0.864889	-0.202574	-0.274504	-0.368210
41914		6.078682	-1.487612	7.513987	0.070634	-0.025940	-0.092352	-0.135254	0.396729	-0.623535	0.864641	-0.201980	-0.274991	-0.368754
41915		6.104561	-1.353628	7.540778	0.060995	-0.029944	-0.086446	-0.135498	0.389893	-0.617188	0.864402	-0.201460	-0.275503	-0.369215
41916		6.082879	-1.416400	7.524742	0.052331	-0.030479	-0.078814	-0.132568	0.393799	-0.628174	0.864247	-0.200965	-0.276032	-0.369456
41917		6.147441	-1.420972	7.544730	0.050844	-0.033500	-0.076445	-0.139404	0.391113	-0.622559	0.863987	-0.200572	-0.276494	-0.369930
41918		6.098304	-1.359495	7.535421	0.046513	-0.033763	-0.072637	-0.145020	0.387451	-0.623535	0.863794	-0.200167	-0.277002	-0.370220
41919		6.146089	-1.345048	7.519834	0.043606	-0.034358	-0.069442	-0.131104	0.389404	-0.621582	0.863632	-0.199762	-0.277548	-0.370408
41920		6.072886	-1.398701	7.535561	0.045985	-0.031179	-0.068389	-0.137939	0.383301	-0.621582	0.863438	-0.199389	-0.277973	-0.370742
41921		6.126685	-1.378829	7.508068	0.044844	-0.033568	-0.071145	-0.137939	0.386963	-0.621094	0.863279	-0.198974	-0.278487	-0.370950
41922		6.073602	-1.315411	7.550822	0.044461	-0.041082	-0.072005	-0.143066	0.381104	-0.621582	0.863072	-0.198608	-0.279025	-0.371224
41923		6.128997	-1.343707	7.500385	0.042427	-0.046365	-0.071080	-0.148193	0.390625	-0.628174	0.862888	-0.198237	-0.279647	-0.371382
41924		6.158338	-1.301643	7.520946	0.044469	-0.047339	-0.072660	-0.145996	0.392822	-0.617188	0.862615	-0.197913	-0.280235	-0.371745
41925		6.112027	-1.285513	7.508479	0.040269	-0.051385	-0.073393	-0.140869	0.386719	-0.629639	0.862355	-0.197620	-0.280828	-0.372057
41926		6.179145	-1.275656	7.479904	0.034360	-0.052377	-0.070147	-0.135498	0.385986	-0.631348	0.862056	-0.197402	-0.281378	-0.372449
41927		6.090983	-1.231739	7.547466	0.021942	-0.055822	-0.062878	-0.151123	0.386230	-0.624512	0.861735	-0.197320	-0.281867	-0.372865
41928		6.188275	-1.235268	7.528334	0.004049	-0.063275	-0.052447	-0.143555	0.384521	-0.622559	0.861450	-0.197361	-0.282427	-0.373078
41929		6.237843	-1.232616	7.488081	-0.004341	-0.063688	-0.045683	-0.143555	0.385010	-0.616455	0.861175	-0.197488	-0.282917	-0.373275
41930		6.252931	-1.271668	7.447941	-0.004954	-0.059475	-0.037003	-0.144287	0.385742	-0.624512	0.860959	-0.197614	-0.283366	-0.373366
41931		6.244342	-1.328275	7.477130	0.003440	-0.055500	-0.036041	-0.147217	0.384521	-0.621338	0.860727	-0.197697	-0.283789	-0.373537
41932		6.245360	-1.265057	7.459112	0.007088	-0.057864	-0.037226	-0.149414	0.388916	-0.628662	0.860512	-0.197739	-0.284266	-0.373645
41933		6.262427	-1.226043	7.456064	0.006567	-0.053220	-0.032718	-0.146240	0.386719	-0.621094	0.860267	-0.197821	-0.284668	-0.373860
41934		6.274879	-1.285049	7.443058	0.005487	-0.045369	-0.031268	-0.146973	0.379883	-0.630615	0.860084	-0.197867	-0.285015	-0.373993
41935		6.248081	-1.232400	7.409158	0.010274	-0.039850	-0.031328	-0.147949	0.382568	-0.629150	0.859910	-0.197854	-0.285353	-0.374142
41936		6.251254	-1.220662	7.478175	0.008932	-0.036840	-0.025105	-0.147949	0.380371	-0.624023	0.859753	-0.197865	-0.285645	-0.374273
41937		6.293898	-1.196198	7.467570	0.004580	-0.034233	-0.018825	-0.153076	0.385254	-0.621582	0.859649	-0.197890	-0.285913	-0.374295
41938		6.276353	-1.223656	7.440210	0.002835	-0.030356	-0.012642	-0.142090	0.383789	-0.623047	0.859560	-0.197941	-0.286141	-0.374299
41939		6.316663	-1.136753	7.405830	0.001118	-0.025212	-0.008450	-0.153564	0.373535	-0.627441	0.859487	-0.198014	-0.286268	-0.374332
41940		6.271541	-1.280508	7.437974	0.005616	-0.020336	-0.003347	-0.152100	0.375732	-0.625732	0.859480	-0.197995	-0.286461	-0.374209
41941		6.248026	-1.289293	7.419022	0.009892	-0.014543	-0.008854	-0.154785	0.382568	-0.629395	0.859472	-0.197925	-0.286619	-0.374144
41942		6.258718	-1.272348	7.445959	0.014799	-0.014885	-0.013689	-0.147217	0.391357	-0.618652	0.859409	-0.197848	-0.286772	-0.374210
41943		6.277305	-1.224852	7.455345	0.012159	-0.011960	-0.013193	-0.152832	0.382324	-0.629395	0.859361	-0.197807	-0.286840	-0.374291
41944		6.292621	-1.186319	7.424757	0.013888	-0.006018	-0.011004	-0.147217	0.382812	-0.622070	0.859327	-0.197718	-0.286912	-0.374362
41945		6.286954	-1.189738	7.437049	0.006869	0.003700	-0.003816	-0.147461	0.384521	-0.622314	0.859356	-0.197658	-0.286866	-0.374361
41946		6.290809	-1.256422	7.409601	0.007103	0.006152	0.004997	-0.153564	0.375244	-0.622070	0.859412	-0.197617	-0.286782	-0.374319
41947		6.262168	-1.190360	7.461729	0.003883	0.008916	0.004230	-0.152344	0.372803	-0.624023	0.859504	-0.197539	-0.286741	-0.374179
41948		6.287371	-1.159951	7.454351	0.002784	0.010021	0.009297	-0.153809	0.379150	-0.625000	0.859612	-0.197473	-0.286680	-0.374013
41949		6.268979	-1.205276	7.445215	0.002272	0.014651	0.013828	-0.150635	0.376709	-0.625244	0.859713	-0.197438	-0.286554	-0.373896
41950		6.255425	-1.265631	7.449870	0.002081	0.015721	0.012805	-0.155273	0.385254	-0.625244	0.859823	-0.197391	-0.286418	-0.373773
41951		6.241535	-1.209402	7.471520	-0.002739	0.014405	0.013254	-0.148193	0.377930	-0.623535	0.859889	-0.197417	-0.286261	-0.373727
41952		6.266196	-1.181009	7.464320	-0.007034	0.010714	0.018957	-0.146240	0.385010	-0.626709	0.859995	-0.197467	-0.286113	-0.373569
41953		6.236410	-1.220025	7.453488	-0.018824	0.012832	0.025994	-0.153809	0.384766	-0.627686	0.860075	-0.197648	-0.285860	-0.373485
41954		6.213676	-1.250720	7.450560	-0.023111	0.012511	0.029891	-0.149170	0.382812	-0.625000	0.860147	-0.197868	-0.285621	-0.373384
41955		6.139070	-1.370130	7.417242	-0.015696	0.012844	0.019554	-0.147461	0.381592	-0.623535	0.860223	-0.197995	-0.285417	-0.373298
41956		6.189162	-1.315564	7.381384	-0.001181	0.011599	0.006045	-0.152832	0.387939	-0.624512	0.860290	-0.197981	-0.285293	-0.373247
41957		6.208743	-1.305755	7.432493	0.010480	0.013081	-0.005996	-0.144775	0.390137	-0.625488	0.860311	-0.197878	-0.285209	-0.373316
41958		6.172094	-1.231523	7.431257	0.012974	0.010393	-0.009701	-0.143066	0.384766	-0.625732	0.860317	-0.197768	-0.285116	-0.373431
41959		6.212869	-1.194658	7.485981	0.010962	0.007184	-0.008532	-0.145752	0.377197	-0.629150	0.860333	-0.197665	-0.285052	-0.373498
41960		6.212880	-1.241199	7.465257	0.008847	0.002270	-0.001183	-0.155029	0.379150	-0.620605	0.860363	-0.197585	-0.285037	-0.373483
41961		6.212771	-1.239743	7.465590	0.008938	0.000607	-0.005563	-0.137207	0.377441	-0.630127	0.860394	-0.197489	-0.285088	-0.373424
41962		6.239408	-1.207751	7.457410	0.006069	-0.000031	-0.002298	-0.144531	0.385742	-0.619629	0.860417	-0.197436	-0.285046	-0.373431
41963		6.220115	-1.227608	7.473935	0.007225	0.000288	0.000230	-0.149414	0.387207	-0.629883	0.860459	-0.197393	-0.285020	-0.373376
41964		6.216336	-1.208045	7.480580	0.001361	-0.002849	0.003355	-0.150879	0.382568	-0.629395	0.860442	-0.197435	-0.284987	-0.373420
41965		6.243576	-1.226317	7.450601	-0.001163	-0.001426	0.009053	-0.156250	0.377441	-0.630127	0.860453	-0.197486	-0.284949	-0.373395
41966		6.226408	-1.224021	7.461191	-0.005264	-0.002817	0.013975	-0.135742	0.380859	-0.620850	0.860474	-0.197563	-0.284939	-0.373315
41967		6.236320	-1.240093	7.441908	-0.006323	-0.002540	0.016847	-0.142822	0.385986	-0.626221	0.860561	-0.197645	-0.284847	-0.373140
41968		6.230183	-1.248172	7.453776	-0.005572	-0.001349	0.019325	-0.152344	0.384033	-0.619385	0.860614	-0.197755	-0.284744	-0.373038
41969		6.209617	-1.324226	7.428436	-0.004574	0.001306	0.018836	-0.157471	0.379883	-0.622070	0.860690	-0.197832	-0.284683	-0.372868
41970		6.240522	-1.310619	7.433950	-0.003703	0.007563	0.013338	-0.143066	0.387207	-0.625488	0.860755	-0.197861	-0.284617	-0.372753
41971		6.194242	-1.311059	7.500968	-0.001300	0.006536	0.014013	-0.148438	0.386719	-0.627197	0.860818	-0.197905	-0.284482	-0.372688
41972		6.193837	-1.244421	7.497033	-0.006499	0.001900	0.014020	-0.140381	0.386475	-0.629883	0.860845	-0.198004	-0.284382	-0.372648
41973		6.208583	-1.275092	7.491544	-0.005238	-0.001544	0.011973	-0.142090	0.382080	-0.623047	0.860865	-0.198099	-0.284281	-0.372630
41974		6.199904	-1.290983	7.463089	-0.002804	-0.001306	0.010655	-0.144531	0.387939	-0.625244	0.860919	-0.198145	-0.284224	-0.372524
41975		6.218849	-1.223539	7.467887	-0.004615	-0.002217	0.011047	-0.152832	0.393555	-0.625244	0.860942	-0.198235	-0.284152	-0.372478
41976		6.203268	-1.265367	7.477304	-0.005065	-0.000513	0.013187	-0.143311	0.389648	-0.625732	0.860947	-0.198353	-0.284076	-0.372462
41977		6.209291	-1.262160	7.464729	-0.006316	-0.004630	0.016639	-0.144287	0.382324	-0.618408	0.860974	-0.198481	-0.283998	-0.372390
41978		6.197913	-1.324146	7.466938	-0.009360	-0.006292	0.018684	-0.142578	0.383789	-0.623779	0.861044	-0.198601	-0.283961	-0.372193
41979		6.180043	-1.375296	7.435497	-0.003446	-0.003996	0.013374	-0.146240	0.387939	-0.625244	0.861090	-0.198673	-0.283914	-0.372084
41980		6.257159	-1.329845	7.441341	-0.000512	-0.000830	0.006126	-0.145020	0.394287	-0.621338	0.861104	-0.198716	-0.283863	-0.372067
41981		6.209117	-1.289559	7.488625	0.000907	-0.001148	0.005492	-0.148438	0.382324	-0.617920	0.861122	-0.198764	-0.283805	-0.372044
41982		6.188976	-1.247167	7.480367	-0.003240	-0.001699	0.012596	-0.144531	0.386963	-0.626221	0.861186	-0.198814	-0.283782	-0.371887
41983		6.215208	-1.335353	7.454666	-0.004890	0.000521	0.014399	-0.151123	0.388184	-0.616455	0.861223	-0.198900	-0.283690	-0.371825
41984		6.229578	-1.365602	7.449467	-0.001203	0.004874	0.009631	-0.148682	0.379395	-0.631836	0.861283	-0.198929	-0.283627	-0.371718
41985		6.238062	-1.331811	7.452776	0.003064	0.009384	0.006127	-0.156738	0.384521	-0.619629	0.861312	-0.198896	-0.283537	-0.371737
41986		6.225237	-1.274541	7.474002	0.001240	0.010574	0.006713	-0.148193	0.383057	-0.627197	0.861363	-0.198880	-0.283469	-0.371680
41987		6.194521	-1.282975	7.510222	-0.006359	0.009238	0.015812	-0.149414	0.385010	-0.624512	0.861418	-0.198943	-0.283333	-0.371622
41988		6.198159	-1.284912	7.478208	-0.011850	0.001881	0.020771	-0.145508	0.386230	-0.621826	0.861465	-0.199085	-0.283229	-0.371517
41989		6.174641	-1.338479	7.479601	-0.017613	0.000464	0.017713	-0.142822	0.386963	-0.626221	0.861506	-0.199260	-0.283112	-0.371416
41990		6.235256	-1.319963	7.449242	-0.019796	0.001696	0.016062	-0.143066	0.386230	-0.617188	0.861530	-0.199449	-0.282964	-0.371373
41991		6.244082	-1.289740	7.451722	-0.019852	0.004629	0.018444	-0.151611	0.385986	-0.621094	0.861601	-0.199620	-0.282812	-0.371232
41992		6.316822	-1.208870	7.439512	-0.023107	0.012598	0.029823	-0.145996	0.383301	-0.616455	0.861684	-0.199830	-0.282596	-0.371090
41993		6.284943	-1.222876	7.475787	-0.026248	0.016964	0.046195	-0.142822	0.386719	-0.625000	0.861858	-0.200065	-0.282311	-0.370777
41994		6.222667	-1.278060	7.480248	-0.030372	0.022051	0.061247	-0.148438	0.386475	-0.627197	0.862054	-0.200368	-0.281918	-0.370457
41995		6.165755	-1.377377	7.451199	-0.034284	0.025087	0.065553	-0.139160	0.389648	-0.625488	0.862238	-0.200709	-0.281501	-0.370160
41996		6.061153	-1.451729	7.515145	-0.032371	0.020146	0.060375	-0.142090	0.387939	-0.621826	0.862423	-0.201034	-0.281103	-0.369854
41997		6.088103	-1.385223	7.477064	-0.025054	0.014389	0.046273	-0.138428	0.384521	-0.621338	0.862569	-0.201285	-0.280817	-0.369595
41998		6.095618	-1.518316	7.461384	-0.018402	0.010131	0.035291	-0.141357	0.388184	-0.619385	0.862699	-0.201457	-0.280601	-0.369363
41999		6.114970	-1.402030	7.509005	-0.013340	0.003064	0.023530	-0.140381	0.395996	-0.617920	0.862775	-0.201601	-0.280475	-0.369202
42000		6.177123	-1.427726	7.477329	-0.012170	-0.005024	0.025255	-0.139404	0.389160	-0.622070	0.862835	-0.201788	-0.280389	-0.369026
42001		6.156135	-1.456592	7.472611	-0.012310	-0.002681	0.022250	-0.140625	0.400635	-0.620117	0.862889	-0.201942	-0.280298	-0.368883
42002		6.162458	-1.406755	7.481308	-0.010926	-0.008472	0.023204	-0.135986	0.401367	-0.621826	0.862921	-0.202143	-0.280231	-0.368749
42003		6.181136	-1.506523	7.446248	-0.011286	-0.006327	0.021169	-0.143311	0.399170	-0.624512	0.862959	-0.202331	-0.280134	-0.368632
42004		6.185157	-1.480961	7.460256	-0.008848	-0.006102	0.019860	-0.132324	0.395264	-0.618652	0.862969	-0.202504	-0.280067	-0.368564
42005		6.175467	-1.406160	7.454410	-0.009692	-0.003522	0.021950	-0.143066	0.387939	-0.612305	0.863046	-0.202645	-0.279964	-0.368384
42006		6.178897	-1.493180	7.471183	-0.007919	-0.001791	0.023749	-0.141357	0.403320	-0.619629	0.863134	-0.202759	-0.279912	-0.368155
42007		6.197990	-1.540076	7.478859	-0.006239	0.001450	0.020364	-0.143311	0.401611	-0.629395	0.863184	-0.202895	-0.279794	-0.368053
42008		6.222858	-1.516858	7.450678	-0.006419	0.004623	0.019548	-0.137695	0.389893	-0.618164	0.863202	-0.203028	-0.279647	-0.368048
42009		6.199730	-1.405735	7.491985	-0.018520	0.008308	0.031860	-0.143066	0.404053	-0.613037	0.863313	-0.203210	-0.279448	-0.367839
42010		6.223711	-1.404062	7.509528	-0.044013	0.007226	0.049947	-0.141602	0.394531	-0.614990	0.863416	-0.203666	-0.279141	-0.367578
42011		6.222108	-1.306793	7.506283	-0.092264	0.001749	0.079246	-0.135986	0.394531	-0.610596	0.863520	-0.204525	-0.278692	-0.367196
42012		6.158757	-1.473713	7.442787	-0.104825	0.000895	0.093010	-0.136475	0.394775	-0.619873	0.863671	-0.205493	-0.278182	-0.366689
42013		6.033832	-1.595943	7.385131	-0.065094	0.002193	0.076381	-0.137451	0.398926	-0.620117	0.863806	-0.206141	-0.277800	-0.366296
42014		6.093931	-1.618831	7.445497	-0.023602	-0.005466	0.051037	-0.140869	0.387695	-0.620117	0.863907	-0.206467	-0.277639	-0.365995
42015		6.087447	-1.474503	7.456695	-0.005554	-0.006793	0.043026	-0.136475	0.404785	-0.624268	0.864010	-0.206623	-0.277592	-0.365700
42016		6.154256	-1.424983	7.461423	-0.004852	-0.008986	0.047266	-0.138184	0.398193	-0.617432	0.864106	-0.206835	-0.277500	-0.365422
42017		6.145149	-1.508696	7.455330	-0.003944	-0.015179	0.050123	-0.135010	0.404053	-0.622314	0.864219	-0.207044	-0.277482	-0.365050
42018		6.162139	-1.582060	7.466730	0.006046	-0.012036	0.044156	-0.143555	0.403809	-0.621094	0.864327	-0.207172	-0.277453	-0.364743
42019		6.130507	-1.551708	7.482897	0.012030	-0.001538	0.030200	-0.129150	0.407959	-0.614014	0.864403	-0.207207	-0.277417	-0.364571
42020		6.125610	-1.489533	7.492039	0.014667	0.003759	0.020996	-0.137207	0.404053	-0.621826	0.864530	-0.207167	-0.277331	-0.364359
42021		6.159349	-1.541458	7.469521	0.019474	0.007792	0.013434	-0.145996	0.407959	-0.613770	0.864606	-0.207072	-0.277262	-0.364285
42022		6.136048	-1.612291	7.444862	0.025072	0.010070	0.005960	-0.135986	0.404053	-0.621582	0.864668	-0.206931	-0.277236	-0.364238
42023		6.092422	-1.475617	7.485348	0.015833	0.007979	0.004864	-0.135254	0.399658	-0.616455	0.864716	-0.206841	-0.277167	-0.364229
42024		6.134077	-1.518115	7.470680	0.003731	0.000404	0.013937	-0.131348	0.401123	-0.617676	0.864775	-0.206863	-0.277117	-0.364112
42025		6.128932	-1.612516	7.479374	0.000701	-0.002050	0.013772	-0.134521	0.398682	-0.614990	0.864829	-0.206914	-0.277060	-0.363998
42026		6.126091	-1.621865	7.438716	0.003142	-0.001843	0.012472	-0.134521	0.398682	-0.617188	0.864885	-0.206939	-0.277030	-0.363873
42027		6.137128	-1.540424	7.463432	0.002959	-0.002869	0.011256	-0.137451	0.410645	-0.622070	0.864928	-0.206968	-0.277007	-0.363774
42028		6.144846	-1.531344	7.471322	0.004638	-0.003838	0.007482	-0.138428	0.413818	-0.621826	0.864924	-0.207021	-0.276975	-0.363776
42029		6.145087	-1.530865	7.471222	0.010016	-0.001765	0.000976	-0.142822	0.402588	-0.610596	0.864909	-0.207025	-0.276953	-0.363827
42030		6.138300	-1.582682	7.461633	0.013175	0.000298	-0.005197	-0.133301	0.400635	-0.613525	0.864919	-0.206950	-0.276991	-0.363818
42031		6.134413	-1.517807	7.470466	0.009266	-0.000840	-0.001294	-0.136963	0.405029	-0.618164	0.864951	-0.206898	-0.276992	-0.363769
42032		6.148223	-1.518447	7.512249	0.005712	-0.002025	0.004834	-0.136475	0.400146	-0.618652	0.864964	-0.206913	-0.276973	-0.363746
42033		6.133999	-1.581770	7.494065	0.000597	-0.004730	0.008196	-0.137207	0.403809	-0.623047	0.864976	-0.206966	-0.276960	-0.363695
42034		6.152143	-1.614264	7.435296	0.000019	-0.004879	0.006937	-0.132568	0.398926	-0.619141	0.864964	-0.207037	-0.276936	-0.363702
42035		6.167338	-1.596040	7.451271	0.000753	-0.000773	0.011794	-0.128906	0.407227	-0.622559	0.865008	-0.207076	-0.276881	-0.363618
42036		6.208774	-1.522111	7.506764	-0.017107	0.001650	0.021009	-0.136230	0.400635	-0.623535	0.865046	-0.207279	-0.276705	-0.363546
42037		6.179890	-1.514872	7.515778	-0.041776	0.000249	0.037147	-0.137695	0.395996	-0.615234	0.865068	-0.207695	-0.276470	-0.363434
42038		6.152339	-1.491751	7.498506	-0.065662	-0.002891	0.053354	-0.133545	0.403564	-0.615479	0.865116	-0.208310	-0.276187	-0.363183
42039		6.141416	-1.568047	7.445982	-0.073922	-0.003431	0.063256	-0.133301	0.400391	-0.611816	0.865179	-0.209022	-0.275839	-0.362888
42040		6.126640	-1.642312	7.446021	-0.069292	-0.000273	0.063978	-0.126465	0.411621	-0.614746	0.865272	-0.209679	-0.275495	-0.362547
42041		6.136634	-1.618486	7.467730	-0.061904	0.003719	0.058295	-0.138428	0.407715	-0.619385	0.865369	-0.210278	-0.275111	-0.362262
42042		6.089373	-1.552653	7.443479	-0.053613	0.003600	0.055685	-0.129639	0.410156	-0.614990	0.865423	-0.210824	-0.274791	-0.362058
42043		6.042956	-1.589020	7.461330	-0.038889	0.003147	0.043543	-0.135498	0.404541	-0.616211	0.865500	-0.211225	-0.274521	-0.361845
42044		6.054732	-1.672594	7.432772	-0.013385	0.001908	0.025361	-0.132568	0.404053	-0.613281	0.865548	-0.211398	-0.274395	-0.361726
42045		6.089391	-1.696851	7.476761	-0.005220	0.001887	0.010086	-0.132568	0.407959	-0.613770	0.865580	-0.211469	-0.274320	-0.361663
42046		6.124377	-1.658664	7.477173	-0.000317	-0.000645	0.005109	-0.134033	0.404785	-0.618652	0.865595	-0.211512	-0.274278	-0.361634
42047		6.112993	-1.562210	7.479727	-0.004290	-0.003046	0.010963	-0.144043	0.407227	-0.621094	0.865599	-0.211602	-0.274234	-0.361605
42048		6.138267	-1.602952	7.474332	-0.009960	-0.006701	0.010863	-0.137207	0.407471	-0.611816	0.865545	-0.211769	-0.274216	-0.361652
42049		6.167080	-1.707983	7.459562	-0.019487	-0.005186	0.015282	-0.132080	0.401855	-0.614502	0.865538	-0.211989	-0.274148	-0.361589
42050		6.107110	-1.712099	7.462808	-0.017754	-0.004881	0.009546	-0.135010	0.409424	-0.614502	0.865531	-0.212163	-0.274089	-0.361549
42051		6.114811	-1.662063	7.472035	-0.019171	-0.004537	0.010170	-0.127930	0.411377	-0.617188	0.865507	-0.212372	-0.274012	-0.361544
42052		6.099746	-1.640293	7.456592	-0.016974	-0.006637	0.009625	-0.125000	0.412354	-0.613525	0.865490	-0.212566	-0.273932	-0.361531
42053		6.085280	-1.705327	7.437149	-0.010746	-0.005062	0.001265	-0.129150	0.406250	-0.613770	0.865480	-0.212686	-0.273871	-0.361530
42054		6.086218	-1.792565	7.432772	0.007194	0.000717	-0.016567	-0.130127	0.413818	-0.621582	0.865456	-0.212608	-0.273878	-0.361629
42055		6.100365	-1.730075	7.431378	0.018417	0.000332	-0.024545	-0.131592	0.407959	-0.609131	0.865393	-0.212461	-0.273909	-0.361842
42056		6.103408	-1.585459	7.478389	0.019437	-0.004148	-0.027821	-0.134766	0.413818	-0.615234	0.865350	-0.212288	-0.274017	-0.361963
42057		6.104676	-1.580962	7.478306	0.014404	-0.006262	-0.019125	-0.136963	0.409424	-0.624023	0.865287	-0.212203	-0.274094	-0.362105
42058		6.100577	-1.610634	7.442018	0.005769	-0.013881	-0.014253	-0.131104	0.406738	-0.614014	0.865179	-0.212216	-0.274192	-0.362282
42059		6.124772	-1.671763	7.441029	0.008156	-0.014956	-0.013581	-0.127441	0.402100	-0.614990	0.865125	-0.212190	-0.274310	-0.362337
42060		6.125380	-1.646713	7.466775	0.000847	-0.018469	-0.012092	-0.135010	0.405518	-0.620117	0.865068	-0.212214	-0.274428	-0.362370
42061		6.106169	-1.626514	7.462567	-0.006068	-0.017841	-0.007955	-0.129639	0.410156	-0.614990	0.864972	-0.212320	-0.274515	-0.362471
42062		6.055189	-1.665623	7.450600	-0.007933	-0.022914	-0.008009	-0.129639	0.415771	-0.614014	0.864886	-0.212454	-0.274617	-0.362519
42063		6.095720	-1.708984	7.464870	0.000626	-0.021704	-0.023043	-0.128174	0.410156	-0.619141	0.864770	-0.212502	-0.274752	-0.362666
42064		6.144505	-1.767245	7.440127	0.012781	-0.020006	-0.036862	-0.133301	0.411865	-0.624268	0.864634	-0.212413	-0.274935	-0.362905
42065		6.097993	-1.683697	7.448217	0.017440	-0.017822	-0.047803	-0.138184	0.405762	-0.614990	0.864446	-0.212276	-0.275135	-0.363280
42066		6.141635	-1.651843	7.460406	0.024911	-0.020387	-0.050917	-0.135498	0.404297	-0.622070	0.864280	-0.212067	-0.275422	-0.363582
42067		6.173195	-1.640348	7.403833	0.029820	-0.015779	-0.053103	-0.126221	0.410889	-0.616455	0.864113	-0.211804	-0.275676	-0.363936
42068		6.203817	-1.617159	7.441194	0.041927	-0.010185	-0.052860	-0.134521	0.404785	-0.620605	0.864018	-0.211436	-0.275895	-0.364211
42069		6.209554	-1.626219	7.434373	0.036854	-0.006584	-0.048886	-0.133545	0.406494	-0.613281	0.863906	-0.211104	-0.276093	-0.364519
42070		6.208114	-1.598546	7.441632	0.028189	-0.005454	-0.036812	-0.143066	0.406494	-0.610352	0.863844	-0.210853	-0.276239	-0.364701
42071		6.199269	-1.626384	7.438734	0.020002	-0.004759	-0.028841	-0.137695	0.403564	-0.617188	0.863778	-0.210685	-0.276370	-0.364856
42072		6.174711	-1.631136	7.421046	0.012406	-0.008941	-0.022212	-0.129395	0.408203	-0.608887	0.863705	-0.210595	-0.276476	-0.364999
42073		6.155374	-1.668654	7.461908	0.010362	-0.010022	-0.020870	-0.142334	0.408691	-0.611328	0.863674	-0.210517	-0.276564	-0.365051
42074		6.189138	-1.633888	7.420812	0.008551	-0.008809	-0.020283	-0.136475	0.407715	-0.614990	0.863602	-0.210471	-0.276662	-0.365174
42075		6.173680	-1.627243	7.431007	0.001818	-0.009283	-0.015115	-0.137451	0.406494	-0.620117	0.863539	-0.210480	-0.276715	-0.365278
42076		6.171170	-1.562979	7.438811	-0.001360	-0.010530	-0.006760	-0.134033	0.410889	-0.624023	0.863476	-0.210540	-0.276750	-0.365366
42077		6.169043	-1.544115	7.444685	-0.010693	-0.008043	-0.001082	-0.142822	0.404541	-0.614746	0.863412	-0.210684	-0.276703	-0.365470
42078		6.178706	-1.624142	7.448105	-0.016566	-0.004805	0.002620	-0.133789	0.405762	-0.609131	0.863369	-0.210851	-0.276659	-0.365508
42079		6.180061	-1.579553	7.469059	-0.027558	-0.006375	0.009471	-0.138916	0.404297	-0.618896	0.863363	-0.211103	-0.276566	-0.365445
42080		6.177038	-1.549205	7.428782	-0.039351	-0.008287	0.016026	-0.135254	0.406982	-0.614014	0.863309	-0.211475	-0.276440	-0.365453
42081		6.164679	-1.614615	7.428917	-0.036204	-0.010277	0.018951	-0.136475	0.410645	-0.608643	0.863287	-0.211833	-0.276326	-0.365385
42082		6.159981	-1.669363	7.437289	-0.024018	-0.009238	0.012430	-0.130127	0.407715	-0.614990	0.863277	-0.212088	-0.276257	-0.365312
42083		6.168036	-1.663606	7.444204	-0.018491	-0.003210	0.009538	-0.131836	0.406250	-0.618408	0.863283	-0.212270	-0.276149	-0.365274
42084		6.187281	-1.602426	7.429303	-0.018084	-0.001989	0.009790	-0.131104	0.409424	-0.612305	0.863279	-0.212448	-0.276035	-0.365266
42085		6.165893	-1.630547	7.424429	-0.020555	-0.001372	0.013274	-0.136230	0.411621	-0.619385	0.863300	-0.212649	-0.275905	-0.365197
42086		6.183485	-1.591209	7.435016	-0.024836	0.000457	0.017349	-0.133301	0.407227	-0.623291	0.863292	-0.212905	-0.275738	-0.365195
42087		6.147684	-1.636234	7.434254	-0.031903	0.004234	0.020716	-0.137695	0.411133	-0.604980	0.863288	-0.213198	-0.275513	-0.365203
42088		6.114559	-1.656328	7.428517	-0.020435	0.001296	0.018851	-0.135010	0.406738	-0.617920	0.863333	-0.213406	-0.275381	-0.365074
42089		6.133911	-1.747024	7.433294	-0.003727	-0.002222	0.004904	-0.130371	0.404785	-0.621338	0.863328	-0.213473	-0.275332	-0.365085
42090		6.150431	-1.707334	7.424285	0.006260	0.000895	-0.001049	-0.126953	0.415771	-0.605957	0.863332	-0.213439	-0.275289	-0.365126
42091		6.153164	-1.681494	7.419549	0.008116	0.000958	-0.003609	-0.130371	0.412598	-0.608154	0.863381	-0.213389	-0.275252	-0.365069
42092		6.154588	-1.676176	7.440192	0.007722	0.001836	-0.003649	-0.131348	0.417480	-0.612305	0.863417	-0.213339	-0.275218	-0.365038
42093		6.120385	-1.648751	7.417091	0.019851	-0.000509	-0.008403	-0.137207	0.411377	-0.604736	0.863437	-0.213214	-0.275233	-0.365052
42094		6.156735	-1.691463	7.414377	0.044463	0.003846	-0.022173	-0.136963	0.412109	-0.616455	0.863480	-0.212852	-0.275354	-0.365072
42095		6.138079	-1.655846	7.454389	0.049149	0.003245	-0.026007	-0.141113	0.404785	-0.612061	0.863482	-0.212465	-0.275478	-0.365197
42096		6.155452	-1.651657	7.444959	0.043689	0.002695	-0.024671	-0.138672	0.404541	-0.607422	0.863485	-0.212107	-0.275615	-0.365296
42097		6.150917	-1.628809	7.433153	0.040054	0.003028	-0.023711	-0.138184	0.401123	-0.614990	0.863506	-0.211768	-0.275740	-0.365347
42098		6.107074	-1.646824	7.453413	0.044321	-0.000890	-0.028011	-0.126465	0.403320	-0.607910	0.863494	-0.211402	-0.275905	-0.365463
42099		6.164846	-1.618987	7.456674	0.034383	-0.002737	-0.024020	-0.139648	0.404785	-0.606934	0.863529	-0.211102	-0.276029	-0.365460
42100		6.182170	-1.573226	7.448021	0.025875	-0.002825	-0.020444	-0.138672	0.408447	-0.615723	0.863521	-0.210895	-0.276146	-0.365511
42101		6.174952	-1.551783	7.487515	0.010341	-0.004039	-0.006567	-0.141113	0.412354	-0.612793	0.863502	-0.210850	-0.276177	-0.365558
42102		6.178657	-1.553482	7.434584	0.000560	-0.004047	0.000838	-0.136719	0.407715	-0.610840	0.863488	-0.210901	-0.276167	-0.365570
42103		6.168800	-1.588054	7.431221	-0.002492	-0.003577	0.003068	-0.132324	0.401855	-0.618652	0.863497	-0.210960	-0.276144	-0.365532
42104		6.139087	-1.642945	7.444158	0.003984	-0.002471	0.001042	-0.129639	0.404785	-0.608643	0.863508	-0.210953	-0.276126	-0.365523
42105		6.151584	-1.630916	7.419843	0.010713	-0.001992	-0.004134	-0.135010	0.406982	-0.619141	0.863553	-0.210876	-0.276139	-0.365452
42106		6.137496	-1.599879	7.425931	0.013237	0.000759	-0.009387	-0.132812	0.402588	-0.616699	0.863544	-0.210784	-0.276141	-0.365524
42107		6.157583	-1.593761	7.455837	0.008550	0.001366	-0.005558	-0.134521	0.406006	-0.611084	0.863556	-0.210719	-0.276123	-0.365547
42108		6.145192	-1.586711	7.434710	0.007705	-0.000250	-0.003878	-0.134277	0.407715	-0.616943	0.863577	-0.210672	-0.276118	-0.365528
42109		6.140052	-1.634319	7.445261	0.013149	-0.001782	-0.005442	-0.135742	0.401367	-0.616943	0.863584	-0.210595	-0.276131	-0.365546
42110		6.160179	-1.610899	7.429385	0.020678	-0.000957	-0.010329	-0.141357	0.415283	-0.615723	0.863587	-0.210442	-0.276183	-0.365589
42111		6.159433	-1.627363	7.455353	0.024387	-0.000833	-0.015463	-0.140869	0.407471	-0.615234	0.863565	-0.210282	-0.276243	-0.365687
42112		6.142099	-1.574463	7.468754	0.025450	0.000982	-0.018115	-0.140137	0.401123	-0.617676	0.863544	-0.210088	-0.276310	-0.365796
42113		6.127504	-1.589146	7.453081	0.020524	-0.002802	-0.013736	-0.137695	0.403320	-0.617188	0.863517	-0.209941	-0.276386	-0.365887
42114		6.157033	-1.550811	7.465428	0.021358	-0.003282	-0.015630	-0.138428	0.402100	-0.616943	0.863495	-0.209785	-0.276465	-0.365970
42115		6.143551	-1.609225	7.447840	0.028184	-0.004312	-0.015650	-0.131592	0.410889	-0.617432	0.863481	-0.209582	-0.276574	-0.366037
42116		6.133614	-1.593788	7.447062	0.031967	-0.003747	-0.024948	-0.130127	0.400879	-0.613525	0.863467	-0.209334	-0.276681	-0.366131
42117		6.113924	-1.637304	7.396751	0.057131	0.000813	-0.037557	-0.137451	0.410645	-0.614502	0.863487	-0.208838	-0.276872	-0.366222
42118		6.103531	-1.587081	7.444859	0.077916	0.001603	-0.054075	-0.143799	0.400146	-0.616943	0.863469	-0.208182	-0.277145	-0.366432
42119		6.131701	-1.513499	7.486004	0.083202	-0.001750	-0.059079	-0.141357	0.399414	-0.615967	0.863410	-0.207481	-0.277488	-0.366709
42120		6.173904	-1.499146	7.453691	0.095459	-0.006351	-0.060919	-0.138184	0.408447	-0.620605	0.863369	-0.206696	-0.277902	-0.366934
42121		6.116307	-1.482026	7.459933	0.101287	-0.010801	-0.062701	-0.147217	0.395020	-0.616943	0.863323	-0.205894	-0.278342	-0.367160
42122		6.156612	-1.463134	7.479439	0.097778	-0.016982	-0.059176	-0.140869	0.396484	-0.627197	0.863250	-0.205132	-0.278848	-0.367375
42123		6.208896	-1.483408	7.452388	0.080589	-0.018235	-0.053196	-0.136475	0.394775	-0.621338	0.863159	-0.204515	-0.279271	-0.367612
42124		6.163123	-1.542970	7.483320	0.080475	-0.012523	-0.058024	-0.140625	0.397705	-0.620117	0.863099	-0.203855	-0.279662	-0.367821
42125		6.162301	-1.443742	7.466216	0.076473	-0.010062	-0.059108	-0.142822	0.394531	-0.621826	0.863027	-0.203223	-0.280028	-0.368061
42126		6.176136	-1.438082	7.468134	0.070620	-0.011862	-0.057998	-0.136475	0.395508	-0.623535	0.862934	-0.202642	-0.280392	-0.368322
42127		6.172579	-1.476816	7.459834	0.072062	-0.008809	-0.060466	-0.142090	0.392822	-0.620361	0.862862	-0.202029	-0.280726	-0.368573
42128		6.171497	-1.441887	7.467414	0.072589	-0.006726	-0.068611	-0.146240	0.388184	-0.623291	0.862764	-0.201387	-0.281077	-0.368888
42129		6.161512	-1.420759	7.446910	0.071818	-0.007896	-0.071120	-0.138672	0.389160	-0.625977	0.862633	-0.200751	-0.281446	-0.369257
42130		6.184035	-1.351266	7.498351	0.070787	-0.004221	-0.070093	-0.143066	0.387695	-0.621826	0.862533	-0.200106	-0.281765	-0.369598
42131		6.196748	-1.328728	7.454755	0.073862	-0.005491	-0.074571	-0.151855	0.387695	-0.622070	0.862421	-0.199432	-0.282123	-0.369951
42132		6.145329	-1.372604	7.473688	0.072461	-0.001788	-0.075782	-0.147217	0.392334	-0.621094	0.862283	-0.198769	-0.282465	-0.370369
42133		6.196418	-1.295453	7.489689	0.072927	-0.004319	-0.080146	-0.146729	0.388184	-0.627930	0.862146	-0.198100	-0.282819	-0.370774
42134		6.128666	-1.383113	7.498598	0.073987	-0.008780	-0.083440	-0.148926	0.390137	-0.624512	0.861976	-0.197429	-0.283207	-0.371231
42135		6.176016	-1.221926	7.494686	0.070836	-0.013129	-0.086992	-0.141113	0.380615	-0.618652	0.861784	-0.196789	-0.283627	-0.371696
42136		6.196087	-1.277072	7.489165	0.067565	-0.012843	-0.083804	-0.150146	0.389160	-0.623779	0.861644	-0.196141	-0.284035	-0.372052
42137		6.182732	-1.304604	7.479535	0.065964	-0.013534	-0.084416	-0.154053	0.386230	-0.628174	0.861454	-0.195543	-0.284439	-0.372498
42138		6.201763	-1.248028	7.468851	0.062570	-0.017240	-0.084796	-0.149170	0.376709	-0.618896	0.861226	-0.194985	-0.284862	-0.372994
42139		6.184904	-1.208832	7.485323	0.053318	-0.021980	-0.081793	-0.155273	0.381592	-0.621094	0.861026	-0.194481	-0.285302	-0.373383
42140		6.225547	-1.177774	7.456138	0.045082	-0.022831	-0.081303	-0.143555	0.375244	-0.627686	0.860787	-0.194061	-0.285719	-0.373833
42141		6.253949	-1.109652	7.471696	0.040189	-0.025787	-0.074637	-0.148438	0.384033	-0.619141	0.860579	-0.193674	-0.286110	-0.374212
42142		6.251498	-1.020470	7.429939	0.027897	-0.028177	-0.055357	-0.151611	0.378174	-0.624512	0.860415	-0.193445	-0.286453	-0.374446
42143		6.226412	-1.059368	7.514962	0.011409	-0.033841	-0.034471	-0.147949	0.377441	-0.634277	0.860251	-0.193402	-0.286756	-0.374612
42144		6.240722	-1.104552	7.425976	-0.013252	-0.036667	-0.019056	-0.151611	0.374268	-0.638916	0.860079	-0.193582	-0.286959	-0.374759
42145		6.248260	-1.183407	7.493994	-0.018953	-0.034571	-0.014282	-0.156006	0.376953	-0.620605	0.859892	-0.193813	-0.287126	-0.374942
42146		6.273979	-1.207487	7.472673	-0.015961	-0.035394	-0.012369	-0.147949	0.378418	-0.622559	0.859748	-0.194024	-0.287331	-0.375005
42147		6.250387	-1.195064	7.478142	-0.014572	-0.038194	-0.009009	-0.152100	0.382324	-0.629883	0.859635	-0.194230	-0.287537	-0.375001
42148		6.231166	-1.182350	7.451105	-0.016188	-0.036823	-0.009395	-0.154297	0.378662	-0.629883	0.859489	-0.194462	-0.287719	-0.375076
42149		6.257071	-1.207100	7.429428	-0.021418	-0.038543	-0.006934	-0.149902	0.382080	-0.630615	0.859329	-0.194741	-0.287901	-0.375156
42150		6.267276	-1.223294	7.438909	-0.016843	-0.035292	-0.006291	-0.155762	0.386475	-0.626465	0.859202	-0.194975	-0.288059	-0.375203
42151		6.301633	-1.232988	7.445332	-0.015043	-0.034367	-0.006717	-0.157227	0.378174	-0.623047	0.859071	-0.195207	-0.288226	-0.375256
42152		6.292228	-1.180880	7.440809	-0.012491	-0.028886	-0.006495	-0.151855	0.375732	-0.623291	0.858960	-0.195389	-0.288379	-0.375298
42153		6.311326	-1.170840	7.380571	-0.013774	-0.023346	-0.004268	-0.153076	0.380371	-0.625977	0.858887	-0.195552	-0.288479	-0.375304
42154		6.316361	-1.115123	7.438755	-0.020802	-0.018627	0.010969	-0.151123	0.384766	-0.631592	0.858850	-0.195799	-0.288489	-0.375250
42155		6.293635	-1.146743	7.465709	-0.039625	-0.017490	0.025411	-0.151855	0.380127	-0.625244	0.858824	-0.196221	-0.288392	-0.375164
42156		6.284312	-1.193975	7.441430	-0.039709	-0.013698	0.029968	-0.152344	0.383789	-0.621094	0.858833	-0.196630	-0.288276	-0.375019
42157		6.319386	-1.210339	7.417059	-0.042778	-0.012420	0.034430	-0.150146	0.387939	-0.625488	0.858862	-0.197070	-0.288137	-0.374828
42158		6.303377	-1.244011	7.379770	-0.040272	-0.004001	0.037032	-0.147461	0.380127	-0.622070	0.858920	-0.197478	-0.287926	-0.374642
42159		6.304377	-1.247447	7.399013	-0.031461	0.001658	0.033908	-0.158691	0.386719	-0.624512	0.859011	-0.197775	-0.287719	-0.374437
42160		6.280748	-1.303411	7.401834	-0.016175	0.008934	0.024460	-0.160645	0.381348	-0.621826	0.859067	-0.197956	-0.287530	-0.374359
42161		6.264600	-1.177574	7.469248	-0.017580	0.010499	0.023105	-0.149170	0.382812	-0.623047	0.859115	-0.198132	-0.287341	-0.374299
42162		6.290872	-1.128806	7.454754	-0.035995	0.010794	0.037569	-0.158447	0.384033	-0.619141	0.859219	-0.198452	-0.287048	-0.374116
42163		6.300666	-1.177441	7.409448	-0.053093	0.008717	0.061748	-0.157959	0.387207	-0.623047	0.859337	-0.198978	-0.286696	-0.373835
42164		6.206310	-1.482339	7.431040	-0.046398	0.011796	0.052426	-0.155029	0.386475	-0.627441	0.859435	-0.199431	-0.286349	-0.373635
42165		6.258616	-1.474287	7.412181	-0.031729	0.009044	0.033389	-0.151367	0.392334	-0.632080	0.859488	-0.199739	-0.286091	-0.373546
42166		6.217767	-1.437184	7.395191	-0.015686	0.008907	0.016097	-0.157227	0.389893	-0.623291	0.859515	-0.199897	-0.285893	-0.373551
42167		6.281544	-1.266778	7.415015	-0.012048	0.013244	0.011272	-0.154053	0.383789	-0.620361	0.859543	-0.200005	-0.285710	-0.373569
42168		6.264694	-1.173327	7.416272	-0.020772	0.012427	0.020138	-0.145752	0.383545	-0.614014	0.859599	-0.200179	-0.285498	-0.373509
42169		6.226800	-1.243144	7.424337	-0.016618	0.014009	0.024756	-0.150635	0.385254	-0.617676	0.859725	-0.200306	-0.285276	-0.373320
42170		6.181679	-1.410030	7.455021	-0.003368	0.000254	0.013813	-0.148926	0.384033	-0.614258	0.859778	-0.200373	-0.285213	-0.373212
42171		6.193408	-1.380086	7.404566	0.004576	0.001965	0.002670	-0.147217	0.381592	-0.620117	0.859826	-0.200342	-0.285184	-0.373138
42172		6.200398	-1.320614	7.433615	0.008697	0.001656	-0.006674	-0.154785	0.383545	-0.618408	0.859843	-0.200258	-0.285179	-0.373149
42173		6.192596	-1.300421	7.472715	0.006920	-0.003447	-0.006646	-0.152100	0.393066	-0.617920	0.859819	-0.200223	-0.285215	-0.373195
42174		6.205096	-1.288640	7.447518	0.001305	-0.008474	-0.004626	-0.157715	0.385742	-0.620117	0.859796	-0.200257	-0.285252	-0.373202
42175		6.257670	-1.280048	7.387554	0.000283	-0.006932	-0.003741	-0.150635	0.387939	-0.619873	0.859747	-0.200298	-0.285287	-0.373265
42176		6.237671	-1.304691	7.383876	0.002270	-0.001636	-0.004746	-0.157471	0.385986	-0.624756	0.859741	-0.200292	-0.285279	-0.373288
42177		6.267385	-1.215496	7.435811	0.004678	-0.002651	-0.004091	-0.153076	0.383301	-0.623047	0.859699	-0.200291	-0.285291	-0.373376
42178		6.267793	-1.263935	7.414795	-0.003459	0.000048	0.004227	-0.154785	0.386963	-0.622070	0.859698	-0.200342	-0.285244	-0.373388
42179		6.261705	-1.270814	7.427101	-0.009356	0.001953	0.009989	-0.154053	0.384766	-0.620850	0.859706	-0.200453	-0.285154	-0.373379
42180		6.255680	-1.326933	7.418517	-0.006194	0.000884	0.015112	-0.145752	0.387695	-0.613281	0.859737	-0.200550	-0.285077	-0.373314
42181		6.268401	-1.313753	7.414027	-0.005759	0.002526	0.011161	-0.147217	0.396729	-0.620361	0.859811	-0.200610	-0.284991	-0.373178
42182		6.242981	-1.341386	7.443407	-0.003336	0.002764	0.009818	-0.151123	0.387207	-0.619141	0.859864	-0.200673	-0.284895	-0.373094
42183		6.257844	-1.351285	7.412438	-0.000537	0.002976	0.010709	-0.145752	0.385986	-0.621094	0.859909	-0.200710	-0.284823	-0.373026
42184		6.238066	-1.324046	7.450542	0.007708	0.001734	0.009982	-0.147705	0.395996	-0.625488	0.859979	-0.200676	-0.284779	-0.372916
42185		6.243396	-1.386673	7.443538	0.011813	0.000169	0.002636	-0.148926	0.386963	-0.632812	0.860015	-0.200624	-0.284758	-0.372877
42186		6.215767	-1.400229	7.406854	0.014475	-0.000241	-0.001872	-0.146973	0.387695	-0.615723	0.860015	-0.200536	-0.284758	-0.372925
42187		6.245159	-1.310384	7.459265	0.011408	0.001038	0.002589	-0.159180	0.391113	-0.625732	0.860074	-0.200464	-0.284749	-0.372834
42188		6.237586	-1.319371	7.451774	0.008398	0.000634	0.002674	-0.152100	0.387207	-0.617188	0.860055	-0.200457	-0.284734	-0.372892
42189		6.228608	-1.333098	7.423976	0.009614	-0.001969	0.002810	-0.150391	0.385254	-0.613281	0.860080	-0.200421	-0.284747	-0.372844
42190		6.230643	-1.376207	7.423175	0.007221	-0.003048	0.001964	-0.145752	0.391602	-0.624756	0.860111	-0.200393	-0.284767	-0.372773
42191		6.245778	-1.403297	7.418087	0.015499	0.001564	-0.004568	-0.148682	0.392090	-0.619629	0.860142	-0.200282	-0.284763	-0.372764
42192		6.262365	-1.307547	7.449244	0.017544	0.001828	-0.008147	-0.143311	0.384766	-0.624023	0.860165	-0.200152	-0.284779	-0.372768
42193		6.241559	-1.378391	7.426014	0.016901	0.006694	-0.006837	-0.144775	0.389648	-0.616211	0.860213	-0.199992	-0.284751	-0.372764
42194		6.266932	-1.248617	7.459481	0.009634	0.005983	-0.002807	-0.140625	0.393799	-0.620361	0.860273	-0.199904	-0.284706	-0.372707
42195		6.273998	-1.218200	7.442039	0.002292	0.005705	0.007599	-0.144775	0.380859	-0.624512	0.860364	-0.199891	-0.284609	-0.372578
42196		6.235724	-1.385966	7.388321	-0.000398	0.010310	0.012485	-0.150879	0.385742	-0.623291	0.860440	-0.199890	-0.284475	-0.372506
42197		6.244648	-1.366960	7.437700	0.008738	0.013594	0.001856	-0.149902	0.378906	-0.624756	0.860484	-0.199812	-0.284367	-0.372529
42198		6.225848	-1.361814	7.450441	0.010169	0.014532	-0.000792	-0.144043	0.385010	-0.618408	0.860520	-0.199703	-0.284265	-0.372582
42199		6.211378	-1.239194	7.446250	0.005517	0.012999	0.002915	-0.147217	0.389160	-0.625244	0.860600	-0.199631	-0.284150	-0.372524
42200		6.211542	-1.283075	7.446937	0.004655	0.010979	0.008818	-0.144043	0.387207	-0.617676	0.860666	-0.199603	-0.284029	-0.372478
42201		6.228071	-1.302932	7.483233	0.002038	0.011803	0.009137	-0.147461	0.395996	-0.618164	0.860758	-0.199578	-0.283900	-0.372376
42202		6.224854	-1.376551	7.469362	0.005479	0.007149	0.008722	-0.156494	0.388184	-0.626953	0.860834	-0.199564	-0.283813	-0.372276
42203		6.188457	-1.421102	7.451439	0.010810	0.006317	-0.000290	-0.148682	0.385986	-0.624023	0.860822	-0.199512	-0.283768	-0.372366
42204		6.183714	-1.399548	7.459136	0.016133	0.010927	-0.010926	-0.140625	0.379883	-0.614990	0.860836	-0.199356	-0.283722	-0.372452
42205		6.210541	-1.312553	7.492331	0.017155	0.009385	-0.011810	-0.144531	0.383301	-0.621826	0.860895	-0.199162	-0.283699	-0.372436
42206		6.183265	-1.174837	7.538610	0.011470	0.002703	-0.003596	-0.148926	0.387939	-0.619629	0.860926	-0.199068	-0.283686	-0.372425
42207		6.251693	-1.238609	7.473923	0.004974	-0.002243	0.004526	-0.143555	0.385742	-0.627441	0.860947	-0.199073	-0.283678	-0.372379
42208		6.239208	-1.331180	7.411174	0.005290	0.002772	0.009320	-0.149902	0.390625	-0.628418	0.861004	-0.199056	-0.283615	-0.372306
42209		6.230897	-1.389787	7.383615	0.005890	0.012982	0.005138	-0.141846	0.387939	-0.616699	0.861045	-0.199017	-0.283489	-0.372326
42210		6.172462	-1.362117	7.404808	0.012954	0.016845	0.000272	-0.142822	0.391357	-0.627441	0.861149	-0.198875	-0.283373	-0.372251
42211		6.180517	-1.312290	7.501261	0.013044	0.010962	-0.004475	-0.152344	0.379395	-0.623047	0.861202	-0.198750	-0.283295	-0.372254
42212		6.192912	-1.275555	7.472102	0.008961	0.011698	0.000676	-0.150879	0.384521	-0.619141	0.861216	-0.198679	-0.283211	-0.372325
42213		6.193449	-1.318770	7.472669	0.006725	0.007057	0.004857	-0.137451	0.390381	-0.627930	0.861248	-0.198648	-0.283146	-0.372316
42214		6.198144	-1.381544	7.466463	0.007748	0.005513	0.003976	-0.151611	0.387207	-0.616699	0.861328	-0.198582	-0.283072	-0.372223
42215		6.208990	-1.370508	7.442607	0.005149	0.007586	0.002292	-0.144043	0.393066	-0.625977	0.861353	-0.198561	-0.283005	-0.372228
42216		6.206156	-1.394231	7.449311	0.011407	0.004395	0.000777	-0.149658	0.393311	-0.618164	0.861401	-0.198488	-0.282962	-0.372188
42217		6.213089	-1.313855	7.452711	0.014686	0.008740	-0.006287	-0.140869	0.388672	-0.628906	0.861430	-0.198376	-0.282923	-0.372209
42218		6.211206	-1.350886	7.505918	0.018912	0.006543	-0.006228	-0.139160	0.384766	-0.623291	0.861479	-0.198212	-0.282898	-0.372204
42219		6.224266	-1.312995	7.476422	0.016081	0.007177	-0.004936	-0.148926	0.389404	-0.614746	0.861542	-0.198060	-0.282863	-0.372164
42220		6.212405	-1.350251	7.455572	0.012793	0.008276	0.000495	-0.150879	0.392822	-0.622314	0.861593	-0.197974	-0.282816	-0.372128
42221		6.230188	-1.396943	7.445203	0.010953	0.008212	0.003094	-0.143066	0.390625	-0.623535	0.861630	-0.197918	-0.282751	-0.372121
42222		6.232556	-1.367310	7.460451	0.006229	0.008380	0.011173	-0.141846	0.385010	-0.622070	0.861717	-0.197890	-0.282652	-0.372011
42223		6.236650	-1.266284	7.490119	-0.002534	0.006344	0.022033	-0.146240	0.392334	-0.615967	0.861818	-0.197947	-0.282525	-0.371841
42224		6.228821	-1.295703	7.528915	-0.016588	0.005559	0.037707	-0.145996	0.386963	-0.623047	0.861941	-0.198165	-0.282341	-0.371580
42225		6.217546	-1.291263	7.547341	-0.057001	0.003205	0.058768	-0.132568	0.387939	-0.623535	0.862035	-0.198727	-0.282009	-0.371313
42226		6.274975	-1.340365	7.473938	-0.108395	0.002167	0.089174	-0.146484	0.390381	-0.624756	0.862199	-0.199691	-0.281465	-0.370830
42227		6.165994	-1.381350	7.430875	-0.106338	0.007743	0.097654	-0.145752	0.385010	-0.620605	0.862329	-0.200691	-0.280880	-0.370430
42228		6.123523	-1.423525	7.417869	-0.030375	0.012739	0.060454	-0.136475	0.393799	-0.616943	0.862478	-0.201036	-0.280563	-0.370137
42229		6.186315	-1.278593	7.464409	-0.007974	0.021258	0.050241	-0.150146	0.386475	-0.620361	0.862714	-0.201148	-0.280264	-0.369750
42230		6.091433	-1.526347	7.475860	0.001746	0.027619	0.043272	-0.149414	0.391113	-0.624023	0.862871	-0.201195	-0.279969	-0.369583
42231		6.129301	-1.383134	7.526794	0.000841	0.020346	0.037029	-0.137451	0.391113	-0.623779	0.862993	-0.201258	-0.279731	-0.369444
42232		6.124556	-1.231239	7.524708	-0.008636	0.011252	0.040631	-0.141846	0.396973	-0.628174	0.863146	-0.201390	-0.279515	-0.369177
42233		6.123051	-1.216837	7.499732	-0.011898	0.011522	0.043855	-0.137207	0.396240	-0.619873	0.863281	-0.201573	-0.279278	-0.368943
42234		6.131954	-1.441205	7.464459	-0.011556	0.010431	0.034334	-0.135986	0.389160	-0.620117	0.863417	-0.201719	-0.279070	-0.368702
42235		6.188757	-1.512326	7.465617	-0.007873	0.014743	0.029528	-0.139893	0.393799	-0.619141	0.863548	-0.201805	-0.278854	-0.368511
42236		6.160535	-1.541529	7.496288	-0.006156	0.020463	0.022116	-0.134766	0.397705	-0.618164	0.863659	-0.201862	-0.278617	-0.368400
42237		6.120691	-1.544635	7.479664	0.001139	0.014836	0.017558	-0.134033	0.393799	-0.621826	0.863785	-0.201861	-0.278445	-0.368234
42238		6.096508	-1.366079	7.495068	0.001822	0.012463	0.012270	-0.143311	0.395020	-0.622070	0.863881	-0.201845	-0.278301	-0.368125
42239		6.091323	-1.348033	7.502633	-0.000820	0.007858	0.014197	-0.135742	0.388672	-0.617920	0.863922	-0.201898	-0.278183	-0.368091
42240		6.106013	-1.406486	7.450940	0.002051	-0.002031	0.009985	-0.137939	0.401367	-0.622559	0.863965	-0.201923	-0.278154	-0.367997
42241		6.142744	-1.518343	7.473967	0.010317	0.006315	0.008049	-0.143311	0.393799	-0.619141	0.864036	-0.201875	-0.278086	-0.367908
42242		6.125630	-1.493127	7.459962	0.012446	0.006964	0.000315	-0.131592	0.392090	-0.622803	0.864054	-0.201803	-0.278042	-0.367938
42243		6.086399	-1.482552	7.515334	0.030159	0.003007	-0.002916	-0.146973	0.396729	-0.615723	0.864135	-0.201571	-0.278077	-0.367850
42244		6.085578	-1.510557	7.449404	0.039149	-0.000260	-0.013071	-0.133301	0.394043	-0.620605	0.864131	-0.201313	-0.278192	-0.367913
42245		6.202276	-1.468809	7.540188	0.034250	0.004349	-0.007865	-0.137939	0.393555	-0.621826	0.864205	-0.201043	-0.278241	-0.367851
42246		6.135330	-1.408249	7.533087	0.019054	0.003715	0.001040	-0.136719	0.394775	-0.622314	0.864254	-0.200920	-0.278234	-0.367808
42247		6.177570	-1.338099	7.514336	0.004461	0.000139	0.022571	-0.136475	0.392578	-0.626709	0.864343	-0.200960	-0.278171	-0.367624
42248		6.234526	-1.364238	7.515424	-0.006044	0.002097	0.039527	-0.132568	0.402100	-0.619385	0.864462	-0.201107	-0.278030	-0.367371
42249		6.191657	-1.399866	7.483214	-0.014756	0.012266	0.045073	-0.142578	0.393311	-0.623779	0.864649	-0.201293	-0.277781	-0.367015
42250		6.146204	-1.428543	7.524186	-0.023897	0.015769	0.052006	-0.132568	0.393555	-0.624268	0.864776	-0.201579	-0.277472	-0.366793
42251		6.080811	-1.350900	7.531154	-0.029310	0.012232	0.051031	-0.135742	0.391846	-0.625244	0.864930	-0.201881	-0.277168	-0.366494
42252		6.060532	-1.451834	7.500850	-0.024384	0.008872	0.043821	-0.133789	0.389160	-0.626709	0.865039	-0.202152	-0.276917	-0.366278
42253		6.086365	-1.583763	7.496060	-0.009845	0.007825	0.026116	-0.137939	0.391113	-0.622070	0.865116	-0.202273	-0.276747	-0.366158
42254		6.115139	-1.499473	7.549030	-0.007160	0.009479	0.021823	-0.133301	0.401123	-0.621582	0.865175	-0.202376	-0.276585	-0.366084
42255		6.105862	-1.449115	7.516661	-0.013656	0.009196	0.026083	-0.130127	0.400635	-0.622314	0.865273	-0.202528	-0.276394	-0.365912
42256		6.094090	-1.488376	7.515032	-0.020119	0.008066	0.028164	-0.128418	0.401123	-0.625000	0.865377	-0.202725	-0.276185	-0.365715
42257		6.156289	-1.511750	7.503905	-0.024084	0.005453	0.024562	-0.140137	0.399658	-0.623047	0.865460	-0.202946	-0.275987	-0.365544
42258		6.133889	-1.495132	7.521440	-0.043236	0.012752	0.030762	-0.134766	0.401855	-0.620117	0.865485	-0.203334	-0.275675	-0.365505
42259		6.148339	-1.418042	7.531953	-0.065684	0.006738	0.050574	-0.128174	0.398682	-0.625488	0.865551	-0.203933	-0.275304	-0.365297
42260		6.077278	-1.448068	7.507379	-0.076266	0.002217	0.057351	-0.135986	0.402832	-0.615234	0.865624	-0.204615	-0.274915	-0.365033
42261		6.052900	-1.556037	7.506887	-0.067023	-0.000655	0.055769	-0.132324	0.403809	-0.617920	0.865678	-0.205264	-0.274588	-0.364787
42262		5.934572	-1.572522	7.462379	-0.030030	-0.000934	0.029452	-0.130615	0.410400	-0.622559	0.865727	-0.205575	-0.274416	-0.364625
42263		5.968595	-1.584082	7.439954	0.005432	-0.003621	-0.001768	-0.131836	0.402832	-0.624756	0.865748	-0.205566	-0.274419	-0.364579
42264		6.026721	-1.665867	7.466268	0.055614	-0.002336	-0.035357	-0.128174	0.410645	-0.623291	0.865732	-0.205114	-0.274624	-0.364715
42265		6.114769	-1.592875	7.501813	0.084532	0.004811	-0.057252	-0.127686	0.400879	-0.620850	0.865754	-0.204372	-0.274901	-0.364872
42266		6.095162	-1.396979	7.518602	0.075878	0.002848	-0.057040	-0.138672	0.398193	-0.630127	0.865749	-0.203693	-0.275169	-0.365062
42267		6.095419	-1.339858	7.520869	0.054112	-0.003435	-0.042332	-0.135498	0.398193	-0.616211	0.865666	-0.203258	-0.275388	-0.365336
42268		6.048625	-1.496948	7.530613	0.049255	-0.016204	-0.031276	-0.136230	0.399414	-0.625732	0.865617	-0.202911	-0.275675	-0.365428
42269		6.076743	-1.575684	7.505134	0.035304	-0.021095	-0.026618	-0.138428	0.394043	-0.619385	0.865536	-0.202691	-0.275940	-0.365541
42270		6.073971	-1.483010	7.537074	0.014673	-0.029411	-0.019078	-0.130371	0.397461	-0.619629	0.865415	-0.202668	-0.276195	-0.365649
