// Start Time: Unknown
// Update Rate: 60.0Hz
// Filter Profile: human (46.1)
// Firmware Version: 4.6.0
PacketCounter	SampleTimeFine	Acc_X	Acc_Y	Acc_Z	Gyr_X	Gyr_Y	Gyr_Z	Mag_X	Mag_Y	Mag_Z	Quat_q0	Quat_q1	Quat_q2	Quat_q3
35465		9.701853	0.391360	-1.646141	-0.000763	0.006039	-0.009230	-0.769287	-0.313721	-0.175781	0.605008	0.297520	-0.702500	0.227905
35466		9.684523	0.411624	-1.645285	-0.000965	0.001938	-0.012377	-0.761475	-0.317383	-0.171875	0.605048	0.297570	-0.702463	0.227848
35467		9.680775	0.411170	-1.716768	-0.000243	-0.000310	-0.014733	-0.760986	-0.315918	-0.177246	0.605074	0.297656	-0.702429	0.227771
35468		9.682541	0.414777	-1.680814	0.001436	0.002154	-0.013699	-0.760254	-0.320068	-0.174316	0.605107	0.297740	-0.702383	0.227715
35469		9.684351	0.418464	-1.644570	0.000264	0.003304	-0.015801	-0.766602	-0.321289	-0.174072	0.605152	0.297830	-0.702330	0.227642
35470		9.686602	0.388611	-1.643274	0.000064	-0.000797	-0.018950	-0.767578	-0.316650	-0.174072	0.605179	0.297946	-0.702290	0.227542
35471		9.690854	0.372224	-1.636872	0.002156	-0.000094	-0.016060	-0.755127	-0.323486	-0.172852	0.605198	0.298054	-0.702251	0.227470
35472		9.693296	0.354234	-1.666251	0.012634	-0.000004	-0.017737	-0.763184	-0.317139	-0.176270	0.605193	0.298224	-0.702189	0.227452
35473		9.686823	0.362550	-1.677919	0.020925	0.003743	-0.020365	-0.756348	-0.308838	-0.166260	0.605191	0.298442	-0.702089	0.227480
35474		9.697018	0.374360	-1.624675	0.025509	0.000305	-0.020745	-0.761963	-0.316650	-0.178955	0.605153	0.298691	-0.702001	0.227526
35475		9.695105	0.375809	-1.660327	0.019871	0.003389	-0.021827	-0.761719	-0.315430	-0.176025	0.605148	0.298911	-0.701905	0.227544
35476		9.706020	0.365833	-1.672274	0.021000	-0.000503	-0.019621	-0.760498	-0.321289	-0.168457	0.605111	0.299130	-0.701836	0.227571
35477		9.705905	0.368565	-1.672346	0.021925	0.001235	-0.021548	-0.760986	-0.318115	-0.180420	0.605079	0.299360	-0.701756	0.227600
35478		9.677834	0.356582	-1.663937	0.029616	0.005618	-0.023889	-0.762451	-0.319580	-0.173584	0.605055	0.299632	-0.701636	0.227674
35479		9.677384	0.405564	-1.659200	0.032719	0.003821	-0.022161	-0.756592	-0.316650	-0.174072	0.605004	0.299911	-0.701529	0.227775
35480		9.661841	0.440193	-1.653522	0.027295	0.001154	-0.021817	-0.754395	-0.320312	-0.176514	0.604949	0.300166	-0.701446	0.227838
35481		9.683132	0.451894	-1.642901	0.021036	0.001999	-0.025195	-0.769043	-0.320557	-0.177979	0.604921	0.300411	-0.701363	0.227846
35482		9.698637	0.435425	-1.678733	0.020569	0.001130	-0.024241	-0.757080	-0.322266	-0.175781	0.604877	0.300648	-0.701297	0.227854
35483		9.704923	0.433190	-1.666778	0.015186	0.001205	-0.024002	-0.759277	-0.316406	-0.180420	0.604855	0.300864	-0.701232	0.227827
35484		9.673038	0.406433	-1.699674	0.020427	0.002751	-0.022202	-0.761475	-0.316406	-0.175293	0.604823	0.301085	-0.701160	0.227840
35485		9.674949	0.422942	-1.693915	0.032859	0.004955	-0.024392	-0.769043	-0.315674	-0.168213	0.604766	0.301380	-0.701056	0.227922
35486		9.694303	0.420908	-1.688519	0.043703	0.000567	-0.024129	-0.763428	-0.321045	-0.174805	0.604634	0.301740	-0.700970	0.228061
35487		9.680375	0.457243	-1.647670	0.039797	-0.001002	-0.026013	-0.765137	-0.316895	-0.181641	0.604517	0.302096	-0.700885	0.228162
35488		9.684080	0.487354	-1.637292	0.024277	0.001443	-0.022977	-0.760986	-0.322510	-0.177002	0.604452	0.302335	-0.700830	0.228185
35489		9.686479	0.458115	-1.635931	0.014118	0.000825	-0.025498	-0.759277	-0.315430	-0.177979	0.604422	0.302560	-0.700774	0.228137
35490		9.695595	0.447500	-1.683597	0.008148	0.001524	-0.024947	-0.760010	-0.318848	-0.171143	0.604424	0.302732	-0.700728	0.228048
35491		9.670199	0.415197	-1.704679	0.007810	-0.000718	-0.020606	-0.760254	-0.325195	-0.170898	0.604389	0.302902	-0.700706	0.227983
35492		9.684850	0.420642	-1.675752	0.011840	-0.000768	-0.020801	-0.761475	-0.323975	-0.177246	0.604334	0.303112	-0.700674	0.227947
35493		9.682744	0.410274	-1.681324	0.012727	-0.001777	-0.022620	-0.757568	-0.313965	-0.172852	0.604280	0.303317	-0.700646	0.227902
35494		9.669596	0.424638	-1.705773	0.016727	-0.004569	-0.022698	-0.759521	-0.329346	-0.177734	0.604212	0.303517	-0.700631	0.227864
35495		9.686127	0.455805	-1.702751	0.021511	-0.004127	-0.025377	-0.762695	-0.318359	-0.172119	0.604127	0.303804	-0.700581	0.227857
35496		9.685713	0.447455	-1.673099	0.020755	-0.004743	-0.025625	-0.755371	-0.324463	-0.176025	0.604024	0.304054	-0.700569	0.227836
35497		9.685407	0.451055	-1.673905	0.021962	-0.003260	-0.026363	-0.755859	-0.315918	-0.177002	0.603965	0.304330	-0.700505	0.227820
35498		9.689838	0.459448	-1.729031	0.020911	-0.003625	-0.027820	-0.767822	-0.320801	-0.168213	0.603917	0.304556	-0.700461	0.227779
35499		9.671878	0.469898	-1.699071	0.015400	-0.002069	-0.028233	-0.763672	-0.321289	-0.165039	0.603808	0.304805	-0.700462	0.227736
35500		9.665114	0.479242	-1.711605	0.009698	-0.004248	-0.023622	-0.760254	-0.321289	-0.174561	0.603699	0.305018	-0.700482	0.227678
35501		9.671239	0.477545	-1.700573	-0.000322	-0.006391	-0.025463	-0.757812	-0.315918	-0.168213	0.603656	0.305155	-0.700508	0.227525
35502		9.700419	0.392852	-1.686843	-0.006743	-0.006702	-0.026654	-0.761475	-0.317383	-0.177002	0.603625	0.305258	-0.700555	0.227326
35503		9.713971	0.351794	-1.698334	-0.010026	-0.005917	-0.023501	-0.764160	-0.328857	-0.171875	0.603615	0.305280	-0.700620	0.227122
35504		9.687711	0.366212	-1.716253	-0.006430	-0.004208	-0.025578	-0.763672	-0.320312	-0.173340	0.603562	0.305432	-0.700647	0.226976
35505		9.674535	0.381598	-1.740299	0.000036	0.001465	-0.027365	-0.760010	-0.325684	-0.176514	0.603545	0.305533	-0.700656	0.226858
35506		9.689257	0.388352	-1.710844	0.002582	0.003065	-0.025443	-0.754883	-0.320801	-0.173340	0.603555	0.305657	-0.700622	0.226768
35507		9.657460	0.444158	-1.669673	-0.005524	-0.002349	-0.024811	-0.760742	-0.318848	-0.170654	0.603569	0.305726	-0.700630	0.226614
35508		9.678486	0.457703	-1.659708	-0.024058	-0.005430	-0.028019	-0.755615	-0.326660	-0.168213	0.603573	0.305713	-0.700719	0.226347
35509		9.680920	0.442304	-1.689749	-0.038271	-0.008675	-0.027498	-0.768066	-0.325195	-0.170410	0.603599	0.305734	-0.700797	0.226005
35510		9.670319	0.414622	-1.682791	-0.042311	-0.008768	-0.030050	-0.756836	-0.319824	-0.171387	0.603588	0.305686	-0.700945	0.225642
35511		9.706274	0.338368	-1.688062	-0.041729	-0.009523	-0.033106	-0.763672	-0.322754	-0.174072	0.603654	0.305616	-0.701052	0.225229
35512		9.697560	0.324912	-1.675848	-0.036344	-0.006823	-0.033503	-0.761230	-0.321045	-0.167969	0.603696	0.305554	-0.701157	0.224869
35513		9.705457	0.351404	-1.690091	-0.034714	-0.007210	-0.035105	-0.758057	-0.322266	-0.174316	0.603705	0.305546	-0.701259	0.224538
35514		9.677299	0.354569	-1.712987	-0.024525	-0.001173	-0.035560	-0.764404	-0.332520	-0.167480	0.603789	0.305535	-0.701285	0.224247
35515		9.670524	0.354727	-1.694752	-0.008123	-0.004527	-0.040474	-0.764404	-0.322998	-0.168213	0.603714	0.305805	-0.701280	0.224097
35516		9.665363	0.380128	-1.702335	0.002161	-0.008092	-0.037179	-0.761963	-0.323975	-0.170654	0.603605	0.305977	-0.701333	0.223990
35517		9.684850	0.441393	-1.689754	0.013014	-0.015392	-0.042277	-0.762695	-0.328613	-0.166992	0.603470	0.306233	-0.701370	0.223886
35518		9.695933	0.482910	-1.664557	0.018383	-0.015425	-0.042552	-0.754150	-0.318115	-0.174561	0.603282	0.306607	-0.701381	0.223848
35519		9.716425	0.510205	-1.686702	0.008698	-0.009509	-0.040826	-0.752197	-0.320068	-0.169434	0.603297	0.306700	-0.701384	0.223671
35520		9.639450	0.548569	-1.703363	-0.000554	-0.005593	-0.042688	-0.758545	-0.324951	-0.176758	0.603317	0.306849	-0.701362	0.223482
35521		9.677815	0.558293	-1.724582	0.000177	-0.007718	-0.042346	-0.759033	-0.323242	-0.176758	0.603356	0.306936	-0.701361	0.223259
35522		9.675266	0.563454	-1.761933	0.007474	-0.011120	-0.042879	-0.760010	-0.326172	-0.175293	0.603358	0.307036	-0.701378	0.223063
35523		9.672997	0.544485	-1.738551	0.019718	-0.009926	-0.042934	-0.763672	-0.330322	-0.165771	0.603313	0.307245	-0.701359	0.222956
35524		9.685259	0.551743	-1.747274	0.033587	-0.011852	-0.044470	-0.763428	-0.328857	-0.166260	0.603094	0.307711	-0.701324	0.223016
35525		9.693156	0.625634	-1.722313	0.022265	-0.002831	-0.041262	-0.763428	-0.325439	-0.165527	0.602965	0.308042	-0.701284	0.223035
35526		9.660099	0.706613	-1.742729	0.012112	-0.003297	-0.038313	-0.758301	-0.321045	-0.167725	0.602853	0.308259	-0.701295	0.223003
35527		9.662832	0.679721	-1.741786	0.005404	-0.000408	-0.035366	-0.761230	-0.330078	-0.165283	0.602833	0.308343	-0.701306	0.222906
35528		9.642744	0.629980	-1.756258	-0.002360	-0.000637	-0.033759	-0.757568	-0.326172	-0.162598	0.602774	0.308538	-0.701300	0.222812
35529		9.648743	0.570074	-1.754525	-0.001029	-0.011491	-0.030626	-0.765625	-0.337891	-0.177490	0.602632	0.308745	-0.701359	0.222723
35530		9.682313	0.585140	-1.752728	-0.001479	-0.012363	-0.029659	-0.752686	-0.326660	-0.174072	0.602629	0.308812	-0.701402	0.222506
35531		9.689990	0.597921	-1.737263	0.003008	-0.008629	-0.028214	-0.760742	-0.325684	-0.166992	0.602672	0.308842	-0.701411	0.222320
35532		9.681227	0.594467	-1.755587	0.002401	-0.005386	-0.030774	-0.755127	-0.329834	-0.171387	0.602601	0.308933	-0.701461	0.222225
35533		9.654645	0.609170	-1.773089	0.003746	0.000100	-0.031081	-0.761963	-0.329346	-0.166260	0.602650	0.309039	-0.701416	0.222088
35534		9.667585	0.603235	-1.749228	0.007621	0.001591	-0.031958	-0.762695	-0.323730	-0.171875	0.602589	0.309205	-0.701408	0.222049
35535		9.673957	0.602740	-1.737009	-0.005361	0.002601	-0.029522	-0.766113	-0.334229	-0.167969	0.602646	0.309077	-0.701468	0.221881
35536		9.652495	0.598451	-1.747112	-0.009990	0.000483	-0.028902	-0.756104	-0.323975	-0.170166	0.602622	0.309150	-0.701501	0.221742
35537		9.673567	0.552768	-1.745835	-0.018637	-0.001508	-0.025333	-0.761475	-0.332031	-0.177734	0.602690	0.309019	-0.701572	0.221514
35538		9.686752	0.486741	-1.731220	-0.021468	0.000115	-0.023125	-0.763916	-0.320801	-0.174316	0.602854	0.308792	-0.701630	0.221202
35539		9.668266	0.473020	-1.800774	-0.008037	0.005604	-0.024030	-0.758545	-0.325928	-0.165527	0.602945	0.308517	-0.701719	0.221052
35540		9.687844	0.472737	-1.794637	0.005840	0.006481	-0.025679	-0.760010	-0.335938	-0.172119	0.602892	0.308641	-0.701699	0.221090
35541		9.677548	0.574565	-1.797339	0.005224	0.009723	-0.028242	-0.755615	-0.324463	-0.164795	0.602969	0.308745	-0.701613	0.221007
35542		9.656398	0.617529	-1.766513	0.008946	0.009974	-0.029671	-0.766602	-0.323486	-0.173340	0.602934	0.308905	-0.701556	0.221061
35543		9.682316	0.624302	-1.778434	0.004912	0.009969	-0.029480	-0.761230	-0.331299	-0.168701	0.602995	0.308746	-0.701595	0.220993
35544		9.645004	0.639052	-1.751315	-0.000011	0.010962	-0.027447	-0.769043	-0.332031	-0.174316	0.603022	0.308819	-0.701552	0.220953
35545		9.665838	0.664650	-1.769933	-0.003883	0.006715	-0.026468	-0.753906	-0.322266	-0.171631	0.603088	0.308696	-0.701591	0.220819
35546		9.652745	0.668037	-1.762203	-0.010157	0.004833	-0.027006	-0.765869	-0.326172	-0.162842	0.603179	0.308583	-0.701610	0.220668
35547		9.650960	0.658708	-1.767140	-0.002509	-0.001388	-0.023441	-0.755371	-0.330322	-0.165527	0.603001	0.308699	-0.701692	0.220733
35548		9.670210	0.658338	-1.762456	-0.011752	-0.005648	-0.022197	-0.764160	-0.332764	-0.178467	0.602925	0.308823	-0.701730	0.220645
35549		9.659981	0.688078	-1.745691	-0.014436	-0.002784	-0.019430	-0.768555	-0.324707	-0.166748	0.603049	0.308566	-0.701823	0.220371
35550		9.677851	0.673330	-1.745696	-0.016210	0.002077	-0.013107	-0.762451	-0.332520	-0.166748	0.602967	0.308406	-0.701968	0.220356
35551		9.676103	0.709927	-1.710479	-0.019639	0.004314	-0.010583	-0.755371	-0.333984	-0.174072	0.602941	0.308366	-0.702027	0.220297
35552		9.657685	0.741936	-1.740011	-0.023516	0.002806	-0.009721	-0.764404	-0.329102	-0.173096	0.603074	0.308194	-0.702059	0.220074
35553		9.647896	0.722336	-1.762038	-0.030363	-0.001081	-0.007084	-0.754150	-0.330811	-0.175781	0.603130	0.307884	-0.702210	0.219870
35554		9.639617	0.716105	-1.779003	-0.032002	-0.000712	-0.005494	-0.762939	-0.331787	-0.167236	0.603282	0.307588	-0.702296	0.219591
35555		9.664257	0.694755	-1.767002	-0.034695	-0.000721	-0.005374	-0.762695	-0.331543	-0.174561	0.603253	0.307459	-0.702419	0.219459
35556		9.670878	0.691027	-1.754602	-0.036040	0.002141	-0.002675	-0.765625	-0.330078	-0.167236	0.603363	0.307127	-0.702543	0.219222
35557		9.653039	0.662769	-1.793534	-0.035605	0.003016	-0.003664	-0.764404	-0.319580	-0.169678	0.603339	0.306954	-0.702673	0.219117
35558		9.663274	0.626359	-1.779928	-0.025585	-0.000320	-0.004314	-0.760742	-0.325439	-0.170166	0.603307	0.306648	-0.702855	0.219049
35559		9.663515	0.615565	-1.749513	-0.027654	-0.003575	-0.001636	-0.761230	-0.329102	-0.169189	0.603285	0.306422	-0.703007	0.218936
35560		9.661878	0.603100	-1.755096	-0.030946	-0.002963	-0.001207	-0.758057	-0.330322	-0.171143	0.603261	0.306254	-0.703140	0.218813
35561		9.675376	0.545611	-1.771123	-0.025880	0.002913	-0.000148	-0.758301	-0.333740	-0.169434	0.603304	0.306086	-0.703212	0.218695
35562		9.688755	0.535893	-1.746576	-0.018597	0.004822	-0.006398	-0.764893	-0.329834	-0.164551	0.603323	0.306082	-0.703224	0.218613
35563		9.680668	0.529173	-1.762925	-0.008872	0.004602	-0.005610	-0.758545	-0.324463	-0.169434	0.603201	0.306140	-0.703279	0.218692
35564		9.659686	0.521018	-1.772276	0.006199	0.009772	-0.008041	-0.767090	-0.320557	-0.165771	0.603184	0.306112	-0.703279	0.218779
35565		9.659819	0.522155	-1.771216	0.020408	0.004838	-0.010956	-0.756836	-0.326172	-0.166992	0.603008	0.306156	-0.703340	0.219005
35566		9.669532	0.544864	-1.748117	0.031767	0.004254	-0.011769	-0.754150	-0.323242	-0.171143	0.602872	0.306377	-0.703290	0.219232
35567		9.649717	0.597617	-1.712600	0.031152	0.007619	-0.011578	-0.752686	-0.332031	-0.171631	0.602841	0.306445	-0.703235	0.219397
35568		9.686609	0.648389	-1.727546	0.028897	0.008486	-0.012440	-0.755615	-0.321533	-0.167480	0.602839	0.306652	-0.703106	0.219527
35569		9.688223	0.663074	-1.721171	0.016657	0.007313	-0.009678	-0.762207	-0.328857	-0.175781	0.602774	0.306674	-0.703106	0.219673
35570		9.669719	0.596691	-1.704076	0.005591	0.010386	-0.007755	-0.757812	-0.322998	-0.170166	0.602864	0.306532	-0.703094	0.219663
35571		9.668443	0.548720	-1.778208	0.009318	0.010652	-0.009171	-0.760742	-0.333740	-0.174072	0.602871	0.306471	-0.703088	0.219749
35572		9.660850	0.529479	-1.763401	0.015310	0.010173	-0.006974	-0.759521	-0.320312	-0.168457	0.602910	0.306507	-0.703018	0.219814
35573		9.671887	0.577213	-1.764644	0.022499	0.008453	-0.005397	-0.767090	-0.325439	-0.166748	0.602822	0.306487	-0.703035	0.220032
35574		9.665802	0.570676	-1.744673	0.024880	0.011579	-0.004109	-0.758057	-0.325928	-0.170410	0.602687	0.306555	-0.703033	0.220314
35575		9.708308	0.589613	-1.721874	0.016942	0.012671	-0.005940	-0.764160	-0.324707	-0.169922	0.602686	0.306555	-0.702988	0.220457
35576		9.666036	0.619004	-1.701138	0.007836	0.012383	-0.004274	-0.756836	-0.331787	-0.166992	0.602668	0.306465	-0.703003	0.220582
35577		9.656827	0.597835	-1.721225	-0.002204	0.018454	-0.003758	-0.761963	-0.329102	-0.163574	0.602695	0.306537	-0.702919	0.220679
35578		9.673951	0.567019	-1.723754	-0.003683	0.017323	-0.001492	-0.759766	-0.325928	-0.175049	0.602634	0.306598	-0.702893	0.220842
35579		9.697706	0.530381	-1.714509	-0.006800	0.016559	0.002372	-0.765381	-0.330078	-0.176758	0.602770	0.306320	-0.702899	0.220838
35580		9.667031	0.547091	-1.705246	-0.007849	0.013315	-0.001746	-0.761475	-0.332520	-0.177490	0.602897	0.306090	-0.702904	0.220793
35581		9.690410	0.522864	-1.726986	-0.008449	0.013936	-0.001440	-0.761963	-0.320801	-0.180664	0.603055	0.305903	-0.702872	0.220725
35582		9.672990	0.529124	-1.693695	-0.007881	0.018803	-0.001986	-0.764404	-0.329590	-0.180176	0.603279	0.305459	-0.702894	0.220658
35583		9.672278	0.504513	-1.665251	-0.014339	0.021025	-0.006095	-0.757568	-0.327148	-0.176270	0.603524	0.305148	-0.702858	0.220531
35584		9.695069	0.408358	-1.700568	-0.016748	0.020521	-0.010273	-0.763672	-0.320068	-0.177734	0.603732	0.304946	-0.702802	0.220418
35585		9.671309	0.385361	-1.749302	0.000186	0.015972	-0.005004	-0.765869	-0.316650	-0.166260	0.603841	0.304663	-0.702818	0.220460
35586		9.666139	0.429599	-1.814325	0.021672	0.015703	-0.014264	-0.764893	-0.325928	-0.168701	0.603695	0.304777	-0.702791	0.220787
35587		9.665941	0.478531	-1.772253	0.039615	0.014035	-0.013165	-0.763916	-0.318359	-0.174316	0.603557	0.305037	-0.702691	0.221127
35588		9.687266	0.489137	-1.759845	0.049903	0.012962	-0.018217	-0.765381	-0.323242	-0.173584	0.603488	0.305136	-0.702609	0.221436
35589		9.670255	0.569718	-1.712700	0.050313	0.016580	-0.019346	-0.761475	-0.319580	-0.175049	0.603432	0.305314	-0.702483	0.221746
35590		9.692781	0.606306	-1.725416	0.054951	0.013234	-0.019743	-0.765137	-0.329102	-0.174316	0.603381	0.305451	-0.702370	0.222052
35591		9.668344	0.619372	-1.705481	0.057330	0.010623	-0.023765	-0.762451	-0.322021	-0.175293	0.603306	0.305756	-0.702216	0.222325
35592		9.663290	0.640327	-1.710778	0.053275	0.013472	-0.020970	-0.761475	-0.325195	-0.170898	0.603271	0.305905	-0.702092	0.222603
35593		9.674077	0.689432	-1.712316	0.053446	0.009232	-0.020192	-0.760498	-0.325684	-0.167725	0.603144	0.306210	-0.701966	0.222927
35594		9.623405	0.699797	-1.680379	0.057087	0.000149	-0.019038	-0.754150	-0.332031	-0.171875	0.602907	0.306624	-0.701871	0.223297
35595		9.685526	0.668031	-1.694396	0.049955	-0.003374	-0.014860	-0.762695	-0.327148	-0.172119	0.602773	0.306979	-0.701761	0.223515
35596		9.688475	0.671821	-1.785416	0.047980	-0.000019	-0.014642	-0.763916	-0.331055	-0.173096	0.602633	0.307196	-0.701706	0.223769
35597		9.664194	0.647532	-1.837955	0.077068	-0.003604	-0.017766	-0.760254	-0.329346	-0.167236	0.602426	0.307601	-0.701589	0.224136
35598		9.597971	0.775335	-1.785327	0.116091	-0.025738	-0.027003	-0.757568	-0.322266	-0.164551	0.601926	0.308413	-0.701480	0.224705
35599		9.674571	0.893847	-1.747494	0.081671	-0.033444	-0.028674	-0.760742	-0.331543	-0.169922	0.601445	0.309019	-0.701503	0.225089
35600		9.647232	0.809315	-1.722744	0.029868	-0.023410	-0.026870	-0.763672	-0.329590	-0.166992	0.601260	0.309301	-0.701539	0.225082
35601		9.668586	0.640930	-1.778624	0.023675	-0.030670	-0.024348	-0.759766	-0.329834	-0.168945	0.600990	0.309565	-0.701654	0.225084
35602		9.672453	0.539385	-1.761347	0.047809	-0.045060	-0.017201	-0.761963	-0.334961	-0.167480	0.600617	0.309894	-0.701798	0.225178
35603		9.693714	0.637216	-1.739942	0.065518	-0.045189	-0.016950	-0.761475	-0.331299	-0.164795	0.600185	0.310385	-0.701889	0.225372
35604		9.658021	0.664350	-1.680687	0.054644	-0.031691	-0.019872	-0.760498	-0.324219	-0.158936	0.599834	0.310797	-0.701945	0.225560
35605		9.670986	0.607705	-1.701362	0.060235	-0.029444	-0.024654	-0.762695	-0.332031	-0.163818	0.599404	0.311272	-0.702008	0.225853
35606		9.671687	0.612274	-1.670877	0.059309	-0.028587	-0.025616	-0.764404	-0.331787	-0.162109	0.599077	0.311722	-0.702027	0.226041
35607		9.701579	0.609576	-1.712575	0.035758	-0.020854	-0.019470	-0.761719	-0.332031	-0.164062	0.598824	0.312009	-0.702077	0.226162
35608		9.675213	0.572159	-1.772419	0.047340	-0.018894	-0.019325	-0.756592	-0.329102	-0.161133	0.598602	0.312309	-0.702083	0.226315
35609		9.687253	0.501289	-1.795817	0.056549	-0.017188	-0.017809	-0.764648	-0.329102	-0.161133	0.598341	0.312664	-0.702068	0.226559
35610		9.668832	0.508276	-1.768295	0.075402	-0.012905	-0.015772	-0.759521	-0.338867	-0.172363	0.598031	0.313050	-0.702034	0.226953
35611		9.664308	0.540487	-1.773454	0.095224	-0.017706	-0.012424	-0.759033	-0.329834	-0.166748	0.597853	0.313437	-0.701909	0.227273
35612		9.669373	0.621040	-1.656699	0.093186	-0.014667	-0.017798	-0.763672	-0.336426	-0.152344	0.597618	0.313812	-0.701817	0.227657
35613		9.672431	0.673899	-1.675715	0.085993	-0.013001	-0.019379	-0.761719	-0.331055	-0.162842	0.597188	0.314507	-0.701710	0.228154
35614		9.686010	0.663317	-1.780330	0.071073	-0.008886	-0.019363	-0.765869	-0.336914	-0.150635	0.597000	0.314820	-0.701632	0.228455
35615		9.662265	0.663093	-1.858663	0.050080	-0.002541	-0.016590	-0.758057	-0.330322	-0.150146	0.596708	0.315295	-0.701558	0.228791
35616		9.596144	0.607384	-1.900291	0.034954	-0.006424	-0.017299	-0.763672	-0.329346	-0.160645	0.596455	0.315637	-0.701544	0.229022
35617		9.606326	0.571734	-1.888326	0.039780	-0.016893	-0.019507	-0.762451	-0.332520	-0.158447	0.596281	0.315787	-0.701586	0.229139
35618		9.625123	0.569227	-1.887111	0.057573	-0.027791	-0.016029	-0.757812	-0.330566	-0.160889	0.595969	0.316109	-0.701636	0.229354
35619		9.661607	0.550708	-1.760296	0.062558	-0.024780	-0.017796	-0.764893	-0.336426	-0.164307	0.595729	0.316386	-0.701650	0.229553
35620		9.691221	0.584466	-1.732680	0.061890	-0.021585	-0.020451	-0.758545	-0.333008	-0.162109	0.595557	0.316644	-0.701631	0.229699
35621		9.661949	0.556478	-1.732246	0.050066	-0.013855	-0.021699	-0.754639	-0.338135	-0.153564	0.595457	0.316840	-0.701594	0.229803
35622		9.657541	0.479432	-1.818588	0.050766	-0.013392	-0.024276	-0.756348	-0.337158	-0.154785	0.595259	0.317285	-0.701511	0.229956
35623		9.646283	0.480653	-1.904931	0.066076	-0.016465	-0.022679	-0.754395	-0.334961	-0.160156	0.595016	0.317747	-0.701430	0.230192
35624		9.662406	0.489122	-1.843332	0.076977	-0.014033	-0.025156	-0.766113	-0.335938	-0.155029	0.594857	0.318132	-0.701313	0.230427
35625		9.673885	0.540909	-1.814822	0.084495	-0.012086	-0.024917	-0.761475	-0.338379	-0.152588	0.594576	0.318610	-0.701212	0.230803
35626		9.691387	0.563399	-1.748383	0.079451	-0.015279	-0.025993	-0.757812	-0.338623	-0.158936	0.594285	0.319146	-0.701108	0.231125
35627		9.657619	0.469586	-1.735423	0.078062	-0.012554	-0.026120	-0.757324	-0.341309	-0.160400	0.594134	0.319545	-0.700978	0.231357
35628		9.631346	0.430852	-1.793747	0.100392	-0.017797	-0.031489	-0.764893	-0.337402	-0.151367	0.593941	0.320080	-0.700804	0.231639
35629		9.674136	0.392925	-1.784443	0.116072	-0.019996	-0.031040	-0.762207	-0.340088	-0.147705	0.593525	0.320788	-0.700660	0.232162
35630		9.634258	0.500063	-1.813809	0.119696	-0.019750	-0.032692	-0.763916	-0.345215	-0.141357	0.593077	0.321599	-0.700488	0.232702
35631		9.611913	0.565193	-1.817467	0.135554	-0.029096	-0.034052	-0.763916	-0.348633	-0.145508	0.592462	0.322647	-0.700319	0.233328
35632		9.670430	0.580012	-1.834065	0.129151	-0.029389	-0.032475	-0.754150	-0.342529	-0.147217	0.591945	0.323581	-0.700150	0.233850
35633		9.640065	0.561982	-1.866745	0.131881	-0.031049	-0.034916	-0.761719	-0.345947	-0.149902	0.591476	0.324458	-0.699972	0.234356
35634		9.636157	0.535892	-1.882343	0.120491	-0.034544	-0.034262	-0.754883	-0.338867	-0.148438	0.591049	0.325225	-0.699839	0.234765
35635		9.610756	0.573355	-1.897201	0.101469	-0.035389	-0.029088	-0.754883	-0.349365	-0.138184	0.590657	0.325819	-0.699775	0.235119
35636		9.587900	0.599059	-1.971662	0.097897	-0.040271	-0.032309	-0.754639	-0.344727	-0.141602	0.590146	0.326666	-0.699707	0.235427
35637		9.620159	0.612477	-1.976151	0.101656	-0.038765	-0.033450	-0.752930	-0.346191	-0.139404	0.589687	0.327415	-0.699634	0.235756
35638		9.624945	0.585803	-1.944995	0.111102	-0.042895	-0.033453	-0.758301	-0.341553	-0.142822	0.589170	0.328247	-0.699556	0.236124
35639		9.655126	0.536810	-1.901343	0.096316	-0.044957	-0.025019	-0.758057	-0.351074	-0.132568	0.588696	0.328826	-0.699568	0.236464
35640		9.648351	0.579622	-1.943133	0.089349	-0.035969	-0.017975	-0.752686	-0.345703	-0.139160	0.588177	0.329538	-0.699548	0.236825
35641		9.659249	0.654524	-1.946861	0.076294	-0.037372	-0.013391	-0.765869	-0.346680	-0.127930	0.587786	0.330006	-0.699565	0.237092
35642		9.623096	0.652653	-1.987287	0.052306	-0.035937	-0.009256	-0.764648	-0.350098	-0.137451	0.587277	0.330450	-0.699692	0.237360
35643		9.616123	0.670730	-2.001475	0.049822	-0.037440	-0.008342	-0.761963	-0.353516	-0.133545	0.586918	0.330771	-0.699788	0.237517
35644		9.633877	0.741050	-1.993343	0.038253	-0.040512	-0.005877	-0.768311	-0.353271	-0.134277	0.586544	0.331108	-0.699916	0.237595
35645		9.557896	0.746824	-2.044501	-0.012974	-0.046129	-0.007445	-0.757812	-0.354248	-0.132568	0.586280	0.331175	-0.700182	0.237368
35646		9.559972	0.628443	-2.062568	-0.027232	-0.049448	-0.007510	-0.763184	-0.345215	-0.134521	0.586060	0.331229	-0.700464	0.237004
35647		9.664929	0.413308	-1.998631	-0.016028	-0.052705	-0.008636	-0.775391	-0.348633	-0.128906	0.585784	0.331220	-0.700782	0.236761
35648		9.713760	0.306607	-2.021843	-0.005321	-0.046238	0.001150	-0.756836	-0.348389	-0.130127	0.585402	0.331257	-0.701106	0.236695
35649		9.701825	0.285032	-1.959128	0.014983	-0.036303	0.006091	-0.763184	-0.349121	-0.131348	0.585098	0.331363	-0.701303	0.236715
35650		9.656696	0.322020	-1.978405	0.026544	-0.033844	0.011397	-0.770508	-0.349609	-0.125000	0.584769	0.331464	-0.701484	0.236849
35651		9.630823	0.429470	-1.982650	0.013665	-0.033359	0.008794	-0.766846	-0.343750	-0.130615	0.584393	0.331566	-0.701717	0.236942
35652		9.605438	0.487668	-2.024308	0.006019	-0.045270	0.003122	-0.760498	-0.346436	-0.133545	0.584055	0.331577	-0.701998	0.236930
35653		9.626825	0.438175	-2.027628	0.003468	-0.046383	-0.006561	-0.764160	-0.342529	-0.127686	0.583806	0.331640	-0.702220	0.236794
35654		9.632148	0.272657	-2.046407	0.020123	-0.041788	-0.010311	-0.766602	-0.343750	-0.122803	0.583464	0.331804	-0.702423	0.236809
35655		9.644137	0.200808	-2.069478	0.054733	-0.035544	-0.020550	-0.760986	-0.347412	-0.124023	0.583028	0.332231	-0.702515	0.237011
35656		9.603458	0.232609	-2.111189	0.094889	-0.021006	-0.027879	-0.759277	-0.350586	-0.121582	0.582630	0.332891	-0.702401	0.237399
35657		9.512420	0.395979	-2.163725	0.122248	-0.019923	-0.039731	-0.761719	-0.348877	-0.122314	0.582178	0.333796	-0.702185	0.237875
35658		9.521427	0.533771	-2.160944	0.129823	-0.024545	-0.049357	-0.759277	-0.346436	-0.118896	0.581704	0.334755	-0.701959	0.238356
35659		9.537213	0.598529	-2.066181	0.107628	-0.029328	-0.061367	-0.760254	-0.353760	-0.131104	0.581262	0.335677	-0.701785	0.238650
35660		9.591356	0.553170	-2.069496	0.073845	-0.030357	-0.058364	-0.758301	-0.357178	-0.118896	0.581059	0.336370	-0.701606	0.238692
35661		9.661780	0.419533	-1.934718	0.040941	-0.018045	-0.049744	-0.763672	-0.353760	-0.116211	0.580886	0.336953	-0.701494	0.238620
35662		9.689940	0.246031	-1.911145	0.042462	-0.014348	-0.038934	-0.759033	-0.347900	-0.132324	0.580661	0.337436	-0.701431	0.238673
35663		9.692921	0.203985	-1.913326	0.060403	-0.004565	-0.032723	-0.757080	-0.356445	-0.117920	0.580613	0.337765	-0.701242	0.238880
35664		9.669550	0.255971	-1.918004	0.070563	0.006399	-0.025199	-0.758301	-0.357178	-0.121826	0.580455	0.338267	-0.701029	0.239178
35665		9.594844	0.349126	-1.948100	0.075649	0.003602	-0.016176	-0.758545	-0.356934	-0.118896	0.580289	0.338716	-0.700825	0.239541
35666		9.603053	0.470347	-1.946425	0.045081	0.000125	-0.006230	-0.756836	-0.351562	-0.123291	0.580142	0.338975	-0.700743	0.239772
35667		9.677574	0.423564	-1.969815	0.012102	0.006844	0.012336	-0.749268	-0.353760	-0.109863	0.580134	0.338872	-0.700741	0.239943
35668		9.704058	0.352237	-1.901177	0.001226	0.008316	0.024935	-0.763672	-0.347900	-0.120117	0.580028	0.338766	-0.700833	0.240079
35669		9.758807	0.308353	-1.836954	0.002661	0.025443	0.045424	-0.762939	-0.348389	-0.111572	0.580030	0.338365	-0.700894	0.240461
35670		9.735752	0.447030	-1.855109	-0.011476	0.039747	0.058311	-0.764893	-0.349854	-0.115723	0.580044	0.337863	-0.700988	0.240860
35671		9.624609	0.732625	-1.980851	-0.053296	0.045823	0.063975	-0.761963	-0.347168	-0.118896	0.580238	0.337111	-0.701125	0.241048
35672		9.530045	0.863252	-2.098261	-0.101902	0.045394	0.059475	-0.760254	-0.347168	-0.124512	0.580608	0.336124	-0.701336	0.240922
35673		9.519792	0.766236	-2.185568	-0.144538	0.043496	0.046859	-0.763428	-0.353516	-0.127197	0.581164	0.334994	-0.701575	0.240458
35674		9.517424	0.587796	-2.148840	-0.158108	0.038617	0.039272	-0.755859	-0.346436	-0.128662	0.581760	0.333915	-0.701809	0.239832
35675		9.627104	0.343887	-2.131714	-0.139280	0.033917	0.033816	-0.760498	-0.343262	-0.127441	0.582300	0.332918	-0.702024	0.239279
35676		9.681090	0.191370	-2.051784	-0.064490	0.023535	0.032568	-0.762695	-0.348389	-0.124512	0.582530	0.332295	-0.702168	0.239164
35677		9.760592	0.200868	-1.963249	-0.023152	0.036204	0.032394	-0.767578	-0.334473	-0.124512	0.582688	0.331923	-0.702166	0.239300
35678		9.663497	0.253653	-1.914468	-0.016283	0.044513	0.035187	-0.763428	-0.349121	-0.124512	0.582828	0.331413	-0.702182	0.239618
35679		9.676121	0.285640	-1.881108	-0.021063	0.057982	0.039949	-0.764648	-0.341797	-0.126953	0.583084	0.330988	-0.702089	0.239856
35680		9.645612	0.298870	-1.775547	-0.038695	0.053415	0.047783	-0.760986	-0.341797	-0.131104	0.583348	0.330363	-0.702094	0.240061
35681		9.595719	0.254437	-1.928960	-0.052003	0.040240	0.054243	-0.756592	-0.342041	-0.133057	0.583603	0.329658	-0.702179	0.240162
35682		9.609600	0.207311	-1.997653	-0.030400	0.032217	0.056819	-0.768311	-0.339355	-0.120605	0.583774	0.329071	-0.702246	0.240354
35683		9.619312	0.232626	-2.003432	-0.009103	0.024992	0.050374	-0.769287	-0.329834	-0.126709	0.583695	0.328671	-0.702387	0.240681
35684		9.672914	0.333594	-1.918309	0.003105	0.031184	0.045071	-0.769287	-0.331055	-0.126953	0.583671	0.328228	-0.702464	0.241122
35685		9.714492	0.384606	-1.861519	-0.009391	0.038632	0.033222	-0.766846	-0.333984	-0.133057	0.583752	0.327800	-0.702487	0.241440
35686		9.687082	0.310651	-1.917894	-0.025045	0.035514	0.019923	-0.764648	-0.336182	-0.129639	0.583952	0.327390	-0.702472	0.241558
35687		9.578809	0.215630	-1.972847	-0.027173	0.035030	0.006464	-0.764893	-0.340088	-0.138916	0.584153	0.327106	-0.702429	0.241579
35688		9.541709	0.236914	-1.973828	-0.022786	0.027241	0.000091	-0.764648	-0.335938	-0.137451	0.584399	0.326887	-0.702339	0.241542
35689		9.553843	0.241399	-1.886288	-0.028372	0.024667	-0.000484	-0.766602	-0.334229	-0.128906	0.584621	0.326620	-0.702297	0.241488
35690		9.755450	0.126691	-1.771519	-0.061391	0.042791	0.010118	-0.765381	-0.340332	-0.132080	0.584925	0.326127	-0.702316	0.241363
35691		9.701116	-0.056769	-1.798478	-0.107845	0.071553	0.018250	-0.762939	-0.323486	-0.139648	0.585542	0.325355	-0.702270	0.241043
35692		9.611508	-0.122662	-1.936082	-0.099171	0.082130	0.006992	-0.771973	-0.331543	-0.136719	0.586261	0.324475	-0.702152	0.240824
35693		9.507958	-0.058844	-2.175900	-0.047479	0.089860	-0.021304	-0.764160	-0.333984	-0.145020	0.586885	0.324092	-0.701823	0.240781
35694		9.501958	0.055730	-2.258035	0.015244	0.079992	-0.045767	-0.765137	-0.329102	-0.137695	0.587420	0.324177	-0.701291	0.240910
35695		9.646584	0.216739	-2.144433	0.059676	0.068740	-0.049025	-0.763916	-0.335205	-0.140869	0.587684	0.324517	-0.700779	0.241298
35696		9.707132	0.364582	-1.970497	0.053079	0.084080	-0.027325	-0.761963	-0.332275	-0.133301	0.588047	0.324705	-0.700229	0.241756
35697		9.690291	0.400443	-1.862712	0.021247	0.092884	-0.014258	-0.763672	-0.323730	-0.150879	0.588443	0.324668	-0.699781	0.242141
35698		9.720727	0.280135	-1.907017	0.008235	0.104567	-0.015092	-0.767578	-0.326416	-0.145752	0.589084	0.324351	-0.699263	0.242503
35699		9.638445	0.281273	-2.053751	0.006089	0.112745	-0.023724	-0.765137	-0.322266	-0.142090	0.589725	0.324120	-0.698711	0.242844
35700		9.526045	0.486488	-2.198550	0.028663	0.094994	-0.043847	-0.772949	-0.333008	-0.149414	0.590193	0.324156	-0.698176	0.243197
35701		9.512122	0.666874	-2.096263	0.056130	0.066969	-0.063213	-0.760010	-0.333008	-0.146729	0.590519	0.324522	-0.697630	0.243484
35702		9.603154	0.733149	-1.905483	0.025796	0.046243	-0.059861	-0.765137	-0.327148	-0.155029	0.590799	0.324815	-0.697241	0.243530
35703		9.690443	0.693709	-1.769664	-0.032490	0.049272	-0.044334	-0.764160	-0.332275	-0.153564	0.591276	0.324585	-0.697007	0.243348
35704		9.628668	0.582164	-1.805022	-0.064195	0.053379	-0.036006	-0.766846	-0.331055	-0.152100	0.591833	0.324208	-0.696829	0.243009
35705		9.656688	0.473487	-1.922756	-0.067102	0.051244	-0.031321	-0.766846	-0.329102	-0.153320	0.592340	0.323798	-0.696697	0.242697
35706		9.649376	0.403142	-2.007931	-0.045398	0.046845	-0.033622	-0.760254	-0.342285	-0.146240	0.592764	0.323500	-0.696543	0.242499
35707		9.666111	0.525581	-1.983825	-0.010787	0.042613	-0.024725	-0.766602	-0.332031	-0.157959	0.593013	0.323525	-0.696333	0.242463
35708		9.572934	0.701027	-1.810692	-0.013155	0.048475	-0.031587	-0.763428	-0.331299	-0.154297	0.593393	0.323361	-0.696096	0.242431
35709		9.626639	0.779151	-1.752201	-0.047531	0.049115	-0.031290	-0.760254	-0.334473	-0.160400	0.593830	0.323069	-0.695932	0.242220
35710		9.682053	0.641537	-1.790046	-0.094080	0.050841	-0.017330	-0.757568	-0.333252	-0.151367	0.594441	0.322441	-0.695863	0.241755
35711		9.689338	0.496841	-1.892249	-0.116101	0.041138	-0.007935	-0.765869	-0.327393	-0.161865	0.594934	0.321773	-0.695931	0.241236
35712		9.665683	0.503428	-1.836252	-0.101897	0.035938	-0.013288	-0.773438	-0.333740	-0.159180	0.595434	0.321058	-0.695996	0.240767
35713		9.673196	0.504157	-1.817725	-0.098742	0.031334	-0.014146	-0.767090	-0.337402	-0.164551	0.595857	0.320436	-0.696085	0.240293
35714		9.700217	0.501715	-1.794006	-0.113080	0.029359	-0.014705	-0.769287	-0.329346	-0.162109	0.596377	0.319746	-0.696178	0.239653
35715		9.707577	0.503099	-1.775903	-0.118906	0.030948	-0.016332	-0.767090	-0.327637	-0.159424	0.596864	0.319019	-0.696297	0.239062
35716		9.683812	0.412357	-1.705314	-0.104568	0.035150	-0.021127	-0.754639	-0.329834	-0.162354	0.597310	0.318422	-0.696357	0.238569
35717		9.688330	0.274772	-1.685618	-0.090087	0.032327	-0.028197	-0.766846	-0.330811	-0.165283	0.597771	0.317969	-0.696346	0.238051
35718		9.651016	0.225080	-1.733920	-0.068589	0.028408	-0.028708	-0.764160	-0.333496	-0.163818	0.598146	0.317582	-0.696336	0.237654
35719		9.667722	0.284701	-1.753076	-0.040013	0.022765	-0.030734	-0.768799	-0.328125	-0.163574	0.598407	0.317407	-0.696283	0.237386
35720		9.676622	0.390534	-1.680564	-0.011587	0.024181	-0.030521	-0.764648	-0.322266	-0.159180	0.598567	0.317337	-0.696190	0.237347
35721		9.671735	0.394272	-1.621757	-0.001173	0.028925	-0.045930	-0.761230	-0.331055	-0.166992	0.598703	0.317434	-0.696019	0.237375
35722		9.684541	0.322773	-1.706645	0.005360	0.024870	-0.049682	-0.764160	-0.331543	-0.165771	0.598915	0.317556	-0.695815	0.237278
35723		9.678596	0.146006	-1.751485	0.034134	0.025679	-0.053573	-0.766357	-0.340332	-0.165771	0.599039	0.317852	-0.695549	0.237349
35724		9.767297	0.032714	-1.593948	0.061448	0.034065	-0.046602	-0.754395	-0.327148	-0.158203	0.599138	0.318263	-0.695196	0.237580
35725		9.707736	0.112123	-1.563038	0.077252	0.040950	-0.050854	-0.760254	-0.339355	-0.169678	0.599155	0.318825	-0.694766	0.238041
35726		9.674124	0.205588	-1.576137	0.109577	0.038642	-0.067916	-0.754883	-0.334717	-0.161377	0.599242	0.319550	-0.694224	0.238434
35727		9.716878	0.259949	-1.575896	0.145511	0.039520	-0.083868	-0.761719	-0.333252	-0.172119	0.599180	0.320631	-0.693565	0.239053
35728		9.727677	0.402609	-1.456735	0.133464	0.048078	-0.091395	-0.762207	-0.345459	-0.168945	0.599308	0.321502	-0.692886	0.239534
35729		9.701645	0.513527	-1.417586	0.130223	0.044317	-0.093590	-0.756592	-0.334473	-0.165283	0.599418	0.322465	-0.692209	0.239919
35730		9.691233	0.576367	-1.423388	0.118554	0.034220	-0.094599	-0.761963	-0.336426	-0.164307	0.599445	0.323400	-0.691610	0.240320
35731		9.733501	0.553253	-1.506534	0.094153	0.031347	-0.095071	-0.763916	-0.337402	-0.165527	0.599503	0.324216	-0.691086	0.240583
35732		9.754063	0.470838	-1.545829	0.084934	0.041083	-0.085282	-0.755371	-0.340088	-0.162598	0.599631	0.324884	-0.690565	0.240862
35733		9.739805	0.482981	-1.635748	0.117023	0.044203	-0.086186	-0.754883	-0.345459	-0.170410	0.599681	0.325781	-0.689936	0.241326
35734		9.709884	0.556269	-1.678427	0.155628	0.042607	-0.082540	-0.759521	-0.338379	-0.167236	0.599707	0.326761	-0.689243	0.241916
35735		9.658068	0.699151	-1.651621	0.173774	0.039608	-0.079877	-0.755371	-0.342529	-0.159912	0.599593	0.327815	-0.688558	0.242721
35736		9.685006	0.843808	-1.598105	0.170524	0.034932	-0.076586	-0.758789	-0.349365	-0.169922	0.599395	0.328962	-0.687892	0.243546
35737		9.707025	1.025109	-1.513843	0.141772	0.032603	-0.072845	-0.761475	-0.345947	-0.174072	0.599379	0.329802	-0.687318	0.244069
35738		9.687541	1.050787	-1.512968	0.079558	0.022868	-0.071526	-0.759521	-0.351562	-0.176514	0.599504	0.330255	-0.686940	0.244213
35739		9.664450	0.998140	-1.502734	0.023442	0.013862	-0.070118	-0.761719	-0.347900	-0.163574	0.599777	0.330413	-0.686724	0.243937
35740		9.655824	0.830511	-1.521485	-0.011061	0.003580	-0.054471	-0.751709	-0.350098	-0.165283	0.599885	0.330519	-0.686659	0.243710
35741		9.644193	0.725800	-1.500578	-0.021272	0.002449	-0.043739	-0.756836	-0.339844	-0.168945	0.600041	0.330517	-0.686629	0.243411
35742		9.696117	0.729138	-1.494158	-0.007879	0.005340	-0.043858	-0.756836	-0.345459	-0.168945	0.600163	0.330504	-0.686575	0.243281
35743		9.735073	0.750003	-1.543357	0.002335	0.011408	-0.043007	-0.751953	-0.346680	-0.167725	0.600310	0.330527	-0.686475	0.243170
35744		9.706210	0.717248	-1.608643	0.015559	0.010413	-0.044063	-0.746582	-0.345947	-0.172607	0.600415	0.330661	-0.686336	0.243122
35745		9.682758	0.651777	-1.670404	0.025985	0.008585	-0.039979	-0.750977	-0.353271	-0.164307	0.600535	0.330758	-0.686198	0.243082
35746		9.648536	0.621408	-1.646812	0.023539	0.000148	-0.042284	-0.755859	-0.358398	-0.173096	0.600540	0.331002	-0.686092	0.243037
35747		9.680241	0.612185	-1.651828	0.027865	-0.001308	-0.041166	-0.762451	-0.359375	-0.163574	0.600636	0.331087	-0.686033	0.242851
35748		9.694607	0.642724	-1.583126	0.026933	0.000595	-0.044921	-0.754883	-0.352295	-0.170898	0.600632	0.331328	-0.685945	0.242783
35749		9.668991	0.693557	-1.624802	0.032533	-0.001033	-0.046925	-0.758301	-0.338135	-0.167480	0.600675	0.331516	-0.685844	0.242704
35750		9.703836	0.768718	-1.604860	0.047335	-0.004555	-0.044364	-0.747070	-0.355469	-0.166504	0.600531	0.331871	-0.685705	0.242967
35751		9.690085	0.773075	-1.599669	0.058605	-0.002277	-0.044894	-0.758301	-0.355713	-0.173096	0.600472	0.332262	-0.685539	0.243045
35752		9.669292	0.767223	-1.610966	0.060088	-0.001021	-0.044205	-0.744629	-0.351318	-0.175049	0.600472	0.332497	-0.685418	0.243066
35753		9.648603	0.751680	-1.590765	0.046274	-0.001888	-0.040105	-0.750488	-0.356689	-0.171631	0.600529	0.332647	-0.685312	0.243019
35754		9.701322	0.791527	-1.608968	0.029246	-0.003222	-0.046652	-0.758057	-0.355225	-0.164795	0.600613	0.332774	-0.685244	0.242830
35755		9.698009	0.737704	-1.662557	0.040456	-0.006468	-0.050638	-0.757324	-0.356201	-0.168213	0.600543	0.333116	-0.685135	0.242839
35756		9.673131	0.629802	-1.739357	0.067125	-0.006936	-0.048871	-0.750000	-0.349609	-0.164062	0.600444	0.333505	-0.685000	0.242934
35757		9.692666	0.637264	-1.699730	0.093752	-0.007129	-0.044431	-0.761230	-0.353027	-0.164795	0.600184	0.334145	-0.684763	0.243364
35758		9.707027	0.698551	-1.691445	0.109711	-0.002003	-0.036353	-0.761963	-0.356934	-0.165039	0.599902	0.334734	-0.684532	0.243899
35759		9.704194	0.780605	-1.546007	0.088122	0.007433	-0.030225	-0.758057	-0.350830	-0.170410	0.599753	0.335118	-0.684333	0.244296
35760		9.693127	0.861511	-1.549768	0.037299	0.011880	-0.025813	-0.755859	-0.352295	-0.164795	0.599801	0.335149	-0.684227	0.244432
35761		9.692029	0.846306	-1.588008	-0.003046	0.008459	-0.026027	-0.750488	-0.355957	-0.168701	0.599884	0.335102	-0.684189	0.244398
35762		9.689126	0.766511	-1.612012	-0.019759	-0.003222	-0.026528	-0.757080	-0.354248	-0.167480	0.600032	0.334899	-0.684271	0.244085
35763		9.673563	0.699198	-1.626070	-0.023940	-0.000039	-0.021268	-0.760986	-0.358154	-0.158447	0.600154	0.334672	-0.684356	0.243859
35764		9.693952	0.719700	-1.580098	-0.024871	-0.000309	-0.019562	-0.749756	-0.358887	-0.163818	0.600174	0.334592	-0.684415	0.243753
35765		9.647807	0.723219	-1.573422	-0.021865	-0.004949	-0.024227	-0.751709	-0.357666	-0.163574	0.600265	0.334461	-0.684497	0.243477
35766		9.679423	0.689572	-1.551157	-0.012962	-0.004465	-0.026324	-0.755127	-0.352295	-0.167480	0.600322	0.334401	-0.684548	0.243277
35767		9.691456	0.657777	-1.534842	-0.015269	-0.002900	-0.018992	-0.749268	-0.357422	-0.166260	0.600383	0.334243	-0.684622	0.243137
35768		9.736643	0.647417	-1.545896	-0.012071	-0.000227	-0.013854	-0.756348	-0.359131	-0.168213	0.600471	0.334059	-0.684696	0.242963
35769		9.742608	0.641532	-1.568421	0.003994	0.006275	-0.019227	-0.752197	-0.351318	-0.176270	0.600582	0.333903	-0.684723	0.242826
35770		9.675629	0.622338	-1.641901	0.020522	0.007450	-0.020330	-0.757080	-0.355469	-0.156982	0.600710	0.333738	-0.684717	0.242751
35771		9.670411	0.693546	-1.668848	0.039634	0.002876	-0.013971	-0.757080	-0.353027	-0.163330	0.600515	0.334043	-0.684601	0.243143
35772		9.638890	0.761157	-1.683958	0.051258	-0.002172	-0.019210	-0.758301	-0.362549	-0.169189	0.600338	0.334313	-0.684510	0.243464
35773		9.660555	0.844562	-1.654475	0.046991	-0.004265	-0.014744	-0.757568	-0.358887	-0.162598	0.600294	0.334303	-0.684547	0.243482
35774		9.699179	0.827220	-1.647801	0.029579	-0.006003	-0.014573	-0.749268	-0.356445	-0.166992	0.600184	0.334392	-0.684561	0.243592
35775		9.670376	0.741223	-1.661070	0.018380	-0.010765	-0.011209	-0.751953	-0.365723	-0.164307	0.600129	0.334349	-0.684641	0.243564
35776		9.668858	0.700140	-1.675081	0.025311	-0.008088	-0.010120	-0.759277	-0.360840	-0.169434	0.600099	0.334277	-0.684735	0.243470
35777		9.694157	0.666809	-1.665729	0.031781	-0.001162	-0.010570	-0.758789	-0.355469	-0.166260	0.600109	0.334144	-0.684805	0.243432
35778		9.725236	0.619390	-1.713702	0.029247	0.006924	-0.006414	-0.757080	-0.361328	-0.159668	0.600082	0.334100	-0.684791	0.243597
35779		9.641412	0.656530	-1.674866	0.033100	0.003125	-0.007500	-0.753906	-0.358643	-0.154053	0.599991	0.334172	-0.684770	0.243781
35780		9.643413	0.717842	-1.623167	0.053969	0.002877	-0.007419	-0.749756	-0.362305	-0.161865	0.599754	0.334523	-0.684639	0.244252
35781		9.664293	0.748735	-1.573909	0.059931	0.000785	-0.010753	-0.748535	-0.362061	-0.158203	0.599640	0.334687	-0.684583	0.244464
35782		9.755481	0.736037	-1.592080	0.053684	0.001964	-0.005858	-0.752930	-0.362793	-0.161865	0.599496	0.334876	-0.684517	0.244745
35783		9.728175	0.698803	-1.622678	0.037488	0.005125	0.002568	-0.749512	-0.361084	-0.160400	0.599445	0.334819	-0.684534	0.244898
35784		9.715596	0.709837	-1.612155	0.050201	0.002097	0.002060	-0.758301	-0.361572	-0.160156	0.599320	0.334892	-0.684513	0.245163
35785		9.644862	0.747004	-1.580344	0.065383	0.007995	-0.004169	-0.760742	-0.353760	-0.166260	0.599186	0.335044	-0.684429	0.245514
35786		9.652974	0.799068	-1.551867	0.055856	0.002271	-0.007923	-0.752197	-0.355957	-0.156494	0.599067	0.335133	-0.684385	0.245807
35787		9.685411	0.816066	-1.615264	0.034529	0.005710	-0.006862	-0.753662	-0.357910	-0.169189	0.598937	0.335315	-0.684293	0.246132
35788		9.618492	0.761324	-1.630248	0.013882	-0.000523	-0.003810	-0.756348	-0.350098	-0.155762	0.599002	0.335050	-0.684410	0.246011
35789		9.682888	0.708937	-1.612281	0.003833	-0.010433	-0.001724	-0.759277	-0.357666	-0.161377	0.598791	0.335176	-0.684432	0.246291
35790		9.669036	0.701508	-1.643202	-0.002052	-0.012862	0.009931	-0.747803	-0.351807	-0.162109	0.598694	0.334952	-0.684625	0.246295
35791		9.661628	0.698577	-1.693330	-0.015485	-0.014470	0.009837	-0.755859	-0.359131	-0.157959	0.598616	0.334733	-0.684808	0.246273
35792		9.649331	0.770621	-1.736273	-0.026121	-0.015308	0.004676	-0.755615	-0.347656	-0.146973	0.598568	0.334476	-0.685031	0.246120
35793		9.679712	0.732681	-1.817903	-0.040502	-0.018823	-0.010670	-0.752197	-0.357178	-0.157227	0.598344	0.334652	-0.685088	0.246265
35794		9.648481	0.563586	-1.855447	-0.027154	-0.021432	-0.014080	-0.758057	-0.362305	-0.162354	0.598293	0.334544	-0.685274	0.246019
35795		9.638455	0.439295	-1.840762	0.011870	-0.029952	-0.014685	-0.755127	-0.358398	-0.161865	0.598175	0.334469	-0.685498	0.245784
35796		9.652483	0.481243	-1.772706	0.066213	-0.020966	-0.022738	-0.760986	-0.360840	-0.162354	0.597949	0.334740	-0.685519	0.245906
35797		9.685759	0.515315	-1.733651	0.107261	-0.018450	-0.025115	-0.749512	-0.353516	-0.151611	0.597648	0.335163	-0.685466	0.246209
35798		9.692376	0.540773	-1.717118	0.142205	-0.015672	-0.030413	-0.754150	-0.362061	-0.147949	0.597114	0.336129	-0.685165	0.247024
35799		9.679752	0.605277	-1.730264	0.166026	-0.011334	-0.034262	-0.752930	-0.363525	-0.154297	0.596567	0.337173	-0.684820	0.247879
35800		9.700481	0.652347	-1.680110	0.167614	-0.003081	-0.040736	-0.752197	-0.357666	-0.150146	0.596175	0.338067	-0.684475	0.248557
35801		9.706702	0.650796	-1.669335	0.144661	0.002047	-0.037840	-0.752686	-0.358398	-0.146484	0.595783	0.338967	-0.684093	0.249318
35802		9.641862	0.696471	-1.658040	0.118423	0.004066	-0.032180	-0.755127	-0.364746	-0.147217	0.595432	0.339758	-0.683752	0.250018
35803		9.628738	0.711677	-1.649016	0.093649	-0.004125	-0.035259	-0.753662	-0.364502	-0.151367	0.595166	0.340357	-0.683542	0.250410
35804		9.621949	0.746915	-1.656839	0.071522	-0.017243	-0.036190	-0.761230	-0.358398	-0.149414	0.594943	0.340787	-0.683471	0.250547
35805		9.684959	0.656993	-1.652421	0.050374	-0.023803	-0.040843	-0.753418	-0.364502	-0.146240	0.594677	0.341240	-0.683427	0.250683
35806		9.755711	0.606546	-1.623597	0.027356	-0.012656	-0.032297	-0.755127	-0.360840	-0.149658	0.594546	0.341511	-0.683403	0.250691
35807		9.710829	0.680953	-1.599384	-0.006362	-0.002063	-0.026379	-0.757324	-0.361328	-0.152588	0.594573	0.341517	-0.683423	0.250564
35808		9.645287	0.760106	-1.647536	-0.014716	-0.006378	-0.030732	-0.754639	-0.373291	-0.152100	0.594640	0.341448	-0.683497	0.250298
35809		9.681749	0.715423	-1.750047	0.003765	-0.007135	-0.032140	-0.764893	-0.362305	-0.150879	0.594734	0.341372	-0.683588	0.249929
35810		9.668820	0.746514	-1.736699	-0.000993	-0.000009	-0.020664	-0.757324	-0.359131	-0.151611	0.594746	0.341322	-0.683628	0.249857
35811		9.642515	0.805461	-1.776284	0.000693	-0.004850	-0.014174	-0.749756	-0.358154	-0.147217	0.594713	0.341284	-0.683686	0.249832
35812		9.655026	0.809901	-1.784261	-0.003739	-0.013316	-0.022130	-0.758057	-0.363770	-0.153564	0.594617	0.341399	-0.683724	0.249799
35813		9.634459	0.720071	-1.716059	-0.010320	-0.016500	-0.024621	-0.751953	-0.375488	-0.150146	0.594627	0.341290	-0.683878	0.249499
35814		9.653026	0.634331	-1.667817	-0.003296	-0.017218	-0.017910	-0.751221	-0.360352	-0.145752	0.594656	0.341125	-0.684077	0.249112
35815		9.659474	0.588157	-1.601912	-0.008692	-0.016099	-0.006861	-0.760742	-0.369629	-0.149902	0.594525	0.341137	-0.684184	0.249114
35816		9.699134	0.627853	-1.581560	-0.019915	-0.020491	-0.000948	-0.755127	-0.361084	-0.145264	0.594490	0.340852	-0.684458	0.248834
35817		9.718441	0.662872	-1.602663	-0.032377	-0.018333	0.006016	-0.754639	-0.364014	-0.145996	0.594386	0.340666	-0.684670	0.248754
35818		9.718056	0.662679	-1.605076	-0.057344	-0.017574	0.011172	-0.758789	-0.369385	-0.143799	0.594381	0.340267	-0.684973	0.248478
35819		9.696155	0.588048	-1.666564	-0.076493	-0.008554	0.010686	-0.760742	-0.366943	-0.151611	0.594492	0.339735	-0.685288	0.248072
35820		9.668781	0.551727	-1.697017	-0.080735	-0.008859	0.007077	-0.760254	-0.365234	-0.147949	0.594688	0.339063	-0.685654	0.247508
35821		9.659683	0.502476	-1.792544	-0.061329	-0.009348	0.003954	-0.758301	-0.361084	-0.151855	0.594779	0.338607	-0.685933	0.247142
35822		9.691422	0.460633	-1.805517	-0.030023	-0.008115	0.000154	-0.759766	-0.367188	-0.145264	0.594815	0.338293	-0.686135	0.246924
35823		9.699140	0.491620	-1.751097	-0.004563	-0.007484	-0.000130	-0.752197	-0.369873	-0.151123	0.594750	0.338172	-0.686267	0.246880
35824		9.676277	0.672527	-1.689606	-0.012059	-0.005310	0.002409	-0.756104	-0.363037	-0.154053	0.594818	0.337837	-0.686471	0.246609
35825		9.676183	0.746843	-1.738484	-0.022025	-0.007170	-0.005523	-0.760742	-0.356934	-0.149170	0.594898	0.337513	-0.686669	0.246307
35826		9.650214	0.722749	-1.697767	-0.039859	-0.000456	-0.003577	-0.754883	-0.366211	-0.146729	0.594949	0.337264	-0.686796	0.246170
35827		9.675668	0.662685	-1.693736	-0.058755	0.003119	-0.003508	-0.760010	-0.365234	-0.145996	0.595128	0.336848	-0.686982	0.245787
35828		9.661926	0.620729	-1.697749	-0.070912	-0.000534	0.001428	-0.753662	-0.357422	-0.146240	0.595282	0.336380	-0.687216	0.245402
35829		9.661338	0.631039	-1.729414	-0.071117	-0.009436	0.002493	-0.754395	-0.354980	-0.149170	0.595336	0.336034	-0.687437	0.245125
35830		9.654280	0.636192	-1.743129	-0.077307	-0.015200	0.004140	-0.751465	-0.367188	-0.155029	0.595387	0.335623	-0.687716	0.244783
35831		9.673293	0.621546	-1.743147	-0.074294	-0.020631	0.004952	-0.756836	-0.358398	-0.145020	0.595557	0.334957	-0.688141	0.244085
35832		9.692550	0.584305	-1.715370	-0.062039	-0.012017	-0.001807	-0.753174	-0.364258	-0.145996	0.595569	0.334696	-0.688345	0.243839
35833		9.666033	0.531916	-1.683093	-0.052022	-0.003118	-0.001208	-0.761963	-0.355225	-0.150146	0.595664	0.334370	-0.688530	0.243532
35834		9.666052	0.533125	-1.682604	-0.043794	0.003913	0.002875	-0.753418	-0.358643	-0.156738	0.595734	0.334061	-0.688660	0.243416
35835		9.659887	0.602512	-1.710555	-0.046800	-0.004704	0.006228	-0.752197	-0.349854	-0.145752	0.595869	0.333563	-0.688915	0.243049
35836		9.685568	0.629294	-1.751519	-0.040036	-0.003811	0.000984	-0.767090	-0.357422	-0.143555	0.595815	0.333476	-0.688990	0.243086
35837		9.671858	0.660294	-1.803698	-0.037628	0.003323	0.003296	-0.759766	-0.356445	-0.150879	0.595799	0.333301	-0.689081	0.243107
35838		9.626239	0.696834	-1.819371	-0.033819	0.000887	0.002124	-0.757568	-0.359375	-0.150635	0.595849	0.333022	-0.689218	0.242979
35839		9.632462	0.702982	-1.838228	-0.031137	-0.003311	-0.001073	-0.756104	-0.358398	-0.151611	0.595893	0.332761	-0.689373	0.242788
35840		9.646303	0.724959	-1.805850	-0.037973	-0.008446	0.000723	-0.763184	-0.360840	-0.157715	0.595930	0.332459	-0.689573	0.242543
35841		9.646250	0.703221	-1.779367	-0.060530	-0.011843	0.001714	-0.749756	-0.354492	-0.156250	0.596078	0.331889	-0.689904	0.242018
35842		9.699257	0.707482	-1.739364	-0.082206	-0.008048	0.004300	-0.767334	-0.357422	-0.150146	0.596268	0.331300	-0.690209	0.241486
35843		9.658812	0.671594	-1.763161	-0.096778	-0.003816	0.000256	-0.757812	-0.357910	-0.156494	0.596453	0.330729	-0.690498	0.240985
35844		9.649288	0.574469	-1.839108	-0.082946	-0.003982	-0.000966	-0.760986	-0.353760	-0.155762	0.596687	0.330115	-0.690796	0.240394
35845		9.687361	0.502224	-1.847404	-0.050246	-0.001018	-0.001821	-0.752686	-0.359375	-0.145996	0.596806	0.329724	-0.690985	0.240092
35846		9.722242	0.541380	-1.768198	-0.036709	0.004583	-0.000941	-0.760498	-0.355225	-0.149414	0.596863	0.329539	-0.691066	0.239972
35847		9.659671	0.721657	-1.747548	-0.044123	0.012746	-0.002853	-0.753662	-0.347412	-0.156250	0.596987	0.329277	-0.691129	0.239842
35848		9.641116	0.857303	-1.781891	-0.055720	0.000438	-0.012964	-0.753418	-0.359863	-0.154053	0.597123	0.328996	-0.691251	0.239536
35849		9.639116	0.800143	-1.833014	-0.063342	-0.000306	-0.013896	-0.758301	-0.354980	-0.160400	0.597332	0.328606	-0.691433	0.239024
35850		9.630283	0.709403	-1.874083	-0.052646	-0.006355	-0.012107	-0.760254	-0.347168	-0.150146	0.597498	0.328191	-0.691656	0.238535
35851		9.606153	0.762264	-1.778063	-0.052725	-0.008720	-0.023634	-0.764648	-0.352051	-0.155762	0.597510	0.328140	-0.691742	0.238324
35852		9.657668	0.751716	-1.778402	-0.042756	-0.016485	-0.033227	-0.752930	-0.349854	-0.145020	0.597552	0.328037	-0.691895	0.237916
35853		9.656490	0.744316	-1.784819	-0.020929	-0.016604	-0.037607	-0.756592	-0.354492	-0.154785	0.597436	0.328319	-0.691891	0.237831
35854		9.682731	0.698114	-1.714462	-0.014228	-0.016140	-0.034955	-0.764648	-0.352539	-0.156250	0.597423	0.328373	-0.691976	0.237543
35855		9.694460	0.677516	-1.731514	-0.001866	-0.011968	-0.033524	-0.765137	-0.357422	-0.152588	0.597388	0.328449	-0.692031	0.237365
35856		9.665421	0.628059	-1.804334	0.009431	-0.016476	-0.037399	-0.755859	-0.363037	-0.149902	0.597295	0.328638	-0.692071	0.237221
35857		9.631118	0.695216	-1.857115	0.036671	-0.019620	-0.047497	-0.751709	-0.358643	-0.157715	0.597148	0.329040	-0.692039	0.237124
35858		9.657376	0.752110	-1.825588	0.047541	-0.015674	-0.049384	-0.757812	-0.350830	-0.154541	0.597060	0.329393	-0.691991	0.236998
35859		9.650754	0.691717	-1.759831	0.051163	-0.022205	-0.040919	-0.756104	-0.360840	-0.150391	0.596822	0.329841	-0.691948	0.237101
35860		9.682289	0.696468	-1.765245	0.053611	-0.028357	-0.039894	-0.760254	-0.350586	-0.145020	0.596562	0.330292	-0.691946	0.237131
35861		9.649364	0.800676	-1.741208	0.056010	-0.031609	-0.049603	-0.761719	-0.361328	-0.147217	0.596182	0.330990	-0.691860	0.237365
35862		9.632620	0.767292	-1.820471	0.058943	-0.040952	-0.049723	-0.756836	-0.362549	-0.150635	0.595825	0.331576	-0.691877	0.237393
35863		9.636571	0.750783	-1.854797	0.070456	-0.037639	-0.051763	-0.757080	-0.359131	-0.145752	0.595511	0.332152	-0.691872	0.237392
35864		9.614996	0.837896	-1.878519	0.074000	-0.035389	-0.048038	-0.748535	-0.359619	-0.154297	0.595133	0.332818	-0.691819	0.237560
35865		9.566124	0.902839	-1.929394	0.051692	-0.047862	-0.055203	-0.754883	-0.362549	-0.150879	0.594860	0.333289	-0.691900	0.237347
35866		9.583684	0.828766	-1.920958	0.036863	-0.052012	-0.052998	-0.757080	-0.355469	-0.138428	0.594579	0.333696	-0.692040	0.237074
35867		9.642475	0.704661	-1.846298	0.030131	-0.052986	-0.047672	-0.751465	-0.360107	-0.145508	0.594144	0.334305	-0.692111	0.237099
35868		9.668313	0.739002	-1.793155	0.012770	-0.050390	-0.041309	-0.756348	-0.364258	-0.142822	0.593867	0.334617	-0.692282	0.236851
35869		9.667561	0.792840	-1.754228	-0.009609	-0.056687	-0.039931	-0.766113	-0.358643	-0.139893	0.593608	0.334822	-0.692540	0.236459
35870		9.638959	0.711466	-1.773932	-0.019443	-0.056497	-0.038782	-0.757568	-0.360107	-0.135254	0.593309	0.335035	-0.692798	0.236149
35871		9.662974	0.628801	-1.789052	-0.020529	-0.058599	-0.043325	-0.752686	-0.367432	-0.140625	0.592994	0.335342	-0.693027	0.235835
35872		9.625532	0.583948	-1.880234	-0.014168	-0.056878	-0.044591	-0.758545	-0.363525	-0.136719	0.592768	0.335549	-0.693279	0.235365
35873		9.598392	0.593347	-1.841716	0.018392	-0.073028	-0.056534	-0.755127	-0.360352	-0.136963	0.592325	0.336083	-0.693492	0.235091
35874		9.571915	0.603411	-1.962772	0.045843	-0.085091	-0.074765	-0.753662	-0.362793	-0.132568	0.591770	0.336886	-0.693653	0.234864
35875		9.613939	0.616269	-1.984703	0.085625	-0.082000	-0.087583	-0.756104	-0.366455	-0.134766	0.591129	0.337991	-0.693671	0.234838
35876		9.583260	0.618755	-2.020938	0.127177	-0.083073	-0.099234	-0.760010	-0.365234	-0.130859	0.590427	0.339293	-0.693609	0.234909
35877		9.620447	0.674678	-1.977897	0.176114	-0.089574	-0.109035	-0.755371	-0.374023	-0.135010	0.589534	0.340937	-0.693444	0.235259
35878		9.648866	0.729307	-1.984313	0.186289	-0.094660	-0.114509	-0.754395	-0.375244	-0.124512	0.588679	0.342556	-0.693306	0.235454
35879		9.577535	0.763217	-2.026339	0.189980	-0.088884	-0.112251	-0.750732	-0.377686	-0.127930	0.587771	0.344289	-0.693094	0.235820
35880		9.529829	0.822596	-2.111044	0.225797	-0.106052	-0.116712	-0.749512	-0.372070	-0.122070	0.586723	0.346175	-0.692905	0.236223
35881		9.579865	0.871952	-2.049631	0.237541	-0.115926	-0.116695	-0.753906	-0.379395	-0.120605	0.585527	0.348210	-0.692707	0.236778
35882		9.641776	0.818067	-2.057123	0.222981	-0.107826	-0.106429	-0.750732	-0.371826	-0.109863	0.584425	0.350045	-0.692551	0.237255
35883		9.553030	0.905449	-2.147196	0.216509	-0.101746	-0.104249	-0.752930	-0.380859	-0.117432	0.583272	0.351971	-0.692319	0.237916
35884		9.535877	1.032574	-2.095036	0.193863	-0.097915	-0.104894	-0.753418	-0.393555	-0.103516	0.582316	0.353608	-0.692177	0.238242
35885		9.466008	1.133782	-2.053738	0.139459	-0.102858	-0.109504	-0.751709	-0.395264	-0.108398	0.581448	0.355134	-0.692115	0.238276
35886		9.513636	1.075637	-2.087415	0.104295	-0.114852	-0.111306	-0.745361	-0.381592	-0.108398	0.580675	0.356431	-0.692205	0.237961
35887		9.543194	0.863680	-2.164799	0.055365	-0.109634	-0.109126	-0.747803	-0.386719	-0.104492	0.580043	0.357492	-0.692353	0.237480
35888		9.607492	0.611351	-2.130330	0.040316	-0.092343	-0.112278	-0.751465	-0.392334	-0.110840	0.579554	0.358475	-0.692436	0.236948
35889		9.687391	0.515772	-2.115135	0.066180	-0.060947	-0.106820	-0.751465	-0.398438	-0.102783	0.579228	0.359373	-0.692379	0.236555
35890		9.656343	0.633683	-1.995508	0.090372	-0.041031	-0.101718	-0.749512	-0.395752	-0.105713	0.578897	0.360387	-0.692170	0.236432
35891		9.627682	0.819569	-1.911297	0.080022	-0.032229	-0.088632	-0.748291	-0.387939	-0.094238	0.578641	0.361220	-0.691989	0.236318
35892		9.573714	0.899481	-2.079800	0.042140	-0.034931	-0.079229	-0.744629	-0.393066	-0.100830	0.578352	0.361982	-0.691858	0.236242
35893		9.556375	0.872687	-2.242490	0.010019	-0.036599	-0.070865	-0.756836	-0.397949	-0.103271	0.578210	0.362445	-0.691860	0.235873
35894		9.599550	0.779919	-2.316624	-0.010355	-0.034197	-0.058421	-0.744873	-0.395264	-0.100342	0.578139	0.362664	-0.691964	0.235407
35895		9.569234	0.738649	-2.176517	-0.023080	-0.032044	-0.052679	-0.744873	-0.392090	-0.092041	0.578093	0.362843	-0.692069	0.234935
35896		9.609971	0.738559	-2.138951	-0.030476	-0.027363	-0.049298	-0.747803	-0.391602	-0.095215	0.578017	0.363065	-0.692133	0.234590
35897		9.632697	0.668356	-2.122250	-0.037388	-0.013776	-0.052608	-0.746826	-0.401611	-0.099854	0.578065	0.363199	-0.692154	0.234200
35898		9.670375	0.577528	-2.202912	-0.013050	0.014752	-0.050387	-0.741455	-0.392090	-0.095947	0.578265	0.363311	-0.692028	0.233905
35899		9.636605	0.640748	-2.183472	0.023739	0.029508	-0.046866	-0.740723	-0.394043	-0.095947	0.578377	0.363626	-0.691733	0.234011
35900		9.615596	0.752473	-2.245652	0.044895	0.040112	-0.036890	-0.751221	-0.401123	-0.096436	0.578471	0.363965	-0.691377	0.234306
35901		9.550900	0.893942	-2.255252	0.057093	0.050289	-0.032552	-0.740479	-0.405273	-0.102051	0.578587	0.364283	-0.690981	0.234691
35902		9.519424	1.021750	-2.269686	0.059320	0.053601	-0.031233	-0.740967	-0.401367	-0.094727	0.578774	0.364554	-0.690583	0.234982
35903		9.493429	1.028227	-2.279515	0.053031	0.054991	-0.034234	-0.743896	-0.401123	-0.100098	0.578928	0.364893	-0.690149	0.235352
35904		9.547642	0.983867	-2.192779	0.051465	0.047808	-0.031241	-0.747559	-0.405762	-0.097656	0.579069	0.365162	-0.689783	0.235659
35905		9.573652	0.892705	-2.169785	0.054422	0.042352	-0.023720	-0.739014	-0.398926	-0.103760	0.579144	0.365428	-0.689460	0.236008
35906		9.618963	0.892370	-2.086039	0.049212	0.046382	-0.019798	-0.740479	-0.409912	-0.105713	0.579281	0.365599	-0.689146	0.236322
35907		9.591340	0.954278	-2.082188	0.013769	0.058907	-0.013865	-0.749268	-0.398926	-0.097900	0.579627	0.365508	-0.688879	0.236394
35908		9.522907	0.982466	-2.130298	-0.007513	0.047585	-0.012126	-0.746582	-0.403564	-0.099121	0.579870	0.365410	-0.688678	0.236537
35909		9.483288	0.950768	-2.176279	-0.010621	0.032101	-0.013823	-0.746094	-0.399902	-0.107422	0.580057	0.365327	-0.688559	0.236550
35910		9.527454	0.900640	-2.261124	-0.013618	0.023201	-0.013975	-0.749512	-0.398926	-0.101074	0.580246	0.365177	-0.688512	0.236456
35911		9.644941	0.789731	-2.142037	-0.016601	0.037735	-0.012467	-0.742432	-0.405273	-0.105469	0.580472	0.365037	-0.688383	0.236495
35912		9.668858	0.720444	-2.024347	-0.022681	0.053648	0.005441	-0.743164	-0.404053	-0.111084	0.580825	0.364697	-0.688259	0.236511
35913		9.658440	0.654519	-1.934860	-0.041517	0.059387	0.024349	-0.744629	-0.398926	-0.111084	0.581259	0.364099	-0.688219	0.236481
35914		9.647665	0.725117	-1.986652	-0.046633	0.066976	0.044470	-0.746338	-0.394775	-0.112793	0.581691	0.363360	-0.688205	0.236600
35915		9.647554	0.831453	-2.068336	-0.054667	0.083941	0.057877	-0.749268	-0.395996	-0.105713	0.582210	0.362469	-0.688161	0.236817
35916		9.621038	0.925904	-2.047566	-0.070853	0.087119	0.076291	-0.746826	-0.393066	-0.111084	0.582705	0.361464	-0.688162	0.237132
35917		9.626665	0.922129	-1.997157	-0.104838	0.085228	0.090340	-0.749512	-0.395264	-0.106689	0.583288	0.360185	-0.688290	0.237273
35918		9.613229	0.889475	-1.958557	-0.141892	0.087296	0.103736	-0.746826	-0.393799	-0.118896	0.583934	0.358694	-0.688504	0.237320
35919		9.548832	0.890624	-2.002612	-0.159105	0.091568	0.105843	-0.748779	-0.390381	-0.114746	0.584722	0.357003	-0.688772	0.237153
35920		9.520419	0.892510	-1.980274	-0.151851	0.098032	0.098778	-0.747803	-0.384277	-0.120361	0.585491	0.355436	-0.688946	0.237108
35921		9.618742	0.887549	-1.912146	-0.142128	0.096088	0.084180	-0.752441	-0.385986	-0.126465	0.586257	0.353978	-0.689069	0.237034
35922		9.563719	0.805322	-1.964322	-0.124677	0.102255	0.066919	-0.751709	-0.385986	-0.126953	0.587070	0.352644	-0.689097	0.236931
35923		9.554642	0.763183	-1.981928	-0.089610	0.107517	0.047167	-0.751221	-0.378662	-0.122070	0.587843	0.351597	-0.688966	0.236950
35924		9.578770	0.695563	-2.008503	-0.052670	0.103757	0.030432	-0.755371	-0.387207	-0.132324	0.588456	0.350913	-0.688695	0.237231
35925		9.596356	0.700398	-1.963120	0.001554	0.103225	0.021152	-0.745117	-0.377686	-0.138428	0.589003	0.350445	-0.688339	0.237597
35926		9.618925	0.772807	-1.888514	0.047913	0.092036	0.013537	-0.750244	-0.385742	-0.128174	0.589385	0.350249	-0.687923	0.238145
35927		9.614336	0.883841	-1.791014	0.042375	0.087886	0.012277	-0.743408	-0.382568	-0.133057	0.589706	0.350127	-0.687510	0.238721
35928		9.606035	1.005719	-1.793304	0.004659	0.077365	0.013104	-0.755127	-0.378174	-0.131104	0.590103	0.349808	-0.687233	0.239006
35929		9.634737	0.994352	-1.796850	-0.034831	0.088371	0.007967	-0.749023	-0.379395	-0.127441	0.590638	0.349331	-0.686950	0.239194
35930		9.595923	0.821786	-1.818399	-0.052293	0.083929	-0.000596	-0.750732	-0.375732	-0.132324	0.591198	0.348875	-0.686681	0.239249
35931		9.597639	0.783511	-1.882459	-0.037074	0.083018	-0.009757	-0.748779	-0.381836	-0.137451	0.591737	0.348517	-0.686368	0.239337
35932		9.594799	0.861149	-1.985207	-0.009872	0.077119	-0.012307	-0.750244	-0.374268	-0.142090	0.592214	0.348272	-0.686046	0.239437
35933		9.588647	0.922801	-1.971342	-0.003176	0.068861	-0.008508	-0.746338	-0.367676	-0.141602	0.592615	0.348032	-0.685765	0.239599
35934		9.548446	0.902731	-1.823247	-0.003391	0.058746	-0.008463	-0.755615	-0.378906	-0.138184	0.592937	0.347837	-0.685518	0.239791
35935		9.698401	0.849921	-1.703506	-0.021569	0.059592	-0.011055	-0.749512	-0.381348	-0.147461	0.593314	0.347579	-0.685301	0.239854
35936		9.625676	0.849918	-1.806772	-0.048260	0.063235	-0.012225	-0.752441	-0.371338	-0.143066	0.593863	0.347106	-0.685149	0.239615
35937		9.509830	0.981580	-1.888993	-0.047329	0.057540	-0.031134	-0.755371	-0.382568	-0.141113	0.594343	0.346828	-0.684933	0.239445
35938		9.497274	0.940310	-1.987782	-0.027033	0.037664	-0.042405	-0.755371	-0.378174	-0.147217	0.594683	0.346758	-0.684750	0.239223
35939		9.648373	0.971026	-1.939903	-0.012207	0.023187	-0.039524	-0.749268	-0.371094	-0.144531	0.594914	0.346728	-0.684632	0.239031
35940		9.591342	1.009405	-1.776222	-0.039395	0.030621	-0.022997	-0.753906	-0.376953	-0.145508	0.595199	0.346505	-0.684554	0.238871
35941		9.640870	0.944106	-1.729422	-0.057928	0.026330	-0.017161	-0.748535	-0.374512	-0.148682	0.595514	0.346144	-0.684563	0.238579
35942		9.680064	0.909486	-1.856571	-0.060545	0.038326	-0.022728	-0.746094	-0.371094	-0.149902	0.595934	0.345762	-0.684507	0.238246
35943		9.646318	0.924892	-1.947319	-0.049202	0.044146	-0.027395	-0.753906	-0.380127	-0.138184	0.596360	0.345454	-0.684382	0.237986
35944		9.537047	1.040448	-2.024021	-0.023270	0.035322	-0.033002	-0.751221	-0.369629	-0.150391	0.596603	0.345432	-0.684196	0.237942
35945		9.512829	1.189087	-1.988274	-0.005509	0.016003	-0.038364	-0.756592	-0.373047	-0.149902	0.596746	0.345465	-0.684091	0.237839
35946		9.565927	1.212557	-1.874234	-0.005816	0.010537	-0.032487	-0.748047	-0.373535	-0.156982	0.596843	0.345470	-0.684035	0.237749
35947		9.631156	1.265458	-1.758666	-0.040382	0.017843	-0.018480	-0.750488	-0.375977	-0.150635	0.597113	0.345142	-0.684080	0.237418
35948		9.636172	1.317067	-1.761559	-0.087598	0.026106	-0.006472	-0.749512	-0.377197	-0.147949	0.597500	0.344560	-0.684186	0.236984
35949		9.649051	1.306071	-1.867853	-0.099469	0.029012	-0.007638	-0.747559	-0.374023	-0.145264	0.597922	0.343956	-0.684283	0.236517
35950		9.612600	1.235771	-1.927214	-0.103592	0.034387	-0.004125	-0.752686	-0.368408	-0.152100	0.598350	0.343346	-0.684350	0.236127
35951		9.574735	1.201152	-2.010641	-0.100767	0.030739	0.009454	-0.756348	-0.368164	-0.156250	0.598738	0.342619	-0.684492	0.235787
35952		9.578751	1.286657	-2.036523	-0.085569	0.014136	0.018739	-0.755859	-0.377930	-0.150391	0.598987	0.341906	-0.684732	0.235494
35953		9.624292	1.348264	-1.922088	-0.077261	0.004529	0.023278	-0.754883	-0.367188	-0.154785	0.599134	0.341286	-0.684997	0.235248
35954		9.638967	1.375854	-1.748425	-0.095938	0.005739	0.032453	-0.753662	-0.377930	-0.157959	0.599323	0.340488	-0.685327	0.234961
35955		9.611308	1.294989	-1.629898	-0.126049	0.009044	0.036590	-0.758057	-0.371582	-0.153809	0.599659	0.339468	-0.685732	0.234395
35956		9.683063	1.139054	-1.669809	-0.155940	0.006859	0.051576	-0.754395	-0.372559	-0.161621	0.599982	0.338276	-0.686222	0.233859
35957		9.670284	0.972373	-1.683166	-0.189612	0.017240	0.056476	-0.757324	-0.369629	-0.158936	0.600507	0.336791	-0.686770	0.233048
35958		9.649457	0.831958	-1.737051	-0.177141	0.009985	0.059397	-0.758301	-0.366455	-0.165527	0.600911	0.335410	-0.687316	0.232384
35959		9.647249	0.699304	-1.818949	-0.129242	-0.000845	0.052263	-0.753662	-0.365479	-0.162598	0.601163	0.334271	-0.687827	0.231862
35960		9.671545	0.571111	-1.813073	-0.076491	0.000209	0.053557	-0.751221	-0.355713	-0.157959	0.601254	0.333433	-0.688213	0.231687
35961		9.693364	0.549690	-1.706929	-0.037406	0.013264	0.050866	-0.746582	-0.369385	-0.164307	0.601260	0.332859	-0.688414	0.231899
35962		9.693315	0.589925	-1.655737	-0.011294	0.024594	0.041511	-0.756592	-0.358643	-0.162598	0.601368	0.332354	-0.688524	0.232016
35963		9.672612	0.650427	-1.672228	0.013503	0.032192	0.034285	-0.760498	-0.365967	-0.159912	0.601406	0.332035	-0.688513	0.232408
35964		9.633112	0.690370	-1.667300	0.023750	0.030268	0.017903	-0.760254	-0.361328	-0.166992	0.601433	0.331885	-0.688441	0.232767
35965		9.651502	0.746270	-1.708358	0.055469	0.017391	0.010173	-0.745117	-0.362061	-0.158691	0.601349	0.331888	-0.688380	0.233159
35966		9.651418	0.752072	-1.738861	0.075112	0.004471	0.008169	-0.746338	-0.355957	-0.160889	0.601109	0.332134	-0.688292	0.233685
35967		9.633197	0.713006	-1.721582	0.079535	0.008847	0.002321	-0.758301	-0.361572	-0.158203	0.600893	0.332404	-0.688166	0.234228
35968		9.686893	0.687672	-1.687193	0.089333	0.016835	-0.008398	-0.749512	-0.365967	-0.161133	0.600698	0.332779	-0.687950	0.234829
35969		9.740147	0.700953	-1.572766	0.119069	0.022032	-0.006762	-0.750000	-0.360107	-0.153809	0.600496	0.333242	-0.687670	0.235509
35970		9.761446	0.678935	-1.501136	0.113143	0.024761	0.005487	-0.760498	-0.357178	-0.163574	0.600234	0.333692	-0.687381	0.236379
35971		9.672418	0.593083	-1.541135	0.092109	0.016218	0.011447	-0.756104	-0.358398	-0.168945	0.600018	0.333891	-0.687250	0.237029
35972		9.691327	0.613967	-1.627879	0.112037	0.017229	0.010687	-0.754150	-0.371094	-0.158691	0.599805	0.334125	-0.687098	0.237679
35973		9.688024	0.740262	-1.657222	0.136751	0.028073	-0.001737	-0.757324	-0.363525	-0.160400	0.599579	0.334633	-0.686766	0.238491
35974		9.653698	0.826568	-1.595400	0.131103	0.027326	-0.008493	-0.748047	-0.365234	-0.157715	0.599365	0.335137	-0.686436	0.239270
35975		9.633389	0.890549	-1.446008	0.094809	0.019110	-0.010024	-0.748291	-0.363281	-0.151855	0.599211	0.335515	-0.686200	0.239804
35976		9.646575	0.886593	-1.486901	0.060523	0.007023	-0.006802	-0.751953	-0.371582	-0.161377	0.599030	0.335801	-0.686069	0.240230
35977		9.711677	0.890901	-1.554359	0.038056	0.001171	-0.000766	-0.749268	-0.365479	-0.154053	0.598957	0.335813	-0.686090	0.240335
35978		9.661214	0.819944	-1.579676	0.016790	0.002417	-0.002350	-0.750732	-0.358643	-0.159668	0.598888	0.335826	-0.686099	0.240463
35979		9.676598	0.731777	-1.644377	0.023968	0.001889	-0.006118	-0.750732	-0.363037	-0.161377	0.598822	0.335839	-0.686110	0.240578
35980		9.736888	0.669316	-1.743696	0.034875	-0.000331	-0.005880	-0.756592	-0.360107	-0.164795	0.598739	0.335877	-0.686125	0.240687
35981		9.672193	0.638319	-1.751355	0.049082	0.001510	0.000475	-0.756592	-0.355957	-0.161377	0.598622	0.335904	-0.686140	0.240898
35982		9.623676	0.732636	-1.718660	0.084168	0.002369	-0.004268	-0.749023	-0.364258	-0.156494	0.598385	0.336182	-0.686044	0.241373
35983		9.619564	0.884070	-1.611429	0.109621	-0.003660	-0.011236	-0.750244	-0.368652	-0.151367	0.598063	0.336678	-0.685889	0.241918
35984		9.675947	0.977306	-1.501775	0.102014	-0.005809	-0.023655	-0.749756	-0.369629	-0.161621	0.597754	0.337256	-0.685707	0.242394
35985		9.709418	0.937416	-1.515294	0.064066	-0.004398	-0.021991	-0.747559	-0.368408	-0.150635	0.597639	0.337490	-0.685660	0.242482
35986		9.678463	0.860968	-1.570072	0.023773	0.000629	-0.007116	-0.759033	-0.366699	-0.159424	0.597558	0.337569	-0.685649	0.242604
35987		9.654017	0.776355	-1.714082	-0.009721	-0.004257	0.009016	-0.756104	-0.359375	-0.148438	0.597552	0.337283	-0.685829	0.242508
35988		9.596503	0.726147	-1.713291	-0.005326	-0.010233	0.026126	-0.749023	-0.369385	-0.152588	0.597362	0.337102	-0.686003	0.242736
35989		9.648953	0.715496	-1.744583	0.008950	-0.013659	0.031786	-0.753662	-0.363037	-0.158936	0.597183	0.336879	-0.686218	0.242878
35990		9.689505	0.659367	-1.781219	0.017400	-0.016116	0.032960	-0.759033	-0.357422	-0.152588	0.596986	0.336626	-0.686462	0.243024
35991		9.677218	0.623588	-1.784464	0.013975	-0.009645	0.028312	-0.757568	-0.363281	-0.153564	0.596773	0.336464	-0.686628	0.243303
35992		9.645412	0.600905	-1.722328	0.031846	-0.005462	0.028013	-0.754883	-0.360840	-0.147705	0.596569	0.336346	-0.686753	0.243614
35993		9.676073	0.681348	-1.701483	0.047416	-0.003210	0.026174	-0.749756	-0.361572	-0.146484	0.596294	0.336393	-0.686793	0.244108
35994		9.694895	0.705644	-1.755292	0.029983	0.004905	0.024968	-0.760010	-0.362793	-0.143066	0.596123	0.336353	-0.686819	0.244506
35995		9.681821	0.701228	-1.815475	0.010043	0.003954	0.025640	-0.762451	-0.361572	-0.154053	0.595968	0.336241	-0.686884	0.244856
35996		9.673967	0.757003	-1.813491	0.006631	-0.003706	0.021262	-0.755371	-0.366699	-0.148926	0.595863	0.336014	-0.687041	0.244983
35997		9.646948	0.785955	-1.825854	0.015059	-0.005172	0.019762	-0.756104	-0.358154	-0.144775	0.595721	0.335895	-0.687159	0.245161
35998		9.626799	0.817382	-1.790071	0.028222	-0.000231	0.022326	-0.760742	-0.366699	-0.149902	0.595510	0.335882	-0.687205	0.245562
35999		9.639865	0.834944	-1.757871	0.009461	-0.001710	0.027790	-0.751953	-0.360107	-0.151123	0.595392	0.335662	-0.687350	0.245745
36000		9.678957	0.850364	-1.773628	-0.015283	-0.000493	0.031184	-0.755859	-0.359131	-0.152344	0.595347	0.335298	-0.687545	0.245805
36001		9.630261	0.711099	-1.780297	-0.046531	0.003341	0.027561	-0.764404	-0.359375	-0.151123	0.595420	0.334777	-0.687782	0.245673
36002		9.647168	0.559963	-1.791373	-0.069715	-0.005689	0.032880	-0.759766	-0.364258	-0.146729	0.595474	0.334138	-0.688126	0.245447
36003		9.670231	0.425227	-1.752157	-0.074637	-0.012077	0.039239	-0.754639	-0.367920	-0.138428	0.595484	0.333501	-0.688506	0.245224
36004		9.684687	0.383695	-1.668705	-0.070051	-0.012193	0.041556	-0.758789	-0.352051	-0.147705	0.595438	0.332969	-0.688842	0.245117
36005		9.704258	0.398005	-1.624297	-0.066137	-0.004727	0.036821	-0.758789	-0.360352	-0.147949	0.595446	0.332382	-0.689157	0.245006
36006		9.763019	0.413629	-1.632853	-0.075997	0.008319	0.026036	-0.754639	-0.357666	-0.157227	0.595605	0.331771	-0.689400	0.244765
36007		9.684955	0.351401	-1.808325	-0.062133	0.014287	0.020513	-0.755371	-0.353027	-0.153564	0.595829	0.331160	-0.689603	0.244476
36008		9.626511	0.334131	-1.863378	-0.010771	0.017278	0.008418	-0.754639	-0.356445	-0.156982	0.595913	0.330916	-0.689634	0.244514
36009		9.686026	0.317415	-1.913051	0.045074	0.015568	0.002973	-0.760498	-0.352783	-0.149414	0.595877	0.330947	-0.689558	0.244774
36010		9.698217	0.387608	-1.898421	0.085904	0.016605	0.002611	-0.762939	-0.348877	-0.151855	0.595666	0.331261	-0.689365	0.245406
36011		9.729434	0.510291	-1.795921	0.118676	0.016371	-0.006296	-0.763428	-0.357178	-0.147461	0.595386	0.331760	-0.689094	0.246171
36012		9.667720	0.667425	-1.771943	0.129242	0.020476	-0.009060	-0.762207	-0.353760	-0.149170	0.595101	0.332351	-0.688759	0.246998
36013		9.628264	0.708509	-1.704587	0.128595	0.018797	-0.017548	-0.763672	-0.348145	-0.150146	0.594832	0.332970	-0.688418	0.247762
36014		9.654653	0.724874	-1.645090	0.104278	0.017928	-0.029461	-0.749756	-0.350586	-0.150146	0.594642	0.333525	-0.688106	0.248340
36015		9.675433	0.689755	-1.612323	0.056524	0.019361	-0.029641	-0.762939	-0.353271	-0.145508	0.594620	0.333849	-0.687873	0.248602
36016		9.684006	0.611216	-1.584109	0.021125	0.009641	-0.027790	-0.758545	-0.353516	-0.143799	0.594595	0.334039	-0.687761	0.248715
36017		9.619299	0.564780	-1.629414	0.001992	-0.000505	-0.022556	-0.753906	-0.352783	-0.155762	0.594551	0.334145	-0.687744	0.248726
36018		9.644663	0.580624	-1.674827	0.004533	-0.009855	-0.027541	-0.758545	-0.348145	-0.144775	0.594538	0.334194	-0.687797	0.248545
36019		9.655511	0.658094	-1.664875	0.010191	-0.010418	-0.032017	-0.762207	-0.355713	-0.150635	0.594427	0.334402	-0.687793	0.248540
36020		9.693382	0.703535	-1.642799	0.009835	-0.004008	-0.035185	-0.753662	-0.354736	-0.149414	0.594414	0.334547	-0.687774	0.248430
36021		9.693557	0.686684	-1.615361	-0.004961	-0.004275	-0.032573	-0.752686	-0.361328	-0.142578	0.594435	0.334625	-0.687782	0.248252
36022		9.669310	0.577158	-1.699520	-0.012832	-0.009278	-0.038274	-0.748047	-0.358643	-0.146484	0.594434	0.334780	-0.687783	0.248042
36023		9.681947	0.565262	-1.746816	0.008194	-0.014760	-0.041093	-0.756592	-0.356934	-0.155762	0.594373	0.335032	-0.687771	0.247880
36024		9.634889	0.570599	-1.810222	0.031893	-0.018806	-0.043710	-0.760742	-0.349609	-0.152832	0.594272	0.335319	-0.687770	0.247738
36025		9.647216	0.564063	-1.824086	0.055613	-0.023849	-0.043626	-0.769287	-0.359619	-0.146484	0.594038	0.335745	-0.687748	0.247785
36026		9.685884	0.553254	-1.819689	0.084053	-0.023773	-0.050881	-0.754150	-0.355469	-0.142334	0.593713	0.336404	-0.687627	0.248003
36027		9.725112	0.534606	-1.782998	0.093036	-0.015335	-0.051030	-0.752930	-0.355225	-0.147461	0.593399	0.337140	-0.687420	0.248330
36028		9.646581	0.514342	-1.751045	0.090841	-0.013728	-0.054229	-0.749756	-0.358643	-0.144775	0.593144	0.337821	-0.687222	0.248563
36029		9.639407	0.515481	-1.735122	0.099950	-0.015859	-0.055744	-0.756348	-0.367920	-0.142822	0.592850	0.338587	-0.686997	0.248843
36030		9.629185	0.609424	-1.730191	0.104750	-0.014741	-0.052285	-0.759277	-0.363770	-0.144775	0.592544	0.339363	-0.686761	0.249165
36031		9.686276	0.654271	-1.703933	0.094881	-0.007385	-0.044539	-0.758057	-0.363281	-0.142334	0.592295	0.339995	-0.686550	0.249478
36032		9.709382	0.726806	-1.736712	0.076271	-0.003329	-0.034723	-0.755127	-0.360840	-0.142090	0.592089	0.340487	-0.686379	0.249767
36033		9.710816	0.672941	-1.751329	0.046819	0.001633	-0.025207	-0.753906	-0.358398	-0.142090	0.591974	0.340767	-0.686271	0.249951
36034		9.631967	0.658845	-1.815239	0.015051	-0.001621	-0.026779	-0.757080	-0.364014	-0.141357	0.591932	0.340902	-0.686244	0.249941
36035		9.624130	0.674414	-1.860917	0.015645	-0.010520	-0.042577	-0.753662	-0.365967	-0.154785	0.591874	0.341156	-0.686211	0.249823
36036		9.601534	0.739062	-1.855758	0.037971	-0.014300	-0.053564	-0.749268	-0.375000	-0.143066	0.591844	0.341472	-0.686160	0.249605
36037		9.646125	0.763274	-1.795262	0.053869	-0.019464	-0.060875	-0.759521	-0.366699	-0.133789	0.591709	0.342033	-0.686030	0.249514
36038		9.720682	0.678021	-1.775034	0.051329	-0.014405	-0.059302	-0.756104	-0.365723	-0.146484	0.591521	0.342620	-0.685876	0.249577
36039		9.709895	0.604719	-1.756077	0.048373	-0.009433	-0.051177	-0.754395	-0.368408	-0.135986	0.591433	0.343019	-0.685769	0.249533
36040		9.687509	0.493167	-1.771553	0.059532	-0.002562	-0.048094	-0.759766	-0.371826	-0.142822	0.591292	0.343535	-0.685575	0.249688
36041		9.632828	0.527456	-1.838849	0.067549	-0.003152	-0.045566	-0.758057	-0.373779	-0.137939	0.591162	0.344007	-0.685404	0.249817
36042		9.614787	0.631274	-1.877459	0.077975	-0.005536	-0.050019	-0.759277	-0.369873	-0.142822	0.590976	0.344601	-0.685193	0.250017
36043		9.630436	0.714787	-1.888200	0.096026	-0.003086	-0.052509	-0.757324	-0.373779	-0.141602	0.590778	0.345241	-0.684947	0.250276
36044		9.638857	0.674398	-1.820051	0.104195	-0.004465	-0.054988	-0.756348	-0.377441	-0.140869	0.590559	0.345946	-0.684678	0.250554
36045		9.705476	0.653939	-1.761575	0.105640	0.000779	-0.053485	-0.753906	-0.374023	-0.134033	0.590371	0.346638	-0.684383	0.250849
36046		9.725527	0.665112	-1.653412	0.096879	0.008681	-0.043800	-0.757324	-0.372803	-0.140381	0.590188	0.347272	-0.684073	0.251245
36047		9.715643	0.749196	-1.613962	0.080698	0.014459	-0.023722	-0.746826	-0.375244	-0.142822	0.590074	0.347635	-0.683854	0.251605
36048		9.664039	0.881772	-1.608695	0.048264	0.014678	-0.002662	-0.757080	-0.367920	-0.142090	0.590046	0.347706	-0.683760	0.251829
36049		9.652156	0.975710	-1.766642	0.024671	0.014447	0.007796	-0.753418	-0.369385	-0.134766	0.590028	0.347598	-0.683758	0.252027
36050		9.610712	1.017383	-1.835123	-0.005674	0.006042	0.016445	-0.755859	-0.371338	-0.133789	0.589997	0.347378	-0.683856	0.252135
36051		9.632752	0.964672	-1.872467	-0.041033	0.004019	0.019530	-0.751953	-0.365234	-0.141113	0.590048	0.346976	-0.684047	0.252053
36052		9.617637	0.862662	-1.900321	-0.065332	-0.004028	0.033827	-0.750732	-0.367432	-0.139404	0.590125	0.346334	-0.684390	0.251824
36053		9.643147	0.751112	-1.817213	-0.070133	-0.002824	0.039156	-0.758057	-0.370361	-0.141846	0.590210	0.345654	-0.684743	0.251600
36054		9.647128	0.667516	-1.801010	-0.054369	-0.000857	0.046476	-0.753418	-0.369385	-0.138184	0.590257	0.344976	-0.685089	0.251478
36055		9.658396	0.727609	-1.758481	-0.038117	0.004705	0.045467	-0.759277	-0.368164	-0.139648	0.590275	0.344413	-0.685351	0.251495
36056		9.675500	0.799518	-1.766340	-0.023321	0.009885	0.041139	-0.753174	-0.371338	-0.130859	0.590287	0.343920	-0.685554	0.251588
36057		9.667470	0.860074	-1.728427	-0.049887	0.013219	0.048371	-0.754150	-0.372070	-0.141602	0.590344	0.343333	-0.685780	0.251640
36058		9.661266	0.870515	-1.734913	-0.083478	0.011476	0.056093	-0.749023	-0.362305	-0.143799	0.590535	0.342445	-0.686141	0.251415
36059		9.691591	0.795439	-1.694356	-0.126502	0.006449	0.071338	-0.748779	-0.372559	-0.137939	0.590781	0.341269	-0.686659	0.251024
36060		9.643810	0.673285	-1.791347	-0.146658	0.006573	0.079600	-0.749268	-0.358398	-0.142822	0.591059	0.339993	-0.687220	0.250565
36061		9.645892	0.635922	-1.795468	-0.147910	0.005801	0.085470	-0.753906	-0.368408	-0.138672	0.591311	0.338658	-0.687812	0.250153
36062		9.676652	0.515834	-1.833701	-0.149794	-0.000245	0.096074	-0.757568	-0.361328	-0.142090	0.591508	0.337291	-0.688457	0.249761
36063		9.675032	0.596704	-1.775484	-0.166036	0.011199	0.100499	-0.759277	-0.351807	-0.139160	0.591801	0.335775	-0.689099	0.249338
36064		9.614192	0.702376	-1.695514	-0.202630	0.010614	0.085187	-0.758301	-0.356934	-0.141846	0.592177	0.334209	-0.689764	0.248711
36065		9.647476	0.691815	-1.794791	-0.207298	0.001717	0.072787	-0.760498	-0.353760	-0.136719	0.592567	0.332690	-0.690448	0.247917
36066		9.611660	0.601980	-1.759127	-0.218714	-0.000207	0.067064	-0.762207	-0.355225	-0.143066	0.592946	0.331203	-0.691132	0.247096
36067		9.649494	0.428722	-1.801022	-0.227438	-0.001694	0.064255	-0.758301	-0.350830	-0.146729	0.593379	0.329645	-0.691846	0.246141
36068		9.682772	0.432088	-1.764144	-0.213816	0.003273	0.060613	-0.761230	-0.345215	-0.150146	0.593819	0.328151	-0.692496	0.245243
36069		9.622616	0.489027	-1.766319	-0.206749	-0.003918	0.055417	-0.762207	-0.339600	-0.147949	0.594208	0.326714	-0.693162	0.244341
36070		9.676314	0.443644	-1.771155	-0.191806	-0.009348	0.049753	-0.754395	-0.351562	-0.147461	0.594505	0.325419	-0.693801	0.243529
36071		9.678857	0.347950	-1.761963	-0.185269	-0.000184	0.048029	-0.756348	-0.345703	-0.151855	0.594870	0.324174	-0.694353	0.242723
36072		9.691930	0.342769	-1.803342	-0.193597	-0.007354	0.043030	-0.759521	-0.344727	-0.144043	0.595232	0.322899	-0.694955	0.241813
36073		9.651671	0.362334	-1.878918	-0.161142	-0.006327	0.030241	-0.759033	-0.346680	-0.152100	0.595485	0.321919	-0.695436	0.241110
36074		9.651458	0.382274	-1.839503	-0.115519	-0.004536	0.016356	-0.764893	-0.336182	-0.147949	0.595700	0.321192	-0.695788	0.240533
36075		9.667787	0.264883	-1.743743	-0.078929	-0.003741	0.012157	-0.762451	-0.340576	-0.161621	0.595779	0.320682	-0.696062	0.240224
36076		9.707637	0.253320	-1.699913	-0.049320	-0.000170	0.010140	-0.761719	-0.333740	-0.149170	0.595887	0.320239	-0.696266	0.239957
36077		9.685960	0.353076	-1.677822	-0.040416	0.000485	0.008155	-0.761230	-0.335693	-0.154297	0.595900	0.319934	-0.696430	0.239857
36078		9.636648	0.485544	-1.768709	-0.038726	0.001572	-0.004153	-0.762695	-0.340088	-0.149658	0.595971	0.319674	-0.696556	0.239660
36079		9.601541	0.575869	-1.811312	-0.026761	-0.004220	-0.016930	-0.759033	-0.345459	-0.147949	0.595983	0.319598	-0.696641	0.239482
36080		9.609173	0.500937	-1.855363	-0.018256	-0.010193	-0.024572	-0.766113	-0.343750	-0.153809	0.595957	0.319650	-0.696703	0.239300
36081		9.663331	0.434723	-1.768408	-0.005637	-0.008065	-0.016477	-0.764893	-0.339600	-0.152832	0.595914	0.319656	-0.696772	0.239197
36082		9.690643	0.405791	-1.656761	-0.011547	-0.011680	-0.016545	-0.762451	-0.331055	-0.147217	0.595856	0.319639	-0.696875	0.239062
36083		9.708975	0.425694	-1.715902	-0.014466	-0.018240	-0.018693	-0.756592	-0.347412	-0.155273	0.595736	0.319649	-0.697018	0.238934
36084		9.682359	0.400866	-1.780820	0.007508	-0.014448	-0.024475	-0.760498	-0.347412	-0.145264	0.595659	0.319799	-0.697049	0.238833
36085		9.721230	0.396913	-1.805691	0.040430	-0.004004	-0.031029	-0.766357	-0.343018	-0.148926	0.595517	0.320181	-0.696942	0.238988
36086		9.675607	0.383065	-1.803400	0.070869	0.004436	-0.028732	-0.757080	-0.349854	-0.146729	0.595346	0.320632	-0.696764	0.239330
36087		9.652794	0.508218	-1.808630	0.086360	0.007053	-0.028120	-0.759766	-0.343506	-0.147705	0.595154	0.321203	-0.696510	0.239781
36088		9.657620	0.596621	-1.736328	0.073844	0.005685	-0.027260	-0.750977	-0.347900	-0.149658	0.594983	0.321670	-0.696312	0.240151
36089		9.648482	0.681825	-1.761088	0.045912	-0.004618	-0.025101	-0.759277	-0.342041	-0.147461	0.594845	0.322030	-0.696202	0.240330
36090		9.680969	0.666007	-1.802327	0.032633	-0.008947	-0.022426	-0.771240	-0.342529	-0.146973	0.594691	0.322282	-0.696179	0.240441
36091		9.674293	0.663110	-1.784628	0.010705	-0.003867	-0.017610	-0.758301	-0.344727	-0.153564	0.594605	0.322361	-0.696210	0.240459
36092		9.640417	0.687866	-1.812570	-0.005318	-0.003329	-0.017035	-0.763916	-0.342529	-0.144775	0.594607	0.322364	-0.696242	0.240356
36093		9.619156	0.735394	-1.807715	-0.026232	-0.009689	-0.026845	-0.762939	-0.346191	-0.146484	0.594603	0.322350	-0.696338	0.240109
36094		9.634937	0.602376	-1.855873	-0.034247	-0.021156	-0.034334	-0.749268	-0.339600	-0.145020	0.594580	0.322372	-0.696474	0.239740
36095		9.694413	0.543723	-1.892375	-0.029544	-0.026850	-0.035424	-0.754395	-0.349854	-0.141357	0.594514	0.322442	-0.696621	0.239383
36096		9.658020	0.402415	-1.917177	-0.015657	-0.028794	-0.031223	-0.763428	-0.351807	-0.146484	0.594378	0.322612	-0.696739	0.239148
36097		9.624844	0.372931	-1.964432	0.033970	-0.021502	-0.033185	-0.755127	-0.352051	-0.150146	0.594172	0.322988	-0.696728	0.239183
36098		9.622715	0.237613	-1.850884	0.071634	-0.021975	-0.041564	-0.762695	-0.344482	-0.143799	0.593902	0.323607	-0.696603	0.239382
36099		9.797761	0.089099	-1.784383	0.104983	-0.017827	-0.030830	-0.762939	-0.350342	-0.149658	0.593512	0.324272	-0.696468	0.239841
36100		9.810201	-0.076095	-1.682715	0.134755	-0.003305	-0.013421	-0.758545	-0.344727	-0.144775	0.593119	0.324963	-0.696224	0.240584
36101		9.848013	-0.218033	-1.618719	0.175406	0.008309	0.009469	-0.765625	-0.348145	-0.142822	0.592622	0.325688	-0.695918	0.241713
36102		9.802105	-0.194800	-1.565262	0.204466	0.026465	0.019233	-0.759277	-0.345459	-0.149902	0.592122	0.326467	-0.695490	0.243115
36103		9.678986	0.162503	-1.690144	0.213385	0.037891	0.011292	-0.760254	-0.349609	-0.140381	0.591713	0.327289	-0.694954	0.244534
36104		9.598292	0.652136	-1.790178	0.210374	0.034986	-0.015244	-0.760010	-0.353760	-0.143799	0.591313	0.328302	-0.694358	0.245833
36105		9.611526	0.845840	-1.899340	0.203635	0.026117	-0.033385	-0.763184	-0.345459	-0.135498	0.590933	0.329416	-0.693748	0.246974
36106		9.580109	0.802617	-1.909477	0.182587	0.014066	-0.047466	-0.767578	-0.354736	-0.149170	0.590538	0.330482	-0.693253	0.247885
36107		9.582168	0.686676	-2.043020	0.192177	-0.011961	-0.051369	-0.767090	-0.351318	-0.144531	0.590024	0.331678	-0.692815	0.248737
36108		9.569245	0.677426	-1.942294	0.221699	-0.016362	-0.065890	-0.763184	-0.350098	-0.141357	0.589419	0.333090	-0.692315	0.249672
36109		9.620493	0.680860	-1.941416	0.254497	-0.012408	-0.070807	-0.755127	-0.361084	-0.133057	0.588749	0.334681	-0.691716	0.250782
36110		9.564641	0.760933	-1.899385	0.268292	-0.006893	-0.067958	-0.767822	-0.352051	-0.128662	0.588046	0.336406	-0.691017	0.252047
36111		9.543713	0.961013	-1.850228	0.250871	-0.007851	-0.067759	-0.755371	-0.355713	-0.139648	0.587366	0.337947	-0.690432	0.253174
36112		9.522904	1.155577	-1.770209	0.171609	-0.010136	-0.068406	-0.755127	-0.352783	-0.131104	0.586946	0.339132	-0.689968	0.253824
36113		9.552706	1.191635	-1.770041	0.088506	-0.034473	-0.058815	-0.756836	-0.363770	-0.125977	0.586575	0.339894	-0.689853	0.253978
36114		9.675980	1.008731	-1.783068	-0.007539	-0.048326	-0.039924	-0.760010	-0.365723	-0.130371	0.586340	0.340177	-0.690027	0.253666
36115		9.738223	0.700099	-1.857528	-0.067810	-0.057834	-0.002884	-0.759521	-0.356201	-0.127930	0.586159	0.339966	-0.690474	0.253154
36116		9.668808	0.566528	-1.942486	-0.081242	-0.054009	0.011501	-0.752686	-0.362305	-0.129395	0.586001	0.339539	-0.691014	0.252620
36117		9.577332	0.645057	-2.039189	-0.067149	-0.067924	0.003450	-0.762207	-0.369385	-0.132812	0.585748	0.339320	-0.691520	0.252114
36118		9.613484	0.675006	-2.030676	-0.047393	-0.069050	-0.014631	-0.753906	-0.358154	-0.130127	0.585476	0.339326	-0.691920	0.251639
36119		9.625800	0.518432	-1.931154	-0.031026	-0.068201	-0.021574	-0.760986	-0.363037	-0.126953	0.585178	0.339395	-0.692297	0.251200
36120		9.650930	0.357313	-1.874148	0.001132	-0.072697	-0.028123	-0.756592	-0.358887	-0.121826	0.584764	0.339685	-0.692609	0.250914
36121		9.696292	0.335587	-1.833585	0.042575	-0.082567	-0.030746	-0.752930	-0.357422	-0.125732	0.584172	0.340194	-0.692893	0.250817
36122		9.620069	0.346482	-1.891369	0.091564	-0.093557	-0.038339	-0.764160	-0.358643	-0.127441	0.583412	0.341004	-0.693095	0.250930
36123		9.585676	0.474088	-1.867131	0.143055	-0.132984	-0.049285	-0.768311	-0.362549	-0.122314	0.582302	0.342183	-0.693362	0.251166
36124		9.693985	0.601607	-1.890720	0.100489	-0.122442	-0.029404	-0.750244	-0.360596	-0.117432	0.581320	0.343031	-0.693722	0.251290
36125		9.568766	0.803651	-1.953893	0.025773	-0.106774	-0.008260	-0.759277	-0.363037	-0.119873	0.580602	0.343393	-0.694199	0.251138
36126		9.588653	0.821913	-2.047737	-0.011318	-0.098939	0.008672	-0.764160	-0.359375	-0.109619	0.580004	0.343456	-0.694763	0.250875
36127		9.576630	0.691463	-1.895583	-0.076537	-0.082448	0.032890	-0.764160	-0.358643	-0.113037	0.579612	0.342987	-0.695501	0.250379
36128		9.624945	0.641602	-1.826006	-0.148552	-0.080583	0.046262	-0.767578	-0.355225	-0.106445	0.579418	0.342090	-0.696405	0.249536
36129		9.636218	0.534698	-1.969554	-0.173625	-0.079005	0.051215	-0.760254	-0.362793	-0.106689	0.579276	0.341010	-0.697400	0.248563
36130		9.681939	0.464477	-2.005489	-0.202776	-0.080264	0.055551	-0.759033	-0.355957	-0.111572	0.579199	0.339859	-0.698412	0.247478
36131		9.665478	0.397886	-2.125571	-0.203537	-0.073498	0.053992	-0.763184	-0.357178	-0.112793	0.579182	0.338660	-0.699396	0.246380
36132		9.636620	0.469772	-2.069004	-0.210000	-0.064803	0.056792	-0.755859	-0.357910	-0.109375	0.579225	0.337404	-0.700350	0.245289
36133		9.598510	0.545920	-2.090817	-0.218092	-0.066977	0.053953	-0.763672	-0.357422	-0.114990	0.579275	0.336165	-0.701305	0.244142
36134		9.627116	0.485176	-2.218237	-0.197713	-0.075241	0.045496	-0.760254	-0.355713	-0.109619	0.579243	0.335080	-0.702229	0.243050
36135		9.625169	0.315981	-2.216323	-0.184455	-0.058200	0.042632	-0.764404	-0.355957	-0.112305	0.579268	0.334038	-0.703046	0.242062
36136		9.590467	0.208499	-2.161886	-0.152676	-0.046092	0.032267	-0.761475	-0.354004	-0.117432	0.579298	0.333189	-0.703704	0.241248
36137		9.596082	0.206091	-2.156298	-0.117334	-0.045080	0.020608	-0.762451	-0.343262	-0.109131	0.579271	0.332585	-0.704235	0.240594
36138		9.575071	0.315102	-2.227779	-0.095540	-0.031420	0.010921	-0.761230	-0.351318	-0.106934	0.579273	0.332002	-0.704712	0.239995
36139		9.591121	0.438501	-2.349523	-0.086535	-0.024195	0.020926	-0.761475	-0.345215	-0.109619	0.579260	0.331471	-0.705123	0.239555
36140		9.494712	0.567207	-2.333856	-0.112415	-0.023593	0.033106	-0.761475	-0.343506	-0.112549	0.579308	0.330695	-0.705636	0.239002
36141		9.465056	0.641654	-2.336196	-0.165848	-0.037200	0.040668	-0.766357	-0.346191	-0.115479	0.579413	0.329641	-0.706335	0.238136
36142		9.541427	0.675480	-2.342465	-0.229849	-0.044549	0.042594	-0.767822	-0.351318	-0.107910	0.579645	0.328308	-0.707181	0.236898
36143		9.601925	0.528625	-2.404431	-0.253326	-0.037928	0.039450	-0.763672	-0.345947	-0.113525	0.579960	0.326903	-0.708029	0.235533
36144		9.606021	0.370205	-2.262918	-0.230043	-0.031882	0.031668	-0.765137	-0.343994	-0.115479	0.580276	0.325626	-0.708775	0.234277
36145		9.609559	0.177600	-2.165026	-0.229446	-0.022385	0.030717	-0.764404	-0.340820	-0.114990	0.580650	0.324327	-0.709471	0.233042
36146		9.543777	0.089885	-2.224812	-0.197339	-0.019789	0.017207	-0.760254	-0.344482	-0.122314	0.580976	0.323236	-0.710069	0.231923
36147		9.595666	0.032901	-2.274756	-0.145920	-0.008206	0.009267	-0.763184	-0.335938	-0.119873	0.581257	0.322491	-0.710430	0.231147
36148		9.599260	0.154088	-2.103917	-0.104714	0.004275	0.006291	-0.761475	-0.348145	-0.121826	0.581508	0.321841	-0.710704	0.230580
36149		9.665856	0.205023	-1.900262	-0.097137	0.010156	0.005356	-0.756348	-0.337891	-0.122559	0.581764	0.321360	-0.710854	0.230142
36150		9.714836	0.205825	-1.839069	-0.118187	0.017036	0.011508	-0.759521	-0.340088	-0.120117	0.582119	0.320642	-0.711069	0.229582
36151		9.677476	0.247961	-1.924154	-0.139135	0.018139	0.024786	-0.759521	-0.344238	-0.116699	0.582499	0.319749	-0.711358	0.228966
36152		9.651334	0.300914	-2.047259	-0.145405	0.015762	0.034098	-0.768066	-0.346924	-0.123535	0.582849	0.318812	-0.711686	0.228363
36153		9.551471	0.274317	-2.115109	-0.132656	0.018046	0.031627	-0.765137	-0.340576	-0.125244	0.583184	0.317983	-0.711942	0.227865
36154		9.480264	0.247153	-2.129301	-0.104228	0.024313	0.030311	-0.766113	-0.338135	-0.118164	0.583494	0.317239	-0.712130	0.227519
36155		9.702576	0.147428	-2.089373	-0.096020	0.047755	0.029856	-0.767578	-0.342529	-0.127930	0.583910	0.316437	-0.712238	0.227233
36156		9.782391	0.086377	-1.985360	-0.080997	0.065747	0.036376	-0.767578	-0.326660	-0.126953	0.584386	0.315728	-0.712175	0.227189
36157		9.754810	0.150778	-1.848522	-0.056180	0.071056	0.031364	-0.760742	-0.337891	-0.125977	0.584857	0.314978	-0.712126	0.227174
36158		9.616163	0.153179	-1.911916	-0.034170	0.059191	0.022751	-0.762939	-0.334717	-0.123535	0.585198	0.314556	-0.711994	0.227293
36159		9.554713	0.142413	-2.025856	-0.011053	0.058057	0.015162	-0.764648	-0.329590	-0.131104	0.585483	0.314241	-0.711841	0.227473
36160		9.549845	0.129764	-2.033230	0.029124	0.058566	0.011082	-0.762451	-0.328613	-0.128174	0.585691	0.314120	-0.711595	0.227877
36161		9.728815	0.120169	-1.847649	0.069162	0.065214	0.015516	-0.764404	-0.333984	-0.129883	0.585821	0.314136	-0.711269	0.228537
36162		9.820966	0.191699	-1.829640	0.085160	0.082882	0.015339	-0.765381	-0.335693	-0.130127	0.586006	0.314266	-0.710788	0.229381
36163		9.683527	0.238815	-1.842569	0.107846	0.084273	0.003962	-0.762451	-0.330811	-0.128906	0.586156	0.314588	-0.710218	0.230318
36164		9.547832	0.250608	-1.833504	0.129627	0.082378	-0.022141	-0.767578	-0.337646	-0.128906	0.586295	0.315116	-0.709578	0.231212
36165		9.552972	0.197228	-1.995725	0.155445	0.074893	-0.041387	-0.763428	-0.338623	-0.133545	0.586343	0.315958	-0.708847	0.232182
36166		9.587590	0.265755	-2.157295	0.210793	0.069462	-0.042296	-0.759766	-0.341553	-0.130859	0.586221	0.317123	-0.707996	0.233494
36167		9.662101	0.595515	-2.024288	0.245883	0.067837	-0.034369	-0.762939	-0.339111	-0.135986	0.585973	0.318438	-0.707095	0.235053
36168		9.619798	0.805519	-1.964861	0.218331	0.074733	-0.021690	-0.769287	-0.339355	-0.127441	0.585823	0.319509	-0.706242	0.236534
36169		9.559307	0.899706	-1.980159	0.161215	0.070207	-0.018824	-0.758301	-0.333252	-0.137207	0.585780	0.320219	-0.705594	0.237613
36170		9.586863	0.869712	-2.028576	0.106323	0.060553	-0.021629	-0.761475	-0.332520	-0.124756	0.585859	0.320703	-0.705055	0.238360
36171		9.599724	0.764122	-1.968615	0.045026	0.061877	-0.013113	-0.764160	-0.334229	-0.124023	0.586082	0.320735	-0.704744	0.238690
36172		9.693613	0.650299	-1.817431	0.027480	0.061667	-0.007845	-0.765381	-0.333496	-0.137695	0.586333	0.320659	-0.704483	0.238946
36173		9.632163	0.529911	-1.874079	0.034868	0.059916	0.002524	-0.763428	-0.347168	-0.128174	0.586548	0.320624	-0.704176	0.239370
36174		9.506062	0.589643	-1.932835	0.052314	0.051843	0.003444	-0.768555	-0.336182	-0.137207	0.586626	0.320812	-0.703835	0.239927
36175		9.644109	0.591411	-1.982601	0.056829	0.048142	0.007374	-0.770020	-0.329834	-0.130615	0.586694	0.320898	-0.703550	0.240481
36176		9.657606	0.645757	-1.964748	0.045395	0.064200	0.024027	-0.765137	-0.338379	-0.130615	0.586861	0.320671	-0.703341	0.240990
36177		9.764519	0.741624	-1.812567	-0.016551	0.076526	0.020961	-0.761963	-0.337646	-0.134277	0.587251	0.320266	-0.703116	0.241234
36178		9.692132	0.627803	-1.787360	-0.091947	0.086498	0.025652	-0.764893	-0.329590	-0.140137	0.587896	0.319467	-0.702984	0.241108
36179		9.515518	0.396875	-1.943135	-0.101971	0.077854	0.016205	-0.764404	-0.327148	-0.140137	0.588555	0.318608	-0.702922	0.240815
36180		9.553532	0.304870	-1.924194	-0.048905	0.067255	0.008302	-0.765137	-0.327393	-0.150391	0.589030	0.318047	-0.702804	0.240742
36181		9.604141	0.194962	-1.953279	0.018229	0.056997	0.002894	-0.761719	-0.333252	-0.139648	0.589284	0.317926	-0.702532	0.241074
36182		9.735164	0.290623	-1.851696	0.101171	0.046462	0.009814	-0.762939	-0.337402	-0.141357	0.589218	0.318218	-0.702178	0.241878
36183		9.748210	0.381392	-1.754972	0.089095	0.061015	0.032076	-0.770752	-0.333740	-0.137451	0.589216	0.318351	-0.701800	0.242803
36184		9.589724	0.457146	-1.840838	0.044412	0.069477	0.043606	-0.763184	-0.326904	-0.145752	0.589360	0.318088	-0.701567	0.243474
36185		9.593677	0.584315	-1.982622	0.025337	0.072814	0.032207	-0.765137	-0.329590	-0.135010	0.589621	0.317778	-0.701304	0.244003
36186		9.588363	0.619790	-2.007571	-0.010226	0.068623	0.026219	-0.762695	-0.333252	-0.145508	0.589944	0.317307	-0.701167	0.244226
36187		9.564112	0.620684	-2.016866	-0.051844	0.045591	0.033320	-0.763672	-0.329346	-0.144287	0.590228	0.316756	-0.701156	0.244288
36188		9.560543	0.535797	-2.049194	-0.006102	0.001696	0.025182	-0.764160	-0.329102	-0.143555	0.590157	0.316510	-0.701282	0.244417
36189		9.608438	0.530353	-1.718685	0.036859	-0.024942	0.022707	-0.764404	-0.326416	-0.141602	0.589820	0.316541	-0.701449	0.244709
36190		9.714545	0.460475	-1.695724	-0.055168	-0.033038	0.027127	-0.769775	-0.328125	-0.144775	0.589674	0.316072	-0.701879	0.244435
36191		9.571952	0.300438	-1.906809	-0.104634	-0.036979	0.024867	-0.767334	-0.328125	-0.137939	0.589635	0.315415	-0.702399	0.243883
36192		9.471432	0.228637	-2.205827	-0.057376	-0.065052	0.009365	-0.772217	-0.329590	-0.142334	0.589332	0.315117	-0.702948	0.243421
36193		9.599435	0.251291	-2.179892	-0.004157	-0.092607	0.001879	-0.768066	-0.336182	-0.146484	0.588740	0.315219	-0.703473	0.243203
36194		9.775297	0.335916	-1.837837	0.003686	-0.068243	0.008189	-0.771729	-0.331543	-0.139893	0.588247	0.315408	-0.703790	0.243233
36195		9.859667	0.402307	-1.651129	-0.037102	-0.033769	0.018295	-0.774658	-0.329102	-0.143799	0.588048	0.315165	-0.704120	0.243076
36196		9.799578	0.418925	-1.668626	-0.093811	-0.012501	0.021442	-0.769531	-0.316650	-0.139160	0.588123	0.314574	-0.704462	0.242668
36197		9.644503	0.480415	-1.894094	-0.152523	-0.007489	0.024538	-0.768799	-0.322021	-0.140137	0.588404	0.313487	-0.705009	0.241805
36198		9.546251	0.408381	-2.016275	-0.195443	-0.014211	0.029639	-0.768311	-0.317627	-0.145508	0.588729	0.312266	-0.705636	0.240762
36199		9.578161	0.386981	-2.093615	-0.220100	-0.024287	0.040085	-0.774414	-0.322021	-0.132812	0.589047	0.310869	-0.706380	0.239604
36200		9.638633	0.336810	-2.023648	-0.245638	-0.024769	0.048765	-0.770752	-0.315430	-0.146240	0.589383	0.309269	-0.707253	0.238271
36201		9.660067	0.292810	-1.929941	-0.264851	-0.018230	0.057137	-0.773682	-0.318848	-0.150635	0.589810	0.307533	-0.708100	0.236941
36202		9.706937	0.243763	-1.919255	-0.281405	-0.007388	0.055213	-0.765137	-0.314453	-0.144043	0.590335	0.305781	-0.708872	0.235592
36203		9.684565	0.066510	-1.892063	-0.277803	-0.003755	0.048977	-0.776611	-0.317139	-0.146973	0.590883	0.304019	-0.709641	0.234178
36204		9.660329	-0.048075	-1.914322	-0.243561	0.007325	0.034215	-0.774414	-0.319580	-0.146484	0.591424	0.302518	-0.710238	0.232944
36205		9.566471	-0.014907	-2.059247	-0.191143	0.016294	0.021516	-0.773682	-0.316162	-0.149414	0.591899	0.301378	-0.710635	0.232003
36206		9.513764	0.044818	-2.043945	-0.142638	0.017705	0.013329	-0.771729	-0.314209	-0.151123	0.592283	0.300502	-0.710913	0.231306
36207		9.566690	0.091648	-1.986009	-0.113784	0.018157	0.010065	-0.764893	-0.310547	-0.143555	0.592607	0.299782	-0.711123	0.230765
36208		9.633488	0.101821	-1.912575	-0.096459	0.015335	0.011448	-0.765381	-0.308105	-0.147705	0.592869	0.299074	-0.711370	0.230249
36209		9.719859	0.060721	-1.918406	-0.088011	0.017861	0.010633	-0.763672	-0.310547	-0.144043	0.593133	0.298406	-0.711576	0.229798
36210		9.760128	0.043659	-1.908172	-0.070888	0.016933	0.017045	-0.761963	-0.313232	-0.151855	0.593325	0.297809	-0.711769	0.229478
36211		9.742629	-0.017645	-1.862705	-0.056832	0.023301	0.015014	-0.767578	-0.309082	-0.151123	0.593524	0.297375	-0.711829	0.229338
36212		9.717275	-0.054787	-1.891897	-0.034051	0.015696	0.018422	-0.763916	-0.313477	-0.151611	0.593620	0.296972	-0.711938	0.229276
36213		9.697737	0.003861	-1.840249	-0.008803	0.024727	0.015696	-0.770996	-0.308105	-0.143311	0.593703	0.296774	-0.711903	0.229428
36214		9.658907	0.035962	-1.803432	0.001427	0.022058	0.018401	-0.767090	-0.311768	-0.148926	0.593740	0.296471	-0.711970	0.229515
36215		9.612379	0.110590	-1.801395	0.015435	0.016244	0.008267	-0.764160	-0.301514	-0.150146	0.593723	0.296414	-0.711942	0.229716
36216		9.649682	0.251883	-1.807681	0.037399	0.006728	-0.005944	-0.776123	-0.302490	-0.152588	0.593648	0.296450	-0.711937	0.229879
36217		9.700204	0.320659	-1.915542	0.039415	0.011841	-0.016140	-0.762939	-0.314941	-0.155762	0.593614	0.296536	-0.711885	0.230016
36218		9.688529	0.264641	-1.924525	0.042961	0.031308	-0.022868	-0.778809	-0.305664	-0.154541	0.593679	0.296873	-0.711579	0.230362
36219		9.623724	0.262845	-1.954558	0.056713	0.034796	-0.032275	-0.764893	-0.302246	-0.160400	0.593765	0.297133	-0.711318	0.230610
36220		9.623179	0.328532	-1.997821	0.080582	0.031970	-0.037308	-0.767090	-0.315674	-0.153809	0.593804	0.297576	-0.710970	0.231014
36221		9.655615	0.419292	-1.930439	0.103823	0.028643	-0.039428	-0.771240	-0.307129	-0.147949	0.593730	0.298284	-0.710544	0.231600
36222		9.729048	0.412328	-1.848047	0.099550	0.025531	-0.029721	-0.766357	-0.308105	-0.149414	0.593643	0.298747	-0.710272	0.232059
36223		9.725073	0.365727	-1.700840	0.066623	0.030335	-0.005891	-0.767578	-0.314941	-0.158203	0.593621	0.298935	-0.710072	0.232487
36224		9.741067	0.280629	-1.627167	0.011751	0.031106	0.007213	-0.765625	-0.322021	-0.148438	0.593710	0.298903	-0.709914	0.232782
36225		9.683413	0.221057	-1.730345	-0.013175	0.026919	0.009298	-0.767334	-0.303467	-0.153076	0.593803	0.298799	-0.709831	0.232930
36226		9.643933	0.243623	-1.801259	-0.007038	0.017335	0.007736	-0.772461	-0.306641	-0.161865	0.593877	0.298515	-0.709889	0.232932
36227		9.643511	0.276589	-1.856460	0.011866	0.014246	0.007247	-0.765137	-0.310791	-0.143799	0.593885	0.298412	-0.709861	0.233125
36228		9.642059	0.403604	-1.777269	0.047352	0.020577	0.007458	-0.766846	-0.308838	-0.157227	0.593812	0.298463	-0.709788	0.233468
36229		9.694724	0.426873	-1.759366	0.048771	0.018880	0.018674	-0.772217	-0.315430	-0.163086	0.593724	0.298499	-0.709688	0.233953
36230		9.655615	0.457196	-1.724251	0.019859	0.017564	0.027166	-0.770264	-0.310791	-0.150635	0.593671	0.298450	-0.709603	0.234403
36231		9.650485	0.400413	-1.752486	-0.012068	0.011091	0.033331	-0.776123	-0.313232	-0.153320	0.593645	0.298100	-0.709726	0.234542
36232		9.645688	0.297792	-1.831122	-0.027844	0.001426	0.038796	-0.767578	-0.308350	-0.152588	0.593584	0.297695	-0.709920	0.234626
36233		9.647147	0.208903	-1.858036	-0.029284	0.000106	0.038174	-0.771484	-0.305908	-0.149170	0.593531	0.297258	-0.710132	0.234673
36234		9.628621	0.144141	-1.815857	-0.028121	-0.005645	0.027883	-0.770264	-0.302734	-0.154541	0.593462	0.296840	-0.710388	0.234602
36235		9.668625	0.077901	-1.858194	-0.027771	-0.004997	0.023840	-0.771240	-0.307129	-0.156738	0.593416	0.296447	-0.710611	0.234540
36236		9.702529	-0.004734	-1.850351	-0.032119	-0.000620	0.029032	-0.772461	-0.300537	-0.157227	0.593385	0.296075	-0.710787	0.234556
36237		9.710128	-0.082228	-1.860476	-0.033648	0.003577	0.031883	-0.767334	-0.305420	-0.151367	0.593393	0.295582	-0.710995	0.234525
36238		9.664974	-0.130596	-1.866932	-0.016891	0.007186	0.026529	-0.767578	-0.296143	-0.156006	0.593370	0.295265	-0.711120	0.234603
36239		9.631282	-0.058019	-1.909357	0.006141	0.010924	0.013603	-0.765869	-0.309082	-0.150146	0.593366	0.295030	-0.711186	0.234709
36240		9.651006	-0.033869	-1.892193	0.030491	0.012337	0.002940	-0.769043	-0.292236	-0.150635	0.593290	0.295144	-0.711104	0.235008
36241		9.690862	-0.034722	-1.842153	0.042267	0.012622	-0.004132	-0.770752	-0.304443	-0.151123	0.593245	0.295105	-0.711107	0.235160
36242		9.684499	-0.013253	-1.812285	0.042979	0.012833	-0.009567	-0.773193	-0.300049	-0.156494	0.593177	0.295280	-0.711004	0.235423
36243		9.651445	0.046288	-1.756511	0.038573	0.010252	-0.011553	-0.770752	-0.302002	-0.147705	0.593126	0.295405	-0.710925	0.235633
36244		9.650252	0.159407	-1.718907	0.033425	0.007665	-0.022296	-0.776611	-0.306152	-0.156006	0.593078	0.295568	-0.710871	0.235714
36245		9.682805	0.191444	-1.708616	0.028326	0.010058	-0.034737	-0.773193	-0.303955	-0.152588	0.593080	0.295849	-0.710725	0.235796
36246		9.676185	0.217868	-1.679282	0.022106	0.010765	-0.032426	-0.769531	-0.302979	-0.151367	0.593100	0.296044	-0.710621	0.235813
36247		9.676553	0.204774	-1.717790	-0.004008	0.010405	-0.028974	-0.775879	-0.302490	-0.162109	0.593178	0.296082	-0.710584	0.235682
36248		9.638625	0.129391	-1.755566	-0.021511	0.009856	-0.026183	-0.771484	-0.303711	-0.157959	0.593305	0.296033	-0.710554	0.235513
36249		9.637626	0.188653	-1.874663	-0.004114	0.002614	-0.030883	-0.772461	-0.304199	-0.163330	0.593348	0.296124	-0.710518	0.235400
36250		9.693424	0.372368	-1.899952	0.022099	-0.002533	-0.037782	-0.775879	-0.307129	-0.152344	0.593314	0.296421	-0.710410	0.235435
36251		9.711202	0.473704	-1.862524	0.024397	0.000433	-0.038867	-0.770020	-0.304688	-0.161133	0.593275	0.296699	-0.710335	0.235413
36252		9.686340	0.398158	-1.805576	-0.014949	0.001516	-0.022827	-0.769775	-0.297607	-0.145996	0.593326	0.296713	-0.710323	0.235303
36253		9.674902	0.309247	-1.759421	-0.054042	-0.002568	-0.003893	-0.767090	-0.302734	-0.156006	0.593414	0.296249	-0.710595	0.234845
36254		9.643732	0.217059	-1.755781	-0.078752	-0.006651	0.001922	-0.778564	-0.306152	-0.155273	0.593523	0.295779	-0.710843	0.234410
36255		9.637332	0.194779	-1.778418	-0.087828	-0.010784	0.008305	-0.774414	-0.302002	-0.151855	0.593606	0.295236	-0.711156	0.233932
36256		9.668771	0.241278	-1.868775	-0.075166	-0.011014	0.004868	-0.770264	-0.306641	-0.152832	0.593668	0.294726	-0.711471	0.233461
36257		9.734597	0.223864	-1.807453	-0.056570	-0.001513	-0.002884	-0.771729	-0.294922	-0.154541	0.593742	0.294431	-0.711629	0.233162
36258		9.716158	0.157743	-1.836074	-0.048504	0.005617	0.001255	-0.773926	-0.297607	-0.151611	0.593863	0.293973	-0.711825	0.232833
36259		9.650246	0.186201	-1.826187	-0.036905	-0.000488	-0.007826	-0.774170	-0.307617	-0.151367	0.593924	0.293663	-0.712006	0.232516
36260		9.616471	0.230132	-1.813533	-0.028423	-0.016481	-0.014980	-0.769043	-0.304932	-0.150879	0.593855	0.293612	-0.712161	0.232281
36261		9.649772	0.161576	-1.875373	-0.024860	-0.021673	-0.023658	-0.766357	-0.298096	-0.163818	0.593770	0.293623	-0.712319	0.232000
36262		9.692230	-0.045720	-1.935715	-0.028051	-0.019980	-0.022558	-0.769531	-0.305908	-0.150635	0.593738	0.293576	-0.712448	0.231746
36263		9.629588	-0.219761	-1.962599	-0.003945	-0.012440	-0.024586	-0.770996	-0.300293	-0.155762	0.593656	0.293689	-0.712512	0.231615
36264		9.596486	-0.220092	-2.000081	0.040309	-0.011967	-0.031187	-0.778564	-0.304443	-0.154541	0.593505	0.293992	-0.712490	0.231688
36265		9.633358	-0.094728	-1.947387	0.076773	-0.004434	-0.037896	-0.771973	-0.307617	-0.159668	0.593310	0.294519	-0.712343	0.231969
36266		9.704198	-0.023923	-1.912198	0.077577	0.003554	-0.041335	-0.764160	-0.307617	-0.156982	0.593169	0.295145	-0.712076	0.232355
36267		9.731028	-0.039159	-1.897520	0.072294	0.004522	-0.040636	-0.766846	-0.313232	-0.156006	0.593042	0.295755	-0.711808	0.232722
36268		9.652312	-0.028270	-1.921461	0.101378	0.003171	-0.048904	-0.774658	-0.299561	-0.156006	0.592836	0.296620	-0.711444	0.233259
36269		9.682746	0.084713	-1.920058	0.141702	0.008345	-0.056707	-0.774902	-0.304932	-0.149414	0.592617	0.297471	-0.711088	0.233816
36270		9.680400	0.197018	-1.918175	0.166905	0.014487	-0.062632	-0.766846	-0.299805	-0.144043	0.592363	0.298505	-0.710638	0.234509
36271		9.623368	0.393579	-1.896048	0.178461	0.011616	-0.062620	-0.771484	-0.310547	-0.145996	0.592071	0.299525	-0.710227	0.235189
36272		9.626673	0.528753	-1.772546	0.164738	0.002941	-0.068070	-0.768066	-0.306885	-0.146484	0.591748	0.300665	-0.709794	0.235854
36273		9.628281	0.455720	-1.764587	0.124734	-0.004528	-0.067759	-0.774414	-0.306641	-0.155273	0.591494	0.301570	-0.709495	0.236236
36274		9.657448	0.336646	-1.751541	0.092317	-0.011067	-0.066592	-0.765869	-0.305908	-0.148438	0.591298	0.302312	-0.709272	0.236446
36275		9.706843	0.197732	-1.772809	0.098422	-0.017267	-0.059230	-0.774658	-0.313232	-0.147461	0.591029	0.303044	-0.709105	0.236684
36276		9.707359	0.166399	-1.753426	0.128647	-0.019051	-0.059849	-0.767090	-0.318604	-0.144287	0.590657	0.303984	-0.708864	0.237127
36277		9.715540	0.314407	-1.719619	0.146336	-0.008152	-0.059485	-0.763672	-0.311523	-0.144043	0.590286	0.305078	-0.708489	0.237769
36278		9.685985	0.404073	-1.749988	0.128316	-0.001746	-0.054569	-0.768311	-0.315186	-0.147217	0.590010	0.305941	-0.708177	0.238272
36279		9.664407	0.447751	-1.780592	0.092641	-0.007338	-0.047282	-0.769531	-0.312256	-0.151855	0.589777	0.306630	-0.707954	0.238626
36280		9.578293	0.443100	-1.860837	0.061466	-0.025779	-0.052027	-0.765625	-0.311279	-0.149658	0.589542	0.307191	-0.707875	0.238718
36281		9.610846	0.399908	-1.950826	0.035323	-0.046114	-0.055878	-0.776611	-0.320557	-0.143799	0.589263	0.307675	-0.707947	0.238570
36282		9.593086	0.297127	-1.997852	0.018996	-0.044513	-0.058986	-0.768066	-0.320068	-0.146729	0.589011	0.308149	-0.708032	0.238328
36283		9.643636	0.141044	-1.959350	0.023370	-0.045803	-0.057856	-0.767822	-0.315674	-0.142090	0.588746	0.308678	-0.708078	0.238163
36284		9.711723	0.043854	-1.964388	0.045414	-0.037133	-0.053901	-0.770508	-0.315674	-0.140137	0.588475	0.309185	-0.708108	0.238085
36285		9.717450	0.046816	-1.957006	0.063216	-0.025672	-0.047395	-0.764404	-0.322998	-0.137695	0.588213	0.309692	-0.708084	0.238147
36286		9.606865	0.172893	-1.970716	0.058384	-0.020465	-0.038428	-0.771484	-0.331543	-0.144287	0.587952	0.310234	-0.708002	0.238328
36287		9.634543	0.286336	-1.976498	0.051241	-0.014366	-0.041508	-0.764893	-0.315918	-0.144043	0.587742	0.310859	-0.707818	0.238579
36288		9.633420	0.310859	-1.939541	0.030915	-0.016953	-0.045331	-0.776367	-0.324219	-0.142578	0.587623	0.311203	-0.707782	0.238531
36289		9.612820	0.318684	-1.948634	0.010223	-0.019079	-0.047796	-0.766846	-0.318848	-0.135254	0.587527	0.311524	-0.707773	0.238376
36290		9.600605	0.287553	-1.923011	0.000241	-0.030611	-0.060865	-0.767090	-0.317627	-0.139404	0.587420	0.311821	-0.707861	0.237986
36291		9.673979	0.240927	-1.932083	0.000183	-0.024630	-0.065243	-0.769043	-0.321045	-0.146729	0.587369	0.312124	-0.707898	0.237604
36292		9.680702	0.096687	-1.877589	0.007544	-0.009936	-0.056611	-0.764160	-0.324463	-0.136475	0.587372	0.312446	-0.707814	0.237426
36293		9.656546	0.063460	-1.842326	0.031452	0.000102	-0.061183	-0.764893	-0.315918	-0.135742	0.587357	0.312916	-0.707638	0.237371
36294		9.699265	0.117225	-1.938984	0.055925	0.005215	-0.059065	-0.776855	-0.323486	-0.132568	0.587330	0.313338	-0.707473	0.237370
36295		9.640083	0.249460	-2.009785	0.072182	0.005018	-0.055954	-0.773193	-0.320312	-0.132812	0.587231	0.313856	-0.707286	0.237488
36296		9.596830	0.474272	-1.979903	0.092003	-0.000238	-0.058678	-0.774658	-0.330078	-0.140625	0.587065	0.314464	-0.707092	0.237674
36297		9.604575	0.581853	-1.959392	0.083111	-0.007867	-0.060963	-0.761719	-0.323975	-0.134277	0.586870	0.315206	-0.706838	0.237925
36298		9.618565	0.578504	-1.868685	0.039738	-0.001438	-0.052340	-0.761719	-0.323486	-0.141113	0.586815	0.315618	-0.706701	0.237922
36299		9.642544	0.486539	-1.891345	-0.001723	-0.003331	-0.046125	-0.764404	-0.325684	-0.137939	0.586861	0.315800	-0.706645	0.237733
36300		9.606681	0.416325	-1.892970	-0.022900	-0.008348	-0.043059	-0.775146	-0.327393	-0.147461	0.586918	0.315872	-0.706675	0.237409
36301		9.640915	0.383100	-1.906690	-0.012150	-0.008739	-0.040505	-0.764404	-0.326416	-0.146484	0.586954	0.315980	-0.706671	0.237189
36302		9.698903	0.396235	-1.921420	0.004772	-0.009482	-0.037593	-0.764404	-0.321777	-0.130859	0.586934	0.316185	-0.706623	0.237107
36303		9.654177	0.369192	-1.924231	0.016680	-0.009400	-0.032969	-0.768066	-0.329834	-0.138916	0.586862	0.316301	-0.706680	0.236963
36304		9.645345	0.405239	-1.930318	0.018207	-0.009411	-0.032234	-0.772217	-0.329834	-0.127930	0.586778	0.316539	-0.706646	0.236953
36305		9.596877	0.443002	-1.948467	0.008685	-0.008910	-0.035213	-0.773682	-0.324951	-0.135498	0.586711	0.316689	-0.706690	0.236785
36306		9.603881	0.431155	-1.941821	0.010604	-0.013315	-0.036692	-0.765137	-0.320801	-0.133545	0.586644	0.316811	-0.706754	0.236598
36307		9.664943	0.397669	-1.902587	0.020635	-0.014953	-0.040103	-0.761963	-0.321289	-0.127686	0.586553	0.316983	-0.706808	0.236432
36308		9.668199	0.337494	-1.889445	0.037466	-0.011412	-0.033800	-0.764893	-0.329346	-0.144775	0.586412	0.317203	-0.706839	0.236394
36309		9.660841	0.344804	-1.903509	0.045851	-0.004863	-0.033679	-0.761719	-0.327148	-0.131592	0.586304	0.317576	-0.706698	0.236581
36310		9.627038	0.360772	-1.900122	0.040579	-0.004939	-0.030492	-0.771729	-0.329102	-0.142334	0.586182	0.317861	-0.706640	0.236675
36311		9.632588	0.365104	-1.955179	0.031217	0.000686	-0.031546	-0.768066	-0.335205	-0.129395	0.586142	0.318088	-0.706545	0.236753
36312		9.652151	0.363023	-1.984309	0.020897	0.005356	-0.025817	-0.758789	-0.334473	-0.135254	0.586104	0.318292	-0.706463	0.236818
36313		9.638432	0.372406	-2.008239	0.020429	0.010090	-0.021083	-0.768799	-0.331055	-0.133545	0.586097	0.318503	-0.706320	0.236977
36314		9.645592	0.371463	-1.994126	0.019922	0.011236	-0.014677	-0.764893	-0.328857	-0.138428	0.586094	0.318568	-0.706259	0.237078
36315		9.642715	0.429083	-1.976596	0.004462	0.010563	-0.006552	-0.766357	-0.334717	-0.140625	0.586127	0.318511	-0.706235	0.237148
36316		9.623384	0.435726	-1.945353	-0.013233	0.011516	-0.001617	-0.769531	-0.332764	-0.130127	0.586192	0.318413	-0.706206	0.237203
36317		9.622965	0.456254	-1.904399	-0.040019	0.004617	-0.002729	-0.765137	-0.326416	-0.131592	0.586274	0.318142	-0.706332	0.236988
36318		9.667752	0.471541	-1.941697	-0.048944	0.004817	-0.003359	-0.771240	-0.328125	-0.132568	0.586399	0.317773	-0.706497	0.236683
36319		9.643756	0.440257	-1.935303	-0.053882	0.008192	-0.000675	-0.763428	-0.330811	-0.130615	0.586549	0.317357	-0.706664	0.236370
36320		9.672311	0.410154	-1.923057	-0.063991	0.007228	0.001797	-0.769287	-0.331543	-0.134033	0.586701	0.316954	-0.706823	0.236059
36321		9.608052	0.394087	-1.924235	-0.062275	0.013044	-0.000678	-0.768799	-0.323242	-0.138428	0.586892	0.316554	-0.706942	0.235763
36322		9.597184	0.365336	-1.923311	-0.058663	0.013776	0.000516	-0.772217	-0.329346	-0.135254	0.587103	0.316066	-0.707093	0.235439
36323		9.648342	0.396370	-1.907879	-0.067589	0.001830	0.005009	-0.759033	-0.329590	-0.143311	0.587236	0.315595	-0.707312	0.235084
36324		9.665058	0.448375	-1.919693	-0.073452	0.009527	0.005069	-0.772949	-0.325684	-0.133545	0.587438	0.315168	-0.707423	0.234816
36325		9.640313	0.425286	-1.944418	-0.073480	0.008812	0.010266	-0.767578	-0.326416	-0.133789	0.587619	0.314576	-0.707665	0.234427
36326		9.620429	0.322384	-1.958403	-0.074961	0.007769	0.012217	-0.769043	-0.331787	-0.145508	0.587788	0.314014	-0.707892	0.234072
36327		9.648323	0.309609	-1.906705	-0.063024	0.008584	0.011675	-0.767090	-0.328613	-0.143066	0.587941	0.313598	-0.708009	0.233891
36328		9.612136	0.382788	-1.848188	-0.078663	0.011237	0.014542	-0.759521	-0.324219	-0.139404	0.588144	0.313056	-0.708174	0.233608
36329		9.642128	0.441390	-1.829443	-0.110990	0.011838	0.014809	-0.766113	-0.327637	-0.145996	0.588432	0.312333	-0.708417	0.233113
36330		9.650817	0.401778	-1.894178	-0.132319	0.005446	0.016940	-0.771484	-0.321533	-0.138672	0.588738	0.311536	-0.708707	0.232525
36331		9.641321	0.340155	-1.938071	-0.125573	0.010454	0.012851	-0.763916	-0.326172	-0.137451	0.589061	0.310672	-0.709037	0.231854
36332		9.653458	0.263835	-1.877241	-0.112254	0.013646	0.010339	-0.771484	-0.329346	-0.141602	0.589354	0.309988	-0.709263	0.231334
36333		9.641764	0.244716	-1.907905	-0.092329	0.015760	0.004226	-0.766357	-0.321289	-0.146240	0.589620	0.309451	-0.709409	0.230927
36334		9.617780	0.331930	-1.885521	-0.085343	0.014187	-0.000645	-0.763184	-0.315918	-0.143311	0.589891	0.308915	-0.709555	0.230502
36335		9.658195	0.433308	-1.895446	-0.080039	0.007508	-0.008227	-0.765381	-0.321777	-0.145020	0.590128	0.308404	-0.709743	0.230001
36336		9.627173	0.398676	-1.973288	-0.059716	0.008164	-0.013146	-0.764893	-0.322266	-0.146484	0.590314	0.308095	-0.709835	0.229655
36337		9.638142	0.333743	-1.945403	-0.041628	0.005834	-0.016988	-0.760254	-0.309570	-0.139893	0.590447	0.307915	-0.709883	0.229405
36338		9.642829	0.380030	-1.882791	-0.035937	0.010178	-0.011866	-0.769775	-0.321289	-0.140381	0.590596	0.307567	-0.710012	0.229087
36339		9.616940	0.491279	-1.887683	-0.045032	0.012005	-0.009960	-0.766846	-0.317139	-0.153809	0.590751	0.307271	-0.710102	0.228808
36340		9.632457	0.451255	-1.940805	-0.052874	0.007203	-0.012952	-0.770508	-0.324219	-0.140625	0.590938	0.306948	-0.710189	0.228490
36341		9.635658	0.403210	-1.921912	-0.055486	-0.002881	-0.009770	-0.766357	-0.323730	-0.145752	0.591022	0.306665	-0.710354	0.228138
36342		9.630959	0.372306	-1.912488	-0.058055	-0.009356	-0.008205	-0.770020	-0.322266	-0.144287	0.591081	0.306398	-0.710529	0.227799
36343		9.658121	0.356979	-1.899224	-0.054372	-0.006065	-0.006039	-0.767822	-0.320557	-0.149902	0.591147	0.306093	-0.710713	0.227465
36344		9.655767	0.280004	-1.939215	-0.032911	-0.010605	-0.016032	-0.766602	-0.324951	-0.145508	0.591163	0.305962	-0.710834	0.227219
36345		9.645656	0.225353	-1.952183	-0.007213	-0.011081	-0.024174	-0.762207	-0.319092	-0.152100	0.591107	0.306064	-0.710871	0.227112
36346		9.610950	0.251773	-1.979954	0.027440	-0.003429	-0.037621	-0.765625	-0.317139	-0.143311	0.591059	0.306359	-0.710770	0.227156
36347		9.621920	0.287551	-1.978206	0.058264	-0.003159	-0.043897	-0.772949	-0.329346	-0.133301	0.590935	0.306777	-0.710654	0.227275
36348		9.652756	0.313969	-2.040941	0.076431	0.007489	-0.043918	-0.762207	-0.323242	-0.141113	0.590785	0.307362	-0.710434	0.227563
36349		9.627861	0.406962	-1.984678	0.076400	0.003855	-0.042248	-0.768066	-0.318115	-0.150146	0.590637	0.307927	-0.710214	0.227871
36350		9.671544	0.447849	-1.947142	0.063072	-0.000215	-0.034415	-0.769287	-0.320801	-0.140137	0.590518	0.308297	-0.710082	0.228090
36351		9.652412	0.342378	-1.898451	0.049221	-0.001417	-0.027947	-0.770752	-0.331299	-0.144531	0.590392	0.308570	-0.710024	0.228229
36352		9.675448	0.288476	-1.910368	0.042577	-0.003971	-0.022732	-0.768799	-0.323486	-0.144531	0.590244	0.308916	-0.709922	0.228459
36353		9.661569	0.302066	-1.899854	0.044351	0.004443	-0.024164	-0.763184	-0.328125	-0.143311	0.590163	0.309170	-0.709819	0.228647
36354		9.648753	0.293160	-1.963894	0.052037	0.008787	-0.027357	-0.766357	-0.329102	-0.144043	0.590078	0.309558	-0.709625	0.228940
36355		9.629892	0.274123	-2.044923	0.075533	0.002415	-0.037773	-0.769531	-0.323242	-0.148682	0.589916	0.310128	-0.709395	0.229300
36356		9.686757	0.212970	-2.024873	0.120085	0.002680	-0.037465	-0.767578	-0.325195	-0.135254	0.589667	0.310822	-0.709113	0.229872
36357		9.656412	0.283438	-1.955191	0.145099	0.004880	-0.036494	-0.775146	-0.325928	-0.140381	0.589334	0.311633	-0.708809	0.230565
36358		9.615558	0.408544	-1.916496	0.162793	0.011533	-0.042090	-0.770264	-0.325195	-0.141846	0.589020	0.312522	-0.708424	0.231345
36359		9.656606	0.490323	-1.865531	0.162394	0.017572	-0.047394	-0.772461	-0.333984	-0.142578	0.588756	0.313439	-0.707981	0.232131
36360		9.672558	0.453877	-1.882326	0.136752	0.022334	-0.046092	-0.770020	-0.325684	-0.135742	0.588570	0.314305	-0.707515	0.232855
36361		9.604904	0.479940	-1.973571	0.124167	0.021989	-0.045212	-0.766602	-0.333008	-0.140137	0.588420	0.314989	-0.707154	0.233404
36362		9.609230	0.507565	-2.054095	0.121908	0.006985	-0.050285	-0.772705	-0.324707	-0.138184	0.588188	0.315832	-0.706782	0.233974
36363		9.575243	0.517823	-2.086414	0.136375	-0.006916	-0.050025	-0.770996	-0.332275	-0.132324	0.587858	0.316618	-0.706539	0.234473
36364		9.647520	0.608786	-2.005421	0.137259	-0.017461	-0.046539	-0.766602	-0.332520	-0.132568	0.587428	0.317499	-0.706320	0.235020
36365		9.637435	0.658481	-1.907249	0.108796	-0.013496	-0.040596	-0.775391	-0.334961	-0.140869	0.587086	0.318217	-0.706135	0.235458
36366		9.627723	0.603356	-1.919646	0.083095	-0.010593	-0.045657	-0.756836	-0.333984	-0.134277	0.586859	0.318817	-0.705960	0.235739
36367		9.668744	0.484282	-1.957753	0.070711	-0.009017	-0.048984	-0.759521	-0.338623	-0.141602	0.586661	0.319446	-0.705759	0.235980
36368		9.630388	0.467626	-1.944758	0.060666	-0.013972	-0.047388	-0.773926	-0.337402	-0.131592	0.586466	0.320071	-0.705562	0.236211
36369		9.618405	0.452936	-1.879161	0.064199	-0.029456	-0.045593	-0.761719	-0.340820	-0.138672	0.586159	0.320619	-0.705534	0.236311
36370		9.663562	0.444144	-1.931413	0.068937	-0.040220	-0.048501	-0.763916	-0.338135	-0.133301	0.585784	0.321342	-0.705450	0.236508
36371		9.627166	0.486172	-1.859000	0.049755	-0.036836	-0.043392	-0.762451	-0.336426	-0.133057	0.585470	0.321873	-0.705449	0.236568
36372		9.658812	0.414983	-1.798789	0.029542	-0.035292	-0.040254	-0.769287	-0.328613	-0.130615	0.585219	0.322264	-0.705496	0.236514
36373		9.669341	0.270942	-1.811213	0.012860	-0.029036	-0.035127	-0.765869	-0.332520	-0.127686	0.585061	0.322381	-0.705650	0.236286
36374		9.642249	0.254168	-1.910908	0.034089	-0.047926	-0.039081	-0.762451	-0.342041	-0.127197	0.584726	0.322728	-0.705813	0.236156
36375		9.638067	0.270672	-2.018243	0.044571	-0.058139	-0.037743	-0.763672	-0.340820	-0.134521	0.584276	0.323275	-0.705930	0.236171
36376		9.590836	0.346159	-2.020715	0.048456	-0.059442	-0.041412	-0.763184	-0.342529	-0.130615	0.583836	0.323849	-0.706022	0.236199
36377		9.620343	0.373149	-1.991392	0.041508	-0.055277	-0.035652	-0.761230	-0.343750	-0.130859	0.583418	0.324363	-0.706122	0.236228
36378		9.606762	0.431555	-2.032922	0.050841	-0.051685	-0.043064	-0.761475	-0.343994	-0.121338	0.583010	0.324983	-0.706148	0.236308
36379		9.558178	0.516142	-2.066200	0.056324	-0.053333	-0.048500	-0.761963	-0.339111	-0.124023	0.582572	0.325642	-0.706191	0.236348
36380		9.567422	0.533653	-2.113148	0.074907	-0.049360	-0.059171	-0.769043	-0.343262	-0.128906	0.582150	0.326378	-0.706177	0.236416
