// Start Time: Unknown
// Update Rate: 60.0Hz
// Filter Profile: human (46.1)
// Firmware Version: 4.6.0
PacketCounter	SampleTimeFine	Acc_X	Acc_Y	Acc_Z	Gyr_X	Gyr_Y	Gyr_Z	Mag_X	Mag_Y	Mag_Z	Quat_q0	Quat_q1	Quat_q2	Quat_q3
62092		0.181875	9.814000	0.305958	0.001232	0.007471	-0.026191	-0.151367	-0.942627	-0.519775	0.435565	0.411747	-0.561143	-0.570846
62093		0.166185	9.856289	0.238521	0.001224	0.011615	-0.024858	-0.147949	-0.925293	-0.513184	0.435497	0.411923	-0.561022	-0.570891
62094		0.189471	9.811882	0.247657	-0.003063	0.007601	-0.020595	-0.151367	-0.939453	-0.513916	0.435445	0.412053	-0.560897	-0.570959
62095		0.168181	9.738618	0.297528	-0.000431	0.003354	-0.020406	-0.152832	-0.939209	-0.520508	0.435365	0.412163	-0.560813	-0.571023
62096		0.146014	9.765149	0.293153	0.023863	0.001136	-0.016030	-0.148926	-0.927246	-0.517334	0.435211	0.412331	-0.560868	-0.570966
62097		0.196059	9.867280	0.278096	0.013411	0.001195	-0.013849	-0.150391	-0.936768	-0.506836	0.435104	0.412451	-0.560880	-0.570949
62098		0.190446	9.857721	0.287880	-0.004451	0.010467	-0.012467	-0.154053	-0.934082	-0.509277	0.435108	0.412544	-0.560780	-0.570977
62099		0.151743	9.807369	0.290934	0.007964	0.006853	-0.017492	-0.155273	-0.936523	-0.516846	0.435029	0.412687	-0.560735	-0.570977
62100		0.173640	9.812343	0.240932	0.005669	0.005297	-0.011064	-0.151611	-0.932861	-0.515625	0.434980	0.412786	-0.560708	-0.570970
62101		0.213301	9.860337	0.258245	-0.014376	0.003793	-0.010011	-0.146484	-0.937256	-0.513672	0.434997	0.412801	-0.560596	-0.571056
62102		0.163895	9.852023	0.197338	-0.023047	0.002523	-0.010768	-0.159180	-0.938232	-0.514404	0.435036	0.412781	-0.560449	-0.571185
62103		0.155729	9.770289	0.244626	0.002112	-0.001281	-0.009693	-0.145264	-0.933350	-0.518555	0.434971	0.412833	-0.560444	-0.571202
62104		0.087663	9.720884	0.319878	0.008151	0.004240	-0.009125	-0.154785	-0.939453	-0.512695	0.434913	0.412933	-0.560452	-0.571167
62105		0.096644	9.749817	0.287342	0.004754	-0.000445	-0.006331	-0.157715	-0.933594	-0.517822	0.434855	0.412987	-0.560466	-0.571157
62106		0.186841	9.886811	0.258230	0.000415	-0.006355	-0.005744	-0.150146	-0.931885	-0.515137	0.434784	0.412998	-0.560481	-0.571189
62107		0.239893	9.922940	0.227804	-0.009900	-0.000271	-0.000807	-0.149902	-0.934814	-0.513428	0.434801	0.412977	-0.560445	-0.571227
62108		0.171154	9.797821	0.297556	-0.019078	0.006123	-0.000002	-0.145996	-0.937988	-0.512207	0.434884	0.412949	-0.560353	-0.571273
62109		0.128116	9.728043	0.323672	-0.003550	0.003965	-0.000560	-0.150146	-0.934082	-0.516602	0.434902	0.412970	-0.560342	-0.571255
62110		0.155625	9.771321	0.310775	0.006392	0.001037	0.000753	-0.153320	-0.942383	-0.511475	0.434881	0.413003	-0.560388	-0.571202
62111		0.238498	9.843811	0.178401	0.005005	0.000142	-0.000722	-0.148193	-0.937500	-0.523193	0.434848	0.413034	-0.560434	-0.571161
62112		0.247295	9.904924	0.235195	0.022006	-0.002049	-0.003895	-0.150146	-0.938721	-0.509766	0.434737	0.413132	-0.560557	-0.571053
62113		0.164533	9.829134	0.319208	0.022473	-0.006516	-0.005963	-0.153320	-0.937012	-0.512207	0.434594	0.413217	-0.560706	-0.570954
62114		0.143761	9.771445	0.380393	-0.000359	-0.006065	0.001747	-0.149414	-0.939209	-0.505127	0.434572	0.413175	-0.560769	-0.570939
62115		0.142608	9.754753	0.304404	-0.013201	0.004277	0.004241	-0.150879	-0.929688	-0.512207	0.434656	0.413133	-0.560734	-0.570939
62116		0.197262	9.849807	0.205488	0.004670	-0.004979	0.002862	-0.155273	-0.936279	-0.515137	0.434640	0.413106	-0.560792	-0.570915
62117		0.251704	9.911163	0.175386	0.016437	-0.017502	-0.001428	-0.155518	-0.934814	-0.512451	0.434495	0.413075	-0.560962	-0.570881
62118		0.229468	9.831809	0.276602	0.015906	-0.010776	-0.001707	-0.153320	-0.931396	-0.513672	0.434383	0.413075	-0.561114	-0.570817
62119		0.114207	9.806357	0.377602	0.004426	-0.000482	0.000424	-0.148438	-0.939697	-0.514648	0.434378	0.413072	-0.561168	-0.570770
62120		0.156112	9.822138	0.303457	-0.001908	-0.003396	-0.006254	-0.148438	-0.932617	-0.511963	0.434342	0.413082	-0.561178	-0.570780
62121		0.304644	9.910184	0.166084	0.012733	-0.004888	-0.005348	-0.151367	-0.934326	-0.515137	0.434262	0.413133	-0.561245	-0.570737
62122		0.386020	9.918719	0.218210	0.019301	-0.011169	-0.007675	-0.151611	-0.935547	-0.515625	0.434122	0.413170	-0.561379	-0.570686
62123		0.306304	9.852604	0.293723	0.002697	0.004425	-0.007673	-0.156006	-0.937012	-0.511230	0.434121	0.413208	-0.561391	-0.570647
62124		0.158081	9.807973	0.347626	0.007115	0.004323	-0.015524	-0.155762	-0.937500	-0.509033	0.434069	0.413275	-0.561427	-0.570602
62125		0.143157	9.819971	0.394862	-0.000038	0.015441	-0.017157	-0.151611	-0.930664	-0.514648	0.434085	0.413381	-0.561381	-0.570559
62126		0.196697	9.845471	0.232422	-0.002090	0.014851	-0.013392	-0.150391	-0.937988	-0.512451	0.434140	0.413462	-0.561277	-0.570561
62127		0.241558	9.800047	0.245950	0.013694	0.003134	-0.014680	-0.143311	-0.934814	-0.511230	0.434064	0.413566	-0.561321	-0.570500
62128		0.216739	9.783250	0.323240	0.011416	0.002897	-0.014685	-0.151855	-0.937012	-0.512939	0.433999	0.413710	-0.561313	-0.570454
62129		0.168465	9.791593	0.335157	0.003300	0.011462	-0.012093	-0.154053	-0.942139	-0.517578	0.434019	0.413779	-0.561288	-0.570413
62130		0.210768	9.883016	0.269353	0.002320	0.002885	-0.012868	-0.158936	-0.935547	-0.513672	0.433994	0.413769	-0.561307	-0.570420
62131		0.257731	9.859224	0.243173	-0.005526	0.002812	-0.009165	-0.151123	-0.938232	-0.520508	0.434027	0.413690	-0.561305	-0.570454
62132		0.266959	9.796923	0.189874	0.003528	0.006027	-0.011489	-0.158447	-0.931641	-0.510498	0.434025	0.413691	-0.561291	-0.570469
62133		0.254437	9.796947	0.266634	0.014306	0.004717	-0.013989	-0.151855	-0.931641	-0.514160	0.433986	0.413738	-0.561355	-0.570401
62134		0.284419	9.866769	0.319084	0.002184	0.012480	-0.014397	-0.151611	-0.937012	-0.513428	0.434019	0.413806	-0.561289	-0.570392
62135		0.235617	9.821052	0.282314	0.002788	0.014052	-0.013708	-0.153809	-0.938477	-0.518066	0.434056	0.413874	-0.561254	-0.570348
62136		0.233695	9.846342	0.284271	0.008586	0.008452	-0.016812	-0.162842	-0.933594	-0.510254	0.434033	0.413892	-0.561271	-0.570337
62137		0.262795	9.833401	0.240792	0.005858	0.014007	-0.021194	-0.161621	-0.927979	-0.511475	0.434053	0.413926	-0.561284	-0.570284
62138		0.189905	9.833173	0.257434	0.012990	0.017594	-0.020167	-0.154297	-0.937988	-0.518066	0.434080	0.413998	-0.561283	-0.570212
62139		0.184309	9.874088	0.271658	0.011523	0.012543	-0.020717	-0.143555	-0.928955	-0.510742	0.434045	0.414037	-0.561296	-0.570198
62140		0.193524	9.887425	0.226150	-0.003685	0.019781	-0.023766	-0.153564	-0.930420	-0.514893	0.434087	0.414267	-0.561071	-0.570220
62141		0.156117	9.850099	0.263142	0.000116	0.021888	-0.022700	-0.150391	-0.935791	-0.514160	0.434147	0.414356	-0.560948	-0.570231
62142		0.114876	9.865476	0.287015	-0.017791	0.019597	-0.021244	-0.153809	-0.934326	-0.516113	0.434246	0.414396	-0.560766	-0.570305
62143		0.108189	9.855759	0.301960	-0.035623	0.026549	-0.017552	-0.150146	-0.939941	-0.508545	0.434464	0.414332	-0.560502	-0.570445
62144		0.136558	9.905113	0.240002	-0.024793	0.032626	-0.021472	-0.149658	-0.935791	-0.507324	0.434643	0.414481	-0.560275	-0.570424
62145		0.167255	9.910306	0.113901	0.014883	0.013523	-0.030848	-0.152832	-0.933838	-0.520020	0.434558	0.414751	-0.560251	-0.570315
62146		0.248017	9.866719	0.180266	0.022146	0.000551	-0.035125	-0.150635	-0.935791	-0.510010	0.434355	0.414815	-0.560293	-0.570383
62147		0.254232	9.816603	0.319629	0.005845	0.009740	-0.038659	-0.145020	-0.940430	-0.513672	0.434243	0.415017	-0.560229	-0.570383
62148		0.170158	9.808816	0.328071	-0.004606	0.010682	-0.034662	-0.151855	-0.931396	-0.514648	0.434160	0.415176	-0.560105	-0.570452
62149		0.255675	9.942978	0.258436	-0.028528	0.002807	-0.033796	-0.145996	-0.934814	-0.511719	0.434172	0.415104	-0.559901	-0.570697
62150		0.355578	9.881709	0.260519	-0.022558	0.006094	-0.028623	-0.149658	-0.930420	-0.509766	0.434187	0.415158	-0.559712	-0.570830
62151		0.335397	9.691922	0.289153	-0.024226	0.015327	-0.019259	-0.158203	-0.932617	-0.520020	0.434328	0.415174	-0.559535	-0.570885
62152		0.268909	9.518455	0.256162	-0.020243	0.020682	-0.023199	-0.151123	-0.934326	-0.517334	0.434456	0.414991	-0.559430	-0.571023
62153		0.250883	9.646681	0.329785	0.009301	0.024307	-0.029079	-0.148926	-0.935059	-0.516846	0.434455	0.415096	-0.559387	-0.570991
62154		0.239356	9.819548	0.381931	0.021393	0.019789	-0.029152	-0.150146	-0.931396	-0.521240	0.434387	0.415251	-0.559405	-0.570912
62155		0.252466	9.977353	0.263540	0.018776	0.013464	-0.027415	-0.147461	-0.927002	-0.516602	0.434308	0.415259	-0.559425	-0.570947
62156		0.228715	9.949718	0.208864	0.011777	0.003451	-0.027444	-0.153320	-0.939941	-0.513672	0.434237	0.415300	-0.559395	-0.571001
62157		0.082615	9.825396	0.274299	-0.016549	0.011252	-0.019789	-0.149902	-0.936523	-0.510498	0.434323	0.415203	-0.559386	-0.571014
62158		-0.055041	9.770548	0.328594	-0.039285	0.018926	-0.015832	-0.145264	-0.930908	-0.512695	0.434558	0.415152	-0.559193	-0.571061
62159		-0.033936	9.863189	0.265043	-0.045689	0.009550	-0.017014	-0.144043	-0.926758	-0.512939	0.434759	0.415078	-0.558909	-0.571241
62160		0.053680	9.884864	0.218513	-0.034162	-0.003486	-0.024626	-0.150635	-0.933350	-0.519287	0.434833	0.415043	-0.558661	-0.571453
62161		0.077734	9.865953	0.235501	-0.025712	-0.008210	-0.024347	-0.143311	-0.933594	-0.522705	0.434812	0.414812	-0.558597	-0.571698
62162		0.027169	9.764074	0.314955	-0.025548	-0.024253	-0.019567	-0.143066	-0.932617	-0.523682	0.434699	0.414545	-0.558532	-0.572042
62163		0.039790	9.706347	0.373011	-0.025975	-0.026614	-0.008210	-0.152344	-0.936523	-0.519287	0.434628	0.414208	-0.558502	-0.572369
62164		0.127719	9.844560	0.348708	-0.018884	-0.024867	-0.010839	-0.154785	-0.942627	-0.511475	0.434563	0.413877	-0.558616	-0.572547
62165		0.288214	9.914778	0.242686	-0.017272	-0.031280	-0.012447	-0.152588	-0.924316	-0.520996	0.434487	0.413659	-0.558811	-0.572571
62166		0.323624	9.790397	0.283210	0.008711	-0.018983	-0.009682	-0.146973	-0.932861	-0.528809	0.434390	0.413412	-0.558954	-0.572683
62167		0.346788	9.781864	0.424249	0.018386	-0.025636	-0.011206	-0.152100	-0.930420	-0.520508	0.434118	0.413117	-0.559168	-0.572892
62168		0.353837	9.898697	0.372609	-0.035203	-0.024004	-0.014768	-0.152588	-0.936523	-0.523682	0.434110	0.412738	-0.559136	-0.573204
62169		0.328357	9.810724	0.333277	-0.068193	-0.005760	-0.015036	-0.145264	-0.937744	-0.520264	0.434254	0.412273	-0.558931	-0.573629
62170		0.202501	9.642903	0.330723	-0.023350	-0.009242	-0.020133	-0.146729	-0.920410	-0.520508	0.434218	0.412184	-0.558856	-0.573794
62171		0.188763	9.588659	0.357740	0.039353	-0.017726	-0.025255	-0.155029	-0.934326	-0.524658	0.433979	0.412269	-0.558990	-0.573783
62172		0.260429	9.713892	0.367651	0.046430	-0.017829	-0.031577	-0.144531	-0.930908	-0.513672	0.433611	0.412198	-0.559337	-0.573775
62173		0.347288	9.879100	0.399216	0.039438	-0.003963	-0.048337	-0.146240	-0.930176	-0.521729	0.433337	0.412625	-0.559367	-0.573645
62174		0.344527	10.006638	0.471536	0.034959	-0.001224	-0.051117	-0.148926	-0.933105	-0.514893	0.433008	0.412826	-0.559402	-0.573714
62175		0.338248	9.991523	0.456890	-0.019757	0.016071	-0.059791	-0.144531	-0.940918	-0.515137	0.432965	0.413043	-0.559121	-0.573865
62176		0.198358	9.812679	0.399812	-0.049136	0.017874	-0.061250	-0.147705	-0.924561	-0.520752	0.432980	0.413225	-0.558702	-0.574130
62177		0.116010	9.671941	0.375273	-0.020221	0.003986	-0.058570	-0.154785	-0.927246	-0.520996	0.432886	0.413249	-0.558427	-0.574451
62178		0.124465	9.688768	0.234651	-0.007896	-0.012866	-0.062685	-0.150879	-0.927246	-0.517334	0.432661	0.413149	-0.558362	-0.574756
62179		0.131302	9.723243	0.377337	-0.027387	-0.009802	-0.061479	-0.148193	-0.939697	-0.514160	0.432545	0.413125	-0.558150	-0.575066
62180		-0.024884	9.762397	0.416526	-0.054485	-0.022971	-0.051817	-0.149902	-0.930664	-0.521973	0.432479	0.413024	-0.557936	-0.575397
62181		-0.043230	9.791987	0.388986	-0.058584	-0.068523	-0.049732	-0.152100	-0.929199	-0.523193	0.432194	0.412480	-0.557856	-0.576078
62182		0.083387	9.621730	0.320372	-0.050114	-0.057478	-0.034307	-0.142822	-0.939941	-0.520264	0.432008	0.411910	-0.557843	-0.576637
62183		0.095433	9.491012	0.208499	-0.020635	-0.057761	-0.023174	-0.142578	-0.932129	-0.522949	0.431736	0.411636	-0.557966	-0.576918
62184		0.081330	9.745075	0.361869	0.011195	-0.066527	-0.022618	-0.141357	-0.929688	-0.523682	0.431320	0.411373	-0.558228	-0.577163
62185		0.075860	10.037526	0.409425	-0.015518	-0.057954	-0.017862	-0.155518	-0.932861	-0.522949	0.431055	0.411031	-0.558316	-0.577519
62186		0.119521	10.172405	0.493912	-0.046881	-0.045328	-0.036193	-0.146729	-0.930176	-0.525879	0.430894	0.410548	-0.558310	-0.577989
62187		0.109540	10.058444	0.456235	-0.050323	-0.063894	-0.058836	-0.147949	-0.928955	-0.529053	0.430512	0.410145	-0.558172	-0.578693
62188		0.204766	10.002162	0.502831	-0.029732	-0.101053	-0.071292	-0.150146	-0.920898	-0.528076	0.429806	0.409618	-0.558241	-0.579523
62189		0.181138	9.962842	0.344885	-0.045357	-0.092137	-0.079967	-0.153809	-0.924316	-0.524170	0.429208	0.409106	-0.558141	-0.580424
62190		0.005241	9.901332	0.430410	-0.020890	-0.070397	-0.093053	-0.143066	-0.934570	-0.534180	0.428612	0.408909	-0.558081	-0.581060
62191		-0.061075	9.948403	0.462233	0.003059	-0.063951	-0.118392	-0.155762	-0.933838	-0.520264	0.427643	0.408870	-0.558030	-0.581850
62192		0.032554	9.941537	0.384434	0.014480	-0.100109	-0.157328	-0.145996	-0.937012	-0.524170	0.426505	0.409036	-0.558087	-0.582514
62193		0.172856	10.077593	0.530808	0.074766	-0.116378	-0.172826	-0.143066	-0.936279	-0.524170	0.424909	0.409415	-0.558393	-0.583120
62194		0.126539	10.189377	0.520498	0.007864	-0.085409	-0.170663	-0.149902	-0.935303	-0.517578	0.423679	0.409677	-0.558252	-0.583966
62195		0.039574	10.152941	0.334435	-0.099849	-0.084868	-0.173031	-0.148193	-0.937012	-0.519775	0.422924	0.409611	-0.557612	-0.585168
62196		-0.036895	9.937204	0.363553	-0.133854	-0.116617	-0.166329	-0.143799	-0.928467	-0.525391	0.422143	0.409219	-0.556957	-0.586629
62197		-0.136539	9.534848	0.309929	-0.083424	-0.116476	-0.167931	-0.134766	-0.935303	-0.529541	0.421146	0.408946	-0.556487	-0.587981
62198		-0.167139	9.676427	0.210100	-0.065173	-0.156156	-0.188907	-0.140137	-0.931885	-0.531738	0.419705	0.408681	-0.556156	-0.589507
62199		-0.211373	9.922479	0.285485	-0.028507	-0.130528	-0.184246	-0.141113	-0.932129	-0.528076	0.418285	0.408521	-0.555985	-0.590787
62200		-0.097651	10.041643	0.315067	-0.004145	-0.149968	-0.181893	-0.134521	-0.924072	-0.526855	0.416762	0.408408	-0.556006	-0.591920
62201		-0.187566	10.057586	0.573329	-0.107207	-0.111606	-0.190537	-0.137451	-0.938232	-0.525879	0.415758	0.408248	-0.555249	-0.593445
62202		-0.349921	9.918865	0.242814	-0.094794	-0.186706	-0.208332	-0.136230	-0.929688	-0.536865	0.414265	0.407865	-0.554861	-0.595114
62203		-0.375576	9.664568	0.546410	-0.007335	-0.190915	-0.197631	-0.130371	-0.932373	-0.532471	0.412378	0.407453	-0.554974	-0.596599
62204		-0.457893	9.813615	0.493051	0.031973	-0.152724	-0.187119	-0.125732	-0.931885	-0.532471	0.410629	0.407487	-0.555124	-0.597641
62205		-0.509610	10.649250	0.674392	0.013823	-0.092571	-0.216645	-0.129150	-0.942139	-0.526123	0.409054	0.407917	-0.554843	-0.598688
62206		-0.405418	11.123340	0.620037	-0.123918	-0.121250	-0.262606	-0.127441	-0.934814	-0.530273	0.407663	0.408046	-0.553870	-0.600447
62207		-0.231024	10.646516	0.446628	-0.225396	-0.115522	-0.300156	-0.128174	-0.935547	-0.529541	0.406432	0.407937	-0.552230	-0.602862
62208		-0.302384	10.058251	0.377505	-0.115404	-0.119854	-0.323788	-0.125244	-0.930664	-0.528320	0.404754	0.408339	-0.551090	-0.604759
62209		-0.436080	10.055069	0.603314	-0.040551	-0.164301	-0.347169	-0.121094	-0.929688	-0.528809	0.402552	0.408921	-0.550358	-0.606500
62210		-0.358583	10.090982	0.760567	-0.074319	-0.140969	-0.375733	-0.116455	-0.929932	-0.524658	0.400417	0.409625	-0.549267	-0.608425
62211		-0.544686	9.871913	0.608296	-0.148141	-0.134271	-0.384773	-0.108643	-0.936035	-0.528809	0.398585	0.410266	-0.547710	-0.610595
62212		-0.489090	9.524278	0.748197	-0.123490	-0.155340	-0.399262	-0.105957	-0.929932	-0.523682	0.396420	0.410932	-0.546318	-0.612799
62213		-0.469043	9.459251	0.700412	-0.115173	-0.138995	-0.393194	-0.102051	-0.932129	-0.532959	0.394424	0.411762	-0.544891	-0.614797
62214		-0.550651	9.677996	0.315641	-0.133961	-0.097771	-0.354234	-0.101318	-0.931641	-0.533691	0.392745	0.412373	-0.543426	-0.616756
62215		-0.586789	9.730987	0.476996	-0.073142	-0.121408	-0.345275	-0.092285	-0.937256	-0.529053	0.390799	0.412985	-0.542410	-0.618475
62216		-0.687940	9.530549	0.722963	-0.052194	-0.075993	-0.357313	-0.087402	-0.937500	-0.534912	0.388963	0.414126	-0.541270	-0.619867
62217		-0.938184	9.349045	1.007689	-0.024913	-0.019820	-0.386333	-0.082031	-0.940430	-0.527832	0.387059	0.415664	-0.540002	-0.621134
62218		-1.278993	9.159823	0.438113	-0.029460	-0.047761	-0.382521	-0.082275	-0.932373	-0.526367	0.385122	0.417132	-0.538800	-0.622396
62219		-1.113874	8.637830	0.420000	0.089052	-0.098814	-0.321358	-0.077881	-0.931641	-0.524170	0.382858	0.418344	-0.538602	-0.623151
62220		-0.987547	8.973017	0.681655	0.153891	-0.133878	-0.258595	-0.079102	-0.939453	-0.529541	0.380517	0.419288	-0.539051	-0.623561
62221		-1.012347	9.804943	0.801231	0.041263	-0.123508	-0.210465	-0.073242	-0.940674	-0.521729	0.378769	0.419561	-0.539104	-0.624395
62222		-1.245815	9.975753	0.734872	-0.097848	-0.117751	-0.160297	-0.069824	-0.944824	-0.527588	0.377847	0.419330	-0.538532	-0.625601
62223		-1.450608	9.217337	0.726488	-0.102947	-0.074904	-0.125011	-0.069336	-0.936768	-0.524414	0.377275	0.419115	-0.537912	-0.626624
62224		-1.429309	9.319196	0.867368	-0.010765	-0.041851	-0.100275	-0.079834	-0.943848	-0.526611	0.376683	0.419264	-0.537725	-0.627040
62225		-1.502081	9.711328	0.512971	-0.014035	-0.026319	-0.099730	-0.072021	-0.936279	-0.524414	0.376124	0.419372	-0.537545	-0.627457
62226		-1.567608	9.628579	0.863771	0.055640	-0.061364	-0.112683	-0.064697	-0.942871	-0.532227	0.375123	0.419642	-0.537721	-0.627726
62227		-1.630686	9.443131	1.046373	0.018606	-0.094880	-0.097456	-0.062744	-0.942383	-0.530029	0.374151	0.419545	-0.537841	-0.628267
62228		-1.718529	9.493028	0.762855	-0.036481	-0.080079	-0.040444	-0.064209	-0.936035	-0.524414	0.373745	0.419111	-0.537817	-0.628819
62229		-1.534440	9.533145	0.788547	-0.085764	-0.076614	0.032603	-0.067871	-0.937500	-0.534180	0.373919	0.418223	-0.537775	-0.629342
62230		-0.962408	9.819260	0.965766	-0.043881	-0.028528	0.072720	-0.077637	-0.942383	-0.530762	0.374346	0.417494	-0.537955	-0.629419
62231		-0.911912	9.863510	0.897728	-0.071018	0.049231	0.039154	-0.079102	-0.937988	-0.528076	0.375047	0.417232	-0.537655	-0.629432
62232		-1.275343	9.371232	0.587430	-0.054847	0.069527	-0.029586	-0.069824	-0.935547	-0.534180	0.375431	0.417441	-0.537133	-0.629510
62233		-1.523999	8.584243	0.479010	0.036970	0.058482	-0.025853	-0.074951	-0.942139	-0.531982	0.375459	0.417874	-0.537118	-0.629219
62234		-1.274397	9.073924	0.441222	0.099513	0.027043	0.041674	-0.073486	-0.939209	-0.533203	0.375484	0.418035	-0.537777	-0.628533
62235		-0.662648	10.234298	1.112411	0.022248	0.099672	0.079680	-0.073730	-0.944336	-0.527100	0.376294	0.418158	-0.537931	-0.627835
62236		-0.823759	10.846595	1.730844	-0.155326	0.134031	0.081371	-0.074219	-0.934814	-0.533691	0.377909	0.417923	-0.537049	-0.627777
62237		-1.176772	9.789895	0.657682	-0.259140	0.082500	0.052044	-0.075195	-0.941650	-0.536133	0.379484	0.417184	-0.535684	-0.628484
62238		-1.406553	8.689125	0.813908	-0.339324	0.088951	0.054078	-0.078613	-0.936523	-0.542480	0.381389	0.416238	-0.533879	-0.629493
62239		-1.108769	8.261134	0.536628	-0.165070	0.075298	0.127984	-0.072266	-0.927734	-0.546631	0.383005	0.415426	-0.533292	-0.629547
62240		-0.784657	9.013131	0.242317	0.182912	0.042739	0.178402	-0.074707	-0.930420	-0.542725	0.383527	0.415333	-0.534791	-0.628016
62241		-0.802289	10.538685	0.983234	0.416377	0.067997	0.124001	-0.082031	-0.940430	-0.536621	0.383071	0.416365	-0.537241	-0.625515
62242		-1.176516	10.695616	1.708738	0.254848	0.085249	0.018958	-0.074463	-0.936523	-0.538574	0.382707	0.417432	-0.538436	-0.623997
62243		-1.181887	9.962946	1.263742	0.067204	0.130864	-0.007522	-0.075684	-0.932861	-0.535889	0.383047	0.418241	-0.538401	-0.623277
62244		-1.236722	9.366312	0.787618	0.015280	0.133395	0.085954	-0.067871	-0.943115	-0.529053	0.384060	0.418464	-0.538420	-0.622487
62245		-1.039748	9.600553	0.122393	-0.044182	0.056352	0.148379	-0.082031	-0.935059	-0.531738	0.385299	0.417897	-0.538561	-0.621979
62246		-1.065200	9.749826	0.840731	0.160936	0.047753	0.140517	-0.075928	-0.942139	-0.528076	0.385713	0.417909	-0.539807	-0.620634
62247		-1.083073	9.872411	1.134396	0.190030	0.073721	0.090900	-0.079834	-0.942139	-0.541992	0.385904	0.418421	-0.540917	-0.619202
62248		-1.073419	10.000587	0.857025	0.120484	0.075536	0.056448	-0.082275	-0.943359	-0.520752	0.386123	0.418789	-0.541554	-0.618259
62249		-1.117920	9.668101	0.789928	0.071588	0.016690	0.077547	-0.089600	-0.941895	-0.527344	0.386403	0.418676	-0.542200	-0.617594
62250		-0.895919	9.559735	0.307260	-0.031399	-0.003931	0.117315	-0.079346	-0.943604	-0.528320	0.387124	0.417882	-0.542542	-0.617380
62251		-0.805914	9.603566	0.254734	0.027814	-0.015853	0.117285	-0.086182	-0.947754	-0.533936	0.387595	0.417271	-0.543188	-0.616929
62252		-0.949332	9.622892	0.696022	0.121656	0.042549	0.099862	-0.079102	-0.938965	-0.530518	0.387904	0.417310	-0.544081	-0.615921
62253		-1.036852	9.724284	0.864081	0.121137	0.040733	0.075268	-0.085205	-0.940186	-0.523438	0.388064	0.417456	-0.544875	-0.615019
62254		-0.901465	10.071726	0.519941	0.099245	0.046390	0.055793	-0.092773	-0.943115	-0.529541	0.388240	0.417653	-0.545482	-0.614235
62255		-0.816215	10.329485	0.395890	0.064644	0.085123	0.054227	-0.088867	-0.941406	-0.524414	0.388684	0.417883	-0.545805	-0.613511
62256		-0.863342	10.041196	0.803184	0.177519	0.081457	0.074000	-0.085938	-0.935547	-0.514648	0.388826	0.418401	-0.546773	-0.612204
62257		-0.808774	9.327558	0.838049	0.199250	0.095988	0.071662	-0.085449	-0.946045	-0.517090	0.388953	0.419101	-0.547785	-0.610738
62258		-0.825947	9.542969	0.358245	0.121390	0.097365	0.047419	-0.085938	-0.942139	-0.515869	0.389240	0.419676	-0.548297	-0.609700
62259		-0.769057	9.932098	0.108040	0.090245	0.082113	0.028646	-0.090332	-0.949707	-0.509521	0.389454	0.420130	-0.548644	-0.608939
62260		-0.862193	10.200559	0.189930	0.128274	0.081076	0.018644	-0.102051	-0.951904	-0.516113	0.389518	0.420793	-0.549155	-0.607978
62261		-0.905572	10.140888	0.735548	0.120199	0.085182	0.015562	-0.090576	-0.950439	-0.513184	0.389581	0.421351	-0.549653	-0.607101
62262		-0.821692	9.769723	0.819267	0.103186	0.082716	0.024175	-0.080811	-0.949707	-0.510986	0.389732	0.421855	-0.550060	-0.606285
62263		-0.804294	9.564406	0.205364	0.027163	0.100303	0.047220	-0.085205	-0.949463	-0.507568	0.390347	0.422146	-0.550064	-0.605683
62264		-0.844781	9.800333	0.335944	0.013950	0.096182	0.065676	-0.086914	-0.951172	-0.511230	0.391094	0.422286	-0.550096	-0.605073
62265		-0.924069	9.741191	0.464694	0.019815	0.069160	0.062019	-0.086914	-0.957764	-0.510010	0.391668	0.422300	-0.550238	-0.604563
62266		-0.797856	9.154195	0.741968	0.160426	0.030556	0.045606	-0.091797	-0.947998	-0.509033	0.391513	0.422703	-0.551140	-0.603559
62267		-0.645105	9.437593	0.356444	0.153507	0.044610	0.053444	-0.089600	-0.956543	-0.503906	0.391442	0.423014	-0.552028	-0.602576
62268		-0.555084	10.091544	-0.045897	0.053352	0.059891	0.072801	-0.091553	-0.955811	-0.506836	0.391928	0.423071	-0.552400	-0.601878
62269		-0.566883	9.866364	0.167913	0.120467	0.079095	0.080427	-0.091309	-0.958496	-0.506592	0.392285	0.423365	-0.553084	-0.600811
62270		-0.823345	9.729700	0.445618	0.047467	0.080246	0.090892	-0.090576	-0.956055	-0.506592	0.392955	0.423382	-0.553426	-0.600044
62271		-1.106647	10.567565	0.282234	-0.187192	0.035931	0.097807	-0.096680	-0.947021	-0.512451	0.394268	0.422364	-0.552760	-0.600514
62272		-0.831354	10.180193	0.554708	-0.135001	0.014726	0.093987	-0.087158	-0.959717	-0.514160	0.395239	0.421324	-0.552450	-0.600892
62273		-0.597270	9.408923	0.903590	0.060055	0.046951	0.089607	-0.097412	-0.954834	-0.513916	0.395695	0.421278	-0.552908	-0.600202
62274		-0.555216	9.468390	0.213433	-0.067553	0.038691	0.077693	-0.089600	-0.948975	-0.513184	0.396490	0.420724	-0.552768	-0.600195
62275		-0.506164	9.841980	-0.009709	-0.018831	0.042768	0.043883	-0.102051	-0.944336	-0.514160	0.396937	0.420545	-0.552705	-0.600084
62276		-0.558278	9.607063	0.478434	0.139606	0.049269	0.040960	-0.096924	-0.953369	-0.509033	0.396840	0.420818	-0.553475	-0.599245
62277		-0.749504	9.803933	0.534202	0.010831	0.037537	0.068015	-0.099609	-0.959473	-0.508545	0.397316	0.420610	-0.553686	-0.598882
62278		-0.789332	10.115659	0.397192	-0.075231	0.022814	0.065761	-0.100342	-0.952393	-0.516357	0.398047	0.420095	-0.553500	-0.598930
62279		-0.547281	9.718619	0.689275	0.112260	0.028563	0.048811	-0.103027	-0.954834	-0.516846	0.397997	0.420189	-0.554190	-0.598259
62280		-0.445823	9.585105	0.358192	0.113985	0.032867	0.054657	-0.097656	-0.953613	-0.511230	0.397985	0.420255	-0.554904	-0.597558
62281		-0.499751	9.585736	0.072843	0.020252	0.050690	0.057906	-0.106445	-0.950195	-0.515625	0.398397	0.420150	-0.555072	-0.597201
62282		-0.683808	9.666599	0.187209	0.053715	0.047154	0.065026	-0.100830	-0.948486	-0.518799	0.398684	0.419964	-0.555504	-0.596739
62283		-0.557258	10.064743	0.307631	0.044607	0.015759	0.070148	-0.103271	-0.948242	-0.510254	0.398816	0.419535	-0.555995	-0.596494
62284		-0.503833	10.391759	0.095450	-0.058218	-0.013291	0.062852	-0.106689	-0.950684	-0.506104	0.399191	0.418742	-0.556043	-0.596756
62285		-0.489811	10.104707	0.387228	-0.095874	-0.019625	0.058022	-0.101807	-0.946045	-0.507568	0.399709	0.417901	-0.555898	-0.597134
62286		-0.764543	9.499071	0.630532	-0.061711	0.008706	0.090673	-0.108154	-0.949463	-0.511963	0.400365	0.417176	-0.555914	-0.597186
62287		-0.853151	9.246670	0.462270	-0.032650	-0.011084	0.104134	-0.101807	-0.947998	-0.513916	0.400902	0.416340	-0.556212	-0.597133
62288		-0.606475	9.746933	0.007730	-0.044861	-0.036389	0.074597	-0.107422	-0.943359	-0.507080	0.401169	0.415503	-0.556386	-0.597374
62289		-0.354552	10.079092	0.044755	-0.006869	-0.051862	0.053065	-0.114990	-0.938232	-0.506348	0.401188	0.414869	-0.556740	-0.597472
62290		-0.293860	10.225328	0.294854	-0.014538	-0.044113	0.062245	-0.118652	-0.953369	-0.520264	0.401318	0.414125	-0.557109	-0.597556
62291		-0.449716	10.194427	0.531984	-0.146638	-0.024211	0.084241	-0.114990	-0.949463	-0.516602	0.402068	0.412852	-0.556835	-0.598188
62292		-0.565229	10.074046	0.691577	-0.237565	-0.027475	0.093610	-0.116699	-0.939209	-0.519287	0.403182	0.411325	-0.556107	-0.599167
62293		-0.613020	9.912822	0.668505	-0.222762	-0.035287	0.088432	-0.117676	-0.946289	-0.520508	0.404150	0.409772	-0.555473	-0.600166
62294		-0.476652	9.575007	0.457864	-0.094710	-0.042393	0.061333	-0.117676	-0.941162	-0.524902	0.404579	0.408879	-0.555371	-0.600581
62295		-0.388093	9.511198	0.540308	0.034016	-0.048555	0.036457	-0.121582	-0.941406	-0.522949	0.404360	0.408426	-0.555857	-0.600587
62296		-0.251499	9.736608	0.388409	0.017259	-0.036994	0.020344	-0.120361	-0.935303	-0.523682	0.404198	0.408051	-0.556177	-0.600654
62297		-0.127116	9.718854	0.591104	0.084951	-0.021738	0.007976	-0.129395	-0.940430	-0.514160	0.403765	0.407976	-0.556747	-0.600468
62298		-0.057005	9.802806	0.769672	0.111041	-0.000402	0.012689	-0.121826	-0.937012	-0.513184	0.403506	0.408191	-0.557415	-0.599877
62299		-0.017466	10.056720	0.602032	-0.018802	0.020307	0.015300	-0.120850	-0.949463	-0.520996	0.403737	0.408070	-0.557330	-0.599881
62300		-0.140574	9.992994	0.567339	-0.089521	0.050611	0.018210	-0.125000	-0.942871	-0.518311	0.404355	0.407864	-0.556777	-0.600120
62301		-0.343519	9.657943	0.608754	-0.062971	0.068298	0.027208	-0.120850	-0.946045	-0.514893	0.405037	0.407771	-0.556359	-0.600110
62302		-0.492689	9.519691	0.474411	-0.032861	0.046650	0.024699	-0.124023	-0.948975	-0.528564	0.405544	0.407835	-0.556111	-0.599954
62303		-0.438884	9.638782	0.375590	-0.000411	0.018154	0.011850	-0.135498	-0.936768	-0.525391	0.405672	0.407728	-0.556105	-0.599947
62304		-0.372911	9.797781	0.436955	0.012352	0.022702	0.012371	-0.127930	-0.937012	-0.522217	0.405798	0.407511	-0.556250	-0.599874
62305		-0.394882	9.954701	0.599186	0.028109	0.012940	0.015618	-0.127930	-0.944336	-0.524902	0.405828	0.407403	-0.556462	-0.599730
62306		-0.349608	10.033831	0.537214	0.002723	0.012738	0.013893	-0.123291	-0.943848	-0.513916	0.405941	0.407243	-0.556527	-0.599702
62307		-0.292213	9.939897	0.501149	-0.024802	0.015000	0.013227	-0.127197	-0.941406	-0.527344	0.406219	0.407229	-0.556397	-0.599644
62308		-0.335216	9.880007	0.480866	-0.035832	0.016200	0.012118	-0.128662	-0.937500	-0.525635	0.406444	0.406924	-0.556244	-0.599840
62309		-0.328282	9.839611	0.469311	-0.030525	0.024721	0.006519	-0.119873	-0.937500	-0.531006	0.406671	0.406695	-0.556085	-0.599990
62310		-0.330101	9.826520	0.439121	-0.009975	0.019190	0.000174	-0.126953	-0.944824	-0.526123	0.406692	0.406545	-0.555965	-0.600188
62311		-0.297884	9.823036	0.483613	0.005912	0.002548	0.001016	-0.128906	-0.936035	-0.524902	0.406691	0.406459	-0.556018	-0.600198
62312		-0.282690	9.666122	0.581524	0.000726	0.012586	0.009390	-0.130127	-0.944580	-0.535400	0.406781	0.406281	-0.556065	-0.600214
62313		-0.343975	9.624577	0.671750	0.007045	0.022682	0.011664	-0.129883	-0.933350	-0.530029	0.406867	0.406072	-0.556116	-0.600250
62314		-0.306174	9.763027	0.544973	-0.007339	0.017927	0.016044	-0.125244	-0.946533	-0.528076	0.406993	0.405746	-0.556140	-0.600362
62315		-0.247480	9.864068	0.389350	-0.028297	0.018640	0.024421	-0.130371	-0.933838	-0.524902	0.407272	0.405530	-0.556031	-0.600421
62316		-0.183611	9.801715	0.509844	-0.019694	0.017876	0.029687	-0.127930	-0.934326	-0.530518	0.407562	0.405216	-0.556029	-0.600438
62317		-0.277301	9.615974	0.640431	0.007362	0.030074	0.039349	-0.128662	-0.935059	-0.529053	0.407806	0.404952	-0.556138	-0.600348
62318		-0.332419	9.674372	0.620421	0.009500	0.026082	0.044750	-0.130371	-0.936279	-0.529541	0.408068	0.404684	-0.556289	-0.600211
62319		-0.274345	9.850951	0.472009	-0.013354	0.024942	0.044878	-0.124268	-0.938965	-0.528809	0.408410	0.404328	-0.556335	-0.600177
62320		-0.203655	9.802908	0.481447	-0.004060	0.029202	0.043567	-0.130859	-0.941162	-0.522461	0.408708	0.404139	-0.556358	-0.600080
62321		-0.165225	9.764449	0.529248	0.048790	0.025156	0.044635	-0.132568	-0.943604	-0.522217	0.408925	0.404202	-0.556688	-0.599583
62322		-0.122929	9.876805	0.533147	0.052054	0.018640	0.034651	-0.135254	-0.941895	-0.529053	0.409059	0.404294	-0.557028	-0.599113
62323		-0.186836	10.000858	0.527664	0.029683	0.020293	0.021090	-0.137939	-0.933105	-0.519531	0.409157	0.404208	-0.557227	-0.598919
62324		-0.234468	9.930816	0.647546	0.055564	0.016227	0.009071	-0.132568	-0.942383	-0.534668	0.409152	0.404300	-0.557547	-0.598563
62325		-0.204487	9.873678	0.568674	0.058757	0.022652	-0.000218	-0.135254	-0.937012	-0.525879	0.408984	0.404334	-0.557793	-0.598426
62326		-0.197038	9.875890	0.481928	0.041529	0.025082	-0.008929	-0.133545	-0.947021	-0.529785	0.408907	0.404424	-0.557933	-0.598286
62327		-0.214986	9.765073	0.467023	0.055190	0.025358	-0.012754	-0.134033	-0.939453	-0.525635	0.408739	0.404605	-0.558117	-0.598108
62328		-0.183974	9.867393	0.478822	0.071332	0.020070	-0.019403	-0.130371	-0.933838	-0.519287	0.408475	0.404826	-0.558383	-0.597890
62329		-0.142058	10.089685	0.423661	0.047151	0.016800	-0.030542	-0.132568	-0.939941	-0.527832	0.408230	0.405071	-0.558477	-0.597803
62330		-0.147434	10.074446	0.544815	0.038859	0.028943	-0.043422	-0.137695	-0.941406	-0.522217	0.407963	0.405273	-0.558468	-0.597857
62331		-0.222655	9.962721	0.438571	0.037438	0.032207	-0.045809	-0.125732	-0.947021	-0.525635	0.407794	0.405556	-0.558464	-0.597785
62332		-0.264889	9.952680	0.357120	0.005386	0.021375	-0.053261	-0.129883	-0.944580	-0.522949	0.407529	0.405772	-0.558249	-0.598020
62333		-0.301009	9.886662	0.393609	-0.035565	0.026253	-0.051484	-0.126953	-0.940674	-0.528076	0.407496	0.405857	-0.557845	-0.598361
62334		-0.345976	9.707184	0.447020	-0.041377	0.031983	-0.044902	-0.128906	-0.943115	-0.521973	0.407483	0.405822	-0.557409	-0.598799
62335		-0.328720	9.650815	0.363221	-0.021343	0.007912	-0.039133	-0.123535	-0.939209	-0.524170	0.407406	0.405844	-0.557181	-0.599049
62336		-0.231627	9.607460	0.427687	-0.001442	0.001609	-0.041945	-0.127686	-0.946777	-0.521729	0.407156	0.405888	-0.557038	-0.599323
62337		-0.206873	9.445163	0.584592	0.027463	0.002148	-0.038228	-0.134766	-0.940918	-0.522949	0.406903	0.406094	-0.557073	-0.599322
62338		-0.267204	9.533089	0.526687	0.061147	-0.016131	-0.029667	-0.123535	-0.948486	-0.519531	0.406540	0.406147	-0.557411	-0.599219
62339		-0.232988	9.814552	0.401968	0.076842	-0.040434	-0.018213	-0.123291	-0.946533	-0.510986	0.405995	0.406265	-0.557884	-0.599067
62340		-0.220289	9.951264	0.404497	0.008044	-0.035374	0.007755	-0.122559	-0.939697	-0.518799	0.405887	0.406168	-0.558076	-0.599028
62341		-0.195279	9.557799	0.424124	0.000265	-0.023088	0.023906	-0.130615	-0.940674	-0.523193	0.405873	0.405848	-0.558232	-0.599109
62342		-0.191117	9.638157	0.537830	0.033662	-0.032476	0.024564	-0.127930	-0.949707	-0.521729	0.405746	0.405470	-0.558630	-0.599080
62343		-0.194141	10.069544	0.496765	-0.052335	-0.010854	0.025840	-0.133301	-0.937744	-0.524414	0.405989	0.405014	-0.558518	-0.599328
62344		-0.122995	10.164902	0.389256	-0.089937	-0.004999	0.009483	-0.133789	-0.942139	-0.528076	0.406340	0.404388	-0.558157	-0.599849
62345		-0.220732	10.129556	0.632851	-0.043947	-0.012424	-0.004329	-0.125732	-0.947998	-0.523193	0.406418	0.403948	-0.558009	-0.600230
62346		-0.278507	9.825249	0.788349	-0.028854	-0.031448	-0.015367	-0.134277	-0.942627	-0.519043	0.406253	0.403714	-0.557930	-0.600572
62347		-0.333426	9.690204	0.677153	-0.049235	-0.032795	-0.035641	-0.135742	-0.932129	-0.518311	0.406159	0.403478	-0.557725	-0.600985
62348		-0.377707	9.911379	0.319912	-0.087509	-0.019484	-0.062809	-0.134277	-0.934814	-0.525879	0.406147	0.403246	-0.557187	-0.601647
62349		-0.347058	9.858199	0.432831	-0.046969	-0.013618	-0.068816	-0.137451	-0.939941	-0.528076	0.405954	0.403143	-0.556805	-0.602201
62350		-0.483573	9.733175	0.538936	-0.009104	-0.045702	-0.061780	-0.134277	-0.933105	-0.523193	0.405541	0.402962	-0.556773	-0.602629
62351		-0.467617	9.932044	0.534156	-0.036722	-0.050531	-0.060389	-0.127930	-0.938477	-0.521729	0.405214	0.402714	-0.556600	-0.603175
62352		-0.343018	10.251219	0.595694	-0.135205	-0.042178	-0.063332	-0.136475	-0.935791	-0.529053	0.405187	0.402300	-0.555872	-0.604139
62353		-0.217995	10.175716	0.480629	-0.233439	-0.066450	-0.055375	-0.129150	-0.936279	-0.533447	0.405473	0.401238	-0.554796	-0.605641
62354		-0.106953	9.859717	0.567141	-0.212405	-0.074547	-0.053392	-0.133545	-0.935059	-0.534180	0.405586	0.400254	-0.553821	-0.607107
62355		-0.064348	9.532888	0.811575	-0.213404	-0.052748	-0.041256	-0.127686	-0.932129	-0.537109	0.405914	0.399328	-0.552835	-0.608395
62356		-0.228193	9.671917	0.545011	-0.276166	-0.047422	-0.048722	-0.134277	-0.919434	-0.540283	0.406386	0.398293	-0.551451	-0.610012
62357		-0.216490	9.809149	0.519599	-0.219580	-0.086899	-0.062428	-0.134277	-0.928711	-0.541504	0.406505	0.397215	-0.550453	-0.611536
62358		-0.251773	9.715160	0.808057	-0.141667	-0.109474	-0.076346	-0.133057	-0.920898	-0.557617	0.406172	0.396445	-0.549913	-0.612742
62359		-0.287470	9.895266	0.636719	-0.186665	-0.111004	-0.064762	-0.135498	-0.918701	-0.549561	0.405990	0.395237	-0.549127	-0.614345
62360		-0.326949	9.868514	0.534079	-0.206707	-0.099581	-0.048309	-0.133789	-0.921387	-0.547363	0.406070	0.394075	-0.548286	-0.615788
62361		-0.166407	9.720939	0.970979	-0.122115	-0.080334	-0.047830	-0.132568	-0.915039	-0.551514	0.405953	0.393412	-0.547827	-0.616697
62362		-0.289879	9.587112	1.107601	-0.099299	-0.099312	-0.052615	-0.134766	-0.917480	-0.559326	0.405640	0.392697	-0.547505	-0.617644
62363		-0.473654	9.790136	0.884072	-0.148986	-0.137356	-0.054617	-0.135986	-0.916504	-0.554199	0.405288	0.391544	-0.547050	-0.619008
62364		-0.411309	10.064246	0.206439	-0.096249	-0.137574	-0.061207	-0.139893	-0.923584	-0.556152	0.404757	0.390691	-0.546868	-0.620054
62365		-0.372488	9.874463	1.168309	0.058867	-0.139603	-0.090055	-0.136963	-0.909668	-0.552734	0.403557	0.390484	-0.547444	-0.620458
62366		-0.394410	9.969035	1.314211	0.101664	-0.103635	-0.111519	-0.142578	-0.914307	-0.550537	0.402299	0.390686	-0.547987	-0.620669
62367		-0.496485	10.556396	0.779548	-0.047494	-0.079023	-0.125505	-0.151611	-0.927002	-0.552734	0.401598	0.390547	-0.547679	-0.621483
62368		-0.226631	10.064985	0.734817	-0.053851	-0.080524	-0.149990	-0.136719	-0.923096	-0.547363	0.400801	0.390443	-0.547360	-0.622342
62369		-0.050112	9.283812	1.194349	0.005017	-0.104127	-0.150896	-0.138428	-0.918457	-0.544678	0.399629	0.390594	-0.547349	-0.623011
62370		-0.125349	9.472829	0.593751	0.054122	-0.073370	-0.156260	-0.142822	-0.916992	-0.546387	0.398441	0.391063	-0.547481	-0.623361
62371		-0.219966	10.191994	0.879347	0.185929	-0.088889	-0.200494	-0.134033	-0.920410	-0.551514	0.396548	0.391983	-0.548226	-0.623336
62372		-0.301839	10.580363	1.094045	0.126535	-0.049174	-0.245632	-0.135742	-0.924561	-0.552002	0.394733	0.393097	-0.548312	-0.623711
62373		-0.351905	10.447956	0.993124	-0.032263	0.035552	-0.291389	-0.130127	-0.923828	-0.555420	0.393593	0.394268	-0.547174	-0.624690
62374		-0.530033	9.806361	0.709491	-0.045842	0.021373	-0.334951	-0.118896	-0.920410	-0.550049	0.392194	0.395493	-0.545845	-0.625957
62375		-0.667851	8.931660	0.331158	0.087685	-0.040404	-0.344224	-0.116211	-0.921631	-0.540771	0.390023	0.397000	-0.545342	-0.626798
62376		-0.586852	8.655435	0.715942	0.239584	-0.059356	-0.308382	-0.112061	-0.929932	-0.536865	0.387481	0.398813	-0.545842	-0.626788
62377		-0.741097	9.288136	0.845767	0.259695	-0.061165	-0.241824	-0.103760	-0.930664	-0.539062	0.385176	0.400390	-0.546696	-0.626459
62378		-0.804004	10.806704	0.726222	0.203308	-0.001851	-0.239562	-0.104004	-0.935547	-0.524902	0.383304	0.402056	-0.547004	-0.626271
62379		-0.945096	11.181432	0.694795	0.064737	0.019058	-0.317241	-0.106445	-0.935791	-0.528320	0.381606	0.403830	-0.546335	-0.626750
62380		-1.016889	10.233671	0.811460	-0.055869	0.005532	-0.384677	-0.093018	-0.935791	-0.527344	0.379908	0.405310	-0.544886	-0.628087
62381		-1.110054	8.755995	0.513172	-0.081208	-0.056155	-0.346152	-0.090576	-0.935547	-0.535645	0.378192	0.406316	-0.543573	-0.629609
62382		-1.052241	8.123114	0.186025	0.093772	-0.111796	-0.258679	-0.091064	-0.927490	-0.541748	0.376077	0.407076	-0.543637	-0.630328
62383		-1.193808	8.911808	0.659998	0.164498	-0.115200	-0.152956	-0.088867	-0.941162	-0.531982	0.374300	0.407421	-0.544387	-0.630516
62384		-1.121489	10.682149	0.807491	0.174910	-0.051695	-0.109590	-0.081055	-0.946533	-0.526123	0.372954	0.408050	-0.545218	-0.630188
62385		-1.165879	11.293225	0.961639	0.012126	0.021184	-0.182929	-0.096436	-0.940674	-0.531006	0.372082	0.409014	-0.544692	-0.630535
62386		-1.255963	10.319184	0.792089	-0.101590	0.010337	-0.269668	-0.082520	-0.939941	-0.535889	0.371133	0.409662	-0.543402	-0.631784
62387		-1.251681	8.741710	0.705098	-0.168005	-0.013373	-0.224427	-0.077637	-0.938721	-0.523926	0.370517	0.409864	-0.541895	-0.633308
62388		-1.392883	7.638227	0.277792	-0.012983	-0.019339	-0.083747	-0.076660	-0.947266	-0.534424	0.370136	0.410076	-0.541727	-0.633537
62389		-1.675428	8.838682	0.325641	0.210811	-0.055061	0.001802	-0.072998	-0.935059	-0.528320	0.369195	0.410292	-0.543159	-0.632719
62390		-1.060840	10.670996	0.827380	0.161276	-0.039558	-0.015082	-0.073730	-0.946533	-0.524658	0.368477	0.410581	-0.544118	-0.632127
62391		-0.707736	11.407525	1.131020	-0.023204	0.014148	-0.114438	-0.079102	-0.944580	-0.530273	0.368065	0.411058	-0.543660	-0.632450
62392		-1.260519	10.040053	1.190608	-0.153256	0.044606	-0.162289	-0.080078	-0.947266	-0.535400	0.367971	0.411353	-0.542295	-0.633484
62393		-1.775271	8.127074	0.147867	-0.277948	0.023255	-0.070447	-0.079346	-0.930176	-0.525146	0.368662	0.410663	-0.540694	-0.634897
62394		-1.358078	7.707458	0.269989	-0.021456	-0.030386	0.116141	-0.083496	-0.942627	-0.529785	0.369349	0.409791	-0.541207	-0.634625
62395		-0.587931	9.642926	0.514472	0.169329	0.015435	0.197033	-0.079590	-0.940674	-0.535156	0.369933	0.409322	-0.542937	-0.633107
62396		-0.467418	11.800940	1.336805	0.109392	0.075354	0.070412	-0.083984	-0.939453	-0.531738	0.370301	0.409549	-0.543635	-0.632145
62397		-1.026758	10.948017	0.884184	-0.083034	0.128351	-0.086044	-0.082031	-0.938721	-0.537598	0.370757	0.410139	-0.542645	-0.632346
62398		-1.896375	8.646332	0.786767	-0.338272	0.084267	-0.087290	-0.077148	-0.936279	-0.537109	0.371846	0.409651	-0.540436	-0.633914
62399		-1.927894	7.681831	0.041269	-0.217507	-0.011915	0.089862	-0.078857	-0.934326	-0.536377	0.373069	0.408360	-0.539739	-0.634621
62400		-0.915114	8.503397	0.302451	0.019065	-0.055766	0.280442	-0.082764	-0.938721	-0.535889	0.374326	0.406775	-0.541077	-0.633759
62401		-0.062017	10.740800	0.806075	-0.006350	0.043727	0.273432	-0.085449	-0.930176	-0.539551	0.376061	0.405693	-0.541955	-0.632674
62402		-0.441682	11.585102	1.249249	-0.164924	0.199038	0.119052	-0.090088	-0.932617	-0.541260	0.378225	0.405581	-0.540929	-0.632334
62403		-1.333452	10.344246	1.219397	-0.160916	0.260206	-0.023745	-0.085693	-0.930908	-0.549316	0.379874	0.406403	-0.539310	-0.632200
62404		-1.538056	9.174846	1.436417	-0.133643	0.163487	-0.068454	-0.079590	-0.935303	-0.542236	0.380724	0.406958	-0.537963	-0.632480
62405		-1.064762	9.307361	0.885060	0.033687	0.074229	0.018801	-0.086182	-0.938477	-0.545410	0.381138	0.407385	-0.538066	-0.631867
62406		-0.709938	10.222746	0.467079	-0.039892	0.060897	0.059439	-0.086182	-0.938232	-0.556396	0.381880	0.407170	-0.538046	-0.631574
62407		-0.668917	10.598911	1.193024	-0.174468	0.125825	-0.026132	-0.079590	-0.928955	-0.555176	0.382835	0.407118	-0.536811	-0.632081
62408		-0.987323	9.721830	1.572672	-0.116466	0.235234	-0.132764	-0.086670	-0.932861	-0.551514	0.383609	0.408432	-0.535073	-0.632238
62409		-1.527879	8.643920	1.035695	-0.123625	0.235247	-0.114211	-0.074219	-0.922363	-0.556885	0.384487	0.409564	-0.533492	-0.632308
62410		-1.100412	8.571588	0.035562	-0.014411	0.048990	-0.007508	-0.073975	-0.928711	-0.549805	0.384769	0.409660	-0.533306	-0.632231
62411		-0.670650	9.284214	0.142924	0.265729	-0.013467	0.084679	-0.083496	-0.928223	-0.552979	0.384358	0.410044	-0.535135	-0.630685
62412		-0.849867	10.340186	0.733648	0.423521	-0.018200	0.082122	-0.079834	-0.924805	-0.550049	0.383253	0.410670	-0.537872	-0.628618
62413		-1.214158	10.302705	1.335041	0.182412	0.039601	0.012389	-0.072754	-0.934082	-0.541748	0.382882	0.411157	-0.538829	-0.627706
62414		-1.165456	9.801870	1.485879	-0.034077	0.037071	-0.007452	-0.074219	-0.940918	-0.543457	0.383220	0.411251	-0.538543	-0.627684
62415		-0.950075	9.692934	0.735624	-0.074329	0.025197	0.039435	-0.074951	-0.930908	-0.546387	0.383840	0.410908	-0.538301	-0.627737
62416		-0.822199	10.167387	0.608694	-0.012592	0.020217	0.063120	-0.075195	-0.939941	-0.534912	0.384361	0.410585	-0.538435	-0.627515
62417		-0.975332	10.012447	0.821657	0.125289	-0.007752	0.027948	-0.077881	-0.937744	-0.544434	0.384196	0.410923	-0.539285	-0.626664
62418		-1.163813	9.186335	1.196597	0.119511	0.093940	-0.008170	-0.079834	-0.940186	-0.547119	0.384195	0.411719	-0.539671	-0.625809
62419		-1.263238	9.180181	0.376839	-0.019525	0.023660	-0.008059	-0.074219	-0.933350	-0.546387	0.384290	0.411598	-0.539594	-0.625896
62420		-0.821198	9.498542	0.013299	0.024132	0.001847	0.016937	-0.086670	-0.931152	-0.549072	0.384339	0.411488	-0.539806	-0.625756
62421		-0.717596	9.689328	0.574786	0.171688	0.021552	0.076118	-0.075928	-0.937988	-0.532959	0.384175	0.411447	-0.541046	-0.624812
62422		-0.830568	9.947262	0.852041	0.163146	0.037547	0.095088	-0.083496	-0.932861	-0.535889	0.384420	0.411788	-0.542134	-0.623493
62423		-1.098857	9.969714	0.917582	0.145176	0.077999	0.076950	-0.079834	-0.943115	-0.532227	0.384727	0.412164	-0.542980	-0.622317
62424		-1.262372	10.021327	0.967659	0.083221	0.071474	0.053453	-0.085938	-0.943359	-0.539062	0.385114	0.412522	-0.543438	-0.621440
62425		-1.092703	10.278982	0.553949	-0.053763	0.006367	0.043745	-0.078369	-0.938232	-0.531982	0.385508	0.411937	-0.543427	-0.621594
62426		-0.812052	9.883418	0.612078	-0.020667	0.035457	0.042396	-0.080811	-0.932617	-0.539551	0.386068	0.411864	-0.543367	-0.621347
62427		-0.769077	9.584962	0.872583	0.085234	0.065046	0.025180	-0.082764	-0.937256	-0.538086	0.386241	0.412220	-0.543702	-0.620710
62428		-0.896080	9.471469	0.602387	0.118142	0.080277	0.005603	-0.088135	-0.946777	-0.532959	0.386246	0.412830	-0.544129	-0.619927
62429		-1.129090	9.784030	0.749660	0.226498	0.049450	-0.008668	-0.075439	-0.946777	-0.521729	0.385632	0.413664	-0.545263	-0.618756
62430		-1.135618	9.568283	0.657125	0.294251	0.034116	-0.027479	-0.080566	-0.946533	-0.522949	0.384784	0.415028	-0.546578	-0.617208
62431		-0.862474	9.772443	0.599256	0.205879	0.050172	-0.037743	-0.080811	-0.947021	-0.522705	0.384166	0.416052	-0.547403	-0.616171
62432		-0.708974	10.510011	0.412263	0.005611	0.044710	-0.034329	-0.080078	-0.950684	-0.517334	0.384207	0.416334	-0.547234	-0.616106
62433		-0.554420	10.104103	0.547922	0.013765	0.093560	-0.012197	-0.075439	-0.945068	-0.520508	0.384589	0.416868	-0.547042	-0.615676
62434		-0.696482	9.558491	0.795710	0.040010	0.131675	0.016360	-0.088135	-0.942139	-0.521240	0.385220	0.417563	-0.546893	-0.614942
62435		-0.984744	9.531858	0.633396	-0.070643	0.123592	0.019759	-0.080811	-0.947510	-0.524902	0.386125	0.417618	-0.546340	-0.614830
62436		-1.066721	9.474445	0.573976	-0.025584	0.050042	0.014106	-0.077393	-0.946533	-0.520020	0.386519	0.417551	-0.546189	-0.614761
62437		-0.843543	9.513294	0.268677	0.044242	0.040034	0.009583	-0.078369	-0.951172	-0.519287	0.386671	0.417804	-0.546371	-0.614332
62438		-0.784154	9.624978	0.273188	0.046633	0.065946	0.014316	-0.077637	-0.952881	-0.521729	0.386936	0.418165	-0.546529	-0.613779
62439		-0.911514	9.784090	0.561669	0.080874	0.073171	0.007242	-0.076416	-0.949219	-0.517578	0.387055	0.418678	-0.546813	-0.613102
62440		-0.935549	9.742059	0.583758	0.089414	0.066453	0.016619	-0.076904	-0.944092	-0.520508	0.387203	0.419188	-0.547164	-0.612346
62441		-0.963178	9.599616	0.429388	0.056782	0.057613	0.037014	-0.076172	-0.952393	-0.521484	0.387513	0.419388	-0.547424	-0.611780
62442		-0.881894	9.973194	0.362053	0.010308	0.026437	0.045337	-0.083252	-0.950684	-0.518799	0.387853	0.419243	-0.547603	-0.611503
62443		-0.826990	10.127998	0.437085	-0.048001	0.053715	0.044065	-0.069580	-0.949463	-0.523438	0.388498	0.418989	-0.547450	-0.611405
62444		-0.832480	9.785383	0.701544	-0.003976	0.051977	0.041240	-0.083252	-0.951172	-0.519531	0.389034	0.419049	-0.547366	-0.611098
62445		-0.852145	9.557816	0.699367	0.048722	0.043014	0.034196	-0.079590	-0.943115	-0.521484	0.389248	0.419118	-0.547701	-0.610614
62446		-0.773351	9.396227	0.486023	0.031648	0.048910	0.031601	-0.076416	-0.957764	-0.516846	0.389569	0.419196	-0.547838	-0.610233
62447		-0.757763	9.647430	0.191464	0.036767	0.051843	0.035678	-0.072266	-0.954834	-0.525391	0.389910	0.419401	-0.548040	-0.609692
62448		-0.773032	10.075012	0.265468	0.017802	0.036585	0.033542	-0.084473	-0.952393	-0.521973	0.390217	0.419436	-0.548121	-0.609399
62449		-0.773973	9.840996	0.644192	0.059238	0.043159	0.032341	-0.086426	-0.947021	-0.527588	0.390364	0.419511	-0.548493	-0.608918
62450		-0.837362	9.574460	0.772754	0.097824	0.065116	0.032761	-0.087158	-0.953857	-0.519043	0.390449	0.419724	-0.548972	-0.608285
62451		-0.838142	9.687792	0.521829	0.032775	0.075503	0.032683	-0.086182	-0.952637	-0.520996	0.390831	0.419857	-0.549126	-0.607809
62452		-0.846425	9.878006	0.188568	0.001335	0.083702	0.026040	-0.081299	-0.953369	-0.522705	0.391319	0.419944	-0.549053	-0.607501
62453		-0.816136	10.147949	0.123662	-0.017450	0.062951	0.019574	-0.075928	-0.944824	-0.513428	0.391751	0.419942	-0.548890	-0.607371
62454		-0.839112	10.307408	0.441411	-0.085440	0.056781	0.027665	-0.087402	-0.948730	-0.525146	0.392561	0.419832	-0.548345	-0.607416
62455		-0.929123	9.778992	0.808445	-0.032940	0.034425	0.035111	-0.079590	-0.948242	-0.517822	0.392980	0.419480	-0.548286	-0.607442
62456		-0.922254	9.473328	0.701141	0.018945	0.020622	0.031194	-0.083740	-0.951172	-0.516846	0.393230	0.419449	-0.548448	-0.607155
62457		-0.866848	9.710487	0.123686	-0.062230	0.012361	0.025138	-0.078125	-0.944336	-0.520264	0.393676	0.419103	-0.548248	-0.607285
62458		-0.828444	9.917158	0.030232	-0.059861	0.010691	0.018007	-0.085449	-0.956055	-0.526611	0.394096	0.418833	-0.547960	-0.607459
62459		-0.772623	9.709705	0.415354	0.000513	0.002941	0.021148	-0.077637	-0.950195	-0.525635	0.394188	0.418574	-0.548123	-0.607431
62460		-0.706655	9.757383	0.536890	-0.070550	-0.006317	0.048603	-0.085938	-0.947266	-0.517578	0.394677	0.418017	-0.547959	-0.607645
62461		-0.648903	9.912410	0.467248	-0.159156	-0.025588	0.064124	-0.085693	-0.946289	-0.523926	0.395507	0.417011	-0.547519	-0.608193
62462		-0.639842	9.629543	0.545154	-0.118791	-0.021503	0.080997	-0.089111	-0.942871	-0.527344	0.396280	0.416061	-0.547314	-0.608526
62463		-0.751269	9.458607	0.538716	-0.059981	-0.022737	0.094077	-0.094727	-0.943848	-0.529785	0.396899	0.415198	-0.547458	-0.608581
62464		-0.765265	9.732577	0.462183	-0.087155	-0.043005	0.091544	-0.087158	-0.942627	-0.531494	0.397480	0.414096	-0.547558	-0.608863
62465		-0.608738	9.755664	0.460202	-0.091382	-0.052341	0.080444	-0.090820	-0.939209	-0.520996	0.398010	0.413095	-0.547548	-0.609206
62466		-0.507730	9.489024	0.777408	0.000084	-0.026327	0.086694	-0.093262	-0.932129	-0.528809	0.398443	0.412598	-0.547955	-0.608894
62467		-0.513184	9.458635	0.865873	0.016775	-0.000227	0.101045	-0.100098	-0.939209	-0.530518	0.398985	0.412129	-0.548375	-0.608478
62468		-0.442226	9.629427	0.668201	0.002311	0.020212	0.095621	-0.096191	-0.941162	-0.527832	0.399595	0.411669	-0.548702	-0.608094
62469		-0.396140	9.764624	0.657787	0.021822	0.022864	0.093394	-0.097656	-0.940430	-0.534180	0.400162	0.411390	-0.549082	-0.607567
62470		-0.373453	9.909392	0.612502	-0.007246	0.026888	0.096026	-0.090332	-0.936523	-0.533936	0.400840	0.410966	-0.549291	-0.607219
62471		-0.434950	9.892743	0.669212	-0.042475	0.040380	0.096356	-0.103760	-0.938721	-0.532715	0.401744	0.410593	-0.549194	-0.606960
62472		-0.609946	9.888489	0.783535	-0.047032	0.064708	0.092761	-0.096924	-0.938965	-0.534180	0.402718	0.410225	-0.549091	-0.606657
62473		-0.737446	9.910130	0.745161	-0.040018	0.068355	0.080168	-0.103516	-0.940918	-0.535645	0.403638	0.410042	-0.548910	-0.606333
62474		-0.703024	9.890851	0.588648	-0.005695	0.059765	0.060717	-0.105225	-0.943115	-0.528564	0.404280	0.409954	-0.548914	-0.605961
62475		-0.607471	9.865570	0.472867	0.032360	0.046747	0.047931	-0.096924	-0.937012	-0.533691	0.404663	0.410024	-0.549156	-0.605439
62476		-0.428731	9.813874	0.445602	0.048943	0.031915	0.034618	-0.105469	-0.936768	-0.540771	0.404895	0.410193	-0.549373	-0.604972
62477		-0.416432	9.897283	0.539575	0.050539	0.027502	0.029485	-0.105957	-0.937744	-0.533691	0.405060	0.410240	-0.549618	-0.604607
62478		-0.496360	9.947561	0.668377	0.030733	0.034717	0.035055	-0.104248	-0.927734	-0.536621	0.405349	0.410265	-0.549790	-0.604240
62479		-0.536042	9.932862	0.601275	0.001091	0.033801	0.041946	-0.105713	-0.939209	-0.531006	0.405816	0.410152	-0.549766	-0.604025
62480		-0.451714	9.856086	0.540708	-0.003384	0.019357	0.040157	-0.108398	-0.945312	-0.533203	0.406170	0.409986	-0.549845	-0.603827
62481		-0.298415	9.835302	0.444733	-0.001150	0.003311	0.037371	-0.108398	-0.928955	-0.530029	0.406407	0.409736	-0.550009	-0.603688
62482		-0.233439	9.841023	0.460950	0.003140	0.000527	0.027295	-0.103271	-0.942139	-0.533936	0.406623	0.409542	-0.550114	-0.603579
62483		-0.310913	9.759585	0.551160	0.005581	0.010384	0.029985	-0.102295	-0.942871	-0.538818	0.406855	0.409444	-0.550205	-0.603406
62484		-0.424993	9.743012	0.635775	0.000015	0.018100	0.031144	-0.097900	-0.945312	-0.535889	0.407161	0.409360	-0.550211	-0.603251
62485		-0.405325	9.778731	0.572076	-0.025314	0.021915	0.031451	-0.108154	-0.932617	-0.540771	0.407555	0.409262	-0.550078	-0.603172
62486		-0.324496	9.736592	0.505224	0.011637	0.026561	0.024909	-0.109863	-0.939453	-0.534912	0.407881	0.409243	-0.550068	-0.602975
62487		-0.310229	9.794914	0.598812	0.055830	0.023497	0.024055	-0.115479	-0.937500	-0.539795	0.407981	0.409364	-0.550364	-0.602555
62488		-0.372966	9.901599	0.638929	0.049600	0.031035	0.022549	-0.112061	-0.934814	-0.538574	0.408170	0.409458	-0.550576	-0.602169
62489		-0.411476	10.088449	0.682635	0.010695	0.035450	0.014304	-0.109863	-0.937256	-0.539307	0.408480	0.409511	-0.550521	-0.601973
62490		-0.510115	10.092591	0.689640	-0.028433	0.036237	-0.004041	-0.112793	-0.935059	-0.530518	0.408829	0.409538	-0.550198	-0.602013
62491		-0.542121	9.870011	0.370201	-0.021968	0.013020	-0.013672	-0.111816	-0.937256	-0.546631	0.408956	0.409496	-0.550030	-0.602108
62492		-0.536556	9.736452	0.347350	0.000591	-0.009270	-0.017441	-0.109619	-0.933350	-0.538818	0.408974	0.409442	-0.549925	-0.602229
62493		-0.467119	9.755966	0.542276	0.030445	-0.017272	-0.025827	-0.110596	-0.933350	-0.529053	0.408774	0.409504	-0.550004	-0.602251
62494		-0.404930	10.037056	0.553316	0.042290	-0.023835	-0.031861	-0.104492	-0.939697	-0.535156	0.408409	0.409589	-0.550223	-0.602241
62495		-0.360601	10.059180	0.559902	0.000949	-0.021160	-0.027960	-0.107910	-0.940918	-0.530273	0.408226	0.409573	-0.550185	-0.602410
62496		-0.398280	9.906256	0.654538	-0.019809	-0.015563	-0.028066	-0.110107	-0.939941	-0.536865	0.408104	0.409489	-0.550083	-0.602643
62497		-0.355430	9.762962	0.611423	-0.024334	-0.019523	-0.034793	-0.115234	-0.937744	-0.541016	0.408008	0.409396	-0.549899	-0.602939
62498		-0.283519	9.672163	0.519428	0.005755	-0.019527	-0.036310	-0.111572	-0.932373	-0.533203	0.407860	0.409388	-0.549839	-0.603099
62499		-0.270740	9.690386	0.598443	0.040659	-0.023752	-0.038748	-0.100830	-0.943359	-0.526855	0.407509	0.409495	-0.549994	-0.603122
62500		-0.289934	9.697286	0.592936	0.078504	-0.035137	-0.047706	-0.107422	-0.943604	-0.527100	0.406791	0.409757	-0.550412	-0.603048
62501		-0.342558	9.597318	0.652903	0.163631	-0.020803	-0.057517	-0.104980	-0.947510	-0.535400	0.405841	0.410393	-0.551178	-0.602556
62502		-0.400165	9.853357	0.597195	0.145999	-0.019702	-0.053633	-0.103760	-0.938965	-0.530762	0.405065	0.410995	-0.551767	-0.602129
62503		-0.292825	9.940540	0.481686	0.035068	-0.007186	-0.053515	-0.107910	-0.937988	-0.522217	0.404751	0.411284	-0.551734	-0.602172
62504		-0.238222	9.730126	0.588773	0.083592	0.032174	-0.068291	-0.107422	-0.945801	-0.526123	0.404315	0.411951	-0.551850	-0.601903
62505		-0.312391	9.641923	0.678640	0.136862	0.028069	-0.058442	-0.108154	-0.941650	-0.521729	0.403749	0.412745	-0.552260	-0.601363
62506		-0.367443	9.827627	0.484487	0.054408	0.000510	-0.054770	-0.106689	-0.948486	-0.522461	0.403365	0.413090	-0.552368	-0.601284
62507		-0.425555	9.898894	0.312954	0.030244	0.001890	-0.059661	-0.104980	-0.941406	-0.527832	0.403028	0.413392	-0.552343	-0.601326
62508		-0.524624	9.916249	0.429592	0.041890	0.035765	-0.054603	-0.110840	-0.950928	-0.530762	0.402933	0.413909	-0.552186	-0.601178
62509		-0.731749	9.890648	0.488805	0.005858	0.018464	-0.049693	-0.106201	-0.948975	-0.525635	0.402930	0.414180	-0.551943	-0.601217
62510		-0.650583	9.841188	0.419596	-0.028525	-0.007988	-0.052319	-0.105713	-0.940918	-0.523682	0.402844	0.414211	-0.551642	-0.601529
62511		-0.614038	9.847376	0.338859	-0.049194	-0.002113	-0.049036	-0.093994	-0.952637	-0.522705	0.402884	0.414179	-0.551222	-0.601909
62512		-0.575147	9.724750	0.420421	-0.023352	-0.009349	-0.045003	-0.110840	-0.946289	-0.528564	0.402676	0.414204	-0.551021	-0.602215
62513		-0.606018	9.657191	0.454602	0.023893	-0.019728	-0.046270	-0.102295	-0.952881	-0.524414	0.402445	0.414312	-0.551033	-0.602285
62514		-0.603023	9.940945	0.460589	-0.017030	-0.026754	-0.042261	-0.105225	-0.937500	-0.527100	0.402215	0.414235	-0.550930	-0.602585
62515		-0.602607	9.935318	0.441710	-0.038992	-0.037473	-0.041282	-0.103516	-0.941162	-0.525391	0.402148	0.414037	-0.550670	-0.603003
62516		-0.561786	9.871355	0.537398	-0.021759	-0.056111	-0.040660	-0.106934	-0.949219	-0.524658	0.401878	0.413791	-0.550602	-0.603414
62517		-0.507928	9.864477	0.367972	-0.085362	-0.060778	-0.042287	-0.106445	-0.944092	-0.521729	0.401759	0.413296	-0.550274	-0.604131
62518		-0.523599	9.723523	0.468738	-0.049113	-0.042205	-0.049932	-0.104248	-0.949463	-0.521729	0.401523	0.413029	-0.550070	-0.604656
62519		-0.641921	9.637008	0.635343	0.032800	-0.048478	-0.051888	-0.102783	-0.947021	-0.534180	0.400912	0.413012	-0.550322	-0.604844
62520		-0.412293	9.993438	0.442986	-0.022481	-0.078202	-0.055341	-0.103027	-0.944092	-0.525391	0.400521	0.412757	-0.550223	-0.605368
62521		-0.168594	10.021634	0.294900	-0.067930	-0.035787	-0.078431	-0.113281	-0.946289	-0.524414	0.400258	0.412618	-0.549764	-0.606053
62522		-0.345130	9.851939	0.743802	0.012228	0.003919	-0.069138	-0.103027	-0.943115	-0.527832	0.399975	0.412864	-0.549654	-0.606171
62523		-0.490424	9.675351	0.755305	0.025574	-0.022918	-0.067149	-0.098877	-0.938721	-0.520996	0.399541	0.413056	-0.549644	-0.606336
62524		-0.502570	9.550159	0.410259	0.001799	-0.026690	-0.072900	-0.092773	-0.941650	-0.522705	0.399054	0.413147	-0.549558	-0.606673
62525		-0.620994	9.559288	0.486560	-0.021329	-0.057461	-0.069161	-0.102051	-0.944092	-0.527100	0.398503	0.413012	-0.549454	-0.607221
62526		-0.569249	9.830791	0.377234	-0.068974	-0.094501	-0.078657	-0.103271	-0.947998	-0.530029	0.398000	0.412574	-0.549174	-0.608101
62527		-0.511984	10.114278	0.332276	-0.151420	-0.058247	-0.064077	-0.101562	-0.937988	-0.533203	0.398032	0.411985	-0.548403	-0.609174
62528		-0.612758	9.991952	0.675166	-0.116945	-0.036017	-0.051073	-0.095703	-0.937012	-0.526855	0.398162	0.411578	-0.547730	-0.609970
62529		-0.612110	9.652444	0.860252	-0.102382	-0.047241	-0.046384	-0.102783	-0.934570	-0.534912	0.398062	0.411100	-0.547272	-0.610767
62530		-0.644025	9.664319	0.526999	-0.210831	-0.075361	-0.038900	-0.099609	-0.931641	-0.531738	0.398389	0.410111	-0.546306	-0.612083
62531		-0.573395	9.781387	0.662872	-0.140943	-0.108384	-0.039606	-0.096924	-0.938232	-0.533447	0.398215	0.409154	-0.545867	-0.613227
62532		-0.525963	9.651044	0.677815	-0.218536	-0.077612	-0.028648	-0.111084	-0.939697	-0.542969	0.398432	0.408048	-0.544999	-0.614593
62533		-0.694732	9.632229	0.447892	-0.229408	-0.101090	-0.020058	-0.103760	-0.934814	-0.542969	0.398774	0.406748	-0.544139	-0.615994
62534		-0.776474	9.762361	0.564365	-0.220125	-0.106199	-0.018048	-0.111084	-0.925293	-0.553955	0.398988	0.405443	-0.543365	-0.617397
62535		-0.807962	10.102144	0.776722	-0.249131	-0.145065	0.002567	-0.116699	-0.922363	-0.545410	0.399411	0.403780	-0.542529	-0.618947
62536		-0.735325	9.869703	1.041461	-0.292670	-0.160651	0.019000	-0.112061	-0.926758	-0.558105	0.399850	0.401732	-0.541707	-0.620713
62537		-0.564243	9.388317	1.091368	-0.323339	-0.132856	0.038976	-0.114014	-0.918701	-0.556885	0.400653	0.399695	-0.540628	-0.622449
62538		-0.515221	9.045371	0.795709	-0.279559	-0.096371	0.062836	-0.114502	-0.910400	-0.560547	0.401538	0.397850	-0.539774	-0.623800
62539		-0.620326	8.920038	0.624165	-0.178330	-0.128434	0.077141	-0.117676	-0.919922	-0.565186	0.402030	0.396114	-0.539577	-0.624757
62540		-0.767698	9.313653	0.940300	0.038364	-0.186558	0.088451	-0.127686	-0.923096	-0.562988	0.401569	0.394754	-0.540767	-0.624886
62541		-0.738004	9.711697	0.958182	0.159602	-0.205414	0.079851	-0.123535	-0.921631	-0.556396	0.400575	0.393711	-0.542654	-0.624546
62542		-0.784214	10.493424	1.100417	0.115876	-0.093419	0.054798	-0.125488	-0.916992	-0.560059	0.400027	0.393218	-0.543873	-0.624147
62543		-0.767824	10.691815	1.543822	0.050996	-0.079836	0.010750	-0.127930	-0.921631	-0.552490	0.399628	0.392814	-0.544482	-0.624126
62544		-0.572334	10.484181	0.911528	-0.044643	-0.121605	-0.018044	-0.118164	-0.920898	-0.566406	0.399097	0.391961	-0.544725	-0.624790
62545		-0.420761	10.621081	0.742981	-0.037671	-0.114791	-0.039857	-0.133545	-0.916992	-0.565674	0.398594	0.391377	-0.544755	-0.625450
62546		-0.471996	10.336361	0.913946	-0.002577	-0.029847	-0.099646	-0.127441	-0.925781	-0.557373	0.398109	0.391565	-0.544512	-0.625853
62547		-0.569183	9.909586	1.120083	0.010945	-0.050084	-0.163169	-0.130615	-0.916504	-0.562988	0.396982	0.391951	-0.544310	-0.626504
62548		-0.278886	9.715008	0.844406	0.076461	-0.051102	-0.208079	-0.122070	-0.914551	-0.553711	0.395546	0.392767	-0.544214	-0.626983
62549		-0.060341	9.801802	0.748717	0.195252	-0.050121	-0.225034	-0.123535	-0.915039	-0.543457	0.393530	0.394038	-0.544735	-0.627002
62550		-0.033429	10.208328	1.246497	0.136738	0.015562	-0.238514	-0.115234	-0.921387	-0.544678	0.391862	0.395467	-0.544759	-0.627126
62551		-0.183430	10.408674	0.562149	0.059832	-0.016046	-0.258621	-0.116943	-0.926025	-0.552734	0.390208	0.396609	-0.544390	-0.627757
62552		-0.472196	9.724030	0.844067	-0.006954	0.003216	-0.274176	-0.113037	-0.921143	-0.547119	0.388880	0.397720	-0.543496	-0.628652
62553		-0.570954	9.130215	0.508657	0.010671	0.021775	-0.253528	-0.107422	-0.916504	-0.547852	0.387645	0.398866	-0.542732	-0.629348
62554		-0.714786	9.035085	0.419265	0.072330	-0.000002	-0.227397	-0.106689	-0.921387	-0.542480	0.386276	0.399993	-0.542414	-0.629749
62555		-0.654332	9.026327	0.844428	0.122921	-0.054155	-0.209957	-0.103516	-0.926025	-0.547119	0.384517	0.400887	-0.542654	-0.630051
62556		-0.646451	9.334852	0.781032	0.193851	-0.025543	-0.197641	-0.094971	-0.921631	-0.541016	0.382770	0.402129	-0.543164	-0.629883
62557		-0.990066	9.864221	1.011203	0.174777	-0.033233	-0.206921	-0.102051	-0.927979	-0.535889	0.380999	0.403339	-0.543548	-0.629852
62558		-1.170270	9.846524	0.608491	0.113559	0.005802	-0.193347	-0.101562	-0.934326	-0.537842	0.379633	0.404426	-0.543599	-0.629935
62559		-1.232456	9.624367	0.803758	0.106151	-0.003275	-0.144305	-0.092529	-0.924316	-0.535645	0.378521	0.405215	-0.543799	-0.629924
62560		-1.243716	9.767172	0.643727	0.078773	-0.021726	-0.114581	-0.086182	-0.927490	-0.528564	0.377622	0.405734	-0.543951	-0.629999
62561		-1.409728	10.089364	0.540231	-0.036337	-0.053873	-0.095342	-0.094238	-0.929443	-0.528076	0.377004	0.405654	-0.543702	-0.630635
62562		-1.487608	9.657961	0.780936	-0.065816	-0.044583	-0.045342	-0.103516	-0.933838	-0.536621	0.376763	0.405239	-0.543485	-0.631232
62563		-1.455137	9.609471	0.803598	0.008041	-0.035879	-0.009778	-0.092773	-0.937012	-0.536377	0.376527	0.404888	-0.543747	-0.631374
62564		-1.134536	10.231837	0.856820	0.064559	-0.043997	-0.033846	-0.084473	-0.943604	-0.534912	0.375944	0.404867	-0.544214	-0.631332
62565		-0.673210	9.873891	1.091419	-0.111139	0.024031	-0.082174	-0.093506	-0.934814	-0.538086	0.376000	0.404939	-0.543366	-0.631982
62566		-1.027462	9.202271	0.740696	-0.197935	0.103787	-0.074655	-0.091064	-0.938721	-0.536133	0.376766	0.405043	-0.541844	-0.632766
62567		-1.557579	8.928014	0.526965	-0.163516	0.030858	0.003499	-0.098877	-0.934814	-0.546143	0.377443	0.404520	-0.541044	-0.633381
62568		-1.165112	9.033479	0.419138	-0.019222	-0.016138	0.074972	-0.091309	-0.938721	-0.546875	0.377827	0.403816	-0.541376	-0.633318
62569		-0.640597	10.309929	0.918045	0.068046	-0.000037	0.088983	-0.092041	-0.928711	-0.534668	0.378082	0.403489	-0.542131	-0.632728
62570		-0.391963	11.265166	0.678214	0.017035	0.043439	0.030793	-0.092529	-0.935303	-0.542236	0.378384	0.403506	-0.542306	-0.632387
62571		-0.718680	10.011702	0.761726	-0.161439	0.122156	-0.041233	-0.089355	-0.928223	-0.544189	0.379279	0.403696	-0.541027	-0.632824
62572		-1.338744	8.685924	0.706858	-0.227006	0.120784	-0.046480	-0.095459	-0.932373	-0.545410	0.380385	0.403709	-0.539363	-0.633572
62573		-1.116244	8.590105	0.668304	-0.104844	0.093476	0.048583	-0.091309	-0.930420	-0.553711	0.381387	0.403470	-0.538825	-0.633580
62574		-0.478196	9.257650	1.518465	0.063992	0.117722	0.114162	-0.090576	-0.924561	-0.553955	0.382326	0.403633	-0.539260	-0.632540
62575		-0.377345	10.640067	1.097066	0.078930	0.096557	0.083625	-0.100342	-0.935791	-0.551270	0.382991	0.403879	-0.539702	-0.631602
62576		-0.874453	10.922603	0.764688	-0.128711	0.127679	0.020464	-0.086670	-0.927734	-0.540771	0.384076	0.403832	-0.538832	-0.631717
62577		-1.093467	9.800767	0.537343	-0.274842	0.122641	0.008334	-0.095947	-0.928955	-0.560791	0.385630	0.403502	-0.537119	-0.632439
62578		-0.881869	8.547357	1.236922	-0.192445	0.161975	0.034355	-0.083496	-0.918945	-0.554688	0.387180	0.403385	-0.535808	-0.632679
62579		-1.031559	8.295886	1.583758	0.062208	0.179390	0.059892	-0.088379	-0.924805	-0.558838	0.388166	0.404209	-0.535804	-0.631550
62580		-0.994686	9.658222	1.348392	0.154803	0.112823	0.039160	-0.088867	-0.932861	-0.553223	0.388389	0.405006	-0.536465	-0.630341
62581		-0.820941	10.216025	0.623552	-0.092397	0.072266	0.041337	-0.088135	-0.929199	-0.564209	0.389246	0.404788	-0.536002	-0.630345
62582		-0.859069	9.844789	0.331292	-0.057965	0.035622	0.084846	-0.086182	-0.915527	-0.563721	0.390083	0.404275	-0.535935	-0.630215
62583		-0.972179	9.650464	0.581617	0.043791	0.055850	0.131239	-0.096436	-0.920898	-0.559814	0.390967	0.404018	-0.536437	-0.629405
62584		-1.063554	10.029124	1.312736	0.249173	0.046973	0.105045	-0.085693	-0.918213	-0.557129	0.390898	0.404424	-0.538038	-0.627818
62585		-0.974559	10.454412	1.885379	0.336347	0.102112	0.031197	-0.091309	-0.925781	-0.550293	0.390498	0.405856	-0.539565	-0.625829
62586		-0.968545	10.699674	0.882401	0.028593	0.085792	-0.005894	-0.097900	-0.930664	-0.544678	0.390812	0.406312	-0.539471	-0.625418
62587		-0.819339	10.081303	-0.027066	-0.233332	0.019945	0.002936	-0.090088	-0.929688	-0.555176	0.391686	0.405474	-0.538336	-0.626392
62588		-0.807657	8.900890	0.445950	-0.004158	0.016465	0.023962	-0.092285	-0.921387	-0.550049	0.391950	0.405339	-0.538404	-0.626256
62589		-0.877007	8.485609	1.088199	0.215053	0.027422	0.043102	-0.084229	-0.928955	-0.553467	0.391621	0.405881	-0.539649	-0.625038
62590		-0.943140	9.588116	1.007153	0.268997	0.001363	0.015386	-0.093506	-0.929443	-0.540527	0.390913	0.406668	-0.541098	-0.623716
62591		-0.681175	10.439077	0.488305	0.260627	0.034938	-0.016184	-0.095459	-0.933105	-0.546387	0.390135	0.407667	-0.542372	-0.622442
62592		-0.564509	10.187752	0.688839	0.154385	0.079444	-0.002102	-0.093750	-0.933350	-0.541504	0.389985	0.408434	-0.542979	-0.621504
62593		-0.530318	9.923803	0.628454	-0.064475	0.032132	0.021892	-0.090576	-0.927002	-0.540039	0.390501	0.408157	-0.542685	-0.621619
62594		-0.606260	9.696786	0.596765	-0.131942	0.038864	0.061296	-0.088867	-0.936523	-0.543701	0.391520	0.407561	-0.542121	-0.621861
62595		-0.712806	9.285238	0.847603	-0.003469	0.069168	0.097675	-0.085693	-0.933594	-0.546875	0.392427	0.407410	-0.542255	-0.621271
62596		-0.872301	9.026897	0.660025	0.156117	0.036339	0.103086	-0.093994	-0.936523	-0.548340	0.392718	0.407623	-0.543292	-0.620041
62597		-0.811411	9.215294	0.212373	0.316600	0.057196	0.081644	-0.097900	-0.936768	-0.535156	0.392390	0.408478	-0.545051	-0.618138
62598		-0.910176	9.880321	0.858762	0.331547	0.063488	0.069157	-0.096680	-0.944092	-0.537598	0.391938	0.409456	-0.546865	-0.616173
62599		-0.926290	10.440969	0.482772	0.057549	0.021346	0.064299	-0.101562	-0.940430	-0.535645	0.392223	0.409349	-0.547361	-0.615622
62600		-0.794754	10.485325	0.941430	0.016468	0.007212	0.067603	-0.101074	-0.936523	-0.532471	0.392577	0.408978	-0.547722	-0.615322
62601		-0.612860	10.442890	1.264900	0.007611	0.047388	0.077814	-0.098389	-0.939209	-0.540283	0.393214	0.408762	-0.547929	-0.614875
62602		-0.638979	9.686828	0.811129	0.009296	0.086228	0.090414	-0.100098	-0.933594	-0.545166	0.394124	0.408714	-0.548013	-0.614248
62603		-0.715675	9.215852	0.213596	0.064369	0.094840	0.060786	-0.095947	-0.936279	-0.533691	0.394749	0.409001	-0.548222	-0.613468
62604		-0.794165	9.515992	0.026209	0.131412	0.047312	0.023195	-0.099365	-0.945801	-0.532715	0.394743	0.409513	-0.548820	-0.612595
62605		-0.684133	10.234382	0.461661	0.151572	0.026975	0.005116	-0.097412	-0.939697	-0.531250	0.394440	0.410042	-0.549565	-0.611768
62606		-0.577821	10.446416	1.105117	0.074007	0.047648	0.006251	-0.099609	-0.942383	-0.529297	0.394537	0.410429	-0.549814	-0.611223
62607		-0.499415	9.933440	1.408009	0.030249	0.060295	0.002667	-0.100586	-0.940186	-0.529053	0.394800	0.410733	-0.549809	-0.610853
62608		-0.347942	9.493480	0.720381	-0.011972	0.089918	0.009770	-0.094727	-0.941895	-0.533691	0.395378	0.411004	-0.549516	-0.610561
62609		-0.303974	9.542251	-0.184394	0.012957	0.118353	0.016782	-0.097656	-0.939453	-0.529541	0.396079	0.411515	-0.549234	-0.610015
62610		-0.473577	9.808303	-0.060810	0.051539	0.114370	0.010876	-0.092285	-0.944336	-0.534424	0.396572	0.412133	-0.549173	-0.609333
62611		-0.805270	9.915390	0.537435	0.031458	0.091336	0.020755	-0.097168	-0.943359	-0.522461	0.397114	0.412562	-0.549080	-0.608773
62612		-0.841994	9.639837	1.094655	0.050888	0.041900	0.019344	-0.094482	-0.946045	-0.534912	0.397284	0.412775	-0.549326	-0.608296
62613		-0.484501	9.715588	0.820238	0.045688	0.027112	0.010032	-0.098389	-0.943115	-0.527344	0.397419	0.412954	-0.549488	-0.607939
62614		-0.363443	9.691134	0.361341	0.010549	0.074311	0.026114	-0.092285	-0.939209	-0.533447	0.397934	0.413153	-0.549416	-0.607532
62615		-0.454324	9.550206	0.148166	0.044362	0.107097	0.030787	-0.102539	-0.944580	-0.526611	0.398574	0.413658	-0.549348	-0.606830
62616		-0.640868	9.430565	0.299238	0.100622	0.095589	0.031321	-0.090576	-0.941650	-0.530029	0.398879	0.414205	-0.549704	-0.605933
62617		-0.811689	9.596573	0.555203	0.094793	0.053062	0.051071	-0.098145	-0.944580	-0.520752	0.399193	0.414522	-0.550146	-0.605108
62618		-0.685093	9.999078	0.537381	0.003066	0.011772	0.058856	-0.091064	-0.951416	-0.516846	0.399596	0.414233	-0.550374	-0.604833
62619		-0.528165	10.093384	0.547025	-0.019484	0.045599	0.062992	-0.093994	-0.944580	-0.525391	0.400238	0.414081	-0.550395	-0.604493
62620		-0.520928	9.809721	0.704676	0.002669	0.081411	0.074186	-0.091797	-0.947510	-0.516846	0.401086	0.414120	-0.550389	-0.603910
62621		-0.657258	9.546009	0.511139	0.027240	0.077569	0.070182	-0.091553	-0.945312	-0.528564	0.401755	0.414252	-0.550555	-0.603222
62622		-0.567951	9.565177	0.288656	0.076693	0.053519	0.050079	-0.093018	-0.946289	-0.526367	0.402133	0.414543	-0.550894	-0.602461
62623		-0.538066	9.907895	0.257631	0.063946	0.044009	0.045363	-0.097412	-0.940430	-0.526367	0.402473	0.414756	-0.551197	-0.601809
62624		-0.486065	10.132585	0.327048	0.006149	0.031205	0.045742	-0.098389	-0.942871	-0.522705	0.402973	0.414685	-0.551245	-0.601480
62625		-0.498989	10.116593	0.631122	-0.002097	0.053559	0.044110	-0.101318	-0.941895	-0.525635	0.403555	0.414693	-0.551207	-0.601119
62626		-0.576783	9.891045	0.767038	0.027217	0.062502	0.045329	-0.106689	-0.947998	-0.521240	0.404104	0.414830	-0.551277	-0.600591
62627		-0.545614	9.748883	0.330424	0.015756	0.048468	0.030593	-0.101318	-0.941162	-0.523682	0.404480	0.414878	-0.551355	-0.600233
62628		-0.459537	9.796957	0.245074	0.004261	0.052620	0.011909	-0.098877	-0.941406	-0.526855	0.404885	0.415042	-0.551234	-0.599958
62629		-0.456089	9.944183	0.241068	-0.001099	0.057221	0.003965	-0.102539	-0.946777	-0.523926	0.405324	0.415274	-0.551010	-0.599707
62630		-0.472656	9.995900	0.388421	-0.012762	0.041754	0.008688	-0.098389	-0.952393	-0.530273	0.405696	0.415329	-0.550853	-0.599560
62631		-0.526046	10.051859	0.519042	-0.065298	0.034440	0.015598	-0.104736	-0.936768	-0.523682	0.406295	0.415186	-0.550438	-0.599636
62632		-0.546070	10.159143	0.451618	-0.141421	0.037425	0.019195	-0.109375	-0.945312	-0.530273	0.407162	0.414721	-0.549680	-0.600065
62633		-0.569782	9.813825	0.428484	-0.129643	0.041448	0.019978	-0.101318	-0.935791	-0.524414	0.408010	0.414304	-0.548978	-0.600419
62634		-0.553516	9.535409	0.485066	-0.029512	0.017980	0.012962	-0.099854	-0.943359	-0.527832	0.408324	0.414151	-0.548851	-0.600428
62635		-0.461945	9.660947	0.418204	0.000940	0.001348	-0.000043	-0.108398	-0.938232	-0.534668	0.408392	0.414096	-0.548883	-0.600390
62636		-0.290600	9.799803	0.432477	0.045558	-0.002805	-0.007625	-0.105713	-0.938721	-0.526367	0.408339	0.414202	-0.549074	-0.600178
62637		-0.224566	9.901867	0.550246	0.077391	0.026444	-0.016699	-0.102295	-0.936768	-0.535889	0.408180	0.414578	-0.549354	-0.599770
62638		-0.332603	9.955120	0.611997	0.053403	0.037444	-0.015857	-0.105713	-0.946777	-0.516357	0.408295	0.415000	-0.549365	-0.599390
62639		-0.398063	9.889684	0.556499	-0.015021	0.043174	-0.012322	-0.107666	-0.939209	-0.531494	0.408422	0.415068	-0.549244	-0.599367
62640		-0.380855	9.672561	0.520810	-0.028563	0.043237	-0.011490	-0.100830	-0.935547	-0.529053	0.408811	0.415167	-0.548901	-0.599347
62641		-0.307354	9.650443	0.353881	-0.015321	0.032548	-0.012195	-0.104492	-0.935303	-0.527588	0.409083	0.415279	-0.548657	-0.599308
62642		-0.341919	9.828448	0.414341	0.022771	0.042388	-0.017500	-0.097656	-0.941162	-0.532471	0.409220	0.415565	-0.548579	-0.599088
62643		-0.509766	9.773307	0.512289	0.027874	0.065954	-0.012447	-0.099365	-0.944092	-0.528320	0.409509	0.416019	-0.548417	-0.598723
62644		-0.649039	9.732538	0.686597	0.053934	0.050198	-0.016766	-0.095947	-0.943359	-0.525391	0.409553	0.416465	-0.548477	-0.598327
62645		-0.494914	9.831300	0.473787	0.040318	0.023005	-0.018419	-0.101807	-0.945801	-0.531738	0.409486	0.416735	-0.548567	-0.598102
62646		-0.395670	9.903194	0.352467	0.002899	0.021554	-0.013176	-0.096680	-0.945557	-0.532227	0.409654	0.416867	-0.548446	-0.598007
62647		-0.447582	9.876092	0.277999	-0.006388	0.031906	-0.007456	-0.097900	-0.937988	-0.535645	0.409934	0.417017	-0.548246	-0.597894
62648		-0.572471	9.867226	0.330882	-0.012504	0.027875	-0.005887	-0.092285	-0.945557	-0.529785	0.410307	0.417145	-0.547978	-0.597794
62649		-0.605927	9.855856	0.480192	-0.027625	0.016819	-0.010282	-0.107178	-0.946289	-0.526855	0.410527	0.417149	-0.547742	-0.597857
62650		-0.536517	9.750818	0.619719	-0.007644	0.000847	-0.012409	-0.104980	-0.940186	-0.527100	0.410563	0.417075	-0.547716	-0.597907
62651		-0.411742	9.831566	0.456014	-0.015618	-0.015961	-0.009496	-0.098389	-0.942627	-0.524658	0.410590	0.416891	-0.547693	-0.598039
62652		-0.325765	9.793422	0.297072	-0.030538	-0.011659	-0.011607	-0.099121	-0.946289	-0.535156	0.410611	0.416681	-0.547604	-0.598252
62653		-0.402034	9.650334	0.395892	-0.005482	-0.004052	-0.008688	-0.105225	-0.940430	-0.530518	0.410728	0.416661	-0.547527	-0.598256
62654		-0.511111	9.661605	0.530349	0.004086	-0.002963	-0.005458	-0.103516	-0.943604	-0.529297	0.410802	0.416613	-0.547546	-0.598222
62655		-0.422587	9.769941	0.547393	-0.014670	-0.002777	-0.002135	-0.103760	-0.937744	-0.534668	0.410919	0.416478	-0.547504	-0.598273
62656		-0.329443	9.853272	0.564320	-0.024932	0.006754	-0.000197	-0.097656	-0.934814	-0.537109	0.411233	0.416398	-0.547308	-0.598292
62657		-0.324598	9.821909	0.456610	-0.002781	0.006999	-0.001553	-0.099365	-0.939209	-0.530518	0.411496	0.416440	-0.547177	-0.598202
62658		-0.402383	9.621480	0.517179	0.009939	-0.001153	0.003351	-0.104980	-0.943604	-0.534912	0.411574	0.416390	-0.547251	-0.598115
62659		-0.548463	9.521335	0.577709	0.017249	0.008989	0.009126	-0.104248	-0.939697	-0.527588	0.411773	0.416421	-0.547311	-0.597903
62660		-0.551419	9.766987	0.440311	0.019514	-0.007285	0.008839	-0.098145	-0.946533	-0.533203	0.411782	0.416312	-0.547510	-0.597790
62661		-0.437286	9.905636	0.364426	0.012858	-0.015453	0.014398	-0.104980	-0.938965	-0.530762	0.411849	0.416178	-0.547671	-0.597689
62662		-0.357500	9.930526	0.420373	0.000760	-0.007091	0.012161	-0.105469	-0.937012	-0.536377	0.412008	0.416031	-0.547740	-0.597620
62663		-0.367606	9.860655	0.496943	-0.031746	-0.003170	0.019142	-0.105957	-0.945312	-0.527832	0.412443	0.415824	-0.547579	-0.597611
62664		-0.437903	9.841009	0.573124	-0.036896	-0.001465	0.017406	-0.099365	-0.951172	-0.535645	0.412682	0.415502	-0.547529	-0.597715
62665		-0.458375	9.788174	0.462190	-0.010630	-0.011961	0.016671	-0.103271	-0.937012	-0.528320	0.412849	0.415304	-0.547572	-0.597698
62666		-0.418033	9.777472	0.375529	0.033312	-0.031155	0.007668	-0.101074	-0.939209	-0.531494	0.412680	0.415130	-0.547917	-0.597619
62667		-0.353480	9.898180	0.393029	0.038934	-0.032009	0.000998	-0.106201	-0.943848	-0.540527	0.412502	0.415046	-0.548228	-0.597515
62668		-0.310543	9.953953	0.509077	0.019944	-0.032173	-0.006305	-0.109131	-0.939941	-0.529541	0.412533	0.415033	-0.548307	-0.597431
62669		-0.367446	10.003225	0.525382	-0.012908	-0.029072	-0.013334	-0.102783	-0.939209	-0.529053	0.412485	0.414832	-0.548316	-0.597596
62670		-0.398042	9.943925	0.468016	-0.022608	-0.027766	-0.018956	-0.109375	-0.940430	-0.535156	0.412406	0.414623	-0.548262	-0.597844
62671		-0.373287	9.796917	0.519841	-0.011919	-0.026172	-0.017643	-0.105469	-0.934814	-0.530762	0.412443	0.414523	-0.548184	-0.597960
62672		-0.315196	9.708924	0.467522	0.012529	-0.035514	-0.017759	-0.113281	-0.947998	-0.535156	0.412269	0.414411	-0.548305	-0.598046
62673		-0.295165	9.769164	0.505391	0.020936	-0.029471	-0.023568	-0.109131	-0.936523	-0.533203	0.412127	0.414425	-0.548404	-0.598043
62674		-0.381486	9.844343	0.559215	0.021781	-0.024192	-0.030276	-0.111816	-0.931641	-0.528076	0.411983	0.414497	-0.548450	-0.598051
62675		-0.395780	9.794569	0.606829	0.044545	-0.014430	-0.039373	-0.095215	-0.942383	-0.533203	0.411700	0.414679	-0.548594	-0.597987
62676		-0.327132	9.748627	0.584609	0.095108	-0.025539	-0.044550	-0.113281	-0.945801	-0.534180	0.411135	0.415060	-0.548980	-0.597758
62677		-0.246318	9.758637	0.452141	0.081061	-0.023166	-0.051084	-0.111084	-0.943115	-0.524902	0.410749	0.415478	-0.549214	-0.597517
62678		-0.246946	9.846421	0.442088	0.072048	0.001960	-0.061701	-0.104980	-0.944824	-0.519043	0.410286	0.415926	-0.549392	-0.597360
62679		-0.344852	9.830546	0.621927	0.083621	0.028916	-0.062468	-0.109619	-0.938477	-0.527832	0.409750	0.416471	-0.549620	-0.597139
62680		-0.388294	9.817512	0.690743	0.084885	0.014541	-0.056000	-0.102539	-0.949463	-0.522949	0.409480	0.417085	-0.549737	-0.596788
62681		-0.351124	9.780110	0.428492	0.076180	-0.003370	-0.062494	-0.097900	-0.954834	-0.519531	0.408947	0.417535	-0.549949	-0.596644
62682		-0.325518	9.882032	0.315885	0.066968	0.004858	-0.071144	-0.102539	-0.946045	-0.518555	0.408336	0.417988	-0.550114	-0.596592
62683		-0.475091	9.967729	0.326367	0.017907	0.014476	-0.064365	-0.102051	-0.950684	-0.518799	0.408067	0.418313	-0.549983	-0.596669
62684		-0.557954	9.909678	0.342310	-0.020363	0.006700	-0.061362	-0.100586	-0.942627	-0.525146	0.407899	0.418457	-0.549706	-0.596939
62685		-0.561787	9.770881	0.358288	-0.007119	-0.002003	-0.060607	-0.100098	-0.947998	-0.525635	0.407821	0.418696	-0.549411	-0.597096
62686		-0.570761	9.732193	0.304557	-0.010966	-0.013779	-0.056254	-0.102783	-0.942871	-0.526367	0.407704	0.418842	-0.549164	-0.597301
62687		-0.630865	9.662859	0.294265	0.000838	-0.027958	-0.051428	-0.105713	-0.955322	-0.525635	0.407568	0.418955	-0.549009	-0.597456
62688		-0.694457	9.648929	0.234125	-0.008917	-0.038540	-0.041934	-0.100342	-0.944580	-0.522217	0.407405	0.418918	-0.548921	-0.597675
62689		-0.698040	9.706273	0.270396	-0.013938	-0.047460	-0.038522	-0.096436	-0.947998	-0.519531	0.407171	0.418753	-0.548881	-0.597986
62690		-0.630824	9.849849	0.353309	0.033797	-0.056748	-0.032073	-0.097656	-0.950195	-0.520020	0.406637	0.418615	-0.549202	-0.598152
62691		-0.494469	10.021983	0.449963	0.012187	-0.068241	-0.016670	-0.109619	-0.957275	-0.514404	0.406228	0.418292	-0.549493	-0.598388
62692		-0.383876	10.065126	0.492109	-0.069875	-0.062241	-0.022075	-0.094727	-0.947021	-0.522461	0.406025	0.417671	-0.549422	-0.599025
62693		-0.477996	9.780027	0.410158	-0.096237	-0.046663	-0.024957	-0.097168	-0.947998	-0.529053	0.406079	0.417152	-0.549039	-0.599700
62694		-0.565718	9.634705	0.415064	-0.032254	-0.057544	-0.019353	-0.103516	-0.942627	-0.523926	0.406013	0.416849	-0.548956	-0.600032
62695		-0.565783	9.589619	0.440643	-0.043484	-0.055942	-0.005941	-0.106445	-0.946533	-0.522217	0.406000	0.416384	-0.548918	-0.600398
62696		-0.542925	9.615095	0.313431	-0.030918	-0.053792	-0.009634	-0.108154	-0.944824	-0.518555	0.405871	0.415950	-0.548969	-0.600739
62697		-0.467526	9.696066	0.339080	0.044340	-0.075198	-0.023951	-0.103760	-0.947266	-0.527588	0.405230	0.415667	-0.549478	-0.600902
62698		-0.382561	9.984457	0.471668	0.053320	-0.081820	-0.024613	-0.105469	-0.944092	-0.525635	0.404708	0.415526	-0.549914	-0.600953
62699		-0.423665	10.080586	0.474510	-0.034975	-0.082145	-0.017706	-0.098877	-0.949219	-0.525146	0.404529	0.415046	-0.549934	-0.601387
62700		-0.482414	9.974010	0.399581	-0.094014	-0.079344	-0.015010	-0.105225	-0.950928	-0.521240	0.404473	0.414332	-0.549706	-0.602125
62701		-0.490145	9.854777	0.467433	-0.117270	-0.081245	-0.011115	-0.111572	-0.947998	-0.524170	0.404411	0.413435	-0.549459	-0.603007
62702		-0.542281	9.576187	0.400359	-0.103520	-0.078327	-0.003840	-0.116943	-0.942871	-0.531982	0.404434	0.412598	-0.549259	-0.603747
62703		-0.492736	9.515178	0.501708	-0.018099	-0.078526	-0.000693	-0.106201	-0.943359	-0.525391	0.404377	0.412142	-0.549383	-0.603984
62704		-0.388805	9.676824	0.548706	-0.005905	-0.078514	-0.001295	-0.123047	-0.933105	-0.527344	0.404026	0.411604	-0.549695	-0.604302
62705		-0.313879	9.764919	0.503330	-0.027305	-0.081989	-0.016667	-0.118408	-0.947021	-0.531982	0.403875	0.411118	-0.549764	-0.604670
62706		-0.388252	9.747298	0.461987	-0.020097	-0.078623	-0.025508	-0.112061	-0.940674	-0.522705	0.403656	0.410755	-0.549817	-0.605016
62707		-0.481769	9.798125	0.643155	-0.006935	-0.100062	-0.029692	-0.114990	-0.941162	-0.526367	0.403026	0.410191	-0.550135	-0.605529
62708		-0.446897	10.019654	0.660937	-0.055313	-0.105399	-0.016294	-0.115234	-0.937744	-0.528076	0.402709	0.409439	-0.550211	-0.606179
62709		-0.469720	10.036553	0.470354	-0.148558	-0.074105	-0.001987	-0.112549	-0.938232	-0.520508	0.402958	0.408484	-0.549736	-0.607088
62710		-0.533993	9.828366	0.537796	-0.184996	-0.075828	0.000714	-0.122070	-0.929932	-0.535156	0.403074	0.407228	-0.549249	-0.608294
62711		-0.682671	9.465015	0.607323	-0.130684	-0.108522	0.006027	-0.128174	-0.936768	-0.530518	0.403249	0.406161	-0.548953	-0.609158
62712		-0.695271	9.542899	0.518044	-0.107991	-0.123435	0.016335	-0.114502	-0.934082	-0.540527	0.403178	0.404952	-0.548965	-0.609999
62713		-0.672771	9.747576	0.513062	-0.117939	-0.155525	0.024741	-0.122559	-0.930664	-0.543457	0.403122	0.403608	-0.548963	-0.610928
62714		-0.530926	10.062531	0.569449	-0.126957	-0.164617	0.016209	-0.122070	-0.933594	-0.545654	0.403095	0.402255	-0.548879	-0.611913
62715		-0.499827	10.259773	0.713484	-0.213268	-0.151209	0.021187	-0.125244	-0.923828	-0.541016	0.403415	0.400655	-0.548335	-0.613238
62716		-0.522227	10.182729	0.617648	-0.261308	-0.158368	0.032116	-0.125488	-0.926025	-0.539307	0.403793	0.398705	-0.547686	-0.614838
62717		-0.355861	9.850955	1.076355	-0.242816	-0.117699	0.037925	-0.126709	-0.929688	-0.549072	0.404157	0.396905	-0.547107	-0.616277
62718		-0.333972	9.652648	0.968735	-0.265861	-0.137315	0.042896	-0.135010	-0.916016	-0.547119	0.404637	0.394987	-0.546419	-0.617802
62719		-0.178808	9.376565	0.671578	-0.263512	-0.111001	0.026776	-0.134033	-0.927002	-0.557129	0.405123	0.393228	-0.545630	-0.619302
62720		-0.263404	9.520177	0.844410	-0.173523	-0.124324	0.003637	-0.124756	-0.913086	-0.559082	0.405173	0.391871	-0.545235	-0.620476
62721		-0.229116	9.824057	0.952780	-0.128855	-0.106582	0.004345	-0.136230	-0.917969	-0.568604	0.405155	0.390755	-0.544993	-0.621404
62722		-0.343114	9.878873	1.149066	-0.159101	-0.093942	-0.003260	-0.133301	-0.918701	-0.558838	0.405443	0.389736	-0.544434	-0.622346
62723		-0.385927	10.131819	1.154425	-0.093028	-0.107103	-0.014408	-0.140381	-0.919922	-0.558350	0.405103	0.388756	-0.544392	-0.623215
62724		-0.400186	9.846944	1.296581	-0.059091	-0.065885	-0.023315	-0.143799	-0.910400	-0.563232	0.404786	0.388128	-0.544375	-0.623827
62725		-0.409635	9.685674	1.210536	-0.121749	-0.056702	-0.031463	-0.128418	-0.908691	-0.565674	0.404824	0.387439	-0.543891	-0.624652
62726		-0.401217	10.065007	0.381826	-0.131427	-0.102246	-0.042016	-0.135742	-0.913818	-0.561035	0.404574	0.386539	-0.543477	-0.625732
62727		-0.579263	9.662389	1.018246	0.001714	-0.108188	-0.073775	-0.131348	-0.913086	-0.562256	0.403572	0.386116	-0.543764	-0.626391
62728		-0.557551	9.604070	1.357363	0.074581	-0.113197	-0.093709	-0.142090	-0.916992	-0.563965	0.402234	0.386031	-0.544359	-0.626786
62729		-0.464542	10.413460	0.721751	-0.007824	-0.102269	-0.109635	-0.135010	-0.914795	-0.562500	0.401211	0.385822	-0.544404	-0.627531
62730		-0.386233	10.387486	1.152411	-0.040772	-0.067948	-0.110530	-0.145264	-0.912842	-0.566650	0.400415	0.385686	-0.544165	-0.628330
62731		-0.233755	10.029730	1.083052	-0.084451	-0.090044	-0.100807	-0.137207	-0.915527	-0.566406	0.399814	0.385265	-0.543758	-0.629322
62732		-0.174849	9.998893	0.885985	-0.119051	-0.056539	-0.121802	-0.143555	-0.915283	-0.570557	0.399307	0.384997	-0.543012	-0.630452
62733		-0.448604	9.773209	1.114281	-0.051912	-0.032663	-0.142439	-0.131592	-0.905273	-0.566406	0.398638	0.385180	-0.542451	-0.631246
62734		-0.549350	9.425326	0.909800	-0.111981	-0.085407	-0.148166	-0.136230	-0.905518	-0.563965	0.397842	0.384895	-0.541745	-0.632526
62735		-0.422183	9.177347	1.098111	-0.020320	-0.045063	-0.131111	-0.129883	-0.911377	-0.566895	0.396959	0.384999	-0.541488	-0.633238
62736		-0.362325	9.382364	0.854717	-0.013175	-0.017021	-0.114432	-0.135742	-0.899902	-0.575195	0.396284	0.385237	-0.541212	-0.633752
62737		-0.365618	9.471193	1.011861	0.030596	-0.015042	-0.101823	-0.129639	-0.914795	-0.563965	0.395739	0.385630	-0.541098	-0.633950
62738		-0.389819	9.181734	1.256241	0.022408	-0.060687	-0.083202	-0.134277	-0.909424	-0.570557	0.394862	0.385584	-0.541287	-0.634364
62739		-0.449030	9.227637	1.335260	0.088620	-0.095615	-0.071794	-0.133057	-0.911133	-0.560791	0.393820	0.385568	-0.541900	-0.634498
62740		-0.606914	9.511228	0.971139	0.107090	-0.064684	-0.054142	-0.130859	-0.916992	-0.566650	0.392819	0.385633	-0.542640	-0.634446
62741		-0.737198	9.830092	0.944184	0.061261	-0.077220	-0.024541	-0.132568	-0.912354	-0.564697	0.392164	0.385417	-0.543213	-0.634493
62742		-0.841234	9.426619	0.978821	0.014296	-0.048396	-0.002414	-0.127197	-0.918945	-0.564453	0.391918	0.385091	-0.543510	-0.634589
62743		-0.709402	9.374676	1.240631	0.089173	-0.128870	-0.011840	-0.136719	-0.909180	-0.557129	0.390997	0.384652	-0.544438	-0.634627
62744		-0.693341	9.785034	0.994904	0.119050	-0.086443	-0.000351	-0.136963	-0.919434	-0.556885	0.390184	0.384406	-0.545460	-0.634399
62745		-0.701554	9.745526	0.948733	0.183174	-0.094901	-0.002597	-0.128906	-0.910645	-0.554932	0.389103	0.384349	-0.546843	-0.633907
62746		-0.764551	9.562831	0.962865	0.130441	-0.088493	-0.014642	-0.134277	-0.918701	-0.559082	0.388244	0.384271	-0.547831	-0.633628
62747		-0.630177	10.182890	0.961642	0.242267	-0.097694	-0.025348	-0.135742	-0.917969	-0.549561	0.386970	0.384568	-0.549380	-0.632885
62748		-0.536490	10.357145	1.077314	0.238502	-0.099773	-0.050932	-0.148438	-0.920654	-0.551758	0.385496	0.384917	-0.550871	-0.632276
62749		-0.570230	10.461717	0.916269	0.161572	-0.046743	-0.088741	-0.133789	-0.925049	-0.541992	0.384350	0.385439	-0.551649	-0.631978
62750		-0.940273	10.099898	0.732787	0.032783	-0.040730	-0.122142	-0.131836	-0.917236	-0.546387	0.383410	0.385769	-0.551644	-0.632350
62751		-0.966800	9.093780	0.838168	0.091831	-0.014386	-0.119334	-0.138184	-0.921631	-0.543701	0.382520	0.386452	-0.551817	-0.632323
62752		-0.627536	9.344870	0.805382	0.225825	-0.032476	-0.083601	-0.135986	-0.927002	-0.543945	0.381240	0.387244	-0.552906	-0.631659
62753		-0.519680	10.341546	0.828011	0.218695	-0.035419	-0.060176	-0.144287	-0.933594	-0.541992	0.380134	0.387920	-0.554015	-0.630939
62754		-0.518103	10.789739	0.870162	0.089460	-0.031080	-0.057417	-0.138916	-0.931641	-0.535645	0.379447	0.388151	-0.554463	-0.630817
62755		-0.665681	10.533603	0.615212	-0.074367	-0.001528	-0.064953	-0.131592	-0.932373	-0.539795	0.379354	0.388057	-0.553946	-0.631384
62756		-0.907056	10.124191	0.696662	-0.093675	-0.031401	-0.086636	-0.131348	-0.935547	-0.529297	0.379130	0.387903	-0.553314	-0.632167
62757		-0.653549	9.906067	0.856397	-0.096177	-0.036367	-0.099854	-0.134521	-0.923340	-0.536377	0.378655	0.387705	-0.552735	-0.633079
62758		-0.419290	9.666819	1.073487	-0.067708	0.012342	-0.093412	-0.125977	-0.935547	-0.545410	0.378446	0.387831	-0.552120	-0.633663
62759		-0.599664	9.325520	0.584028	-0.112721	0.043035	-0.093767	-0.129395	-0.927734	-0.542480	0.378601	0.388068	-0.551117	-0.634298
62760		-0.645822	9.085397	0.502410	-0.036665	0.033102	-0.083922	-0.130615	-0.934570	-0.549561	0.378463	0.388389	-0.550614	-0.634621
62761		-0.618955	9.075740	0.738273	0.077658	0.031891	-0.058555	-0.124512	-0.936035	-0.537842	0.378119	0.388962	-0.550781	-0.634330
62762		-0.704358	9.876945	0.820729	0.029881	0.039937	-0.045257	-0.128662	-0.930908	-0.548340	0.377938	0.389351	-0.550767	-0.634212
62763		-0.734693	10.332562	0.720812	-0.093119	0.013349	-0.033064	-0.119385	-0.925781	-0.548096	0.378217	0.389172	-0.550161	-0.634681
62764		-0.699488	9.736481	0.849384	-0.107785	0.051500	0.005570	-0.129395	-0.924805	-0.551025	0.378966	0.389025	-0.549454	-0.634936
62765		-0.688050	9.065609	1.022947	-0.072929	0.084319	0.030855	-0.129883	-0.926025	-0.548828	0.379846	0.388981	-0.548937	-0.634885
62766		-0.746459	9.051134	0.797301	-0.163504	0.093552	0.065385	-0.120605	-0.927979	-0.551758	0.381194	0.388520	-0.548051	-0.635125
62767		-0.765913	9.298405	0.699023	-0.199908	0.088291	0.105776	-0.119385	-0.923096	-0.547363	0.382884	0.387798	-0.547091	-0.635377
62768		-0.695422	10.013329	0.760542	-0.118904	0.063001	0.148267	-0.125244	-0.922607	-0.549072	0.384357	0.386987	-0.546812	-0.635223
62769		-0.696206	10.763506	0.936126	-0.121506	0.071293	0.116715	-0.124512	-0.926514	-0.549072	0.385682	0.386326	-0.546404	-0.635173
62770		-0.828665	10.649631	1.358632	-0.102541	0.086946	0.024757	-0.135986	-0.915527	-0.557129	0.386503	0.386236	-0.545764	-0.635278
62771		-0.618148	9.886225	1.661949	-0.201118	0.147795	-0.068559	-0.132324	-0.918457	-0.561279	0.387458	0.386512	-0.544089	-0.635964
62772		-0.840119	9.447021	1.489172	-0.406640	0.165213	-0.079129	-0.130859	-0.913818	-0.568115	0.389095	0.386278	-0.541229	-0.637547
62773		-0.849617	9.444094	0.787636	-0.329469	0.118657	-0.007125	-0.125000	-0.914551	-0.570557	0.390649	0.385710	-0.539156	-0.638695
62774		-0.622010	9.626310	0.604705	-0.179209	0.082784	0.078112	-0.116943	-0.913330	-0.570068	0.392003	0.385087	-0.538273	-0.638986
62775		-0.424117	10.093216	1.244098	0.070607	0.112823	0.049426	-0.119141	-0.914551	-0.572754	0.392570	0.385634	-0.538509	-0.638109
62776		-0.590116	10.012912	2.002585	0.162206	0.263077	-0.075312	-0.116211	-0.914062	-0.575439	0.392867	0.387829	-0.538330	-0.636746
62777		-1.046597	9.808050	1.756984	0.121006	0.282956	-0.154751	-0.114502	-0.905029	-0.567627	0.393011	0.390357	-0.537579	-0.635746
62778		-0.765575	9.069949	0.700685	-0.167602	0.154015	-0.129964	-0.119629	-0.914795	-0.568848	0.393592	0.391092	-0.535828	-0.636412
62779		-0.369063	8.336631	0.700307	0.084055	0.068145	-0.026218	-0.115967	-0.912598	-0.566895	0.393393	0.391657	-0.536101	-0.635957
62780		-0.371295	9.214423	1.376314	0.325216	-0.008063	0.049988	-0.110596	-0.920654	-0.562988	0.392503	0.392294	-0.538130	-0.634399
62781		-0.585026	10.621330	0.945496	0.150291	-0.015117	0.032389	-0.122314	-0.916504	-0.571777	0.392117	0.392468	-0.539166	-0.633651
62782		-0.626479	10.538353	0.902440	0.034692	0.058075	-0.015673	-0.119873	-0.908203	-0.568604	0.392188	0.392781	-0.539189	-0.633392
62783		-0.762093	9.572932	1.308656	-0.041609	0.102139	0.039622	-0.112305	-0.919434	-0.564941	0.393022	0.392837	-0.538835	-0.633143
62784		-0.741747	8.978021	0.552037	-0.074127	0.066516	0.113274	-0.114502	-0.912109	-0.567871	0.394195	0.392343	-0.538664	-0.632865
62785		-0.725703	8.982840	0.636942	0.102970	0.058010	0.122491	-0.115234	-0.919678	-0.565430	0.394821	0.392333	-0.539471	-0.631792
62786		-0.701092	9.295748	0.995638	0.223730	0.025574	0.090831	-0.120605	-0.914795	-0.564453	0.394721	0.392704	-0.540926	-0.630379
62787		-0.642184	9.596373	1.326921	0.256925	0.044484	0.056736	-0.114014	-0.917725	-0.557129	0.394412	0.393392	-0.542381	-0.628892
62788		-0.713152	9.666536	1.032434	0.251453	0.024975	0.042945	-0.115723	-0.926758	-0.552734	0.394008	0.394093	-0.543797	-0.627482
62789		-0.695136	10.170063	0.587182	0.158617	0.042325	0.042264	-0.125977	-0.923340	-0.551758	0.393947	0.394574	-0.544686	-0.626446
62790		-0.808971	10.748601	0.689428	-0.020586	0.060460	0.081178	-0.111084	-0.923828	-0.551758	0.394679	0.394279	-0.544751	-0.626114
62791		-0.759083	10.251667	1.290704	0.041091	0.055534	0.088681	-0.117432	-0.920898	-0.552490	0.395395	0.394300	-0.545085	-0.625358
62792		-0.665695	9.240078	1.468197	0.133111	0.096522	0.086945	-0.117188	-0.924805	-0.554199	0.395941	0.394785	-0.545781	-0.624099
62793		-0.697677	10.033133	0.608315	-0.036574	0.095597	0.094436	-0.123779	-0.927979	-0.553955	0.397107	0.394687	-0.545604	-0.623574
62794		-0.623629	10.233580	0.146766	0.047683	0.042786	0.071466	-0.117920	-0.927979	-0.551758	0.397554	0.394635	-0.546010	-0.622967
62795		-0.447268	9.322679	0.858737	0.286963	0.093450	0.043359	-0.121094	-0.927734	-0.549561	0.397360	0.395837	-0.547360	-0.621139
62796		-0.543799	9.618513	1.349278	0.181748	0.106659	0.041207	-0.127930	-0.929932	-0.546875	0.397550	0.396735	-0.548119	-0.619775
62797		-0.576101	10.266326	0.403724	-0.025888	0.040665	0.023300	-0.115479	-0.936279	-0.550537	0.397951	0.396610	-0.548007	-0.619697
62798		-0.349296	9.771802	0.746328	0.171103	0.044974	0.015009	-0.121094	-0.935791	-0.546631	0.397825	0.397347	-0.548789	-0.618612
62799		-0.338218	9.799778	1.216583	0.162526	0.071953	0.045638	-0.119873	-0.931641	-0.545410	0.397940	0.397988	-0.549574	-0.617427
62800		-0.318707	9.802213	0.732368	0.010137	0.083625	0.038194	-0.119629	-0.930908	-0.537354	0.398617	0.398233	-0.549488	-0.616909
62801		-0.199526	9.418322	0.863329	0.191390	0.097076	0.005591	-0.116211	-0.939941	-0.545410	0.398519	0.399279	-0.550218	-0.615646
62802		-0.222148	9.450680	0.615348	0.181068	0.111432	0.026644	-0.119629	-0.935791	-0.531006	0.398733	0.400330	-0.550855	-0.614252
62803		-0.287403	10.115780	0.369549	0.090703	0.091108	0.047356	-0.115723	-0.927002	-0.540283	0.399126	0.400800	-0.551242	-0.613343
62804		-0.488196	10.430427	0.805447	0.004753	0.104514	0.039209	-0.123779	-0.931152	-0.542480	0.399999	0.401166	-0.551019	-0.612736
62805		-0.465505	9.620459	1.386186	0.065250	0.108406	0.020093	-0.119873	-0.931885	-0.534180	0.400510	0.401764	-0.551071	-0.611963
62806		-0.550453	9.437532	0.926282	0.056783	0.103649	0.011026	-0.122070	-0.935059	-0.541260	0.400940	0.402358	-0.551088	-0.611275
62807		-0.474519	10.005316	0.108891	0.007876	0.086793	0.003206	-0.124756	-0.939453	-0.535156	0.401457	0.402741	-0.550862	-0.610887
62808		-0.368461	9.906163	0.093673	0.134602	0.097966	0.003725	-0.128174	-0.940186	-0.531494	0.401494	0.403546	-0.551307	-0.609929
62809		-0.490206	9.775814	0.561624	0.140031	0.092126	0.008583	-0.113281	-0.933350	-0.532959	0.401454	0.404272	-0.551846	-0.608986
62810		-0.782633	10.076979	0.743924	-0.015467	0.063126	0.003779	-0.119141	-0.937012	-0.537842	0.401986	0.404509	-0.551559	-0.608738
62811		-0.685760	9.992192	0.916683	0.012486	0.030397	-0.011926	-0.119629	-0.942871	-0.532227	0.402163	0.404701	-0.551487	-0.608559
62812		-0.534777	9.861871	0.723292	0.041811	0.052868	0.004597	-0.120117	-0.942139	-0.529785	0.402346	0.405001	-0.551591	-0.608144
62813		-0.485737	9.909071	0.207343	-0.058455	0.062148	0.012354	-0.117432	-0.937744	-0.526123	0.402926	0.404962	-0.551195	-0.608145
62814		-0.439520	9.672981	0.314835	0.024310	0.064158	-0.003385	-0.113281	-0.940674	-0.531494	0.403146	0.405290	-0.551164	-0.607809
62815		-0.395558	9.461057	0.597288	0.060126	0.062387	0.005989	-0.118164	-0.939209	-0.530518	0.403370	0.405746	-0.551302	-0.607230
62816		-0.439270	9.833353	0.518147	-0.045031	0.019486	0.015588	-0.122314	-0.930664	-0.529541	0.403755	0.405536	-0.551112	-0.607288
62817		-0.401151	9.983343	0.655518	-0.089568	0.028130	0.017553	-0.116943	-0.936523	-0.542480	0.404310	0.405164	-0.550691	-0.607548
62818		-0.336029	9.832442	0.811469	-0.012097	0.070452	0.033214	-0.120361	-0.933350	-0.531982	0.405028	0.405298	-0.550484	-0.607168
62819		-0.385692	9.702506	0.702201	0.002769	0.042675	0.040068	-0.118652	-0.938721	-0.539795	0.405468	0.405233	-0.550548	-0.606860
62820		-0.283746	9.567984	0.442858	0.000970	0.066105	0.019866	-0.119629	-0.937744	-0.542480	0.406002	0.405428	-0.550406	-0.606502
62821		-0.342967	9.622658	0.542257	0.067708	0.059117	0.015971	-0.114258	-0.930908	-0.547119	0.406280	0.405832	-0.550599	-0.605869
62822		-0.250610	9.727649	0.458301	0.068442	0.018484	0.019786	-0.114746	-0.943848	-0.532959	0.406523	0.406093	-0.550868	-0.605287
62823		-0.301548	10.016414	0.577694	-0.002178	0.016640	0.021691	-0.114990	-0.934082	-0.535889	0.406812	0.406029	-0.550905	-0.605102
62824		-0.403280	9.958649	0.760955	-0.088023	0.048174	0.033942	-0.118408	-0.938477	-0.537842	0.407668	0.405795	-0.550403	-0.605139
62825		-0.625034	9.764661	0.845393	-0.059402	0.055679	0.044015	-0.118896	-0.938965	-0.537842	0.408471	0.405623	-0.550078	-0.605009
62826		-0.512341	9.590017	0.738080	-0.008959	0.054505	0.037748	-0.122314	-0.936279	-0.532471	0.409047	0.405638	-0.550000	-0.604681
62827		-0.348474	9.546855	0.552096	0.029606	0.051177	0.024895	-0.117676	-0.938232	-0.537109	0.409326	0.405766	-0.550135	-0.604283
62828		-0.267864	9.817005	0.525340	0.075970	0.037044	0.005463	-0.117920	-0.933105	-0.540527	0.409380	0.406141	-0.550430	-0.603726
62829		-0.196839	10.009631	0.644129	0.059764	0.052616	0.003248	-0.111816	-0.933105	-0.539551	0.409625	0.406576	-0.550539	-0.603167
62830		-0.369194	10.195832	0.853822	-0.001308	0.076339	0.001640	-0.110840	-0.934326	-0.535645	0.410223	0.406978	-0.550226	-0.602775
62831		-0.470591	10.399964	0.780704	-0.108595	0.072490	-0.014526	-0.116455	-0.924561	-0.541748	0.411028	0.407041	-0.549365	-0.602968
62832		-0.438604	10.045550	0.591703	-0.133014	0.071626	-0.020384	-0.107422	-0.931396	-0.536377	0.411932	0.407030	-0.548338	-0.603295
62833		-0.515987	9.570956	0.424406	0.011526	0.036747	-0.028546	-0.115723	-0.937500	-0.534424	0.412058	0.407374	-0.548176	-0.603123
62834		-0.475842	9.389932	0.326290	0.147287	-0.003578	-0.046909	-0.121826	-0.941650	-0.529297	0.411326	0.407976	-0.548844	-0.602608
62835		-0.456579	9.645011	0.241650	0.177065	0.004113	-0.055058	-0.109863	-0.932129	-0.528809	0.410388	0.408682	-0.549664	-0.602022
62836		-0.423858	9.924193	0.644736	0.154862	0.028113	-0.054492	-0.118408	-0.942871	-0.532227	0.409806	0.409547	-0.550193	-0.601347
62837		-0.342470	10.155773	0.951203	0.112061	0.038176	-0.055983	-0.114746	-0.937012	-0.530518	0.409380	0.410285	-0.550483	-0.600868
62838		-0.255578	10.156811	0.691332	0.008575	0.050782	-0.045585	-0.107910	-0.946289	-0.531738	0.409466	0.410710	-0.550220	-0.600760
62839		-0.197325	9.848472	0.333461	-0.047339	0.048240	-0.031834	-0.108887	-0.937012	-0.529053	0.409820	0.410917	-0.549717	-0.600838
62840		-0.218044	9.649908	0.472492	-0.006678	0.065406	-0.032550	-0.103027	-0.936035	-0.539551	0.410086	0.411318	-0.549373	-0.600697
62841		-0.241977	9.615472	0.702187	-0.019161	0.064125	-0.029351	-0.111816	-0.940918	-0.534912	0.410594	0.411776	-0.548868	-0.600498
62842		-0.385353	9.709257	0.594212	-0.021797	0.044289	-0.034896	-0.112061	-0.929199	-0.532715	0.410827	0.412032	-0.548498	-0.600501
62843		-0.470142	9.684439	0.584384	-0.021958	0.048803	-0.025206	-0.110596	-0.937744	-0.530029	0.411136	0.412248	-0.548144	-0.600464
62844		-0.530450	9.659536	0.534066	0.010118	0.054537	-0.010564	-0.111328	-0.935547	-0.539062	0.411347	0.412503	-0.548030	-0.600247
62845		-0.444232	9.784686	0.236762	0.015560	0.021878	-0.016772	-0.104492	-0.934082	-0.536621	0.411506	0.412718	-0.547948	-0.600067
62846		-0.342141	9.757323	0.484592	0.015946	0.022903	-0.012232	-0.104492	-0.940674	-0.540771	0.411703	0.412946	-0.547870	-0.599846
62847		-0.388376	9.597941	0.689341	0.018367	0.038197	-0.001120	-0.117676	-0.944580	-0.531250	0.412056	0.413240	-0.547765	-0.599497
62848		-0.444404	9.808108	0.635292	0.001351	0.003400	0.004061	-0.103760	-0.944824	-0.533203	0.412083	0.413095	-0.547866	-0.599486
62849		-0.350815	9.898424	0.533856	-0.042263	0.004474	0.012028	-0.116211	-0.940674	-0.538574	0.412415	0.412879	-0.547702	-0.599556
62850		-0.445452	9.767667	0.506156	-0.042732	0.018058	0.020861	-0.109375	-0.936768	-0.529541	0.412885	0.412664	-0.547506	-0.599560
62851		-0.471197	9.734813	0.516440	-0.013179	-0.009687	0.016191	-0.115479	-0.945312	-0.536133	0.412994	0.412384	-0.547602	-0.599590
62852		-0.365443	9.704257	0.523565	-0.010873	-0.008163	0.015791	-0.111816	-0.940674	-0.539307	0.413135	0.412141	-0.547680	-0.599588
62853		-0.359187	9.758149	0.515100	0.000378	-0.013655	0.011403	-0.113281	-0.938721	-0.531982	0.413285	0.411990	-0.547761	-0.599514
62854		-0.386389	9.943234	0.605645	-0.008610	-0.014560	0.003573	-0.120605	-0.939209	-0.535645	0.413303	0.411763	-0.547847	-0.599580
62855		-0.444944	9.987126	0.560046	-0.011690	-0.011196	0.007139	-0.114502	-0.938721	-0.538330	0.413386	0.411518	-0.547907	-0.599636
62856		-0.447806	9.827890	0.491430	-0.002132	-0.013766	0.009811	-0.110596	-0.936768	-0.534668	0.413514	0.411346	-0.547985	-0.599594
62857		-0.425758	9.746047	0.576340	0.032571	-0.005706	-0.002301	-0.111816	-0.932373	-0.541016	0.413468	0.411381	-0.548185	-0.599419
62858		-0.348697	9.842189	0.652080	0.026383	0.013188	-0.017561	-0.117920	-0.938477	-0.545410	0.413585	0.411627	-0.548158	-0.599194
62859		-0.293168	10.128625	0.603950	0.001661	0.010401	-0.037162	-0.117432	-0.940186	-0.540527	0.413703	0.411872	-0.547934	-0.599149
62860		-0.357067	9.998271	0.655137	0.003629	0.019419	-0.034138	-0.114258	-0.933350	-0.537598	0.413781	0.412105	-0.547753	-0.599101
62861		-0.478350	9.720818	0.659709	0.019573	0.021661	-0.031927	-0.105713	-0.940674	-0.534668	0.413817	0.412385	-0.547657	-0.598971
62862		-0.489769	9.663845	0.601946	0.021317	0.014330	-0.035709	-0.104004	-0.939453	-0.537354	0.413738	0.412650	-0.547611	-0.598884
62863		-0.401478	9.791262	0.569747	0.014607	0.019366	-0.047232	-0.115723	-0.948242	-0.537598	0.413714	0.413012	-0.547435	-0.598813
62864		-0.355426	9.901381	0.536652	0.015216	0.021330	-0.056112	-0.105713	-0.939453	-0.535645	0.413572	0.413359	-0.547274	-0.598819
62865		-0.302815	9.843820	0.546580	0.039579	0.010836	-0.049567	-0.105957	-0.941406	-0.542725	0.413373	0.413742	-0.547267	-0.598698
62866		-0.368214	9.808939	0.499229	0.045133	0.004868	-0.039556	-0.110107	-0.942139	-0.531250	0.413314	0.414155	-0.547259	-0.598460
62867		-0.411659	9.780790	0.523545	0.016689	0.001822	-0.042459	-0.108887	-0.929932	-0.536133	0.413096	0.414313	-0.547251	-0.598509
62868		-0.435344	9.885248	0.477882	-0.010922	-0.006873	-0.037393	-0.117676	-0.936279	-0.536621	0.413128	0.414397	-0.547054	-0.598609
62869		-0.334054	9.827096	0.420417	-0.027776	-0.011706	-0.031859	-0.107422	-0.938965	-0.537109	0.413172	0.414331	-0.546840	-0.598819
62870		-0.342287	9.708314	0.473949	-0.016614	-0.029996	-0.027925	-0.109131	-0.935791	-0.536133	0.413126	0.414231	-0.546747	-0.599005
62871		-0.365468	9.680377	0.448080	-0.011799	-0.038002	-0.026998	-0.110352	-0.944336	-0.537354	0.413017	0.414085	-0.546719	-0.599207
62872		-0.465295	9.712247	0.529352	-0.016772	-0.043835	-0.019182	-0.108398	-0.943604	-0.527100	0.412913	0.413855	-0.546726	-0.599432
62873		-0.466073	9.674462	0.657288	0.001360	-0.042002	-0.016516	-0.105469	-0.928467	-0.535889	0.412553	0.413548	-0.546955	-0.599681
62874		-0.424869	9.647400	0.675621	0.026237	-0.053077	-0.014159	-0.112061	-0.936035	-0.530029	0.412343	0.413419	-0.547194	-0.599698
62875		-0.363339	9.624096	0.513802	0.053993	-0.038247	-0.008886	-0.113037	-0.941650	-0.532227	0.411966	0.413328	-0.547637	-0.599614
62876		-0.414088	9.625857	0.557120	0.100237	-0.039692	-0.004236	-0.112061	-0.941895	-0.529297	0.411483	0.413399	-0.548308	-0.599283
62877		-0.385892	9.921707	0.621845	0.065080	-0.053441	-0.011257	-0.107422	-0.942627	-0.540527	0.411003	0.413302	-0.548839	-0.599195
62878		-0.371532	9.936548	0.589645	0.027253	-0.046380	-0.010632	-0.108887	-0.943359	-0.526855	0.410946	0.413287	-0.548998	-0.599098
62879		-0.413983	9.811114	0.620398	0.071095	-0.032584	-0.000417	-0.111328	-0.943115	-0.528809	0.410575	0.413262	-0.549533	-0.598879
62880		-0.395890	9.804358	0.443987	0.068960	-0.051390	-0.001368	-0.111328	-0.933350	-0.534912	0.410187	0.413179	-0.550079	-0.598701
62881		-0.397391	9.949564	0.270252	0.024537	-0.061120	-0.010251	-0.114502	-0.945312	-0.526367	0.410067	0.413053	-0.550285	-0.598681
62882		-0.429420	9.864263	0.468419	-0.022273	-0.051010	-0.006099	-0.116699	-0.944824	-0.535400	0.409940	0.412659	-0.550377	-0.598955
62883		-0.543777	9.787952	0.651313	-0.044765	-0.038200	0.001890	-0.117188	-0.951172	-0.532959	0.410177	0.412337	-0.550226	-0.599153
62884		-0.563647	9.822739	0.408896	-0.047350	-0.061175	0.004985	-0.122314	-0.940918	-0.529297	0.410232	0.411823	-0.550210	-0.599484
62885		-0.421776	9.756848	0.428099	0.001399	-0.078293	0.007672	-0.110840	-0.941650	-0.538086	0.410007	0.411320	-0.550540	-0.599680
62886		-0.430516	9.741855	0.473018	0.006285	-0.064386	0.004339	-0.125488	-0.935547	-0.525635	0.410012	0.411079	-0.550707	-0.599688
62887		-0.534844	9.939542	0.625638	-0.008999	-0.063339	-0.003671	-0.118896	-0.948730	-0.530762	0.409787	0.410622	-0.550927	-0.599953
62888		-0.504639	10.074093	0.657370	-0.026079	-0.048024	-0.015909	-0.127441	-0.943848	-0.523926	0.409675	0.410311	-0.550929	-0.600241
62889		-0.448226	9.938726	0.663985	-0.031791	-0.055276	-0.020991	-0.126465	-0.936035	-0.526123	0.409384	0.409847	-0.551001	-0.600690
62890		-0.295640	9.963676	0.491192	-0.053404	-0.061677	-0.036738	-0.128418	-0.941162	-0.531250	0.409137	0.409392	-0.550887	-0.601272
62891		-0.200069	9.865765	0.480799	-0.057226	-0.012641	-0.039375	-0.112305	-0.936768	-0.538330	0.409185	0.409235	-0.550534	-0.601669
62892		-0.356800	9.750032	0.705179	-0.015410	-0.001308	-0.043806	-0.121338	-0.946533	-0.532715	0.409276	0.409427	-0.550236	-0.601750
62893		-0.485868	9.638784	0.669164	0.019953	-0.038075	-0.053903	-0.125000	-0.939209	-0.530762	0.408847	0.409482	-0.550315	-0.601932
62894		-0.397747	9.643247	0.479742	0.018054	-0.042208	-0.056792	-0.120361	-0.939941	-0.532959	0.408395	0.409502	-0.550392	-0.602155
62895		-0.278220	9.874459	0.364851	0.013115	-0.040445	-0.060803	-0.119629	-0.943848	-0.534912	0.407999	0.409577	-0.550391	-0.602373
62896		-0.238229	10.058607	0.558210	0.029572	-0.023455	-0.055674	-0.122314	-0.935547	-0.522217	0.407683	0.409800	-0.550410	-0.602418
62897		-0.312017	9.830720	0.596113	0.024606	-0.034898	-0.054788	-0.125977	-0.945557	-0.528809	0.407100	0.409760	-0.550595	-0.602670
62898		-0.382735	9.738171	0.685407	-0.027967	-0.036845	-0.062829	-0.127930	-0.943115	-0.526367	0.406763	0.409661	-0.550422	-0.603123
62899		-0.406375	9.650573	0.654059	-0.098478	-0.053661	-0.057762	-0.123535	-0.941895	-0.531006	0.406565	0.409171	-0.550002	-0.603972
62900		-0.382448	9.568761	0.498792	-0.115673	-0.021488	-0.053960	-0.123291	-0.940674	-0.532959	0.406661	0.408821	-0.549353	-0.604734
62901		-0.392996	9.452976	0.607399	-0.073498	-0.012776	-0.041495	-0.116211	-0.929199	-0.533447	0.406721	0.408603	-0.548928	-0.605227
62902		-0.429083	9.666449	0.499361	-0.117432	-0.034712	-0.027745	-0.120605	-0.945312	-0.531006	0.406930	0.408076	-0.548384	-0.605935
62903		-0.422823	9.799232	0.432476	-0.217392	-0.051739	-0.026284	-0.117676	-0.941406	-0.535400	0.407239	0.407029	-0.547492	-0.607236
62904		-0.520303	9.673780	0.763953	-0.165118	-0.091940	-0.040893	-0.115967	-0.920654	-0.548828	0.407147	0.406048	-0.546928	-0.608463
62905		-0.595733	9.479951	1.026664	-0.142608	-0.093528	-0.019868	-0.121826	-0.932617	-0.547607	0.407392	0.405212	-0.546373	-0.609353
62906		-0.728026	9.437459	0.816669	-0.144334	-0.079858	0.029596	-0.123291	-0.927002	-0.546875	0.407830	0.404146	-0.546001	-0.610101
62907		-0.759935	9.746996	0.563423	-0.111081	-0.124493	0.062511	-0.122314	-0.934570	-0.546387	0.408077	0.402781	-0.546086	-0.610762
62908		-0.618104	10.220128	0.604817	-0.124352	-0.156233	0.069297	-0.117676	-0.923828	-0.543701	0.408170	0.401142	-0.546278	-0.611606
62909		-0.420018	10.299301	0.537618	-0.141627	-0.153445	0.073476	-0.126709	-0.927734	-0.545410	0.408301	0.399401	-0.546415	-0.612536
62910		-0.299985	9.987120	1.366424	-0.263288	-0.087141	0.076319	-0.128906	-0.921143	-0.551758	0.409128	0.397553	-0.545726	-0.613799
62911		-0.224875	9.751148	1.270237	-0.261464	-0.099244	0.070889	-0.129639	-0.921875	-0.558594	0.409937	0.395712	-0.545026	-0.615070
62912		-0.272290	9.503392	1.060471	-0.195943	-0.122696	0.070728	-0.133057	-0.921631	-0.561035	0.410465	0.394012	-0.544709	-0.616088
62913		-0.275353	9.700662	0.434755	-0.134024	-0.135531	0.046067	-0.146729	-0.913330	-0.566406	0.410589	0.392561	-0.544680	-0.616957
62914		-0.310008	9.995979	0.775451	-0.168489	-0.059212	0.034595	-0.135986	-0.916016	-0.562012	0.411219	0.391466	-0.544122	-0.617725
62915		-0.450265	9.147186	1.292083	-0.170848	-0.083702	0.043619	-0.141357	-0.915527	-0.563965	0.411628	0.390125	-0.543748	-0.618630
62916		-0.291256	9.286133	0.688821	-0.023067	-0.205425	0.046969	-0.146973	-0.913818	-0.562500	0.411006	0.388632	-0.544572	-0.619258
62917		-0.150296	9.842627	0.550416	0.058420	-0.153123	0.071677	-0.141846	-0.914795	-0.562256	0.410464	0.387555	-0.545728	-0.619275
62918		-0.450476	10.221520	1.078308	-0.056624	-0.113129	0.083291	-0.156982	-0.903564	-0.564941	0.410558	0.386269	-0.546174	-0.619623
62919		-0.447350	10.383797	1.154429	-0.115042	-0.152666	0.069861	-0.160889	-0.903564	-0.567383	0.410671	0.384644	-0.546371	-0.620384
62920		-0.308261	9.955323	0.936635	-0.103130	-0.144804	0.051695	-0.157715	-0.898682	-0.564697	0.410699	0.383190	-0.546537	-0.621119
62921		-0.180413	9.584564	0.960869	-0.084563	-0.127263	0.047456	-0.162109	-0.908447	-0.566895	0.410671	0.381880	-0.546753	-0.621754
62922		-0.083956	9.161610	1.050541	-0.062006	-0.124816	0.043961	-0.160645	-0.904541	-0.570068	0.410535	0.380674	-0.547076	-0.622299
62923		0.044650	9.391989	1.311750	0.112739	-0.087593	0.027189	-0.165039	-0.901611	-0.570312	0.409991	0.380377	-0.548090	-0.621947
62924		-0.137413	9.975513	1.409833	0.152170	-0.071017	-0.009126	-0.156006	-0.911621	-0.565186	0.409263	0.380485	-0.549108	-0.621462
62925		-0.058190	10.580632	0.871778	0.160858	-0.034461	-0.066947	-0.160889	-0.910156	-0.559082	0.408297	0.381065	-0.549898	-0.621043
62926		-0.007314	10.696695	1.239038	0.105889	0.031284	-0.126226	-0.154297	-0.914062	-0.558838	0.407442	0.382017	-0.550025	-0.620908
62927		0.012723	10.140846	0.923964	-0.035593	0.065988	-0.163635	-0.154053	-0.908203	-0.569824	0.407023	0.382867	-0.549168	-0.621417
62928		-0.413272	9.793696	0.904674	0.025157	-0.006655	-0.173311	-0.158203	-0.909912	-0.553955	0.406232	0.383699	-0.548733	-0.621806
62929		-0.431003	9.168298	0.456539	0.050008	-0.061072	-0.159349	-0.158936	-0.913574	-0.556885	0.404889	0.384075	-0.548815	-0.622377
62930		-0.302122	9.387137	0.852625	0.201745	-0.055256	-0.118913	-0.151123	-0.908203	-0.554932	0.403350	0.384843	-0.549762	-0.622066
62931		-0.331979	10.320175	0.903793	0.164224	-0.036290	-0.087328	-0.155273	-0.915771	-0.551758	0.402249	0.385478	-0.550516	-0.621720
62932		-0.327322	10.594360	1.158746	0.045506	-0.006521	-0.113531	-0.153809	-0.919189	-0.555664	0.401484	0.385962	-0.550493	-0.621934
62933		-0.192483	9.651027	0.831870	-0.093606	0.038410	-0.138977	-0.148193	-0.918213	-0.562988	0.401307	0.386376	-0.549478	-0.622688
62934		-0.275331	9.335778	0.540199	0.045262	0.001359	-0.131014	-0.142334	-0.922852	-0.555176	0.400659	0.387095	-0.549277	-0.622837
62935		-0.260364	9.095568	0.797893	0.226800	-0.067422	-0.134496	-0.151123	-0.915283	-0.548096	0.398965	0.388020	-0.550299	-0.622446
62936		-0.567807	9.324095	0.918885	0.163368	-0.037391	-0.116567	-0.141357	-0.918945	-0.545654	0.397664	0.388738	-0.550977	-0.622229
62937		-0.751277	9.902237	1.003901	0.136501	0.006821	-0.093843	-0.145020	-0.926025	-0.545410	0.396786	0.389526	-0.551431	-0.621896
62938		-0.747519	10.091643	0.916506	0.172988	0.040724	-0.084863	-0.138428	-0.929688	-0.541748	0.395988	0.390565	-0.551990	-0.621257
62939		-0.686660	10.249129	0.842678	0.108573	0.053384	-0.095059	-0.131348	-0.921143	-0.542969	0.395393	0.391513	-0.552143	-0.620902
62940		-0.650660	9.971044	0.907766	0.047203	0.059299	-0.073613	-0.145508	-0.930908	-0.544434	0.395230	0.392241	-0.551981	-0.620691
62941		-0.729868	9.733180	0.774326	-0.015881	0.005144	-0.033091	-0.137695	-0.920410	-0.552002	0.395187	0.392246	-0.551828	-0.620852
62942		-0.788566	9.657834	0.846048	-0.021903	-0.033191	-0.015570	-0.134766	-0.934570	-0.541748	0.395247	0.392049	-0.551738	-0.621018
62943		-0.622318	10.023122	0.779641	0.000532	-0.053299	0.003474	-0.138428	-0.923340	-0.547119	0.395032	0.391650	-0.551997	-0.621175
62944		-0.407055	9.951154	0.862854	-0.033399	-0.002861	0.009819	-0.134521	-0.926025	-0.548096	0.395311	0.391411	-0.551877	-0.621255
62945		-0.396665	9.581335	0.690728	0.000442	0.108051	-0.028825	-0.132812	-0.924072	-0.543701	0.395797	0.392057	-0.551434	-0.620932
62946		-0.503686	9.060654	0.795769	-0.022026	0.131425	-0.062210	-0.133057	-0.922852	-0.548096	0.396224	0.392861	-0.550724	-0.620781
62947		-0.415631	9.071310	0.478707	0.066345	0.067752	-0.030200	-0.140381	-0.926270	-0.546143	0.396292	0.393506	-0.550756	-0.620300
62948		-0.232384	9.698369	0.592973	0.056583	0.018229	0.044847	-0.142822	-0.922363	-0.546387	0.396504	0.393476	-0.551175	-0.619813
62949		-0.379325	10.258177	0.999456	0.019398	0.025557	0.082941	-0.145020	-0.922607	-0.536133	0.397094	0.393189	-0.551489	-0.619337
62950		-0.575385	10.337575	0.730844	-0.128602	0.010612	0.084055	-0.140381	-0.922607	-0.541016	0.397943	0.392232	-0.551181	-0.619673
62951		-0.490010	9.695937	0.485723	-0.198054	0.029598	0.064208	-0.134033	-0.918457	-0.547607	0.399061	0.391285	-0.550351	-0.620291
62952		-0.287385	9.125733	0.661793	-0.152685	0.015439	0.070365	-0.140381	-0.915039	-0.552246	0.400078	0.390448	-0.549776	-0.620673
62953		-0.377921	9.463465	0.715496	-0.024136	0.017150	0.088653	-0.142090	-0.924316	-0.551758	0.400803	0.389962	-0.549908	-0.620394
62954		-0.556054	10.062665	0.684138	-0.040879	0.057498	0.083060	-0.139648	-0.926025	-0.552490	0.401690	0.389645	-0.549821	-0.620096
62955		-0.532123	10.638674	1.001486	-0.152025	0.094869	0.063314	-0.145752	-0.916016	-0.551270	0.403009	0.389252	-0.548968	-0.620243
62956		-0.483232	10.061447	1.786842	-0.212956	0.140015	-0.002274	-0.141113	-0.915771	-0.556885	0.404343	0.389130	-0.547463	-0.620781
62957		-0.475270	10.058933	1.061016	-0.004701	0.050883	-0.058627	-0.139648	-0.915527	-0.554932	0.404339	0.389537	-0.547130	-0.620821
62958		-0.381269	9.954400	0.668501	-0.185814	0.101820	-0.049820	-0.142334	-0.912598	-0.573975	0.405171	0.389541	-0.545733	-0.621507
62959		-0.459511	9.708616	0.309750	-0.257670	0.078893	0.042279	-0.142334	-0.906006	-0.565918	0.406824	0.388870	-0.544223	-0.622171
62960		-0.572817	9.672615	0.803735	-0.187855	0.054859	0.094930	-0.140625	-0.910889	-0.563232	0.408253	0.387975	-0.543411	-0.622503
62961		-0.311186	10.122248	1.511491	-0.107687	0.102768	0.031396	-0.142090	-0.914551	-0.576172	0.409212	0.387854	-0.542694	-0.622574
62962		-0.266776	10.424959	1.865427	0.103144	0.147313	-0.086388	-0.137207	-0.920654	-0.567139	0.409216	0.389297	-0.542462	-0.621872
62963		-0.238114	9.704571	1.963723	0.191249	0.290869	-0.191401	-0.133057	-0.911865	-0.562744	0.408916	0.392205	-0.541915	-0.620718
62964		-0.429386	8.029223	0.428680	-0.045937	0.280202	-0.167537	-0.127197	-0.912354	-0.567139	0.409465	0.394116	-0.540255	-0.620593
62965		-0.342366	7.654957	-0.047645	0.019599	0.097241	-0.027820	-0.123535	-0.909180	-0.570068	0.409743	0.394703	-0.539989	-0.620268
62966		-0.266533	8.900184	0.592839	0.251602	-0.056021	0.101305	-0.134521	-0.913574	-0.561279	0.409297	0.394743	-0.541836	-0.618925
62967		-0.338240	10.728497	1.189974	0.304537	-0.123215	0.089747	-0.130127	-0.917969	-0.552002	0.408199	0.394587	-0.544204	-0.617670
62968		-0.719092	12.199168	1.355448	0.011159	-0.067937	0.018863	-0.134277	-0.915039	-0.554688	0.407920	0.394043	-0.544654	-0.617805
62969		-0.545464	11.358245	1.069052	-0.220695	-0.015760	-0.005420	-0.138428	-0.909668	-0.566406	0.408549	0.393096	-0.543634	-0.618891
62970		-0.275168	9.158196	1.135221	-0.355202	0.010681	0.071323	-0.135010	-0.903320	-0.565430	0.410229	0.391511	-0.542026	-0.620193
62971		-0.268792	8.158088	0.750897	-0.208539	0.008191	0.124302	-0.139404	-0.908936	-0.568604	0.411640	0.390154	-0.541382	-0.620676
62972		-0.315743	8.512228	0.757575	0.121423	-0.000626	0.078457	-0.140137	-0.915283	-0.569580	0.411665	0.390080	-0.542339	-0.619869
62973		-0.430973	9.491599	1.068674	0.446396	-0.004983	-0.029004	-0.134766	-0.916992	-0.560059	0.410080	0.391607	-0.544622	-0.617952
62974		-0.474040	10.397734	1.039624	0.466344	0.057502	-0.098894	-0.132080	-0.923340	-0.553955	0.408349	0.393845	-0.546558	-0.615964
62975		-0.544122	10.809771	0.779830	0.217827	0.115200	-0.089426	-0.132568	-0.922852	-0.543457	0.407752	0.395500	-0.547041	-0.614870
62976		-0.489542	9.953132	0.875092	0.152952	0.116200	-0.052404	-0.133301	-0.922363	-0.546875	0.407464	0.396706	-0.547362	-0.613997
62977		-0.322248	9.249129	1.392654	0.256705	0.121158	0.003356	-0.128662	-0.926514	-0.549072	0.407200	0.398053	-0.548348	-0.612419
62978		-0.434788	10.233707	0.600336	-0.013423	0.077292	0.056380	-0.132812	-0.929199	-0.553955	0.407986	0.398076	-0.548230	-0.611986
62979		-0.506367	10.716032	0.209694	-0.059140	0.035208	0.042166	-0.128418	-0.916016	-0.552002	0.408683	0.397799	-0.547962	-0.611942
62980		-0.274721	9.456839	0.743022	0.053700	0.075213	0.015275	-0.132568	-0.926025	-0.551758	0.409072	0.398235	-0.548034	-0.611332
62981		-0.228488	9.248271	1.049143	0.009822	0.079574	0.019423	-0.130371	-0.930908	-0.551270	0.409606	0.398509	-0.547903	-0.610914
62982		-0.235437	9.578493	0.368894	-0.028797	0.056837	0.023610	-0.131104	-0.927246	-0.550781	0.410179	0.398528	-0.547667	-0.610728
62983		-0.272617	9.567731	0.677411	0.075903	0.058011	0.044335	-0.134277	-0.923828	-0.544922	0.410506	0.398803	-0.548035	-0.609998
62984		-0.228888	10.034588	1.116144	0.088701	0.053349	0.042801	-0.132324	-0.927002	-0.550049	0.410697	0.399056	-0.548516	-0.609272
62985		-0.099555	9.898801	0.879615	0.064193	0.082867	0.018508	-0.147461	-0.930420	-0.546875	0.411064	0.399541	-0.548643	-0.608592
62986		-0.153740	9.462693	0.985432	0.163909	0.111563	-0.010613	-0.136719	-0.930420	-0.547119	0.410963	0.400543	-0.549146	-0.607547
62987		-0.425431	9.800443	0.813396	0.119313	0.099543	0.009781	-0.140381	-0.927979	-0.550293	0.411145	0.401308	-0.549483	-0.606614
62988		-0.301454	9.816365	0.690957	0.179002	0.092049	0.003107	-0.130859	-0.933350	-0.541992	0.411095	0.402269	-0.550105	-0.605446
62989		-0.237813	9.600060	0.901539	0.216645	0.119635	0.006589	-0.119873	-0.935059	-0.541992	0.411038	0.403505	-0.550843	-0.603990
62990		-0.280950	9.926112	0.674603	0.073088	0.122967	0.013948	-0.128418	-0.935303	-0.545410	0.411602	0.404306	-0.550819	-0.603091
62991		-0.353120	10.044639	0.526569	0.043457	0.115730	0.011012	-0.133301	-0.936768	-0.537598	0.412220	0.404955	-0.550660	-0.602378
62992		-0.345933	9.733307	0.688581	0.058026	0.115265	0.025486	-0.124512	-0.928223	-0.540771	0.412744	0.405513	-0.550689	-0.601617
62993		-0.498998	9.782610	0.690315	0.036327	0.103986	0.035540	-0.129150	-0.932129	-0.535889	0.413442	0.405952	-0.550626	-0.600899
62994		-0.505715	9.926787	0.614951	0.045190	0.063467	0.020631	-0.126465	-0.931885	-0.534668	0.413764	0.406237	-0.550743	-0.600378
62995		-0.356730	9.764103	0.485420	0.096129	0.046283	0.005847	-0.119141	-0.934570	-0.540527	0.413765	0.406688	-0.551120	-0.599725
62996		-0.167325	9.506581	0.646736	0.130502	0.063297	0.003771	-0.129883	-0.929688	-0.529785	0.413832	0.407437	-0.551535	-0.598788
62997		-0.152903	9.736813	0.341135	0.103277	0.067393	-0.001725	-0.129150	-0.933350	-0.528564	0.413837	0.408018	-0.551868	-0.598082
62998		-0.178133	10.143943	0.300687	0.057375	0.075854	-0.006001	-0.126465	-0.939697	-0.532471	0.414014	0.408508	-0.551928	-0.597569
62999		-0.205427	10.077087	0.604485	0.070406	0.081066	-0.009449	-0.128662	-0.936768	-0.537109	0.414207	0.409131	-0.551989	-0.596953
63000		-0.414189	9.837127	0.791830	0.032638	0.079476	-0.006099	-0.121826	-0.945068	-0.539795	0.414599	0.409618	-0.551846	-0.596479
63001		-0.395236	9.892871	0.599671	0.036482	0.050742	-0.028478	-0.128906	-0.938965	-0.537598	0.414781	0.410137	-0.551711	-0.596120
