// Start Time: Unknown
// Update Rate: 60.0Hz
// Filter Profile: human (46.1)
// Firmware Version: 4.6.0
PacketCounter	SampleTimeFine	Acc_X	Acc_Y	Acc_Z	Gyr_X	Gyr_Y	Gyr_Z	Mag_X	Mag_Y	Mag_Z	Quat_q0	Quat_q1	Quat_q2	Quat_q3
04826		9.461766	0.792791	2.447916	-0.034617	-0.005127	-0.010403	-0.654785	-0.432617	0.187744	-0.350852	-0.569648	0.225094	-0.708334
04827		9.393048	0.824987	2.421364	-0.044556	-0.009064	-0.012813	-0.655762	-0.442871	0.191650	-0.351122	-0.569595	0.225323	-0.708170
04828		9.356875	0.878552	2.457761	-0.054091	-0.021627	-0.022151	-0.648438	-0.444824	0.185791	-0.351475	-0.569611	0.225596	-0.707895
04829		9.389731	0.922947	2.413881	-0.066213	-0.036514	-0.025246	-0.653320	-0.430664	0.192627	-0.351871	-0.569680	0.225972	-0.707523
04830		9.426150	0.900901	2.385576	-0.070736	-0.035687	-0.027105	-0.653076	-0.440918	0.193848	-0.352302	-0.569735	0.226362	-0.707139
04831		9.486772	0.824069	2.366536	-0.069408	-0.027615	-0.022329	-0.653809	-0.439941	0.186768	-0.352715	-0.569739	0.226740	-0.706808
04832		9.487084	0.709588	2.404437	-0.056940	-0.018594	-0.023414	-0.649658	-0.440918	0.192139	-0.353092	-0.569732	0.227013	-0.706538
04833		9.507652	0.672783	2.450596	-0.039532	-0.026420	-0.021872	-0.654053	-0.437988	0.189941	-0.353359	-0.569818	0.227219	-0.706269
04834		9.538171	0.675685	2.418376	-0.029538	-0.021685	-0.019948	-0.646484	-0.443848	0.192627	-0.353572	-0.569899	0.227366	-0.706050
04835		9.519825	0.722449	2.355798	-0.039679	0.010448	-0.018736	-0.649414	-0.447510	0.185059	-0.353881	-0.569757	0.227491	-0.705970
04836		9.506534	0.800950	2.363898	-0.030695	0.024880	-0.008215	-0.648682	-0.441895	0.186279	-0.354108	-0.569538	0.227578	-0.706004
04837		9.499585	0.810291	2.420826	-0.016630	0.012634	-0.002352	-0.647949	-0.444824	0.188477	-0.354209	-0.569427	0.227647	-0.706021
04838		9.441118	0.757494	2.404490	-0.002795	-0.000042	0.002714	-0.650146	-0.437256	0.187012	-0.354191	-0.569422	0.227696	-0.706019
04839		9.357471	0.708846	2.435550	0.011709	0.002273	0.001993	-0.643799	-0.445801	0.185303	-0.354110	-0.569447	0.227652	-0.706053
04840		9.355514	0.702529	2.449657	0.016094	0.014351	0.001642	-0.656982	-0.445801	0.189453	-0.354031	-0.569410	0.227549	-0.706156
04841		9.429942	0.717796	2.487470	0.005873	0.036674	0.006550	-0.648193	-0.439209	0.192871	-0.354008	-0.569195	0.227470	-0.706366
04842		9.429482	0.788356	2.496130	-0.003895	0.029626	0.008147	-0.650391	-0.453125	0.186279	-0.354009	-0.568984	0.227477	-0.706533
04843		9.444176	0.859138	2.489682	-0.005789	0.026179	0.007268	-0.647461	-0.444092	0.183350	-0.354022	-0.568781	0.227500	-0.706683
04844		9.437342	0.825652	2.427109	-0.001923	0.028729	0.001777	-0.650635	-0.440674	0.186279	-0.354062	-0.568585	0.227459	-0.706834
04845		9.490161	0.772336	2.412523	0.009912	0.043537	-0.002622	-0.648193	-0.433838	0.185303	-0.354097	-0.568349	0.227279	-0.707064
04846		9.567006	0.721839	2.470345	0.013031	0.052665	-0.000976	-0.650146	-0.439697	0.185791	-0.354122	-0.568072	0.227062	-0.707343
04847		9.568817	0.691374	2.496144	0.005913	0.047613	0.001128	-0.650391	-0.442871	0.178467	-0.354154	-0.567797	0.226921	-0.707593
04848		9.469956	0.728919	2.492624	0.012189	0.038035	0.003541	-0.650146	-0.436768	0.187256	-0.354126	-0.567581	0.226796	-0.707821
04849		9.396437	0.806429	2.396619	0.023041	0.046440	0.006431	-0.652588	-0.442139	0.189209	-0.354030	-0.567352	0.226589	-0.708119
04850		9.380536	0.833627	2.466492	0.020443	0.063257	0.004510	-0.651123	-0.447021	0.190186	-0.353987	-0.567026	0.226338	-0.708481
04851		9.393324	0.834280	2.460569	0.016000	0.046855	0.003074	-0.647217	-0.438721	0.188232	-0.353953	-0.566791	0.226144	-0.708748
04852		9.389762	0.827787	2.480420	0.001640	0.042591	0.000511	-0.658203	-0.442383	0.180664	-0.354002	-0.566553	0.226028	-0.708951
04853		9.348927	0.838127	2.536315	-0.011112	0.038952	-0.005991	-0.650879	-0.439209	0.175537	-0.354135	-0.566290	0.225984	-0.709109
04854		9.381440	0.845228	2.533533	-0.014234	0.036438	-0.014861	-0.656006	-0.444092	0.183838	-0.354361	-0.566044	0.225916	-0.709214
04855		9.364413	0.811016	2.551238	-0.007785	0.027643	-0.018391	-0.654785	-0.441895	0.182617	-0.354542	-0.565889	0.225802	-0.709284
04856		9.380661	0.755365	2.512714	-0.006872	0.035639	-0.015672	-0.647217	-0.436523	0.181885	-0.354722	-0.565681	0.225668	-0.709402
04857		9.390528	0.744467	2.529947	-0.013217	0.033470	-0.012176	-0.652832	-0.435059	0.188721	-0.354915	-0.565469	0.225591	-0.709499
04858		9.427627	0.755785	2.545646	-0.025055	0.024590	-0.001546	-0.649902	-0.447021	0.180420	-0.355042	-0.565268	0.225660	-0.709574
04859		9.426924	0.798681	2.504047	-0.028106	-0.000169	0.001722	-0.649414	-0.437744	0.188477	-0.355175	-0.565174	0.225840	-0.709525
04860		9.394470	0.842357	2.455485	-0.023431	-0.010816	-0.003669	-0.651855	-0.443115	0.187256	-0.355248	-0.565201	0.225990	-0.709419
04861		9.399813	0.782213	2.458124	-0.011658	0.000461	-0.004789	-0.651367	-0.437256	0.170166	-0.355304	-0.565199	0.226031	-0.709379
04862		9.419984	0.678857	2.491920	-0.001504	0.011110	-0.001980	-0.653076	-0.442139	0.179199	-0.355362	-0.565091	0.226035	-0.709435
04863		9.415160	0.638302	2.471618	0.010796	0.004083	0.001147	-0.644287	-0.440674	0.176514	-0.355297	-0.565094	0.225988	-0.709481
04864		9.416651	0.645303	2.459705	0.022236	0.011403	0.002440	-0.646973	-0.437012	0.177002	-0.355214	-0.565083	0.225862	-0.709571
04865		9.360509	0.684770	2.539127	0.027684	0.007169	0.000739	-0.645752	-0.442383	0.175781	-0.355073	-0.565115	0.225724	-0.709660
04866		9.403152	0.781302	2.527758	0.032884	-0.000579	0.007722	-0.657227	-0.436035	0.182861	-0.354887	-0.565185	0.225611	-0.709733
04867		9.473181	0.844164	2.453945	0.030855	0.012408	0.006890	-0.653320	-0.443848	0.169678	-0.354632	-0.565192	0.225471	-0.709899
04868		9.485519	0.837956	2.456373	0.025467	0.038983	0.009460	-0.659180	-0.451416	0.173584	-0.354565	-0.564956	0.225316	-0.710169
04869		9.447554	0.745392	2.526474	0.033898	0.044228	0.008150	-0.647949	-0.447266	0.173584	-0.354473	-0.564737	0.225073	-0.710467
04870		9.405614	0.692179	2.531752	0.043483	0.024607	0.009461	-0.657959	-0.443115	0.178223	-0.354325	-0.564681	0.224827	-0.710663
04871		9.406798	0.699797	2.520871	0.061787	0.009855	0.005275	-0.648193	-0.431885	0.179199	-0.353988	-0.564784	0.224501	-0.710852
04872		9.389152	0.694846	2.550107	0.076100	0.027000	0.005674	-0.645752	-0.430664	0.179443	-0.353583	-0.564852	0.224038	-0.711146
04873		9.382692	0.677337	2.592008	0.074611	0.021689	0.009119	-0.655518	-0.443604	0.176514	-0.353161	-0.564942	0.223616	-0.711417
04874		9.382874	0.750536	2.596844	0.064222	0.012210	0.010038	-0.655518	-0.437500	0.178223	-0.352826	-0.565003	0.223301	-0.711633
04875		9.359567	0.913991	2.592413	0.048090	0.002539	0.003313	-0.654053	-0.441162	0.178223	-0.352538	-0.565095	0.223077	-0.711773
04876		9.362245	0.950045	2.625807	0.033188	-0.003379	-0.000408	-0.651123	-0.438721	0.184570	-0.352381	-0.565186	0.222928	-0.711826
04877		9.375858	0.901820	2.667095	0.033554	-0.013109	-0.000094	-0.654785	-0.437012	0.180176	-0.352167	-0.565393	0.222771	-0.711817
04878		9.408335	0.831408	2.665111	0.034904	-0.025470	-0.003837	-0.658691	-0.439941	0.181396	-0.351948	-0.565630	0.222641	-0.711776
04879		9.383478	0.788954	2.601245	0.035968	-0.028930	-0.012880	-0.648682	-0.442139	0.179199	-0.351767	-0.565902	0.222467	-0.711704
04880		9.375268	0.847244	2.572972	0.024128	-0.026512	-0.014477	-0.650391	-0.442871	0.188721	-0.351772	-0.566123	0.222346	-0.711564
04881		9.372436	0.880818	2.550483	0.008193	-0.024326	-0.014132	-0.657959	-0.437256	0.174561	-0.351772	-0.566365	0.222275	-0.711394
04882		9.373801	0.918304	2.547639	0.003851	-0.028025	-0.003487	-0.655518	-0.439941	0.182373	-0.351736	-0.566437	0.222363	-0.711326
04883		9.408723	0.888513	2.533707	0.003362	-0.020185	0.003918	-0.652100	-0.435059	0.187012	-0.351657	-0.566530	0.222423	-0.711273
04884		9.465832	0.797041	2.543727	0.001635	-0.007904	0.005576	-0.646729	-0.439941	0.182129	-0.351534	-0.566597	0.222444	-0.711274
04885		9.454413	0.728994	2.574116	-0.009044	-0.002518	0.007467	-0.643066	-0.430908	0.184570	-0.351600	-0.566562	0.222534	-0.711241
04886		9.439780	0.727012	2.587167	-0.014687	-0.013996	0.006605	-0.654053	-0.432617	0.188232	-0.351572	-0.566616	0.222682	-0.711166
04887		9.396080	0.746476	2.522897	-0.001699	-0.019403	0.005417	-0.651367	-0.444824	0.186035	-0.351378	-0.566746	0.222761	-0.711133
04888		9.361092	0.813154	2.498745	0.006321	-0.018588	0.000247	-0.657227	-0.435547	0.190430	-0.351367	-0.566888	0.222759	-0.711025
04889		9.358386	0.800779	2.521365	0.007921	-0.024251	-0.003188	-0.649414	-0.441162	0.192383	-0.351162	-0.567102	0.222751	-0.710959
04890		9.353944	0.746273	2.554060	0.005148	-0.039569	-0.002230	-0.657959	-0.430664	0.187012	-0.351040	-0.567443	0.222776	-0.710739
04891		9.335532	0.713345	2.494714	0.014307	-0.048323	-0.002928	-0.645752	-0.438232	0.184082	-0.350744	-0.567757	0.222841	-0.710615
04892		9.316130	0.666585	2.493346	0.025714	-0.048070	-0.000690	-0.660400	-0.435547	0.187256	-0.350604	-0.568099	0.222831	-0.710413
04893		9.324128	0.679631	2.491897	0.042059	-0.050182	0.001011	-0.649170	-0.437256	0.187500	-0.350192	-0.568475	0.222760	-0.710338
04894		9.343338	0.724042	2.457619	0.051078	-0.048772	0.000773	-0.656738	-0.436523	0.179443	-0.349857	-0.568901	0.222611	-0.710208
04895		9.408434	0.797763	2.428167	0.053472	-0.038190	0.002726	-0.648193	-0.435059	0.187988	-0.349565	-0.569124	0.222500	-0.710208
04896		9.456746	0.821165	2.472128	0.047941	-0.026532	0.002130	-0.656250	-0.423584	0.195557	-0.349273	-0.569398	0.222320	-0.710188
04897		9.524304	0.792341	2.460631	0.042046	-0.032976	0.000502	-0.656250	-0.439453	0.195801	-0.348693	-0.569755	0.222172	-0.710234
04898		9.493243	0.715593	2.493944	0.045284	-0.036433	-0.002357	-0.654541	-0.438232	0.192871	-0.348327	-0.570150	0.221972	-0.710159
04899		9.490696	0.748922	2.469643	0.056846	-0.029968	-0.006132	-0.654541	-0.436523	0.182373	-0.347993	-0.570501	0.221696	-0.710127
04900		9.494137	0.772296	2.393122	0.045045	-0.020494	-0.008698	-0.653076	-0.431885	0.193115	-0.347896	-0.570606	0.221544	-0.710138
04901		9.473862	0.763192	2.397439	0.046467	-0.017078	-0.004437	-0.658447	-0.437012	0.201172	-0.347566	-0.570837	0.221319	-0.710184
04902		9.441298	0.716132	2.446300	0.051679	-0.038104	0.004160	-0.644775	-0.434814	0.197754	-0.347034	-0.571281	0.221106	-0.710153
04903		9.395291	0.681950	2.448161	0.062140	-0.049375	0.006986	-0.653809	-0.433594	0.204834	-0.346568	-0.571810	0.220889	-0.710023
04904		9.348022	0.677598	2.464175	0.070845	-0.037450	0.005854	-0.644775	-0.434814	0.198242	-0.345901	-0.572343	0.220555	-0.710022
04905		9.339188	0.721133	2.493240	0.074523	-0.025585	0.001247	-0.650146	-0.435059	0.200439	-0.345485	-0.572749	0.220184	-0.710013
04906		9.361731	0.771587	2.480787	0.082197	-0.030595	0.006256	-0.647705	-0.429443	0.199219	-0.344929	-0.573193	0.219804	-0.710042
04907		9.428766	0.808302	2.482836	0.073864	-0.039659	0.012222	-0.651123	-0.432617	0.199707	-0.344356	-0.573624	0.219563	-0.710047
04908		9.453389	0.886358	2.514944	0.058062	-0.040314	0.004457	-0.652100	-0.431152	0.204834	-0.343925	-0.574009	0.219377	-0.710002
04909		9.460016	0.907252	2.468187	0.055576	-0.041615	-0.001998	-0.653564	-0.431152	0.197754	-0.343446	-0.574466	0.219142	-0.709937
04910		9.456821	0.891405	2.500214	0.064348	-0.041450	-0.002569	-0.658936	-0.435791	0.205078	-0.343063	-0.574815	0.218931	-0.709905
04911		9.438990	0.866083	2.428934	0.067684	-0.029952	-0.002539	-0.651855	-0.428467	0.204346	-0.342581	-0.575190	0.218592	-0.709938
04912		9.446064	0.857636	2.370510	0.063407	-0.022677	0.002569	-0.656494	-0.432373	0.210449	-0.342110	-0.575495	0.218311	-0.710005
04913		9.434913	0.835753	2.353701	0.051977	-0.021275	0.004876	-0.659180	-0.437500	0.203125	-0.341595	-0.575827	0.218042	-0.710066
04914		9.490733	0.841460	2.390071	0.053742	-0.032717	0.008337	-0.641357	-0.433350	0.204346	-0.341213	-0.576098	0.217870	-0.710083
04915		9.497702	0.818042	2.390136	0.060794	-0.028413	0.012126	-0.652832	-0.430908	0.208740	-0.340891	-0.576437	0.217634	-0.710035
04916		9.488347	0.801030	2.359734	0.077708	-0.019815	0.016981	-0.652832	-0.434082	0.208984	-0.340280	-0.576766	0.217301	-0.710162
04917		9.463957	0.806870	2.404794	0.091239	-0.007392	0.023385	-0.646729	-0.426758	0.200928	-0.339643	-0.577046	0.216869	-0.710372
04918		9.401230	0.801330	2.439096	0.100724	-0.029082	0.025236	-0.653564	-0.431396	0.207520	-0.339051	-0.577352	0.216561	-0.710500
04919		9.386077	0.837700	2.413179	0.105796	-0.056565	0.027104	-0.650391	-0.434326	0.211914	-0.338271	-0.577900	0.216240	-0.710525
04920		9.387828	0.880070	2.357299	0.106817	-0.055702	0.025295	-0.648682	-0.430908	0.220215	-0.337517	-0.578516	0.215847	-0.710501
04921		9.361081	0.916526	2.377142	0.096116	-0.044891	0.021610	-0.648926	-0.423340	0.213379	-0.336716	-0.579156	0.215415	-0.710491
04922		9.303877	0.893921	2.366539	0.099712	-0.056136	0.022489	-0.648438	-0.430176	0.220215	-0.335931	-0.579728	0.215106	-0.710490
04923		9.460672	0.838451	2.203529	0.107809	-0.057230	0.025037	-0.650635	-0.425049	0.218262	-0.335085	-0.580426	0.214671	-0.710451
04924		9.640482	0.805771	2.187898	0.136301	0.008909	0.031361	-0.648926	-0.428711	0.219971	-0.334173	-0.580727	0.213977	-0.710843
04925		9.672579	0.883659	2.325111	0.165641	0.043193	0.033183	-0.658936	-0.428467	0.224365	-0.333221	-0.580936	0.212984	-0.711418
04926		9.632797	0.814124	2.435159	0.158920	-0.002696	0.032438	-0.649658	-0.427979	0.219727	-0.332093	-0.581409	0.212145	-0.711810
04927		9.611123	0.734287	2.211466	0.130132	-0.088603	0.051251	-0.653564	-0.427734	0.227295	-0.331020	-0.582232	0.211827	-0.711731
04928		9.510901	0.830558	1.955114	0.106902	-0.084991	0.065549	-0.648926	-0.424316	0.229492	-0.329861	-0.583015	0.211663	-0.711677
04929		9.594940	1.029035	1.772464	0.076857	-0.005012	0.064654	-0.650635	-0.422363	0.221924	-0.328998	-0.583270	0.211453	-0.711930
04930		9.984406	1.234188	1.925938	-0.035786	0.192102	0.064441	-0.655029	-0.426025	0.220703	-0.329154	-0.581914	0.211454	-0.712966
04931		10.260688	1.321200	2.454501	-0.260257	0.351074	0.032608	-0.654297	-0.422363	0.218750	-0.330859	-0.579069	0.212160	-0.714282
04932		10.092923	1.658712	3.156792	-0.339614	0.340263	-0.000168	-0.653076	-0.421631	0.210693	-0.333041	-0.576178	0.213199	-0.715297
04933		9.680278	1.581377	3.231928	-0.256633	0.075988	-0.019304	-0.659180	-0.424316	0.209229	-0.334510	-0.575090	0.214399	-0.715127
04934		8.976743	1.018111	2.841173	-0.135247	-0.101152	-0.041929	-0.658936	-0.420654	0.205078	-0.335172	-0.575425	0.215243	-0.714295
04935		8.373509	0.485374	2.467021	-0.065911	-0.180035	-0.062631	-0.648926	-0.430176	0.211426	-0.335517	-0.576371	0.215864	-0.713182
04936		8.254665	0.220583	2.111833	-0.021474	-0.135345	-0.044337	-0.653320	-0.428955	0.208008	-0.335679	-0.577281	0.216051	-0.712312
04937		8.607873	0.120374	2.017686	-0.029205	-0.015567	0.008427	-0.651855	-0.425293	0.212402	-0.335796	-0.577257	0.216274	-0.712208
04938		9.051435	0.216745	2.250561	-0.030905	0.024132	0.071405	-0.653809	-0.426270	0.218018	-0.335527	-0.576941	0.216701	-0.712461
04939		9.383071	0.468780	2.348115	-0.024787	-0.043746	0.117136	-0.653809	-0.426270	0.217041	-0.334746	-0.577048	0.217458	-0.712511
04940		9.591546	0.708311	2.333226	-0.012592	-0.121272	0.115722	-0.659424	-0.421875	0.212646	-0.333806	-0.577636	0.218351	-0.712203
04941		9.693910	0.899224	2.270379	-0.016020	-0.175572	0.082757	-0.661377	-0.421631	0.212646	-0.333006	-0.578473	0.219341	-0.711593
04942		9.803678	1.078093	2.196184	-0.043954	-0.167945	0.031214	-0.653809	-0.426025	0.218994	-0.332680	-0.579248	0.220238	-0.710839
04943		9.843938	1.181714	2.180254	-0.085284	-0.096689	-0.022056	-0.651611	-0.419922	0.218994	-0.333009	-0.579707	0.220826	-0.710127
04944		9.703084	1.126626	2.321937	-0.119406	-0.043996	-0.058387	-0.642334	-0.428955	0.215088	-0.333791	-0.579807	0.221351	-0.709515
04945		9.427343	0.962472	2.464483	-0.137084	-0.070681	-0.060507	-0.649414	-0.427246	0.216553	-0.334787	-0.580036	0.221965	-0.708666
04946		9.299161	0.735784	2.393004	-0.140175	-0.142452	-0.045134	-0.649414	-0.436523	0.209229	-0.335480	-0.580623	0.222911	-0.707560
04947		9.311000	0.648877	2.218514	-0.129981	-0.143836	-0.026263	-0.648193	-0.425537	0.222412	-0.336166	-0.581120	0.223864	-0.706525
04948		9.355294	0.663886	2.198493	-0.137283	-0.083807	-0.010023	-0.645020	-0.430176	0.210205	-0.336659	-0.581350	0.224811	-0.705800
04949		9.420367	0.635128	2.415849	-0.142843	-0.012989	-0.000741	-0.646973	-0.439209	0.211914	-0.337461	-0.580984	0.225657	-0.705448
04950		9.353458	0.650625	2.578642	-0.131239	-0.045027	0.004638	-0.636963	-0.432373	0.216797	-0.338126	-0.580881	0.226472	-0.704953
04951		9.299518	0.599500	2.538047	-0.090295	-0.130136	0.002703	-0.651855	-0.427979	0.213867	-0.338389	-0.581490	0.227291	-0.704060
04952		9.267538	0.574432	2.285857	-0.054494	-0.201653	-0.011063	-0.642334	-0.433594	0.217529	-0.338333	-0.582498	0.228131	-0.702981
04953		9.378606	0.477529	2.022999	-0.026848	-0.197589	-0.015637	-0.643311	-0.432861	0.220215	-0.338250	-0.583651	0.228703	-0.701878
04954		9.518408	0.495705	1.968730	-0.019606	-0.137581	-0.025205	-0.644531	-0.433838	0.216553	-0.338272	-0.584487	0.229032	-0.701064
04955		9.534497	0.616202	1.992828	-0.019973	-0.088686	-0.012123	-0.637939	-0.436279	0.219971	-0.338358	-0.584937	0.229309	-0.700557
04956		9.560226	0.744485	2.059699	-0.021948	-0.087218	0.009448	-0.643311	-0.432373	0.225098	-0.338360	-0.585401	0.229663	-0.700052
04957		9.627651	0.857255	2.105501	-0.028358	-0.121582	0.025247	-0.632324	-0.441162	0.223633	-0.338120	-0.586035	0.230260	-0.699442
04958		9.641277	0.831622	1.973479	-0.012096	-0.189729	0.025231	-0.634277	-0.436523	0.226807	-0.337843	-0.587151	0.230876	-0.698435
04959		9.643480	0.600582	1.749092	0.014471	-0.213822	0.019217	-0.643311	-0.445068	0.224365	-0.337356	-0.588483	0.231412	-0.697372
04960		9.713066	0.397778	1.577862	0.026486	-0.165961	0.012742	-0.628174	-0.442383	0.225830	-0.336993	-0.589496	0.231686	-0.696600
04961		9.735930	0.404316	1.659972	0.022943	-0.096223	0.019157	-0.633301	-0.434326	0.227051	-0.336819	-0.590140	0.231813	-0.696096
04962		9.824989	0.479567	1.756158	0.022746	-0.071713	0.028411	-0.637207	-0.437256	0.226562	-0.336527	-0.590578	0.231984	-0.695809
04963		9.850032	0.653516	1.768471	0.033891	-0.048644	0.035063	-0.637451	-0.444336	0.229248	-0.336198	-0.590873	0.232052	-0.695695
04964		9.778389	0.717630	1.706901	0.050751	-0.037340	0.042238	-0.634277	-0.434570	0.239014	-0.335824	-0.591173	0.231990	-0.695642
04965		9.689556	0.702914	1.672811	0.074727	-0.032452	0.051872	-0.635742	-0.440918	0.223633	-0.335157	-0.591590	0.231877	-0.695646
04966		9.695836	0.607050	1.655782	0.085977	-0.044992	0.052845	-0.634521	-0.428711	0.239502	-0.334558	-0.591938	0.231687	-0.695702
04967		9.741287	0.492714	1.632152	0.090983	-0.043129	0.048433	-0.637451	-0.431641	0.243896	-0.333776	-0.592442	0.231522	-0.695703
04968		9.704053	0.451594	1.701046	0.088843	-0.049905	0.038711	-0.639404	-0.439453	0.240723	-0.333053	-0.593024	0.231336	-0.695616
04969		9.655694	0.456671	1.658547	0.100312	-0.064893	0.032308	-0.640869	-0.427246	0.242432	-0.332373	-0.593696	0.231051	-0.695463
04970		9.617730	0.499324	1.569741	0.099898	-0.042147	0.026001	-0.638184	-0.431885	0.248291	-0.331643	-0.594219	0.230731	-0.695470
04971		9.624108	0.562309	1.613312	0.118059	0.011966	0.032726	-0.636230	-0.427979	0.241211	-0.330946	-0.594532	0.230181	-0.695718
04972		9.644685	0.601186	1.619649	0.135206	0.025591	0.038321	-0.637695	-0.433594	0.241943	-0.330161	-0.594728	0.229510	-0.696144
04973		9.733897	0.631186	1.677110	0.146589	0.032344	0.038348	-0.636230	-0.425781	0.241211	-0.329388	-0.594923	0.228728	-0.696602
04974		9.744761	0.700205	1.746162	0.141516	0.028691	0.032868	-0.634277	-0.430664	0.244141	-0.328610	-0.595116	0.227984	-0.697048
04975		9.685423	0.768458	1.678169	0.134512	0.020250	0.017456	-0.639404	-0.426758	0.252441	-0.328010	-0.595406	0.227216	-0.697334
04976		9.688291	0.734728	1.603456	0.120874	0.068938	0.004107	-0.641602	-0.424072	0.239990	-0.327570	-0.595441	0.226377	-0.697783
04977		9.746891	0.801425	1.716308	0.106059	0.132470	-0.007299	-0.643311	-0.421631	0.244385	-0.327361	-0.594965	0.225339	-0.698623
04978		9.708920	0.866160	1.875682	0.082450	0.157351	-0.010221	-0.635742	-0.427979	0.244629	-0.327299	-0.594320	0.224390	-0.699506
04979		9.658377	0.938084	1.924860	0.075987	0.141218	-0.016416	-0.634277	-0.421631	0.237061	-0.327401	-0.593815	0.223476	-0.700179
04980		9.608343	0.951262	1.942969	0.076927	0.107203	-0.023965	-0.646729	-0.420898	0.237305	-0.327430	-0.593464	0.222601	-0.700742
04981		9.533069	0.918637	1.932848	0.079432	0.081710	-0.031675	-0.647949	-0.420898	0.246094	-0.327344	-0.593243	0.221741	-0.701242
04982		9.523598	0.824478	1.899478	0.063262	0.086014	-0.033275	-0.640381	-0.422852	0.245605	-0.327346	-0.593029	0.221001	-0.701655
04983		9.508522	0.796266	1.962450	0.044273	0.117091	-0.035748	-0.643311	-0.419922	0.240479	-0.327591	-0.592615	0.220273	-0.702119
04984		9.423018	0.889009	2.042777	0.037431	0.111954	-0.026581	-0.650879	-0.425781	0.241943	-0.327753	-0.592144	0.219628	-0.702642
04985		9.456767	0.945540	2.020767	0.021021	0.091419	-0.011238	-0.642822	-0.419434	0.237793	-0.327872	-0.591721	0.219200	-0.703077
04986		9.450353	0.946551	1.999587	-0.003589	0.054297	0.001816	-0.637939	-0.423340	0.240723	-0.327968	-0.591417	0.219089	-0.703323
04987		9.503616	0.949980	1.902525	-0.025338	0.049481	-0.001862	-0.638672	-0.425537	0.241211	-0.328262	-0.591139	0.219109	-0.703413
04988		9.606177	0.898547	1.901464	-0.042721	0.085438	-0.006744	-0.639160	-0.417236	0.237061	-0.328753	-0.590622	0.219109	-0.703618
04989		9.651170	0.807267	2.012206	-0.057957	0.123711	-0.009051	-0.648438	-0.417969	0.235107	-0.329309	-0.589806	0.219086	-0.704049
04990		9.713026	0.810943	2.027358	-0.077953	0.146986	-0.015337	-0.645020	-0.423340	0.234863	-0.329977	-0.588778	0.219074	-0.704601
04991		9.671675	0.859722	2.102839	-0.101842	0.149219	-0.020861	-0.655273	-0.423828	0.227539	-0.330881	-0.587713	0.219169	-0.705036
04992		9.631606	0.818887	2.135940	-0.103185	0.116993	-0.024649	-0.645264	-0.422852	0.230957	-0.331675	-0.586766	0.219305	-0.705409
04993		9.525916	0.661882	2.069428	-0.080443	0.064999	-0.032977	-0.648926	-0.418701	0.225342	-0.332378	-0.586278	0.219453	-0.705439
04994		9.481891	0.594772	2.011475	-0.064922	0.059237	-0.039038	-0.644775	-0.426270	0.223389	-0.332952	-0.585823	0.219483	-0.705536
04995		9.598654	0.708378	2.041149	-0.079594	0.120097	-0.033330	-0.644043	-0.424561	0.223145	-0.333777	-0.584973	0.219442	-0.705864
04996		9.665679	0.820826	2.094668	-0.116538	0.200961	-0.020254	-0.646973	-0.424316	0.225342	-0.334835	-0.583533	0.219472	-0.706546
04997		9.663680	0.930659	2.296002	-0.129231	0.224354	-0.007961	-0.654541	-0.431152	0.212646	-0.335893	-0.581929	0.219590	-0.707329
04998		9.504578	0.988781	2.468904	-0.119003	0.156348	-0.001740	-0.646729	-0.429688	0.218750	-0.336752	-0.580650	0.219805	-0.707905
04999		9.503686	0.927363	2.316687	-0.101442	0.075551	-0.006779	-0.645752	-0.420166	0.209717	-0.337452	-0.579998	0.220166	-0.707994
05000		9.551835	0.919532	2.221295	-0.129317	0.087594	-0.021136	-0.645508	-0.432861	0.218018	-0.338309	-0.579152	0.220583	-0.708148
05001		9.437710	0.855277	2.262375	-0.148639	0.129171	-0.033245	-0.660156	-0.419434	0.203857	-0.339519	-0.578127	0.220947	-0.708293
05002		9.335672	0.686705	2.454693	-0.154366	0.139859	-0.040909	-0.645996	-0.428711	0.210693	-0.340576	-0.576878	0.221252	-0.708709
05003		9.243134	0.640385	2.475652	-0.162280	0.110421	-0.035614	-0.649414	-0.423096	0.202881	-0.341772	-0.575898	0.221740	-0.708777
05004		9.373827	0.782084	2.332693	-0.156056	0.069265	-0.012591	-0.655518	-0.429199	0.195801	-0.342645	-0.575071	0.222415	-0.708816
05005		9.573373	0.810887	2.259106	-0.168375	0.088987	-0.005811	-0.649170	-0.430664	0.198730	-0.343590	-0.574023	0.223106	-0.708991
05006		9.676889	0.813114	2.488843	-0.178029	0.063652	0.003733	-0.652832	-0.431152	0.199951	-0.344529	-0.573142	0.223991	-0.708969
05007		9.770576	0.737966	2.295501	-0.155997	0.001539	0.009964	-0.645752	-0.432617	0.197754	-0.345173	-0.572696	0.224955	-0.708710
05008		9.652864	0.554798	2.297828	-0.140591	0.055065	0.000076	-0.659180	-0.433594	0.191406	-0.345973	-0.572007	0.225630	-0.708662
05009		9.450609	0.485076	2.415439	-0.114930	0.084726	-0.005992	-0.649414	-0.431641	0.198486	-0.346651	-0.571153	0.226017	-0.708896
05010		9.309918	0.502906	2.422209	-0.101527	0.093797	-0.002886	-0.647461	-0.441406	0.188232	-0.347296	-0.570376	0.226345	-0.709101
05011		9.250956	0.613486	2.322715	-0.082435	0.105295	-0.001157	-0.655029	-0.431152	0.189453	-0.347993	-0.569526	0.226499	-0.709394
05012		9.253145	0.670238	2.457116	-0.088673	0.147424	0.008715	-0.653809	-0.434814	0.186523	-0.348573	-0.568382	0.226641	-0.709981
05013		9.267070	0.682969	2.589634	-0.107599	0.113961	0.012440	-0.649170	-0.434082	0.182617	-0.349207	-0.567375	0.227001	-0.710359
05014		9.371694	0.712266	2.541227	-0.101610	0.085524	0.021794	-0.649170	-0.427734	0.183105	-0.349744	-0.566530	0.227458	-0.710624
05015		9.452942	0.699833	2.614966	-0.109330	0.078413	0.016495	-0.649414	-0.435303	0.181396	-0.350269	-0.565725	0.227975	-0.710840
05016		9.423891	0.639811	2.613135	-0.103151	0.062510	0.019401	-0.652832	-0.440186	0.179443	-0.350790	-0.565035	0.228496	-0.710966
05017		9.399415	0.593468	2.582594	-0.088060	0.046403	0.017558	-0.657471	-0.431641	0.179688	-0.351239	-0.564480	0.228951	-0.711038
05018		9.370875	0.499283	2.572987	-0.074940	0.028830	0.012549	-0.655273	-0.425293	0.176025	-0.351498	-0.564069	0.229374	-0.711099
05019		9.341386	0.407493	2.525917	-0.071376	-0.011300	0.015969	-0.663818	-0.433594	0.171143	-0.351616	-0.563872	0.229927	-0.711019
05020		9.317833	0.364349	2.450602	-0.062967	-0.025662	0.024042	-0.652344	-0.425537	0.179688	-0.351649	-0.563720	0.230485	-0.710943
05021		9.283544	0.389991	2.424339	-0.015763	-0.031747	0.038897	-0.652344	-0.434570	0.177002	-0.351343	-0.563808	0.230881	-0.710895
05022		9.324202	0.373450	2.370914	0.046318	-0.020717	0.050835	-0.661621	-0.433350	0.173584	-0.350803	-0.563974	0.230914	-0.711020
05023		9.348769	0.295206	2.468591	0.083365	0.002888	0.060894	-0.652344	-0.437256	0.179199	-0.350014	-0.564032	0.230703	-0.711431
05024		9.299606	0.284320	2.490486	0.101718	-0.007656	0.052958	-0.666260	-0.435059	0.178955	-0.349266	-0.564293	0.230371	-0.711699
05025		9.290483	0.330136	2.477147	0.110256	-0.031436	0.041498	-0.646240	-0.416504	0.178711	-0.348376	-0.564702	0.229995	-0.711933
05026		9.322919	0.442747	2.568189	0.111868	-0.024199	0.035859	-0.659912	-0.418457	0.183594	-0.347540	-0.565093	0.229629	-0.712149
05027		9.301655	0.545845	2.662568	0.102409	-0.023313	0.030491	-0.659912	-0.422119	0.183594	-0.346664	-0.565472	0.229261	-0.712394
05028		9.441100	0.683472	2.551552	0.097529	-0.006442	0.038849	-0.652588	-0.427734	0.178467	-0.345848	-0.565715	0.228907	-0.712711
05029		9.459289	0.716229	2.573122	0.063477	0.036515	0.025950	-0.657227	-0.418945	0.177979	-0.345529	-0.565591	0.228582	-0.713069
05030		9.441847	0.670520	2.636871	0.037813	0.042067	0.022867	-0.656494	-0.418945	0.171143	-0.345238	-0.565347	0.228390	-0.713465
05031		9.434621	0.636029	2.576602	0.012753	0.045731	0.013129	-0.653320	-0.424805	0.183594	-0.345201	-0.564964	0.228313	-0.713810
05032		9.410054	0.570673	2.682846	-0.023768	0.070389	0.007135	-0.661865	-0.421631	0.179932	-0.345403	-0.564481	0.228302	-0.714098
05033		9.285885	0.502719	2.788949	-0.037369	0.045647	-0.004141	-0.654541	-0.420654	0.177490	-0.345599	-0.564084	0.228390	-0.714289
05034		9.264045	0.445792	2.878069	-0.045696	0.016182	-0.023400	-0.657227	-0.422852	0.176025	-0.345969	-0.563869	0.228543	-0.714230
05035		9.158253	0.360922	2.900489	-0.042214	-0.017764	-0.038813	-0.663818	-0.422119	0.177979	-0.346353	-0.563881	0.228698	-0.713985
05036		9.085756	0.292339	2.832887	-0.038146	-0.024982	-0.038517	-0.663574	-0.423340	0.183350	-0.346601	-0.563957	0.228830	-0.713763
05037		9.060208	0.243797	2.815441	-0.023248	-0.021961	-0.032018	-0.657959	-0.422852	0.172852	-0.346703	-0.564100	0.228869	-0.713588
05038		9.090645	0.219966	2.735222	0.003918	-0.040136	-0.018387	-0.653809	-0.423584	0.175537	-0.346721	-0.564298	0.228936	-0.713401
05039		9.121216	0.216707	2.712097	0.036569	-0.061799	-0.006937	-0.656250	-0.427490	0.179932	-0.346493	-0.564727	0.228917	-0.713177
05040		9.221054	0.175384	2.560264	0.069520	-0.089313	0.000293	-0.654541	-0.428711	0.183350	-0.345994	-0.565435	0.228788	-0.712900
05041		9.353349	0.219121	2.486141	0.100066	-0.097263	0.008345	-0.653809	-0.435547	0.182861	-0.345297	-0.566285	0.228529	-0.712647
05042		9.437431	0.293472	2.434521	0.125634	-0.106801	0.008392	-0.669922	-0.423340	0.183838	-0.344576	-0.567240	0.228161	-0.712354
05043		9.515789	0.421944	2.390376	0.143934	-0.111951	0.011511	-0.655273	-0.421631	0.193359	-0.343445	-0.568238	0.227684	-0.712258
05044		9.476163	0.483359	2.475624	0.147341	-0.114677	0.008201	-0.660400	-0.428467	0.194580	-0.342363	-0.569363	0.227168	-0.712045
05045		9.371334	0.446994	2.532504	0.160928	-0.152289	0.008709	-0.654053	-0.434570	0.187988	-0.341191	-0.570727	0.226675	-0.711673
05046		9.270907	0.366582	2.496621	0.187550	-0.192721	0.010804	-0.658691	-0.425049	0.194580	-0.340045	-0.572310	0.226220	-0.711094
05047		9.185386	0.432491	2.382247	0.213975	-0.205081	0.010255	-0.654785	-0.420410	0.201416	-0.338557	-0.574066	0.225608	-0.710583
05048		9.216693	0.470720	2.270511	0.232950	-0.187178	0.013554	-0.654541	-0.422363	0.201904	-0.336942	-0.575798	0.224834	-0.710195
05049		9.350912	0.538454	2.239832	0.218486	-0.146260	0.019985	-0.657715	-0.424561	0.210693	-0.335503	-0.577197	0.224082	-0.709978
05050		9.463351	0.658684	2.236591	0.188714	-0.115418	0.021073	-0.656738	-0.415771	0.202148	-0.334199	-0.578378	0.223381	-0.709853
05051		9.534306	0.748135	2.298550	0.161039	-0.100690	0.021725	-0.652100	-0.413086	0.206543	-0.333087	-0.579282	0.222875	-0.709798
05052		9.591692	0.778299	2.347248	0.153183	-0.114934	0.017743	-0.657471	-0.414551	0.208984	-0.332003	-0.580286	0.222427	-0.709625
05053		9.635177	0.714242	2.378547	0.146649	-0.152618	0.010412	-0.655762	-0.414795	0.211914	-0.330894	-0.581500	0.222070	-0.709261
05054		9.628937	0.690270	2.207199	0.120535	-0.169243	0.000420	-0.649658	-0.419922	0.215820	-0.329962	-0.582762	0.221867	-0.708723
05055		9.662375	0.796126	2.133668	0.076874	-0.134662	-0.014916	-0.654297	-0.412598	0.222168	-0.329512	-0.583744	0.221769	-0.708155
05056		9.606655	0.922357	2.226611	0.030409	-0.101129	-0.025737	-0.663330	-0.418945	0.223633	-0.329203	-0.584465	0.221731	-0.707715
05057		9.518867	0.929587	2.408868	0.003015	-0.127243	-0.031681	-0.653564	-0.420898	0.222168	-0.329008	-0.585257	0.221882	-0.707105
05058		9.519016	0.941141	2.305419	0.004986	-0.187537	-0.029647	-0.656494	-0.424316	0.231201	-0.328830	-0.586387	0.222250	-0.706135
05059		9.621066	0.745534	2.242903	0.017121	-0.194418	-0.024332	-0.644043	-0.421143	0.226562	-0.328462	-0.587643	0.222528	-0.705173
05060		9.672759	0.490846	2.132133	0.025091	-0.190332	-0.011761	-0.654541	-0.415039	0.228027	-0.328147	-0.588822	0.222895	-0.704220
05061		9.724082	0.397153	1.919617	0.029254	-0.158689	-0.011393	-0.651611	-0.424805	0.227783	-0.327680	-0.589805	0.223103	-0.703549
05062		9.813095	0.516900	1.865253	0.032076	-0.066471	-0.009025	-0.648682	-0.417480	0.233398	-0.327538	-0.590224	0.223107	-0.703262
05063		9.726452	0.635266	2.014001	0.022071	-0.025773	-0.009350	-0.644531	-0.411621	0.231689	-0.327388	-0.590437	0.223007	-0.703185
05064		9.611343	0.730098	2.020774	0.033950	-0.068734	0.002069	-0.649658	-0.414307	0.232178	-0.327020	-0.590903	0.223023	-0.702960
05065		9.593339	0.748605	2.029352	0.040695	-0.099038	0.014339	-0.647217	-0.422363	0.232178	-0.326484	-0.591526	0.223136	-0.702649
05066		9.529723	0.665322	1.918881	0.054635	-0.138580	0.026559	-0.646973	-0.410400	0.236572	-0.325892	-0.592376	0.223386	-0.702128
05067		9.539235	0.596704	1.803312	0.060643	-0.133770	0.028986	-0.643799	-0.411133	0.234619	-0.325063	-0.593249	0.223527	-0.701730
05068		9.641209	0.585539	1.692912	0.067052	-0.089346	0.018367	-0.644043	-0.416992	0.236572	-0.324450	-0.593862	0.223512	-0.701500
05069		9.662450	0.626475	1.798310	0.067749	-0.040058	0.013605	-0.644043	-0.412598	0.240479	-0.324033	-0.594196	0.223358	-0.701460
05070		9.679240	0.661657	1.775454	0.068931	-0.045822	0.013697	-0.644531	-0.415283	0.238281	-0.323493	-0.594604	0.223161	-0.701426
05071		9.738284	0.731446	1.820382	0.062219	-0.030187	0.015177	-0.645264	-0.413574	0.240479	-0.323093	-0.594862	0.223012	-0.701439
05072		9.714496	0.816066	1.929632	0.049285	-0.038388	0.014212	-0.643799	-0.416992	0.241211	-0.322696	-0.595152	0.222929	-0.701401
05073		9.668331	0.864641	1.875360	0.035092	-0.048836	0.009368	-0.643799	-0.410889	0.244629	-0.322455	-0.595470	0.222963	-0.701232
05074		9.641174	0.889190	1.814069	0.011277	-0.015404	-0.001450	-0.644531	-0.413818	0.246582	-0.322320	-0.595587	0.222925	-0.701206
05075		9.631310	0.860977	1.847823	-0.019757	0.005902	-0.014154	-0.650635	-0.418945	0.237305	-0.322472	-0.595531	0.222950	-0.701176
05076		9.650023	0.778238	1.815112	-0.043937	0.022383	-0.021852	-0.652588	-0.414062	0.244629	-0.322961	-0.595218	0.223119	-0.701163
05077		9.662950	0.696878	1.863917	-0.059022	0.022383	-0.029847	-0.645020	-0.413086	0.248535	-0.323352	-0.594969	0.223213	-0.701164
05078		9.616377	0.618007	1.826401	-0.057996	0.001399	-0.037862	-0.646240	-0.416260	0.239746	-0.323739	-0.594918	0.223305	-0.700999
05079		9.628948	0.556194	1.799165	-0.048850	0.003469	-0.038869	-0.645752	-0.415039	0.239258	-0.324237	-0.594789	0.223426	-0.700840
05080		9.599002	0.555922	1.843915	-0.042218	0.006058	-0.036326	-0.649170	-0.420410	0.239746	-0.324664	-0.594661	0.223502	-0.700727
05081		9.538672	0.508649	1.833019	-0.048498	0.001864	-0.041258	-0.648926	-0.417969	0.242432	-0.325171	-0.594546	0.223609	-0.700555
05082		9.528245	0.567556	1.809818	-0.053215	0.015437	-0.038872	-0.652100	-0.414062	0.241699	-0.325618	-0.594372	0.223664	-0.700478
05083		9.542121	0.607893	1.800175	-0.059511	0.046757	-0.044111	-0.646240	-0.424072	0.242432	-0.326079	-0.594009	0.223596	-0.700593
05084		9.590008	0.635116	1.855623	-0.064898	0.059102	-0.038560	-0.652100	-0.417480	0.239258	-0.326747	-0.593557	0.223639	-0.700651
05085		9.709716	0.695545	1.836695	-0.075341	0.055206	-0.037240	-0.642334	-0.431641	0.233887	-0.327305	-0.593080	0.223696	-0.700777
05086		9.758199	0.757800	1.893733	-0.089723	0.061232	-0.042520	-0.639160	-0.416260	0.236572	-0.328353	-0.592485	0.223990	-0.700695
05087		9.699952	0.769379	1.951242	-0.091497	0.055721	-0.046436	-0.643799	-0.421631	0.242676	-0.329139	-0.591996	0.224146	-0.700691
05088		9.630165	0.763697	1.981976	-0.085431	0.041570	-0.047622	-0.654541	-0.427246	0.237793	-0.329792	-0.591669	0.224233	-0.700632
05089		9.474089	0.712568	2.013476	-0.068538	0.019195	-0.048077	-0.646729	-0.429688	0.232422	-0.330335	-0.591460	0.224290	-0.700533
05090		9.414182	0.635236	1.988926	-0.062623	-0.005044	-0.040671	-0.643555	-0.417236	0.225342	-0.330935	-0.591354	0.224520	-0.700266
05091		9.401643	0.556243	1.950260	-0.053587	0.002698	-0.036277	-0.650146	-0.426270	0.233643	-0.331410	-0.591173	0.224693	-0.700139
05092		9.407726	0.541892	1.944651	-0.047546	0.017893	-0.031514	-0.644043	-0.421143	0.233887	-0.331780	-0.590982	0.224738	-0.700111
05093		9.456656	0.592287	1.910196	-0.038639	0.031147	-0.027222	-0.651123	-0.427734	0.225830	-0.332076	-0.590752	0.224705	-0.700175
05094		9.545586	0.699683	1.971337	-0.026837	0.027622	-0.015201	-0.643555	-0.427490	0.239258	-0.332367	-0.590459	0.224756	-0.700268
05095		9.586454	0.735129	2.042235	-0.022067	0.006330	-0.010578	-0.652100	-0.430176	0.226807	-0.332431	-0.590448	0.224749	-0.700249
05096		9.614498	0.766040	2.026057	-0.023773	-0.008244	-0.016623	-0.646240	-0.423340	0.233643	-0.332640	-0.590391	0.224863	-0.700162
05097		9.622845	0.847267	1.934716	-0.046359	0.014937	-0.028778	-0.645020	-0.435303	0.230713	-0.332929	-0.590244	0.224894	-0.700138
05098		9.599994	0.898575	1.976338	-0.056432	0.040100	-0.035833	-0.647217	-0.429199	0.230469	-0.333569	-0.589899	0.224989	-0.700093
05099		9.615346	0.895509	2.014346	-0.046545	0.040878	-0.031663	-0.643311	-0.426270	0.228271	-0.334009	-0.589580	0.224980	-0.700155
05100		9.614059	0.803583	1.992132	-0.030550	0.025648	-0.026480	-0.645508	-0.431641	0.226074	-0.334329	-0.589377	0.224963	-0.700179
05101		9.561521	0.676799	1.947896	-0.020644	0.027222	-0.022811	-0.651611	-0.428711	0.232178	-0.334652	-0.589162	0.224940	-0.700213
05102		9.551296	0.655790	1.974934	-0.020670	0.052827	-0.024388	-0.649902	-0.419922	0.230469	-0.334817	-0.588865	0.224701	-0.700461
05103		9.503914	0.712335	2.069692	-0.024633	0.057693	-0.026622	-0.642578	-0.427979	0.230957	-0.334939	-0.588533	0.224429	-0.700769
05104		9.453789	0.830875	2.047122	-0.023595	0.053079	-0.028375	-0.643555	-0.429199	0.235107	-0.335225	-0.588244	0.224236	-0.700936
05105		9.460205	0.858836	2.035628	-0.010595	0.056662	-0.027662	-0.643799	-0.429443	0.224609	-0.335367	-0.588020	0.223894	-0.701165
05106		9.454922	0.880885	2.084373	0.003532	0.050049	-0.034096	-0.654053	-0.430176	0.232422	-0.335635	-0.587779	0.223589	-0.701336
05107		9.462457	0.861728	2.129150	0.006644	0.037111	-0.034396	-0.648682	-0.429443	0.219482	-0.335607	-0.587705	0.223121	-0.701560
05108		9.460887	0.867485	2.133782	0.000067	0.022241	-0.037107	-0.641357	-0.428467	0.229980	-0.335880	-0.587570	0.222932	-0.701603
05109		9.481298	0.891129	2.115930	-0.016561	0.029101	-0.038092	-0.642334	-0.429932	0.228027	-0.336121	-0.587474	0.222698	-0.701643
05110		9.469431	0.951025	2.096616	-0.026183	0.027942	-0.041001	-0.636719	-0.432861	0.228760	-0.336451	-0.587345	0.222529	-0.701646
05111		9.470430	0.968887	2.074184	-0.024415	0.017594	-0.039329	-0.644287	-0.429688	0.226807	-0.336806	-0.587295	0.222410	-0.701555
05112		9.540137	0.912804	2.086309	-0.032268	-0.000896	-0.034023	-0.646973	-0.428467	0.227539	-0.337042	-0.587297	0.222379	-0.701450
05113		9.532628	0.852505	2.006223	-0.048437	-0.012479	-0.032491	-0.646729	-0.432861	0.226807	-0.337264	-0.587325	0.222445	-0.701299
05114		9.586159	0.801453	1.984871	-0.051474	-0.005761	-0.026116	-0.638916	-0.429932	0.226074	-0.337521	-0.587290	0.222560	-0.701169
05115		9.571473	0.803662	2.000093	-0.049780	0.001623	-0.024397	-0.639648	-0.434326	0.225098	-0.337843	-0.587210	0.222704	-0.701035
05116		9.577056	0.781731	2.005707	-0.032529	-0.005451	-0.020072	-0.638428	-0.429199	0.224854	-0.338077	-0.587207	0.222799	-0.700894
05117		9.574411	0.735731	2.029814	-0.017011	-0.017201	-0.020244	-0.645752	-0.430664	0.224854	-0.338187	-0.587311	0.222837	-0.700742
05118		9.492030	0.710650	1.990160	-0.007795	-0.016211	-0.024870	-0.639404	-0.435547	0.225586	-0.338207	-0.587440	0.222752	-0.700652
05119		9.452877	0.768640	1.993825	-0.003132	-0.012744	-0.026826	-0.644775	-0.432129	0.227295	-0.338313	-0.587579	0.222655	-0.700514
05120		9.486297	0.844049	1.995999	0.004837	-0.014592	-0.023927	-0.640869	-0.443115	0.222656	-0.338238	-0.587758	0.222464	-0.700461
05121		9.533625	0.883819	1.983041	0.015831	-0.003757	-0.022855	-0.634521	-0.437744	0.231445	-0.338338	-0.587861	0.222300	-0.700379
05122		9.531219	0.875070	2.008067	0.021435	-0.009874	-0.016846	-0.640869	-0.437500	0.223389	-0.338216	-0.588100	0.222034	-0.700321
05123		9.485188	0.813656	2.001792	0.029623	-0.032329	-0.022190	-0.638672	-0.437988	0.227539	-0.338145	-0.588402	0.221865	-0.700155
05124		9.444066	0.788773	2.024947	0.048112	-0.057516	-0.028951	-0.640869	-0.429199	0.226807	-0.337925	-0.588959	0.221574	-0.699886
05125		9.439874	0.783700	2.006913	0.072939	-0.083993	-0.030613	-0.635986	-0.439697	0.225586	-0.337499	-0.589709	0.221217	-0.699572
05126		9.451468	0.748942	1.957302	0.084158	-0.089936	-0.019151	-0.634766	-0.443604	0.228271	-0.337106	-0.590489	0.220945	-0.699189
05127		9.478563	0.765204	1.966538	0.078152	-0.079301	-0.009093	-0.642822	-0.445557	0.227783	-0.336712	-0.591190	0.220715	-0.698859
05128		9.526313	0.863540	1.970210	0.059264	-0.062084	-0.002817	-0.638428	-0.439697	0.235107	-0.336361	-0.591703	0.220557	-0.698644
05129		9.565455	0.982849	2.084091	0.042146	-0.038678	0.001444	-0.644043	-0.438232	0.227539	-0.336000	-0.592087	0.220371	-0.698551
05130		9.640903	1.018682	2.146109	0.029616	-0.059747	-0.003907	-0.635986	-0.435303	0.233887	-0.335784	-0.592474	0.220391	-0.698321
05131		9.634340	1.050864	2.082793	0.011281	-0.086422	-0.005682	-0.642090	-0.432617	0.234863	-0.335581	-0.593028	0.220539	-0.697901
05132		9.605879	1.094477	2.053219	-0.004962	-0.092664	-0.009587	-0.638672	-0.428223	0.234619	-0.335381	-0.593574	0.220733	-0.697472
05133		9.462299	1.023107	2.154619	-0.013920	-0.107145	-0.008664	-0.637451	-0.438232	0.234131	-0.335225	-0.594159	0.221061	-0.696944
05134		9.347569	0.905298	2.135622	-0.011261	-0.146738	-0.010933	-0.630615	-0.441162	0.237793	-0.335095	-0.594981	0.221512	-0.696162
05135		9.325872	0.777070	2.003875	-0.007743	-0.123733	-0.013865	-0.638184	-0.436523	0.237549	-0.335049	-0.595714	0.221869	-0.695443
05136		9.319885	0.712505	2.021591	-0.002127	-0.077677	-0.009545	-0.636230	-0.440430	0.243896	-0.334942	-0.596161	0.222051	-0.695053
05137		9.378423	0.748147	2.061706	-0.000877	-0.079726	-0.001854	-0.637695	-0.433105	0.237549	-0.334715	-0.596673	0.222191	-0.694679
05138		9.475010	0.814969	1.923479	-0.007109	-0.096484	0.003310	-0.640137	-0.436768	0.241943	-0.334534	-0.597168	0.222542	-0.694228
05139		9.605160	0.923403	1.773295	-0.012883	-0.092763	-0.001152	-0.640381	-0.433594	0.243408	-0.334337	-0.597674	0.222818	-0.693799
05140		9.738770	1.029857	1.770879	-0.040185	-0.060397	-0.004746	-0.632568	-0.445312	0.237793	-0.334321	-0.597924	0.223127	-0.693491
05141		9.803278	1.082187	1.809416	-0.067709	-0.027687	-0.009598	-0.639893	-0.437988	0.246094	-0.334799	-0.597873	0.223647	-0.693138
05142		9.811352	1.133354	1.911411	-0.089122	-0.036303	-0.009716	-0.634033	-0.441895	0.248535	-0.335072	-0.597889	0.224105	-0.692844
05143		9.717525	1.083780	1.957637	-0.097241	-0.062627	-0.011466	-0.630859	-0.445312	0.246582	-0.335374	-0.598074	0.224665	-0.692356
05144		9.572636	0.992287	1.991632	-0.105976	-0.110022	-0.009880	-0.633545	-0.436035	0.233154	-0.335699	-0.598491	0.225466	-0.691578
05145		9.462228	0.846158	1.767788	-0.108562	-0.148999	-0.012634	-0.628662	-0.440674	0.242432	-0.336183	-0.598960	0.226609	-0.690562
05146		9.470176	0.745152	1.653300	-0.124059	-0.107157	-0.009969	-0.631348	-0.439941	0.240723	-0.336696	-0.599242	0.227607	-0.689739
05147		9.465274	0.744323	1.787463	-0.131421	-0.075746	0.003044	-0.629395	-0.449219	0.236328	-0.337224	-0.599272	0.228634	-0.689115
05148		9.446200	0.743717	1.823674	-0.118833	-0.118034	0.016727	-0.622803	-0.444092	0.245605	-0.337673	-0.599523	0.229871	-0.688265
05149		9.552905	0.672941	1.711850	-0.101029	-0.164659	0.031940	-0.635742	-0.444580	0.240723	-0.337731	-0.600147	0.231099	-0.687281
05150		9.698867	0.677739	1.617574	-0.082357	-0.172735	0.041821	-0.624756	-0.442871	0.246094	-0.337578	-0.600786	0.232292	-0.686395
05151		9.802922	0.680277	1.570850	-0.070621	-0.139869	0.049928	-0.618408	-0.454346	0.244141	-0.337419	-0.601296	0.233372	-0.685660
05152		9.812849	0.710780	1.572131	-0.074078	-0.103906	0.057209	-0.623535	-0.444580	0.247314	-0.337500	-0.601559	0.234532	-0.684993
05153		9.753940	0.803886	1.670694	-0.064453	-0.092453	0.056886	-0.624023	-0.446045	0.245605	-0.337393	-0.601798	0.235500	-0.684503
05154		9.671387	0.804331	1.688774	-0.062566	-0.123978	0.058272	-0.620361	-0.445312	0.250488	-0.337250	-0.602199	0.236590	-0.683845
05155		9.595599	0.817541	1.529229	-0.058368	-0.148814	0.055012	-0.620605	-0.444824	0.254150	-0.337032	-0.602795	0.237679	-0.683050
05156		9.567572	0.785095	1.479610	-0.058208	-0.123422	0.051516	-0.627441	-0.442383	0.249023	-0.336841	-0.603274	0.238643	-0.682384
05157		9.569775	0.726724	1.486037	-0.064271	-0.117309	0.049144	-0.628174	-0.441162	0.248779	-0.336694	-0.603649	0.239627	-0.681780
05158		9.612426	0.698794	1.461113	-0.062889	-0.108380	0.053306	-0.625732	-0.443359	0.255615	-0.336529	-0.603960	0.240600	-0.681244
05159		9.622877	0.706936	1.436067	-0.061067	-0.124454	0.052859	-0.625977	-0.446533	0.253174	-0.336290	-0.604421	0.241559	-0.680613
05160		9.653869	0.705086	1.371483	-0.051744	-0.133355	0.046281	-0.625000	-0.444824	0.258545	-0.336094	-0.604942	0.242515	-0.679906
05161		9.619998	0.748274	1.294029	-0.044074	-0.121418	0.037212	-0.622070	-0.439941	0.253906	-0.335875	-0.605471	0.243295	-0.679265
05162		9.597746	0.744285	1.226664	-0.043634	-0.119796	0.032825	-0.622559	-0.448486	0.257324	-0.335738	-0.605953	0.244108	-0.678610
05163		9.646272	0.685896	1.151702	-0.043727	-0.102331	0.034305	-0.623291	-0.450684	0.247803	-0.335672	-0.606351	0.244899	-0.678002
05164		9.713548	0.694239	1.179813	-0.040926	-0.074825	0.036683	-0.625000	-0.447021	0.260986	-0.335767	-0.606512	0.245734	-0.677509
05165		9.775999	0.797646	1.209699	-0.045616	-0.065662	0.043228	-0.619629	-0.453369	0.258545	-0.335679	-0.606693	0.246437	-0.677135
05166		9.786118	0.850027	1.179730	-0.046492	-0.082578	0.046075	-0.622803	-0.447998	0.246094	-0.335704	-0.606935	0.247332	-0.676579
05167		9.753669	0.718726	1.119138	-0.027266	-0.098276	0.048942	-0.616211	-0.446045	0.254395	-0.335612	-0.607222	0.248226	-0.676040
05168		9.741104	0.583535	1.005836	-0.016804	-0.103019	0.049375	-0.625977	-0.440918	0.258301	-0.335448	-0.607615	0.249065	-0.675460
05169		9.702316	0.531463	1.050116	-0.020261	-0.082065	0.048443	-0.623291	-0.448730	0.263428	-0.335155	-0.607909	0.249705	-0.675104
05170		9.679369	0.604042	1.125336	-0.019687	-0.094720	0.040589	-0.614746	-0.451904	0.256592	-0.334989	-0.608305	0.250423	-0.674563
05171		9.623945	0.646569	1.115493	-0.022063	-0.121426	0.034309	-0.616699	-0.441406	0.263184	-0.335010	-0.608800	0.251363	-0.673756
05172		9.539938	0.569787	1.007757	-0.000927	-0.141230	0.029171	-0.615723	-0.452881	0.263672	-0.334715	-0.609525	0.252056	-0.672988
05173		9.553029	0.462331	0.883887	0.020828	-0.140614	0.026840	-0.623779	-0.439941	0.268066	-0.334520	-0.610274	0.252779	-0.672135
05174		9.711374	0.433372	0.805760	0.032115	-0.082156	0.025888	-0.619141	-0.444336	0.264404	-0.334092	-0.610776	0.253021	-0.671801
05175		9.866151	0.531323	0.964548	0.027417	-0.028197	0.026052	-0.617920	-0.445068	0.268311	-0.333943	-0.610924	0.253264	-0.671649
05176		10.002489	0.686615	1.073854	0.021185	-0.029943	0.019804	-0.619141	-0.441650	0.254639	-0.333891	-0.611086	0.253546	-0.671420
05177		10.000001	0.796468	1.106986	0.008622	-0.051034	0.009280	-0.616943	-0.444580	0.271240	-0.333848	-0.611309	0.253844	-0.671126
05178		9.868083	0.738117	1.000792	0.010935	-0.070591	-0.000316	-0.618896	-0.439941	0.268066	-0.333896	-0.611714	0.254217	-0.670592
05179		9.839667	0.647965	0.913842	0.009849	-0.023539	-0.012343	-0.621094	-0.438965	0.267822	-0.333997	-0.611883	0.254300	-0.670355
05180		9.812541	0.604265	1.038927	0.009068	0.040755	-0.025084	-0.620361	-0.447021	0.268555	-0.334257	-0.611722	0.254099	-0.670449
05181		9.776063	0.727748	1.220559	0.005483	0.050216	-0.032225	-0.624512	-0.441406	0.262451	-0.334768	-0.611480	0.254011	-0.670448
05182		9.730876	0.805229	1.246763	0.002568	0.032571	-0.032839	-0.622803	-0.443115	0.262695	-0.335067	-0.611345	0.253811	-0.670497
05183		9.702809	0.790809	1.176020	-0.010468	0.029310	-0.034266	-0.618164	-0.439697	0.263184	-0.335485	-0.611189	0.253731	-0.670461
05184		9.700330	0.757647	1.114617	-0.022333	0.058602	-0.038272	-0.624268	-0.441895	0.265869	-0.336020	-0.610863	0.253591	-0.670543
05185		9.736570	0.712116	1.183815	-0.023725	0.095120	-0.040424	-0.629395	-0.444580	0.266846	-0.336629	-0.610337	0.253326	-0.670817
05186		9.740730	0.719680	1.298766	-0.026766	0.096225	-0.044772	-0.619141	-0.443115	0.266602	-0.337276	-0.609801	0.253050	-0.671084
05187		9.719290	0.759578	1.378922	-0.029909	0.076530	-0.045190	-0.625244	-0.442383	0.257568	-0.337984	-0.609373	0.252922	-0.671164
05188		9.646286	0.801972	1.291672	-0.021947	0.047011	-0.038972	-0.617432	-0.447998	0.260742	-0.338408	-0.609115	0.252727	-0.671259
05189		9.644203	0.769005	1.230558	-0.035493	0.044019	-0.038286	-0.615967	-0.437256	0.259277	-0.339120	-0.608810	0.252833	-0.671136
05190		9.675125	0.773604	1.241662	-0.060317	0.084710	-0.039516	-0.611572	-0.443604	0.251709	-0.339799	-0.608268	0.252722	-0.671326
05191		9.666116	0.783067	1.291588	-0.071937	0.089988	-0.041040	-0.623291	-0.442627	0.247070	-0.340709	-0.607623	0.252796	-0.671421
05192		9.655777	0.759417	1.407193	-0.062462	0.090303	-0.043477	-0.615234	-0.449707	0.257080	-0.341380	-0.607019	0.252614	-0.671694
05193		9.607797	0.780791	1.474061	-0.038209	0.028773	-0.040433	-0.626221	-0.447754	0.259766	-0.342099	-0.606801	0.252780	-0.671463
05194		9.599694	0.700743	1.398617	-0.016777	-0.014834	-0.037720	-0.621582	-0.445557	0.259033	-0.342427	-0.606906	0.252800	-0.671193
05195		9.573267	0.580705	1.166320	-0.004158	-0.025609	-0.028640	-0.622070	-0.449219	0.265381	-0.342600	-0.607100	0.252809	-0.670926
05196		9.782981	0.547564	1.007142	-0.046112	0.075185	-0.020478	-0.618896	-0.445312	0.261963	-0.343264	-0.606583	0.252910	-0.671017
05197		9.886321	0.857220	1.390186	-0.102565	0.219782	-0.014522	-0.612305	-0.443604	0.254639	-0.344405	-0.605100	0.252870	-0.671786
05198		9.903087	1.184043	1.660853	-0.125170	0.182370	-0.007390	-0.631104	-0.448975	0.250977	-0.345538	-0.603751	0.253096	-0.672333
05199		9.861490	1.211921	1.601923	-0.112560	0.101105	-0.012869	-0.621094	-0.448975	0.243652	-0.346365	-0.602882	0.253364	-0.672585
05200		9.687013	0.906295	1.465160	-0.080325	0.006885	-0.023984	-0.624512	-0.456055	0.247070	-0.346958	-0.602652	0.253727	-0.672349
05201		9.599824	0.593611	1.280278	-0.067265	-0.024569	-0.050921	-0.620850	-0.446777	0.250000	-0.347718	-0.602659	0.254110	-0.671805
05202		9.563387	0.496227	1.344755	-0.087491	0.074219	-0.067180	-0.623047	-0.449707	0.243164	-0.348689	-0.602151	0.254057	-0.671778
05203		9.411325	0.541098	1.657568	-0.094272	0.116015	-0.063233	-0.625244	-0.445068	0.241211	-0.349736	-0.601365	0.253923	-0.671989
05204		9.301897	0.538542	1.732695	-0.058164	0.083532	-0.042165	-0.614014	-0.450928	0.234863	-0.350249	-0.600855	0.253632	-0.672287
05205		9.283757	0.489624	1.548509	-0.013880	0.041729	-0.021789	-0.623047	-0.449951	0.236816	-0.350567	-0.600622	0.253533	-0.672367
05206		9.455713	0.405150	1.395979	0.033751	0.020531	-0.010108	-0.618408	-0.453125	0.237793	-0.350420	-0.600635	0.253179	-0.672565
05207		9.644199	0.344052	1.419362	0.087669	0.005574	0.000814	-0.629150	-0.449463	0.234619	-0.350047	-0.600847	0.252749	-0.672731
05208		9.828502	0.428349	1.418693	0.120382	0.008233	0.002751	-0.621094	-0.450928	0.242188	-0.349285	-0.601152	0.251938	-0.673159
05209		9.892542	0.525533	1.520976	0.122256	0.016048	0.005331	-0.624756	-0.452148	0.246338	-0.348694	-0.601407	0.251267	-0.673488
05210		9.802457	0.661324	1.506190	0.116570	0.007092	0.005447	-0.621826	-0.443359	0.241455	-0.348130	-0.601694	0.250669	-0.673747
05211		9.714364	0.859231	1.440811	0.121725	0.015026	0.012691	-0.624023	-0.450439	0.245117	-0.347332	-0.601967	0.249888	-0.674205
05212		9.656002	0.885521	1.420390	0.126922	0.019398	0.017680	-0.623291	-0.447754	0.240967	-0.346657	-0.602185	0.249246	-0.674596
05213		9.675298	0.796459	1.392146	0.124411	0.004956	0.025924	-0.626465	-0.452393	0.238525	-0.345863	-0.602459	0.248655	-0.674977
05214		9.702414	0.796916	1.360322	0.103330	0.008637	0.017494	-0.627441	-0.444336	0.246338	-0.345303	-0.602636	0.248205	-0.675270
05215		9.714458	0.835985	1.415352	0.082835	0.029941	0.009203	-0.627930	-0.448486	0.245117	-0.344796	-0.602702	0.247624	-0.675684
05216		9.691553	0.878878	1.539787	0.065842	0.045842	0.005587	-0.622314	-0.445801	0.252930	-0.344519	-0.602611	0.247164	-0.676074
05217		9.623310	0.912338	1.626236	0.049949	0.042816	0.005534	-0.626465	-0.445312	0.243164	-0.344355	-0.602518	0.246826	-0.676364
05218		9.517958	0.938475	1.624811	0.020335	0.033185	-0.001716	-0.621094	-0.449463	0.242188	-0.344281	-0.602390	0.246585	-0.676604
05219		9.487666	0.905117	1.481090	-0.005210	0.044122	-0.010330	-0.624023	-0.447754	0.244141	-0.344551	-0.602122	0.246550	-0.676717
05220		9.487522	0.898252	1.435358	-0.012846	0.058401	-0.025034	-0.631348	-0.442139	0.244873	-0.344910	-0.601797	0.246381	-0.676885
05221		9.544717	0.831973	1.411423	-0.012509	0.063237	-0.036869	-0.624756	-0.448486	0.242920	-0.345148	-0.601501	0.245951	-0.677184
05222		9.677409	0.749988	1.481495	-0.017469	0.074742	-0.042765	-0.624268	-0.443604	0.243652	-0.345659	-0.601107	0.245668	-0.677376
05223		9.737787	0.715699	1.573308	-0.028542	0.062947	-0.039699	-0.628418	-0.449951	0.238525	-0.346084	-0.600767	0.245399	-0.677558
05224		9.737645	0.747292	1.531669	-0.040639	0.062509	-0.034528	-0.627930	-0.447998	0.239502	-0.346604	-0.600349	0.245298	-0.677699
05225		9.655972	0.810371	1.585892	-0.063096	0.067119	-0.040042	-0.632812	-0.450195	0.239502	-0.347238	-0.599866	0.245241	-0.677822
05226		9.670490	0.946550	1.714455	-0.071969	0.064021	-0.038383	-0.627441	-0.448242	0.234863	-0.347882	-0.599369	0.245236	-0.677933
05227		9.644561	0.894479	1.645136	-0.053615	0.040803	-0.028330	-0.626221	-0.450195	0.239502	-0.348333	-0.599035	0.245250	-0.677993
05228		9.617178	0.750795	1.608921	-0.035524	0.041440	-0.031589	-0.620605	-0.443115	0.232422	-0.348760	-0.598765	0.245176	-0.678037
05229		9.516702	0.677794	1.620581	-0.014932	0.029789	-0.034540	-0.627197	-0.452881	0.237549	-0.348992	-0.598634	0.244934	-0.678122
05230		9.524204	0.649597	1.572583	0.012825	-0.008489	-0.030622	-0.626709	-0.452637	0.232666	-0.349091	-0.598776	0.244760	-0.678008
05231		9.556547	0.510728	1.562856	0.033482	-0.030883	-0.020479	-0.624512	-0.446289	0.238281	-0.348978	-0.599070	0.244590	-0.677868
05232		9.588813	0.433975	1.399446	0.092310	-0.057566	-0.023773	-0.624756	-0.450439	0.226807	-0.348440	-0.599729	0.244047	-0.677758
05233		9.627032	0.535672	1.276591	0.144813	-0.035663	-0.021086	-0.626953	-0.447021	0.241943	-0.347751	-0.600352	0.243265	-0.677842
05234		9.648199	0.560246	1.246923	0.195073	-0.034465	-0.004204	-0.626953	-0.448730	0.243164	-0.346627	-0.601136	0.242166	-0.678116
05235		9.754121	0.545477	1.232687	0.231408	-0.052341	0.017525	-0.627930	-0.440918	0.236572	-0.345205	-0.602070	0.241066	-0.678404
05236		9.699470	0.596758	1.328907	0.250658	-0.023014	0.027333	-0.621582	-0.441895	0.247070	-0.343586	-0.602855	0.239744	-0.678997
05237		9.579347	0.814898	1.455926	0.264657	-0.041136	0.032206	-0.625000	-0.445312	0.251953	-0.341924	-0.603794	0.238484	-0.679445
05238		9.501967	0.953430	1.476731	0.254907	-0.043360	0.028094	-0.631836	-0.443115	0.250244	-0.340366	-0.604721	0.237296	-0.679819
05239		9.355466	0.911604	1.571438	0.237359	-0.023778	0.023184	-0.619385	-0.429932	0.256836	-0.338894	-0.605479	0.236077	-0.680304
05240		9.284471	0.838596	1.541157	0.230993	-0.027937	0.006205	-0.632568	-0.441162	0.252441	-0.337470	-0.606320	0.234725	-0.680730
05241		9.309472	0.874020	1.597074	0.243494	-0.018382	-0.015826	-0.633057	-0.448730	0.250732	-0.336211	-0.607124	0.233276	-0.681135
05242		9.386336	0.875640	1.667968	0.234049	-0.051182	-0.020726	-0.634766	-0.444580	0.258301	-0.335093	-0.608060	0.232086	-0.681257
05243		9.435221	0.831538	1.597998	0.199139	-0.094406	-0.022201	-0.627197	-0.437988	0.265137	-0.333982	-0.609177	0.231101	-0.681140
05244		9.557385	0.947008	1.521784	0.175762	-0.077471	-0.015457	-0.628174	-0.436279	0.273193	-0.332949	-0.610150	0.230182	-0.681086
05245		9.663562	0.994267	1.528992	0.148298	-0.071888	-0.008379	-0.629150	-0.427979	0.264404	-0.331969	-0.611029	0.229369	-0.681050
05246		9.826633	0.925355	1.599879	0.128038	-0.063792	0.004405	-0.627197	-0.437744	0.260986	-0.330981	-0.611740	0.228684	-0.681123
05247		9.818711	0.824620	1.702464	0.104188	-0.062519	0.021265	-0.625000	-0.434326	0.267090	-0.330207	-0.612303	0.228415	-0.681084
05248		9.756350	0.871621	1.661606	0.091154	-0.074885	0.026598	-0.622559	-0.439453	0.272949	-0.329402	-0.612918	0.228221	-0.680986
05249		9.660647	0.935620	1.659479	0.052021	-0.075182	0.026704	-0.626465	-0.429443	0.279541	-0.328858	-0.613442	0.228304	-0.680748
05250		9.670521	0.968841	1.600408	0.006519	-0.055630	0.014325	-0.623291	-0.432861	0.265381	-0.328466	-0.613793	0.228323	-0.680615
05251		9.704642	0.937406	1.580730	-0.041271	-0.034965	-0.003836	-0.625244	-0.434814	0.265137	-0.328640	-0.613847	0.228679	-0.680363
05252		9.676941	0.950285	1.664753	-0.078664	0.010834	-0.023784	-0.629395	-0.430420	0.272217	-0.329208	-0.613573	0.229024	-0.680219
05253		9.608412	0.940822	1.774106	-0.089297	0.018499	-0.031895	-0.625000	-0.428467	0.271973	-0.329735	-0.613288	0.229191	-0.680165
05254		9.568437	0.865593	1.756899	-0.098790	-0.006562	-0.031477	-0.624756	-0.426514	0.270020	-0.330269	-0.613124	0.229484	-0.679955
05255		9.582453	0.813900	1.699583	-0.098244	-0.026802	-0.029750	-0.624756	-0.433838	0.260010	-0.330740	-0.613065	0.229825	-0.679664
05256		9.650833	0.738275	1.550564	-0.107487	-0.025880	-0.027107	-0.621338	-0.440674	0.268066	-0.331409	-0.612905	0.230425	-0.679279
05257		9.683296	0.769630	1.564800	-0.103996	0.010132	-0.027512	-0.624756	-0.435547	0.262939	-0.332137	-0.612601	0.230890	-0.679040
05258		9.636441	0.807317	1.584332	-0.093666	0.024553	-0.026791	-0.624023	-0.438232	0.258789	-0.332783	-0.612219	0.231216	-0.678957
05259		9.616164	0.874468	1.586431	-0.095855	0.015509	-0.020507	-0.627441	-0.435059	0.265137	-0.333447	-0.611849	0.231680	-0.678807
05260		9.636466	0.905896	1.538339	-0.105175	-0.009244	-0.024900	-0.617676	-0.430664	0.264893	-0.333990	-0.611648	0.232077	-0.678585
05261		9.743222	0.902693	1.426317	-0.109552	0.001133	-0.027152	-0.621582	-0.439697	0.270752	-0.334621	-0.611388	0.232476	-0.678372
05262		9.767613	0.867978	1.478660	-0.100296	0.031723	-0.027497	-0.621582	-0.438721	0.257568	-0.335246	-0.611017	0.232709	-0.678318
05263		9.765457	0.851496	1.525895	-0.093125	0.042434	-0.028100	-0.627441	-0.443359	0.255127	-0.335977	-0.610527	0.233021	-0.678291
05264		9.711483	0.877349	1.543435	-0.088368	0.034050	-0.026079	-0.617432	-0.435303	0.259766	-0.336656	-0.610081	0.233352	-0.678241
05265		9.625265	0.831525	1.555451	-0.086370	0.000830	-0.028881	-0.626221	-0.433594	0.256348	-0.337213	-0.609879	0.233652	-0.678042
05266		9.646648	0.811990	1.464508	-0.069269	-0.013862	-0.026787	-0.625244	-0.449219	0.263672	-0.337574	-0.609785	0.233851	-0.677880
05267		9.713545	0.858186	1.375789	-0.059228	0.034126	-0.020388	-0.623047	-0.446533	0.260498	-0.338007	-0.609478	0.233954	-0.677904
05268		9.718771	0.877043	1.378306	-0.063555	0.078207	-0.006061	-0.616943	-0.442383	0.256348	-0.338485	-0.608868	0.234049	-0.678181
05269		9.663846	0.928783	1.416615	-0.063017	0.085580	0.005845	-0.628418	-0.450195	0.253418	-0.338956	-0.608177	0.234228	-0.678503
05270		9.674495	0.900810	1.466242	-0.062112	0.057509	0.014386	-0.617188	-0.450439	0.252197	-0.339313	-0.607615	0.234541	-0.678720
05271		9.660700	0.909550	1.463994	-0.061958	0.035957	0.010120	-0.621094	-0.449951	0.252441	-0.339755	-0.607185	0.234988	-0.678729
05272		9.555779	0.794976	1.445209	-0.040747	0.026170	-0.007307	-0.620850	-0.455322	0.256836	-0.340116	-0.606912	0.235200	-0.678719
05273		9.535823	0.689822	1.430299	-0.011382	0.027710	-0.025865	-0.620361	-0.447266	0.254883	-0.340433	-0.606780	0.235136	-0.678701
05274		9.546501	0.591540	1.484361	0.030219	0.045782	-0.030864	-0.617920	-0.447510	0.252686	-0.340540	-0.606668	0.234690	-0.678902
05275		9.514692	0.520614	1.419571	0.045441	0.022147	-0.020562	-0.621826	-0.447998	0.244629	-0.340509	-0.606700	0.234326	-0.679014
05276		9.543761	0.640693	1.299073	0.061526	0.001524	-0.003455	-0.613281	-0.447266	0.260254	-0.340317	-0.606808	0.234102	-0.679091
05277		9.603867	0.791586	1.257207	0.088972	-0.013921	0.021223	-0.621582	-0.451172	0.253906	-0.339725	-0.607132	0.233747	-0.679221
05278		9.730795	0.837800	1.197510	0.110226	-0.037610	0.043597	-0.614746	-0.442871	0.257324	-0.338900	-0.607555	0.233536	-0.679326
05279		9.818204	0.814266	1.166455	0.135593	-0.051126	0.062034	-0.617920	-0.443115	0.263672	-0.337777	-0.608112	0.233250	-0.679486
05280		9.827384	0.758273	1.132571	0.151673	-0.069057	0.076462	-0.616943	-0.447266	0.260010	-0.336395	-0.608814	0.232928	-0.679653
05281		9.858052	0.773096	1.034823	0.166604	-0.068136	0.087047	-0.624268	-0.438721	0.265381	-0.335007	-0.609492	0.232726	-0.679800
05282		9.840567	0.791151	1.021834	0.158272	-0.031271	0.092301	-0.627686	-0.436279	0.266357	-0.333529	-0.609952	0.232305	-0.680258
05283		9.846727	0.921008	1.130282	0.143218	-0.012322	0.090366	-0.624268	-0.438477	0.267090	-0.332147	-0.610262	0.231881	-0.680800
05284		9.784399	1.064980	1.099657	0.110713	-0.009326	0.086905	-0.624756	-0.434570	0.263428	-0.331037	-0.610466	0.231704	-0.681219
05285		9.764764	1.178553	1.202141	0.072832	0.001852	0.073850	-0.629639	-0.436523	0.264648	-0.330239	-0.610500	0.231677	-0.681585
05286		9.708524	1.212437	1.140998	0.037069	0.029516	0.048643	-0.620117	-0.431396	0.261475	-0.329805	-0.610327	0.231641	-0.681961
05287		9.778700	1.230121	1.212529	-0.029262	0.104774	0.016652	-0.621338	-0.433838	0.262939	-0.330113	-0.609593	0.231684	-0.682455
05288		9.750242	1.227914	1.459428	-0.079294	0.162177	-0.019874	-0.622803	-0.432373	0.267334	-0.330981	-0.608479	0.231652	-0.683039
05289		9.593463	1.145314	1.760798	-0.087902	0.098827	-0.032156	-0.623779	-0.441650	0.262939	-0.331739	-0.607769	0.231657	-0.683302
05290		9.418215	0.977860	1.603643	-0.075249	-0.024167	-0.034688	-0.627441	-0.432129	0.264893	-0.332322	-0.607773	0.232051	-0.682881
05291		9.355413	0.821886	1.475118	-0.068432	-0.048592	-0.036269	-0.629639	-0.437988	0.265381	-0.332666	-0.607960	0.232278	-0.682470
05292		9.395492	0.778209	1.448645	-0.063271	-0.035081	-0.038197	-0.630127	-0.431152	0.260986	-0.333046	-0.608086	0.232462	-0.682109
05293		9.429295	0.735739	1.393777	-0.073190	0.002197	-0.045150	-0.622559	-0.438965	0.255371	-0.333557	-0.607962	0.232533	-0.681946
05294		9.522808	0.786532	1.535818	-0.074789	0.048469	-0.046282	-0.624268	-0.433350	0.260254	-0.334362	-0.607537	0.232692	-0.681877
05295		9.618719	0.850403	1.574995	-0.063070	0.048863	-0.039117	-0.627930	-0.434326	0.259521	-0.334920	-0.607170	0.232645	-0.681946
05296		9.702308	0.961782	1.602129	-0.058466	0.024569	-0.035896	-0.627930	-0.438721	0.261963	-0.335360	-0.606947	0.232628	-0.681934
05297		9.747378	1.031986	1.605767	-0.068862	0.009241	-0.041689	-0.631836	-0.443115	0.263916	-0.335852	-0.606812	0.232678	-0.681794
05298		9.727344	1.008613	1.578717	-0.068729	0.019420	-0.053682	-0.621582	-0.444824	0.260742	-0.336397	-0.606659	0.232604	-0.681687
05299		9.659080	0.967810	1.609235	-0.062659	0.050566	-0.059078	-0.619385	-0.441650	0.252930	-0.337119	-0.606343	0.232501	-0.681647
05300		9.628392	0.926352	1.677034	-0.057139	0.072196	-0.055015	-0.618896	-0.436279	0.257812	-0.337909	-0.605862	0.232414	-0.681713
05301		9.642985	0.907088	1.758908	-0.076813	0.067836	-0.045729	-0.635254	-0.448242	0.249756	-0.338613	-0.605374	0.232346	-0.681820
05302		9.675501	1.014899	1.706453	-0.090823	0.051198	-0.042196	-0.627930	-0.447510	0.259277	-0.339372	-0.604884	0.232509	-0.681822
05303		9.644172	1.069317	1.610129	-0.110699	0.057793	-0.041976	-0.628662	-0.442383	0.255371	-0.340149	-0.604376	0.232634	-0.681843
05304		9.633811	1.006008	1.656710	-0.101784	0.091127	-0.035921	-0.622314	-0.442383	0.247314	-0.340897	-0.603670	0.232629	-0.682096
05305		9.609531	0.905768	1.719535	-0.075904	0.085939	-0.030512	-0.629883	-0.448730	0.250732	-0.341614	-0.603011	0.232670	-0.682306
05306		9.540874	0.752178	1.752547	-0.061521	0.069259	-0.028742	-0.624023	-0.449707	0.246826	-0.342119	-0.602522	0.232590	-0.682513
05307		9.509576	0.685957	1.678723	-0.053841	0.045057	-0.031919	-0.626465	-0.443848	0.246582	-0.342645	-0.602180	0.232613	-0.682542
05308		9.458333	0.715496	1.615457	-0.046238	0.043153	-0.031251	-0.626709	-0.443604	0.250244	-0.343064	-0.601867	0.232529	-0.682637
05309		9.451805	0.762319	1.579246	-0.036081	0.053639	-0.027765	-0.620605	-0.446533	0.247559	-0.343361	-0.601549	0.232291	-0.682849
05310		9.517127	0.862896	1.541541	-0.025818	0.065776	-0.019797	-0.621826	-0.446777	0.247070	-0.343674	-0.601165	0.232094	-0.683097
05311		9.618247	0.900108	1.590504	-0.021314	0.070567	-0.012674	-0.629639	-0.447510	0.242432	-0.343919	-0.600755	0.231879	-0.683407
05312		9.695345	0.938206	1.590111	-0.014339	0.062228	-0.010087	-0.625000	-0.451416	0.239014	-0.344102	-0.600376	0.231685	-0.683714
05313		9.693823	0.939574	1.598558	-0.009142	0.040057	-0.010706	-0.614258	-0.452881	0.239990	-0.344314	-0.600126	0.231625	-0.683847
05314		9.679666	0.989895	1.595183	-0.005947	0.036544	-0.019132	-0.619141	-0.449463	0.248291	-0.344616	-0.599939	0.231566	-0.683879
05315		9.651172	0.998391	1.619294	-0.003661	0.042451	-0.023259	-0.624023	-0.444336	0.240967	-0.344754	-0.599791	0.231243	-0.684048
05316		9.571987	0.978165	1.609740	-0.004175	0.027251	-0.024785	-0.627441	-0.456543	0.242188	-0.344923	-0.599670	0.231026	-0.684142
05317		9.566199	0.947127	1.580121	0.002021	0.021970	-0.022816	-0.629150	-0.456543	0.253174	-0.345033	-0.599621	0.230808	-0.684204
05318		9.559492	0.902265	1.576004	0.015381	0.019216	-0.009569	-0.624268	-0.445068	0.244385	-0.344803	-0.599685	0.230366	-0.684413
05319		9.587733	0.839485	1.532982	0.034355	0.026539	0.001797	-0.621826	-0.453613	0.242432	-0.344571	-0.599655	0.229998	-0.684679
05320		9.600905	0.840432	1.521785	0.034780	0.031802	0.005074	-0.625732	-0.440186	0.241699	-0.344396	-0.599593	0.229714	-0.684917
05321		9.712377	0.883277	1.505246	0.004802	0.045784	0.009282	-0.622559	-0.456543	0.242920	-0.344337	-0.599322	0.229533	-0.685244
05322		9.697136	1.020496	1.646070	-0.026170	0.055607	0.011849	-0.626953	-0.456787	0.237549	-0.344459	-0.598951	0.229550	-0.685502
05323		9.688998	1.149995	1.651165	-0.032590	0.017909	0.004508	-0.627197	-0.456543	0.246826	-0.344630	-0.598753	0.229742	-0.685525
05324		9.605245	1.076970	1.629700	-0.014617	-0.007214	0.004177	-0.619629	-0.446045	0.237305	-0.344497	-0.598827	0.229705	-0.685538
05325		9.568560	0.891914	1.601610	-0.007159	-0.010009	-0.005563	-0.622803	-0.446289	0.244873	-0.344592	-0.598859	0.229802	-0.685431
05326		9.573925	0.820317	1.631460	-0.007874	0.007273	-0.011677	-0.626221	-0.455566	0.241943	-0.344601	-0.598863	0.229650	-0.685474
05327		9.528468	0.823392	1.745468	-0.004963	0.004648	-0.006250	-0.620850	-0.451416	0.244141	-0.344586	-0.598878	0.229566	-0.685496
05328		9.452998	0.861872	1.677888	0.000966	-0.013788	-0.006017	-0.620850	-0.452637	0.235107	-0.344501	-0.599025	0.229481	-0.685439
05329		9.434943	0.904784	1.646516	0.002636	-0.016578	0.004178	-0.624512	-0.448730	0.235840	-0.344511	-0.599100	0.229638	-0.685316
05330		9.523588	0.907176	1.584941	-0.006812	-0.007126	-0.000801	-0.623535	-0.447021	0.238770	-0.344578	-0.599096	0.229761	-0.685245
05331		9.633209	1.002981	1.606428	-0.025951	0.027693	-0.002894	-0.633301	-0.447754	0.236816	-0.344773	-0.598863	0.229826	-0.685329
05332		9.664956	1.106598	1.729794	-0.038422	0.034275	-0.004368	-0.627686	-0.448242	0.240967	-0.345007	-0.598545	0.229911	-0.685460
05333		9.663711	1.099866	1.746481	-0.043188	0.000486	-0.006788	-0.623779	-0.457031	0.230957	-0.345170	-0.598453	0.230043	-0.685413
05334		9.647628	1.048431	1.685994	-0.040411	-0.028481	-0.013750	-0.625977	-0.450684	0.242676	-0.345503	-0.598492	0.230438	-0.685079
05335		9.618081	0.961726	1.637908	-0.047336	-0.019429	-0.022290	-0.632568	-0.452881	0.232178	-0.345713	-0.598554	0.230542	-0.684884
05336		9.719651	0.914915	1.701891	-0.071948	0.028677	-0.029160	-0.628174	-0.454834	0.241943	-0.346310	-0.598201	0.230791	-0.684807
05337		9.689775	0.983269	1.858285	-0.096415	0.085154	-0.031265	-0.622559	-0.451904	0.236084	-0.346993	-0.597550	0.230812	-0.685023
05338		9.597198	1.089765	1.936726	-0.104298	0.074985	-0.035483	-0.626221	-0.451172	0.235352	-0.347837	-0.596899	0.231004	-0.685097
05339		9.486942	1.093938	1.877800	-0.086714	0.043089	-0.032749	-0.626221	-0.447998	0.235352	-0.348478	-0.596477	0.231164	-0.685085
05340		9.481273	1.026286	1.849277	-0.066936	0.027461	-0.031634	-0.625977	-0.451416	0.232910	-0.348968	-0.596197	0.231240	-0.685054
05341		9.464800	0.937504	1.905622	-0.058854	0.022871	-0.037064	-0.618652	-0.456055	0.232178	-0.349469	-0.595971	0.231292	-0.684977
05342		9.355989	0.853294	1.974023	-0.043655	0.009661	-0.033207	-0.621826	-0.454834	0.232422	-0.349893	-0.595871	0.231351	-0.684828
05343		9.312472	0.810617	1.932277	-0.025568	-0.011374	-0.030665	-0.618652	-0.462402	0.234375	-0.350138	-0.595938	0.231349	-0.684645
05344		9.303477	0.823777	1.853441	-0.022844	-0.006119	-0.026735	-0.623291	-0.457764	0.235352	-0.350329	-0.596014	0.231303	-0.684497
05345		9.416156	0.920600	1.808129	-0.030899	0.005164	-0.026472	-0.621338	-0.461182	0.229492	-0.350535	-0.595994	0.231227	-0.684435
05346		9.505394	0.971309	1.837780	-0.027216	0.001068	-0.021439	-0.617188	-0.458740	0.235107	-0.350794	-0.595961	0.231291	-0.684309
05347		9.566253	0.975465	1.806822	-0.017344	-0.033666	-0.011113	-0.616943	-0.460938	0.228760	-0.350805	-0.596177	0.231350	-0.684095
05348		9.634644	0.955295	1.775416	-0.015646	-0.059589	-0.015445	-0.626465	-0.460449	0.228271	-0.350899	-0.596505	0.231592	-0.683679
05349		9.672559	0.955295	1.700375	-0.024293	-0.066705	-0.020320	-0.625244	-0.455322	0.226318	-0.351001	-0.596843	0.231854	-0.683242
05350		9.696904	0.991623	1.743049	-0.055041	-0.046364	-0.025291	-0.622314	-0.464111	0.227051	-0.351390	-0.596948	0.232275	-0.682808
05351		9.646410	1.024060	1.832828	-0.083388	-0.037904	-0.025714	-0.620361	-0.463379	0.232178	-0.351920	-0.596955	0.232812	-0.682345
05352		9.617447	1.039163	1.897709	-0.090223	-0.064165	-0.023730	-0.614746	-0.468018	0.230469	-0.352340	-0.597128	0.233369	-0.681787
05353		9.549027	1.040333	1.851877	-0.084763	-0.082284	-0.016061	-0.611816	-0.464844	0.231934	-0.352712	-0.597404	0.234040	-0.681123
05354		9.535413	0.988924	1.779609	-0.080281	-0.091052	-0.009477	-0.620117	-0.461670	0.229004	-0.353010	-0.597729	0.234735	-0.680444
05355		9.550419	0.975491	1.778899	-0.092203	-0.069372	-0.009136	-0.620605	-0.464600	0.228760	-0.353410	-0.597855	0.235467	-0.679872
05356		9.501574	1.003000	1.865699	-0.107755	-0.066238	-0.002314	-0.620850	-0.463867	0.231201	-0.353847	-0.597909	0.236307	-0.679305
05357		9.485562	1.049520	1.813968	-0.124666	-0.097565	0.001477	-0.617676	-0.463867	0.235596	-0.354239	-0.598099	0.237300	-0.678587
05358		9.504433	1.031328	1.743352	-0.129665	-0.108475	0.000357	-0.621826	-0.473633	0.229248	-0.354587	-0.598371	0.238273	-0.677825
05359		9.541567	0.998819	1.713284	-0.136007	-0.124425	0.001447	-0.609375	-0.469971	0.220215	-0.354982	-0.598689	0.239422	-0.676932
05360		9.676937	1.059431	1.652735	-0.169500	-0.113056	-0.000435	-0.613770	-0.469238	0.232910	-0.355831	-0.598758	0.240974	-0.675873
05361		9.723449	1.156879	1.816701	-0.227689	-0.036915	-0.003991	-0.616699	-0.465332	0.221191	-0.356896	-0.598328	0.242328	-0.675208
05362		9.596944	1.296000	2.008604	-0.270000	-0.016071	-0.008413	-0.604248	-0.465332	0.228760	-0.358390	-0.597566	0.244031	-0.674478
05363		9.473199	1.241277	2.043487	-0.244558	-0.084940	-0.002439	-0.609131	-0.469971	0.227051	-0.359522	-0.597321	0.245698	-0.673486
05364		9.449578	0.977461	1.787825	-0.187123	-0.139941	0.001443	-0.613037	-0.473877	0.231934	-0.360198	-0.597552	0.247208	-0.672367
05365		9.504190	0.747234	1.526361	-0.143305	-0.159558	0.004712	-0.614746	-0.468262	0.220703	-0.360487	-0.598061	0.248429	-0.671308
05366		9.579235	0.628177	1.373955	-0.129123	-0.159694	0.019173	-0.602539	-0.479004	0.225098	-0.360790	-0.598477	0.249859	-0.670244
05367		9.647897	0.499692	1.434458	-0.109596	-0.161034	0.044009	-0.615234	-0.463867	0.223633	-0.360872	-0.598961	0.251282	-0.669235
05368		9.634271	0.461189	1.372316	-0.073945	-0.217280	0.067985	-0.618652	-0.480225	0.225098	-0.360467	-0.599759	0.252784	-0.668172
05369		9.724097	0.436324	1.077925	-0.046562	-0.250242	0.083390	-0.614014	-0.473145	0.227539	-0.359738	-0.600828	0.254286	-0.667033
05370		9.776123	0.438143	0.934672	-0.017809	-0.189362	0.090449	-0.609131	-0.472168	0.223145	-0.358981	-0.601614	0.255499	-0.666268
05371		9.915669	0.478795	0.972804	0.022577	-0.152437	0.087031	-0.616211	-0.475098	0.227783	-0.358239	-0.602276	0.256493	-0.665688
05372		10.107595	0.583519	0.982997	0.046631	-0.137649	0.082754	-0.608398	-0.468262	0.236816	-0.357339	-0.602966	0.257203	-0.665273
05373		10.188330	0.757993	0.949886	0.056070	-0.110436	0.083225	-0.604980	-0.467773	0.237793	-0.356410	-0.603567	0.257697	-0.665035
05374		10.073054	0.781827	0.917922	0.042774	-0.098007	0.079045	-0.601318	-0.477051	0.235352	-0.355635	-0.604063	0.258237	-0.664790
05375		9.904826	0.757903	0.898337	0.039953	-0.039660	0.073878	-0.609619	-0.463623	0.238037	-0.355126	-0.604227	0.258695	-0.664735
05376		9.741948	0.725170	0.932720	0.041545	0.009880	0.069557	-0.614014	-0.471680	0.228027	-0.354624	-0.604128	0.258878	-0.665021
05377		9.708364	0.794193	1.130769	0.042092	0.037763	0.059631	-0.608154	-0.467773	0.236084	-0.354339	-0.603847	0.259080	-0.665349
05378		9.597105	0.856624	1.156345	0.045501	0.020236	0.047319	-0.603271	-0.466797	0.233154	-0.354027	-0.603741	0.259163	-0.665579
05379		9.591120	0.796479	1.094920	0.053452	0.018691	0.035475	-0.606934	-0.466309	0.240234	-0.353811	-0.603672	0.259219	-0.665736
05380		9.597832	0.753963	1.059767	0.055423	0.028060	0.024063	-0.612305	-0.471924	0.235352	-0.353580	-0.603620	0.259071	-0.665962
05381		9.624002	0.818349	1.051932	0.058258	0.043775	0.021806	-0.610596	-0.465088	0.239258	-0.353416	-0.603471	0.258915	-0.666245
05382		9.643047	0.850366	1.077922	0.060093	0.051304	0.020231	-0.612793	-0.460693	0.239258	-0.353217	-0.603307	0.258651	-0.666602
05383		9.701047	0.887076	1.124496	0.059131	0.057170	0.017006	-0.614258	-0.461182	0.242188	-0.353012	-0.603116	0.258322	-0.667011
05384		9.765796	0.921324	1.136568	0.045598	0.056499	0.010719	-0.617676	-0.457764	0.233398	-0.352883	-0.602917	0.258004	-0.667382
05385		9.856279	0.973076	1.161763	0.012843	0.092742	0.006749	-0.614258	-0.470947	0.235840	-0.353025	-0.602393	0.257792	-0.667862
05386		9.891964	1.035290	1.298652	-0.024057	0.132025	-0.007902	-0.611328	-0.459473	0.237793	-0.353628	-0.601579	0.257676	-0.668321
05387		9.868037	1.067402	1.388854	-0.049787	0.146849	-0.020535	-0.611084	-0.470947	0.231201	-0.354384	-0.600652	0.257500	-0.668822
05388		9.750594	1.048579	1.532410	-0.054634	0.134538	-0.029611	-0.611816	-0.466309	0.232422	-0.355309	-0.599769	0.257474	-0.669134
05389		9.525157	1.007040	1.519833	-0.060116	0.066228	-0.034006	-0.615967	-0.459717	0.230225	-0.356079	-0.599275	0.257589	-0.669123
05390		9.433793	0.893172	1.426148	-0.056818	0.007301	-0.029590	-0.618652	-0.462158	0.234863	-0.356582	-0.599117	0.257801	-0.668915
05391		9.576273	0.770029	1.146929	-0.068874	0.044851	-0.020550	-0.613281	-0.468506	0.228516	-0.357143	-0.598715	0.257967	-0.668911
05392		9.798877	0.677755	1.339143	-0.111797	0.197252	-0.010759	-0.615723	-0.464355	0.223389	-0.358319	-0.597281	0.258099	-0.669513
05393		9.783892	0.912552	1.759033	-0.131564	0.231445	-0.010992	-0.610840	-0.464355	0.219482	-0.359613	-0.595595	0.258200	-0.670282
05394		9.639444	1.163388	1.844903	-0.127415	0.135606	-0.008269	-0.609131	-0.467041	0.226562	-0.360712	-0.594442	0.258612	-0.670556
05395		9.430728	1.109670	1.755149	-0.106765	-0.003501	0.000561	-0.618164	-0.476074	0.217041	-0.361372	-0.594134	0.259337	-0.670193
05396		9.498831	0.786966	1.265871	-0.076441	-0.100742	-0.004085	-0.624268	-0.467041	0.216553	-0.361730	-0.594435	0.260242	-0.669382
05397		9.840708	0.577920	1.005805	-0.120680	0.081962	-0.016357	-0.619141	-0.465576	0.217529	-0.362605	-0.593633	0.260645	-0.669464
05398		9.806283	0.642301	1.593594	-0.156475	0.248868	-0.010315	-0.614258	-0.463135	0.215332	-0.364005	-0.591782	0.260774	-0.670292
05399		9.827150	0.887335	1.793940	-0.190624	0.211055	-0.009207	-0.615234	-0.468994	0.214844	-0.365498	-0.590038	0.261209	-0.670847
05400		9.678175	1.088269	1.806804	-0.193661	0.175750	0.004154	-0.614014	-0.464600	0.206055	-0.366905	-0.588448	0.261865	-0.671220
05401		9.543558	1.010751	1.818223	-0.166525	0.090178	0.007131	-0.623779	-0.465332	0.209229	-0.367937	-0.587406	0.262632	-0.671268
05402		9.514078	0.736113	1.550992	-0.134308	0.026347	-0.005615	-0.629883	-0.474365	0.210205	-0.368647	-0.586871	0.263258	-0.671101
05403		9.666170	0.527074	1.483009	-0.139042	0.120225	-0.012374	-0.624023	-0.465332	0.200439	-0.369668	-0.585803	0.263626	-0.671328
05404		9.575952	0.442072	1.811610	-0.144577	0.166504	-0.015689	-0.626465	-0.472900	0.194580	-0.370787	-0.584461	0.263848	-0.671794
05405		9.595653	0.514002	1.879972	-0.125122	0.115304	-0.021120	-0.622803	-0.467041	0.199463	-0.371798	-0.583454	0.264168	-0.671985
05406		9.597617	0.596108	1.915399	-0.100020	0.120525	-0.018531	-0.624756	-0.471436	0.197021	-0.372630	-0.582518	0.264263	-0.672298
05407		9.544561	0.655419	1.880578	-0.067876	0.083366	-0.003384	-0.621094	-0.470947	0.185547	-0.373170	-0.581848	0.264396	-0.672527
05408		9.647688	0.643263	1.637636	-0.051296	0.088053	0.005600	-0.617920	-0.467285	0.195312	-0.373636	-0.581151	0.264542	-0.672813
05409		9.657759	0.613147	1.776610	-0.032358	0.123149	0.019713	-0.621094	-0.470215	0.188477	-0.373975	-0.580321	0.264460	-0.673373
05410		9.652221	0.577439	1.842567	-0.017989	0.071156	0.038183	-0.625000	-0.474854	0.192383	-0.374047	-0.579768	0.264592	-0.673757
05411		9.711510	0.631257	1.707636	-0.008530	0.090925	0.043494	-0.627197	-0.467041	0.194580	-0.374107	-0.579127	0.264635	-0.674258
05412		9.576844	0.710177	1.853095	-0.009393	0.105575	0.038762	-0.633545	-0.471436	0.186523	-0.374120	-0.578439	0.264515	-0.674888
05413		9.415307	0.807635	1.902019	-0.037688	0.061557	0.027177	-0.618408	-0.469727	0.184326	-0.374254	-0.577912	0.264686	-0.675198
05414		9.430509	0.834208	1.757206	-0.059419	0.018138	0.010667	-0.624268	-0.472656	0.181396	-0.374617	-0.577580	0.265120	-0.675111
05415		9.492320	0.850887	1.708987	-0.074813	0.031385	-0.006389	-0.627197	-0.468262	0.188232	-0.375163	-0.577156	0.265521	-0.675013
05416		9.512457	0.764534	1.682837	-0.072298	0.053569	-0.015952	-0.624512	-0.470947	0.186523	-0.375703	-0.576673	0.265687	-0.675060
05417		9.521858	0.737727	1.816794	-0.054633	0.093256	-0.016816	-0.628906	-0.462646	0.183350	-0.376305	-0.576012	0.265667	-0.675296
05418		9.498959	0.676282	2.031980	-0.072345	0.071059	-0.019174	-0.627930	-0.467041	0.190430	-0.376812	-0.575449	0.265707	-0.675479
05419		9.596627	0.662271	1.830878	-0.076184	0.014810	-0.017382	-0.624023	-0.465576	0.181396	-0.377250	-0.575196	0.265952	-0.675353
05420		9.696763	0.770995	1.703962	-0.064271	0.049622	-0.011100	-0.635498	-0.476807	0.177979	-0.377701	-0.574747	0.266105	-0.675423
05421		9.659883	0.747404	1.838373	-0.060443	0.097673	0.003473	-0.637207	-0.467773	0.180176	-0.378187	-0.573988	0.266203	-0.675757
05422		9.620468	0.643023	1.806695	-0.038619	0.107196	0.003513	-0.617188	-0.466064	0.174072	-0.378466	-0.573277	0.266043	-0.676268
05423		9.628029	0.584720	1.758390	-0.010947	0.148683	0.003082	-0.627686	-0.463867	0.176514	-0.378883	-0.572384	0.265718	-0.676918
05424		9.622676	0.541498	1.878122	0.018984	0.168761	0.003287	-0.629150	-0.467041	0.173584	-0.379074	-0.571500	0.265067	-0.677813
05425		9.542806	0.464516	1.934830	0.044690	0.137329	0.005834	-0.625488	-0.465820	0.170654	-0.379091	-0.570858	0.264413	-0.678599
05426		9.480725	0.484681	1.943049	0.050583	0.099851	-0.000430	-0.626953	-0.467285	0.183350	-0.379066	-0.570450	0.263842	-0.679178
05427		9.451164	0.674801	1.809873	0.050010	0.056497	-0.007554	-0.626709	-0.467041	0.178467	-0.378954	-0.570342	0.263288	-0.679546
05428		9.516268	0.842213	1.807538	0.071064	0.091240	0.001386	-0.624512	-0.454834	0.178711	-0.378783	-0.570069	0.262583	-0.680143
05429		9.448467	0.818276	1.970246	0.084316	0.073088	0.001313	-0.639404	-0.458008	0.170166	-0.378405	-0.569961	0.261788	-0.680750
05430		9.487339	0.742166	2.036442	0.127059	0.046537	0.000190	-0.630615	-0.468994	0.177979	-0.377721	-0.570118	0.260859	-0.681355
05431		9.384381	0.620205	2.228117	0.126725	0.008046	-0.009550	-0.628662	-0.458496	0.177246	-0.377166	-0.570512	0.260054	-0.681641
05432		9.441285	0.617499	2.103084	0.118145	-0.047289	-0.009444	-0.631836	-0.460693	0.176025	-0.376463	-0.571197	0.259440	-0.681689
05433		9.391386	0.624891	2.076832	0.115587	-0.013119	-0.006423	-0.641357	-0.461914	0.183105	-0.375838	-0.571662	0.258773	-0.681898
05434		9.357761	0.666955	2.163308	0.115286	0.007222	-0.002629	-0.638672	-0.459717	0.179199	-0.375142	-0.572032	0.257981	-0.682271
05435		9.298648	0.656379	2.235397	0.125201	0.015950	0.002422	-0.634521	-0.457031	0.179443	-0.374428	-0.572349	0.257181	-0.682699
05436		9.300742	0.685604	2.284476	0.112740	0.002066	-0.006733	-0.630859	-0.453613	0.184082	-0.373821	-0.572719	0.256470	-0.682989
05437		9.367361	0.740995	2.269582	0.077433	0.019829	-0.009853	-0.628174	-0.455811	0.178955	-0.373427	-0.572898	0.255857	-0.683284
05438		9.436367	0.712444	2.295820	0.039584	0.052323	-0.004650	-0.631104	-0.464600	0.178467	-0.373332	-0.572732	0.255462	-0.683623
05439		9.463228	0.612758	2.348709	0.028152	0.052012	0.003084	-0.632568	-0.459473	0.184570	-0.373282	-0.572514	0.255185	-0.683936
05440		9.531574	0.581164	2.378471	0.027510	0.056519	0.007130	-0.634521	-0.458740	0.182861	-0.373134	-0.572293	0.254831	-0.684334
05441		9.551167	0.566305	2.363312	0.043007	0.060117	0.006464	-0.638916	-0.464355	0.184570	-0.372919	-0.572095	0.254384	-0.684783
05442		9.556733	0.582887	2.282136	0.040641	0.080893	0.010316	-0.646729	-0.458984	0.178223	-0.372722	-0.571774	0.253880	-0.685345
05443		9.475409	0.526443	2.358066	0.037915	0.094387	0.018315	-0.633789	-0.458008	0.173828	-0.372487	-0.571327	0.253433	-0.686011
05444		9.416181	0.453900	2.408521	0.050539	0.064106	0.025405	-0.639648	-0.459717	0.184570	-0.372225	-0.571045	0.253128	-0.686500
05445		9.380470	0.444750	2.425859	0.059796	0.040486	0.026183	-0.638184	-0.467773	0.178955	-0.371735	-0.570987	0.252695	-0.686974
05446		9.325108	0.458923	2.450038	0.065576	0.008085	0.021814	-0.640625	-0.450684	0.173584	-0.371272	-0.571113	0.252387	-0.687232
05447		9.230189	0.545438	2.419195	0.059459	-0.054249	0.008586	-0.639160	-0.442871	0.183350	-0.370761	-0.571567	0.252318	-0.687156
05448		9.251731	0.629958	2.204005	0.078993	-0.061860	-0.006923	-0.637939	-0.451416	0.182373	-0.370131	-0.572199	0.251980	-0.687093
05449		9.318950	0.749296	2.200223	0.094627	-0.032811	-0.017642	-0.638184	-0.449707	0.175781	-0.369615	-0.572725	0.251445	-0.687129
05450		9.366985	0.732106	2.253252	0.110524	-0.022121	-0.016988	-0.641113	-0.457520	0.189453	-0.369116	-0.573192	0.250897	-0.687208
05451		9.439282	0.750058	2.259465	0.103156	-0.047931	-0.017107	-0.643555	-0.450439	0.187500	-0.368467	-0.573864	0.250279	-0.687221
05452		9.495944	0.784076	2.221669	0.090779	-0.034717	-0.020095	-0.635498	-0.452393	0.185547	-0.367923	-0.574404	0.249730	-0.687261
05453		9.428393	0.883766	2.245337	0.085947	-0.029541	-0.027499	-0.639160	-0.450928	0.191650	-0.367556	-0.574891	0.249219	-0.687235
05454		9.508771	0.881982	2.156671	0.089382	-0.028154	-0.027850	-0.630371	-0.450684	0.191650	-0.367090	-0.575413	0.248601	-0.687272
05455		9.670302	0.781214	2.039161	0.082040	0.007141	-0.022866	-0.646729	-0.449463	0.191895	-0.366781	-0.575685	0.247979	-0.687434
05456		9.857685	0.768002	2.066562	0.056541	0.056468	-0.011705	-0.634277	-0.455566	0.189209	-0.366518	-0.575582	0.247382	-0.687875
05457		9.927929	0.739614	2.219191	0.020388	0.087633	0.004275	-0.634521	-0.448730	0.192871	-0.366533	-0.575138	0.247024	-0.688367
05458		9.729351	0.783550	2.506337	0.012762	0.031683	0.011840	-0.637695	-0.459473	0.186768	-0.366369	-0.574993	0.246871	-0.688630
05459		9.449022	0.726738	2.492824	0.040618	-0.114080	0.010194	-0.634766	-0.456299	0.194824	-0.365841	-0.575754	0.247047	-0.688212
05460		9.303018	0.619283	2.188704	0.059266	-0.225597	0.003695	-0.639404	-0.457764	0.194580	-0.364968	-0.577257	0.247337	-0.687312
05461		9.342404	0.492186	1.782047	0.084203	-0.202452	0.011639	-0.628418	-0.453369	0.191895	-0.363981	-0.578671	0.247487	-0.686592
05462		9.474960	0.497792	1.638139	0.098499	-0.082047	0.023942	-0.639648	-0.454346	0.194092	-0.363245	-0.579365	0.247370	-0.686438
05463		9.671483	0.681553	1.651798	0.091878	0.029175	0.036799	-0.631348	-0.451904	0.197266	-0.362611	-0.579390	0.246982	-0.686892
05464		9.716886	0.947909	1.731644	0.066824	0.102881	0.041279	-0.635986	-0.454346	0.203613	-0.362247	-0.578916	0.246512	-0.687651
05465		9.812811	1.148300	1.823915	0.029881	0.162437	0.029139	-0.641357	-0.447998	0.189697	-0.362140	-0.578064	0.245891	-0.688647
05466		9.790735	1.225868	2.046386	-0.018100	0.189062	-0.001926	-0.637207	-0.448242	0.201904	-0.362629	-0.576892	0.245530	-0.689500
05467		9.698206	1.262550	2.154645	-0.051258	0.164649	-0.036667	-0.639404	-0.450684	0.194824	-0.363274	-0.575917	0.245044	-0.690149
05468		9.638688	1.255510	2.184812	-0.069552	0.134462	-0.062275	-0.646729	-0.450928	0.187012	-0.364144	-0.575083	0.244701	-0.690507
05469		9.511710	1.122749	2.233903	-0.088333	0.116369	-0.083978	-0.642334	-0.454590	0.189453	-0.365224	-0.574307	0.244506	-0.690652
05470		9.367121	0.968518	2.332316	-0.097076	0.097902	-0.092228	-0.629639	-0.460693	0.187012	-0.366323	-0.573655	0.244300	-0.690684
05471		9.284433	0.773844	2.410500	-0.093083	0.080717	-0.085236	-0.631836	-0.458008	0.185059	-0.367411	-0.573094	0.244161	-0.690621
05472		9.216567	0.596121	2.413040	-0.070943	0.069404	-0.066615	-0.635254	-0.457031	0.185547	-0.368257	-0.572620	0.244041	-0.690607
05473		9.205867	0.540490	2.437914	-0.052409	0.050697	-0.043123	-0.637939	-0.457764	0.189453	-0.368798	-0.572271	0.243961	-0.690635
05474		9.234678	0.553994	2.401827	-0.025997	0.019616	-0.018325	-0.633057	-0.456543	0.183594	-0.368925	-0.572164	0.243863	-0.690691
05475		9.353366	0.557638	2.332098	0.001941	0.000774	-0.001870	-0.637451	-0.455566	0.179199	-0.368897	-0.572175	0.243845	-0.690703
05476		9.429902	0.622478	2.223898	0.027487	-0.006680	0.014987	-0.636719	-0.460449	0.184326	-0.368670	-0.572247	0.243858	-0.690760
05477		9.556866	0.745556	2.069773	0.037179	0.005304	0.016091	-0.630127	-0.460693	0.186768	-0.368341	-0.572319	0.243673	-0.690941
05478		9.595630	0.852807	2.135752	0.033533	0.007775	0.017498	-0.634277	-0.462646	0.189209	-0.368038	-0.572372	0.243479	-0.691127
05479		9.633972	0.958608	2.080109	0.031492	-0.026522	0.019142	-0.632080	-0.456543	0.183594	-0.367605	-0.572635	0.243355	-0.691183
05480		9.673831	0.949454	2.022146	0.031696	-0.056511	0.023319	-0.631348	-0.456055	0.185303	-0.367204	-0.573008	0.243485	-0.691042
05481		9.664447	0.826948	1.940598	0.033774	-0.093965	0.020658	-0.635254	-0.449951	0.187744	-0.366723	-0.573613	0.243691	-0.690722
05482		9.616232	0.704058	1.919761	0.037904	-0.094102	0.025388	-0.633545	-0.456787	0.185303	-0.366172	-0.574219	0.243912	-0.690433
05483		9.555147	0.629622	1.892082	0.045364	-0.087254	0.024419	-0.633057	-0.457031	0.188477	-0.365645	-0.574802	0.244079	-0.690168
05484		9.524978	0.638095	1.948928	0.062295	-0.079631	0.033119	-0.630127	-0.460693	0.190430	-0.364976	-0.575387	0.244132	-0.690016
05485		9.556619	0.673053	1.909141	0.075491	-0.081357	0.041397	-0.632080	-0.458008	0.193359	-0.364189	-0.576017	0.244120	-0.689910
05486		9.565262	0.691720	1.976302	0.092764	-0.076828	0.048554	-0.636475	-0.447021	0.193359	-0.363262	-0.576664	0.244018	-0.689895
05487		9.537138	0.705913	2.018907	0.109818	-0.101899	0.051201	-0.633301	-0.454346	0.194092	-0.362212	-0.577470	0.243997	-0.689780
05488		9.550320	0.757850	1.898465	0.121247	-0.109453	0.054535	-0.633301	-0.452637	0.197754	-0.361083	-0.578356	0.243914	-0.689659
05489		9.555940	0.850416	1.934944	0.114118	-0.089875	0.056482	-0.640869	-0.448242	0.200195	-0.359997	-0.579111	0.243802	-0.689633
05490		9.560416	0.888156	1.909184	0.104746	-0.088360	0.050917	-0.637207	-0.442383	0.205811	-0.358952	-0.579840	0.243721	-0.689594
05491		9.514160	0.940185	1.937383	0.080934	-0.082991	0.040448	-0.636475	-0.444580	0.201904	-0.358073	-0.580499	0.243681	-0.689510
05492		9.547011	0.946714	1.881380	0.065721	-0.072107	0.025105	-0.631592	-0.451904	0.198730	-0.357451	-0.581052	0.243692	-0.689363
05493		9.623058	0.863595	1.849883	0.055565	-0.040612	0.013007	-0.626709	-0.450928	0.201904	-0.357076	-0.581405	0.243630	-0.689282
05494		9.675224	0.790999	1.860067	0.054975	-0.009064	0.005520	-0.627930	-0.446045	0.205322	-0.356805	-0.581601	0.243408	-0.689335
05495		9.707917	0.791684	1.862185	0.030110	0.009158	0.001835	-0.636963	-0.451904	0.207275	-0.356677	-0.581636	0.243238	-0.689432
05496		9.782371	0.867137	1.830281	-0.007203	0.052487	-0.003301	-0.641846	-0.443604	0.209717	-0.356762	-0.581349	0.243063	-0.689692
05497		9.738387	0.955078	1.951347	-0.034045	0.072734	-0.007802	-0.634766	-0.453125	0.203613	-0.356999	-0.580878	0.242963	-0.690001
05498		9.651997	0.961992	2.025425	-0.038317	0.052230	-0.006912	-0.647705	-0.450439	0.197754	-0.357294	-0.580495	0.242977	-0.690166
05499		9.571132	0.889246	2.036832	-0.036263	0.032846	-0.007905	-0.636719	-0.450439	0.203369	-0.357555	-0.580199	0.243127	-0.690226
05500		9.478334	0.829925	2.035650	-0.038903	0.032843	-0.016077	-0.634033	-0.447266	0.202881	-0.357849	-0.579946	0.243157	-0.690276
05501		9.397601	0.771188	2.120235	-0.048058	0.050241	-0.022309	-0.636963	-0.444824	0.199951	-0.358282	-0.579569	0.243180	-0.690360
05502		9.393246	0.758957	2.154602	-0.050833	0.052900	-0.022239	-0.637939	-0.446777	0.198486	-0.358754	-0.579151	0.243261	-0.690437
05503		9.417803	0.761357	2.233245	-0.044964	0.053104	-0.020214	-0.639160	-0.438477	0.195557	-0.359183	-0.578747	0.243313	-0.690535
05504		9.393710	0.802388	2.193750	-0.041596	0.039865	-0.019644	-0.638184	-0.443359	0.200928	-0.359610	-0.578397	0.243475	-0.690549
05505		9.424587	0.827686	2.131584	-0.044250	0.026790	-0.022370	-0.642090	-0.455811	0.205322	-0.359945	-0.578168	0.243549	-0.690540
05506		9.507715	0.835600	2.147738	-0.042200	0.034259	-0.023843	-0.638184	-0.447266	0.198975	-0.360177	-0.577961	0.243429	-0.690634
05507		9.530977	0.776415	2.172014	-0.035020	0.027585	-0.020236	-0.637451	-0.445557	0.195801	-0.360465	-0.577751	0.243454	-0.690652
05508		9.538537	0.768108	2.154103	-0.028167	0.013769	-0.017841	-0.631836	-0.452148	0.199463	-0.360724	-0.577614	0.243549	-0.690597
05509		9.508738	0.791058	2.114916	-0.034861	0.008266	-0.019885	-0.630371	-0.449463	0.195068	-0.360969	-0.577529	0.243582	-0.690528
05510		9.526689	0.870431	2.127814	-0.045899	0.011883	-0.024233	-0.633057	-0.459717	0.195801	-0.361373	-0.577366	0.243734	-0.690400
05511		9.526859	0.891923	2.191274	-0.049004	0.010980	-0.028533	-0.636230	-0.452637	0.186523	-0.361751	-0.577238	0.243796	-0.690287
05512		9.563649	0.887190	2.142611	-0.037341	0.011415	-0.024478	-0.636230	-0.451904	0.196777	-0.362179	-0.577065	0.244000	-0.690135
05513		9.516909	0.780633	2.147883	-0.040635	0.013148	-0.020532	-0.630127	-0.452148	0.188721	-0.362458	-0.576929	0.244075	-0.690076
05514		9.463458	0.769222	2.153987	-0.032657	-0.002854	-0.016027	-0.639160	-0.446045	0.192383	-0.362776	-0.576848	0.244294	-0.689899
05515		9.461183	0.780386	2.107463	-0.021715	-0.018304	-0.013483	-0.637207	-0.453369	0.197510	-0.362910	-0.576902	0.244486	-0.689715
05516		9.502799	0.771560	2.086583	-0.011098	-0.012535	-0.007987	-0.639160	-0.451904	0.197021	-0.362896	-0.576987	0.244503	-0.689646
05517		9.490091	0.741969	2.084246	-0.003106	-0.004486	-0.001155	-0.633057	-0.447021	0.191650	-0.362822	-0.577030	0.244501	-0.689648
05518		9.497758	0.724601	2.074455	0.011945	-0.006229	0.005679	-0.635010	-0.452148	0.195312	-0.362754	-0.577068	0.244569	-0.689629
05519		9.481928	0.751286	2.104218	0.014019	-0.001534	0.006906	-0.635254	-0.450195	0.201904	-0.362603	-0.577117	0.244526	-0.689682
05520		9.489975	0.812313	2.087574	0.015561	-0.009522	0.004740	-0.637939	-0.454590	0.193848	-0.362360	-0.577256	0.244402	-0.689737
05521		9.505469	0.856863	2.061762	0.016277	-0.004584	-0.001488	-0.640625	-0.454834	0.196533	-0.362245	-0.577342	0.244326	-0.689753
05522		9.530588	0.875178	2.073421	0.019680	0.005519	-0.003634	-0.626709	-0.447998	0.203613	-0.362098	-0.577402	0.244148	-0.689843
05523		9.539079	0.831033	2.050392	0.029933	0.019220	-0.006982	-0.636963	-0.451660	0.202637	-0.361947	-0.577441	0.243796	-0.690015
05524		9.529133	0.764730	2.082735	0.030249	0.035065	-0.007544	-0.637695	-0.452637	0.197998	-0.361780	-0.577398	0.243381	-0.690285
05525		9.503200	0.804354	2.139673	0.029654	0.031005	-0.007245	-0.635254	-0.449707	0.188232	-0.361662	-0.577349	0.243047	-0.690504
05526		9.495757	0.831061	2.139795	0.024648	0.025026	-0.011504	-0.637695	-0.448730	0.195312	-0.361749	-0.577258	0.242922	-0.690580
05527		9.523752	0.848201	2.186342	0.015461	0.006802	-0.010063	-0.635986	-0.460693	0.203613	-0.361718	-0.577287	0.242798	-0.690615
05528		9.533221	0.847403	2.152486	0.016752	0.002702	-0.011175	-0.641113	-0.447510	0.193848	-0.361523	-0.577425	0.242451	-0.690723
05529		9.485242	0.805547	2.173660	0.024383	-0.003834	-0.010973	-0.637695	-0.452148	0.197021	-0.361453	-0.577529	0.242348	-0.690709
05530		9.470583	0.728155	2.193959	0.034956	-0.009089	-0.007731	-0.635010	-0.452637	0.197021	-0.361252	-0.577719	0.242127	-0.690733
05531		9.427695	0.713961	2.162265	0.032212	-0.012795	-0.001823	-0.636475	-0.457764	0.190918	-0.361040	-0.577907	0.241962	-0.690744
05532		9.458333	0.725036	2.117552	0.030062	-0.013979	-0.000734	-0.636230	-0.448730	0.200928	-0.360893	-0.578066	0.241882	-0.690716
05533		9.490581	0.797577	2.123546	0.027227	-0.015704	0.002962	-0.626709	-0.454590	0.192871	-0.360636	-0.578258	0.241758	-0.690734
05534		9.547100	0.867548	2.080652	0.025733	-0.010491	0.007793	-0.640625	-0.456055	0.199463	-0.360511	-0.578361	0.241737	-0.690719
05535		9.532839	0.865918	2.094385	0.012956	0.001475	0.004306	-0.630371	-0.462158	0.208252	-0.360326	-0.578416	0.241623	-0.690810
05536		9.552728	0.890987	2.161280	-0.009413	0.012564	-0.003381	-0.637939	-0.442627	0.194824	-0.360207	-0.578423	0.241372	-0.690954
05537		9.491843	0.895630	2.176475	-0.027466	0.003502	-0.010991	-0.641113	-0.452393	0.206055	-0.360466	-0.578304	0.241611	-0.690835
05538		9.435425	0.862776	2.219171	-0.034514	-0.016619	-0.019643	-0.634766	-0.457520	0.200684	-0.360526	-0.578403	0.241629	-0.690715
05539		9.341335	0.819204	2.248279	-0.031491	-0.044447	-0.025699	-0.632080	-0.448242	0.190918	-0.360629	-0.578661	0.241724	-0.690411
05540		9.321942	0.790426	2.186083	-0.032708	-0.078965	-0.031412	-0.634521	-0.445557	0.188232	-0.360930	-0.579025	0.242167	-0.689793
05541		9.337275	0.733600	2.108350	-0.029387	-0.079980	-0.030351	-0.631592	-0.454102	0.200684	-0.361250	-0.579376	0.242675	-0.689152
05542		9.467159	0.778106	1.983600	-0.029186	-0.020403	-0.022729	-0.638184	-0.455078	0.207031	-0.361431	-0.579472	0.242763	-0.688945
05543		9.565207	0.901678	2.197065	-0.058609	0.054777	-0.013168	-0.636719	-0.453613	0.199707	-0.361724	-0.579074	0.242735	-0.689136
05544		9.560328	1.048938	2.302513	-0.081349	0.019865	-0.012482	-0.637695	-0.452881	0.205566	-0.362162	-0.578759	0.243064	-0.689055
05545		9.519781	1.100965	2.311312	-0.087156	-0.041134	-0.020455	-0.636719	-0.455322	0.199219	-0.362451	-0.578833	0.243472	-0.688696
05546		9.461239	1.015623	2.249938	-0.085280	-0.080939	-0.034563	-0.642090	-0.456787	0.201416	-0.362817	-0.579135	0.244005	-0.688061
05547		9.425457	0.838753	2.166764	-0.073157	-0.095972	-0.049765	-0.633057	-0.456055	0.200928	-0.363119	-0.579609	0.244400	-0.687363
05548		9.428341	0.718468	2.084103	-0.081164	-0.071299	-0.055961	-0.634766	-0.461426	0.198242	-0.363607	-0.579913	0.244764	-0.686718
05549		9.427286	0.666396	2.111300	-0.064769	-0.038889	-0.042054	-0.639648	-0.470703	0.194580	-0.364006	-0.580050	0.245005	-0.686305
05550		9.462978	0.695686	2.157789	-0.042229	-0.027539	-0.023685	-0.634766	-0.462891	0.200195	-0.364183	-0.580161	0.245144	-0.686067
05551		9.493215	0.754344	2.188273	-0.030258	-0.031510	-0.008557	-0.635254	-0.458984	0.190674	-0.364197	-0.580309	0.245286	-0.685884
05552		9.508194	0.791213	2.171342	-0.019693	-0.040434	0.003199	-0.628418	-0.462646	0.206299	-0.364266	-0.580431	0.245673	-0.685606
05553		9.490354	0.819226	2.161406	-0.013788	-0.068759	0.011861	-0.632080	-0.459961	0.191162	-0.363945	-0.580835	0.245832	-0.685376
05554		9.570851	0.836046	2.081941	-0.007383	-0.085115	0.018955	-0.634521	-0.467773	0.192383	-0.363786	-0.581216	0.246355	-0.684950
05555		9.573510	0.868717	2.071360	-0.013351	-0.090909	0.014798	-0.629883	-0.461426	0.198242	-0.363581	-0.581656	0.246810	-0.684522
05556		9.584013	0.927516	2.041787	-0.032920	-0.093652	0.010430	-0.628418	-0.459717	0.197510	-0.363478	-0.582071	0.247341	-0.684032
05557		9.596149	0.922593	1.994557	-0.057819	-0.073512	-0.000623	-0.627686	-0.457520	0.204102	-0.363641	-0.582300	0.247942	-0.683532
05558		9.653054	0.877966	2.134083	-0.068966	-0.045761	-0.007887	-0.630859	-0.465576	0.199707	-0.363876	-0.582388	0.248403	-0.683164
05559		9.508139	0.899002	2.245279	-0.071397	-0.085355	-0.011705	-0.623291	-0.458008	0.198242	-0.364059	-0.582701	0.248973	-0.682593
05560		9.414019	0.929059	2.135164	-0.072046	-0.180246	-0.007966	-0.629639	-0.468018	0.207520	-0.364148	-0.583497	0.249966	-0.681501
05561		9.472752	0.897959	1.924545	-0.075401	-0.191803	-0.000650	-0.621338	-0.458740	0.201660	-0.363957	-0.584427	0.250807	-0.680497
05562		9.453689	0.916681	1.974901	-0.089841	-0.182810	0.005755	-0.629883	-0.460938	0.205322	-0.364039	-0.585156	0.251961	-0.679399
05563		9.437679	0.924659	1.883368	-0.086310	-0.207713	0.008532	-0.619141	-0.476807	0.209961	-0.363942	-0.586058	0.253125	-0.678241
05564		9.529725	0.823816	1.751198	-0.074545	-0.191149	0.016187	-0.626709	-0.462158	0.205322	-0.363649	-0.586963	0.253968	-0.677299
05565		9.580563	0.719566	1.752254	-0.061805	-0.182453	0.029182	-0.625000	-0.468018	0.216553	-0.363417	-0.587731	0.255058	-0.676348
05566		9.614727	0.723844	1.680240	-0.063033	-0.188404	0.031791	-0.622803	-0.463623	0.205566	-0.362961	-0.588616	0.255940	-0.675489
05567		9.644642	0.746426	1.550889	-0.058829	-0.178102	0.028342	-0.619385	-0.466797	0.198242	-0.362771	-0.589352	0.257021	-0.674538
05568		9.635025	0.731642	1.551779	-0.040326	-0.166345	0.025385	-0.622070	-0.467529	0.211670	-0.362653	-0.590033	0.258060	-0.673609
05569		9.666389	0.723477	1.508809	-0.015894	-0.147854	0.020553	-0.618164	-0.470947	0.219238	-0.362270	-0.590784	0.258663	-0.672925
05570		9.725452	0.691216	1.421443	-0.012263	-0.126613	0.022833	-0.615723	-0.468506	0.213135	-0.361792	-0.591481	0.259040	-0.672425
05571		9.773018	0.701982	1.431652	-0.016050	-0.090978	0.031439	-0.615723	-0.468506	0.207031	-0.361497	-0.591886	0.259522	-0.672041
05572		9.765868	0.754694	1.486449	-0.021035	-0.073356	0.036521	-0.620605	-0.468262	0.208496	-0.361343	-0.592117	0.260123	-0.671688
05573		9.795769	0.794139	1.434615	-0.029983	-0.080429	0.044632	-0.619873	-0.467041	0.210205	-0.361140	-0.592349	0.260826	-0.671320
05574		9.833264	0.787441	1.357250	-0.030513	-0.065087	0.046827	-0.615967	-0.468750	0.217041	-0.360953	-0.592494	0.261486	-0.671036
05575		9.816149	0.781154	1.330924	-0.037212	-0.058609	0.041364	-0.610840	-0.466553	0.208252	-0.360747	-0.592646	0.262003	-0.670810
05576		9.790859	0.735103	1.348882	-0.034835	-0.057905	0.031820	-0.621338	-0.462646	0.214844	-0.360748	-0.592752	0.262622	-0.670474
05577		9.736552	0.642518	1.253192	-0.011505	-0.052839	0.031427	-0.617188	-0.464844	0.215576	-0.360545	-0.592930	0.263043	-0.670261
05578		9.712853	0.520790	1.211052	0.013571	-0.030785	0.032868	-0.618408	-0.478027	0.212158	-0.360253	-0.593068	0.263231	-0.670222
05579		9.718699	0.469078	1.249345	0.031966	0.002746	0.035719	-0.612793	-0.469482	0.219238	-0.359894	-0.593090	0.263160	-0.670424
05580		9.729053	0.592367	1.341663	0.038420	-0.002404	0.033996	-0.610840	-0.470459	0.215332	-0.359475	-0.593181	0.263025	-0.670621
05581		9.665013	0.752633	1.314566	0.049366	-0.025948	0.035267	-0.618408	-0.461914	0.217285	-0.358997	-0.593411	0.262953	-0.670701
05582		9.668232	0.749155	1.242162	0.064631	-0.031280	0.039280	-0.618164	-0.463379	0.220703	-0.358418	-0.593688	0.262902	-0.670786
05583		9.762687	0.726443	1.180047	0.063915	-0.007959	0.040208	-0.613770	-0.461426	0.225098	-0.357841	-0.593855	0.262730	-0.671014
05584		9.741050	0.743070	1.258774	0.045962	0.004913	0.033577	-0.612305	-0.460938	0.219727	-0.357389	-0.593931	0.262537	-0.671263
05585		9.696280	0.795377	1.238713	0.037483	-0.003137	0.024902	-0.617188	-0.459961	0.216797	-0.357092	-0.594009	0.262456	-0.671383
05586		9.677418	0.759019	1.217867	0.030388	0.002277	0.013638	-0.617188	-0.465576	0.220215	-0.356937	-0.594037	0.262405	-0.671461
05587		9.649577	0.712468	1.259776	0.009970	0.024635	-0.005462	-0.617920	-0.462158	0.217285	-0.356963	-0.593961	0.262206	-0.671592
05588		9.628419	0.765841	1.292824	-0.014372	0.026358	-0.023807	-0.615479	-0.460938	0.217041	-0.357269	-0.593814	0.262121	-0.671593
05589		9.671519	0.770663	1.350849	-0.026048	0.037716	-0.035303	-0.617676	-0.464600	0.216309	-0.357736	-0.593590	0.262019	-0.671582
05590		9.701373	0.825364	1.404720	-0.032255	0.047486	-0.040599	-0.617432	-0.468018	0.216797	-0.358261	-0.593313	0.261875	-0.671603
05591		9.739079	0.814607	1.405566	-0.042478	0.062150	-0.047806	-0.614990	-0.466553	0.219238	-0.358880	-0.592955	0.261667	-0.671669
05592		9.745388	0.849075	1.550932	-0.045745	0.056404	-0.049212	-0.614258	-0.465576	0.214111	-0.359485	-0.592638	0.261456	-0.671708
05593		9.766716	0.770004	1.460015	-0.047982	0.046248	-0.042932	-0.621582	-0.468994	0.218506	-0.360105	-0.592326	0.261390	-0.671677
05594		9.841309	0.783842	1.515084	-0.065061	0.112464	-0.046659	-0.623535	-0.465820	0.215820	-0.360876	-0.591638	0.261118	-0.671975
05595		9.784846	0.927419	1.700871	-0.093064	0.140690	-0.045838	-0.612793	-0.469727	0.207764	-0.361866	-0.590687	0.260971	-0.672337
05596		9.726819	0.982968	1.750409	-0.111569	0.107517	-0.050004	-0.616699	-0.464600	0.217041	-0.362984	-0.589850	0.261046	-0.672440
05597		9.580748	0.928998	1.740957	-0.106111	0.044366	-0.047762	-0.616211	-0.470947	0.217529	-0.363809	-0.589425	0.261196	-0.672307
05598		9.548088	0.755638	1.571743	-0.084189	0.017529	-0.053413	-0.616943	-0.463379	0.204102	-0.364451	-0.589256	0.261207	-0.672104
05599		9.589535	0.632628	1.504809	-0.084519	0.073893	-0.052785	-0.619141	-0.470215	0.204346	-0.365408	-0.588667	0.261296	-0.672067
05600		9.717633	0.652920	1.658554	-0.092339	0.154869	-0.033161	-0.616211	-0.460938	0.202148	-0.366407	-0.587585	0.261205	-0.672503
05601		9.727743	0.771881	1.909339	-0.091171	0.148409	-0.013615	-0.618164	-0.461426	0.204102	-0.367337	-0.586471	0.261300	-0.672933
05602		9.752787	0.897064	1.732740	-0.069089	0.081321	-0.001047	-0.628174	-0.459229	0.198730	-0.367884	-0.585797	0.261482	-0.673150
05603		9.752688	0.911890	1.569926	-0.044464	0.103562	-0.006757	-0.615723	-0.473389	0.203613	-0.368419	-0.585054	0.261509	-0.673492
05604		9.626391	0.938333	1.561929	-0.028749	0.098426	-0.015710	-0.621094	-0.466309	0.198730	-0.368821	-0.584485	0.261219	-0.673879
05605		9.667233	0.912117	1.617328	-0.026481	0.129011	-0.016043	-0.614990	-0.475098	0.197021	-0.369336	-0.583710	0.260927	-0.674382
05606		9.633717	0.750503	1.830834	-0.021190	0.141892	-0.004967	-0.624756	-0.471191	0.192871	-0.369774	-0.582877	0.260550	-0.675007
05607		9.505125	0.638830	1.862762	-0.021384	0.114341	-0.002443	-0.617676	-0.471924	0.200928	-0.370156	-0.582167	0.260342	-0.675491
05608		9.356674	0.714214	1.883202	-0.033419	0.097774	-0.002576	-0.622803	-0.467285	0.196777	-0.370478	-0.581566	0.260126	-0.675915
05609		9.302288	0.794512	1.874157	-0.067885	0.070708	-0.015959	-0.618408	-0.468750	0.188232	-0.371021	-0.581011	0.260198	-0.676067
05610		9.325012	0.897939	1.793150	-0.092325	0.041218	-0.031110	-0.625732	-0.468262	0.194824	-0.371792	-0.580542	0.260501	-0.675930
05611		9.352910	0.827197	1.860011	-0.095954	0.029746	-0.041151	-0.623291	-0.462891	0.196777	-0.372510	-0.580186	0.260734	-0.675750
05612		9.437191	0.722777	1.873285	-0.091475	0.026681	-0.043549	-0.625977	-0.472168	0.191650	-0.373214	-0.579866	0.260946	-0.675555
05613		9.553539	0.661993	1.793891	-0.077760	0.029367	-0.046682	-0.620850	-0.479004	0.183594	-0.373874	-0.579580	0.261046	-0.675396
05614		9.622653	0.714378	1.816740	-0.074431	0.041800	-0.044557	-0.620605	-0.483643	0.192383	-0.374596	-0.579209	0.261133	-0.675281
05615		9.676330	0.720012	1.778280	-0.066585	0.060779	-0.035164	-0.621826	-0.477783	0.182617	-0.375146	-0.578799	0.261015	-0.675373
05616		9.762769	0.725311	1.832744	-0.050330	0.092025	-0.024541	-0.616943	-0.477295	0.188477	-0.375742	-0.578175	0.260913	-0.675615
05617		9.847972	0.771956	1.797435	-0.045671	0.114229	-0.011990	-0.625244	-0.480225	0.180664	-0.376233	-0.577450	0.260689	-0.676048
05618		9.881393	0.941169	1.910923	-0.080123	0.150237	-0.007860	-0.623291	-0.476318	0.183350	-0.376976	-0.576378	0.260631	-0.676572
05619		9.917880	0.973897	1.821061	-0.107564	0.124965	-0.004684	-0.622559	-0.475586	0.177734	-0.377752	-0.575368	0.260793	-0.676936
05620		9.952278	0.939648	1.861563	-0.082655	0.136271	-0.000706	-0.624512	-0.473877	0.177246	-0.378457	-0.574341	0.260849	-0.677393
05621		9.785364	0.778524	2.050711	-0.048897	0.140953	-0.006515	-0.620605	-0.472168	0.180176	-0.379031	-0.573408	0.260669	-0.677931
05622		9.611575	0.556311	2.162507	-0.020946	0.117700	-0.004528	-0.627197	-0.464844	0.173828	-0.379380	-0.572710	0.260368	-0.678441
05623		9.541741	0.495902	2.032937	0.021789	0.096112	0.018241	-0.621338	-0.474854	0.170410	-0.379423	-0.572170	0.260131	-0.678964
05624		9.475095	0.543082	1.937337	0.070879	0.114427	0.043743	-0.625977	-0.473633	0.172607	-0.379120	-0.571642	0.259618	-0.679773
05625		9.368995	0.525738	1.852466	0.110065	0.121291	0.059281	-0.628906	-0.458984	0.174072	-0.378517	-0.571179	0.258910	-0.680768
05626		9.346458	0.556959	1.859706	0.145644	0.148847	0.072816	-0.625488	-0.466064	0.170166	-0.377764	-0.570612	0.258064	-0.681982
05627		9.295244	0.599177	1.960794	0.169027	0.163301	0.076629	-0.627930	-0.458252	0.167480	-0.376918	-0.570032	0.257028	-0.683325
05628		9.429017	0.837311	2.030456	0.167001	0.205466	0.075374	-0.635254	-0.461914	0.174805	-0.376221	-0.569179	0.255936	-0.684829
05629		9.455475	1.046153	2.318149	0.115542	0.222059	0.064108	-0.643555	-0.465088	0.173828	-0.375740	-0.568146	0.254905	-0.686333
05630		9.581816	1.167911	2.456806	0.046018	0.179133	0.045973	-0.634033	-0.468994	0.170166	-0.375556	-0.567190	0.254291	-0.687451
05631		9.569799	1.250121	2.412518	-0.013008	0.123490	0.021053	-0.637939	-0.463135	0.172363	-0.375715	-0.566420	0.254055	-0.688087
05632		9.638987	1.146071	2.239229	-0.058890	0.105684	0.000687	-0.634277	-0.462158	0.168457	-0.376142	-0.565655	0.254041	-0.688488
05633		9.612833	1.041293	2.401595	-0.077085	0.136868	-0.009896	-0.640869	-0.460205	0.169189	-0.376823	-0.564660	0.254016	-0.688940
05634		9.488429	0.840945	2.495178	-0.127396	0.111152	-0.018836	-0.638428	-0.468994	0.163818	-0.377697	-0.563683	0.254308	-0.689155
05635		9.456669	0.632444	2.469408	-0.156609	0.097851	-0.022356	-0.636719	-0.459717	0.159180	-0.378707	-0.562700	0.254766	-0.689235
05636		9.364838	0.564117	2.505591	-0.144848	0.097211	-0.010205	-0.636475	-0.461426	0.163818	-0.379665	-0.561692	0.255316	-0.689326
05637		9.292287	0.479000	2.603779	-0.131717	0.097963	0.014767	-0.644043	-0.459717	0.150391	-0.380343	-0.560705	0.255816	-0.689570
05638		9.153375	0.323930	2.650441	-0.123442	0.084304	0.031345	-0.634521	-0.464355	0.155273	-0.380961	-0.559724	0.256540	-0.689757
05639		9.069450	0.244247	2.624781	-0.110587	0.040664	0.040922	-0.639404	-0.467773	0.158203	-0.381312	-0.559059	0.257250	-0.689837
05640		9.108570	0.336083	2.509497	-0.065087	0.040505	0.052209	-0.631104	-0.457520	0.148193	-0.381311	-0.558548	0.257681	-0.690092
05641		9.182713	0.402533	2.489070	-0.029158	0.062961	0.073199	-0.639893	-0.458984	0.152344	-0.381242	-0.557899	0.258105	-0.690496
05642		9.270847	0.371151	2.515680	-0.003499	0.069843	0.079923	-0.640381	-0.463135	0.155273	-0.380933	-0.557313	0.258319	-0.691060
05643		9.332774	0.371379	2.487983	0.006049	0.046541	0.076953	-0.637695	-0.461670	0.150146	-0.380489	-0.556930	0.258459	-0.691561
05644		9.427292	0.409045	2.467215	0.017797	0.041597	0.057414	-0.635010	-0.455078	0.161865	-0.380157	-0.556627	0.258512	-0.691968
05645		9.392032	0.472981	2.481380	0.018862	0.061947	0.044231	-0.639648	-0.457520	0.150146	-0.379850	-0.556285	0.258341	-0.692475
05646		9.404492	0.472659	2.584102	0.016562	0.070920	0.034533	-0.640381	-0.451416	0.148193	-0.379721	-0.555853	0.258218	-0.692938
05647		9.332076	0.504454	2.677953	-0.002695	0.062525	0.016890	-0.647949	-0.455322	0.153809	-0.379801	-0.555426	0.258209	-0.693240
05648		9.218777	0.568715	2.730546	-0.014542	0.043888	-0.015659	-0.637939	-0.449463	0.153320	-0.379972	-0.555185	0.258079	-0.693388
05649		9.163633	0.614548	2.687791	-0.021367	0.043415	-0.036506	-0.635254	-0.461914	0.150879	-0.380356	-0.554951	0.257931	-0.693419
05650		9.201522	0.625661	2.740127	-0.022441	0.059032	-0.039355	-0.648926	-0.459229	0.149658	-0.380773	-0.554650	0.257651	-0.693535
05651		9.187703	0.517178	2.779435	-0.012209	0.045825	-0.035104	-0.644287	-0.459473	0.144287	-0.381056	-0.554443	0.257415	-0.693633
05652		9.286575	0.455965	2.668363	0.003550	0.023933	-0.033516	-0.633301	-0.457520	0.144531	-0.381279	-0.554381	0.257216	-0.693634
05653		9.351936	0.501565	2.566677	0.011627	0.023706	-0.029461	-0.634277	-0.458740	0.143555	-0.381486	-0.554330	0.256993	-0.693643
05654		9.239053	0.469311	2.565469	0.028931	0.011145	-0.027803	-0.643555	-0.456299	0.150879	-0.381574	-0.554403	0.256719	-0.693638
05655		9.244392	0.440383	2.472526	0.059018	-0.024076	-0.028913	-0.635986	-0.459229	0.142334	-0.381353	-0.554812	0.256325	-0.693579
05656		9.311483	0.455318	2.465437	0.090614	-0.010905	-0.024321	-0.638184	-0.459229	0.157227	-0.381101	-0.555191	0.255803	-0.693606
05657		9.318989	0.472693	2.610193	0.110589	-0.004233	-0.019586	-0.647705	-0.461426	0.146729	-0.380587	-0.555659	0.255012	-0.693805
05658		9.305002	0.442620	2.616529	0.127229	-0.020267	-0.012704	-0.634766	-0.459717	0.156494	-0.379996	-0.556205	0.254326	-0.693943
05659		9.304342	0.474537	2.522193	0.148498	-0.029801	-0.010073	-0.644775	-0.468018	0.156250	-0.379235	-0.556905	0.253462	-0.694114
05660		9.354547	0.566605	2.388106	0.141800	0.014326	-0.005114	-0.643555	-0.456543	0.158447	-0.378513	-0.557332	0.252483	-0.694523
05661		9.736057	0.738473	2.236679	0.100484	0.099562	0.000381	-0.647461	-0.462158	0.152588	-0.378170	-0.557101	0.251573	-0.695225
05662		10.043847	0.813128	2.486725	0.044596	0.215564	0.014955	-0.645996	-0.464600	0.159180	-0.378264	-0.555976	0.250709	-0.696385
05663		9.842178	0.817734	2.874984	-0.001847	0.149447	-0.007361	-0.635986	-0.460449	0.152832	-0.378464	-0.555186	0.250093	-0.697127
05664		9.524213	0.969403	2.813771	-0.015743	-0.013407	-0.043302	-0.627686	-0.461914	0.152832	-0.378711	-0.555333	0.249988	-0.696915
05665		9.256633	0.890189	2.596899	-0.006462	-0.058771	-0.057447	-0.635742	-0.458740	0.152100	-0.378928	-0.555800	0.249890	-0.696459
05666		9.174933	0.730704	2.474516	0.008162	-0.035868	-0.049940	-0.640381	-0.457031	0.156494	-0.379085	-0.556150	0.249729	-0.696152
05667		9.206204	0.694354	2.485877	0.024148	0.027766	-0.029669	-0.644287	-0.464111	0.151855	-0.379130	-0.556156	0.249346	-0.696260
05668		9.159874	0.601943	2.580111	0.041511	0.032069	-0.012530	-0.642334	-0.460205	0.151123	-0.379003	-0.556152	0.248924	-0.696483
05669		9.057888	0.547006	2.600194	0.045594	-0.016532	-0.016584	-0.634521	-0.462646	0.164307	-0.378820	-0.556434	0.248658	-0.696452
05670		9.156927	0.638839	2.311256	0.073779	-0.087984	-0.025977	-0.643311	-0.470459	0.158936	-0.378275	-0.557316	0.248222	-0.696199
05671		9.447348	0.765645	2.167766	0.103110	-0.060185	-0.024645	-0.632080	-0.466064	0.165527	-0.377641	-0.558114	0.247551	-0.696143
05672		9.706388	0.820820	2.156118	0.128129	0.004341	-0.002221	-0.640869	-0.463623	0.165039	-0.376894	-0.558582	0.246599	-0.696510
05673		9.840196	0.860457	2.235344	0.126805	0.079343	0.017707	-0.627686	-0.474121	0.166504	-0.376189	-0.558557	0.245562	-0.697276
05674		9.825577	0.863628	2.283608	0.113949	0.115343	0.019299	-0.631348	-0.461182	0.153809	-0.375546	-0.558324	0.244330	-0.698242
05675		9.779006	0.875782	2.318688	0.099349	0.123417	-0.007236	-0.634277	-0.473633	0.151123	-0.375404	-0.557929	0.243357	-0.698974
05676		9.799256	0.931040	2.389295	0.073628	0.142626	-0.028524	-0.637695	-0.462158	0.159668	-0.375450	-0.557420	0.242255	-0.699737
05677		9.738485	0.974124	2.512771	0.049708	0.158687	-0.035615	-0.632080	-0.456543	0.152588	-0.375640	-0.556771	0.241221	-0.700510
05678		9.611283	0.961960	2.681300	0.034092	0.156829	-0.032066	-0.626465	-0.466064	0.157959	-0.376036	-0.556012	0.240449	-0.701164
05679		9.334272	0.923500	2.877615	0.015714	0.108365	-0.036568	-0.632812	-0.461914	0.158447	-0.376284	-0.555566	0.239696	-0.701643
05680		9.057494	0.833657	2.771864	0.009539	0.003467	-0.044985	-0.631348	-0.468018	0.154541	-0.376396	-0.555723	0.239311	-0.701590
05681		8.994703	0.802104	2.616275	0.019908	-0.040572	-0.040465	-0.633057	-0.463135	0.166260	-0.376351	-0.556159	0.239007	-0.701372
05682		9.047532	0.679427	2.539868	0.051710	-0.037303	-0.024845	-0.635986	-0.465332	0.156006	-0.375955	-0.556693	0.238488	-0.701337
05683		9.131858	0.579513	2.518059	0.078395	-0.026623	0.004552	-0.634521	-0.463135	0.159180	-0.375415	-0.557129	0.238056	-0.701427
05684		9.297300	0.655393	2.425926	0.095502	-0.025375	0.023598	-0.624023	-0.460938	0.152832	-0.374677	-0.557579	0.237598	-0.701620
05685		9.414926	0.805104	2.338114	0.099727	-0.020962	0.038654	-0.634277	-0.474609	0.158447	-0.374012	-0.557926	0.237293	-0.701802
05686		9.554771	0.908805	2.329503	0.097615	-0.026181	0.044036	-0.634521	-0.465332	0.160645	-0.373049	-0.558384	0.236789	-0.702121
05687		9.654144	0.960969	2.284653	0.107813	-0.018751	0.039382	-0.637451	-0.464111	0.161621	-0.372155	-0.558808	0.236279	-0.702429
05688		9.685195	0.963237	2.255021	0.110345	0.017931	0.029252	-0.634277	-0.468994	0.161865	-0.371377	-0.559042	0.235607	-0.702880
05689		9.651344	0.977687	2.347643	0.100515	0.046868	0.016803	-0.630615	-0.459473	0.163086	-0.370726	-0.559123	0.234765	-0.703441
05690		9.541997	0.935345	2.414037	0.089580	0.037256	-0.001770	-0.634033	-0.458740	0.164062	-0.370325	-0.559224	0.234044	-0.703812
05691		9.399222	0.940668	2.433186	0.073608	0.033648	-0.011146	-0.637939	-0.461426	0.168457	-0.370030	-0.559317	0.233388	-0.704111
05692		9.287281	0.929394	2.513806	0.070176	0.024049	-0.015924	-0.636475	-0.466553	0.173828	-0.369641	-0.559508	0.232655	-0.704406
05693		9.208425	0.840228	2.602318	0.069223	-0.000443	-0.015935	-0.635254	-0.460205	0.173096	-0.369054	-0.559902	0.231832	-0.704672
05694		9.250911	0.835995	2.583457	0.076951	-0.017534	-0.009664	-0.636230	-0.459961	0.169922	-0.368464	-0.560367	0.231159	-0.704832
05695		9.294691	0.873637	2.554020	0.076440	-0.016564	-0.000473	-0.631348	-0.462158	0.171631	-0.367892	-0.560778	0.230601	-0.704987
05696		9.322382	0.933741	2.587253	0.070573	-0.013012	0.005956	-0.636230	-0.455811	0.164795	-0.367276	-0.561157	0.230027	-0.705194
05697		9.404077	0.970671	2.615691	0.056999	-0.012780	0.007957	-0.623779	-0.457275	0.174316	-0.366941	-0.561397	0.229800	-0.705251
05698		9.421985	0.980435	2.585619	0.040281	-0.022110	0.007273	-0.636963	-0.458008	0.177002	-0.366510	-0.561716	0.229479	-0.705326
05699		9.445382	1.011671	2.516766	0.022049	-0.026938	-0.001085	-0.634766	-0.455566	0.169922	-0.366102	-0.562049	0.229206	-0.705361
05700		9.474019	1.045096	2.501102	-0.000819	-0.017283	-0.013698	-0.635010	-0.460938	0.178955	-0.366092	-0.562206	0.229163	-0.705255
05701		9.527395	1.060901	2.497076	-0.017925	-0.011339	-0.019744	-0.640869	-0.451660	0.167480	-0.365940	-0.562388	0.228908	-0.705272
05702		9.524607	1.012875	2.519135	-0.036723	0.005227	-0.020804	-0.638916	-0.456055	0.166748	-0.366301	-0.562266	0.229128	-0.705110
05703		9.505566	0.909782	2.611377	-0.052074	0.006757	-0.024621	-0.631592	-0.450928	0.166992	-0.366697	-0.562120	0.229336	-0.704953
05704		9.484130	0.829613	2.581246	-0.065400	0.012164	-0.026655	-0.638916	-0.462891	0.164795	-0.367285	-0.561873	0.229676	-0.704733
05705		9.473488	0.873051	2.644302	-0.081216	0.050010	-0.025160	-0.629639	-0.468262	0.173096	-0.367815	-0.561415	0.229824	-0.704774
05706		9.344994	0.933154	2.738777	-0.102218	0.048423	-0.020969	-0.631836	-0.457764	0.165039	-0.368180	-0.560992	0.229841	-0.704915
05707		9.282146	0.934834	2.755379	-0.109693	0.010153	-0.020757	-0.637695	-0.461426	0.171387	-0.368823	-0.560649	0.230358	-0.704683
05708		9.270393	0.877640	2.705725	-0.113544	-0.017227	-0.022975	-0.635498	-0.463623	0.164307	-0.369223	-0.560537	0.230785	-0.704423
05709		9.237801	0.854235	2.617367	-0.108761	-0.034329	-0.029104	-0.641602	-0.469482	0.161865	-0.369709	-0.560512	0.231293	-0.704021
05710		9.239999	0.818871	2.609586	-0.098367	-0.038635	-0.033649	-0.630615	-0.462891	0.161621	-0.370086	-0.560574	0.231675	-0.703648
05711		9.300320	0.819992	2.562475	-0.093613	-0.031126	-0.032150	-0.633057	-0.460693	0.159424	-0.370616	-0.560551	0.232140	-0.703233
05712		9.375464	0.801733	2.594467	-0.091508	-0.000162	-0.031547	-0.635254	-0.464844	0.160156	-0.371275	-0.560319	0.232596	-0.702920
05713		9.443834	0.850558	2.617468	-0.084069	0.014084	-0.026733	-0.630615	-0.458496	0.156494	-0.371792	-0.560053	0.232890	-0.702761
05714		9.478518	0.876778	2.555551	-0.076112	0.014626	-0.017589	-0.637695	-0.461426	0.164062	-0.372420	-0.559721	0.233361	-0.702537
05715		9.496978	0.925334	2.556928	-0.076213	0.020083	-0.017387	-0.626953	-0.464600	0.162598	-0.372821	-0.559440	0.233624	-0.702461
05716		9.484162	0.926780	2.595376	-0.073554	0.022922	-0.017230	-0.639160	-0.477539	0.162109	-0.373214	-0.559159	0.233805	-0.702416
05717		9.466451	0.838382	2.631148	-0.062568	0.025791	-0.018383	-0.636719	-0.468750	0.162354	-0.373298	-0.558985	0.233683	-0.702550
05718		9.429834	0.755595	2.615096	-0.051967	0.018761	-0.018276	-0.639404	-0.469727	0.166748	-0.373466	-0.558833	0.233673	-0.702585
05719		9.341143	0.691290	2.636234	-0.036699	0.019262	-0.016652	-0.633789	-0.467041	0.167480	-0.373431	-0.558767	0.233475	-0.702722
05720		9.296599	0.790965	2.608227	-0.033945	0.035866	-0.016632	-0.636963	-0.474609	0.143066	-0.373462	-0.558600	0.233235	-0.702918
05721		9.278102	0.825748	2.632917	-0.027980	0.046414	-0.016963	-0.640381	-0.469971	0.146484	-0.373829	-0.558253	0.233240	-0.702997
05722		9.288959	0.878180	2.724247	-0.030334	0.039709	-0.018234	-0.636475	-0.469971	0.153076	-0.374203	-0.557940	0.233301	-0.703026
05723		9.310068	0.944232	2.702515	-0.020708	0.023555	-0.021480	-0.637939	-0.470703	0.160400	-0.374387	-0.557811	0.233200	-0.703064
05724		9.329179	0.971793	2.655287	-0.022943	0.022473	-0.027993	-0.636230	-0.467773	0.157471	-0.374445	-0.557759	0.232934	-0.703163
05725		9.316765	0.909695	2.651903	-0.020048	0.018406	-0.032588	-0.626221	-0.469727	0.154785	-0.374633	-0.557703	0.232756	-0.703165
05726		9.330655	0.861713	2.693331	-0.013817	0.003890	-0.031956	-0.630127	-0.474609	0.155762	-0.374813	-0.557739	0.232590	-0.703097
05727		9.341628	0.820895	2.667803	-0.005738	-0.005300	-0.024951	-0.630371	-0.471436	0.156006	-0.374764	-0.557883	0.232327	-0.703095
05728		9.331598	0.832869	2.688297	-0.010029	-0.007886	-0.015428	-0.631104	-0.473389	0.167480	-0.374742	-0.557987	0.232213	-0.703062
05729		9.346172	0.872172	2.676102	-0.013519	-0.027093	-0.010743	-0.626953	-0.476318	0.161621	-0.374385	-0.558289	0.231939	-0.703103
05730		9.396735	0.905855	2.559977	-0.006903	-0.037717	-0.004859	-0.631348	-0.471191	0.160400	-0.374015	-0.558636	0.231731	-0.703093
05731		9.402814	0.863026	2.616617	-0.009630	-0.017092	-0.002985	-0.629395	-0.473877	0.154541	-0.373823	-0.558797	0.231641	-0.703096
05732		9.362574	0.824534	2.671390	-0.007068	-0.017050	-0.000207	-0.627441	-0.467773	0.149170	-0.373686	-0.558930	0.231610	-0.703073
05733		9.383319	0.751747	2.678266	-0.000513	-0.027532	-0.001847	-0.630615	-0.472168	0.146240	-0.373796	-0.559047	0.231830	-0.702850
05734		9.343487	0.780123	2.633699	0.003506	-0.021091	-0.010251	-0.631348	-0.466553	0.151611	-0.373899	-0.559168	0.231930	-0.702666
05735		9.310559	0.817253	2.629588	0.003448	-0.022955	-0.015604	-0.628174	-0.472656	0.157471	-0.374040	-0.559308	0.232036	-0.702444
05736		9.320173	0.835150	2.653647	0.000890	-0.022998	-0.018379	-0.634277	-0.477295	0.148926	-0.373963	-0.559537	0.231894	-0.702350
05737		9.276808	0.850625	2.633590	0.006614	-0.030866	-0.021325	-0.633789	-0.472900	0.148193	-0.373932	-0.559802	0.231813	-0.702182
05738		9.331921	0.832568	2.623879	0.018045	-0.019387	-0.014485	-0.625977	-0.470703	0.156494	-0.373958	-0.559976	0.231785	-0.702038
05739		9.391561	0.869019	2.617203	0.008182	0.017307	-0.020342	-0.626221	-0.476807	0.156982	-0.374039	-0.559960	0.231559	-0.702083
05740		9.428151	0.916468	2.670726	0.003427	0.041134	-0.020987	-0.632080	-0.480957	0.152344	-0.374054	-0.559838	0.231146	-0.702308
05741		9.453569	0.983605	2.704137	-0.011218	0.057832	-0.016200	-0.625732	-0.474854	0.148926	-0.374126	-0.559563	0.230793	-0.702605
