// Start Time: Unknown
// Update Rate: 60.0Hz
// Filter Profile: human (46.1)
// Firmware Version: 4.6.0
PacketCounter	SampleTimeFine	Acc_X	Acc_Y	Acc_Z	Gyr_X	Gyr_Y	Gyr_Z	Mag_X	Mag_Y	Mag_Z	Quat_q0	Quat_q1	Quat_q2	Quat_q3
07456		5.971918	-1.017645	7.439524	0.065632	-0.003714	-0.046121	-0.157227	0.084961	-0.430176	0.935589	-0.095236	-0.321301	-0.111219
07457		6.075750	-0.864997	7.529183	0.096222	-0.004667	-0.066380	-0.170166	0.092773	-0.430420	0.935591	-0.094312	-0.321479	-0.111475
07458		6.208699	-0.845295	7.577884	0.095648	-0.007758	-0.063433	-0.166016	0.094727	-0.427979	0.935580	-0.093415	-0.321692	-0.111708
07459		6.155490	-0.964167	7.562798	0.078964	-0.008904	-0.062437	-0.163574	0.090820	-0.433594	0.935558	-0.092638	-0.321885	-0.111977
07460		6.230530	-0.741642	7.589046	0.059572	-0.006105	-0.047830	-0.168701	0.094971	-0.426758	0.935542	-0.092048	-0.322028	-0.112187
07461		6.232026	-0.744424	7.674446	0.035621	-0.011598	-0.025955	-0.161377	0.086914	-0.434814	0.935512	-0.091701	-0.322180	-0.112289
07462		6.204800	-0.887092	7.606415	0.012365	-0.019339	-0.005665	-0.165039	0.094727	-0.437256	0.935461	-0.091587	-0.322358	-0.112293
07463		6.182890	-0.941572	7.521175	0.009310	-0.020126	-0.004795	-0.166260	0.085938	-0.441162	0.935405	-0.091496	-0.322543	-0.112299
07464		6.194543	-0.769802	7.604502	0.002340	-0.016032	-0.001203	-0.161377	0.090576	-0.430908	0.935357	-0.091465	-0.322693	-0.112300
07465		6.188282	-0.879120	7.521704	-0.005823	-0.018145	0.008467	-0.159424	0.087891	-0.431396	0.935304	-0.091514	-0.322849	-0.112250
07466		6.141171	-0.940787	7.508640	-0.002133	-0.013198	-0.000352	-0.161133	0.093994	-0.432617	0.935257	-0.091501	-0.322985	-0.112265
07467		6.112268	-0.866220	7.543459	0.002544	-0.008869	-0.005374	-0.158691	0.088135	-0.426025	0.935218	-0.091434	-0.323100	-0.112310
07468		6.154990	-0.863233	7.562971	0.008441	-0.006131	-0.010940	-0.162354	0.091797	-0.432861	0.935186	-0.091298	-0.323205	-0.112386
07469		6.176255	-0.885374	7.511478	0.010061	-0.002589	-0.015088	-0.172363	0.086426	-0.438232	0.935160	-0.091127	-0.323291	-0.112496
07470		6.159314	-0.891811	7.505285	0.013516	0.003332	-0.019569	-0.157959	0.086426	-0.439941	0.935145	-0.090908	-0.323346	-0.112638
07471		6.166440	-0.764701	7.566461	0.010983	0.003538	-0.011918	-0.167725	0.079834	-0.433838	0.935134	-0.090727	-0.323396	-0.112727
07472		6.191079	-0.771027	7.580341	0.005714	-0.003895	-0.003855	-0.167236	0.091309	-0.433594	0.935106	-0.090601	-0.323497	-0.112769
07473		6.140666	-0.878094	7.544338	0.001167	-0.003513	0.001111	-0.165771	0.089600	-0.433594	0.935079	-0.090510	-0.323595	-0.112793
07474		6.158560	-0.869739	7.517775	-0.000288	-0.001288	0.000292	-0.168945	0.089355	-0.433105	0.935055	-0.090425	-0.323675	-0.112828
07475		6.138710	-0.846064	7.536062	0.003235	-0.002108	-0.003564	-0.167480	0.089844	-0.437256	0.935026	-0.090300	-0.323773	-0.112886
07476		6.125360	-0.824789	7.541352	0.002695	-0.003289	-0.002181	-0.165039	0.081543	-0.429688	0.934994	-0.090176	-0.323884	-0.112933
07477		6.151937	-0.849066	7.542290	0.001868	-0.005757	-0.000505	-0.160889	0.093750	-0.427979	0.934961	-0.090070	-0.323998	-0.112963
07478		6.113548	-0.881712	7.529420	0.002874	-0.006186	-0.004869	-0.160889	0.088867	-0.432861	0.934922	-0.089953	-0.324119	-0.113033
07479		6.114690	-0.881873	7.496269	0.005984	-0.003475	-0.007402	-0.164795	0.087646	-0.433105	0.934891	-0.089792	-0.324227	-0.113107
07480		6.122747	-0.833646	7.572765	0.005930	-0.005397	-0.005747	-0.166016	0.081787	-0.429199	0.934855	-0.089636	-0.324352	-0.113170
07481		6.137565	-0.853242	7.566477	0.003504	-0.010878	-0.002376	-0.165527	0.084961	-0.438477	0.934809	-0.089514	-0.324505	-0.113209
07482		6.178754	-0.820858	7.544786	0.001905	-0.013892	-0.000680	-0.172119	0.088135	-0.440430	0.934754	-0.089389	-0.324690	-0.113231
07483		6.197969	-0.812352	7.517111	-0.000575	-0.012107	-0.000388	-0.163818	0.083984	-0.427002	0.934695	-0.089271	-0.324876	-0.113274
07484		6.147000	-0.839245	7.562296	-0.003286	-0.009344	0.004249	-0.164795	0.079346	-0.437256	0.934656	-0.089233	-0.324997	-0.113284
07485		6.170076	-0.816285	7.567253	-0.000466	-0.007921	0.002006	-0.166992	0.083496	-0.438232	0.934621	-0.089121	-0.325127	-0.113284
07486		6.143074	-0.838762	7.540766	-0.001724	-0.007725	0.001754	-0.167725	0.085693	-0.438721	0.934583	-0.089016	-0.325260	-0.113301
07487		6.147272	-0.873245	7.482484	0.000089	-0.006214	-0.001832	-0.161865	0.082520	-0.437744	0.934546	-0.088888	-0.325386	-0.113346
07488		6.155464	-0.825888	7.558824	0.003682	-0.004245	-0.004095	-0.165039	0.081787	-0.431396	0.934523	-0.088737	-0.325484	-0.113375
07489		6.151492	-0.840183	7.526291	0.001703	-0.002674	-0.005982	-0.174072	0.082520	-0.435791	0.934498	-0.088617	-0.325561	-0.113448
07490		6.114636	-0.825787	7.538179	0.004241	-0.002195	-0.002225	-0.160400	0.094727	-0.432129	0.934469	-0.088460	-0.325666	-0.113506
07491		6.098986	-0.849212	7.551929	0.008764	-0.003446	-0.010452	-0.161377	0.090820	-0.443604	0.934445	-0.088310	-0.325742	-0.113600
07492		6.150368	-0.802994	7.550105	0.006306	-0.010322	-0.007879	-0.163818	0.079346	-0.431885	0.934408	-0.088133	-0.325882	-0.113640
07493		6.144848	-0.861895	7.525443	0.007617	-0.008596	-0.009285	-0.163086	0.085938	-0.427002	0.934378	-0.087964	-0.325992	-0.113705
07494		6.154403	-0.815505	7.536027	0.010887	-0.009308	-0.012058	-0.166016	0.086182	-0.438721	0.934342	-0.087810	-0.326102	-0.113805
07495		6.161364	-0.814377	7.555266	0.009501	-0.004294	-0.011278	-0.164062	0.083008	-0.446045	0.934318	-0.087605	-0.326198	-0.113884
07496		6.126665	-0.815972	7.521991	0.013058	-0.003718	-0.014345	-0.165771	0.089844	-0.433594	0.934305	-0.087322	-0.326292	-0.113939
07497		6.159271	-0.838168	7.543042	0.018912	-0.002371	-0.020731	-0.160889	0.089600	-0.441650	0.934283	-0.087064	-0.326373	-0.114089
07498		6.150857	-0.799560	7.548096	0.016416	-0.001112	-0.017982	-0.161133	0.092285	-0.429199	0.934278	-0.086799	-0.326428	-0.114175
07499		6.184065	-0.760354	7.573157	0.009304	-0.002264	-0.011850	-0.156738	0.088623	-0.437256	0.934263	-0.086686	-0.326463	-0.114282
07500		6.140947	-0.806961	7.528644	0.006993	-0.003558	-0.006076	-0.168701	0.077148	-0.434814	0.934264	-0.086552	-0.326491	-0.114297
07501		6.185278	-0.757652	7.572436	-0.000440	-0.007395	-0.000444	-0.164795	0.084473	-0.438232	0.934236	-0.086452	-0.326587	-0.114321
07502		6.170502	-0.784509	7.552942	-0.004984	-0.007014	0.004536	-0.164307	0.079834	-0.430908	0.934218	-0.086418	-0.326654	-0.114304
07503		6.174931	-0.756920	7.531367	-0.004692	-0.005380	0.009954	-0.161133	0.080811	-0.434082	0.934208	-0.086412	-0.326698	-0.114262
07504		6.146776	-0.778303	7.570594	-0.007475	-0.005409	0.012999	-0.164795	0.085938	-0.437256	0.934208	-0.086424	-0.326724	-0.114179
07505		6.166205	-0.789553	7.531121	-0.015558	-0.005079	0.018589	-0.160400	0.077881	-0.438965	0.934201	-0.086521	-0.326751	-0.114087
07506		6.180416	-0.813851	7.524818	-0.014569	-0.006035	0.016674	-0.169434	0.080322	-0.433594	0.934208	-0.086555	-0.326766	-0.113964
07507		6.171439	-0.781728	7.561948	-0.014461	-0.001848	0.019068	-0.158447	0.085205	-0.437500	0.934199	-0.086633	-0.326795	-0.113896
07508		6.166268	-0.799692	7.562287	-0.016883	0.002202	0.023415	-0.164062	0.083984	-0.435059	0.934233	-0.086746	-0.326722	-0.113738
07509		6.070202	-0.879838	7.531651	-0.012090	0.001713	0.017343	-0.163574	0.079834	-0.437500	0.934248	-0.086811	-0.326693	-0.113651
07510		6.123282	-0.870888	7.505419	-0.005850	-0.001344	0.006380	-0.159424	0.086182	-0.434326	0.934256	-0.086765	-0.326696	-0.113609
07511		6.107724	-0.833516	7.556019	-0.002509	0.000733	0.005206	-0.165283	0.081299	-0.433594	0.934276	-0.086750	-0.326657	-0.113569
07512		6.137909	-0.766801	7.573265	-0.000741	0.000666	0.008981	-0.167480	0.081787	-0.433594	0.934287	-0.086705	-0.326655	-0.113523
07513		6.155412	-0.835246	7.595660	-0.001911	-0.005352	0.006895	-0.167236	0.086670	-0.438965	0.934272	-0.086672	-0.326713	-0.113506
07514		6.167515	-0.826870	7.548888	-0.005951	-0.005184	0.009687	-0.159424	0.092041	-0.442627	0.934263	-0.086684	-0.326752	-0.113453
07515		6.151639	-0.775422	7.578486	-0.007052	-0.008595	0.017359	-0.172852	0.080811	-0.429932	0.934279	-0.086748	-0.326749	-0.113284
07516		6.154219	-0.795325	7.564774	-0.015528	-0.013730	0.020833	-0.153809	0.082520	-0.433350	0.934223	-0.086883	-0.326890	-0.113237
07517		6.153579	-0.845867	7.538877	-0.011973	-0.013156	0.017765	-0.167236	0.088867	-0.434570	0.934235	-0.086963	-0.326888	-0.113080
07518		6.145150	-0.877542	7.506012	-0.008516	-0.006712	0.010833	-0.159912	0.081055	-0.436768	0.934215	-0.087045	-0.326936	-0.113047
07519		6.150780	-0.801009	7.574496	-0.006344	-0.001125	0.008557	-0.163818	0.089111	-0.431152	0.934242	-0.087017	-0.326891	-0.112968
07520		6.105468	-0.755816	7.558630	-0.005449	-0.005398	0.007498	-0.163818	0.085938	-0.434082	0.934230	-0.087088	-0.326912	-0.112951
07521		6.134743	-0.813869	7.566891	-0.005066	-0.009982	0.011071	-0.163818	0.084229	-0.433594	0.934217	-0.087121	-0.326963	-0.112884
07522		6.138622	-0.848919	7.540908	-0.007595	-0.010115	0.013020	-0.163818	0.094238	-0.434326	0.934205	-0.087166	-0.327012	-0.112810
07523		6.144113	-0.835798	7.572182	-0.003965	-0.006755	0.011558	-0.167236	0.086182	-0.433105	0.934199	-0.087269	-0.327026	-0.112740
07524		6.115556	-0.842985	7.558090	-0.006835	-0.009910	0.007294	-0.168701	0.090088	-0.436768	0.934168	-0.087317	-0.327105	-0.112729
07525		6.137916	-0.806576	7.542303	-0.012231	-0.013384	0.013135	-0.161133	0.080078	-0.432373	0.934129	-0.087446	-0.327201	-0.112673
07526		6.123081	-0.832863	7.587415	-0.010238	-0.014430	0.012562	-0.164795	0.086914	-0.437256	0.934117	-0.087471	-0.327259	-0.112592
07527		6.101740	-0.843198	7.559580	-0.006281	-0.017390	0.008166	-0.169922	0.085449	-0.430176	0.934086	-0.087504	-0.327358	-0.112529
07528		6.128802	-0.853872	7.538575	-0.004058	-0.018882	0.000800	-0.168701	0.084961	-0.437256	0.934013	-0.087530	-0.327542	-0.112580
07529		6.130977	-0.854089	7.536782	-0.000181	-0.015631	-0.001752	-0.163330	0.084961	-0.439453	0.933970	-0.087469	-0.327676	-0.112595
07530		6.137960	-0.839986	7.534634	0.000800	-0.016587	-0.003665	-0.166504	0.083252	-0.438721	0.933952	-0.087379	-0.327758	-0.112578
07531		6.153426	-0.860005	7.527574	-0.000071	-0.011259	-0.007503	-0.156738	0.096436	-0.437988	0.933930	-0.087268	-0.327836	-0.112618
07532		6.159310	-0.765835	7.575253	0.001982	-0.010573	-0.001572	-0.160156	0.088379	-0.441162	0.933951	-0.087309	-0.327785	-0.112557
07533		6.151039	-0.793243	7.575018	0.000625	-0.014219	0.001475	-0.161865	0.091797	-0.431152	0.933962	-0.087259	-0.327796	-0.112476
07534		6.149852	-0.903454	7.512192	-0.002983	-0.016522	-0.001966	-0.159912	0.080811	-0.430176	0.933928	-0.087333	-0.327866	-0.112494
07535		6.139035	-0.820375	7.520613	0.002247	-0.009624	-0.007567	-0.166260	0.083984	-0.437988	0.933925	-0.087215	-0.327888	-0.112547
07536		6.144867	-0.804307	7.552015	0.001315	-0.006746	-0.007303	-0.168701	0.085205	-0.437256	0.933917	-0.087103	-0.327926	-0.112591
07537		6.174056	-0.780418	7.609343	0.000438	-0.011661	-0.001536	-0.161621	0.078613	-0.436768	0.933887	-0.087041	-0.328024	-0.112605
07538		6.153527	-0.727309	7.586023	-0.003665	-0.014995	0.010259	-0.168701	0.078857	-0.432373	0.933892	-0.086955	-0.328065	-0.112506
07539		6.179250	-0.800783	7.560911	-0.009847	-0.019352	0.010419	-0.165771	0.086426	-0.434570	0.933836	-0.086958	-0.328230	-0.112487
07540		6.154717	-0.841778	7.520751	-0.011638	-0.020333	0.011547	-0.162842	0.085693	-0.430420	0.933794	-0.087060	-0.328344	-0.112421
07541		6.177955	-0.885028	7.455118	-0.008643	-0.011755	0.005163	-0.155518	0.079834	-0.427490	0.933778	-0.087124	-0.328378	-0.112411
07542		6.146218	-0.856144	7.531692	-0.005083	-0.001131	0.000657	-0.164307	0.084229	-0.433350	0.933822	-0.087063	-0.328267	-0.112413
07543		6.105333	-0.790924	7.646500	-0.003460	-0.006252	-0.001237	-0.162598	0.081055	-0.445312	0.933819	-0.087028	-0.328278	-0.112434
07544		6.143160	-0.791524	7.579622	-0.006380	-0.021567	0.005735	-0.162354	0.094727	-0.439453	0.933822	-0.086925	-0.328335	-0.112319
07545		6.108192	-0.842930	7.552423	-0.011636	-0.029327	0.008073	-0.166992	0.083252	-0.437012	0.933783	-0.087106	-0.328439	-0.112201
07546		6.157579	-0.893857	7.499043	-0.006050	-0.027352	0.000330	-0.165527	0.085205	-0.433105	0.933720	-0.087080	-0.328626	-0.112200
07547		6.169554	-0.929390	7.458519	0.000112	-0.022275	-0.010436	-0.167480	0.080322	-0.437988	0.933663	-0.087022	-0.328777	-0.112278
07548		6.155479	-0.793943	7.569368	-0.001955	-0.015020	-0.008002	-0.160645	0.094482	-0.426514	0.933632	-0.086884	-0.328881	-0.112340
07549		6.182369	-0.723605	7.597596	-0.003879	-0.021767	-0.001938	-0.162598	0.092773	-0.427002	0.933587	-0.087056	-0.328960	-0.112347
07550		6.137915	-0.800751	7.603897	-0.012799	-0.035335	0.005950	-0.170654	0.079590	-0.436279	0.933498	-0.087303	-0.329156	-0.112321
07551		6.179864	-0.897522	7.505223	-0.012919	-0.039512	0.003525	-0.165039	0.095703	-0.427979	0.933384	-0.087297	-0.329477	-0.112335
07552		6.207304	-0.893939	7.429633	-0.005703	-0.022551	-0.008973	-0.170654	0.082520	-0.430176	0.933312	-0.087477	-0.329605	-0.112412
07553		6.234057	-0.822253	7.490685	-0.007683	-0.010924	-0.012263	-0.164795	0.092773	-0.422852	0.933249	-0.087441	-0.329739	-0.112577
07554		6.222709	-0.737666	7.565120	-0.011543	-0.006243	-0.001338	-0.158447	0.084473	-0.437988	0.933213	-0.087662	-0.329753	-0.112660
07555		6.252284	-0.641207	7.605790	-0.031910	-0.017460	0.024986	-0.159180	0.095215	-0.430176	0.933245	-0.087879	-0.329667	-0.112480
07556		6.260680	-0.808758	7.556786	-0.042796	-0.020991	0.036912	-0.164307	0.094727	-0.432617	0.933237	-0.088435	-0.329615	-0.112260
07557		6.232175	-0.807542	7.553403	-0.047908	-0.024569	0.041636	-0.168945	0.079346	-0.430420	0.933196	-0.089023	-0.329650	-0.112029
07558		6.091053	-1.064765	7.467538	-0.046757	-0.017823	0.033138	-0.160889	0.087891	-0.432861	0.933141	-0.089329	-0.329753	-0.111943
07559		6.129576	-1.008668	7.436830	-0.031565	-0.013170	0.018112	-0.164307	0.083496	-0.424561	0.933150	-0.089583	-0.329689	-0.111857
07560		6.187188	-0.892713	7.470764	-0.021434	-0.002259	0.014589	-0.169678	0.092529	-0.426270	0.933148	-0.089721	-0.329657	-0.111853
07561		6.152090	-0.818765	7.585167	-0.027122	-0.009480	0.024774	-0.169434	0.088379	-0.423584	0.933099	-0.090085	-0.329724	-0.111775
07562		6.211344	-0.802812	7.490751	-0.032851	-0.018091	0.034141	-0.170410	0.089600	-0.431885	0.933027	-0.090466	-0.329864	-0.111655
07563		6.154629	-0.990602	7.514203	-0.024720	-0.016722	0.035034	-0.164551	0.092529	-0.431152	0.932986	-0.090746	-0.329969	-0.111462
07564		6.204264	-0.999016	7.485925	-0.018722	-0.016337	0.024314	-0.163574	0.082764	-0.428223	0.932974	-0.090995	-0.329985	-0.111308
07565		6.131144	-1.056044	7.427238	-0.015020	-0.008063	0.014716	-0.167725	0.101318	-0.431641	0.932984	-0.091019	-0.329970	-0.111249
07566		6.155347	-0.894775	7.454336	-0.006681	0.003462	0.005019	-0.165771	0.086914	-0.433594	0.932993	-0.091262	-0.329886	-0.111223
07567		6.236096	-0.688014	7.598468	-0.009135	0.002042	0.019991	-0.167236	0.094238	-0.434570	0.933040	-0.091286	-0.329792	-0.111091
07568		6.187681	-0.924250	7.604836	-0.021709	-0.017864	0.035749	-0.168701	0.086670	-0.430176	0.933024	-0.091594	-0.329832	-0.110847
07569		6.101374	-1.215308	7.389037	-0.004207	-0.019189	0.018015	-0.168701	0.094727	-0.436523	0.932985	-0.091606	-0.329977	-0.110733
07570		6.158364	-0.906289	7.450452	0.013347	0.000122	-0.004897	-0.166504	0.089844	-0.437256	0.933007	-0.091509	-0.329949	-0.110714
07571		6.117019	-0.821783	7.579538	0.018943	0.004027	-0.014244	-0.160645	0.097656	-0.432617	0.933055	-0.091245	-0.329874	-0.110753
07572		6.221451	-0.764353	7.551055	0.006695	-0.012127	-0.002836	-0.163086	0.097412	-0.429688	0.933077	-0.091293	-0.329813	-0.110709
07573		6.307614	-0.609201	7.557561	-0.016402	-0.013628	0.019360	-0.159424	0.091553	-0.438965	0.933072	-0.091597	-0.329785	-0.110579
07574		6.204919	-0.922362	7.487136	-0.029682	-0.014501	0.034825	-0.160400	0.085205	-0.433105	0.933127	-0.091871	-0.329639	-0.110329
07575		6.128083	-1.026347	7.436984	-0.018213	0.002183	0.018554	-0.170898	0.097168	-0.427734	0.933199	-0.091912	-0.329454	-0.110237
07576		6.132212	-1.015093	7.436928	-0.003488	0.008948	0.004132	-0.167236	0.087158	-0.433838	0.933194	-0.092055	-0.329426	-0.110242
07577		6.176898	-0.810945	7.549381	-0.003436	0.009801	0.007382	-0.165527	0.089111	-0.423096	0.933244	-0.091978	-0.329315	-0.110215
07578		6.166085	-0.840077	7.550715	-0.004673	0.000269	0.014193	-0.166260	0.092041	-0.433350	0.933247	-0.092042	-0.329303	-0.110170
07579		6.125193	-1.032533	7.471191	-0.004280	-0.003791	0.015271	-0.154053	0.092529	-0.427734	0.933268	-0.092096	-0.329267	-0.110058
07580		6.140605	-1.011330	7.326650	0.017108	0.008162	-0.006337	-0.157471	0.092285	-0.440674	0.933380	-0.091948	-0.328994	-0.110050
07581		6.172343	-0.872517	7.547180	0.025066	0.023203	-0.014660	-0.161621	0.097656	-0.424316	0.933548	-0.091622	-0.328606	-0.110050
07582		6.178507	-0.900258	7.609669	0.024929	0.018499	-0.014657	-0.164551	0.091797	-0.429443	0.933618	-0.091513	-0.328417	-0.110113
07583		6.109990	-0.967446	7.528506	0.023541	0.005872	-0.015152	-0.169189	0.085938	-0.424805	0.933651	-0.091289	-0.328364	-0.110183
07584		6.117185	-0.981494	7.470918	0.042463	-0.001232	-0.023143	-0.160645	0.087646	-0.438232	0.933628	-0.090829	-0.328513	-0.110312
07585		6.171323	-0.978356	7.432812	0.049269	0.009203	-0.032821	-0.162842	0.087402	-0.436768	0.933729	-0.090231	-0.328355	-0.110416
07586		6.238855	-0.737362	7.681934	0.032642	0.006814	-0.018636	-0.164062	0.096436	-0.434814	0.933803	-0.089821	-0.328241	-0.110465
07587		6.224023	-0.776573	7.650765	0.006601	-0.008916	0.005577	-0.160645	0.086182	-0.432373	0.933816	-0.089883	-0.328221	-0.110361
07588		6.287410	-0.628033	7.695961	-0.014737	-0.028127	0.030240	-0.165771	0.080811	-0.432861	0.933804	-0.090014	-0.328290	-0.110154
07589		6.238758	-1.014432	7.449909	-0.032861	-0.030202	0.045275	-0.175781	0.091553	-0.433594	0.933756	-0.090225	-0.328448	-0.109916
07590		6.136084	-1.178208	7.250130	-0.029043	0.000619	0.028834	-0.167969	0.088379	-0.431885	0.933712	-0.090535	-0.328528	-0.109798
07591		6.103117	-0.897129	7.523791	-0.012689	0.028551	0.011598	-0.161865	0.080322	-0.427002	0.933789	-0.090586	-0.328298	-0.109786
07592		6.091815	-0.669450	7.819293	-0.018070	0.005309	0.025854	-0.162598	0.090088	-0.435059	0.933840	-0.090609	-0.328177	-0.109692
07593		6.210893	-0.836710	7.593163	-0.035575	-0.029362	0.051490	-0.163574	0.093018	-0.422363	0.933822	-0.091002	-0.328232	-0.109351
07594		6.170499	-1.007832	7.437163	-0.037191	-0.035891	0.062067	-0.167236	0.093018	-0.439209	0.933745	-0.091573	-0.328415	-0.108984
07595		6.090141	-1.146921	7.275314	-0.018236	-0.000779	0.025037	-0.157715	0.088135	-0.425293	0.933778	-0.091749	-0.328332	-0.108810
07596		6.076819	-1.063066	7.385596	0.007800	0.031699	-0.001015	-0.157227	0.096191	-0.424561	0.933916	-0.091606	-0.327967	-0.108844
07597		6.118047	-0.725471	7.685957	0.010082	0.022197	0.005169	-0.169434	0.092041	-0.425781	0.934029	-0.091634	-0.327655	-0.108793
07598		6.197095	-0.754613	7.746249	-0.008136	-0.009153	0.027528	-0.153564	0.094727	-0.434326	0.933984	-0.091814	-0.327781	-0.108641
07599		6.245529	-0.922434	7.584829	-0.023768	-0.033845	0.032486	-0.152832	0.085449	-0.424316	0.933999	-0.092133	-0.327735	-0.108383
07600		6.264944	-1.003407	7.406286	-0.031442	-0.030256	0.036149	-0.168213	0.095459	-0.433350	0.934000	-0.092394	-0.327721	-0.108193
07601		6.093293	-1.024122	7.359671	-0.010703	0.000675	0.014300	-0.164307	0.094238	-0.433838	0.934001	-0.092550	-0.327703	-0.108108
07602		6.068336	-0.918222	7.507737	0.003120	0.009207	0.005070	-0.165527	0.091309	-0.436768	0.934056	-0.092534	-0.327567	-0.108057
07603		6.061743	-0.818767	7.616765	0.005863	0.000564	0.004202	-0.166504	0.092529	-0.436035	0.934091	-0.092428	-0.327516	-0.108000
07604		6.170870	-0.924044	7.540187	0.004945	-0.014950	0.013697	-0.163086	0.089600	-0.429688	0.934082	-0.092399	-0.327596	-0.107861
07605		6.134161	-1.066990	7.516740	0.005984	-0.019641	0.005829	-0.163086	0.094482	-0.435303	0.934058	-0.092325	-0.327703	-0.107807
07606		6.101575	-0.990421	7.499782	0.017511	-0.018392	-0.007682	-0.158203	0.095215	-0.431885	0.934050	-0.092184	-0.327773	-0.107782
07607		6.044489	-0.901626	7.469871	0.036278	-0.018062	-0.026773	-0.161865	0.092041	-0.424072	0.934062	-0.091878	-0.327802	-0.107855
07608		6.087199	-0.858832	7.513442	0.055883	-0.016334	-0.042659	-0.163330	0.087891	-0.431885	0.934031	-0.091371	-0.327966	-0.108053
07609		6.167240	-0.922061	7.547110	0.050233	-0.019998	-0.041472	-0.161377	0.088135	-0.432617	0.934005	-0.090798	-0.328137	-0.108240
07610		6.177322	-0.836659	7.549682	0.042182	-0.021540	-0.034266	-0.162109	0.088379	-0.428955	0.933991	-0.090318	-0.328264	-0.108380
07611		6.252309	-0.824027	7.579934	0.025659	-0.024093	-0.011951	-0.168945	0.085693	-0.431396	0.933961	-0.090066	-0.328411	-0.108404
07612		6.232125	-0.923323	7.522273	0.014311	-0.025769	-0.005181	-0.167480	0.088867	-0.429199	0.933888	-0.089865	-0.328666	-0.108422
07613		6.222640	-0.917906	7.480639	0.011888	-0.022046	-0.006486	-0.167236	0.085693	-0.424805	0.933825	-0.089751	-0.328867	-0.108450
07614		6.224417	-0.803012	7.586232	0.004267	-0.017604	0.000463	-0.161865	0.092773	-0.432373	0.933765	-0.089680	-0.329048	-0.108478
07615		6.211427	-0.845898	7.552999	-0.003581	-0.021709	0.010681	-0.168945	0.086182	-0.436768	0.933754	-0.089788	-0.329084	-0.108372
07616		6.124405	-0.940615	7.528160	-0.008214	-0.025479	0.013235	-0.166992	0.086670	-0.426758	0.933704	-0.089792	-0.329258	-0.108276
07617		6.188377	-0.872356	7.522498	-0.012939	-0.024438	0.016868	-0.164795	0.089844	-0.431152	0.933637	-0.089911	-0.329438	-0.108204
07618		6.144000	-0.966478	7.549277	-0.011036	-0.029337	0.019524	-0.169678	0.084229	-0.435547	0.933589	-0.090055	-0.329580	-0.108065
07619		6.197071	-0.911905	7.491018	-0.011190	-0.033506	0.017086	-0.168457	0.093750	-0.432373	0.933514	-0.090066	-0.329827	-0.107951
07620		6.195737	-0.833844	7.517655	-0.009835	-0.030397	0.016500	-0.169189	0.087402	-0.440186	0.933442	-0.090260	-0.330021	-0.107823
07621		6.214991	-0.889776	7.515786	-0.011879	-0.033715	0.022770	-0.173828	0.086914	-0.431152	0.933390	-0.090318	-0.330213	-0.107633
07622		6.194188	-0.884768	7.498987	-0.009121	-0.034231	0.022146	-0.164551	0.083740	-0.430908	0.933280	-0.090403	-0.330544	-0.107499
07623		6.187715	-0.916556	7.463531	-0.008700	-0.035831	0.019147	-0.156738	0.089844	-0.436523	0.933229	-0.090408	-0.330733	-0.107363
07624		6.211768	-0.959118	7.428258	-0.005576	-0.031220	0.015001	-0.163330	0.087646	-0.438232	0.933256	-0.090445	-0.330705	-0.107180
07625		6.191207	-0.873766	7.429465	-0.000274	-0.021575	0.011076	-0.172363	0.089844	-0.427002	0.933273	-0.090376	-0.330720	-0.107043
07626		6.205301	-0.861916	7.479343	0.002482	-0.016961	0.017225	-0.175537	0.090332	-0.426025	0.933212	-0.090419	-0.330913	-0.106938
07627		6.150023	-0.904212	7.492912	0.002538	-0.015570	0.018034	-0.165527	0.089355	-0.430176	0.933133	-0.090480	-0.331150	-0.106842
07628		6.165295	-1.001975	7.533269	0.008183	-0.025160	0.009748	-0.163330	0.090820	-0.425781	0.933107	-0.090426	-0.331276	-0.106730
07629		6.202934	-0.891393	7.473662	0.007507	-0.036171	0.004336	-0.166504	0.096924	-0.433838	0.933044	-0.090426	-0.331473	-0.106664
07630		6.209563	-0.828011	7.507512	0.006706	-0.030510	0.006253	-0.163330	0.091553	-0.432129	0.933001	-0.090498	-0.331614	-0.106541
07631		6.210468	-0.873288	7.512494	0.005625	-0.031798	0.004112	-0.173340	0.092773	-0.432861	0.932972	-0.090481	-0.331731	-0.106451
07632		6.227216	-0.894459	7.470428	0.008537	-0.033282	-0.000848	-0.164795	0.083740	-0.431641	0.932873	-0.090455	-0.332027	-0.106413
07633		6.245296	-0.912592	7.493664	0.007591	-0.035005	-0.009757	-0.175049	0.091064	-0.423828	0.932820	-0.090249	-0.332220	-0.106452
07634		6.278026	-0.907901	7.437567	0.005853	-0.025934	-0.009964	-0.164062	0.080078	-0.433105	0.932696	-0.090240	-0.332539	-0.106552
07635		6.179029	-0.803950	7.466499	0.012118	-0.017786	-0.013381	-0.164062	0.086182	-0.429443	0.932706	-0.089899	-0.332584	-0.106612
07636		6.224803	-0.910866	7.474233	0.006501	-0.019526	-0.013762	-0.168457	0.082275	-0.424072	0.932690	-0.089740	-0.332644	-0.106691
07637		6.290186	-0.887907	7.398707	0.008173	-0.013218	-0.016236	-0.165039	0.089355	-0.437012	0.932649	-0.089525	-0.332771	-0.106843
07638		6.256358	-0.886361	7.431316	0.008407	-0.005207	-0.017040	-0.174072	0.084961	-0.432129	0.932689	-0.089348	-0.332686	-0.106903
07639		6.215450	-0.881491	7.478117	0.012464	0.006557	-0.022822	-0.166748	0.091553	-0.436035	0.932687	-0.089078	-0.332707	-0.107081
07640		6.200241	-0.823548	7.510034	0.013825	0.003996	-0.027744	-0.168213	0.083496	-0.433594	0.932731	-0.088875	-0.332594	-0.107220
07641		6.172730	-0.855816	7.505687	0.013972	0.000580	-0.028031	-0.168945	0.085693	-0.432617	0.932751	-0.088550	-0.332565	-0.107403
07642		6.170135	-0.879933	7.526160	0.012023	-0.009697	-0.036119	-0.171875	0.082275	-0.440674	0.932724	-0.088279	-0.332633	-0.107648
07643		6.200848	-0.871381	7.472111	0.015369	-0.013313	-0.041653	-0.169434	0.091064	-0.436768	0.932694	-0.087869	-0.332744	-0.107903
07644		6.286765	-0.693681	7.456889	0.016277	-0.010520	-0.037625	-0.172363	0.085938	-0.437500	0.932675	-0.087641	-0.332791	-0.108103
07645		6.259485	-0.769531	7.524804	0.007483	-0.012360	-0.015421	-0.172852	0.089844	-0.438965	0.932651	-0.087458	-0.332882	-0.108183
07646		6.244177	-0.889473	7.442914	0.004439	-0.015577	-0.010458	-0.171143	0.088623	-0.443604	0.932620	-0.087378	-0.332981	-0.108207
07647		6.224257	-0.891843	7.513997	0.005059	-0.016759	-0.016984	-0.168457	0.082031	-0.435303	0.932607	-0.087225	-0.333043	-0.108249
07648		6.194573	-0.785597	7.476430	0.004804	-0.016122	-0.018334	-0.179199	0.084717	-0.432861	0.932588	-0.087008	-0.333115	-0.108368
07649		6.207546	-0.848740	7.477065	0.006945	-0.015694	-0.027348	-0.176270	0.086670	-0.434814	0.932487	-0.086829	-0.333369	-0.108605
07650		6.267368	-0.820895	7.447343	0.003008	-0.014117	-0.023702	-0.172607	0.083008	-0.438965	0.932416	-0.086707	-0.333538	-0.108787
07651		6.235141	-0.835752	7.466968	0.001466	-0.012749	-0.027722	-0.172607	0.078125	-0.432861	0.932383	-0.086495	-0.333623	-0.108978
07652		6.231210	-0.829783	7.478823	0.003734	-0.012516	-0.028613	-0.175781	0.088135	-0.438477	0.932334	-0.086222	-0.333750	-0.109227
07653		6.212576	-0.770752	7.521379	-0.004220	-0.020265	-0.023226	-0.177002	0.080811	-0.432861	0.932258	-0.086173	-0.333921	-0.109385
07654		6.239960	-0.778854	7.499112	-0.005554	-0.025820	-0.018590	-0.171875	0.086426	-0.433350	0.932148	-0.086069	-0.334192	-0.109581
07655		6.281006	-0.885541	7.486316	-0.005730	-0.026771	-0.012625	-0.173828	0.086426	-0.433105	0.932075	-0.086065	-0.334368	-0.109672
07656		6.290425	-0.827845	7.409274	-0.005191	-0.023674	-0.015624	-0.177002	0.080078	-0.435791	0.931996	-0.086050	-0.334550	-0.109797
07657		6.346912	-0.719672	7.473956	-0.010385	-0.019214	-0.001339	-0.173340	0.083740	-0.432373	0.931930	-0.085997	-0.334727	-0.109855
07658		6.275160	-0.806916	7.391679	-0.010159	-0.011735	0.000300	-0.176025	0.080811	-0.432861	0.931900	-0.086014	-0.334796	-0.109890
07659		6.311363	-0.788956	7.435312	-0.018246	0.001014	0.009826	-0.175537	0.091309	-0.432861	0.931894	-0.086062	-0.334796	-0.109905
07660		6.273513	-0.822842	7.522067	-0.028220	-0.001946	0.021803	-0.170898	0.078857	-0.426758	0.931883	-0.086393	-0.334772	-0.109810
07661		6.264258	-0.780522	7.506048	-0.041448	-0.015608	0.037093	-0.172119	0.082520	-0.428955	0.931853	-0.086702	-0.334818	-0.109682
07662		6.284868	-0.753583	7.423683	-0.043290	-0.012307	0.041755	-0.177490	0.081787	-0.435303	0.931833	-0.087079	-0.334833	-0.109506
07663		6.262613	-0.863440	7.432861	-0.033601	-0.002289	0.045259	-0.177979	0.083008	-0.428711	0.931839	-0.087334	-0.334826	-0.109274
07664		6.290964	-0.850228	7.457358	-0.028425	0.004055	0.042123	-0.174805	0.088379	-0.436035	0.931839	-0.087591	-0.334815	-0.109102
07665		6.236560	-0.946776	7.467948	-0.021248	0.001230	0.038074	-0.179932	0.086914	-0.430908	0.931873	-0.087816	-0.334742	-0.108853
07666		6.230017	-0.984648	7.390430	-0.016864	0.004360	0.024125	-0.171875	0.085205	-0.431396	0.931859	-0.087979	-0.334763	-0.108775
07667		6.279976	-0.755035	7.448099	-0.006104	0.012980	0.018948	-0.166016	0.083496	-0.428223	0.931925	-0.087988	-0.334614	-0.108663
07668		6.218482	-0.827329	7.518489	-0.009773	0.013915	0.023940	-0.174316	0.085205	-0.434814	0.932021	-0.088017	-0.334387	-0.108513
07669		6.221455	-0.929122	7.444008	-0.007158	0.011158	0.019236	-0.177002	0.092529	-0.434570	0.932075	-0.088020	-0.334275	-0.108395
07670		6.208010	-0.942874	7.426286	0.001296	0.014955	0.005721	-0.167480	0.093750	-0.433350	0.932111	-0.088041	-0.334179	-0.108365
07671		6.222664	-0.899762	7.491707	0.002759	0.015179	0.002426	-0.169678	0.077637	-0.431885	0.932199	-0.088050	-0.333951	-0.108302
07672		6.246241	-0.831081	7.490403	0.002935	0.011230	0.004566	-0.173584	0.084717	-0.426758	0.932266	-0.087822	-0.333828	-0.108284
07673		6.233943	-0.877413	7.414714	0.003330	0.012833	0.009976	-0.170654	0.096191	-0.433838	0.932299	-0.087761	-0.333757	-0.108270
07674		6.237497	-0.862422	7.448769	0.007944	0.021513	-0.000687	-0.170166	0.093750	-0.434082	0.932383	-0.087762	-0.333532	-0.108237
07675		6.199847	-0.862932	7.484536	0.006913	0.019158	0.002039	-0.169434	0.086426	-0.434326	0.932466	-0.087739	-0.333323	-0.108187
07676		6.183339	-0.824800	7.505430	0.008122	0.020020	-0.002600	-0.171631	0.088623	-0.430908	0.932555	-0.087576	-0.333118	-0.108183
07677		6.157587	-0.907672	7.530005	0.007127	0.011472	-0.001794	-0.166992	0.095703	-0.439453	0.932594	-0.087491	-0.333024	-0.108203
07678		6.219499	-0.868621	7.502071	0.003324	0.002050	-0.001176	-0.160400	0.088135	-0.429443	0.932655	-0.087500	-0.332879	-0.108119
07679		6.253825	-0.773326	7.465914	0.001967	0.004605	0.003749	-0.168213	0.086182	-0.435059	0.932737	-0.087460	-0.332681	-0.108053
07680		6.231836	-0.812694	7.481368	-0.003090	0.008632	0.011227	-0.171143	0.090088	-0.434326	0.932804	-0.087428	-0.332532	-0.107961
07681		6.218464	-0.792702	7.520693	-0.006066	0.001138	0.012640	-0.168213	0.081299	-0.431885	0.932827	-0.087500	-0.332478	-0.107871
07682		6.277983	-0.897199	7.470220	-0.011193	-0.001350	0.012513	-0.173340	0.083252	-0.435059	0.932852	-0.087487	-0.332427	-0.107823
07683		6.352263	-0.883412	7.403268	-0.011715	0.016160	0.010432	-0.163086	0.085205	-0.433838	0.932901	-0.087478	-0.332295	-0.107809
07684		6.302448	-0.821656	7.404944	-0.000843	0.038866	0.015605	-0.178467	0.086426	-0.433838	0.933081	-0.087395	-0.331853	-0.107681
07685		6.002334	-1.036847	7.532918	0.005397	0.041895	0.005408	-0.164795	0.084961	-0.434814	0.933171	-0.087284	-0.331620	-0.107711
07686		6.029991	-0.986374	7.508224	0.011180	0.028902	-0.003204	-0.171631	0.094238	-0.431885	0.933303	-0.087063	-0.331311	-0.107698
07687		6.202670	-0.830644	7.509375	0.012620	0.019085	-0.005177	-0.171631	0.087158	-0.432373	0.933353	-0.087008	-0.331175	-0.107724
07688		6.190791	-0.855245	7.545262	0.010377	0.018325	-0.001870	-0.156738	0.092773	-0.428955	0.933406	-0.086872	-0.331053	-0.107750
07689		6.193008	-0.823734	7.559123	0.008742	0.013937	-0.001026	-0.167236	0.088379	-0.433838	0.933519	-0.086834	-0.330765	-0.107691
07690		6.179913	-0.835187	7.541381	0.002629	0.010484	0.002388	-0.165283	0.090576	-0.432861	0.933574	-0.086783	-0.330630	-0.107664
07691		6.190995	-0.839678	7.548933	0.001644	0.009518	0.005931	-0.167236	0.092529	-0.428711	0.933636	-0.086785	-0.330475	-0.107600
07692		6.175665	-0.804877	7.535308	-0.005091	-0.000878	0.015568	-0.167725	0.080078	-0.436768	0.933649	-0.086931	-0.330432	-0.107506
07693		6.128527	-0.915344	7.519707	-0.005378	-0.002161	0.015842	-0.160400	0.089600	-0.439697	0.933682	-0.086852	-0.330393	-0.107401
07694		6.135370	-0.935917	7.493758	0.000296	-0.001705	0.006210	-0.166504	0.083496	-0.438965	0.933758	-0.086815	-0.330232	-0.107266
07695		6.159955	-0.850537	7.503731	0.006546	0.001317	-0.003972	-0.165527	0.084717	-0.435547	0.933802	-0.086625	-0.330160	-0.107257
07696		6.153116	-0.829970	7.529659	0.008271	0.000899	-0.005917	-0.165771	0.092529	-0.440674	0.933839	-0.086454	-0.330096	-0.107270
07697		6.171180	-0.818090	7.568469	0.008800	-0.000911	-0.000797	-0.165283	0.091309	-0.433350	0.933887	-0.086379	-0.330010	-0.107176
07698		6.173220	-0.850181	7.543096	0.002122	-0.004474	-0.000884	-0.167969	0.083252	-0.427734	0.933903	-0.086382	-0.329975	-0.107149
07699		6.143814	-0.854546	7.530345	0.006711	-0.002632	-0.001824	-0.173828	0.096924	-0.428711	0.933896	-0.086268	-0.330005	-0.107204
07700		6.162667	-0.860742	7.523378	0.005129	-0.005631	-0.000162	-0.161865	0.089111	-0.424805	0.933850	-0.086370	-0.330105	-0.107216
07701		6.150095	-0.839076	7.529024	0.008170	-0.004866	-0.001061	-0.156982	0.091553	-0.443604	0.933864	-0.086336	-0.330073	-0.107221
07702		6.145809	-0.851471	7.529065	0.008038	-0.007113	-0.005122	-0.172363	0.084473	-0.429932	0.933944	-0.086223	-0.329909	-0.107114
07703		6.167908	-0.811600	7.513701	0.006545	-0.006800	-0.004267	-0.166504	0.081543	-0.436035	0.933906	-0.086121	-0.330020	-0.107185
07704		6.179902	-0.799544	7.499327	0.003991	-0.008310	-0.003114	-0.162598	0.090088	-0.434326	0.933913	-0.085964	-0.330039	-0.107199
07705		6.190403	-0.848884	7.513228	0.002090	-0.006395	0.000735	-0.155029	0.085205	-0.431885	0.933941	-0.085952	-0.329979	-0.107147
07706		6.150977	-0.880662	7.501487	0.005119	-0.002646	-0.006652	-0.166992	0.089355	-0.432373	0.934009	-0.085828	-0.329818	-0.107145
07707		6.159149	-0.802377	7.537830	0.007585	-0.004447	-0.007000	-0.168701	0.087891	-0.437988	0.934010	-0.085759	-0.329824	-0.107175
07708		6.125722	-0.818611	7.558073	0.005176	-0.009373	-0.006129	-0.171143	0.082520	-0.436768	0.934003	-0.085671	-0.329866	-0.107183
07709		6.151561	-0.827072	7.537144	0.004492	-0.014718	-0.007205	-0.166260	0.084717	-0.437988	0.933964	-0.085528	-0.329995	-0.107240
07710		6.156077	-0.857301	7.543073	0.006849	-0.019298	-0.009183	-0.162354	0.082031	-0.437012	0.933941	-0.085384	-0.330088	-0.107261
07711		6.195022	-0.776110	7.524607	0.004065	-0.020700	-0.006941	-0.171631	0.089844	-0.432861	0.933934	-0.085233	-0.330145	-0.107269
07712		6.194202	-0.821877	7.498005	0.000362	-0.019225	-0.004391	-0.167480	0.085938	-0.436035	0.933870	-0.085257	-0.330310	-0.107302
07713		6.149963	-0.834701	7.510443	0.002111	-0.020174	-0.003908	-0.170654	0.088135	-0.433838	0.933836	-0.085196	-0.330420	-0.107303
07714		6.164120	-0.821770	7.527457	0.000028	-0.019446	-0.008988	-0.167969	0.090576	-0.432617	0.933777	-0.085181	-0.330571	-0.107368
07715		6.125195	-0.819939	7.539283	0.005943	-0.022081	-0.013242	-0.163330	0.087158	-0.433594	0.933722	-0.085144	-0.330715	-0.107430
07716		6.139666	-0.806909	7.522923	0.006465	-0.031470	-0.010854	-0.171143	0.082031	-0.434326	0.933671	-0.085062	-0.330872	-0.107453
07717		6.158151	-0.824614	7.546020	0.004959	-0.038742	-0.012732	-0.165527	0.083984	-0.433594	0.933561	-0.084936	-0.331186	-0.107543
07718		6.174318	-0.794201	7.573400	0.001760	-0.043675	-0.014283	-0.170410	0.081543	-0.435547	0.933462	-0.084856	-0.331462	-0.107617
07719		6.235200	-0.830784	7.503363	0.004150	-0.046330	-0.017902	-0.166992	0.082031	-0.440674	0.933335	-0.084717	-0.331817	-0.107731
07720		6.231023	-0.796462	7.439100	0.002678	-0.038433	-0.014317	-0.158691	0.095215	-0.430908	0.933266	-0.084569	-0.332036	-0.107776
07721		6.234662	-0.760867	7.493360	0.002725	-0.031378	-0.009153	-0.174316	0.075195	-0.433105	0.933238	-0.084632	-0.332111	-0.107738
07722		6.199231	-0.791570	7.511963	0.000917	-0.028606	-0.002045	-0.162598	0.091064	-0.432129	0.933149	-0.084488	-0.332372	-0.107812
07723		6.246824	-0.840480	7.457269	0.003381	-0.027952	-0.006463	-0.171387	0.082764	-0.429443	0.933119	-0.084497	-0.332464	-0.107782
07724		6.226697	-0.845892	7.462109	0.002963	-0.021449	-0.011572	-0.172119	0.087158	-0.437256	0.933050	-0.084413	-0.332641	-0.107896
07725		6.207871	-0.771275	7.517135	0.005305	-0.017910	-0.013264	-0.170410	0.083740	-0.436279	0.933009	-0.084321	-0.332761	-0.107954
07726		6.206787	-0.815272	7.490949	0.009768	-0.016390	-0.019914	-0.168945	0.080566	-0.432129	0.932976	-0.084135	-0.332864	-0.108065
07727		6.260597	-0.707645	7.458414	0.008181	-0.011275	-0.017944	-0.176270	0.085205	-0.426025	0.932956	-0.083943	-0.332927	-0.108200
07728		6.227780	-0.782938	7.539704	0.002307	-0.009177	-0.011232	-0.171631	0.089844	-0.432129	0.932890	-0.083914	-0.333070	-0.108348
07729		6.220892	-0.764703	7.498956	0.001253	-0.011000	-0.010934	-0.171143	0.075439	-0.432373	0.932859	-0.083917	-0.333135	-0.108416
07730		6.219922	-0.809145	7.505967	-0.001292	-0.012513	-0.009770	-0.169678	0.086182	-0.434326	0.932827	-0.083762	-0.333223	-0.108537
07731		6.218665	-0.760330	7.509325	-0.005979	-0.017142	-0.010445	-0.161621	0.079834	-0.429932	0.932790	-0.083770	-0.333300	-0.108610
07732		6.230564	-0.750496	7.461191	-0.007763	-0.012452	-0.004941	-0.173096	0.084717	-0.435059	0.932800	-0.083733	-0.333265	-0.108663
07733		6.225997	-0.748663	7.473245	-0.009003	-0.007117	0.001633	-0.173584	0.077881	-0.436279	0.932785	-0.083773	-0.333292	-0.108674
07734		6.250380	-0.708870	7.555422	-0.015948	-0.008765	0.010267	-0.166504	0.080078	-0.437012	0.932771	-0.083802	-0.333331	-0.108660
07735		6.190508	-0.767348	7.570289	-0.018153	-0.022008	0.018943	-0.174316	0.076904	-0.437500	0.932762	-0.083896	-0.333373	-0.108528
07736		6.244532	-0.822844	7.534590	-0.020569	-0.036434	0.018667	-0.166992	0.078125	-0.436523	0.932675	-0.083993	-0.333621	-0.108445
07737		6.252679	-0.832439	7.451954	-0.025105	-0.034441	0.016387	-0.167969	0.086914	-0.430664	0.932623	-0.084121	-0.333763	-0.108353
07738		6.250227	-0.852065	7.416347	-0.025388	-0.025691	0.015358	-0.166260	0.086182	-0.431396	0.932575	-0.084375	-0.333857	-0.108278
07739		6.232458	-0.782316	7.503730	-0.018719	-0.017745	0.009750	-0.169434	0.082275	-0.432617	0.932560	-0.084535	-0.333877	-0.108223
07740		6.236996	-0.817580	7.509138	-0.018680	-0.018276	0.012179	-0.171631	0.089600	-0.432373	0.932533	-0.084654	-0.333937	-0.108177
07741		6.223915	-0.768551	7.505394	-0.017112	-0.025307	0.011796	-0.173096	0.084229	-0.435303	0.932476	-0.084855	-0.334068	-0.108103
07742		6.221087	-0.864265	7.485680	-0.017709	-0.031712	0.015554	-0.172363	0.094482	-0.441650	0.932405	-0.085000	-0.334258	-0.108012
07743		6.250856	-0.849586	7.408850	-0.018387	-0.027020	0.013169	-0.180176	0.077148	-0.429199	0.932366	-0.085224	-0.334362	-0.107852
07744		6.296551	-0.790996	7.396748	-0.013513	-0.011939	0.009051	-0.167480	0.084473	-0.437256	0.932299	-0.085256	-0.334518	-0.107922
07745		6.240035	-0.878095	7.485513	-0.013741	-0.001804	0.008871	-0.172363	0.087158	-0.432861	0.932344	-0.085303	-0.334406	-0.107848
07746		6.255535	-0.839657	7.483134	-0.015358	-0.006190	0.009702	-0.176025	0.086182	-0.432129	0.932340	-0.085428	-0.334397	-0.107810
07747		6.236210	-0.786371	7.526805	-0.013962	-0.011729	0.011227	-0.179688	0.086426	-0.434570	0.932304	-0.085550	-0.334476	-0.107782
07748		6.243562	-0.825062	7.454299	-0.009300	-0.010306	0.003489	-0.160889	0.090820	-0.428711	0.932256	-0.085607	-0.334585	-0.107805
07749		6.243763	-0.810012	7.466048	-0.005324	-0.004840	0.005020	-0.173828	0.086914	-0.427246	0.932305	-0.085680	-0.334456	-0.107728
07750		6.256580	-0.815559	7.471943	-0.004436	-0.001528	0.006643	-0.170654	0.083496	-0.433350	0.932299	-0.085731	-0.334459	-0.107731
07751		6.291183	-0.849019	7.380273	-0.003722	0.007654	0.004534	-0.177002	0.085693	-0.430176	0.932347	-0.085687	-0.334340	-0.107717
07752		6.259722	-0.693017	7.515227	-0.001865	0.013208	0.012641	-0.173096	0.090820	-0.436035	0.932381	-0.085698	-0.334254	-0.107681
07753		6.284240	-0.814378	7.519012	-0.009632	0.007710	0.022069	-0.166748	0.089355	-0.424316	0.932435	-0.085825	-0.334126	-0.107515
07754		6.292505	-0.791617	7.485447	-0.011818	0.000761	0.023433	-0.177002	0.085449	-0.426758	0.932469	-0.086006	-0.334025	-0.107387
07755		6.211276	-0.827082	7.521690	-0.015768	0.002871	0.024670	-0.171631	0.078369	-0.429443	0.932465	-0.086177	-0.334016	-0.107312
07756		6.213782	-0.930482	7.412940	-0.010123	-0.001576	0.023073	-0.174072	0.087158	-0.431885	0.932484	-0.086199	-0.333988	-0.107212
07757		6.156129	-0.880230	7.426512	-0.003799	0.008075	0.011303	-0.169434	0.086914	-0.428711	0.932518	-0.086224	-0.333906	-0.107161
07758		6.197447	-0.769897	7.488457	-0.001462	0.011611	0.009630	-0.172607	0.090332	-0.430664	0.932574	-0.086228	-0.333760	-0.107118
07759		6.192891	-0.800569	7.509869	-0.001539	0.003921	0.016053	-0.168457	0.082275	-0.430176	0.932604	-0.086293	-0.333694	-0.107014
07760		6.194517	-0.912037	7.532585	-0.005237	-0.004638	0.019888	-0.170166	0.088135	-0.434326	0.932630	-0.086307	-0.333657	-0.106892
07761		6.191175	-0.977648	7.461534	0.000593	-0.012385	0.008790	-0.167480	0.091797	-0.432129	0.932629	-0.086303	-0.333689	-0.106802
07762		6.200907	-0.890699	7.366605	0.006776	0.005057	-0.008304	-0.167236	0.080566	-0.434326	0.932672	-0.086236	-0.333576	-0.106830
07763		6.239722	-0.711474	7.479570	0.012790	0.018956	-0.006222	-0.178711	0.091309	-0.433838	0.932768	-0.085978	-0.333366	-0.106854
07764		6.230207	-0.718571	7.593041	0.005728	0.008236	0.007992	-0.176270	0.091553	-0.434082	0.932786	-0.085968	-0.333337	-0.106804
07765		6.201179	-0.801431	7.628562	-0.005395	-0.019360	0.021110	-0.169189	0.085693	-0.433105	0.932741	-0.086103	-0.333475	-0.106650
07766		6.189584	-0.946548	7.453444	-0.009718	-0.031215	0.013031	-0.167480	0.093262	-0.435059	0.932685	-0.086187	-0.333641	-0.106554
07767		6.227809	-0.936384	7.285838	-0.000158	-0.010345	-0.004420	-0.175781	0.087891	-0.430664	0.932690	-0.086202	-0.333627	-0.106543
07768		6.234403	-0.792016	7.406370	0.007299	0.016264	-0.010922	-0.175781	0.091309	-0.431152	0.932722	-0.086088	-0.333531	-0.106653
07769		6.214050	-0.665414	7.634384	0.001233	0.014087	0.002523	-0.166992	0.082764	-0.428711	0.932756	-0.086097	-0.333432	-0.106664
07770		6.222335	-0.684434	7.673901	-0.010257	-0.014369	0.022673	-0.176270	0.083008	-0.437988	0.932755	-0.086181	-0.333456	-0.106531
07771		6.234178	-0.934547	7.481565	-0.016700	-0.030512	0.026795	-0.166260	0.084717	-0.435547	0.932688	-0.086313	-0.333664	-0.106356
07772		6.219371	-0.955218	7.296571	-0.013161	-0.011702	0.013597	-0.166748	0.092041	-0.430420	0.932704	-0.086380	-0.333634	-0.106256
07773		6.218348	-0.873207	7.425187	-0.006776	0.011818	-0.002619	-0.171387	0.088623	-0.441406	0.932759	-0.086435	-0.333452	-0.106295
07774		6.226675	-0.745618	7.599292	-0.005615	0.010104	0.005975	-0.170654	0.091309	-0.438477	0.932823	-0.086426	-0.333297	-0.106229
07775		6.214674	-0.726482	7.638118	-0.014078	-0.013208	0.019556	-0.163574	0.092285	-0.429688	0.932824	-0.086582	-0.333305	-0.106071
07776		6.267028	-0.800487	7.556976	-0.024695	-0.035892	0.037258	-0.168213	0.092041	-0.435547	0.932780	-0.086929	-0.333422	-0.105808
07777		6.167215	-1.155483	7.238892	-0.011022	-0.023013	0.022305	-0.173828	0.086426	-0.438477	0.932762	-0.087089	-0.333489	-0.105619
07778		6.172189	-1.015312	7.293834	0.007351	0.023830	-0.008112	-0.170654	0.085693	-0.432129	0.932845	-0.086913	-0.333287	-0.105671
07779		6.164107	-0.781256	7.572396	0.013602	0.029506	-0.007465	-0.167725	0.089355	-0.430176	0.932947	-0.086703	-0.333038	-0.105731
07780		6.219923	-0.720855	7.636695	0.006232	0.011861	0.002607	-0.165039	0.085693	-0.429932	0.933009	-0.086640	-0.332886	-0.105709
07781		6.238785	-0.745653	7.616880	-0.007022	-0.015635	0.022246	-0.165039	0.088135	-0.439697	0.933014	-0.086720	-0.332900	-0.105556
07782		6.254743	-1.014649	7.366027	-0.009222	-0.022578	0.023597	-0.167480	0.093994	-0.430664	0.933020	-0.086809	-0.332930	-0.105334
07783		6.196951	-1.014805	7.242736	0.003081	0.012712	-0.003757	-0.163574	0.088623	-0.438965	0.933079	-0.086796	-0.332764	-0.105351
07784		6.196838	-0.740019	7.467014	0.004790	0.034695	-0.003051	-0.161865	0.085205	-0.433105	0.933234	-0.086659	-0.332368	-0.105337
07785		6.202964	-0.705332	7.645766	0.001183	0.022609	0.009646	-0.166260	0.087646	-0.431396	0.933357	-0.086585	-0.332064	-0.105266
07786		6.244537	-0.757718	7.594434	-0.011126	-0.000188	0.031723	-0.164551	0.081055	-0.432129	0.933404	-0.086726	-0.331963	-0.105057
07787		6.247163	-0.955613	7.487315	-0.013013	-0.014494	0.034876	-0.173828	0.094971	-0.426758	0.933420	-0.086829	-0.331958	-0.104837
07788		6.185966	-1.020868	7.326208	-0.003308	0.001028	0.018761	-0.167969	0.086670	-0.438721	0.933422	-0.086971	-0.331949	-0.104732
07789		6.124443	-0.931238	7.477132	0.000678	0.013321	0.010647	-0.169434	0.088867	-0.429688	0.933504	-0.086908	-0.331765	-0.104638
07790		6.089523	-0.804627	7.600377	0.005426	0.007472	0.005832	-0.165039	0.085449	-0.430908	0.933543	-0.086861	-0.331677	-0.104609
07791		6.140345	-0.839131	7.612465	0.002780	-0.016015	0.011082	-0.174316	0.094482	-0.439453	0.933540	-0.086827	-0.331723	-0.104521
07792		6.232888	-0.910543	7.484652	-0.000051	-0.029365	0.016168	-0.165283	0.089844	-0.429932	0.933482	-0.086905	-0.331921	-0.104344
07793		6.185621	-0.987908	7.459497	0.000859	-0.021675	0.012162	-0.167969	0.079102	-0.430664	0.933460	-0.086941	-0.332006	-0.104237
07794		6.176466	-0.922833	7.423668	0.004517	-0.010129	0.001895	-0.167969	0.088379	-0.438232	0.933456	-0.086802	-0.332049	-0.104255
07795		6.211750	-0.853228	7.505566	0.011841	0.001735	-0.003366	-0.166504	0.085449	-0.440186	0.933500	-0.086645	-0.331974	-0.104226
07796		6.206495	-0.865315	7.506371	0.010335	0.000128	-0.000901	-0.168213	0.091797	-0.422119	0.933552	-0.086470	-0.331891	-0.104178
07797		6.216020	-0.804251	7.530511	0.005996	-0.004259	0.002985	-0.164307	0.089355	-0.440918	0.933545	-0.086483	-0.331905	-0.104183
07798		6.181045	-0.916354	7.521171	0.003428	-0.007682	0.005739	-0.173096	0.089355	-0.431641	0.933585	-0.086423	-0.331843	-0.104070
07799		6.195359	-0.842933	7.511412	0.006756	-0.007451	-0.003016	-0.162842	0.088623	-0.432861	0.933565	-0.086359	-0.331908	-0.104095
07800		6.203357	-0.750094	7.527651	0.003854	-0.005433	-0.000463	-0.164307	0.093994	-0.427002	0.933595	-0.086301	-0.331847	-0.104071
07801		6.210860	-0.752015	7.546532	-0.000799	-0.006837	0.007247	-0.160645	0.084717	-0.436279	0.933605	-0.086379	-0.331815	-0.104012
07802		6.194337	-0.905948	7.471806	-0.000951	-0.011531	0.007202	-0.159912	0.087158	-0.433105	0.933637	-0.086332	-0.331764	-0.103932
07803		6.189251	-0.887565	7.496694	-0.001945	-0.007581	0.002689	-0.162842	0.082764	-0.435547	0.933670	-0.086312	-0.331686	-0.103895
07804		6.172144	-0.847351	7.560844	-0.002455	-0.008757	0.004044	-0.172363	0.093018	-0.432373	0.933695	-0.086254	-0.331642	-0.103867
07805		6.178628	-0.867994	7.501006	-0.000859	-0.014408	0.004466	-0.174316	0.093506	-0.430176	0.933661	-0.086307	-0.331736	-0.103825
07806		6.157160	-0.874928	7.506966	-0.000480	-0.016004	0.001464	-0.159668	0.083008	-0.429688	0.933609	-0.086364	-0.331870	-0.103820
07807		6.146603	-0.854248	7.511382	-0.001249	-0.022724	-0.000473	-0.161621	0.084961	-0.439453	0.933592	-0.086317	-0.331925	-0.103831
07808		6.154352	-0.917523	7.523332	0.004932	-0.032736	-0.002970	-0.169189	0.086182	-0.438965	0.933563	-0.086208	-0.332050	-0.103787
07809		6.138506	-0.876168	7.519601	0.018943	-0.035898	-0.014052	-0.171387	0.093750	-0.428955	0.933495	-0.085982	-0.332292	-0.103808
07810		6.187583	-0.793386	7.518374	0.027274	-0.048346	-0.028284	-0.176270	0.094482	-0.426758	0.933359	-0.085774	-0.332692	-0.103924
07811		6.210221	-0.871578	7.489454	0.036685	-0.049062	-0.034880	-0.164551	0.089844	-0.431641	0.933200	-0.085495	-0.333158	-0.104086
07812		6.175023	-0.845366	7.512259	0.042924	-0.048927	-0.047843	-0.162109	0.084717	-0.436768	0.933091	-0.085064	-0.333509	-0.104294
07813		6.201994	-0.855870	7.520824	0.056291	-0.051648	-0.064918	-0.177246	0.086182	-0.430176	0.932989	-0.084420	-0.333867	-0.104585
07814		6.268592	-0.738521	7.504136	0.064890	-0.052353	-0.073978	-0.170410	0.090820	-0.433350	0.932813	-0.083739	-0.334405	-0.104983
07815		6.311228	-0.755713	7.440150	0.053987	-0.048967	-0.061398	-0.176514	0.087402	-0.434326	0.932684	-0.083206	-0.334811	-0.105257
07816		6.325082	-0.762537	7.442713	0.036657	-0.043588	-0.045525	-0.165283	0.086670	-0.427734	0.932551	-0.082821	-0.335204	-0.105482
07817		6.289948	-0.787160	7.428757	0.024737	-0.032538	-0.031408	-0.175781	0.091064	-0.439941	0.932484	-0.082571	-0.335401	-0.105644
07818		6.284752	-0.698123	7.469039	0.018095	-0.032443	-0.016257	-0.175537	0.082520	-0.426758	0.932413	-0.082419	-0.335635	-0.105654
07819		6.284215	-0.802260	7.469718	0.015787	-0.034146	-0.006984	-0.180176	0.078857	-0.426514	0.932317	-0.082285	-0.335921	-0.105691
07820		6.327994	-0.851400	7.348912	0.013850	-0.023507	-0.014375	-0.174072	0.085205	-0.443115	0.932227	-0.082107	-0.336175	-0.105822
07821		6.325862	-0.623414	7.444466	0.010179	-0.010185	-0.005418	-0.175537	0.075195	-0.426514	0.932236	-0.081966	-0.336193	-0.105791
07822		6.266650	-0.753214	7.509855	0.001122	-0.008729	0.003379	-0.175781	0.080566	-0.427246	0.932212	-0.081891	-0.336266	-0.105832
07823		6.251266	-0.719522	7.462413	-0.011907	-0.008905	0.007459	-0.167236	0.084717	-0.429932	0.932183	-0.081974	-0.336318	-0.105854
07824		6.241375	-0.716914	7.487636	-0.016646	-0.013078	0.013572	-0.170654	0.077393	-0.432373	0.932182	-0.082138	-0.336299	-0.105796
07825		6.257251	-0.790301	7.442087	-0.015431	-0.010839	0.009751	-0.178223	0.074951	-0.431885	0.932177	-0.082204	-0.336300	-0.105786
07826		6.272684	-0.735053	7.451719	-0.011825	-0.001766	0.003469	-0.177002	0.083252	-0.427979	0.932165	-0.082201	-0.336314	-0.105847
07827		6.253621	-0.774534	7.499339	-0.014302	-0.003800	0.007071	-0.175293	0.078613	-0.436523	0.932147	-0.082317	-0.336330	-0.105873
07828		6.270424	-0.861504	7.474837	-0.010140	-0.002092	-0.007705	-0.175537	0.084473	-0.430664	0.932146	-0.082283	-0.336308	-0.105974
07829		6.212622	-0.825322	7.443497	-0.007989	0.006955	-0.029078	-0.179688	0.080322	-0.439697	0.932140	-0.082239	-0.336247	-0.106251
07830		6.239394	-0.626050	7.527748	-0.006958	0.001106	-0.022968	-0.174805	0.081543	-0.430420	0.932127	-0.082143	-0.336243	-0.106453
07831		6.282332	-0.735577	7.502840	-0.009082	-0.010199	-0.015971	-0.172363	0.088379	-0.433838	0.932086	-0.082134	-0.336302	-0.106628
07832		6.331565	-0.744406	7.362317	-0.010871	-0.004983	-0.012857	-0.173340	0.081299	-0.427734	0.932078	-0.082192	-0.336275	-0.106747
07833		6.283245	-0.676557	7.440304	-0.014966	-0.003396	0.001145	-0.182617	0.086914	-0.432617	0.932068	-0.082277	-0.336259	-0.106820
07834		6.251015	-0.696960	7.494328	-0.027459	-0.000685	0.020664	-0.176514	0.084473	-0.430664	0.932050	-0.082550	-0.336260	-0.106759
07835		6.260236	-0.772816	7.462318	-0.052185	-0.009556	0.047047	-0.170898	0.083984	-0.428467	0.932032	-0.083076	-0.336243	-0.106561
07836		6.255777	-0.797029	7.461368	-0.042236	-0.009604	0.041455	-0.169922	0.077148	-0.431641	0.932032	-0.083503	-0.336196	-0.106380
07837		6.320714	-0.815494	7.425120	-0.030045	0.002509	0.032150	-0.181885	0.081787	-0.431885	0.932076	-0.083721	-0.336062	-0.106244
07838		6.258751	-0.816270	7.414632	-0.030342	0.007412	0.034380	-0.173828	0.076904	-0.430420	0.932092	-0.083990	-0.335992	-0.106107
07839		6.291155	-0.756264	7.464020	-0.034932	0.009844	0.038919	-0.178711	0.087158	-0.431396	0.932143	-0.084257	-0.335835	-0.105948
07840		6.226807	-0.786441	7.507361	-0.034870	0.009312	0.041326	-0.168213	0.082764	-0.430908	0.932177	-0.084623	-0.335709	-0.105760
07841		6.243499	-0.802372	7.500440	-0.036208	0.004298	0.043457	-0.169678	0.088623	-0.434814	0.932234	-0.084961	-0.335534	-0.105543
07842		6.247801	-0.797717	7.499543	-0.036341	-0.000390	0.043377	-0.174316	0.091064	-0.427490	0.932278	-0.085342	-0.335390	-0.105299
07843		6.230075	-0.816097	7.493082	-0.034459	-0.008594	0.046674	-0.178467	0.084717	-0.427734	0.932272	-0.085772	-0.335372	-0.105062
07844		6.255895	-0.915975	7.408040	-0.028291	-0.004188	0.037286	-0.173096	0.089600	-0.430176	0.932262	-0.086064	-0.335376	-0.104900
07845		6.209895	-0.873866	7.395467	-0.015555	0.006746	0.021531	-0.177002	0.087158	-0.434326	0.932300	-0.086234	-0.335256	-0.104804
07846		6.212721	-0.857995	7.506906	-0.004908	0.007744	0.013550	-0.167725	0.078125	-0.432617	0.932336	-0.086261	-0.335171	-0.104733
07847		6.258494	-0.846499	7.491784	0.000145	0.000720	0.012427	-0.173584	0.084473	-0.431641	0.932386	-0.086170	-0.335081	-0.104649
07848		6.257139	-0.864874	7.446472	0.000089	0.001258	0.010007	-0.168213	0.093262	-0.428467	0.932411	-0.086138	-0.335036	-0.104596
07849		6.235125	-0.777722	7.484868	0.002272	0.006272	0.010265	-0.174072	0.086426	-0.420898	0.932462	-0.086174	-0.334903	-0.104535
07850		6.250104	-0.754423	7.471006	-0.002608	0.005505	0.016659	-0.168213	0.077881	-0.435303	0.932480	-0.086234	-0.334852	-0.104493
07851		6.243884	-0.880201	7.461982	0.001031	0.006358	0.019223	-0.174316	0.079590	-0.432861	0.932555	-0.086139	-0.334715	-0.104344
07852		6.222414	-0.843002	7.462658	0.000555	0.009027	0.017391	-0.176025	0.092529	-0.433838	0.932608	-0.086069	-0.334617	-0.104237
07853		6.199779	-0.866434	7.491238	0.001842	0.006480	0.012440	-0.166748	0.089355	-0.433594	0.932643	-0.086094	-0.334540	-0.104156
07854		6.191305	-0.832934	7.497746	0.001977	0.003070	0.012112	-0.168701	0.092041	-0.427734	0.932700	-0.086086	-0.334414	-0.104058
07855		6.214012	-0.810967	7.502761	0.001486	-0.002363	0.009890	-0.167236	0.083496	-0.435303	0.932720	-0.086127	-0.334362	-0.104007
07856		6.212729	-0.812735	7.469826	0.000224	-0.002151	0.009674	-0.175293	0.089355	-0.430664	0.932761	-0.086072	-0.334286	-0.103926
07857		6.224718	-0.895432	7.490749	-0.000256	-0.005662	0.005861	-0.161865	0.089355	-0.439697	0.932751	-0.086087	-0.334316	-0.103911
07858		6.205574	-0.889616	7.464843	-0.001764	-0.000963	0.001136	-0.169434	0.087158	-0.426514	0.932811	-0.086058	-0.334169	-0.103869
07859		6.223035	-0.848029	7.495385	-0.001427	-0.006400	0.001309	-0.173828	0.094971	-0.429932	0.932807	-0.086062	-0.334171	-0.103901
07860		6.236763	-0.869035	7.488078	-0.000506	-0.007355	-0.000631	-0.168701	0.096191	-0.435547	0.932788	-0.086114	-0.334200	-0.103931
07861		6.212187	-0.843798	7.487838	-0.001699	-0.005758	-0.000020	-0.168457	0.090820	-0.436523	0.932800	-0.086164	-0.334154	-0.103926
07862		6.194913	-0.820502	7.506750	-0.001647	-0.012475	0.000415	-0.172363	0.086670	-0.438965	0.932798	-0.086170	-0.334162	-0.103912
07863		6.204774	-0.871460	7.486518	-0.000592	-0.016840	-0.001855	-0.169678	0.081787	-0.438721	0.932776	-0.086122	-0.334239	-0.103910
07864		6.224331	-0.927689	7.406999	0.003537	-0.012767	-0.011405	-0.169189	0.083252	-0.433594	0.932769	-0.085969	-0.334278	-0.103975
07865		6.223756	-0.827650	7.482224	0.006156	-0.007964	-0.013328	-0.174072	0.083008	-0.429443	0.932767	-0.085817	-0.334290	-0.104071
07866		6.218185	-0.839834	7.449464	0.008693	-0.006466	-0.014489	-0.170410	0.086426	-0.432617	0.932747	-0.085656	-0.334348	-0.104197
07867		6.217617	-0.881304	7.489643	0.012035	-0.004848	-0.022431	-0.167969	0.084961	-0.434570	0.932745	-0.085464	-0.334356	-0.104351
07868		6.246140	-0.808307	7.518809	0.008874	-0.008368	-0.023169	-0.174561	0.082031	-0.434814	0.932741	-0.085279	-0.334365	-0.104505
07869		6.217474	-0.809894	7.506214	0.005555	-0.012321	-0.020398	-0.172607	0.085449	-0.434570	0.932706	-0.085111	-0.334459	-0.104659
07870		6.219862	-0.823429	7.492144	0.006741	-0.015838	-0.019424	-0.166748	0.083008	-0.434082	0.932668	-0.084968	-0.334558	-0.104792
07871		6.236138	-0.780550	7.455995	0.006028	-0.016909	-0.016985	-0.178223	0.086670	-0.436523	0.932648	-0.084818	-0.334618	-0.104900
07872		6.225330	-0.867763	7.450953	0.002992	-0.013404	-0.012486	-0.172852	0.085205	-0.430176	0.932606	-0.084732	-0.334729	-0.104992
07873		6.265577	-0.818422	7.440187	0.002090	-0.008607	-0.013726	-0.179688	0.076904	-0.437012	0.932582	-0.084651	-0.334776	-0.105120
07874		6.270634	-0.835887	7.381175	0.008729	0.001226	-0.020876	-0.174561	0.090820	-0.432373	0.932575	-0.084402	-0.334806	-0.105283
07875		6.283596	-0.819146	7.433733	0.015081	0.015959	-0.025782	-0.178711	0.080322	-0.430908	0.932616	-0.084209	-0.334682	-0.105473
07876		6.262455	-0.774480	7.468749	0.015807	0.027054	-0.029434	-0.176514	0.080078	-0.429443	0.932670	-0.083911	-0.334527	-0.105723
07877		6.226130	-0.835657	7.456069	0.020264	0.038056	-0.034875	-0.167480	0.079590	-0.429443	0.932757	-0.083557	-0.334282	-0.106012
07878		6.141331	-0.860234	7.497773	0.019241	0.042007	-0.039389	-0.166016	0.086670	-0.428711	0.932878	-0.083188	-0.333937	-0.106320
07879		6.157930	-0.733645	7.582179	0.008379	0.022984	-0.029492	-0.167236	0.078125	-0.436523	0.932948	-0.083014	-0.333705	-0.106569
07880		6.213525	-0.690563	7.566492	-0.002889	-0.002132	-0.010186	-0.171143	0.078857	-0.431641	0.932969	-0.082906	-0.333648	-0.106648
07881		6.257065	-0.740491	7.512812	-0.008578	-0.011123	0.002631	-0.173828	0.090576	-0.435791	0.932951	-0.082913	-0.333691	-0.106672
07882		6.251736	-0.756938	7.479519	-0.008279	-0.009960	0.011556	-0.163086	0.081543	-0.423096	0.932939	-0.083028	-0.333715	-0.106609
07883		6.223488	-0.747064	7.512203	-0.013265	-0.007739	0.011521	-0.172852	0.082764	-0.430664	0.932945	-0.083138	-0.333673	-0.106601
07884		6.232802	-0.801104	7.492431	-0.015807	-0.011163	0.014277	-0.181396	0.088867	-0.430908	0.932924	-0.083268	-0.333713	-0.106562
07885		6.195844	-0.775350	7.485395	-0.019198	-0.010327	0.018210	-0.169678	0.085449	-0.432617	0.932877	-0.083491	-0.333801	-0.106523
07886		6.221492	-0.772142	7.509078	-0.017039	-0.009152	0.021648	-0.177002	0.079102	-0.433350	0.932880	-0.083662	-0.333784	-0.106414
07887		6.207294	-0.833527	7.497153	-0.014128	-0.007320	0.015876	-0.167969	0.089111	-0.434082	0.932865	-0.083738	-0.333825	-0.106353
07888		6.210246	-0.774462	7.501184	-0.008070	-0.003884	0.012434	-0.170898	0.083252	-0.433594	0.932888	-0.083832	-0.333759	-0.106285
07889		6.200665	-0.804012	7.501596	-0.008334	-0.009422	0.009116	-0.170898	0.087891	-0.435791	0.932884	-0.083875	-0.333771	-0.106246
07890		6.232218	-0.817592	7.499538	-0.007711	-0.007398	0.011012	-0.173340	0.081543	-0.432129	0.932891	-0.083950	-0.333755	-0.106184
07891		6.220700	-0.831420	7.479988	-0.005666	-0.005151	0.009610	-0.173096	0.083740	-0.434082	0.932891	-0.083961	-0.333762	-0.106148
07892		6.220748	-0.816475	7.492169	-0.001869	-0.003860	0.008663	-0.170410	0.082275	-0.434814	0.932901	-0.083952	-0.333753	-0.106101
07893		6.216714	-0.770316	7.464641	-0.001453	0.000189	0.010059	-0.169922	0.088623	-0.434814	0.932933	-0.083922	-0.333690	-0.106034
07894		6.207762	-0.798260	7.498528	-0.001610	-0.000245	0.013570	-0.168945	0.088623	-0.432861	0.932967	-0.083958	-0.333616	-0.105943
07895		6.197558	-0.843423	7.487108	-0.000612	0.002108	0.010864	-0.177979	0.079346	-0.429199	0.933005	-0.083982	-0.333525	-0.105880
07896		6.207209	-0.816941	7.486347	0.001442	0.006276	0.007872	-0.168457	0.084473	-0.423340	0.933021	-0.083918	-0.333500	-0.105871
07897		6.206602	-0.817396	7.486801	0.004596	0.001699	0.008211	-0.170410	0.086670	-0.431152	0.933044	-0.083891	-0.333444	-0.105859
07898		6.229075	-0.811404	7.479576	0.001851	0.008404	0.010858	-0.165527	0.085938	-0.430664	0.933093	-0.083881	-0.333326	-0.105806
07899		6.209590	-0.788875	7.500225	0.001285	0.005843	0.011381	-0.166748	0.080811	-0.436035	0.933149	-0.083872	-0.333192	-0.105741
07900		6.213721	-0.776326	7.500360	0.001694	0.007971	0.014366	-0.170166	0.083496	-0.431152	0.933221	-0.083807	-0.333044	-0.105623
07901		6.191701	-0.816316	7.516109	-0.000851	0.004550	0.017117	-0.167725	0.086426	-0.431885	0.933264	-0.083813	-0.332955	-0.105524
07902		6.226711	-0.816154	7.514869	-0.000577	0.003909	0.018444	-0.166260	0.082764	-0.436523	0.933313	-0.083842	-0.332846	-0.105408
07903		6.177524	-0.815540	7.510943	-0.000623	0.006368	0.014432	-0.167969	0.085449	-0.439453	0.933379	-0.083811	-0.332704	-0.105294
07904		6.170876	-0.813969	7.525035	0.001799	0.008941	0.008432	-0.170898	0.080811	-0.435547	0.933447	-0.083757	-0.332552	-0.105215
07905		6.191096	-0.792444	7.498187	0.003278	0.008625	0.007556	-0.166748	0.082520	-0.430664	0.933500	-0.083665	-0.332445	-0.105162
07906		6.174679	-0.834263	7.500620	0.000718	0.003284	0.011897	-0.170410	0.088379	-0.432861	0.933543	-0.083639	-0.332351	-0.105094
07907		6.199225	-0.844075	7.513193	0.000536	0.002974	0.006231	-0.169434	0.081055	-0.426514	0.933570	-0.083642	-0.332280	-0.105075
07908		6.153115	-0.780127	7.513842	0.001742	0.003300	0.004028	-0.165283	0.088623	-0.433105	0.933592	-0.083589	-0.332228	-0.105093
07909		6.146877	-0.761547	7.540070	-0.000522	0.001161	0.006516	-0.180908	0.082031	-0.436523	0.933629	-0.083601	-0.332130	-0.105061
07910		6.167034	-0.801548	7.540167	-0.002298	-0.001724	0.009243	-0.170654	0.086670	-0.436768	0.933619	-0.083582	-0.332173	-0.105025
07911		6.169325	-0.818434	7.559633	-0.003723	-0.008124	0.010553	-0.167236	0.087158	-0.432617	0.933622	-0.083615	-0.332178	-0.104957
07912		6.174295	-0.807281	7.525133	-0.005420	-0.013881	0.010532	-0.169678	0.086670	-0.434570	0.933611	-0.083680	-0.332209	-0.104904
07913		6.163854	-0.755359	7.588234	-0.008146	-0.015396	0.021950	-0.176025	0.088623	-0.432617	0.933601	-0.083790	-0.332255	-0.104765
07914		6.174842	-0.841979	7.541906	-0.007098	-0.025940	0.017692	-0.171631	0.088623	-0.435547	0.933534	-0.083915	-0.332438	-0.104675
07915		6.197155	-0.916927	7.481162	-0.006782	-0.025073	0.010673	-0.178711	0.082031	-0.433594	0.933483	-0.084003	-0.332578	-0.104615
07916		6.194031	-0.773232	7.527687	-0.008782	-0.019627	0.005712	-0.173828	0.083252	-0.439453	0.933421	-0.084044	-0.332743	-0.104615
07917		6.186072	-0.802382	7.526677	-0.009281	-0.020801	0.007059	-0.165283	0.087891	-0.439941	0.933380	-0.084082	-0.332863	-0.104566
07918		6.184631	-0.883020	7.474133	-0.008207	-0.021322	0.001608	-0.165039	0.082031	-0.438721	0.933359	-0.084128	-0.332917	-0.104543
07919		6.199570	-0.778473	7.488694	-0.005865	-0.011623	0.001939	-0.171143	0.083008	-0.433350	0.933368	-0.084104	-0.332907	-0.104513
07920		6.202714	-0.795291	7.507465	-0.005328	-0.010574	0.009756	-0.167969	0.084229	-0.430908	0.933360	-0.084126	-0.332941	-0.104465
07921		6.175689	-0.833506	7.502046	-0.004768	-0.009936	0.010821	-0.168701	0.082031	-0.439209	0.933359	-0.084160	-0.332950	-0.104414
07922		6.191023	-0.838841	7.539631	-0.006447	-0.011847	0.007621	-0.160645	0.076660	-0.440186	0.933362	-0.084157	-0.332964	-0.104346
07923		6.221123	-0.836245	7.517216	-0.002995	-0.011308	0.004518	-0.162354	0.081299	-0.435547	0.933394	-0.084067	-0.332924	-0.104258
07924		6.210197	-0.848982	7.497207	-0.006354	-0.010874	0.001698	-0.168213	0.088623	-0.431396	0.933408	-0.084047	-0.332897	-0.104236
07925		6.223952	-0.711882	7.537857	-0.005946	-0.010672	0.006268	-0.165039	0.092285	-0.431396	0.933399	-0.084111	-0.332909	-0.104224
07926		6.226651	-0.822886	7.558743	-0.007238	-0.016224	0.010810	-0.164795	0.081055	-0.427979	0.933387	-0.084229	-0.332931	-0.104171
07927		6.216573	-0.825487	7.439560	-0.008490	-0.014087	0.009009	-0.165283	0.094971	-0.434082	0.933376	-0.084272	-0.332957	-0.104144
07928		6.201123	-0.803045	7.491030	-0.006227	-0.007696	0.010104	-0.172852	0.090332	-0.433105	0.933391	-0.084383	-0.332907	-0.104088
07929		6.175686	-0.872910	7.493272	-0.004243	-0.004916	0.006293	-0.168945	0.079102	-0.433350	0.933388	-0.084438	-0.332903	-0.104081
07930		6.152470	-0.831447	7.538582	-0.005998	-0.008208	0.002263	-0.169434	0.085449	-0.435059	0.933387	-0.084408	-0.332912	-0.104087
07931		6.163220	-0.821821	7.490527	-0.005029	-0.018209	-0.004429	-0.165039	0.083984	-0.439209	0.933352	-0.084405	-0.332995	-0.104134
07932		6.149036	-0.797748	7.541211	-0.003988	-0.020242	-0.001545	-0.172363	0.087158	-0.433350	0.933336	-0.084376	-0.333053	-0.104118
07933		6.166814	-0.850703	7.539373	-0.002665	-0.025248	-0.002504	-0.173340	0.086426	-0.426758	0.933274	-0.084386	-0.333213	-0.104155
07934		6.172657	-0.887375	7.432542	-0.001041	-0.025130	-0.006890	-0.165527	0.088623	-0.430420	0.933196	-0.084386	-0.333399	-0.104258
07935		6.205112	-0.832705	7.480012	0.000467	-0.017757	-0.014103	-0.176270	0.079590	-0.431396	0.933162	-0.084349	-0.333464	-0.104380
07936		6.231506	-0.774922	7.541368	0.001387	-0.014458	-0.012465	-0.172363	0.088623	-0.433594	0.933113	-0.084241	-0.333590	-0.104503
07937		6.217958	-0.766426	7.579145	-0.006311	-0.028013	-0.003489	-0.167969	0.086670	-0.432861	0.933041	-0.084290	-0.333762	-0.104555
07938		6.228947	-0.900236	7.460730	-0.005337	-0.031428	-0.001443	-0.170410	0.084717	-0.426514	0.932975	-0.084325	-0.333931	-0.104576
07939		6.200952	-0.828049	7.398957	-0.001154	-0.017872	-0.009732	-0.174316	0.088867	-0.432617	0.932926	-0.084297	-0.334038	-0.104695
07940		6.224196	-0.816580	7.468148	-0.003529	-0.012756	-0.010072	-0.171143	0.088867	-0.422852	0.932887	-0.084299	-0.334110	-0.104810
07941		6.229547	-0.830750	7.519469	-0.004018	-0.012009	-0.010308	-0.169678	0.083252	-0.433105	0.932843	-0.084330	-0.334175	-0.104971
07942		6.205521	-0.756001	7.556832	-0.002769	-0.017990	-0.005354	-0.179443	0.087158	-0.428955	0.932811	-0.084296	-0.334258	-0.105023
07943		6.199254	-0.864694	7.491830	-0.001386	-0.029708	-0.005917	-0.172607	0.080322	-0.427734	0.932710	-0.084308	-0.334506	-0.105115
07944		6.176252	-0.850842	7.555323	-0.000828	-0.033322	-0.008447	-0.184326	0.083252	-0.423828	0.932619	-0.084258	-0.334746	-0.105200
07945		6.218338	-0.945536	7.472826	0.000280	-0.044800	-0.017099	-0.174072	0.086670	-0.428955	0.932448	-0.084227	-0.335169	-0.105391
07946		6.230817	-0.965465	7.364134	0.008653	-0.030570	-0.035281	-0.179199	0.079102	-0.442627	0.932345	-0.084073	-0.335409	-0.105668
07947		6.276847	-0.674821	7.451132	0.010641	-0.013518	-0.036657	-0.177490	0.089600	-0.431152	0.932301	-0.083788	-0.335533	-0.105882
07948		6.218772	-0.691347	7.525587	0.007206	-0.019422	-0.022049	-0.177246	0.088623	-0.426270	0.932233	-0.083694	-0.335687	-0.106073
07949		6.264301	-0.750199	7.568022	-0.000513	-0.032039	-0.008728	-0.173340	0.080566	-0.429932	0.932129	-0.083716	-0.335931	-0.106196
07950		6.275337	-0.850533	7.474584	-0.003455	-0.037173	-0.002225	-0.183838	0.085205	-0.433105	0.932036	-0.083707	-0.336183	-0.106220
07951		6.274872	-0.872613	7.282324	0.002786	-0.014223	-0.015816	-0.175537	0.087891	-0.432129	0.931974	-0.083623	-0.336330	-0.106367
07952		6.242552	-0.837643	7.375518	0.008186	0.017234	-0.024600	-0.174805	0.085938	-0.422607	0.932017	-0.083465	-0.336181	-0.106586
07953		6.235320	-0.732163	7.500465	0.012678	0.027690	-0.027571	-0.180908	0.088379	-0.440918	0.932076	-0.083269	-0.335977	-0.106865
07954		6.269276	-0.595428	7.634755	-0.000716	0.005801	-0.017409	-0.176025	0.079346	-0.421387	0.932084	-0.083194	-0.335924	-0.107017
07955		6.224773	-0.735009	7.626387	-0.005880	-0.030714	0.008561	-0.171387	0.080078	-0.433594	0.931997	-0.083249	-0.336154	-0.107011
07956		6.207684	-0.879440	7.417173	-0.012261	-0.042976	0.009406	-0.179199	0.084229	-0.437500	0.931905	-0.083333	-0.336412	-0.106940
07957		6.243696	-0.912284	7.321083	0.000694	-0.015519	-0.010082	-0.176758	0.080566	-0.437012	0.931864	-0.083263	-0.336519	-0.107014
07958		6.231656	-0.709367	7.499821	0.004191	-0.001651	-0.015089	-0.176758	0.087402	-0.435547	0.931869	-0.083110	-0.336514	-0.107109
07959		6.224225	-0.718030	7.545698	0.002314	-0.014991	-0.007717	-0.179932	0.086914	-0.426270	0.931834	-0.083065	-0.336597	-0.107179
07960		6.250668	-0.759887	7.497248	-0.001600	-0.026731	-0.002108	-0.168213	0.089355	-0.431396	0.931746	-0.083101	-0.336807	-0.107260
07961		6.276035	-0.819303	7.402745	-0.000618	-0.026299	-0.003230	-0.176758	0.088867	-0.435303	0.931698	-0.083126	-0.336916	-0.107311
07962		6.256715	-0.861757	7.305111	0.003696	-0.002827	-0.013746	-0.179688	0.085449	-0.425537	0.931694	-0.083055	-0.336905	-0.107440
07963		6.214651	-0.694366	7.481667	0.008500	0.019901	-0.024033	-0.169434	0.083740	-0.433105	0.931726	-0.082899	-0.336777	-0.107688
07964		6.239682	-0.634436	7.578458	0.005524	0.003772	-0.010452	-0.178223	0.082031	-0.430176	0.931762	-0.082782	-0.336677	-0.107772
07965		6.273481	-0.677297	7.583539	-0.002854	-0.016099	0.003310	-0.177002	0.087402	-0.430664	0.931723	-0.082784	-0.336785	-0.107778
07966		6.280658	-0.857121	7.473682	-0.003391	-0.030594	0.006539	-0.179932	0.077637	-0.431885	0.931645	-0.082854	-0.336983	-0.107770
07967		6.276452	-0.925339	7.289727	0.003918	-0.012943	-0.013706	-0.176514	0.082520	-0.432129	0.931606	-0.082713	-0.337098	-0.107863
07968		6.266814	-0.756346	7.398357	0.021744	0.021333	-0.028427	-0.172363	0.084473	-0.428467	0.931668	-0.082400	-0.336939	-0.108061
07969		6.300873	-0.698847	7.470084	0.019840	0.031868	-0.026504	-0.168213	0.084229	-0.429932	0.931763	-0.082125	-0.336672	-0.108281
07970		6.247780	-0.642451	7.508283	0.018504	0.036870	-0.025538	-0.171143	0.085693	-0.434570	0.931885	-0.081854	-0.336335	-0.108489
07971		6.197473	-0.790559	7.570507	0.009433	0.017846	-0.010902	-0.171631	0.083984	-0.436523	0.931957	-0.081713	-0.336137	-0.108588
07972		6.248146	-0.832855	7.392686	-0.002335	0.006079	-0.006258	-0.177979	0.080566	-0.439941	0.931995	-0.081670	-0.336019	-0.108660
07973		6.235153	-0.701200	7.443857	-0.006787	0.023204	-0.002731	-0.179932	0.082764	-0.425537	0.932071	-0.081621	-0.335805	-0.108705
07974		6.237514	-0.667670	7.569483	-0.012101	0.019737	0.013401	-0.181152	0.081543	-0.426025	0.932119	-0.081720	-0.335644	-0.108717
07975		6.249934	-0.549617	7.632069	-0.023917	0.001640	0.035486	-0.172119	0.085205	-0.428711	0.932126	-0.081978	-0.335608	-0.108572
07976		6.285484	-0.622776	7.545128	-0.038881	-0.019569	0.063578	-0.169434	0.077637	-0.437012	0.932114	-0.082467	-0.335631	-0.108232
07977		6.299763	-1.006751	7.380584	-0.040351	-0.015406	0.061266	-0.171875	0.086914	-0.435303	0.932136	-0.082868	-0.335599	-0.107832
07978		6.269084	-0.926838	7.366341	-0.023259	0.011762	0.037792	-0.177979	0.078857	-0.431641	0.932210	-0.083123	-0.335393	-0.107641
07979		6.229321	-0.743374	7.444648	-0.016314	0.030431	0.033264	-0.177490	0.094238	-0.432861	0.932320	-0.083241	-0.335116	-0.107461
07980		6.181227	-0.581810	7.668598	-0.015380	0.014502	0.050692	-0.175537	0.086914	-0.432617	0.932393	-0.083531	-0.334922	-0.107203
07981		6.206278	-0.900816	7.595154	-0.022189	-0.017180	0.062725	-0.171631	0.086426	-0.425781	0.932393	-0.083877	-0.334961	-0.106811
07982		6.260066	-0.984795	7.388188	-0.015821	-0.019988	0.045890	-0.161377	0.092773	-0.437256	0.932375	-0.084139	-0.335028	-0.106553
07983		6.184381	-0.913447	7.389909	-0.003817	0.004708	0.022400	-0.171631	0.085449	-0.431641	0.932452	-0.084238	-0.334826	-0.106434
07984		6.194500	-0.789748	7.498822	0.000467	0.011013	0.016945	-0.171875	0.082520	-0.435059	0.932516	-0.084239	-0.334677	-0.106343
07985		6.200292	-0.760985	7.544428	0.000672	0.003217	0.022158	-0.165039	0.089355	-0.434814	0.932569	-0.084228	-0.334587	-0.106176
07986		6.184673	-0.820786	7.533294	-0.002081	-0.006268	0.023961	-0.176025	0.088867	-0.433594	0.932606	-0.084306	-0.334509	-0.106027
07987		6.247732	-0.802277	7.488920	-0.001103	-0.011607	0.027572	-0.167969	0.089355	-0.422119	0.932604	-0.084390	-0.334550	-0.105853
07988		6.213070	-0.936870	7.388507	0.002288	0.005262	0.016189	-0.170898	0.084229	-0.430420	0.932643	-0.084434	-0.334440	-0.105818
07989		6.190497	-0.800412	7.466834	0.007924	0.020421	0.005478	-0.177490	0.080811	-0.436035	0.932728	-0.084330	-0.334236	-0.105801
07990		6.173623	-0.742572	7.579868	0.007071	0.014662	0.007816	-0.169922	0.090576	-0.430420	0.932792	-0.084203	-0.334114	-0.105725
07991		6.196061	-0.785319	7.534426	0.005568	0.001118	0.012982	-0.169189	0.083008	-0.427734	0.932824	-0.084206	-0.334037	-0.105677
07992		6.240327	-0.741537	7.511107	0.001978	-0.004107	0.015996	-0.174805	0.082520	-0.438965	0.932845	-0.084198	-0.334010	-0.105584
07993		6.206993	-0.842107	7.469230	0.000456	0.002924	0.016484	-0.170654	0.085205	-0.427246	0.932888	-0.084164	-0.333942	-0.105448
07994		6.180680	-0.785257	7.496160	0.003972	0.006767	0.012633	-0.165283	0.086670	-0.434082	0.932931	-0.084140	-0.333843	-0.105397
07995		6.137759	-0.862850	7.527013	0.001780	0.001765	0.012354	-0.166748	0.089355	-0.433594	0.932981	-0.084131	-0.333728	-0.105330
07996		6.192521	-0.808026	7.489848	0.000008	-0.001520	0.008321	-0.164795	0.082520	-0.434814	0.933010	-0.084149	-0.333648	-0.105313
07997		6.192274	-0.776172	7.515323	0.001067	0.000290	0.008042	-0.171875	0.086670	-0.432861	0.933055	-0.084101	-0.333551	-0.105256
07998		6.176461	-0.817998	7.517089	0.000854	-0.001529	0.010707	-0.160889	0.084229	-0.434326	0.933075	-0.084101	-0.333511	-0.105208
07999		6.181790	-0.821618	7.503639	0.000085	-0.000138	0.009154	-0.170654	0.091553	-0.431396	0.933126	-0.084079	-0.333389	-0.105155
08000		6.196498	-0.875117	7.503932	0.002254	-0.001308	0.007414	-0.171387	0.084229	-0.433838	0.933142	-0.084098	-0.333339	-0.105160
08001		6.204680	-0.799859	7.508442	0.000928	0.003295	0.001645	-0.166504	0.079834	-0.433105	0.933171	-0.084047	-0.333269	-0.105170
08002		6.178788	-0.677019	7.585886	-0.001051	-0.003328	0.008597	-0.168213	0.087402	-0.434082	0.933199	-0.084006	-0.333219	-0.105109
08003		6.178881	-0.853984	7.523498	-0.002957	-0.010492	0.017958	-0.163330	0.084717	-0.428467	0.933206	-0.084066	-0.333215	-0.105008
08004		6.170627	-0.838562	7.483257	-0.003232	-0.007925	0.015060	-0.176758	0.078613	-0.427734	0.933224	-0.084112	-0.333176	-0.104941
08005		6.175392	-0.855172	7.534904	-0.001349	-0.010374	0.013574	-0.171387	0.088135	-0.428711	0.933205	-0.084096	-0.333259	-0.104854
08006		6.157037	-0.850009	7.508301	-0.001940	-0.015257	0.008914	-0.166260	0.082520	-0.431885	0.933177	-0.084145	-0.333329	-0.104845
08007		6.187206	-0.798476	7.523551	-0.002506	-0.015890	0.007847	-0.169189	0.085449	-0.432617	0.933166	-0.084146	-0.333374	-0.104801
08008		6.173499	-0.840200	7.523551	-0.000775	-0.019181	0.003116	-0.171875	0.086670	-0.445312	0.933135	-0.084144	-0.333461	-0.104799
08009		6.222384	-0.909340	7.441739	-0.002315	-0.016396	0.000014	-0.172363	0.085205	-0.430664	0.933119	-0.084120	-0.333517	-0.104783
08010		6.194564	-0.706088	7.516164	0.000935	-0.013434	0.003161	-0.169678	0.087646	-0.435791	0.933095	-0.084103	-0.333585	-0.104788
08011		6.202318	-0.786540	7.548858	-0.002199	-0.016130	0.015901	-0.171143	0.082275	-0.436279	0.933086	-0.084153	-0.333631	-0.104691
08012		6.186961	-0.879182	7.477594	-0.004760	-0.023787	0.015037	-0.166992	0.085938	-0.443115	0.933053	-0.084186	-0.333751	-0.104575
08013		6.186102	-0.909929	7.495925	0.001285	-0.018464	0.010026	-0.168457	0.082275	-0.432861	0.933052	-0.084164	-0.333791	-0.104472
08014		6.221849	-0.893214	7.472134	-0.000615	-0.014493	0.003202	-0.169189	0.073975	-0.440430	0.933039	-0.084132	-0.333839	-0.104455
08015		6.222441	-0.751422	7.474437	0.002076	-0.008321	0.002138	-0.170166	0.082275	-0.435547	0.933059	-0.083994	-0.333845	-0.104375
08016		6.212506	-0.762638	7.487869	0.001413	-0.003222	0.006592	-0.161133	0.090332	-0.432129	0.933082	-0.083940	-0.333810	-0.104323
08017		6.216851	-0.843262	7.489085	0.002470	-0.003336	0.007886	-0.168213	0.085938	-0.434082	0.933118	-0.083947	-0.333714	-0.104299
08018		6.206603	-0.821961	7.528274	0.000200	-0.003948	0.002055	-0.171631	0.086914	-0.430664	0.933135	-0.083921	-0.333672	-0.104307
08019		6.181995	-0.845650	7.490451	-0.001349	-0.005008	0.002103	-0.167236	0.086426	-0.429932	0.933133	-0.083924	-0.333665	-0.104340
08020		6.205704	-0.773854	7.532958	0.001154	-0.003925	-0.005797	-0.174072	0.087158	-0.434570	0.933140	-0.083882	-0.333631	-0.104425
08021		6.198989	-0.771611	7.513225	-0.002482	-0.004353	-0.001598	-0.168945	0.087402	-0.436523	0.933135	-0.083876	-0.333628	-0.104478
08022		6.160812	-0.834936	7.509753	0.000992	-0.008610	-0.005897	-0.168945	0.087402	-0.434570	0.933133	-0.083831	-0.333627	-0.104541
08023		6.197776	-0.832494	7.506639	-0.000839	-0.009026	-0.007167	-0.174316	0.091553	-0.429199	0.933124	-0.083802	-0.333632	-0.104627
08024		6.163265	-0.817293	7.520646	0.000708	-0.009888	-0.005645	-0.165527	0.083008	-0.434814	0.933093	-0.083808	-0.333682	-0.104739
08025		6.201523	-0.786263	7.464289	0.000710	-0.007965	-0.007217	-0.167725	0.088135	-0.433105	0.933099	-0.083736	-0.333664	-0.104802
08026		6.194083	-0.811981	7.497378	0.002257	-0.008827	-0.005695	-0.170898	0.084961	-0.434570	0.933094	-0.083696	-0.333663	-0.104878
08027		6.204541	-0.861164	7.510236	0.003805	-0.007767	-0.005744	-0.170166	0.087646	-0.440918	0.933090	-0.083618	-0.333677	-0.104934
08028		6.211988	-0.801425	7.468519	0.003729	-0.005304	-0.009724	-0.172607	0.087402	-0.439209	0.933098	-0.083532	-0.333653	-0.105009
08029		6.207199	-0.781276	7.494372	0.002781	-0.001483	-0.005013	-0.169189	0.077393	-0.439697	0.933112	-0.083466	-0.333614	-0.105059
08030		6.202069	-0.761775	7.520437	0.003868	-0.001193	0.003021	-0.171875	0.084717	-0.428467	0.933148	-0.083345	-0.333561	-0.105003
08031		6.199040	-0.807300	7.528054	0.001546	-0.002783	0.003094	-0.166016	0.086914	-0.431152	0.933153	-0.083320	-0.333547	-0.105026
08032		6.204870	-0.826383	7.501452	0.000614	-0.006077	0.001447	-0.168213	0.083984	-0.438232	0.933162	-0.083309	-0.333513	-0.105056
08033		6.194881	-0.821435	7.527711	-0.001187	-0.004167	0.005346	-0.167725	0.087646	-0.427002	0.933185	-0.083286	-0.333464	-0.105025
08034		6.222086	-0.754513	7.523751	-0.006734	-0.010236	0.010586	-0.167969	0.085938	-0.429443	0.933176	-0.083376	-0.333468	-0.105021
08035		6.212639	-0.800204	7.511112	-0.005028	-0.010257	0.015350	-0.171875	0.081543	-0.430908	0.933176	-0.083448	-0.333470	-0.104960
08036		6.183113	-0.806837	7.498946	-0.006289	-0.008117	0.013573	-0.171875	0.086182	-0.435303	0.933175	-0.083490	-0.333483	-0.104897
08037		6.173206	-0.852306	7.486673	-0.004329	-0.005342	0.009774	-0.170410	0.085449	-0.445312	0.933183	-0.083525	-0.333463	-0.104861
08038		6.202309	-0.800997	7.502777	-0.003225	-0.006400	0.006734	-0.170898	0.081787	-0.435547	0.933203	-0.083515	-0.333428	-0.104803
08039		6.203137	-0.786123	7.514723	-0.004615	-0.008541	0.011595	-0.168701	0.080566	-0.438965	0.933208	-0.083530	-0.333432	-0.104733
08040		6.186256	-0.829485	7.482878	-0.005264	-0.010556	0.009693	-0.170654	0.084717	-0.433105	0.933215	-0.083531	-0.333434	-0.104660
08041		6.187220	-0.814554	7.494723	-0.000048	-0.006745	0.010609	-0.175537	0.082275	-0.426514	0.933223	-0.083531	-0.333428	-0.104606
08042		6.182662	-0.796558	7.520231	-0.001187	-0.006089	0.006910	-0.161621	0.082764	-0.430664	0.933211	-0.083528	-0.333464	-0.104605
08043		6.213941	-0.809912	7.517747	-0.007709	-0.008736	0.010120	-0.172363	0.087646	-0.435791	0.933226	-0.083580	-0.333419	-0.104571
08044		6.224464	-0.861921	7.530151	-0.003512	-0.013443	0.011688	-0.173584	0.086426	-0.431641	0.933213	-0.083628	-0.333463	-0.104515
08045		6.212691	-0.749854	7.500845	-0.005388	-0.012913	0.014749	-0.174561	0.086670	-0.437012	0.933194	-0.083700	-0.333515	-0.104453
08046		6.189434	-0.852257	7.509788	-0.005509	-0.011429	0.016672	-0.169922	0.082764	-0.432861	0.933187	-0.083766	-0.333549	-0.104358
08047		6.211629	-0.848815	7.467762	-0.005100	-0.009713	0.012925	-0.177490	0.080566	-0.435303	0.933188	-0.083800	-0.333559	-0.104290
08048		6.220126	-0.839927	7.420875	-0.000202	0.007215	0.007450	-0.167725	0.083008	-0.435791	0.933222	-0.083747	-0.333489	-0.104250
08049		6.233319	-0.827968	7.473448	0.004042	0.016362	0.004776	-0.170410	0.085449	-0.430664	0.933304	-0.083659	-0.333291	-0.104225
08050		6.198975	-0.840890	7.608358	-0.001261	0.007331	0.006156	-0.174805	0.083740	-0.437500	0.933343	-0.083653	-0.333180	-0.104230
08051		6.192654	-0.795070	7.548778	-0.005750	-0.004036	0.004751	-0.174561	0.083740	-0.429199	0.933346	-0.083662	-0.333172	-0.104221
08052		6.183794	-0.794889	7.496255	-0.005628	-0.005521	0.002826	-0.170166	0.089355	-0.434570	0.933333	-0.083684	-0.333191	-0.104260
08053		6.200486	-0.722916	7.519302	-0.007831	-0.005325	0.010468	-0.171631	0.090088	-0.434082	0.933340	-0.083768	-0.333157	-0.104242
08054		6.178608	-0.857024	7.535717	-0.007712	-0.010654	0.011676	-0.162109	0.089111	-0.430664	0.933328	-0.083865	-0.333172	-0.104218
08055		6.179373	-0.956141	7.457841	-0.002290	-0.010218	0.002011	-0.166992	0.084717	-0.432129	0.933331	-0.083893	-0.333145	-0.104258
08056		6.194523	-0.867109	7.460787	0.000158	-0.006271	-0.003121	-0.171143	0.081299	-0.432861	0.933335	-0.083852	-0.333127	-0.104312
08057		6.227242	-0.768548	7.469313	-0.001185	-0.003587	-0.007294	-0.173096	0.079346	-0.433105	0.933336	-0.083785	-0.333118	-0.104389
08058		6.201332	-0.771346	7.523265	-0.000776	-0.002451	0.001591	-0.167969	0.086182	-0.422363	0.933344	-0.083726	-0.333109	-0.104389
08059		6.208307	-0.822538	7.504251	-0.002075	0.004478	0.001017	-0.172363	0.085205	-0.438477	0.933365	-0.083737	-0.333023	-0.104471
08060		6.179031	-0.826035	7.526567	0.002981	0.009366	-0.002872	-0.172119	0.088623	-0.435303	0.933410	-0.083652	-0.332906	-0.104507
08061		6.162341	-0.866279	7.529096	0.001958	0.002773	-0.003792	-0.176270	0.089111	-0.429443	0.933430	-0.083607	-0.332840	-0.104577
08062		6.162307	-0.865411	7.529224	0.002689	-0.000943	-0.007416	-0.163818	0.084717	-0.431885	0.933420	-0.083567	-0.332840	-0.104699
08063		6.184027	-0.793424	7.539346	0.002036	-0.002956	-0.009317	-0.167969	0.081055	-0.437988	0.933434	-0.083494	-0.332785	-0.104800
08064		6.195324	-0.749235	7.550465	-0.000736	-0.005316	-0.001171	-0.159180	0.085938	-0.429688	0.933448	-0.083432	-0.332760	-0.104806
08065		6.191026	-0.795811	7.524527	-0.003634	-0.013302	0.002538	-0.168945	0.086914	-0.432861	0.933447	-0.083459	-0.332747	-0.104835
08066		6.176744	-0.837410	7.524948	-0.003145	-0.014050	0.002764	-0.171387	0.083252	-0.436035	0.933427	-0.083483	-0.332791	-0.104858
08067		6.178480	-0.821693	7.536311	-0.002655	-0.012876	0.001423	-0.170898	0.091064	-0.431641	0.933410	-0.083467	-0.332841	-0.104863
08068		6.183232	-0.825561	7.488820	-0.003429	-0.013405	0.001446	-0.172363	0.083252	-0.435791	0.933382	-0.083518	-0.332887	-0.104922
08069		6.207812	-0.819725	7.479392	-0.001511	-0.009689	0.001983	-0.176025	0.091553	-0.426025	0.933373	-0.083493	-0.332919	-0.104923
08070		6.213930	-0.822589	7.465219	0.000895	-0.004800	0.001181	-0.171143	0.077637	-0.433105	0.933354	-0.083516	-0.332941	-0.105004
08071		6.209277	-0.803867	7.490991	-0.001263	-0.003625	0.002930	-0.172607	0.091064	-0.436768	0.933365	-0.083457	-0.332930	-0.104985
08072		6.201055	-0.814840	7.537477	-0.001504	-0.000658	0.006782	-0.173828	0.088867	-0.433594	0.933382	-0.083485	-0.332876	-0.104989
08073		6.183323	-0.824750	7.532004	-0.003707	-0.003727	0.004929	-0.166016	0.089111	-0.434570	0.933381	-0.083521	-0.332861	-0.105013
08074		6.171193	-0.853424	7.499959	-0.002978	-0.007443	0.001302	-0.173828	0.084229	-0.435059	0.933385	-0.083544	-0.332830	-0.105058
08075		6.200622	-0.801336	7.516035	-0.001346	-0.005006	0.002091	-0.176514	0.085693	-0.435303	0.933384	-0.083522	-0.332833	-0.105069
08076		6.165579	-0.803833	7.517731	-0.004767	-0.007456	0.006768	-0.168457	0.081543	-0.435791	0.933373	-0.083550	-0.332863	-0.105058
08077		6.163265	-0.850394	7.524464	-0.001143	-0.010876	0.005697	-0.174805	0.091064	-0.439453	0.933373	-0.083523	-0.332881	-0.105020
08078		6.187938	-0.844719	7.514928	-0.001881	-0.014269	0.002956	-0.168457	0.089355	-0.427734	0.933347	-0.083549	-0.332942	-0.105037
08079		6.187669	-0.829424	7.493537	-0.001273	-0.014578	-0.000311	-0.170166	0.086670	-0.442627	0.933317	-0.083576	-0.332995	-0.105112
08080		6.205629	-0.756234	7.515761	-0.002166	-0.013623	0.001639	-0.174316	0.086914	-0.437500	0.933308	-0.083567	-0.333025	-0.105109
08081		6.198422	-0.815932	7.522814	-0.000938	-0.010979	0.004605	-0.172119	0.085205	-0.437012	0.933294	-0.083565	-0.333067	-0.105099
08082		6.174380	-0.823374	7.497262	0.000039	-0.010554	0.003491	-0.165771	0.087891	-0.430420	0.933286	-0.083543	-0.333097	-0.105090
08083		6.177567	-0.839298	7.516187	-0.001512	-0.007765	0.000411	-0.165039	0.092285	-0.434326	0.933286	-0.083554	-0.333076	-0.105149
08084		6.168486	-0.834056	7.541942	-0.000785	-0.013403	-0.001654	-0.168701	0.083252	-0.431152	0.933272	-0.083578	-0.333084	-0.105225
08085		6.196664	-0.798260	7.511745	0.001169	-0.014475	-0.002318	-0.170654	0.089844	-0.436768	0.933250	-0.083535	-0.333143	-0.105268
08086		6.175494	-0.788079	7.531300	0.001054	-0.014914	0.001172	-0.167236	0.083252	-0.427734	0.933230	-0.083532	-0.333193	-0.105296
08087		6.207796	-0.816660	7.515001	-0.000896	-0.017686	0.004961	-0.164551	0.090088	-0.432861	0.933203	-0.083536	-0.333267	-0.105298
08088		6.192168	-0.826244	7.507856	-0.002327	-0.020226	0.003080	-0.171631	0.081787	-0.440674	0.933174	-0.083581	-0.333325	-0.105334
08089		6.197862	-0.797729	7.485229	-0.003791	-0.019902	0.003967	-0.170654	0.080566	-0.424805	0.933146	-0.083572	-0.333417	-0.105300
08090		6.209841	-0.815994	7.522246	-0.002413	-0.019683	0.000673	-0.163086	0.091553	-0.436035	0.933100	-0.083565	-0.333535	-0.105334
08091		6.227869	-0.808233	7.492732	-0.001666	-0.018214	0.004976	-0.178223	0.084717	-0.436035	0.933086	-0.083611	-0.333559	-0.105351
08092		6.211925	-0.817432	7.485893	-0.001158	-0.014135	-0.003818	-0.173340	0.088867	-0.427734	0.933049	-0.083579	-0.333655	-0.105399
08093		6.204576	-0.734229	7.496720	0.002024	-0.010642	-0.003079	-0.175781	0.091309	-0.432617	0.933023	-0.083564	-0.333706	-0.105483
08094		6.209892	-0.798064	7.509712	-0.001502	-0.011609	0.003529	-0.178955	0.085449	-0.435303	0.932997	-0.083600	-0.333757	-0.105521
08095		6.188064	-0.837657	7.491007	-0.002557	-0.015336	0.005363	-0.172607	0.083984	-0.432129	0.932961	-0.083610	-0.333858	-0.105505
08096		6.212996	-0.815899	7.494039	-0.002476	-0.012033	0.004641	-0.169434	0.084961	-0.432373	0.932945	-0.083615	-0.333904	-0.105504
08097		6.217636	-0.787424	7.472246	-0.002475	-0.012033	0.004640	-0.174561	0.078613	-0.433350	0.932934	-0.083626	-0.333930	-0.105511
08098		6.226229	-0.806568	7.477492	-0.000752	-0.010140	0.007830	-0.173584	0.091309	-0.437256	0.932927	-0.083589	-0.333977	-0.105449
08099		6.211501	-0.816132	7.504136	-0.003509	-0.006733	0.011291	-0.174072	0.083496	-0.433838	0.932930	-0.083650	-0.333961	-0.105424
08100		6.194927	-0.777709	7.536574	-0.002904	-0.008964	0.009584	-0.168213	0.078125	-0.436768	0.932925	-0.083662	-0.333985	-0.105380
08101		6.223832	-0.808192	7.488185	-0.006206	-0.009050	0.009211	-0.168701	0.083008	-0.436768	0.932936	-0.083663	-0.333976	-0.105314
08102		6.188950	-0.827722	7.476900	-0.005517	-0.009901	0.008345	-0.177734	0.080322	-0.434570	0.932940	-0.083686	-0.333971	-0.105277
08103		6.208037	-0.820142	7.480938	-0.003279	-0.009698	0.007428	-0.178467	0.085693	-0.430908	0.932927	-0.083674	-0.334026	-0.105230
08104		6.193492	-0.829507	7.507475	-0.003369	-0.009155	0.005027	-0.164062	0.085938	-0.440430	0.932904	-0.083695	-0.334080	-0.105241
08105		6.210516	-0.789619	7.504615	-0.001154	-0.008011	0.008440	-0.166016	0.087891	-0.427734	0.932928	-0.083694	-0.334027	-0.105195
08106		6.202895	-0.833509	7.524887	-0.000664	-0.008760	0.008662	-0.177490	0.077148	-0.430664	0.932931	-0.083726	-0.334010	-0.105198
08107		6.219314	-0.842329	7.483591	-0.000266	-0.008966	0.006484	-0.175537	0.086670	-0.428467	0.932919	-0.083676	-0.334072	-0.105146
08108		6.202696	-0.819255	7.503274	-0.000072	-0.007147	0.003836	-0.163330	0.086670	-0.429443	0.932906	-0.083677	-0.334100	-0.105174
08109		6.203975	-0.787101	7.528151	-0.000072	-0.007146	0.003835	-0.169189	0.074463	-0.431396	0.932918	-0.083680	-0.334058	-0.105203
08110		6.210005	-0.790335	7.513892	-0.000754	-0.008217	0.006260	-0.175781	0.082275	-0.428467	0.932926	-0.083617	-0.334070	-0.105140
08111		6.198368	-0.802550	7.494265	-0.001014	-0.012355	0.003736	-0.161621	0.085449	-0.433350	0.932899	-0.083604	-0.334146	-0.105145
08112		6.217602	-0.794115	7.498270	0.000709	-0.008541	0.005367	-0.168945	0.084473	-0.437256	0.932918	-0.083592	-0.334100	-0.105138
08113		6.225103	-0.845332	7.478437	-0.001346	-0.003080	0.000520	-0.168213	0.079346	-0.425537	0.932936	-0.083563	-0.334049	-0.105158
08114		6.216003	-0.794795	7.464952	0.004759	0.001682	-0.002081	-0.167725	0.082275	-0.425049	0.932961	-0.083467	-0.333991	-0.105198
08115		6.209987	-0.803855	7.544707	0.002319	0.003504	-0.001634	-0.172852	0.076416	-0.438232	0.932988	-0.083408	-0.333912	-0.105260
08116		6.215075	-0.790095	7.544290	-0.000688	0.000852	0.000866	-0.172607	0.094727	-0.428711	0.933016	-0.083322	-0.333864	-0.105232
08117		6.200559	-0.753709	7.531447	-0.001259	-0.001701	0.001361	-0.163818	0.083984	-0.430420	0.933015	-0.083371	-0.333821	-0.105332
08118		6.195381	-0.784322	7.518881	-0.003683	-0.005644	0.006483	-0.175293	0.083008	-0.431396	0.933032	-0.083391	-0.333769	-0.105333
08119		6.199729	-0.869166	7.440968	-0.000392	-0.001716	0.003735	-0.176025	0.081787	-0.435791	0.933039	-0.083364	-0.333755	-0.105340
08120		6.207775	-0.822555	7.498711	0.000658	0.003932	0.000346	-0.166016	0.087158	-0.444092	0.933064	-0.083299	-0.333698	-0.105352
08121		6.174594	-0.790855	7.559870	0.001840	0.000409	0.001260	-0.168945	0.085693	-0.433105	0.933106	-0.083250	-0.333593	-0.105352
08122		6.201669	-0.864843	7.552466	-0.003559	-0.006144	-0.001333	-0.175781	0.079102	-0.432373	0.933106	-0.083252	-0.333573	-0.105413
08123		6.190854	-0.831600	7.492728	-0.001205	-0.009346	-0.002622	-0.164551	0.090576	-0.431885	0.933087	-0.083197	-0.333629	-0.105443
08124		6.213471	-0.776890	7.489157	-0.002363	-0.008685	-0.006307	-0.167969	0.090088	-0.433594	0.933081	-0.083210	-0.333604	-0.105568
08125		6.212410	-0.744853	7.481411	-0.000367	-0.004578	0.000964	-0.170654	0.081299	-0.431396	0.933090	-0.083218	-0.333559	-0.105625
08126		6.185654	-0.829363	7.471638	-0.000198	0.000103	0.001089	-0.168701	0.084229	-0.432129	0.933109	-0.083173	-0.333510	-0.105646
08127		6.213512	-0.821681	7.528634	0.001946	0.000849	-0.002228	-0.170166	0.081055	-0.439453	0.933131	-0.083118	-0.333444	-0.105700
08128		6.204711	-0.754962	7.527901	-0.001147	-0.003183	-0.000569	-0.175049	0.089111	-0.429199	0.933149	-0.083063	-0.333406	-0.105707
08129		6.208189	-0.755351	7.559574	-0.010046	-0.014544	0.006560	-0.174072	0.075928	-0.429932	0.933110	-0.083172	-0.333475	-0.105751
08130		6.201531	-0.820064	7.487445	-0.006632	-0.015942	0.004995	-0.164795	0.087402	-0.438965	0.933078	-0.083173	-0.333572	-0.105724
08131		6.213765	-0.810386	7.471718	-0.007127	-0.013270	0.003215	-0.168457	0.086426	-0.431885	0.933074	-0.083222	-0.333566	-0.105744
08132		6.211987	-0.828472	7.425364	-0.004862	-0.002122	0.005569	-0.170166	0.090820	-0.431641	0.933089	-0.083257	-0.333506	-0.105767
08133		6.204842	-0.774536	7.523423	-0.002353	0.003202	0.001291	-0.167480	0.090332	-0.435791	0.933111	-0.083281	-0.333414	-0.105843
08134		6.185187	-0.748697	7.589591	-0.007144	-0.012332	0.007541	-0.172852	0.091309	-0.428467	0.933102	-0.083363	-0.333414	-0.105858
08135		6.214971	-0.796229	7.527086	-0.013490	-0.026996	0.012280	-0.172852	0.095459	-0.441650	0.933034	-0.083538	-0.333558	-0.105870
08136		6.232440	-0.855599	7.445434	-0.010199	-0.023067	0.009530	-0.168457	0.086914	-0.434570	0.932989	-0.083675	-0.333648	-0.105878
08137		6.213103	-0.882906	7.393541	-0.004179	-0.001051	0.003145	-0.174805	0.082520	-0.432617	0.933008	-0.083694	-0.333576	-0.105913
08138		6.203307	-0.845268	7.446260	0.001250	0.003623	-0.002915	-0.165771	0.086914	-0.434082	0.933028	-0.083625	-0.333522	-0.105962
08139		6.183170	-0.768830	7.552262	0.003357	0.011075	-0.006567	-0.160889	0.085693	-0.440674	0.933083	-0.083549	-0.333357	-0.106064
08140		6.202703	-0.775049	7.577745	0.001067	-0.000120	0.001284	-0.168457	0.078613	-0.435059	0.933127	-0.083507	-0.333237	-0.106083
08141		6.203939	-0.747026	7.524125	-0.002888	-0.008964	0.009562	-0.162109	0.088135	-0.430664	0.933135	-0.083494	-0.333237	-0.106018
08142		6.218434	-0.850258	7.484501	-0.003568	-0.010035	0.011983	-0.177490	0.088379	-0.438965	0.933145	-0.083556	-0.333203	-0.105998
08143		6.207472	-0.927337	7.446680	-0.000387	-0.001718	0.003732	-0.171143	0.081543	-0.431396	0.933152	-0.083544	-0.333181	-0.106005
08144		6.207745	-0.865153	7.420161	0.008672	0.019152	-0.012250	-0.167236	0.083740	-0.428223	0.933217	-0.083377	-0.333005	-0.106120
08145		6.214037	-0.653981	7.575612	0.011669	0.020819	-0.008868	-0.170654	0.083252	-0.433350	0.933294	-0.083214	-0.332798	-0.106223
08146		6.188276	-0.704585	7.625731	-0.002184	0.004975	0.008861	-0.176270	0.086670	-0.435059	0.933332	-0.083210	-0.332701	-0.106199
08147		6.155301	-0.869386	7.564850	-0.009368	-0.016377	0.011565	-0.173340	0.086914	-0.428467	0.933297	-0.083302	-0.332785	-0.106166
08148		6.152209	-0.888866	7.484773	-0.006045	-0.019155	0.009156	-0.170410	0.089111	-0.431641	0.933254	-0.083377	-0.332889	-0.106163
08149		6.149444	-0.874254	7.430690	0.002689	-0.011492	-0.003976	-0.165039	0.080811	-0.428223	0.933234	-0.083349	-0.332926	-0.106248
08150		6.176811	-0.817600	7.492727	0.005952	-0.002782	-0.005503	-0.169678	0.082031	-0.432373	0.933249	-0.083246	-0.332888	-0.106313
08151		6.172633	-0.793631	7.597306	0.003165	-0.008396	-0.006866	-0.170898	0.087402	-0.438477	0.933241	-0.083164	-0.332908	-0.106383
08152		6.205328	-0.651009	7.531896	-0.001759	-0.017663	0.002523	-0.168457	0.081055	-0.431885	0.933213	-0.083174	-0.332978	-0.106398
08153		6.217904	-0.786948	7.433045	-0.006037	-0.019154	0.009153	-0.171631	0.090576	-0.435303	0.933186	-0.083214	-0.333058	-0.106360
08154		6.201587	-0.906590	7.448389	-0.002124	-0.004591	0.006425	-0.165283	0.087402	-0.431885	0.933192	-0.083249	-0.333026	-0.106379
08155		6.161701	-0.873287	7.489949	0.000108	-0.001481	-0.001931	-0.168213	0.085938	-0.432129	0.933210	-0.083230	-0.332955	-0.106458
08156		6.137013	-0.716865	7.561107	0.007618	-0.004148	-0.011817	-0.167725	0.083740	-0.433350	0.933212	-0.083119	-0.332936	-0.106580
08157		6.153891	-0.718999	7.598234	0.008770	-0.021523	-0.006758	-0.170410	0.082031	-0.438232	0.933175	-0.083015	-0.333048	-0.106635
08158		6.190650	-0.845568	7.490330	0.013000	-0.031022	-0.006468	-0.173584	0.086182	-0.433350	0.933117	-0.082871	-0.333246	-0.106646
08159		6.196045	-0.989420	7.359639	0.036448	-0.012320	-0.036206	-0.177734	0.078613	-0.429932	0.933087	-0.082474	-0.333356	-0.106868
08160		6.230929	-0.671647	7.502239	0.036476	0.002514	-0.046266	-0.168457	0.087646	-0.436035	0.933083	-0.082000	-0.333396	-0.107145
08161		6.209435	-0.601328	7.640952	0.022599	-0.003757	-0.026081	-0.172119	0.079834	-0.437256	0.933086	-0.081742	-0.333385	-0.107342
08162		6.230937	-0.653710	7.625998	0.005904	-0.026632	-0.000299	-0.172852	0.085449	-0.428223	0.933037	-0.081662	-0.333549	-0.107324
08163		6.256320	-0.846486	7.415234	-0.003251	-0.024478	0.007254	-0.176025	0.084229	-0.429199	0.932981	-0.081716	-0.333691	-0.107328
08164		6.270904	-0.823246	7.366450	0.000383	0.000734	0.002152	-0.175537	0.082275	-0.434326	0.932989	-0.081696	-0.333660	-0.107367
08165		6.230942	-0.721001	7.539029	-0.003298	0.013723	0.005697	-0.164551	0.083008	-0.433350	0.933042	-0.081684	-0.333515	-0.107373
08166		6.227469	-0.574689	7.668224	-0.017413	-0.000528	0.026483	-0.171143	0.080811	-0.434082	0.933080	-0.081863	-0.333397	-0.107264
08167		6.193429	-0.709041	7.678328	-0.033483	-0.028490	0.047757	-0.171387	0.083984	-0.428711	0.933040	-0.082234	-0.333506	-0.106995
08168		6.212806	-0.961390	7.362183	-0.043414	-0.040661	0.049249	-0.173096	0.079590	-0.430664	0.932953	-0.082721	-0.333703	-0.106763
08169		6.190763	-1.011516	7.263731	-0.022553	0.001891	0.017417	-0.167236	0.086670	-0.431885	0.932972	-0.082889	-0.333623	-0.106715
08170		6.155267	-0.800745	7.480522	-0.003523	0.023435	-0.000964	-0.163330	0.087402	-0.439209	0.933056	-0.082877	-0.333362	-0.106812
08171		6.118880	-0.620089	7.672087	0.005701	0.005899	0.003902	-0.171143	0.081055	-0.439453	0.933114	-0.082817	-0.333210	-0.106821
08172		6.200730	-0.669071	7.678621	-0.007151	-0.027204	0.027761	-0.161621	0.081543	-0.428955	0.933083	-0.082914	-0.333339	-0.106617
08173		6.240741	-1.002395	7.356139	-0.008260	-0.038025	0.023177	-0.165527	0.083984	-0.431396	0.933022	-0.083040	-0.333520	-0.106482
08174		6.222257	-1.000624	7.250695	0.003092	0.003089	-0.005983	-0.170654	0.085693	-0.435303	0.933053	-0.082967	-0.333423	-0.106572
08175		6.197839	-0.758486	7.466715	0.009389	0.026371	-0.012588	-0.175781	0.080566	-0.434570	0.933141	-0.082807	-0.333174	-0.106706
08176		6.172924	-0.613589	7.639020	0.004102	0.015393	0.000521	-0.175293	0.084229	-0.434326	0.933199	-0.082706	-0.333032	-0.106717
08177		6.192253	-0.654099	7.638288	-0.004695	-0.013255	0.021606	-0.166992	0.088135	-0.427734	0.933189	-0.082779	-0.333084	-0.106589
08178		6.251466	-0.861074	7.490449	-0.012964	-0.030676	0.030106	-0.167969	0.085205	-0.444824	0.933137	-0.082989	-0.333220	-0.106453
08179		6.260230	-0.890549	7.337202	-0.006287	-0.004695	0.013895	-0.171875	0.087891	-0.430176	0.933165	-0.083036	-0.333153	-0.106379
08180		6.201455	-0.863610	7.453604	-0.003276	0.016583	0.008488	-0.170166	0.089111	-0.433594	0.933227	-0.083060	-0.332967	-0.106402
08181		6.151107	-0.744514	7.588409	-0.003856	0.015954	0.007424	-0.165771	0.091064	-0.438965	0.933291	-0.083088	-0.332771	-0.106432
08182		6.163184	-0.735289	7.607437	-0.009985	-0.003630	0.020033	-0.168457	0.089844	-0.429688	0.933319	-0.083220	-0.332680	-0.106371
08183		6.220707	-0.829107	7.517851	-0.013134	-0.016722	0.027038	-0.160645	0.086914	-0.439453	0.933301	-0.083412	-0.332714	-0.106267
08184		6.243221	-0.895881	7.377737	-0.013073	-0.007652	0.021678	-0.171631	0.082275	-0.435791	0.933328	-0.083556	-0.332630	-0.106183
08185		6.211138	-0.738406	7.508869	-0.008952	0.007735	0.022207	-0.168457	0.094238	-0.438965	0.933381	-0.083630	-0.332499	-0.106064
08186		6.171337	-0.785515	7.598284	-0.011532	-0.002806	0.028718	-0.171143	0.085449	-0.427734	0.933412	-0.083809	-0.332405	-0.105949
08187		6.206543	-0.824314	7.490103	-0.009081	-0.010350	0.022703	-0.168945	0.080322	-0.438721	0.933407	-0.083928	-0.332422	-0.105846
08188		6.207663	-0.811478	7.501998	-0.006566	-0.006020	0.024312	-0.169434	0.089111	-0.437256	0.933434	-0.083987	-0.332384	-0.105681
08189		6.191628	-0.855184	7.503401	-0.004440	-0.003355	0.019450	-0.171143	0.084961	-0.427490	0.933458	-0.084060	-0.332324	-0.105594
08190		6.173005	-0.882126	7.485434	-0.001159	0.001551	0.010843	-0.165771	0.086914	-0.433838	0.933482	-0.084070	-0.332265	-0.105567
08191		6.167632	-0.770656	7.477843	0.003487	0.005685	0.004822	-0.170410	0.087891	-0.434326	0.933528	-0.084028	-0.332142	-0.105580
08192		6.180141	-0.743564	7.509946	0.000669	0.008656	0.011776	-0.170654	0.073975	-0.430664	0.933578	-0.084026	-0.332011	-0.105547
08193		6.206860	-0.850922	7.510230	0.003499	0.006568	0.019332	-0.170166	0.082520	-0.427734	0.933635	-0.083960	-0.331921	-0.105384
08194		6.148428	-0.908007	7.516263	0.001658	0.003309	0.015303	-0.166748	0.082764	-0.427734	0.933671	-0.083947	-0.331847	-0.105304
08195		6.161957	-0.852310	7.494976	0.005923	0.004788	0.008682	-0.168701	0.087891	-0.431152	0.933713	-0.083884	-0.331754	-0.105271
08196		6.180473	-0.714627	7.570483	0.002144	0.001624	0.011198	-0.163330	0.081543	-0.429443	0.933744	-0.083881	-0.331678	-0.105242
08197		6.188303	-0.814772	7.544843	0.001099	-0.008802	0.013334	-0.166504	0.081787	-0.429443	0.933757	-0.083874	-0.331665	-0.105170
08198		6.164800	-0.870817	7.513891	-0.000554	-0.009304	0.010993	-0.166748	0.084229	-0.434326	0.933760	-0.083874	-0.331673	-0.105118
08199		6.175193	-0.905599	7.539028	0.001576	-0.009502	0.003363	-0.160889	0.086914	-0.429688	0.933761	-0.083841	-0.331679	-0.105121
08200		6.180526	-0.830751	7.477663	0.003496	-0.003829	-0.007820	-0.169189	0.086182	-0.425537	0.933772	-0.083781	-0.331624	-0.105240
08201		6.170238	-0.760306	7.523059	-0.000967	-0.003279	-0.001661	-0.172607	0.085938	-0.438477	0.933770	-0.083770	-0.331607	-0.105320
08202		6.145919	-0.747402	7.589954	0.000418	-0.008883	0.009880	-0.167969	0.083740	-0.434570	0.933771	-0.083765	-0.331623	-0.105268
08203		6.155019	-0.848070	7.563174	-0.004215	-0.019715	0.016217	-0.169434	0.077148	-0.436768	0.933749	-0.083819	-0.331701	-0.105176
08204		6.189761	-0.881828	7.499583	-0.007034	-0.024329	0.008980	-0.166992	0.081299	-0.436035	0.933709	-0.083843	-0.331831	-0.105102
08205		6.222531	-0.882534	7.429335	-0.001629	-0.013909	-0.001703	-0.160400	0.085693	-0.438965	0.933693	-0.083808	-0.331875	-0.105129
08206		6.198413	-0.775944	7.461771	0.001559	-0.000876	0.001494	-0.172607	0.090332	-0.435303	0.933730	-0.083768	-0.331774	-0.105154
08207		6.160432	-0.787173	7.576530	-0.000552	-0.004523	0.012214	-0.167725	0.090820	-0.432373	0.933739	-0.083798	-0.331751	-0.105118
08208		6.154323	-0.851183	7.537785	-0.002862	-0.011860	0.016925	-0.171387	0.090332	-0.435547	0.933735	-0.083875	-0.331761	-0.105062
08209		6.198795	-0.937611	7.442434	0.000992	-0.010128	0.002294	-0.167480	0.083984	-0.428467	0.933724	-0.083871	-0.331784	-0.105097
08210		6.209382	-0.765117	7.491066	0.004369	0.001865	0.000088	-0.168701	0.082031	-0.431152	0.933748	-0.083804	-0.331719	-0.105136
08211		6.196290	-0.772685	7.551671	0.002144	0.002609	0.005328	-0.165283	0.079102	-0.436523	0.933779	-0.083755	-0.331648	-0.105123
08212		6.166631	-0.825392	7.535205	-0.001244	-0.002681	0.007217	-0.168701	0.081299	-0.440918	0.933807	-0.083723	-0.331593	-0.105078
08213		6.173687	-0.860742	7.528232	-0.001540	-0.004891	0.003141	-0.167236	0.087402	-0.435303	0.933822	-0.083687	-0.331565	-0.105062
08214		6.178213	-0.815229	7.520032	0.001363	-0.006490	-0.002968	-0.169678	0.082764	-0.429688	0.933823	-0.083651	-0.331549	-0.105129
08215		6.183451	-0.753261	7.524527	-0.001350	-0.007853	-0.000719	-0.169922	0.087891	-0.430908	0.933814	-0.083628	-0.331567	-0.105173
08216		6.165714	-0.807266	7.558571	-0.000452	-0.016500	0.003503	-0.169434	0.078125	-0.436523	0.933784	-0.083640	-0.331642	-0.105198
08217		6.155306	-0.882833	7.519699	0.004971	-0.016632	-0.003772	-0.168457	0.084717	-0.440186	0.933761	-0.083535	-0.331730	-0.105203
08218		6.180535	-0.874767	7.509600	0.010962	-0.015151	-0.015851	-0.167236	0.090332	-0.435791	0.933738	-0.083377	-0.331800	-0.105312
08219		6.214066	-0.742248	7.510240	0.011254	-0.011018	-0.013321	-0.166016	0.083740	-0.433350	0.933724	-0.083254	-0.331829	-0.105444
08220		6.189247	-0.775505	7.538250	0.006321	-0.011637	-0.005830	-0.168213	0.082764	-0.435791	0.933714	-0.083164	-0.331860	-0.105506
08221		6.192544	-0.806427	7.544009	0.002346	-0.012772	-0.003769	-0.174072	0.086914	-0.428467	0.933699	-0.083103	-0.331903	-0.105550
08222		6.178832	-0.882120	7.473079	0.002923	-0.010223	-0.004255	-0.166016	0.088867	-0.436768	0.933673	-0.083061	-0.331960	-0.105630
08223		6.177456	-0.784401	7.484127	0.005320	-0.004369	-0.010899	-0.166504	0.085938	-0.432129	0.933679	-0.082979	-0.331923	-0.105759
08224		6.214633	-0.748892	7.506610	0.005802	-0.000338	-0.009454	-0.170654	0.090576	-0.432373	0.933694	-0.082886	-0.331868	-0.105874
08225		6.210920	-0.793145	7.514367	0.005239	0.000909	-0.001874	-0.166504	0.080566	-0.426270	0.933710	-0.082837	-0.331811	-0.105951
08226		6.159706	-0.802022	7.545252	0.001743	0.000944	-0.001140	-0.169189	0.086426	-0.436768	0.933730	-0.082780	-0.331754	-0.106000
08227		6.180746	-0.860597	7.485366	0.001647	-0.000434	-0.001984	-0.164307	0.084473	-0.436279	0.933747	-0.082737	-0.331696	-0.106059
08228		6.207265	-0.808427	7.469407	0.002013	0.006061	-0.004473	-0.170166	0.086182	-0.435547	0.933788	-0.082672	-0.331571	-0.106138
08229		6.170102	-0.676977	7.588998	-0.000861	0.001896	0.006278	-0.170410	0.086914	-0.435059	0.933815	-0.082668	-0.331495	-0.106142
08230		6.151983	-0.784413	7.539324	-0.008095	-0.008918	0.015714	-0.171387	0.078857	-0.432373	0.933814	-0.082761	-0.331492	-0.106090
08231		6.188865	-0.866171	7.503734	-0.007139	-0.009435	0.010279	-0.164307	0.088867	-0.433594	0.933807	-0.082796	-0.331518	-0.106040
08232		6.158376	-0.887778	7.479571	-0.004839	-0.004959	0.002790	-0.167969	0.076660	-0.430908	0.933815	-0.082838	-0.331466	-0.106102
08233		6.187039	-0.707163	7.532962	-0.000873	-0.001901	-0.000818	-0.167969	0.079346	-0.437744	0.933829	-0.082780	-0.331435	-0.106120
08234		6.188654	-0.768575	7.592637	-0.005115	-0.005296	0.007351	-0.169922	0.085693	-0.431396	0.933842	-0.082785	-0.331408	-0.106084
08235		6.201025	-0.794598	7.505833	-0.002781	-0.008506	0.006040	-0.166748	0.082031	-0.436768	0.933836	-0.082807	-0.331418	-0.106095
08236		6.185645	-0.836377	7.506909	-0.004333	-0.009553	0.006092	-0.165771	0.084229	-0.425293	0.933836	-0.082821	-0.331418	-0.106080
08237		6.168708	-0.845881	7.500942	-0.002114	-0.010297	0.000848	-0.163574	0.091309	-0.442627	0.933822	-0.082828	-0.331437	-0.106137
08238		6.165704	-0.827062	7.526136	-0.000566	-0.012109	-0.001982	-0.171631	0.079102	-0.431885	0.933817	-0.082830	-0.331428	-0.106213
08239		6.178064	-0.799847	7.523617	0.000117	-0.010105	-0.000077	-0.172852	0.084229	-0.437988	0.933803	-0.082782	-0.331474	-0.106224
08240		6.198916	-0.839368	7.521340	-0.003479	-0.014305	-0.002964	-0.173828	0.082031	-0.431152	0.933774	-0.082774	-0.331541	-0.106277
08241		6.169664	-0.762671	7.541095	-0.003391	-0.011006	-0.003663	-0.168701	0.078369	-0.443604	0.933747	-0.082758	-0.331601	-0.106339
08242		6.190890	-0.693039	7.517223	-0.005314	-0.013768	0.000105	-0.163818	0.093994	-0.435547	0.933736	-0.082741	-0.331639	-0.106335
08243		6.216167	-0.782006	7.541103	-0.011850	-0.019719	0.014214	-0.161133	0.086182	-0.430908	0.933708	-0.082902	-0.331675	-0.106338
08244		6.193252	-0.855843	7.496134	-0.010981	-0.020675	0.012251	-0.166504	0.082520	-0.436279	0.933681	-0.083023	-0.331726	-0.106326
08245		6.206000	-0.766918	7.511274	-0.011468	-0.019924	0.012033	-0.170898	0.081299	-0.436035	0.933654	-0.083121	-0.331793	-0.106281
08246		6.205784	-0.834473	7.457896	-0.010017	-0.015475	0.012368	-0.159424	0.091797	-0.432861	0.933634	-0.083196	-0.331848	-0.106223
08247		6.223789	-0.860304	7.435983	-0.005683	-0.003065	0.009064	-0.173584	0.086426	-0.426025	0.933658	-0.083273	-0.331749	-0.106256
08248		6.208863	-0.853435	7.476628	-0.002421	0.004691	0.003250	-0.167480	0.084229	-0.433594	0.933676	-0.083279	-0.331682	-0.106302
08249		6.195697	-0.861448	7.537554	0.000475	0.005950	-0.000089	-0.168213	0.070801	-0.438477	0.933714	-0.083236	-0.331573	-0.106349
08250		6.177871	-0.824766	7.493030	0.004945	0.004411	-0.000398	-0.177002	0.084717	-0.435547	0.933759	-0.083093	-0.331496	-0.106306
08251		6.171973	-0.757329	7.525758	0.001461	0.002526	0.001880	-0.168457	0.096680	-0.428467	0.933775	-0.083047	-0.331455	-0.106321
08252		6.154321	-0.813939	7.515492	0.005332	0.007062	0.000207	-0.165039	0.085693	-0.431641	0.933807	-0.083029	-0.331337	-0.106426
08253		6.148780	-0.810579	7.529614	0.002697	0.003285	-0.003793	-0.173584	0.081543	-0.434326	0.933836	-0.082972	-0.331244	-0.106507
08254		6.168666	-0.832927	7.541464	0.003866	-0.003100	-0.005688	-0.169922	0.087402	-0.441162	0.933837	-0.082880	-0.331245	-0.106561
08255		6.175304	-0.802317	7.553240	0.002721	-0.005339	-0.001948	-0.171387	0.085449	-0.422119	0.933844	-0.082831	-0.331225	-0.106607
08256		6.181191	-0.804774	7.538932	0.001000	-0.010126	0.002273	-0.170898	0.078613	-0.432373	0.933822	-0.082823	-0.331275	-0.106650
08257		6.201945	-0.735345	7.515465	-0.004337	-0.007630	0.004541	-0.164307	0.077881	-0.427979	0.933818	-0.082818	-0.331291	-0.106635
08258		6.196094	-0.782317	7.489708	-0.003272	-0.005833	0.004274	-0.171143	0.080078	-0.436035	0.933826	-0.082808	-0.331272	-0.106631
08259		6.173258	-0.817909	7.550897	-0.001720	-0.004787	0.004221	-0.165283	0.090332	-0.438721	0.933834	-0.082782	-0.331263	-0.106613
08260		6.177053	-0.789567	7.529865	-0.004915	-0.005398	0.006259	-0.172852	0.092773	-0.432861	0.933845	-0.082834	-0.331208	-0.106642
08261		6.159548	-0.799271	7.524372	-0.002008	-0.006061	0.004460	-0.176758	0.083740	-0.432861	0.933838	-0.082872	-0.331203	-0.106695
08262		6.154757	-0.813546	7.524409	-0.003083	-0.005935	0.003186	-0.172119	0.091064	-0.427979	0.933828	-0.082871	-0.331227	-0.106708
08263		6.168715	-0.803058	7.542132	-0.004237	-0.006252	0.005385	-0.171143	0.084229	-0.433594	0.933817	-0.082928	-0.331226	-0.106764
08264		6.161136	-0.818112	7.509453	-0.003560	-0.007106	0.004512	-0.172119	0.085205	-0.435059	0.933813	-0.082940	-0.331231	-0.106774
08265		6.181830	-0.842333	7.520407	-0.004336	-0.007629	0.004538	-0.167969	0.077881	-0.431885	0.933806	-0.082962	-0.331240	-0.106788
08266		6.163108	-0.819613	7.507671	-0.000664	-0.010626	-0.000067	-0.164062	0.086670	-0.435791	0.933797	-0.082917	-0.331274	-0.106793
08267		6.171050	-0.774075	7.531622	-0.003947	-0.009757	0.003904	-0.160889	0.090576	-0.443115	0.933796	-0.082945	-0.331260	-0.106824
08268		6.141425	-0.807495	7.572984	-0.003269	-0.015390	0.001789	-0.166504	0.086182	-0.440430	0.933787	-0.082978	-0.331261	-0.106876
08269		6.185988	-0.812779	7.508432	-0.005120	-0.015786	0.000541	-0.161865	0.081787	-0.430908	0.933766	-0.083003	-0.331301	-0.106918
08270		6.182757	-0.826600	7.507226	-0.001738	-0.020056	-0.003828	-0.175293	0.082031	-0.428955	0.933733	-0.082987	-0.331378	-0.106982
08271		6.192031	-0.780657	7.530148	-0.003078	-0.020270	-0.000545	-0.163330	0.088623	-0.436523	0.933680	-0.082987	-0.331516	-0.107013
08272		6.199472	-0.783586	7.514458	-0.002889	-0.020373	-0.001634	-0.171143	0.087891	-0.435547	0.933647	-0.083009	-0.331581	-0.107087
08273		6.182993	-0.808759	7.494845	-0.002401	-0.016345	-0.000180	-0.166504	0.086182	-0.431885	0.933614	-0.083022	-0.331651	-0.107140
08274		6.205356	-0.816275	7.517814	-0.003164	-0.014012	0.002628	-0.165771	0.085693	-0.429932	0.933595	-0.083045	-0.331687	-0.107178
08275		6.229329	-0.827066	7.494847	-0.002588	-0.011464	0.002149	-0.169922	0.089600	-0.436279	0.933583	-0.083061	-0.331704	-0.107223
08276		6.199072	-0.847325	7.470636	0.000101	-0.008180	-0.001642	-0.172607	0.085693	-0.430420	0.933575	-0.083050	-0.331704	-0.107295
08277		6.199469	-0.782740	7.488805	0.001078	-0.004904	0.000026	-0.177246	0.090088	-0.433105	0.933572	-0.083021	-0.331705	-0.107341
08278		6.166931	-0.799823	7.511096	-0.000935	-0.009043	0.002942	-0.168701	0.083008	-0.433350	0.933553	-0.083033	-0.331745	-0.107379
08279		6.196610	-0.780553	7.500659	-0.000260	-0.009896	0.002067	-0.166992	0.085205	-0.434326	0.933546	-0.083012	-0.331764	-0.107395
08280		6.196906	-0.825831	7.539905	0.001105	-0.008749	0.003099	-0.166260	0.083008	-0.435303	0.933547	-0.082992	-0.331762	-0.107412
08281		6.192687	-0.810603	7.486638	-0.000675	-0.008702	-0.001617	-0.175781	0.081787	-0.434570	0.933545	-0.082963	-0.331759	-0.107459
08282		6.201117	-0.748575	7.523674	-0.002989	-0.007413	0.001246	-0.168213	0.089111	-0.426025	0.933534	-0.082948	-0.331789	-0.107471
08283		6.203750	-0.780917	7.529750	-0.000460	-0.007871	0.001615	-0.170898	0.079834	-0.426514	0.933524	-0.082961	-0.331790	-0.107541
08284		6.185883	-0.806324	7.511257	-0.001796	-0.008086	0.004902	-0.170898	0.082031	-0.438721	0.933518	-0.082950	-0.331815	-0.107531
08285		6.194043	-0.825335	7.516578	-0.000345	-0.008417	0.003999	-0.173096	0.082520	-0.441406	0.933519	-0.082923	-0.331825	-0.107514
08286		6.187273	-0.823260	7.496634	-0.000489	-0.008804	-0.002706	-0.168457	0.083252	-0.437500	0.933511	-0.082877	-0.331847	-0.107545
08287		6.199853	-0.779654	7.507353	0.000675	-0.005632	-0.002123	-0.170410	0.083984	-0.435303	0.933517	-0.082831	-0.331828	-0.107587
08288		6.195795	-0.776854	7.520286	-0.001063	-0.006573	-0.000983	-0.169678	0.085449	-0.432861	0.933515	-0.082807	-0.331825	-0.107631
08289		6.208460	-0.797923	7.512381	0.001179	-0.003528	0.000871	-0.164551	0.081055	-0.436035	0.933523	-0.082777	-0.331797	-0.107671
08290		6.175052	-0.831202	7.522063	-0.000358	-0.006495	0.002461	-0.167480	0.086914	-0.430664	0.933535	-0.082747	-0.331769	-0.107675
08291		6.189930	-0.774833	7.499587	0.000488	-0.005529	-0.001037	-0.176514	0.077637	-0.431152	0.933536	-0.082730	-0.331749	-0.107745
08292		6.203895	-0.763522	7.517412	-0.000559	-0.004470	0.002012	-0.169678	0.083496	-0.425293	0.933534	-0.082682	-0.331770	-0.107730
08293		6.192886	-0.807222	7.505388	-0.000544	-0.006392	0.003548	-0.173340	0.083008	-0.433105	0.933531	-0.082675	-0.331774	-0.107755
08294		6.175986	-0.799934	7.512942	0.001481	-0.004176	0.002168	-0.170410	0.084717	-0.431641	0.933534	-0.082635	-0.331770	-0.107765
08295		6.171838	-0.796975	7.525979	0.004771	-0.006967	-0.000276	-0.171875	0.084717	-0.438232	0.933533	-0.082576	-0.331779	-0.107800
08296		6.200460	-0.793088	7.503028	0.003607	-0.005362	0.000389	-0.171387	0.083740	-0.433350	0.933538	-0.082519	-0.331771	-0.107819
08297		6.185420	-0.816953	7.517429	0.004957	-0.007070	-0.001364	-0.166016	0.085205	-0.431396	0.933536	-0.082449	-0.331785	-0.107852
08298		6.190941	-0.754744	7.521870	0.001970	-0.009705	0.001130	-0.162598	0.081055	-0.437744	0.933531	-0.082424	-0.331792	-0.107891
08299		6.182042	-0.765657	7.534978	0.003081	-0.013675	0.005470	-0.168701	0.086914	-0.433594	0.933532	-0.082382	-0.331810	-0.107856
08300		6.199908	-0.806178	7.499701	-0.001962	-0.014680	0.006272	-0.163818	0.088867	-0.443604	0.933513	-0.082410	-0.331854	-0.107865
08301		6.203146	-0.774626	7.523771	-0.001760	-0.016705	0.006718	-0.167480	0.082031	-0.431396	0.933502	-0.082440	-0.331876	-0.107867
08302		6.195479	-0.770221	7.549206	-0.002248	-0.015953	0.006506	-0.168457	0.083008	-0.428467	0.933482	-0.082454	-0.331935	-0.107851
08303		6.206363	-0.792792	7.507486	-0.003023	-0.016475	0.006532	-0.168213	0.082275	-0.439941	0.933456	-0.082480	-0.332003	-0.107847
08304		6.223071	-0.785666	7.478185	-0.003813	-0.010298	0.006275	-0.165283	0.089844	-0.432129	0.933456	-0.082492	-0.332007	-0.107825
08305		6.203250	-0.808483	7.505999	-0.003642	-0.003701	0.004905	-0.172363	0.082520	-0.434082	0.933467	-0.082535	-0.331947	-0.107880
08306		6.209134	-0.795773	7.504879	-0.002681	-0.003282	0.003790	-0.172607	0.089111	-0.434570	0.933475	-0.082529	-0.331925	-0.107887
08307		6.191996	-0.788962	7.512635	-0.002681	-0.003282	0.003790	-0.167480	0.080811	-0.436523	0.933479	-0.082551	-0.331894	-0.107930
08308		6.180607	-0.768873	7.519451	-0.005768	-0.007292	0.005434	-0.165527	0.086182	-0.426514	0.933484	-0.082570	-0.331877	-0.107922
08309		6.170507	-0.797112	7.520012	-0.005990	-0.008121	0.002200	-0.163574	0.091064	-0.435547	0.933476	-0.082617	-0.331866	-0.107989
08310		6.181861	-0.787110	7.504762	-0.004236	-0.009103	0.002591	-0.168457	0.086426	-0.429199	0.933474	-0.082665	-0.331836	-0.108063
08311		6.168834	-0.780123	7.544285	-0.007138	-0.013214	0.003147	-0.166504	0.086426	-0.434814	0.933450	-0.082724	-0.331872	-0.108115
08312		6.194685	-0.823226	7.527777	-0.003060	-0.017407	0.002200	-0.165039	0.085449	-0.434082	0.933423	-0.082748	-0.331929	-0.108154
08313		6.191826	-0.792078	7.486667	-0.001829	-0.013792	-0.000685	-0.169189	0.076172	-0.432617	0.933406	-0.082749	-0.331956	-0.108213
08314		6.197615	-0.775611	7.530520	-0.002994	-0.016962	-0.001272	-0.180420	0.073242	-0.428711	0.933378	-0.082720	-0.332041	-0.108220
08315		6.218668	-0.722456	7.493213	-0.004201	-0.017723	0.004396	-0.168457	0.083740	-0.425781	0.933336	-0.082702	-0.332184	-0.108161
08316		6.209796	-0.815057	7.474051	-0.006646	-0.013965	0.003351	-0.170166	0.084229	-0.432129	0.933309	-0.082750	-0.332233	-0.108201
08317		6.207351	-0.797023	7.499100	-0.003174	-0.012083	0.001066	-0.171143	0.079102	-0.434326	0.933291	-0.082759	-0.332270	-0.108239
08318		6.209425	-0.781073	7.510841	-0.002538	-0.009092	-0.002876	-0.170166	0.085938	-0.437256	0.933281	-0.082724	-0.332295	-0.108273
08319		6.216297	-0.768089	7.508938	-0.006357	-0.012691	0.003112	-0.167480	0.088623	-0.434814	0.933264	-0.082766	-0.332323	-0.108305
08320		6.224018	-0.803779	7.501032	-0.004904	-0.008248	0.003463	-0.183350	0.082275	-0.432617	0.933260	-0.082808	-0.332305	-0.108357
08321		6.204424	-0.861602	7.456936	-0.001556	-0.005819	-0.001203	-0.185059	0.084717	-0.435547	0.933242	-0.082776	-0.332355	-0.108385
08322		6.178348	-0.767730	7.523835	0.002468	0.000532	-0.005490	-0.165039	0.081055	-0.423584	0.933239	-0.082702	-0.332361	-0.108448
08323		6.215088	-0.750131	7.532991	-0.000248	-0.005118	0.003297	-0.167969	0.082031	-0.432861	0.933247	-0.082685	-0.332338	-0.108467
08324		6.178994	-0.812737	7.562952	0.000603	-0.010850	0.000072	-0.170166	0.083740	-0.433350	0.933238	-0.082651	-0.332362	-0.108492
08325		6.204355	-0.825812	7.493713	0.000580	-0.013703	-0.002718	-0.172363	0.082031	-0.436523	0.933216	-0.082619	-0.332415	-0.108544
08326		6.206385	-0.779933	7.452465	0.001663	-0.007618	-0.009512	-0.162109	0.083740	-0.436768	0.933206	-0.082542	-0.332435	-0.108631
08327		6.218381	-0.780437	7.503494	0.001441	-0.003671	-0.011487	-0.167480	0.080811	-0.436035	0.933218	-0.082471	-0.332378	-0.108757
08328		6.192831	-0.814483	7.532603	-0.000027	-0.001417	-0.012111	-0.170654	0.081055	-0.433838	0.933228	-0.082393	-0.332332	-0.108872
08329		6.196326	-0.719481	7.530642	-0.000805	-0.006714	-0.013345	-0.171143	0.083008	-0.433105	0.933215	-0.082324	-0.332342	-0.108998
08330		6.214222	-0.742619	7.508660	-0.003903	-0.010238	-0.003912	-0.179932	0.080322	-0.433350	0.933197	-0.082318	-0.332371	-0.109071
08331		6.208746	-0.724726	7.501045	-0.006350	-0.017469	0.001849	-0.166260	0.074951	-0.433838	0.933152	-0.082338	-0.332490	-0.109077
08332		6.199422	-0.798298	7.540675	-0.010306	-0.018600	0.003926	-0.173096	0.080811	-0.431641	0.933126	-0.082379	-0.332562	-0.109052
08333		6.215229	-0.823694	7.484929	-0.008434	-0.018690	-0.002629	-0.173584	0.088623	-0.429443	0.933080	-0.082410	-0.332664	-0.109110
08334		6.212528	-0.757608	7.515505	-0.011943	-0.016728	-0.003405	-0.171387	0.084473	-0.435791	0.933030	-0.082500	-0.332740	-0.109237
08335		6.214952	-0.759002	7.513360	-0.011284	-0.021872	0.002240	-0.179199	0.091309	-0.432617	0.932982	-0.082582	-0.332842	-0.109277
08336		6.183784	-0.858002	7.502513	-0.009264	-0.019657	0.000859	-0.173828	0.082520	-0.429688	0.932923	-0.082671	-0.332955	-0.109368
08337		6.242068	-0.835800	7.468374	-0.007702	-0.014320	-0.005725	-0.168457	0.079346	-0.435303	0.932884	-0.082692	-0.333027	-0.109462
08338		6.239395	-0.752974	7.512586	-0.004164	-0.008657	-0.000894	-0.173096	0.088623	-0.428955	0.932882	-0.082677	-0.333029	-0.109484
08339		6.242307	-0.849957	7.499523	-0.005507	-0.006951	0.000868	-0.173584	0.088623	-0.430664	0.932869	-0.082720	-0.333029	-0.109568
08340		6.236082	-0.786581	7.452860	-0.000824	-0.001449	-0.004295	-0.174561	0.085205	-0.432373	0.932869	-0.082705	-0.332994	-0.109678
08341		6.235616	-0.657534	7.490934	-0.000821	0.003325	-0.003028	-0.182617	0.089355	-0.430176	0.932887	-0.082672	-0.332929	-0.109756
08342		6.212834	-0.693557	7.552935	-0.005748	-0.002043	0.014484	-0.170654	0.085449	-0.438965	0.932886	-0.082748	-0.332918	-0.109733
08343		6.211128	-0.809026	7.494629	-0.008621	-0.008077	0.016561	-0.169922	0.076904	-0.427734	0.932895	-0.082837	-0.332895	-0.109665
08344		6.193249	-0.855632	7.417299	-0.006032	-0.003316	0.014715	-0.175293	0.081299	-0.433594	0.932914	-0.082871	-0.332864	-0.109572
08345		6.193351	-0.821492	7.489201	0.000517	0.002099	0.003001	-0.164551	0.078369	-0.435303	0.932936	-0.082827	-0.332813	-0.109568
08346		6.154416	-0.852230	7.513411	0.001006	0.001347	0.003207	-0.172607	0.090576	-0.432617	0.932975	-0.082771	-0.332726	-0.109544
08347		6.201053	-0.759552	7.527303	-0.000027	-0.002850	-0.002795	-0.171631	0.077148	-0.430176	0.932975	-0.082761	-0.332693	-0.109650
08348		6.202490	-0.743717	7.539635	-0.002131	-0.007884	0.007044	-0.171875	0.086914	-0.432617	0.932976	-0.082746	-0.332711	-0.109597
08349		6.218482	-0.800666	7.491818	-0.000685	-0.008215	0.006135	-0.169434	0.088623	-0.436279	0.932973	-0.082756	-0.332716	-0.109608
08350		6.229036	-0.771701	7.535684	-0.002058	-0.008880	0.012891	-0.170166	0.080811	-0.433838	0.932977	-0.082801	-0.332702	-0.109576
08351		6.225548	-0.835033	7.529192	-0.003532	-0.011398	0.011004	-0.175049	0.085449	-0.428223	0.932974	-0.082823	-0.332727	-0.109512
08352		6.229912	-0.742873	7.526447	-0.005006	-0.013916	0.009116	-0.169678	0.088623	-0.431396	0.932947	-0.082877	-0.332791	-0.109504
08353		6.195581	-0.845423	7.437628	-0.005081	-0.012440	0.011056	-0.172119	0.091309	-0.434570	0.932934	-0.082948	-0.332811	-0.109502
08354		6.199132	-0.880724	7.397763	0.002409	0.004383	-0.008543	-0.175049	0.089355	-0.430664	0.932953	-0.082898	-0.332722	-0.109652
08355		6.176168	-0.640926	7.549600	0.005465	0.010793	-0.003916	-0.175049	0.089844	-0.437012	0.932989	-0.082826	-0.332603	-0.109754
08356		6.179970	-0.670103	7.634992	-0.005420	-0.014161	0.014756	-0.172119	0.086426	-0.426270	0.932971	-0.082909	-0.332647	-0.109717
08357		6.223008	-0.793411	7.465372	-0.011351	-0.026124	0.019988	-0.168457	0.081299	-0.431396	0.932918	-0.083060	-0.332782	-0.109646
08358		6.226568	-1.010701	7.301367	-0.001114	-0.002242	0.003727	-0.168945	0.082520	-0.430176	0.932935	-0.083039	-0.332737	-0.109647
08359		6.232857	-0.799729	7.437631	0.010209	0.021510	-0.011267	-0.179688	0.083740	-0.438232	0.933010	-0.082873	-0.332531	-0.109759
08360		6.209297	-0.607828	7.584697	0.005143	0.018618	0.002324	-0.169922	0.086914	-0.436523	0.933077	-0.082780	-0.332365	-0.109762
08361		6.210052	-0.605946	7.664341	-0.005792	-0.002007	0.025728	-0.170166	0.078857	-0.435059	0.933110	-0.082876	-0.332292	-0.109635
08362		6.213226	-0.889759	7.481495	-0.014944	-0.022200	0.028943	-0.170166	0.091309	-0.433838	0.933087	-0.083036	-0.332381	-0.109439
08363		6.222151	-0.985463	7.296017	-0.008596	0.000999	0.011299	-0.167725	0.081299	-0.436768	0.933107	-0.083131	-0.332290	-0.109468
08364		6.203255	-0.731232	7.493640	0.003580	0.019497	0.000858	-0.171631	0.077637	-0.435547	0.933190	-0.083041	-0.332075	-0.109482
