// Start Time: Unknown
// Update Rate: 60.0Hz
// Filter Profile: human (46.1)
// Firmware Version: 4.6.0
PacketCounter	SampleTimeFine	Acc_X	Acc_Y	Acc_Z	Gyr_X	Gyr_Y	Gyr_Z	Mag_X	Mag_Y	Mag_Z	Quat_q0	Quat_q1	Quat_q2	Quat_q3
13074		6.250671	-0.692524	7.458794	0.003762	0.006684	0.000863	-0.677734	-0.345703	-0.346680	-0.416944	-0.288852	0.185271	-0.841663
13075		6.270941	-0.642569	7.469689	0.004087	0.011596	-0.000695	-0.676514	-0.346680	-0.350586	-0.416956	-0.288786	0.185201	-0.841695
13076		6.249888	-0.618957	7.505701	0.005387	0.009251	0.004989	-0.676758	-0.344971	-0.353516	-0.416926	-0.288728	0.185142	-0.841743
13077		6.231249	-0.603286	7.528429	-0.005080	0.002572	0.007579	-0.689209	-0.343018	-0.352783	-0.416889	-0.288681	0.185185	-0.841768
13078		6.231394	-0.631701	7.509037	-0.008253	-0.005385	0.012164	-0.683350	-0.343506	-0.356689	-0.416817	-0.288671	0.185288	-0.841785
13079		6.257471	-0.678161	7.435115	-0.009810	-0.007482	0.012159	-0.687500	-0.343994	-0.346191	-0.416745	-0.288671	0.185405	-0.841794
13080		6.296388	-0.673489	7.470177	-0.004418	-0.003705	0.007714	-0.676514	-0.333740	-0.352783	-0.416699	-0.288670	0.185462	-0.841805
13081		6.275918	-0.644845	7.450436	-0.006830	-0.000200	0.008663	-0.683838	-0.346191	-0.349365	-0.416656	-0.288637	0.185524	-0.841823
13082		6.250490	-0.602717	7.523496	-0.007302	-0.000585	0.011409	-0.680420	-0.342285	-0.355713	-0.416597	-0.288604	0.185596	-0.841849
13083		6.220102	-0.672943	7.538448	-0.008129	-0.008487	0.015660	-0.680420	-0.334229	-0.350342	-0.416499	-0.288618	0.185704	-0.841868
13084		6.229991	-0.710259	7.540323	-0.010004	-0.016931	0.012517	-0.684570	-0.341309	-0.347168	-0.416417	-0.288685	0.185843	-0.841855
13085		6.262967	-0.697646	7.484479	-0.005761	-0.018634	0.009910	-0.683105	-0.338379	-0.355225	-0.416340	-0.288778	0.185950	-0.841838
13086		6.254988	-0.683876	7.472689	-0.002772	-0.020119	0.005692	-0.683594	-0.343018	-0.346924	-0.416284	-0.288898	0.186029	-0.841807
13087		6.229633	-0.679844	7.463564	-0.003262	-0.024542	0.003692	-0.686279	-0.340820	-0.352051	-0.416237	-0.289051	0.186121	-0.841757
13088		6.257841	-0.618586	7.464600	-0.000839	-0.024020	0.007480	-0.682617	-0.339844	-0.353760	-0.416159	-0.289201	0.186201	-0.841727
13089		6.248532	-0.623888	7.445976	0.000606	-0.023567	0.007999	-0.688721	-0.332031	-0.358398	-0.416078	-0.289355	0.186262	-0.841700
13090		6.252478	-0.684810	7.459344	0.000298	-0.025886	0.009601	-0.686035	-0.343506	-0.354004	-0.415985	-0.289522	0.186330	-0.841674
13091		6.258731	-0.699222	7.498070	0.002819	-0.029192	0.003433	-0.680176	-0.351318	-0.351318	-0.415927	-0.289735	0.186375	-0.841619
13092		6.268063	-0.693493	7.475807	0.002785	-0.031802	0.003375	-0.684082	-0.342773	-0.350098	-0.415867	-0.289966	0.186426	-0.841558
13093		6.253425	-0.643548	7.459420	0.003653	-0.034812	0.002462	-0.687988	-0.345947	-0.348389	-0.415802	-0.290217	0.186483	-0.841491
13094		6.290409	-0.721787	7.452976	0.006660	-0.033698	-0.001711	-0.686768	-0.336914	-0.351807	-0.415767	-0.290481	0.186499	-0.841413
13095		6.310395	-0.703129	7.459468	0.011228	-0.030486	-0.005881	-0.680664	-0.340088	-0.351562	-0.415746	-0.290734	0.186468	-0.841343
13096		6.319935	-0.668813	7.456402	0.011932	-0.031568	-0.005653	-0.676270	-0.340820	-0.343994	-0.415719	-0.290999	0.186436	-0.841272
13097		6.335115	-0.628720	7.434069	0.014521	-0.032979	-0.003016	-0.682129	-0.343018	-0.348877	-0.415658	-0.291290	0.186406	-0.841208
13098		6.309294	-0.588555	7.456166	0.013618	-0.031151	0.002527	-0.684082	-0.345459	-0.352783	-0.415577	-0.291558	0.186375	-0.841162
13099		6.274299	-0.594300	7.484438	0.009289	-0.035838	0.009671	-0.686523	-0.339600	-0.350830	-0.415462	-0.291833	0.186391	-0.841120
13100		6.285408	-0.675110	7.458170	0.009025	-0.041741	0.010642	-0.685059	-0.339111	-0.342041	-0.415324	-0.292141	0.186434	-0.841072
13101		6.273474	-0.632221	7.494960	0.010094	-0.048835	0.012643	-0.697998	-0.347168	-0.344482	-0.415143	-0.292512	0.186516	-0.841014
13102		6.259076	-0.655505	7.498513	0.006949	-0.066600	0.015898	-0.687500	-0.347168	-0.351074	-0.414956	-0.292999	0.186664	-0.840904
13103		6.243847	-0.665358	7.525417	0.004962	-0.091269	0.015937	-0.696777	-0.342285	-0.344971	-0.414738	-0.293621	0.186890	-0.840744
13104		6.260868	-0.739917	7.505428	0.021673	-0.112864	0.027793	-0.683594	-0.338135	-0.343750	-0.414355	-0.294431	0.187122	-0.840599
13105		5.996099	-0.179145	7.833844	0.013181	-0.202717	0.050039	-0.690918	-0.339111	-0.337402	-0.413657	-0.295777	0.187789	-0.840321
13106		6.412168	-0.912795	7.698811	-0.054247	-0.298694	0.037677	-0.694824	-0.343506	-0.334473	-0.413090	-0.297578	0.189170	-0.839654
13107		6.808410	-0.405444	7.424515	-0.091681	-0.319863	0.055570	-0.690186	-0.338867	-0.343262	-0.412472	-0.299356	0.190935	-0.838926
13108		6.811284	-0.631419	7.298157	-0.077964	-0.263754	0.090145	-0.699951	-0.340332	-0.331299	-0.411674	-0.300715	0.192458	-0.838484
13109		7.160893	-0.344675	7.225115	-0.065642	-0.185745	0.124775	-0.700928	-0.333496	-0.335449	-0.410731	-0.301586	0.193752	-0.838335
13110		7.825956	0.123012	7.663305	-0.125261	-0.043531	0.213120	-0.700195	-0.325195	-0.324951	-0.409540	-0.301138	0.195186	-0.838747
13111		7.527357	-0.208494	7.791445	-0.188971	0.184492	0.280430	-0.697510	-0.334717	-0.340088	-0.408345	-0.298897	0.196474	-0.839829
13112		6.494328	-0.992137	7.538114	0.167693	0.316311	0.046261	-0.699463	-0.327148	-0.333984	-0.408244	-0.297356	0.194116	-0.840973
13113		5.625863	0.423428	7.472902	0.315586	0.359778	-0.057125	-0.696045	-0.331787	-0.342773	-0.408489	-0.296165	0.190406	-0.842122
13114		5.190295	0.013368	7.124237	0.185904	0.245352	-0.026785	-0.694580	-0.331787	-0.346436	-0.408716	-0.295245	0.187930	-0.842891
13115		5.370185	-0.380356	7.244689	0.177066	0.146667	-0.037265	-0.688477	-0.338379	-0.341797	-0.408894	-0.294951	0.185767	-0.843386
13116		5.289312	-0.234865	7.382679	0.173205	0.074780	-0.053586	-0.684570	-0.341064	-0.341553	-0.409070	-0.295170	0.183819	-0.843651
13117		5.379757	-0.419912	7.465948	0.152706	0.012332	-0.068462	-0.687012	-0.339844	-0.348877	-0.409290	-0.295738	0.182154	-0.843706
13118		6.048826	-0.662686	7.735566	0.128822	-0.026833	-0.095818	-0.689209	-0.339355	-0.347412	-0.409734	-0.296449	0.180670	-0.843560
13119		6.954972	-1.066524	7.974590	0.051294	0.045953	-0.073729	-0.686523	-0.340576	-0.339111	-0.410322	-0.296319	0.179574	-0.843554
13120		6.324484	-1.416540	7.483339	0.075474	0.113377	-0.055467	-0.686035	-0.343994	-0.341064	-0.410737	-0.295817	0.178250	-0.843810
13121		6.371648	-1.110194	7.271429	0.089376	0.096590	-0.018229	-0.687988	-0.351562	-0.346924	-0.410842	-0.295412	0.177021	-0.844159
13122		6.108803	-1.079827	7.136587	0.118104	0.071484	0.006676	-0.683350	-0.342773	-0.343506	-0.410792	-0.295248	0.175709	-0.844515
13123		6.071057	-0.845019	7.184441	0.147744	0.031478	0.006216	-0.676025	-0.347656	-0.353516	-0.410402	-0.295428	0.174445	-0.844903
13124		6.089678	-0.803254	7.312394	0.141988	0.001109	0.013908	-0.684814	-0.341553	-0.349609	-0.409954	-0.295728	0.173242	-0.845263
13125		6.114716	-0.805259	7.326815	0.137897	-0.017230	0.017607	-0.681396	-0.354736	-0.346924	-0.409461	-0.296119	0.172255	-0.845567
13126		6.444433	-0.729528	7.471373	0.106886	-0.011933	0.030683	-0.685791	-0.352783	-0.353027	-0.409090	-0.296428	0.171465	-0.845799
13127		6.380902	-0.771000	7.442009	0.085699	0.021076	0.047230	-0.675049	-0.347168	-0.357178	-0.408759	-0.296334	0.170753	-0.846135
13128		6.437909	-0.680099	7.319192	0.092018	0.032430	0.051149	-0.676758	-0.349365	-0.345947	-0.408207	-0.296111	0.169953	-0.846641
13129		6.431429	-0.664950	7.147680	0.110426	0.033294	0.054007	-0.677734	-0.355957	-0.348389	-0.407584	-0.296068	0.169125	-0.847122
13130		6.375798	-0.515815	7.094679	0.113266	0.004771	0.051500	-0.679199	-0.356445	-0.349121	-0.407089	-0.296252	0.168349	-0.847450
13131		6.401579	-0.531943	7.162901	0.088300	-0.019616	0.052770	-0.673584	-0.354736	-0.349609	-0.406641	-0.296519	0.167846	-0.847672
13132		6.474405	-0.626172	7.177466	0.066812	-0.036728	0.025577	-0.673096	-0.356201	-0.350098	-0.406341	-0.296859	0.167476	-0.847769
13133		6.628756	-0.661907	7.218367	0.044466	-0.032935	0.014915	-0.671143	-0.358398	-0.341797	-0.406215	-0.297109	0.167230	-0.847791
13134		6.418064	-0.783355	7.122737	0.019701	-0.026849	0.027862	-0.675781	-0.351562	-0.349121	-0.406055	-0.297317	0.167215	-0.847798
13135		6.150975	-0.653246	7.140356	0.013475	-0.064730	0.055542	-0.677002	-0.357666	-0.342529	-0.405594	-0.297621	0.167462	-0.847863
13136		6.264563	-0.587911	7.325003	-0.014245	-0.093467	0.108327	-0.686035	-0.356201	-0.341553	-0.404907	-0.298050	0.168153	-0.847904
13137		6.189168	-0.545755	7.460242	-0.008716	-0.088418	0.115962	-0.680664	-0.353027	-0.343994	-0.404183	-0.298455	0.168844	-0.847970
13138		6.122195	-0.150017	7.577163	-0.010938	-0.074540	0.076753	-0.679688	-0.350098	-0.338135	-0.403703	-0.298749	0.169371	-0.847989
13139		6.173684	0.160108	7.641779	-0.082599	-0.055392	0.028925	-0.691895	-0.346191	-0.338867	-0.403708	-0.298782	0.170226	-0.847805
13140		6.065074	0.090862	7.623220	-0.122061	-0.041029	-0.067664	-0.683350	-0.353271	-0.346436	-0.404484	-0.298723	0.171092	-0.847281
13141		6.008564	0.302153	7.792048	-0.157616	-0.027271	-0.157147	-0.673096	-0.354492	-0.348145	-0.406163	-0.298490	0.171841	-0.846408
13142		6.085539	0.291904	7.922543	-0.221132	-0.003937	-0.206333	-0.687744	-0.357666	-0.352539	-0.408383	-0.297914	0.172770	-0.845353
13143		6.139801	0.266313	7.925956	-0.250315	0.041434	-0.246729	-0.683350	-0.355225	-0.343262	-0.411096	-0.296977	0.173668	-0.844183
13144		6.178703	0.084722	7.853883	-0.234827	0.079543	-0.289265	-0.682373	-0.352051	-0.342285	-0.414014	-0.295999	0.174235	-0.842983
13145		6.157254	-0.125841	7.745542	-0.199561	0.096154	-0.316936	-0.670654	-0.351318	-0.350586	-0.416934	-0.295093	0.174434	-0.841819
13146		6.200116	-0.339301	7.819158	-0.181206	0.095652	-0.312696	-0.672363	-0.354004	-0.359619	-0.419690	-0.294152	0.174454	-0.840774
13147		6.043604	-0.663954	7.825312	-0.145675	0.101473	-0.291247	-0.671143	-0.360840	-0.354492	-0.422243	-0.293190	0.174250	-0.839874
13148		6.060984	-0.969075	7.827552	-0.100901	0.094801	-0.251398	-0.667969	-0.363281	-0.354492	-0.424495	-0.292452	0.173880	-0.839072
13149		6.110701	-1.260547	7.774799	-0.077307	0.095480	-0.177796	-0.665527	-0.372559	-0.351074	-0.426168	-0.291688	0.173536	-0.838561
13150		6.244398	-1.464437	7.684071	-0.043964	0.098804	-0.068959	-0.658447	-0.363770	-0.365234	-0.427173	-0.290912	0.173228	-0.838383
13151		6.224641	-1.582345	7.455902	0.037740	0.110451	0.029147	-0.654297	-0.368896	-0.357422	-0.427081	-0.290017	0.172527	-0.838884
13152		6.042262	-1.522076	7.257195	0.120823	0.077399	0.121260	-0.662598	-0.361328	-0.363037	-0.426217	-0.289609	0.171619	-0.839650
13153		6.163747	-1.615401	7.288438	0.161780	0.033479	0.207636	-0.655273	-0.366455	-0.358154	-0.424392	-0.289470	0.170843	-0.840780
13154		6.086458	-1.508704	7.273302	0.178303	0.005244	0.269689	-0.657959	-0.359619	-0.357422	-0.422229	-0.289528	0.170197	-0.841979
13155		6.205730	-1.424839	7.261461	0.176177	-0.016232	0.305271	-0.659912	-0.366699	-0.359131	-0.419645	-0.289667	0.169760	-0.843311
13156		6.380446	-1.325779	7.414756	0.172635	-0.011642	0.331751	-0.658203	-0.366455	-0.361816	-0.417151	-0.289692	0.169398	-0.844611
13157		6.242498	-1.217619	7.413991	0.174991	0.011380	0.355654	-0.657715	-0.353516	-0.363281	-0.414590	-0.289470	0.168992	-0.846028
13158		6.139209	-0.971592	7.372316	0.158369	0.015054	0.368657	-0.676025	-0.358887	-0.356934	-0.411677	-0.289111	0.168727	-0.847625
13159		6.049969	-0.954925	7.361146	0.143181	0.010253	0.359439	-0.662842	-0.360596	-0.364258	-0.409039	-0.288866	0.168637	-0.849003
13160		6.101164	-0.720902	7.447312	0.134099	0.015598	0.321558	-0.661133	-0.351074	-0.354248	-0.406888	-0.288467	0.168440	-0.850210
13161		6.022941	-0.465097	7.399353	0.068183	0.029913	0.281884	-0.665771	-0.356934	-0.351807	-0.404968	-0.287917	0.168576	-0.851285
13162		6.178930	-0.330743	7.434793	0.007562	0.025200	0.219851	-0.667969	-0.354736	-0.362061	-0.403838	-0.287316	0.169026	-0.851936
13163		6.421216	-0.224125	7.412573	-0.042542	0.051688	0.147432	-0.668213	-0.348389	-0.350098	-0.403299	-0.286375	0.169551	-0.852403
13164		6.377090	-0.158302	7.328628	-0.094358	0.060467	0.065847	-0.665039	-0.355957	-0.357666	-0.403323	-0.285457	0.170233	-0.852564
13165		6.413117	-0.415103	7.274648	-0.133621	0.045892	0.016099	-0.660645	-0.349365	-0.360352	-0.403924	-0.284523	0.171107	-0.852417
13166		6.418838	-0.648386	7.303066	-0.124034	0.028103	0.014298	-0.664062	-0.348877	-0.360352	-0.404302	-0.283763	0.171953	-0.852321
13167		6.419759	-0.624016	7.383255	-0.102592	0.018080	0.040456	-0.660889	-0.345459	-0.359131	-0.404399	-0.283137	0.172755	-0.852321
13168		6.338103	-0.454232	7.486649	-0.090831	0.012692	0.053893	-0.658691	-0.348633	-0.361816	-0.404321	-0.282586	0.173519	-0.852385
13169		6.411793	-0.285898	7.526014	-0.091172	0.012918	0.055487	-0.664307	-0.349609	-0.360596	-0.404272	-0.282027	0.174284	-0.852438
13170		6.381746	-0.223275	7.460768	-0.080160	0.012049	0.044832	-0.662598	-0.341553	-0.358643	-0.404259	-0.281547	0.174947	-0.852466
13171		6.605622	-0.131091	7.514701	-0.076487	0.007509	0.032183	-0.664307	-0.346436	-0.353271	-0.404270	-0.281144	0.175560	-0.852468
13172		6.466861	-0.086932	7.432709	-0.065262	0.023808	0.011134	-0.668945	-0.340820	-0.357178	-0.404468	-0.280714	0.175983	-0.852429
13173		6.296320	-0.039652	7.295274	-0.062555	-0.002495	-0.012276	-0.663330	-0.341797	-0.360352	-0.404748	-0.280518	0.176411	-0.852272
13174		6.391718	-0.217843	7.387681	-0.046512	-0.031145	-0.021680	-0.662109	-0.347900	-0.353516	-0.405039	-0.280590	0.176788	-0.852032
13175		6.321975	-0.322779	7.467414	-0.014561	-0.037461	-0.022570	-0.657227	-0.343018	-0.349609	-0.405288	-0.280835	0.176950	-0.851799
13176		6.186743	-0.396905	7.589767	0.002313	-0.044091	-0.011960	-0.662109	-0.342529	-0.356934	-0.405403	-0.281171	0.177036	-0.851616
13177		6.142025	-0.611953	7.600874	0.018621	-0.043035	0.003089	-0.675537	-0.348633	-0.355225	-0.405350	-0.281524	0.177032	-0.851525
13178		6.184377	-0.691310	7.563547	0.042109	-0.043914	0.016016	-0.664551	-0.334961	-0.363525	-0.405144	-0.281961	0.176892	-0.851508
13179		6.172173	-0.799537	7.535349	0.035407	-0.048165	0.035125	-0.672119	-0.334473	-0.354248	-0.404783	-0.282341	0.176859	-0.851560
13180		6.172742	-0.838221	7.518359	0.040606	-0.055772	0.046812	-0.665039	-0.343262	-0.354248	-0.404311	-0.282801	0.176850	-0.851634
13181		6.173629	-0.910076	7.536439	0.043995	-0.064405	0.051473	-0.675537	-0.337158	-0.355957	-0.403844	-0.283317	0.176847	-0.851685
13182		6.154361	-0.944019	7.546621	0.048542	-0.068792	0.058849	-0.669189	-0.335938	-0.359375	-0.403247	-0.283872	0.176853	-0.851781
13183		6.140373	-0.939801	7.569001	0.038756	-0.062590	0.067571	-0.672607	-0.336914	-0.348877	-0.402638	-0.284312	0.176926	-0.851908
13184		6.103860	-0.859393	7.561211	0.023831	-0.056427	0.066968	-0.678955	-0.339600	-0.345703	-0.402085	-0.284688	0.177089	-0.852010
13185		6.394708	-0.758521	7.681479	-0.002366	-0.040726	0.067644	-0.675537	-0.338135	-0.349609	-0.401606	-0.284880	0.177387	-0.852109
13186		6.247858	-0.714623	7.513525	0.003866	-0.006461	0.056973	-0.674805	-0.335205	-0.348389	-0.401248	-0.284844	0.177496	-0.852267
13187		6.171849	-0.421241	7.466649	-0.007299	-0.021889	0.039802	-0.674805	-0.340088	-0.357178	-0.401009	-0.284905	0.177699	-0.852316
13188		6.288306	-0.289959	7.567225	-0.035089	-0.032906	0.031327	-0.675293	-0.334229	-0.343750	-0.400900	-0.284938	0.178096	-0.852274
13189		6.321970	-0.073108	7.643115	-0.033966	-0.019808	0.002728	-0.677979	-0.334473	-0.348389	-0.401000	-0.284973	0.178390	-0.852154
13190		6.320376	0.186221	7.642571	-0.043064	-0.012147	-0.029402	-0.675537	-0.337158	-0.354248	-0.401342	-0.284961	0.178635	-0.851945
13191		6.370801	0.482188	7.646145	-0.061498	-0.005408	-0.060721	-0.677002	-0.332520	-0.357178	-0.401986	-0.284863	0.178892	-0.851621
13192		6.344793	0.750555	7.676917	-0.073826	0.005136	-0.108473	-0.669922	-0.334229	-0.355957	-0.402963	-0.284712	0.179087	-0.851169
13193		6.413828	1.001782	7.732598	-0.081701	0.007561	-0.166302	-0.671631	-0.339600	-0.351562	-0.404433	-0.284600	0.179173	-0.850491
13194		6.542035	1.183349	7.720782	-0.091638	0.012599	-0.221440	-0.673584	-0.335693	-0.356445	-0.406350	-0.284549	0.179163	-0.849595
13195		6.496917	1.287599	7.703731	-0.083028	0.021976	-0.278309	-0.677490	-0.333740	-0.351074	-0.408582	-0.284531	0.178923	-0.848581
13196		6.271815	1.637848	7.800706	-0.076131	0.012874	-0.338855	-0.671631	-0.342773	-0.353271	-0.411143	-0.284746	0.178534	-0.847353
13197		6.359034	1.915781	8.115187	-0.096657	-0.000918	-0.406288	-0.670410	-0.353516	-0.360107	-0.414291	-0.285078	0.178132	-0.845791
13198		6.344219	2.118105	8.313247	-0.096188	0.027992	-0.489556	-0.665771	-0.349609	-0.361816	-0.418111	-0.285313	0.177374	-0.843990
13199		5.940797	2.431307	8.321577	-0.092678	0.050058	-0.577910	-0.668213	-0.353760	-0.358643	-0.422506	-0.285503	0.176310	-0.841957
13200		5.752094	2.614029	8.570989	-0.090669	0.052995	-0.655123	-0.655518	-0.357910	-0.370361	-0.427383	-0.285839	0.175032	-0.839645
13201		5.703975	2.788964	8.884938	-0.081667	0.094370	-0.725612	-0.650879	-0.369873	-0.357666	-0.432819	-0.285890	0.173329	-0.837192
13202		5.513484	3.023873	9.069722	-0.060500	0.141492	-0.806687	-0.648438	-0.370850	-0.376709	-0.438891	-0.285918	0.171079	-0.834480
13203		5.649673	3.347616	9.203194	-0.070632	0.191829	-0.881747	-0.641357	-0.386963	-0.379150	-0.445441	-0.285501	0.168525	-0.831667
13204		5.712908	3.360572	9.205039	-0.068918	0.246258	-0.993741	-0.636719	-0.400146	-0.385742	-0.452901	-0.284869	0.165419	-0.828473
13205		5.669694	3.642170	9.142925	-0.066977	0.284273	-1.124263	-0.625732	-0.400879	-0.386963	-0.461285	-0.284127	0.161800	-0.824808
13206		6.041730	3.508659	9.317777	-0.103051	0.315164	-1.246030	-0.615479	-0.409912	-0.399414	-0.470498	-0.283142	0.158041	-0.820662
13207		6.494412	3.246226	9.352189	-0.108893	0.393313	-1.365069	-0.608154	-0.425049	-0.405029	-0.480562	-0.281624	0.153716	-0.816161
13208		6.139979	3.213950	9.148949	-0.100480	0.437961	-1.453970	-0.589355	-0.428223	-0.410889	-0.491203	-0.279930	0.148923	-0.811284
13209		6.318174	2.816471	9.201132	-0.058423	0.435953	-1.494529	-0.576416	-0.444580	-0.421631	-0.501910	-0.278372	0.143760	-0.806181
13210		6.331838	3.010029	9.342107	0.013047	0.473005	-1.514112	-0.565430	-0.457764	-0.435059	-0.512644	-0.276863	0.137848	-0.800962
13211		5.786262	3.369198	9.561086	0.009813	0.480642	-1.525765	-0.554443	-0.471924	-0.447754	-0.523464	-0.275350	0.131807	-0.795484
13212		6.155008	2.962142	10.024198	0.056994	0.511373	-1.583274	-0.532227	-0.489990	-0.451660	-0.534543	-0.273931	0.125100	-0.789668
13213		6.257819	2.506948	10.206939	0.142278	0.608773	-1.608585	-0.519287	-0.504150	-0.469727	-0.545588	-0.272225	0.117299	-0.783880
13214		5.918298	2.428753	10.194713	0.189110	0.660752	-1.566544	-0.491699	-0.512451	-0.472168	-0.556182	-0.270284	0.109024	-0.778281
13215		5.854691	2.108705	10.174760	0.252522	0.679167	-1.493595	-0.482178	-0.541992	-0.476318	-0.566058	-0.268384	0.100393	-0.772961
13216		5.776628	2.646192	10.419856	0.308928	0.711246	-1.421626	-0.468262	-0.549805	-0.487549	-0.575256	-0.266421	0.091393	-0.767950
13217		5.438102	2.941685	10.601862	0.330616	0.748587	-1.387343	-0.447266	-0.566406	-0.487305	-0.584101	-0.264236	0.082136	-0.763059
13218		5.389757	2.657461	10.773093	0.412251	0.782170	-1.369352	-0.440430	-0.595459	-0.498291	-0.592559	-0.262163	0.072221	-0.758241
13219		5.546331	2.019413	10.939913	0.545864	0.821793	-1.243633	-0.410645	-0.614258	-0.498047	-0.599837	-0.260365	0.061531	-0.754069
13220		5.308857	1.682744	11.002453	0.727365	0.852037	-1.104672	-0.392334	-0.636475	-0.503906	-0.605748	-0.259154	0.049851	-0.750615
13221		4.742056	2.256636	11.071549	0.766964	0.859063	-0.990830	-0.370117	-0.646240	-0.492432	-0.610752	-0.257995	0.038139	-0.747641
13222		4.401801	2.623718	11.317536	0.742693	0.861694	-0.930641	-0.362549	-0.668945	-0.491455	-0.615329	-0.256624	0.026699	-0.744850
13223		4.236363	3.195121	11.627067	0.706204	0.921597	-0.975205	-0.351074	-0.700195	-0.489746	-0.620169	-0.254650	0.015086	-0.741833
13224		3.817261	3.605102	11.640042	0.623594	1.000084	-1.074537	-0.327393	-0.719482	-0.491943	-0.625695	-0.251722	0.003371	-0.738329
13225		3.405789	3.370249	11.603926	0.541814	1.039967	-1.125213	-0.299072	-0.732910	-0.489990	-0.631824	-0.248052	-0.008091	-0.734304
13226		3.633848	2.980668	11.863248	0.553505	1.096995	-1.123181	-0.275879	-0.751709	-0.475342	-0.637839	-0.244039	-0.019900	-0.730212
13227		3.476674	2.824840	11.895805	0.609965	1.193603	-1.098932	-0.251465	-0.777100	-0.477539	-0.643409	-0.239690	-0.032510	-0.726303
13228		3.081491	3.382937	11.895069	0.541998	1.257800	-1.094086	-0.232910	-0.784668	-0.474121	-0.648969	-0.234532	-0.045013	-0.722362
13229		3.360415	3.125994	11.776272	0.440519	1.315697	-1.133846	-0.213867	-0.811768	-0.465576	-0.654704	-0.228407	-0.057301	-0.718268
13230		3.661579	2.828444	11.362477	0.395748	1.405938	-1.164352	-0.178955	-0.831299	-0.458008	-0.660435	-0.221425	-0.069860	-0.714085
13231		3.626072	2.396040	10.672118	0.410011	1.440731	-1.133074	-0.157227	-0.838623	-0.454590	-0.665845	-0.214281	-0.082584	-0.709869
13232		3.787547	2.038626	10.151124	0.445205	1.421977	-1.025776	-0.127441	-0.851562	-0.437500	-0.670317	-0.207464	-0.095200	-0.706096
13233		3.800019	1.997273	9.815222	0.506645	1.377515	-0.901660	-0.106445	-0.868652	-0.428711	-0.673850	-0.201310	-0.107667	-0.702715
13234		3.375411	2.381446	9.701752	0.535905	1.329300	-0.821979	-0.087891	-0.883057	-0.419434	-0.676734	-0.195637	-0.119862	-0.699564
13235		3.110301	2.219779	9.568781	0.540971	1.305820	-0.807399	-0.061768	-0.896484	-0.407227	-0.679375	-0.190108	-0.131894	-0.696357
13236		3.195717	1.603844	8.973947	0.544476	1.309939	-0.754324	-0.044434	-0.906738	-0.398438	-0.681604	-0.184609	-0.143832	-0.693288
13237		3.275750	1.215544	8.020699	0.591918	1.302745	-0.621811	-0.019775	-0.915283	-0.389404	-0.682839	-0.179547	-0.155758	-0.690821
13238		3.331815	1.563758	7.076948	0.632083	1.232167	-0.528630	-0.010742	-0.923340	-0.371826	-0.683496	-0.175225	-0.167315	-0.688575
13239		3.266832	1.701003	6.565387	0.604721	1.104718	-0.461656	0.008789	-0.937012	-0.354004	-0.683819	-0.171547	-0.177858	-0.686535
13240		3.217987	1.531177	6.454821	0.578442	0.991998	-0.408206	0.023193	-0.941650	-0.345703	-0.683993	-0.168442	-0.187483	-0.684566
13241		3.413777	1.385312	6.220008	0.545031	0.930840	-0.341617	0.031250	-0.947754	-0.338379	-0.683865	-0.165596	-0.196434	-0.682877
13242		3.277354	0.651974	5.439626	0.622971	0.858462	-0.260568	0.036377	-0.951904	-0.319580	-0.683200	-0.163729	-0.205270	-0.681392
13243		3.001437	1.083976	5.087994	0.688245	0.735192	-0.131099	0.054199	-0.966553	-0.302734	-0.681844	-0.163146	-0.213563	-0.680341
13244		2.492424	1.511999	5.134066	0.614211	0.594866	-0.016723	0.059814	-0.975586	-0.295166	-0.680069	-0.163121	-0.220465	-0.679921
13245		2.303794	1.715245	5.332436	0.526504	0.511641	-0.020372	0.056396	-0.982910	-0.294189	-0.678559	-0.163064	-0.226378	-0.679501
13246		2.073109	2.387331	5.259223	0.366954	0.484334	-0.065719	0.066650	-0.984619	-0.287598	-0.677663	-0.162205	-0.231251	-0.678959
13247		2.348384	1.699382	4.671286	0.230447	0.434220	-0.088907	0.062744	-0.987305	-0.274414	-0.677196	-0.160830	-0.235078	-0.678437
13248		2.734667	1.143607	4.183807	0.278289	0.361482	-0.069818	0.066162	-0.984131	-0.274170	-0.676554	-0.160139	-0.238747	-0.677960
13249		2.612536	1.741441	3.882245	0.225978	0.264005	-0.046946	0.077881	-0.993652	-0.272461	-0.676040	-0.159757	-0.241522	-0.677580
13250		2.873606	1.338333	3.648712	0.119775	0.153190	-0.074472	0.067383	-1.000244	-0.263672	-0.676045	-0.159355	-0.243095	-0.677107
13251		3.233640	0.388659	3.453139	0.124376	0.083032	-0.154938	0.077881	-0.994385	-0.261963	-0.676639	-0.159222	-0.244391	-0.676078
13252		3.080665	-0.018125	3.363773	0.027624	-0.037784	-0.147670	0.085938	-0.991211	-0.263184	-0.677567	-0.159248	-0.244433	-0.675127
13253		3.050187	-0.458878	3.544883	-0.159343	-0.208810	-0.018458	0.085205	-0.992676	-0.271729	-0.678365	-0.159449	-0.242268	-0.675058
13254		2.948926	-0.525887	4.038524	-0.233935	-0.346650	0.117852	0.072998	-0.988281	-0.281494	-0.678770	-0.160281	-0.238703	-0.675723
13255		2.637298	-0.179467	4.611829	-0.262693	-0.441111	0.213113	0.072754	-0.989502	-0.280029	-0.679016	-0.161717	-0.234261	-0.676688
13256		2.421660	-0.288114	5.070842	-0.298924	-0.518403	0.281599	0.064697	-0.971191	-0.284912	-0.678902	-0.163468	-0.229090	-0.678151
13257		2.221329	0.041013	5.627634	-0.399954	-0.602887	0.374515	0.053711	-0.969727	-0.291748	-0.678784	-0.165359	-0.222671	-0.679946
13258		2.117087	0.464472	6.280286	-0.542465	-0.669550	0.453073	0.042725	-0.968750	-0.306152	-0.678262	-0.166889	-0.214974	-0.682565
13259		2.203421	0.425413	6.488392	-0.591017	-0.709468	0.490161	0.030518	-0.959717	-0.312500	-0.677893	-0.168488	-0.206642	-0.685107
13260		2.189702	1.189617	6.778654	-0.621249	-0.768497	0.516586	0.021729	-0.960693	-0.321777	-0.677483	-0.170278	-0.197729	-0.687696
13261		1.997294	1.584953	7.394824	-0.742053	-0.853272	0.552014	0.016846	-0.950684	-0.337646	-0.676831	-0.171842	-0.187615	-0.690776
13262		2.134020	1.788132	8.096648	-0.824968	-0.898667	0.572898	-0.016846	-0.942383	-0.348877	-0.676685	-0.173310	-0.176604	-0.693449
13263		1.912819	2.140262	8.556118	-0.831170	-0.911183	0.617046	-0.018555	-0.927734	-0.364990	-0.675926	-0.174783	-0.165444	-0.696565
13264		1.770808	2.840196	9.130639	-0.787346	-0.927479	0.651182	-0.036865	-0.916504	-0.374023	-0.675047	-0.176644	-0.154327	-0.699494
13265		1.624701	3.295031	9.607929	-0.796093	-0.922681	0.659910	-0.053223	-0.899658	-0.383545	-0.673975	-0.178387	-0.143162	-0.702453
13266		2.059486	3.077279	9.786334	-0.794373	-0.893487	0.601659	-0.065186	-0.888428	-0.402588	-0.673079	-0.179854	-0.132251	-0.705073
13267		2.125813	2.785723	9.578280	-0.799488	-0.878964	0.669662	-0.076904	-0.872559	-0.411865	-0.671713	-0.181245	-0.121276	-0.707986
13268		2.514695	1.872757	9.356315	-0.686677	-0.928172	0.830216	-0.096924	-0.855469	-0.422363	-0.669219	-0.183682	-0.110435	-0.711485
13269		3.194546	1.406883	9.357874	-0.454383	-0.977597	1.091785	-0.115234	-0.843750	-0.422363	-0.664716	-0.187896	-0.100296	-0.716093
13270		3.080830	2.440613	9.793016	-0.358751	-1.052762	1.398048	-0.140869	-0.829590	-0.433105	-0.658214	-0.193294	-0.089807	-0.722029
13271		3.688407	2.867813	10.212948	-0.355076	-1.081267	1.561354	-0.157959	-0.816162	-0.430908	-0.650588	-0.198939	-0.078910	-0.728651
13272		3.855467	3.715684	10.290621	-0.379801	-1.037106	1.552517	-0.185303	-0.798828	-0.434570	-0.642995	-0.204113	-0.068077	-0.735025
13273		3.842155	4.311624	9.983157	-0.447841	-1.005336	1.414210	-0.207031	-0.785156	-0.436279	-0.635695	-0.208571	-0.057335	-0.741014
13274		3.997161	3.898646	9.853007	-0.516686	-0.988850	1.267560	-0.235840	-0.757568	-0.448730	-0.629274	-0.212446	-0.046518	-0.746135
13275		3.740065	2.573615	9.761083	-0.385566	-0.993414	1.290622	-0.247559	-0.752686	-0.441650	-0.622352	-0.217001	-0.036459	-0.751172
13276		3.647934	2.719051	10.263798	-0.243211	-1.030071	1.493829	-0.276855	-0.736572	-0.450439	-0.613774	-0.222533	-0.026740	-0.756998
13277		4.626619	1.783348	10.500692	-0.076034	-0.990516	1.626013	-0.290527	-0.721191	-0.440430	-0.603892	-0.228640	-0.018042	-0.763356
13278		4.879235	2.464611	10.349711	-0.006359	-0.915357	1.699727	-0.320557	-0.698486	-0.443359	-0.593240	-0.234566	-0.010030	-0.770029
13279		4.733058	4.149610	10.270085	-0.314299	-0.905217	1.686359	-0.342529	-0.685059	-0.436035	-0.583119	-0.238838	-0.000127	-0.776485
13280		4.939105	3.708277	9.949158	-0.526703	-0.873953	1.494126	-0.348389	-0.665527	-0.448486	-0.574519	-0.241816	0.010600	-0.781882
13281		5.272254	2.577188	9.838706	-0.425769	-0.841473	1.390515	-0.364502	-0.643311	-0.449707	-0.566271	-0.245023	0.020290	-0.786695
13282		5.288291	2.728735	10.273744	-0.320196	-0.822289	1.393976	-0.383789	-0.627930	-0.439941	-0.557678	-0.248553	0.029191	-0.791432
13283		5.715493	1.008680	10.382624	-0.273201	-0.790836	1.452319	-0.401855	-0.619873	-0.447021	-0.548502	-0.252030	0.037742	-0.796368
13284		5.505385	0.804178	10.425052	-0.128066	-0.754346	1.588110	-0.414062	-0.600830	-0.435547	-0.538019	-0.255831	0.045434	-0.801886
13285		5.310877	2.237871	10.590876	-0.261300	-0.761608	1.850629	-0.434326	-0.581055	-0.433594	-0.525928	-0.258916	0.054592	-0.808320
13286		5.600150	3.161510	10.406306	-0.267113	-0.697086	1.819801	-0.447021	-0.562744	-0.429932	-0.513942	-0.261481	0.063416	-0.814536
13287		6.199526	3.855248	10.202782	-0.294386	-0.604715	1.609543	-0.471924	-0.546143	-0.426514	-0.503367	-0.263351	0.071547	-0.819847
13288		6.329055	2.528890	9.695286	-0.279460	-0.541361	1.376592	-0.487061	-0.526855	-0.426514	-0.494296	-0.264942	0.078775	-0.824179
13289		6.257498	1.119919	9.649197	-0.219427	-0.558597	1.369996	-0.490234	-0.517090	-0.417969	-0.485049	-0.266863	0.085629	-0.828359
13290		5.819407	0.936741	9.888705	-0.165722	-0.579475	1.559566	-0.508057	-0.496094	-0.417480	-0.474275	-0.268962	0.092599	-0.833155
13291		5.365664	2.729178	10.476330	-0.254653	-0.574847	1.716228	-0.538330	-0.483887	-0.406494	-0.462516	-0.270498	0.100496	-0.838338
13292		5.572363	3.986826	10.449361	-0.324273	-0.480677	1.641207	-0.543701	-0.462158	-0.395752	-0.451414	-0.271111	0.108316	-0.843204
13293		6.062890	5.131773	10.040866	-0.369003	-0.352272	1.371638	-0.560059	-0.449463	-0.394531	-0.442342	-0.270849	0.115329	-0.847157
13294		6.273907	5.398336	9.332949	-0.462345	-0.261234	1.022485	-0.570068	-0.434326	-0.393555	-0.435979	-0.269906	0.121852	-0.849838
13295		6.126510	5.152075	9.008987	-0.552007	-0.247317	0.682301	-0.571045	-0.416260	-0.391357	-0.432209	-0.268868	0.128175	-0.851162
13296		6.086372	4.583157	9.054224	-0.624877	-0.257382	0.450045	-0.583252	-0.411133	-0.388672	-0.430216	-0.267878	0.134514	-0.851505
13297		5.654486	3.730084	9.110202	-0.584259	-0.243031	0.340375	-0.589600	-0.405518	-0.377197	-0.428909	-0.267046	0.140256	-0.851500
13298		5.318445	3.333852	9.055456	-0.462850	-0.220299	0.342331	-0.601562	-0.399414	-0.384521	-0.427331	-0.266479	0.145047	-0.851668
13299		5.731514	2.856466	9.045442	-0.317535	-0.181436	0.405056	-0.607910	-0.386963	-0.381836	-0.425022	-0.266073	0.148798	-0.852303
13300		6.147214	2.251197	8.715908	-0.153255	-0.131142	0.426049	-0.604004	-0.384521	-0.375000	-0.422255	-0.265862	0.151243	-0.853314
13301		6.455291	1.964267	8.295439	-0.080386	-0.152722	0.462958	-0.604736	-0.375732	-0.374268	-0.419030	-0.266012	0.153321	-0.854485
13302		6.624581	1.679577	8.034313	-0.067213	-0.206428	0.531050	-0.623291	-0.372559	-0.388184	-0.415214	-0.266500	0.155639	-0.855776
13303		6.883366	1.586730	7.885498	0.000838	-0.231843	0.523344	-0.629150	-0.360107	-0.373291	-0.411260	-0.267410	0.157537	-0.857052
13304		6.760019	1.677486	7.745986	0.055386	-0.245652	0.505262	-0.627930	-0.361572	-0.372803	-0.407288	-0.268627	0.159047	-0.858289
13305		6.633552	1.272948	7.621563	0.106552	-0.271354	0.497196	-0.634277	-0.353027	-0.367188	-0.403216	-0.270208	0.160255	-0.859490
13306		6.607794	1.053920	7.503062	0.179132	-0.276382	0.502963	-0.639648	-0.358398	-0.360107	-0.398923	-0.272057	0.160968	-0.860775
13307		6.190515	1.158180	7.458970	0.222339	-0.306132	0.511609	-0.650879	-0.354004	-0.354980	-0.394421	-0.274246	0.161485	-0.862058
13308		5.957322	1.361969	7.722494	0.221583	-0.332785	0.475584	-0.647461	-0.338867	-0.353027	-0.390133	-0.276667	0.162007	-0.863137
13309		6.087016	1.202876	8.079190	0.192082	-0.311892	0.376810	-0.651611	-0.342041	-0.344482	-0.386644	-0.278969	0.162440	-0.863884
13310		6.075042	0.851132	8.071513	0.169692	-0.268822	0.245121	-0.659424	-0.344971	-0.348389	-0.384207	-0.281065	0.162584	-0.864265
13311		5.821629	0.356704	8.080649	0.104372	-0.254251	0.162956	-0.672852	-0.335938	-0.346924	-0.382531	-0.282955	0.162957	-0.864321
13312		5.849513	-0.141855	8.201961	0.059495	-0.244593	0.121249	-0.668457	-0.332031	-0.343262	-0.381273	-0.284688	0.163522	-0.864202
13313		5.829455	-0.317131	8.375968	0.028970	-0.187650	0.113590	-0.667969	-0.334229	-0.333252	-0.380218	-0.285922	0.164106	-0.864148
13314		5.797893	-0.248282	8.413854	0.013552	-0.131333	0.082974	-0.669678	-0.331055	-0.335693	-0.379496	-0.286742	0.164549	-0.864109
13315		5.781167	-0.119207	8.243539	-0.024143	-0.093008	0.036717	-0.671631	-0.334473	-0.334473	-0.379250	-0.287229	0.165031	-0.863964
13316		5.900837	-0.078432	8.034412	-0.054762	-0.077029	-0.004646	-0.672852	-0.333496	-0.335938	-0.379396	-0.287561	0.165584	-0.863684
13317		5.944910	-0.105128	7.989257	-0.066768	-0.071012	-0.029890	-0.679688	-0.325928	-0.329590	-0.379760	-0.287845	0.166142	-0.863322
13318		5.970583	-0.140297	8.003883	-0.063619	-0.053915	-0.067178	-0.677734	-0.331787	-0.333984	-0.380409	-0.288066	0.166533	-0.862887
13319		5.959659	-0.298445	7.942672	-0.076397	-0.034305	-0.094837	-0.680908	-0.332031	-0.340088	-0.381314	-0.288145	0.166886	-0.862393
13320		5.942961	-0.476354	7.877251	-0.094120	-0.027552	-0.101956	-0.676270	-0.329834	-0.336182	-0.382321	-0.288127	0.167327	-0.861867
13321		5.974396	-0.486686	7.880408	-0.106794	-0.019218	-0.115495	-0.674561	-0.322998	-0.336914	-0.383467	-0.288026	0.167800	-0.861299
13322		5.910703	-0.488592	7.893143	-0.122004	0.006490	-0.144678	-0.683594	-0.326660	-0.332275	-0.384895	-0.287732	0.168230	-0.860677
13323		5.978660	-0.428395	7.805320	-0.145759	0.028848	-0.162244	-0.679688	-0.339111	-0.335449	-0.386535	-0.287225	0.168715	-0.860016
13324		6.146683	-0.621674	7.641338	-0.158055	0.033011	-0.184743	-0.676514	-0.332520	-0.341064	-0.388369	-0.286678	0.169220	-0.859273
13325		6.217990	-0.795552	7.376139	-0.141178	0.044124	-0.195694	-0.678223	-0.330811	-0.333252	-0.390256	-0.286120	0.169541	-0.858540
13326		6.220171	-0.904500	7.223586	-0.131152	0.026275	-0.193255	-0.677002	-0.331787	-0.343750	-0.392075	-0.285717	0.169854	-0.857783
13327		6.333112	-1.171911	7.362605	-0.125200	0.009582	-0.155547	-0.671387	-0.334229	-0.340576	-0.393585	-0.285399	0.170270	-0.857115
13328		6.309045	-1.421984	7.377584	-0.088694	0.018686	-0.113548	-0.673096	-0.337891	-0.343018	-0.394721	-0.285075	0.170496	-0.856656
13329		6.248246	-1.270042	7.348868	-0.064171	0.006850	-0.062939	-0.667236	-0.333008	-0.340332	-0.395419	-0.284843	0.170707	-0.856368
13330		6.248431	-1.178364	7.324466	-0.057230	-0.000489	-0.029607	-0.674561	-0.341553	-0.342529	-0.395853	-0.284639	0.170974	-0.856183
13331		6.383205	-1.096529	7.313454	-0.046200	-0.009263	-0.035568	-0.669189	-0.330811	-0.348389	-0.396291	-0.284542	0.171179	-0.855972
13332		6.372359	-1.150276	7.307392	-0.054385	-0.013387	-0.029587	-0.673096	-0.333740	-0.343750	-0.396699	-0.284439	0.171471	-0.855758
13333		6.251384	-1.052544	7.424157	-0.061127	-0.020905	-0.032812	-0.676025	-0.333008	-0.341064	-0.397136	-0.284371	0.171829	-0.855506
13334		6.222151	-0.901159	7.546074	-0.097134	-0.018052	-0.033215	-0.676758	-0.338379	-0.349609	-0.397665	-0.284164	0.172435	-0.855207
13335		6.167466	-0.793931	7.520518	-0.117395	-0.006430	-0.042366	-0.671631	-0.333984	-0.339355	-0.398323	-0.283821	0.173126	-0.854875
13336		6.241352	-0.668775	7.492839	-0.124390	-0.000722	-0.056242	-0.670410	-0.335938	-0.339600	-0.399105	-0.283432	0.173814	-0.854500
13337		6.197770	-0.654422	7.440175	-0.123044	-0.001841	-0.060407	-0.672363	-0.335938	-0.345703	-0.399911	-0.283062	0.174487	-0.854108
13338		6.299344	-0.621762	7.454272	-0.115387	-0.006217	-0.063030	-0.673340	-0.333740	-0.339844	-0.400710	-0.282753	0.175114	-0.853708
13339		6.373937	-0.628183	7.473333	-0.110131	-0.006223	-0.059047	-0.668213	-0.328613	-0.350098	-0.401469	-0.282455	0.175713	-0.853327
13340		6.456728	-0.657930	7.423091	-0.083898	0.000212	-0.059690	-0.680908	-0.324219	-0.339844	-0.402179	-0.282200	0.176102	-0.852997
13341		6.277492	-0.612657	7.382744	-0.061052	-0.004253	-0.066476	-0.674805	-0.335449	-0.349365	-0.402878	-0.282063	0.176328	-0.852665
13342		6.142992	-0.781585	7.522354	-0.050570	-0.026783	-0.061680	-0.683838	-0.332520	-0.342773	-0.403484	-0.282115	0.176566	-0.852312
13343		6.162816	-0.814965	7.692226	-0.039396	-0.028096	-0.031634	-0.682129	-0.340332	-0.336182	-0.403849	-0.282170	0.176801	-0.852073
13344		6.119910	-0.642160	7.685646	-0.031205	-0.019294	-0.010676	-0.679199	-0.327393	-0.341797	-0.404058	-0.282159	0.176996	-0.851936
13345		6.244737	-0.446599	7.711585	-0.032302	-0.002785	-0.011174	-0.661133	-0.334717	-0.341797	-0.404298	-0.282027	0.177143	-0.851836
13346		6.123418	-0.314862	7.643858	-0.021483	0.011354	-0.049576	-0.675781	-0.333252	-0.342041	-0.404806	-0.281889	0.177074	-0.851655
13347		6.072480	-0.164199	7.623219	-0.031998	0.015569	-0.065689	-0.663330	-0.322754	-0.341064	-0.405459	-0.281709	0.177027	-0.851413
13348		5.923990	-0.196985	7.618678	-0.035737	0.008619	-0.077207	-0.677246	-0.334229	-0.348389	-0.406192	-0.281582	0.177002	-0.851111
13349		6.041497	-0.118095	7.736028	-0.023708	-0.006065	-0.094957	-0.671631	-0.332031	-0.342773	-0.407001	-0.281627	0.176897	-0.850731
13350		6.150827	-0.123568	7.785487	-0.013652	0.011013	-0.115865	-0.674805	-0.325928	-0.341309	-0.407959	-0.281616	0.176613	-0.850335
13351		5.995976	-0.105397	7.789720	-0.003015	0.013932	-0.141100	-0.665527	-0.327881	-0.349121	-0.409075	-0.281657	0.176183	-0.849874
13352		6.144201	-0.228646	7.865149	-0.003813	0.018158	-0.161527	-0.673340	-0.335693	-0.344971	-0.410342	-0.281696	0.175693	-0.849352
13353		6.192861	-0.480434	7.892319	0.006371	0.032054	-0.176671	-0.671143	-0.343262	-0.348145	-0.411713	-0.281692	0.175048	-0.848823
13354		6.254644	-0.549338	7.781722	-0.005597	0.039156	-0.176139	-0.673584	-0.333008	-0.349365	-0.413117	-0.281596	0.174462	-0.848293
13355		6.265655	-0.642611	7.596201	-0.017555	0.039730	-0.177879	-0.666748	-0.346436	-0.343506	-0.414561	-0.281456	0.173954	-0.847739
13356		6.233969	-0.539343	7.546757	-0.013948	0.025640	-0.177856	-0.672119	-0.346680	-0.353271	-0.415975	-0.281427	0.173470	-0.847155
13357		6.242397	-0.506428	7.522797	-0.021395	0.019505	-0.168299	-0.672852	-0.353760	-0.352783	-0.417329	-0.281402	0.173081	-0.846577
13358		6.286276	-0.563804	7.452081	-0.009081	0.019280	-0.174632	-0.666260	-0.347412	-0.345947	-0.418698	-0.281430	0.172591	-0.845991
13359		6.275113	-0.606336	7.368986	0.000495	0.013585	-0.175534	-0.660400	-0.352783	-0.347656	-0.420042	-0.281532	0.172051	-0.845401
13360		6.286271	-0.619828	7.287597	0.002622	0.009001	-0.167974	-0.663574	-0.355225	-0.352295	-0.421319	-0.281663	0.171530	-0.844827
13361		6.208909	-0.613367	7.218399	0.001442	-0.016339	-0.151110	-0.662598	-0.360107	-0.347412	-0.422444	-0.281944	0.171146	-0.844250
13362		6.334126	-0.580458	7.385715	0.004025	-0.041703	-0.138177	-0.660889	-0.345947	-0.349365	-0.423436	-0.282395	0.170864	-0.843659
13363		6.546495	-0.513267	7.540619	0.015392	-0.025509	-0.129825	-0.657959	-0.357666	-0.359375	-0.424364	-0.282759	0.170465	-0.843151
13364		6.323065	-0.298509	7.506752	0.026271	0.002930	-0.147011	-0.656250	-0.354736	-0.354248	-0.425427	-0.282987	0.169849	-0.842663
13365		6.404968	0.017770	7.563273	-0.008299	0.017858	-0.163771	-0.661133	-0.361084	-0.343506	-0.426710	-0.283011	0.169383	-0.842100
13366		6.263444	0.115815	7.505765	-0.044533	0.036858	-0.201895	-0.650879	-0.362305	-0.361816	-0.428371	-0.282827	0.169012	-0.841393
13367		6.233307	0.385305	7.514019	-0.071959	0.038103	-0.248151	-0.653564	-0.365723	-0.360840	-0.430422	-0.282601	0.168718	-0.840481
13368		6.275458	0.428671	7.594849	-0.088928	0.054909	-0.300225	-0.657715	-0.362061	-0.358887	-0.432898	-0.282269	0.168358	-0.839392
13369		6.109843	0.684872	7.688491	-0.101709	0.058943	-0.354541	-0.652344	-0.371338	-0.354248	-0.435786	-0.281938	0.167941	-0.838091
13370		5.982862	0.900246	7.828754	-0.136259	0.071460	-0.405880	-0.640137	-0.377441	-0.361328	-0.439127	-0.281463	0.167594	-0.836575
13371		5.839763	1.165517	8.060382	-0.172317	0.086030	-0.488103	-0.643311	-0.375732	-0.361084	-0.443139	-0.280865	0.167245	-0.834729
13372		5.688673	1.369809	8.312519	-0.218223	0.111035	-0.568709	-0.645996	-0.375000	-0.375244	-0.447842	-0.280031	0.166927	-0.832560
13373		5.665664	1.448489	8.537291	-0.258774	0.142972	-0.659480	-0.638672	-0.374023	-0.363525	-0.453300	-0.278940	0.166547	-0.830045
13374		5.683457	1.486744	8.645549	-0.295721	0.186216	-0.755796	-0.627930	-0.384766	-0.375488	-0.459550	-0.277533	0.166023	-0.827180
13375		5.624492	1.597104	8.695723	-0.337698	0.232846	-0.843918	-0.619873	-0.387695	-0.386475	-0.466544	-0.275749	0.165389	-0.823982
13376		5.613441	1.482681	8.762958	-0.374013	0.268878	-0.924594	-0.619873	-0.396729	-0.387695	-0.474192	-0.273668	0.164661	-0.820448
13377		5.720078	1.357718	8.826908	-0.386796	0.300130	-0.982477	-0.600098	-0.400146	-0.386963	-0.482269	-0.271380	0.163746	-0.816674
13378		5.744841	1.388970	8.719935	-0.402798	0.332038	-1.026675	-0.602539	-0.411377	-0.399658	-0.490684	-0.268845	0.162690	-0.812701
13379		5.765632	1.688168	8.585409	-0.444619	0.342152	-1.077616	-0.582275	-0.408447	-0.409668	-0.499502	-0.266112	0.161741	-0.808407
13380		5.882939	1.574482	8.399733	-0.470119	0.340489	-1.140046	-0.580078	-0.423340	-0.414062	-0.508740	-0.263338	0.160809	-0.803727
13381		5.737823	1.683205	8.185409	-0.460364	0.312670	-1.197586	-0.566406	-0.422852	-0.429199	-0.518244	-0.260837	0.159779	-0.798660
13382		5.288158	2.292473	8.059328	-0.508747	0.213340	-1.233922	-0.565918	-0.441895	-0.428223	-0.527898	-0.258804	0.159395	-0.793056
13383		5.814273	2.745264	8.389147	-0.599785	0.082704	-1.291794	-0.549561	-0.439209	-0.434326	-0.537885	-0.257276	0.160034	-0.786688
13384		7.215455	2.305453	9.216069	-0.646212	0.159913	-1.341867	-0.533203	-0.442871	-0.441406	-0.548323	-0.255062	0.160493	-0.780081
13385		6.324781	1.724902	9.200572	-0.471506	0.350069	-1.405499	-0.534180	-0.447754	-0.446289	-0.558970	-0.252455	0.158782	-0.773697
13386		5.355598	1.871230	9.037930	-0.293043	0.383235	-1.350886	-0.519043	-0.458252	-0.459229	-0.568848	-0.250354	0.155851	-0.767754
13387		5.433580	1.457959	9.122032	-0.184139	0.350815	-1.194224	-0.506348	-0.467529	-0.459961	-0.577380	-0.248740	0.152678	-0.762529
13388		5.528934	1.161093	9.354076	-0.003383	0.334391	-1.031728	-0.496094	-0.469971	-0.472900	-0.584427	-0.247866	0.148753	-0.758209
13389		5.769167	1.595458	9.920426	0.137388	0.375156	-0.866505	-0.476562	-0.483887	-0.466064	-0.590146	-0.247194	0.144068	-0.754896
13390		5.591585	1.862991	10.129044	0.248103	0.457132	-0.754103	-0.474609	-0.494141	-0.477295	-0.594990	-0.246399	0.138501	-0.752391
13391		5.425960	2.488895	10.284101	0.277429	0.536213	-0.718058	-0.466553	-0.502441	-0.479492	-0.599602	-0.245196	0.132420	-0.750215
13392		4.880467	2.684057	10.234286	0.293891	0.584404	-0.723425	-0.447510	-0.509521	-0.474121	-0.604226	-0.243762	0.125969	-0.748079
13393		4.829256	2.822200	10.523624	0.347811	0.594954	-0.747074	-0.445557	-0.520996	-0.482178	-0.608855	-0.242539	0.119065	-0.745851
13394		4.982123	2.964606	10.957070	0.399753	0.650365	-0.812314	-0.426758	-0.535156	-0.490723	-0.613789	-0.241279	0.111408	-0.743395
13395		4.762136	2.768837	11.101337	0.412888	0.731457	-0.863208	-0.412109	-0.548096	-0.488770	-0.619026	-0.239605	0.103135	-0.740783
13396		4.558354	2.671412	11.209102	0.421562	0.794750	-0.891518	-0.397949	-0.554932	-0.493408	-0.624406	-0.237581	0.094408	-0.738079
13397		4.753272	2.584613	11.251749	0.382823	0.861320	-0.883471	-0.386719	-0.578369	-0.497803	-0.629790	-0.234907	0.085572	-0.735433
13398		4.859133	2.603918	11.040947	0.382131	0.938348	-0.902500	-0.357910	-0.586914	-0.495605	-0.635266	-0.231738	0.076285	-0.732745
13399		4.728311	2.486208	10.671053	0.416088	0.990273	-0.912117	-0.338867	-0.601807	-0.506348	-0.640679	-0.228403	0.066483	-0.730029
13400		4.505933	2.520790	10.556355	0.439520	0.985780	-0.901671	-0.333740	-0.620850	-0.493408	-0.645889	-0.225179	0.056572	-0.727270
13401		4.614575	2.478746	10.622280	0.456632	0.984831	-0.920974	-0.319336	-0.633789	-0.493896	-0.651088	-0.222029	0.046516	-0.724310
13402		4.534738	2.357402	10.727376	0.443114	1.006661	-0.942180	-0.299316	-0.648193	-0.501221	-0.656350	-0.218646	0.036378	-0.721162
13403		4.569246	2.028100	10.758482	0.406364	1.029991	-0.936899	-0.276611	-0.664062	-0.497559	-0.661556	-0.214884	0.026339	-0.717966
13404		4.898443	1.201957	10.456533	0.443060	1.070006	-0.905204	-0.257568	-0.685791	-0.505615	-0.666412	-0.211042	0.015916	-0.714914
13405		4.804464	0.861289	9.792135	0.563625	1.067806	-0.852612	-0.249756	-0.701660	-0.489502	-0.670638	-0.207840	0.004885	-0.712056
13406		4.295277	1.048763	9.467658	0.614116	0.975296	-0.745879	-0.227539	-0.721191	-0.485352	-0.674040	-0.205433	-0.005735	-0.709531
13407		3.442153	1.305352	9.872285	0.622383	0.863909	-0.642862	-0.212646	-0.739746	-0.482666	-0.676742	-0.203709	-0.015593	-0.707305
13408		3.561690	1.929749	10.652206	0.544062	0.850512	-0.579367	-0.204346	-0.754639	-0.477783	-0.679132	-0.201605	-0.024797	-0.705351
13409		3.757951	2.303047	10.693810	0.480175	0.964421	-0.625875	-0.188965	-0.762207	-0.470459	-0.681808	-0.198437	-0.034341	-0.703264
13410		3.657713	2.998685	10.154437	0.358795	1.055972	-0.706851	-0.177246	-0.776367	-0.468262	-0.685053	-0.193995	-0.043817	-0.700820
13411		3.473220	3.363251	9.495821	0.237446	1.048680	-0.776338	-0.148438	-0.788574	-0.456787	-0.688815	-0.188854	-0.052643	-0.697923
13412		3.231433	2.649852	9.351105	0.240581	0.948502	-0.805195	-0.132080	-0.799072	-0.459473	-0.692700	-0.184280	-0.060948	-0.694617
13413		3.028318	1.695489	9.860237	0.454589	0.874749	-0.712188	-0.115234	-0.814697	-0.449463	-0.695609	-0.181397	-0.069917	-0.691617
13414		2.318579	2.181216	10.499542	0.595779	0.877930	-0.450783	-0.104736	-0.823242	-0.434570	-0.696727	-0.179446	-0.079307	-0.689986
13415		2.122276	3.017196	10.797039	0.649932	0.929432	-0.225424	-0.089600	-0.837891	-0.434082	-0.696352	-0.177640	-0.088958	-0.689656
13416		2.683958	3.835245	10.642448	0.706095	1.029006	-0.182088	-0.074951	-0.839844	-0.422852	-0.695529	-0.175598	-0.099427	-0.689579
13417		2.511919	4.372280	10.091365	0.760158	1.098591	-0.338894	-0.071045	-0.864014	-0.414551	-0.695405	-0.173319	-0.110818	-0.688543
13418		1.818801	4.920690	9.788547	0.668306	1.084391	-0.552398	-0.048584	-0.873291	-0.395264	-0.696514	-0.170369	-0.121894	-0.686283
13419		1.439789	3.922897	9.779625	0.529973	1.054046	-0.660258	-0.036133	-0.886230	-0.397705	-0.698449	-0.166663	-0.132128	-0.683326
13420		1.921713	2.727010	9.730130	0.527078	1.104054	-0.620621	-0.020996	-0.898193	-0.386719	-0.700016	-0.162677	-0.142561	-0.680581
13421		2.444681	1.999965	8.881115	0.655081	1.198960	-0.523238	-0.008057	-0.913818	-0.377441	-0.700645	-0.158992	-0.154112	-0.678283
13422		2.210499	2.245275	7.625160	0.711359	1.182843	-0.415655	0.011230	-0.914795	-0.359619	-0.700509	-0.155843	-0.165709	-0.676417
13423		2.298067	2.322348	6.942974	0.666366	1.042369	-0.377277	0.025635	-0.925781	-0.348877	-0.700318	-0.153258	-0.176151	-0.674565
13424		2.705900	1.827934	6.759366	0.582644	0.972011	-0.374845	0.038818	-0.931152	-0.331543	-0.700248	-0.150570	-0.185678	-0.672685
13425		2.502285	1.377130	6.193734	0.574847	0.963957	-0.408034	0.052002	-0.943848	-0.323730	-0.700318	-0.147821	-0.195126	-0.670545
13426		2.445919	1.202284	5.460100	0.517655	0.923915	-0.420965	0.062744	-0.949951	-0.318604	-0.700530	-0.144929	-0.204004	-0.668308
13427		2.962331	0.708373	4.708911	0.383956	0.830429	-0.425377	0.081055	-0.953369	-0.315674	-0.701033	-0.141763	-0.211568	-0.666104
13428		3.296399	-0.303139	3.940851	0.324482	0.696544	-0.404699	0.086914	-0.953125	-0.297363	-0.701686	-0.139026	-0.217969	-0.663926
13429		2.918340	-0.726947	3.521987	0.381515	0.527363	-0.296586	0.087158	-0.959229	-0.293213	-0.701954	-0.137753	-0.223545	-0.662051
13430		2.273251	-0.776704	3.453774	0.417049	0.360116	-0.128640	0.094971	-0.969971	-0.284424	-0.701550	-0.137923	-0.228124	-0.660881
13431		2.024245	-0.087258	3.665323	0.307714	0.262345	0.020669	0.105225	-0.967285	-0.282471	-0.700626	-0.138276	-0.231341	-0.660669
13432		2.598063	0.251319	3.479112	0.056983	0.207952	0.087507	0.100342	-0.967529	-0.283936	-0.699726	-0.137594	-0.232770	-0.661263
13433		3.464597	0.087962	2.901239	-0.094856	0.140009	-0.015990	0.095703	-0.962646	-0.279785	-0.699704	-0.136204	-0.233071	-0.661469
13434		3.191365	-0.291028	2.207867	-0.203605	-0.002192	-0.092926	0.105957	-0.950928	-0.286621	-0.700506	-0.134820	-0.232017	-0.661273
13435		2.687210	-0.840204	2.393686	-0.309731	-0.243426	-0.029469	0.093262	-0.953369	-0.282715	-0.701543	-0.134275	-0.228883	-0.661377
13436		2.851924	-1.302060	3.240585	-0.349674	-0.418218	0.146610	0.093262	-0.957275	-0.297363	-0.701980	-0.134795	-0.224293	-0.662380
13437		3.180957	-1.162166	3.934633	-0.290396	-0.495792	0.353514	0.089111	-0.952393	-0.301270	-0.701338	-0.136474	-0.219323	-0.664377
13438		3.012064	-0.274398	4.314376	-0.269409	-0.582380	0.485659	0.079102	-0.957275	-0.303955	-0.700076	-0.138993	-0.213787	-0.666985
13439		2.615009	0.583051	4.923816	-0.389683	-0.712706	0.514963	0.062012	-0.944580	-0.313965	-0.698988	-0.141581	-0.206761	-0.669791
13440		2.567532	0.830034	5.863800	-0.574410	-0.802312	0.519254	0.054932	-0.940430	-0.324463	-0.698198	-0.143592	-0.198147	-0.672784
13441		2.627977	0.456136	6.401630	-0.645005	-0.825188	0.499521	0.043457	-0.935791	-0.336426	-0.697581	-0.145275	-0.188996	-0.675689
13442		2.787583	0.281482	6.721478	-0.646061	-0.843979	0.565165	0.029053	-0.921875	-0.347412	-0.696560	-0.147146	-0.179617	-0.678888
13443		3.321255	-1.042250	6.684636	-0.539568	-0.918716	0.777254	0.008789	-0.917480	-0.352295	-0.694246	-0.150358	-0.170110	-0.682992
13444		3.746376	-0.856833	6.867729	-0.269794	-1.042725	1.115665	-0.010498	-0.908447	-0.365723	-0.689746	-0.156290	-0.160952	-0.688417
13445		3.213811	1.304820	7.512855	-0.260504	-1.188761	1.435411	-0.036377	-0.896973	-0.369385	-0.683456	-0.163504	-0.150536	-0.695337
13446		3.185654	1.817398	8.426215	-0.340409	-1.291045	1.523923	-0.069092	-0.891846	-0.377441	-0.676708	-0.170918	-0.138899	-0.702539
13447		4.204812	1.387169	9.200543	-0.291610	-1.235585	1.439772	-0.087402	-0.873779	-0.381104	-0.670135	-0.178135	-0.127928	-0.709099
13448		3.973440	1.521883	9.238452	-0.305635	-1.156639	1.436330	-0.114014	-0.866943	-0.376953	-0.663620	-0.184763	-0.117237	-0.715351
13449		3.487884	2.500916	9.215274	-0.443166	-1.229365	1.491940	-0.148193	-0.854004	-0.395020	-0.656627	-0.191052	-0.105223	-0.721989
13450		3.073418	4.328981	10.088805	-0.736077	-1.311868	1.508825	-0.169434	-0.830322	-0.396484	-0.649997	-0.196186	-0.090911	-0.728526
13451		3.783910	3.615324	10.925164	-0.879727	-1.308178	1.377294	-0.188721	-0.827148	-0.396484	-0.644360	-0.200347	-0.075907	-0.734098
13452		4.857792	2.609509	11.232880	-0.715315	-1.126370	1.124071	-0.216797	-0.795410	-0.409668	-0.639940	-0.204045	-0.063248	-0.738135
13453		4.164825	1.669178	10.788250	-0.692177	-1.020107	1.210279	-0.228760	-0.776611	-0.421143	-0.634271	-0.207219	-0.051194	-0.743062
13454		3.906522	1.911694	10.669553	-0.541372	-1.099959	1.479804	-0.246826	-0.752930	-0.415283	-0.626558	-0.211740	-0.039166	-0.749038
13455		3.997911	3.535797	11.331603	-0.622272	-1.171913	1.763197	-0.274170	-0.728516	-0.424561	-0.617053	-0.216304	-0.025740	-0.756171
13456		4.845355	2.917475	11.711170	-0.391847	-1.118856	1.723298	-0.296631	-0.710205	-0.418701	-0.607172	-0.221629	-0.014104	-0.762905
13457		5.749784	2.558744	11.670775	-0.162313	-0.961834	1.691895	-0.307617	-0.690918	-0.416260	-0.596872	-0.227039	-0.004776	-0.769529
13458		6.067634	1.375161	10.782667	-0.088222	-0.889910	1.817996	-0.336426	-0.679688	-0.417236	-0.585454	-0.232289	0.003960	-0.776705
13459		4.881227	3.487226	10.638511	-0.187989	-0.965664	2.105014	-0.355957	-0.660400	-0.420166	-0.572174	-0.237443	0.014268	-0.784878
13460		4.949459	3.928765	11.209789	-0.296351	-1.074001	2.275724	-0.377686	-0.630615	-0.416504	-0.557741	-0.242660	0.026124	-0.793321
13461		6.580410	3.105781	11.564080	0.014585	-0.954995	2.123591	-0.399658	-0.620850	-0.406494	-0.543478	-0.248457	0.035041	-0.801045
13462		6.814971	2.849602	10.926767	0.239759	-0.754252	1.950019	-0.420654	-0.611572	-0.410645	-0.529778	-0.253891	0.041166	-0.808196
13463		6.123221	2.610952	10.044478	0.095327	-0.761478	1.919174	-0.433594	-0.581543	-0.406738	-0.516426	-0.258662	0.048210	-0.814907
13464		5.405730	2.865622	10.259044	-0.162365	-0.873034	2.078092	-0.454834	-0.567871	-0.394775	-0.502336	-0.262927	0.057801	-0.821698
13465		5.529777	3.868531	11.050096	-0.237566	-0.883267	2.191821	-0.481445	-0.548584	-0.392822	-0.487437	-0.266784	0.068163	-0.828605
13466		5.821314	4.598347	11.084593	-0.103496	-0.727026	2.030339	-0.494385	-0.526123	-0.386475	-0.473265	-0.270095	0.076564	-0.834989
13467		6.251646	5.473418	10.947914	-0.045574	-0.551554	1.686361	-0.516113	-0.514648	-0.379639	-0.461338	-0.272555	0.083054	-0.840228
13468		6.453398	5.657409	10.478339	-0.292091	-0.418737	1.318270	-0.527344	-0.495850	-0.374023	-0.452554	-0.273344	0.089885	-0.844037
13469		6.358651	5.060512	9.801275	-0.613928	-0.367278	0.961911	-0.543701	-0.473633	-0.374023	-0.446992	-0.272793	0.097941	-0.846280
13470		6.290651	4.314510	9.361977	-0.810125	-0.377568	0.743417	-0.551270	-0.469482	-0.381348	-0.443364	-0.271739	0.106892	-0.847444
13471		6.381432	3.889215	9.155365	-0.818587	-0.381049	0.596567	-0.550537	-0.451660	-0.383301	-0.440747	-0.270788	0.115556	-0.847975
13472		5.989602	3.760699	9.061288	-0.775308	-0.385623	0.541908	-0.569824	-0.441406	-0.384766	-0.438380	-0.270064	0.123783	-0.848273
13473		5.801016	3.440301	9.142079	-0.650113	-0.410517	0.574309	-0.575928	-0.425781	-0.382568	-0.435444	-0.269924	0.131264	-0.848705
13474		5.881779	3.392606	9.315319	-0.469606	-0.401867	0.638430	-0.595947	-0.415039	-0.374512	-0.431631	-0.270293	0.137558	-0.849538
13475		6.003960	3.513772	9.336547	-0.303200	-0.367212	0.666391	-0.597412	-0.408691	-0.371094	-0.427262	-0.270972	0.142591	-0.850699
13476		6.129756	3.779703	9.151276	-0.230377	-0.337756	0.636493	-0.607178	-0.397949	-0.363037	-0.422956	-0.271728	0.146914	-0.851874
13477		6.054180	3.662972	8.778699	-0.214509	-0.324692	0.565755	-0.614502	-0.382324	-0.364258	-0.419116	-0.272527	0.150899	-0.852819
13478		6.152167	3.526952	8.498982	-0.194267	-0.319562	0.456741	-0.621094	-0.375244	-0.368652	-0.415998	-0.273492	0.154457	-0.853399
13479		6.262640	2.896634	8.104877	-0.180502	-0.317299	0.359864	-0.633545	-0.368652	-0.363525	-0.413532	-0.274612	0.157673	-0.853650
13480		6.422764	2.177039	7.843522	-0.118468	-0.334269	0.282152	-0.634277	-0.364502	-0.359863	-0.411447	-0.276167	0.160316	-0.853664
13481		6.925144	1.418032	7.872596	-0.065905	-0.347427	0.240860	-0.641357	-0.361816	-0.354004	-0.409512	-0.278051	0.162526	-0.853565
13482		6.766941	0.771288	7.754857	-0.006850	-0.326939	0.242149	-0.649902	-0.360596	-0.344971	-0.407454	-0.279987	0.164242	-0.853588
13483		6.413858	0.742526	7.836724	0.042243	-0.337234	0.261909	-0.660400	-0.351807	-0.344727	-0.405121	-0.282135	0.165685	-0.853713
13484		6.249196	1.007954	8.077008	0.017685	-0.339998	0.262850	-0.657227	-0.347168	-0.340332	-0.402831	-0.284215	0.167308	-0.853790
13485		6.031415	0.816815	8.275998	-0.003661	-0.316779	0.206711	-0.661865	-0.354004	-0.327637	-0.401018	-0.286134	0.168867	-0.853696
13486		6.094559	0.403474	8.441218	0.026798	-0.288226	0.154398	-0.665039	-0.347168	-0.334473	-0.399541	-0.288022	0.169982	-0.853531
13487		6.083081	0.038623	8.392676	0.066147	-0.254782	0.144623	-0.675293	-0.335938	-0.327881	-0.398084	-0.289815	0.170679	-0.853467
13488		5.891257	-0.072045	8.343022	0.070123	-0.246029	0.153994	-0.674561	-0.348877	-0.328369	-0.396559	-0.291543	0.171338	-0.853456
13489		5.863347	-0.270741	8.352167	0.053359	-0.243002	0.163381	-0.678711	-0.338135	-0.320557	-0.395011	-0.293176	0.172125	-0.853456
13490		5.680414	-0.404331	8.371887	0.042432	-0.221999	0.174718	-0.681152	-0.335693	-0.322021	-0.393436	-0.294605	0.172946	-0.853525
13491		5.749013	-0.350482	8.570944	0.026062	-0.188022	0.172789	-0.691895	-0.335449	-0.321777	-0.391961	-0.295738	0.173765	-0.853646
13492		5.869725	-0.159415	8.599245	-0.022569	-0.115906	0.144475	-0.688477	-0.330811	-0.321289	-0.390910	-0.296238	0.174622	-0.853780
13493		5.667547	0.033606	8.321225	-0.085946	-0.054149	0.078716	-0.689209	-0.327393	-0.320801	-0.390573	-0.296184	0.175563	-0.853760
13494		5.715776	0.040236	8.126768	-0.145721	-0.031030	0.027485	-0.685791	-0.326416	-0.321777	-0.390780	-0.295845	0.176726	-0.853543
13495		5.807391	0.043410	8.020924	-0.187492	-0.014785	-0.005760	-0.693359	-0.318848	-0.315674	-0.391349	-0.295302	0.178048	-0.853195
13496		6.194317	-0.164119	7.976481	-0.180707	0.003452	-0.054561	-0.691895	-0.331543	-0.317627	-0.392275	-0.294721	0.179139	-0.852742
13497		6.381158	-0.206842	7.908699	-0.138710	0.040541	-0.096002	-0.686279	-0.331299	-0.315918	-0.393446	-0.294076	0.179707	-0.852306
13498		6.304510	-0.339692	7.750042	-0.114389	0.050589	-0.083291	-0.685547	-0.322266	-0.320557	-0.394481	-0.293418	0.180099	-0.851971
13499		6.366491	-0.573452	7.601504	-0.074487	0.033708	-0.062006	-0.685303	-0.336914	-0.323730	-0.395241	-0.292979	0.180314	-0.851724
13500		6.302971	-0.624088	7.513628	-0.029622	0.019443	-0.023379	-0.692139	-0.324463	-0.319092	-0.395597	-0.292731	0.180352	-0.851637
13501		6.287643	-0.606550	7.537423	-0.009389	0.007010	0.010662	-0.686523	-0.322754	-0.321045	-0.395642	-0.292586	0.180370	-0.851662
13502		6.381943	-0.707386	7.529841	0.007491	0.019757	0.025171	-0.686035	-0.330322	-0.312500	-0.395562	-0.292384	0.180262	-0.851791
13503		6.266914	-0.751479	7.388146	0.029862	0.034728	0.039595	-0.687500	-0.326904	-0.320068	-0.395348	-0.292127	0.179981	-0.852038
13504		6.406573	-0.732292	7.224682	0.024455	0.034842	0.053820	-0.684814	-0.328125	-0.316406	-0.395046	-0.291831	0.179774	-0.852323
13505		6.467011	-0.765519	7.074714	0.013549	0.031698	0.058506	-0.678955	-0.329102	-0.323975	-0.394733	-0.291513	0.179666	-0.852600
13506		6.592187	-0.832979	7.030326	0.026686	0.020990	0.054712	-0.686035	-0.322998	-0.325195	-0.394398	-0.291321	0.179491	-0.852857
13507		6.557693	-1.115219	6.997950	0.051279	0.008339	0.053281	-0.679443	-0.332031	-0.321045	-0.393995	-0.291303	0.179181	-0.853115
13508		6.519776	-1.308805	7.134838	0.075378	-0.004286	0.085686	-0.681885	-0.332275	-0.322754	-0.393285	-0.291404	0.178821	-0.853483
13509		6.298874	-1.388894	7.185644	0.095393	-0.010063	0.123507	-0.685791	-0.322266	-0.318359	-0.392247	-0.291556	0.178432	-0.853990
13510		6.312770	-1.310180	7.239497	0.103753	-0.019227	0.152195	-0.683105	-0.326904	-0.314209	-0.390971	-0.291756	0.178084	-0.854579
13511		6.450625	-1.279725	7.303073	0.102680	-0.012044	0.174853	-0.691650	-0.330811	-0.323730	-0.389546	-0.291867	0.177777	-0.855256
13512		6.359998	-1.096957	7.342718	0.095682	-0.004639	0.183820	-0.691650	-0.323486	-0.322021	-0.388084	-0.291888	0.177518	-0.855967
13513		6.456324	-0.882351	7.358382	0.062795	-0.001964	0.178910	-0.685791	-0.324463	-0.322754	-0.386740	-0.291791	0.177474	-0.856617
13514		6.446136	-0.708392	7.296126	0.040114	0.004804	0.139664	-0.682861	-0.323975	-0.321533	-0.385741	-0.291629	0.177475	-0.857123
13515		6.472943	-0.686816	7.277668	0.018515	0.007652	0.092396	-0.692383	-0.324463	-0.325195	-0.385135	-0.291447	0.177506	-0.857450
13516		6.457137	-0.698283	7.349920	-0.015598	0.002084	0.051793	-0.687012	-0.326660	-0.321289	-0.384895	-0.291256	0.177700	-0.857583
13517		6.445928	-0.836326	7.431212	-0.053709	0.014924	0.028179	-0.690186	-0.330811	-0.316162	-0.384934	-0.290887	0.178069	-0.857614
13518		6.328654	-0.950133	7.361677	-0.060719	0.023056	0.004391	-0.689697	-0.317627	-0.316406	-0.385173	-0.290472	0.178404	-0.857578
13519		6.299736	-0.925393	7.308526	-0.071427	0.019413	-0.005522	-0.688477	-0.316162	-0.320312	-0.385503	-0.290063	0.178803	-0.857485
13520		6.250686	-0.956278	7.357831	-0.076275	0.007972	-0.002189	-0.690430	-0.323242	-0.322510	-0.385803	-0.289715	0.179283	-0.857367
13521		6.422168	-1.035843	7.484370	-0.062243	0.012616	0.014907	-0.691650	-0.314453	-0.320557	-0.385955	-0.289354	0.179689	-0.857336
13522		6.467894	-0.990094	7.400210	-0.042745	0.033014	0.019159	-0.683105	-0.321045	-0.325195	-0.386059	-0.288903	0.179901	-0.857397
13523		6.451809	-0.832013	7.335482	-0.049417	0.028646	0.020070	-0.682861	-0.323730	-0.315918	-0.386166	-0.288460	0.180177	-0.857440
13524		6.464010	-0.814076	7.302840	-0.073964	0.015886	0.014647	-0.683838	-0.318604	-0.322021	-0.386352	-0.288038	0.180657	-0.857397
13525		6.484222	-0.852431	7.303140	-0.074185	0.013217	0.005585	-0.696533	-0.320068	-0.322266	-0.386599	-0.287648	0.181126	-0.857317
13526		6.460350	-0.848641	7.278538	-0.065400	0.007625	0.007783	-0.688721	-0.312988	-0.319824	-0.386801	-0.287324	0.181555	-0.857244
13527		6.427777	-0.851511	7.292494	-0.040687	-0.007177	0.016683	-0.686523	-0.319336	-0.324951	-0.386857	-0.287171	0.181877	-0.857202
13528		6.552609	-0.867858	7.363860	-0.016623	-0.008517	0.037541	-0.682617	-0.313232	-0.326172	-0.386705	-0.287075	0.182082	-0.857259
13529		6.312654	-0.847643	7.351910	0.020234	-0.003551	0.058172	-0.688721	-0.316895	-0.324951	-0.386325	-0.287031	0.182057	-0.857450
13530		6.340728	-0.739182	7.402529	0.035922	-0.023570	0.067837	-0.685059	-0.314453	-0.331543	-0.385808	-0.287166	0.182008	-0.857648
13531		6.431221	-0.719134	7.470969	0.039099	-0.021301	0.068169	-0.691162	-0.317627	-0.317871	-0.385285	-0.287295	0.181929	-0.857857
13532		6.295676	-0.683090	7.431833	0.043840	-0.018680	0.059926	-0.689209	-0.317139	-0.318604	-0.384813	-0.287433	0.181788	-0.858053
13533		6.189269	-0.617731	7.459893	0.026787	-0.026530	0.053265	-0.688232	-0.313232	-0.312988	-0.384417	-0.287583	0.181778	-0.858182
13534		6.450728	-0.556407	7.446836	0.015030	-0.038725	0.035318	-0.690918	-0.320557	-0.316895	-0.384159	-0.287809	0.181847	-0.858207
13535		6.659168	-0.728757	7.374052	0.026341	-0.003844	0.006301	-0.686523	-0.316406	-0.316650	-0.384135	-0.287867	0.181653	-0.858239
13536		6.447461	-0.621759	7.178471	0.041875	-0.007325	-0.015495	-0.690918	-0.311523	-0.318115	-0.384224	-0.288033	0.181308	-0.858217
13537		6.474326	-0.697029	7.242225	0.015676	-0.038170	-0.014737	-0.684814	-0.313477	-0.321533	-0.384323	-0.288336	0.181250	-0.858083
13538		6.488431	-0.786146	7.363413	0.013437	-0.037687	-0.010342	-0.696045	-0.320801	-0.318115	-0.384398	-0.288621	0.181217	-0.857961
13539		6.413282	-0.678036	7.383713	0.021965	-0.022594	-0.006450	-0.691162	-0.317871	-0.318115	-0.384447	-0.288822	0.181085	-0.857899
13540		6.391044	-0.392317	7.432161	0.016406	-0.020204	-0.007605	-0.685303	-0.322266	-0.326660	-0.384521	-0.288988	0.180981	-0.857832
13541		6.530481	-0.116571	7.431558	-0.001795	-0.017855	-0.039632	-0.692627	-0.319580	-0.319092	-0.384873	-0.289128	0.180922	-0.857640
13542		6.535115	0.064288	7.476694	-0.020847	-0.012456	-0.082149	-0.691162	-0.313965	-0.322754	-0.385580	-0.289236	0.180878	-0.857295
13543		6.590876	0.273915	7.453622	-0.036804	-0.008729	-0.126543	-0.690430	-0.321777	-0.324219	-0.386648	-0.289331	0.180827	-0.856792
13544		6.487591	0.492179	7.448337	-0.053345	-0.003594	-0.167219	-0.687744	-0.316895	-0.321777	-0.388056	-0.289399	0.180777	-0.856143
13545		6.499112	0.728595	7.431779	-0.064004	-0.007375	-0.213329	-0.692627	-0.317383	-0.321777	-0.389809	-0.289530	0.180700	-0.855318
13546		6.751768	0.772145	7.532598	-0.066256	0.005796	-0.263549	-0.690918	-0.328857	-0.326660	-0.391944	-0.289636	0.180472	-0.854354
13547		6.623265	0.868619	7.476160	-0.042830	0.019268	-0.315191	-0.680420	-0.331787	-0.322510	-0.394412	-0.289799	0.179902	-0.853282
13548		6.591033	1.026998	7.488019	-0.035460	0.011776	-0.366253	-0.678467	-0.326904	-0.325195	-0.397210	-0.290117	0.179177	-0.852028
13549		6.638353	1.025994	7.461713	-0.048485	0.002281	-0.428637	-0.676758	-0.331055	-0.321045	-0.400459	-0.290549	0.178419	-0.850518
13550		6.527179	0.921131	7.536338	-0.047914	0.000403	-0.488928	-0.673584	-0.329834	-0.331055	-0.404127	-0.291086	0.177512	-0.848788
13551		6.422181	0.916614	7.654304	-0.056944	-0.008223	-0.533476	-0.678711	-0.344482	-0.327148	-0.408111	-0.291713	0.176581	-0.846858
13552		6.708424	0.744767	7.826287	-0.057964	-0.004722	-0.566829	-0.665527	-0.357178	-0.331787	-0.412331	-0.292357	0.175557	-0.844802
13553		6.534030	0.735807	7.883268	-0.040570	0.026328	-0.594443	-0.675293	-0.354248	-0.340088	-0.416740	-0.292875	0.174228	-0.842731
13554		6.304900	0.945621	7.946282	-0.029804	0.024614	-0.617582	-0.660156	-0.364014	-0.333008	-0.421266	-0.293469	0.172768	-0.840573
13555		6.302807	1.142444	8.245098	-0.047321	0.028495	-0.661463	-0.661377	-0.365723	-0.338379	-0.426140	-0.294031	0.171298	-0.838217
13556		6.322664	1.314269	8.427323	-0.068687	0.066742	-0.712622	-0.660156	-0.363037	-0.344727	-0.431460	-0.294311	0.169708	-0.835717
13557		6.301938	1.336594	8.515620	-0.089507	0.092443	-0.772981	-0.650391	-0.384766	-0.346680	-0.437271	-0.294411	0.168010	-0.833000
13558		6.167164	1.513617	8.629815	-0.103105	0.109102	-0.824572	-0.646240	-0.380127	-0.356934	-0.443479	-0.294405	0.166206	-0.830077
13559		6.226263	1.612518	8.804999	-0.109746	0.132772	-0.853035	-0.640625	-0.396240	-0.354248	-0.449907	-0.294234	0.164277	-0.827057
13560		6.327170	1.815801	8.879422	-0.095394	0.190558	-0.880726	-0.629883	-0.400391	-0.355225	-0.456546	-0.293739	0.161949	-0.824048
13561		6.076745	2.131869	8.835405	-0.077225	0.235797	-0.906854	-0.616211	-0.407227	-0.364014	-0.463351	-0.293020	0.159246	-0.821027
13562		6.198400	2.513555	8.962110	-0.072242	0.242529	-0.930753	-0.616455	-0.421631	-0.366211	-0.470288	-0.292286	0.156407	-0.817885
13563		6.312670	2.821018	9.227057	-0.070465	0.288134	-0.964167	-0.606934	-0.428467	-0.379150	-0.477473	-0.291271	0.153279	-0.814669
13564		6.057938	3.117692	9.347083	-0.029451	0.332305	-1.029600	-0.596436	-0.437500	-0.376709	-0.485023	-0.290180	0.149519	-0.811291
13565		6.081144	3.585408	9.636090	-0.013282	0.363534	-1.099898	-0.588867	-0.445312	-0.394287	-0.493004	-0.289004	0.145331	-0.807653
13566		6.107649	3.781247	9.891072	-0.035209	0.411416	-1.156261	-0.578125	-0.456787	-0.400146	-0.501424	-0.287454	0.140935	-0.803792
13567		6.172165	3.818538	10.106478	0.009681	0.485072	-1.215823	-0.561279	-0.478271	-0.410889	-0.510164	-0.285635	0.135762	-0.799821
13568		6.105692	4.306400	10.285997	0.065174	0.569711	-1.291382	-0.545898	-0.485840	-0.405518	-0.519304	-0.283534	0.129653	-0.795689
13569		6.049754	4.615192	10.504304	0.048257	0.643833	-1.354204	-0.533691	-0.497314	-0.406494	-0.528901	-0.280893	0.123159	-0.791325
13570		6.375696	3.979755	10.492868	0.113416	0.719908	-1.436203	-0.518311	-0.516357	-0.421143	-0.538872	-0.278071	0.115676	-0.786710
13571		6.102825	3.935707	10.345892	0.225667	0.779618	-1.477592	-0.496338	-0.536133	-0.432617	-0.548807	-0.275347	0.107063	-0.782005
13572		6.065023	3.919749	10.460566	0.255060	0.781416	-1.467169	-0.476807	-0.549072	-0.439453	-0.558497	-0.272678	0.098247	-0.777223
13573		6.272256	3.790005	10.714919	0.281723	0.822566	-1.531570	-0.458984	-0.574707	-0.434814	-0.568458	-0.269860	0.088893	-0.772094
13574		6.129541	3.352372	10.765802	0.285284	0.890593	-1.604951	-0.441650	-0.581055	-0.438477	-0.578800	-0.266611	0.079004	-0.766595
13575		6.071789	2.646524	10.635532	0.286728	0.941835	-1.646911	-0.423096	-0.606689	-0.452148	-0.589293	-0.262997	0.068743	-0.760816
13576		6.326089	2.205106	10.458030	0.236838	0.992969	-1.647602	-0.398193	-0.630615	-0.448730	-0.599772	-0.258742	0.058527	-0.754917
13577		6.374549	1.644196	10.193432	0.200450	1.040886	-1.638730	-0.384033	-0.648193	-0.461426	-0.610136	-0.253926	0.048305	-0.748948
13578		6.418173	1.401801	9.947575	0.161413	1.074228	-1.601043	-0.357178	-0.668457	-0.454346	-0.620195	-0.248617	0.038229	-0.743025
13579		6.012096	1.480786	9.664956	0.140153	1.094239	-1.560338	-0.340088	-0.678711	-0.456787	-0.629889	-0.242994	0.028262	-0.737153
13580		5.769430	1.814704	9.441385	0.072324	1.095170	-1.507926	-0.317627	-0.697266	-0.459961	-0.639239	-0.236932	0.018811	-0.731357
13581		5.772597	1.560727	9.159294	0.080957	1.100245	-1.479844	-0.294922	-0.714355	-0.466064	-0.648244	-0.230821	0.009338	-0.725544
13582		5.613754	1.535502	8.792622	0.173580	1.100455	-1.415814	-0.277832	-0.721680	-0.451172	-0.656531	-0.225149	-0.000569	-0.719913
13583		5.278372	1.492371	8.422702	0.283088	1.052522	-1.271916	-0.258301	-0.749512	-0.460693	-0.663608	-0.220315	-0.010593	-0.714824
13584		4.980363	1.583497	8.281340	0.393021	0.969642	-1.102941	-0.241211	-0.767334	-0.457275	-0.669363	-0.216558	-0.020493	-0.710377
13585		4.606040	1.783138	8.469724	0.521315	0.884863	-0.980487	-0.220947	-0.787109	-0.448486	-0.674073	-0.214006	-0.030448	-0.706329
13586		4.482971	1.748040	8.882724	0.598811	0.844584	-0.884740	-0.206543	-0.795410	-0.439209	-0.677868	-0.212135	-0.040466	-0.702749
13587		4.202985	1.663704	8.879783	0.662374	0.834759	-0.782174	-0.193848	-0.818359	-0.446533	-0.680846	-0.210686	-0.050608	-0.699642
13588		3.863937	1.680249	8.645077	0.737675	0.798451	-0.620988	-0.176514	-0.820801	-0.437012	-0.682694	-0.209915	-0.060685	-0.697268
13589		3.489287	1.726994	8.518391	0.862298	0.719643	-0.434660	-0.162842	-0.843750	-0.427002	-0.683227	-0.210378	-0.070696	-0.695661
13590		3.259195	2.333638	8.831562	1.022376	0.653210	-0.295296	-0.159668	-0.854492	-0.406738	-0.682660	-0.212193	-0.080997	-0.694542
13591		3.203043	3.678699	9.075050	1.019596	0.626902	-0.211440	-0.147949	-0.876709	-0.401123	-0.681525	-0.214175	-0.090974	-0.693813
13592		2.716186	3.956215	9.160377	0.986341	0.617780	-0.286412	-0.142090	-0.889648	-0.378662	-0.680855	-0.215939	-0.100824	-0.692562
13593		2.950605	4.157527	9.425345	0.906127	0.636561	-0.429363	-0.137451	-0.902588	-0.375732	-0.681051	-0.216996	-0.110564	-0.690549
13594		2.896013	3.196922	8.904212	0.816752	0.702962	-0.475005	-0.113281	-0.911133	-0.367432	-0.681523	-0.217098	-0.120237	-0.688432
13595		2.906294	2.812249	8.221760	0.855967	0.702011	-0.425394	-0.101562	-0.927734	-0.354492	-0.681645	-0.217455	-0.130014	-0.686419
13596		2.740655	2.848289	7.697658	0.920456	0.657313	-0.367254	-0.092773	-0.947266	-0.337402	-0.681306	-0.218475	-0.139779	-0.684509
13597		2.216089	3.564057	7.797773	0.867059	0.584129	-0.354266	-0.089111	-0.954102	-0.326660	-0.681012	-0.219603	-0.148782	-0.682540
13598		2.372803	3.879830	7.971019	0.711231	0.583238	-0.459749	-0.081787	-0.964844	-0.308350	-0.681527	-0.219701	-0.157074	-0.680132
13599		2.801348	3.687809	7.593571	0.496342	0.659076	-0.663501	-0.069580	-0.968994	-0.299072	-0.683424	-0.217863	-0.164937	-0.676952
13600		3.094761	2.615282	6.577644	0.319370	0.697854	-0.802679	-0.041992	-0.975098	-0.295898	-0.686310	-0.214589	-0.172257	-0.673244
13601		3.469928	0.688243	5.353404	0.295087	0.651180	-0.770954	-0.034180	-0.979980	-0.288330	-0.689130	-0.211472	-0.179086	-0.669558
13602		3.565284	-0.261406	4.438543	0.479022	0.542419	-0.586952	-0.026855	-0.985107	-0.287598	-0.690768	-0.210286	-0.185960	-0.666362
13603		2.869805	-0.021173	4.026134	0.606089	0.348840	-0.313968	-0.012451	-0.990967	-0.274170	-0.690830	-0.211309	-0.191942	-0.664275
13604		2.520455	0.592689	4.237909	0.549748	0.139642	-0.145737	-0.004883	-1.005615	-0.264648	-0.690407	-0.213431	-0.196090	-0.662822
13605		2.526234	0.882474	4.817524	0.387397	0.037327	-0.144801	-0.020508	-1.002441	-0.255371	-0.690497	-0.215194	-0.198729	-0.661372
13606		2.218585	0.543387	5.132694	0.221214	0.029436	-0.239290	-0.009033	-1.005127	-0.259766	-0.691413	-0.215887	-0.200565	-0.659632
13607		1.929528	-0.005659	5.284354	0.045761	0.016484	-0.293240	-0.004395	-1.010010	-0.264160	-0.692857	-0.215534	-0.201465	-0.657956
13608		2.031854	-0.995245	5.347904	-0.105430	0.000194	-0.233811	-0.000488	-1.013672	-0.253174	-0.694270	-0.214495	-0.201326	-0.656848
13609		2.253253	-1.501895	5.086881	-0.157984	-0.010480	-0.078132	-0.000732	-1.000488	-0.265625	-0.695050	-0.213483	-0.200531	-0.656596
13610		2.279883	-0.993238	4.660594	-0.185176	-0.068651	0.128740	-0.004395	-1.015381	-0.258057	-0.694719	-0.212958	-0.198891	-0.657615
13611		2.733874	-0.288247	4.425854	-0.244908	-0.186401	0.263187	-0.005615	-0.996826	-0.265137	-0.694077	-0.212969	-0.195970	-0.659164
13612		3.203557	-0.042583	4.470782	-0.284335	-0.288003	0.293540	-0.019775	-0.993408	-0.268311	-0.693360	-0.213339	-0.192200	-0.660906
13613		3.266061	0.181615	4.499622	-0.365864	-0.367822	0.336921	-0.016357	-0.994141	-0.279785	-0.692801	-0.213762	-0.187406	-0.662730
13614		2.882157	0.412556	4.694870	-0.457259	-0.497515	0.429269	-0.039307	-0.983643	-0.287109	-0.691925	-0.214496	-0.181200	-0.665130
13615		2.942587	0.812855	5.194666	-0.490718	-0.612810	0.519377	-0.044922	-0.982422	-0.293457	-0.690620	-0.215790	-0.173985	-0.667988
13616		2.913852	0.969235	5.794841	-0.480651	-0.691335	0.596045	-0.054443	-0.977051	-0.301758	-0.688965	-0.217685	-0.166211	-0.671055
13617		3.260130	0.709569	6.340610	-0.436735	-0.728192	0.626759	-0.061768	-0.971191	-0.315430	-0.687077	-0.220072	-0.158392	-0.674097
13618		3.537105	0.045021	6.513942	-0.404017	-0.754772	0.719808	-0.085205	-0.961426	-0.319824	-0.684650	-0.222908	-0.150401	-0.677456
13619		3.266631	0.716567	6.789818	-0.457277	-0.844430	0.907422	-0.093018	-0.956543	-0.330322	-0.681183	-0.226155	-0.141241	-0.681832
13620		3.202292	1.791942	7.563512	-0.605398	-0.940160	0.996672	-0.120117	-0.953125	-0.340332	-0.677653	-0.229189	-0.130477	-0.686465
13621		3.502463	1.687145	8.187061	-0.677101	-0.952528	0.984722	-0.141113	-0.928955	-0.352295	-0.674144	-0.231840	-0.119241	-0.691058
13622		3.919763	1.350762	8.469870	-0.592088	-0.908464	0.932698	-0.152344	-0.927246	-0.355957	-0.670611	-0.234633	-0.108817	-0.695260
13623		4.000763	1.026220	8.292595	-0.597425	-0.898145	1.049795	-0.174072	-0.899658	-0.363281	-0.666431	-0.237407	-0.098146	-0.699910
13624		4.245444	0.945141	8.251535	-0.585303	-0.985145	1.291280	-0.205566	-0.894287	-0.381592	-0.660728	-0.240912	-0.086564	-0.705626
13625		5.135496	1.814658	8.382342	-0.530659	-1.053662	1.495091	-0.225586	-0.875488	-0.389404	-0.653547	-0.245216	-0.074496	-0.712176
13626		5.668904	2.632300	8.230784	-0.475598	-1.096355	1.551551	-0.247803	-0.852539	-0.395020	-0.645927	-0.250037	-0.062356	-0.718590
13627		6.040237	2.920276	8.083066	-0.487758	-1.170467	1.564171	-0.280762	-0.830811	-0.395508	-0.638226	-0.255165	-0.049675	-0.724632
13628		6.287216	1.931055	8.202504	-0.387784	-1.258382	1.636962	-0.303223	-0.815918	-0.400879	-0.629615	-0.261320	-0.036969	-0.730705
13629		6.182656	2.066407	8.984497	-0.167243	-1.347000	1.850571	-0.327393	-0.797363	-0.405518	-0.619209	-0.269125	-0.024628	-0.737256
13630		5.314692	3.843518	10.221407	-0.085676	-1.423778	2.145278	-0.359131	-0.774170	-0.402344	-0.606751	-0.277733	-0.011685	-0.744702
13631		5.536252	4.213619	11.177767	-0.023295	-1.383336	2.291675	-0.390869	-0.744385	-0.399902	-0.592995	-0.286262	0.001022	-0.752602
13632		6.453535	3.339049	11.303406	0.255655	-1.169162	2.194381	-0.429443	-0.730713	-0.402344	-0.578914	-0.294676	0.010690	-0.760204
13633		6.557745	2.599599	10.669750	0.434246	-0.960523	2.162733	-0.448975	-0.708984	-0.393555	-0.564358	-0.302497	0.018135	-0.767897
13634		6.047888	3.470428	10.391897	0.305219	-0.924882	2.253715	-0.470703	-0.690674	-0.385254	-0.549045	-0.309393	0.026432	-0.775968
13635		5.918191	4.704774	10.723826	-0.172595	-0.934845	2.280455	-0.496826	-0.660645	-0.376221	-0.534556	-0.314020	0.037920	-0.783711
13636		6.621994	3.598860	10.596284	-0.267662	-0.826947	2.006719	-0.515869	-0.638428	-0.381592	-0.521934	-0.317477	0.048811	-0.790197
13637		6.790658	3.716010	10.597256	-0.223204	-0.646466	1.770856	-0.535156	-0.612793	-0.377930	-0.510666	-0.319933	0.057981	-0.795928
13638		6.588172	2.708398	10.160135	-0.322530	-0.578411	1.677676	-0.554688	-0.590332	-0.371826	-0.500191	-0.321477	0.067251	-0.801211
13639		7.293126	1.080673	9.936861	-0.256080	-0.543438	1.685827	-0.560303	-0.572754	-0.358887	-0.489390	-0.322979	0.075933	-0.806484
13640		7.093623	1.548444	9.895962	-0.170862	-0.512669	1.821722	-0.576660	-0.552979	-0.365234	-0.477350	-0.324452	0.084262	-0.812261
13641		6.613016	3.003068	10.081529	-0.266610	-0.498650	1.873690	-0.591797	-0.525146	-0.363525	-0.465103	-0.325320	0.093298	-0.818011
13642		6.639424	4.562120	10.596590	-0.524449	-0.423255	1.728261	-0.613037	-0.506104	-0.350098	-0.454485	-0.324699	0.103372	-0.823000
13643		7.434781	3.846234	10.474268	-0.658093	-0.274923	1.421085	-0.619141	-0.481934	-0.353760	-0.446365	-0.322748	0.112932	-0.826945
13644		7.417398	3.485377	9.755809	-0.617162	-0.117475	1.227254	-0.616455	-0.456055	-0.350098	-0.439548	-0.319993	0.121072	-0.830508
13645		7.015708	2.827781	8.861894	-0.501013	-0.122214	1.300955	-0.631836	-0.444336	-0.343262	-0.431845	-0.317578	0.128594	-0.834337
13646		7.458400	3.869849	8.873352	-0.346342	-0.183675	1.399165	-0.641846	-0.428711	-0.343506	-0.422922	-0.315994	0.135492	-0.838407
13647		7.273879	5.689625	9.266501	-0.398985	-0.191078	1.335373	-0.645020	-0.397949	-0.341309	-0.414513	-0.314305	0.142584	-0.842058
13648		7.351906	6.340194	9.487843	-0.506289	-0.140580	1.036459	-0.653320	-0.391357	-0.329346	-0.408491	-0.312212	0.149437	-0.844587
13649		7.465257	5.649160	9.270544	-0.555483	-0.028741	0.710445	-0.660400	-0.376953	-0.326172	-0.404997	-0.309550	0.155376	-0.846177
13650		7.266098	4.271541	8.551143	-0.457083	0.025982	0.587050	-0.661377	-0.370361	-0.330078	-0.402166	-0.306984	0.160092	-0.847581
13651		7.292298	3.395286	7.862929	-0.228467	0.003180	0.657298	-0.666504	-0.359863	-0.325928	-0.398208	-0.305244	0.163430	-0.849439
13652		7.272565	3.524244	7.538523	-0.009923	-0.057891	0.797010	-0.672363	-0.353516	-0.332275	-0.392604	-0.304463	0.165763	-0.851873
13653		7.511636	3.803568	7.572586	0.135368	-0.109729	0.795633	-0.666992	-0.344238	-0.318115	-0.386551	-0.304518	0.167212	-0.854335
13654		7.646408	3.785468	7.563865	0.170347	-0.103874	0.630702	-0.681152	-0.341553	-0.316650	-0.381575	-0.304867	0.167958	-0.856298
13655		7.423799	3.232454	7.416803	0.074157	-0.091373	0.434585	-0.677979	-0.340332	-0.314453	-0.378250	-0.305094	0.168838	-0.857519
13656		7.394091	1.966742	7.272880	0.003468	-0.077514	0.317458	-0.686035	-0.333252	-0.312988	-0.375957	-0.305164	0.169871	-0.858298
13657		6.993908	1.291327	7.139034	0.031364	-0.049576	0.256523	-0.689941	-0.339111	-0.309570	-0.374064	-0.305210	0.170456	-0.858992
13658		6.709730	0.764683	7.013091	0.045165	-0.045852	0.228084	-0.693359	-0.326172	-0.311768	-0.372344	-0.305314	0.170852	-0.859624
13659		6.814923	0.332748	7.080657	0.032278	-0.073328	0.202595	-0.695312	-0.315918	-0.305908	-0.370797	-0.305611	0.171358	-0.860086
13660		6.877999	-0.006544	7.226538	-0.017052	-0.091434	0.202058	-0.695557	-0.321533	-0.314941	-0.369353	-0.305886	0.172269	-0.860427
13661		6.876279	-0.299673	7.290348	-0.039038	-0.089408	0.177947	-0.698730	-0.320801	-0.309814	-0.368140	-0.306114	0.173268	-0.860666
13662		6.616759	-0.547921	7.382036	-0.058400	-0.083282	0.132591	-0.697510	-0.325684	-0.306396	-0.367308	-0.306303	0.174271	-0.860751
13663		6.305524	-0.919048	7.615027	-0.073214	-0.089877	0.103608	-0.702637	-0.308838	-0.304443	-0.366713	-0.306536	0.175325	-0.860708
13664		6.354283	-1.098254	7.899558	-0.096894	-0.072112	0.116540	-0.707031	-0.319336	-0.311768	-0.366110	-0.306549	0.176526	-0.860715
13665		6.338171	-1.128623	7.822612	-0.130323	-0.046359	0.176828	-0.697754	-0.308594	-0.299805	-0.365196	-0.306185	0.178043	-0.860920
13666		6.400660	-0.858080	7.748350	-0.122610	-0.037743	0.217035	-0.706543	-0.310547	-0.300049	-0.363985	-0.305720	0.179579	-0.861279
13667		6.417716	-0.396638	7.729543	-0.138161	-0.028487	0.217945	-0.702148	-0.300537	-0.302734	-0.362820	-0.305138	0.181200	-0.861638
13668		6.330329	-0.039606	7.739718	-0.171618	-0.012672	0.166320	-0.716309	-0.299805	-0.299316	-0.362131	-0.304418	0.182879	-0.861827
13669		6.398915	-0.008714	7.775484	-0.204336	0.008535	0.092969	-0.702881	-0.303711	-0.301514	-0.362083	-0.303557	0.184539	-0.861797
13670		6.498215	-0.124127	7.731967	-0.222346	0.036658	0.036216	-0.711182	-0.299805	-0.299561	-0.362529	-0.302527	0.186098	-0.861637
13671		6.613281	-0.344510	7.600593	-0.226042	0.054404	0.005497	-0.704834	-0.293457	-0.292236	-0.363231	-0.301404	0.187548	-0.861420
13672		6.507376	-0.522828	7.343779	-0.214538	0.054287	0.029189	-0.700684	-0.295898	-0.297363	-0.363732	-0.300279	0.188973	-0.861290
13673		6.495731	-0.523723	7.242943	-0.155782	0.029302	0.089437	-0.708252	-0.296387	-0.304688	-0.363612	-0.299416	0.190202	-0.861371
13674		6.587381	-0.314303	7.210738	-0.073937	0.028688	0.119563	-0.700195	-0.287354	-0.295898	-0.363070	-0.298758	0.190919	-0.861669
13675		6.655313	-0.230175	7.107104	-0.042803	0.019562	0.104880	-0.707031	-0.291016	-0.294189	-0.362541	-0.298283	0.191401	-0.861950
13676		6.765904	-0.346338	7.039281	-0.035524	0.013275	0.074126	-0.703857	-0.288330	-0.296143	-0.362204	-0.297924	0.191772	-0.862133
13677		6.864913	-0.445643	6.981185	-0.034649	0.007205	0.041625	-0.710205	-0.286377	-0.295898	-0.362089	-0.297665	0.192074	-0.862203
13678		6.773187	-0.499425	6.932823	-0.030303	0.010373	0.036582	-0.713135	-0.283936	-0.302246	-0.362005	-0.297405	0.192321	-0.862273
13679		6.713196	-0.514577	6.875933	-0.001368	0.000650	0.034743	-0.709229	-0.280029	-0.308350	-0.361846	-0.297306	0.192385	-0.862360
13680		6.828730	-0.559718	6.838659	0.038680	-0.010415	0.037102	-0.709717	-0.289062	-0.305908	-0.361553	-0.297404	0.192200	-0.862490
13681		6.842975	-0.635169	6.761478	0.068012	-0.028566	0.064613	-0.704590	-0.284912	-0.303223	-0.360961	-0.297678	0.191926	-0.862704
13682		6.856835	-0.641892	6.778880	0.107793	-0.066324	0.070463	-0.712158	-0.289551	-0.299805	-0.360168	-0.298335	0.191495	-0.862905
13683		6.916108	-0.629859	6.987388	0.118705	-0.087231	0.048965	-0.700928	-0.291260	-0.291748	-0.359468	-0.299209	0.190993	-0.863005
13684		6.856288	-0.774680	7.151393	0.101186	-0.093764	0.017635	-0.713379	-0.289307	-0.294922	-0.359027	-0.300128	0.190559	-0.862966
13685		6.839134	-0.844274	7.229679	0.066038	-0.090621	-0.015955	-0.707031	-0.293701	-0.301758	-0.358920	-0.300973	0.190284	-0.862777
13686		6.662012	-0.920646	7.295731	0.026525	-0.078000	-0.054894	-0.712402	-0.288818	-0.296387	-0.359212	-0.301671	0.190157	-0.862439
13687		6.507649	-1.031698	7.329412	-0.013738	-0.073013	-0.096538	-0.714844	-0.288818	-0.294189	-0.359912	-0.302278	0.190200	-0.861926
13688		6.465563	-1.207058	7.407788	-0.051071	-0.064280	-0.121349	-0.708740	-0.291748	-0.291748	-0.360897	-0.302749	0.190422	-0.861299
13689		6.482554	-1.242229	7.459763	-0.081518	-0.041400	-0.120798	-0.704346	-0.287354	-0.293701	-0.361991	-0.302962	0.190794	-0.860682
13690		6.381915	-1.190962	7.452337	-0.104721	-0.020918	-0.116537	-0.707764	-0.291016	-0.291504	-0.363145	-0.302951	0.191282	-0.860092
13691		6.479925	-1.075975	7.435416	-0.124548	0.003881	-0.119841	-0.712402	-0.292725	-0.303467	-0.364411	-0.302706	0.191829	-0.859521
13692		6.544306	-0.918370	7.294507	-0.137126	0.033639	-0.144738	-0.715332	-0.292236	-0.294922	-0.365933	-0.302248	0.192311	-0.858927
13693		6.553821	-0.816516	7.145607	-0.155688	0.040390	-0.177860	-0.710449	-0.289795	-0.292236	-0.367749	-0.301737	0.192822	-0.858216
13694		6.753460	-0.927717	7.092033	-0.186954	0.036036	-0.208589	-0.704590	-0.295898	-0.292236	-0.369855	-0.301210	0.193490	-0.857346
13695		6.710148	-1.062449	7.025658	-0.187875	0.029533	-0.225003	-0.702393	-0.292236	-0.297363	-0.372067	-0.300751	0.194143	-0.856402
13696		6.600275	-1.038950	7.092058	-0.177436	0.009747	-0.221334	-0.704346	-0.302490	-0.299561	-0.374193	-0.300457	0.194792	-0.855431
13697		6.624572	-1.113132	7.186740	-0.164746	0.011114	-0.216933	-0.702148	-0.300781	-0.300293	-0.376256	-0.300185	0.195355	-0.854492
13698		6.553341	-1.170056	7.212413	-0.143844	0.023595	-0.206564	-0.717041	-0.301758	-0.303955	-0.378211	-0.299871	0.195756	-0.853647
13699		6.624287	-1.201125	7.176126	-0.134014	0.026423	-0.182241	-0.700439	-0.296875	-0.300049	-0.379972	-0.299527	0.196138	-0.852898
13700		6.695211	-1.250788	7.082947	-0.122884	0.033711	-0.166538	-0.707031	-0.306152	-0.301758	-0.381604	-0.299139	0.196457	-0.852232
13701		6.626747	-1.157315	6.883629	-0.105137	0.023351	-0.164972	-0.711426	-0.301270	-0.299072	-0.383162	-0.298878	0.196687	-0.851571
13702		6.718349	-1.096926	6.945128	-0.116358	0.001263	-0.157222	-0.705811	-0.302490	-0.303955	-0.384657	-0.298724	0.197087	-0.850858
13703		6.647782	-1.227150	7.028392	-0.102908	-0.005809	-0.163593	-0.698975	-0.299072	-0.303711	-0.386151	-0.298674	0.197398	-0.850127
13704		6.565175	-1.261709	7.107324	-0.095296	-0.009087	-0.158177	-0.700928	-0.302490	-0.304688	-0.387581	-0.298661	0.197679	-0.849415
13705		6.547879	-1.260963	7.142150	-0.096302	-0.012569	-0.136090	-0.698486	-0.298828	-0.302979	-0.388851	-0.298633	0.198034	-0.848761
13706		6.584665	-1.068021	7.145166	-0.091587	-0.000884	-0.118127	-0.704102	-0.304932	-0.310303	-0.390001	-0.298507	0.198362	-0.848201
13707		6.559301	-0.745111	7.112902	-0.093638	0.004411	-0.130527	-0.695068	-0.301025	-0.303467	-0.391251	-0.298356	0.198657	-0.847609
13708		6.578503	-0.611467	7.069605	-0.107900	0.005847	-0.150760	-0.701416	-0.305908	-0.309814	-0.392682	-0.298182	0.198997	-0.846929
13709		6.703632	-0.484500	7.023947	-0.107356	0.002756	-0.178122	-0.700195	-0.307373	-0.318115	-0.394298	-0.298077	0.199273	-0.846150
13710		6.697832	-0.371780	6.981186	-0.116828	0.003426	-0.211656	-0.706787	-0.313232	-0.305908	-0.396173	-0.297991	0.199530	-0.845243
13711		6.817043	-0.442607	7.069985	-0.113238	-0.014407	-0.247771	-0.705078	-0.306396	-0.302002	-0.398263	-0.298102	0.199729	-0.844174
13712		6.827353	-0.578092	7.119586	-0.106508	-0.013886	-0.264564	-0.695068	-0.304932	-0.310791	-0.400452	-0.298258	0.199834	-0.843058
13713		6.711902	-0.669228	7.185987	-0.093847	-0.026825	-0.266287	-0.688721	-0.307129	-0.312500	-0.402599	-0.298550	0.199889	-0.841919
13714		6.705869	-0.728596	7.344552	-0.086218	-0.033399	-0.264347	-0.691650	-0.314453	-0.309570	-0.404699	-0.298908	0.199914	-0.840778
13715		6.671912	-0.739210	7.477527	-0.069573	-0.020295	-0.245210	-0.697754	-0.318115	-0.309814	-0.406643	-0.299197	0.199826	-0.839757
13716		6.636451	-0.557833	7.453221	-0.060639	-0.010678	-0.238304	-0.695312	-0.317871	-0.303955	-0.408531	-0.299437	0.199658	-0.838795
13717		6.566866	-0.373206	7.446910	-0.051323	-0.003341	-0.225100	-0.700684	-0.319824	-0.320312	-0.410314	-0.299633	0.199431	-0.837908
13718		6.550978	-0.072071	7.524751	-0.042885	0.003784	-0.227307	-0.696289	-0.316895	-0.315186	-0.412101	-0.299812	0.199113	-0.837043
13719		6.553041	0.079864	7.569638	-0.037805	0.009117	-0.250723	-0.695068	-0.320557	-0.307373	-0.414045	-0.300008	0.198680	-0.836115
13720		6.484649	0.378110	7.638954	-0.047496	0.014394	-0.277713	-0.693848	-0.321777	-0.312500	-0.416207	-0.300178	0.198225	-0.835088
13721		6.436569	0.718950	7.735600	-0.064898	0.024648	-0.311914	-0.690674	-0.318604	-0.314209	-0.418665	-0.300271	0.197766	-0.833934
13722		6.498716	1.103925	7.856611	-0.090689	0.048035	-0.365289	-0.685059	-0.329102	-0.324951	-0.421592	-0.300197	0.197266	-0.832603
13723		6.418623	1.325063	7.946141	-0.107347	0.072695	-0.443882	-0.696533	-0.331055	-0.317139	-0.425140	-0.300020	0.196591	-0.831021
13724		6.470133	1.568131	8.058465	-0.135548	0.092429	-0.523753	-0.687500	-0.333740	-0.327393	-0.429336	-0.299732	0.195833	-0.829145
13725		6.298090	1.816970	8.180704	-0.166928	0.130488	-0.606775	-0.672119	-0.341309	-0.332031	-0.434233	-0.299197	0.194937	-0.826996
13726		6.341744	1.922220	8.266327	-0.193066	0.160068	-0.684860	-0.675049	-0.352295	-0.336914	-0.439767	-0.298482	0.193907	-0.824569
13727		6.480931	1.965276	8.345284	-0.183546	0.204445	-0.792022	-0.671875	-0.358643	-0.343262	-0.446064	-0.297657	0.192367	-0.821841
13728		6.435260	2.119717	8.426575	-0.202900	0.247677	-0.874490	-0.656006	-0.357666	-0.346191	-0.453017	-0.296580	0.190577	-0.818838
13729		6.552922	2.150459	8.585329	-0.222290	0.291716	-0.942659	-0.650635	-0.369385	-0.348389	-0.460522	-0.295218	0.188565	-0.815603
13730		6.488676	2.366106	8.586228	-0.243323	0.339433	-1.007164	-0.650635	-0.383301	-0.357666	-0.468555	-0.293530	0.186333	-0.812143
13731		6.599574	2.560400	8.599168	-0.265528	0.378114	-1.078712	-0.629639	-0.399902	-0.370850	-0.477142	-0.291578	0.183902	-0.808392
13732		7.113264	2.320753	8.580201	-0.276761	0.435561	-1.155035	-0.624512	-0.394287	-0.376221	-0.486309	-0.289281	0.181106	-0.804376
13733		7.100170	2.038145	8.337909	-0.218799	0.485709	-1.212776	-0.620117	-0.403809	-0.381836	-0.495739	-0.286935	0.177553	-0.800241
13734		7.126091	1.938636	8.144228	-0.169091	0.475980	-1.219252	-0.605957	-0.418213	-0.387207	-0.505018	-0.284835	0.173667	-0.796031
13735		7.139797	1.776897	8.062469	-0.123462	0.448186	-1.191030	-0.588867	-0.423340	-0.404541	-0.513901	-0.283036	0.169638	-0.791845
13736		7.365632	1.717855	8.169490	-0.037371	0.428302	-1.144665	-0.571777	-0.442627	-0.406738	-0.522190	-0.281641	0.165215	-0.787845
13737		7.225542	1.482562	8.135035	0.107961	0.423308	-1.093119	-0.566162	-0.458496	-0.422363	-0.529739	-0.280812	0.159961	-0.784177
13738		6.819484	1.690062	8.081156	0.238403	0.395003	-1.030506	-0.562012	-0.456055	-0.418945	-0.536487	-0.280634	0.154111	-0.780818
13739		6.617300	2.191644	8.315869	0.271332	0.351404	-0.989036	-0.542236	-0.472656	-0.432617	-0.542784	-0.280810	0.148324	-0.777516
13740		6.744721	2.077392	8.550784	0.281255	0.354699	-1.015714	-0.543457	-0.479736	-0.429688	-0.549189	-0.281018	0.142379	-0.774047
13741		6.840933	1.768098	8.522555	0.339887	0.391376	-1.027164	-0.537109	-0.505371	-0.437500	-0.555523	-0.281246	0.135847	-0.770610
13742		6.382007	1.704373	8.370669	0.417329	0.399072	-0.983986	-0.520508	-0.516846	-0.435303	-0.561356	-0.281708	0.128870	-0.767407
13743		6.197990	1.953193	8.430014	0.453126	0.370155	-0.932213	-0.517090	-0.531982	-0.439941	-0.566691	-0.282441	0.121909	-0.764347
13744		6.127652	2.166362	8.716313	0.477176	0.367082	-0.925341	-0.510986	-0.548828	-0.442871	-0.571874	-0.283275	0.114814	-0.761270
13745		6.142027	2.329260	9.209793	0.485543	0.375217	-0.974968	-0.498047	-0.555420	-0.448486	-0.577308	-0.284118	0.107499	-0.757916
13746		6.023717	2.111668	9.488465	0.468803	0.420973	-1.052238	-0.488281	-0.579346	-0.443359	-0.583252	-0.284631	0.099874	-0.754207
13747		5.798100	1.980448	9.473183	0.404915	0.463313	-1.082414	-0.483154	-0.597412	-0.448975	-0.589508	-0.284560	0.092361	-0.750317
13748		5.620787	1.511364	9.358444	0.380085	0.478556	-1.043618	-0.468994	-0.611816	-0.454590	-0.595528	-0.284209	0.085011	-0.746555
13749		5.929218	1.665924	9.399955	0.429741	0.514515	-0.972447	-0.454590	-0.627930	-0.454346	-0.600952	-0.283798	0.077334	-0.743192
13750		5.571156	1.901366	9.219609	0.510243	0.538800	-0.924331	-0.442871	-0.637451	-0.447021	-0.605843	-0.283578	0.069144	-0.740105
13751		5.568934	2.798337	9.308803	0.505773	0.530562	-0.926173	-0.435059	-0.655273	-0.457275	-0.610691	-0.283358	0.061014	-0.736914
13752		5.459730	2.756387	9.424123	0.439839	0.560285	-0.969946	-0.424316	-0.678223	-0.453613	-0.615916	-0.282611	0.053028	-0.733462
13753		5.219781	2.784863	9.484306	0.410428	0.594987	-1.006204	-0.406738	-0.692871	-0.449707	-0.621381	-0.281486	0.044953	-0.729815
13754		5.202002	2.492827	9.338708	0.433926	0.617945	-0.972790	-0.399902	-0.712891	-0.447998	-0.626529	-0.280297	0.036691	-0.726326
13755		4.947390	2.597882	9.232222	0.480031	0.622504	-0.902775	-0.388428	-0.724365	-0.437012	-0.631038	-0.279279	0.028283	-0.723184
13756		5.007232	2.490005	9.155918	0.544137	0.604736	-0.816654	-0.381104	-0.746582	-0.444092	-0.634789	-0.278658	0.019778	-0.720418
13757		5.073536	2.576853	9.154278	0.645025	0.616022	-0.720745	-0.363037	-0.757812	-0.439209	-0.637672	-0.278459	0.010832	-0.718135
13758		4.671117	3.141562	9.112527	0.717929	0.600805	-0.587046	-0.341064	-0.767822	-0.425293	-0.639542	-0.278695	0.001843	-0.716458
13759		4.994288	3.359400	9.103282	0.808756	0.576681	-0.520396	-0.339111	-0.796143	-0.416016	-0.640767	-0.279528	-0.007400	-0.715002
13760		4.829070	2.894305	8.897448	0.979361	0.560628	-0.446736	-0.333740	-0.818848	-0.407227	-0.641077	-0.281347	-0.017402	-0.713836
13761		4.573799	2.877228	8.905650	1.165042	0.482623	-0.310028	-0.326904	-0.836182	-0.389160	-0.640073	-0.284608	-0.027766	-0.713115
13762		4.529721	2.898936	8.983440	1.267162	0.403321	-0.144436	-0.318604	-0.847168	-0.379395	-0.637782	-0.288887	-0.037916	-0.712980
13763		4.109905	3.687247	9.268823	1.354131	0.355047	-0.097563	-0.327148	-0.865723	-0.368652	-0.634954	-0.293888	-0.048201	-0.712839
13764		3.589999	4.673675	9.706583	1.241687	0.354294	-0.157874	-0.309814	-0.876465	-0.342773	-0.632654	-0.298236	-0.057958	-0.712352
13765		3.119010	5.351358	10.049918	1.039440	0.396677	-0.352005	-0.310547	-0.904053	-0.325928	-0.631951	-0.301135	-0.067209	-0.710942
13766		3.282234	5.674562	10.292508	0.741096	0.497449	-0.585923	-0.292969	-0.917480	-0.321045	-0.633253	-0.301705	-0.075810	-0.708673
13767		3.356317	5.019478	9.854317	0.522198	0.647519	-0.785870	-0.285645	-0.932861	-0.315430	-0.636163	-0.300076	-0.084401	-0.705781
13768		3.070911	4.341042	9.303872	0.463115	0.732525	-0.847914	-0.264648	-0.940186	-0.306396	-0.639439	-0.297558	-0.093247	-0.702767
13769		3.242984	4.072189	9.058132	0.480537	0.757884	-0.794295	-0.254395	-0.948242	-0.294922	-0.642282	-0.294991	-0.102184	-0.700009
13770		3.334644	4.703004	8.863856	0.466987	0.800075	-0.745456	-0.235596	-0.960449	-0.288574	-0.644747	-0.292114	-0.111139	-0.697581
13771		3.178733	5.303711	8.574854	0.385810	0.844997	-0.791279	-0.217773	-0.971924	-0.277832	-0.647580	-0.288465	-0.119959	-0.695009
13772		3.359299	5.214901	8.262813	0.301540	0.855481	-0.843942	-0.201660	-0.977783	-0.268799	-0.650843	-0.284215	-0.128458	-0.692187
13773		3.771979	4.444080	7.624764	0.351317	0.857583	-0.858092	-0.189209	-0.983643	-0.269043	-0.653986	-0.280176	-0.137275	-0.689174
13774		3.847222	3.758359	6.811693	0.503319	0.812805	-0.788383	-0.176025	-0.991455	-0.250000	-0.656338	-0.277270	-0.146539	-0.686199
13775		3.418244	3.594479	6.286935	0.652045	0.697323	-0.678769	-0.158936	-1.001709	-0.247803	-0.657778	-0.275942	-0.155752	-0.683319
13776		3.138427	3.684405	6.386142	0.706700	0.574902	-0.582253	-0.143799	-1.009521	-0.238037	-0.658664	-0.275714	-0.164358	-0.680537
13777		3.074509	3.820072	6.728425	0.664069	0.527199	-0.579856	-0.129395	-1.023926	-0.224609	-0.659662	-0.275507	-0.172434	-0.677649
13778		2.925951	3.143775	6.659407	0.566137	0.543163	-0.651787	-0.122314	-1.029053	-0.213135	-0.661231	-0.274549	-0.180188	-0.674484
13779		3.127217	1.877487	6.196817	0.538150	0.546463	-0.687954	-0.109375	-1.031982	-0.198975	-0.662998	-0.273342	-0.187870	-0.671136
13780		2.702227	1.184742	5.626788	0.550752	0.509008	-0.646375	-0.096924	-1.037598	-0.191895	-0.664514	-0.272459	-0.195300	-0.667866
13781		2.475186	1.132188	5.385844	0.463951	0.417366	-0.550411	-0.085693	-1.046387	-0.183838	-0.665809	-0.271745	-0.201500	-0.665020
13782		2.666744	0.439593	5.152686	0.297167	0.378072	-0.475809	-0.072266	-1.044922	-0.177734	-0.667112	-0.270438	-0.206372	-0.662749
13783		2.958670	0.171782	4.704112	0.158388	0.390583	-0.422103	-0.068359	-1.057373	-0.177002	-0.668405	-0.268376	-0.210408	-0.661012
13784		3.152700	-0.321048	3.808922	0.062820	0.355669	-0.339291	-0.057129	-1.053955	-0.174072	-0.669553	-0.266124	-0.213511	-0.659765
13785		3.349676	-0.640967	3.185725	0.030585	0.240694	-0.250262	-0.070557	-1.057373	-0.179199	-0.670483	-0.264481	-0.215584	-0.658807
13786		3.329463	-0.893269	2.993019	-0.020045	0.093788	-0.130679	-0.054688	-1.054443	-0.168945	-0.671131	-0.263579	-0.216282	-0.658279
13787		3.005768	-1.057356	3.143763	-0.067041	-0.032036	0.010692	-0.061768	-1.058350	-0.177002	-0.671337	-0.263361	-0.215697	-0.658348
13788		2.905052	-0.611046	3.542045	-0.165807	-0.124991	0.176505	-0.055664	-1.059326	-0.176270	-0.671019	-0.263400	-0.213675	-0.659316
13789		3.071394	-0.389595	3.876140	-0.283302	-0.188339	0.319107	-0.063232	-1.051514	-0.183838	-0.670284	-0.263382	-0.210328	-0.661143
13790		3.549995	-0.095936	4.018917	-0.341654	-0.228428	0.386496	-0.077881	-1.054199	-0.187744	-0.669369	-0.263373	-0.206273	-0.663349
13791		3.394411	0.192208	4.028763	-0.407534	-0.307600	0.432760	-0.070068	-1.039795	-0.197754	-0.668464	-0.263509	-0.201294	-0.665733
13792		3.400507	0.357053	4.458605	-0.489764	-0.430373	0.498162	-0.083252	-1.035156	-0.206543	-0.667487	-0.263958	-0.195031	-0.668394
13793		3.531225	0.609643	4.982265	-0.588445	-0.508119	0.588651	-0.101807	-1.021973	-0.218018	-0.666285	-0.264421	-0.187573	-0.671538
13794		3.434284	0.910346	5.306204	-0.647251	-0.562386	0.677505	-0.114258	-1.021240	-0.224609	-0.664691	-0.264977	-0.179278	-0.675154
13795		3.728355	1.069818	5.677560	-0.659994	-0.621150	0.760779	-0.130615	-1.009766	-0.241211	-0.662674	-0.265894	-0.170379	-0.679069
13796		3.737857	1.624931	6.137360	-0.665896	-0.688423	0.841758	-0.143311	-0.998291	-0.246582	-0.660213	-0.267250	-0.160873	-0.683239
13797		3.523289	2.378663	6.941616	-0.802346	-0.777463	0.851546	-0.144531	-0.990723	-0.265381	-0.658052	-0.268348	-0.150047	-0.687345
13798		3.820447	1.672825	7.755050	-0.887521	-0.803498	0.801238	-0.163086	-0.982666	-0.276367	-0.656481	-0.269043	-0.138632	-0.690963
13799		3.944357	1.324932	8.065745	-0.880330	-0.743319	0.830794	-0.184082	-0.971436	-0.289551	-0.654536	-0.269422	-0.127499	-0.694793
13800		3.739151	1.912715	8.039459	-0.950058	-0.747266	0.950481	-0.197754	-0.950195	-0.310303	-0.651905	-0.269527	-0.115656	-0.699284
13801		4.497953	1.799940	8.136362	-0.963781	-0.800989	1.026261	-0.219482	-0.923584	-0.322998	-0.648863	-0.269897	-0.103229	-0.703901
13802		4.778152	1.822320	8.469303	-0.922643	-0.829425	1.115788	-0.239014	-0.920654	-0.340576	-0.645053	-0.270681	-0.090671	-0.708814
13803		4.819550	2.112244	8.794651	-0.861525	-0.869337	1.252088	-0.255859	-0.898682	-0.358398	-0.640261	-0.272075	-0.077912	-0.714123
13804		4.911309	2.803427	9.226489	-0.834879	-0.905526	1.373951	-0.282227	-0.881348	-0.361084	-0.634658	-0.273834	-0.064797	-0.719740
13805		5.161962	3.439523	9.543294	-0.930759	-0.914661	1.387383	-0.310059	-0.847412	-0.369141	-0.629001	-0.275078	-0.051016	-0.725319
13806		5.115049	4.046732	9.941599	-1.046242	-0.894728	1.364591	-0.322510	-0.830078	-0.383301	-0.623484	-0.275521	-0.036693	-0.730759
13807		6.101587	2.280059	9.849027	-0.922107	-0.868171	1.321335	-0.337158	-0.805176	-0.393066	-0.617938	-0.276344	-0.023323	-0.735692
13808		6.460995	1.866853	9.578524	-0.590249	-0.831088	1.361318	-0.358887	-0.786377	-0.391113	-0.611312	-0.278579	-0.012064	-0.740638
13809		5.957104	4.021888	9.800773	-0.740526	-0.919116	1.485983	-0.374023	-0.763428	-0.415283	-0.604116	-0.280537	0.000866	-0.745883
13810		6.698010	4.237650	10.087882	-1.056204	-0.966548	1.327282	-0.399658	-0.733887	-0.413818	-0.598621	-0.281091	0.015642	-0.749931
13811		7.457690	2.991588	9.792754	-1.162596	-0.870167	1.063815	-0.406982	-0.701660	-0.421387	-0.594773	-0.280492	0.029962	-0.752776
13812		6.681681	3.131437	9.091756	-1.128888	-0.859488	1.035963	-0.423584	-0.677734	-0.426025	-0.590775	-0.279958	0.043932	-0.755433
13813		6.282794	3.501916	9.045102	-1.155687	-0.989174	1.132927	-0.444092	-0.653809	-0.427979	-0.586043	-0.280003	0.058923	-0.758077
13814		6.795533	3.352943	9.862974	-1.006894	-1.062362	1.214388	-0.456055	-0.620850	-0.442139	-0.580265	-0.281121	0.073504	-0.760829
13815		7.255093	2.255185	10.542065	-0.626222	-1.039678	1.261715	-0.479248	-0.604248	-0.439453	-0.573172	-0.283836	0.085651	-0.763921
13816		7.229117	2.110703	10.806709	-0.361199	-0.990279	1.419207	-0.494385	-0.579346	-0.434570	-0.564360	-0.287322	0.096228	-0.767909
13817		7.054432	1.420005	10.608944	-0.241282	-0.977231	1.679354	-0.518311	-0.570801	-0.431885	-0.553468	-0.291004	0.106571	-0.773067
13818		6.701583	3.317152	10.810660	-0.188214	-0.929590	1.872755	-0.539062	-0.538086	-0.419678	-0.541085	-0.294359	0.116788	-0.779064
13819		5.732644	5.684714	11.114708	-0.345649	-0.863351	1.913467	-0.550293	-0.508789	-0.402100	-0.528717	-0.296436	0.127783	-0.785019
13820		6.405366	5.357174	11.141041	-0.332774	-0.756412	1.680549	-0.575195	-0.496582	-0.404541	-0.517803	-0.298030	0.137593	-0.790016
13821		7.392069	3.828902	11.012117	-0.114243	-0.566091	1.420084	-0.587646	-0.473877	-0.398926	-0.508170	-0.299549	0.144452	-0.794460
13822		7.273255	2.289310	10.278642	0.087889	-0.444557	1.364755	-0.600586	-0.462891	-0.389893	-0.498465	-0.301137	0.149286	-0.799102
13823		6.959171	1.721949	9.824530	0.181109	-0.458469	1.519444	-0.615479	-0.451660	-0.379639	-0.487396	-0.302960	0.153912	-0.804345
13824		6.977739	2.114686	9.853413	0.162863	-0.511601	1.749874	-0.621094	-0.427490	-0.365723	-0.474660	-0.304705	0.159418	-0.810209
13825		6.969793	2.875877	9.887571	0.194008	-0.462263	1.828152	-0.648438	-0.400635	-0.357666	-0.461266	-0.306059	0.164670	-0.816361
13826		6.433904	4.264753	9.732943	0.243665	-0.356358	1.706620	-0.652344	-0.395264	-0.346191	-0.448609	-0.306978	0.168818	-0.822202
13827		6.351361	5.013606	9.660888	0.170277	-0.266826	1.462363	-0.653076	-0.384277	-0.333252	-0.437852	-0.307295	0.172462	-0.827111
13828		6.475395	4.864236	9.490488	0.048447	-0.163366	1.174185	-0.679199	-0.366699	-0.346924	-0.429483	-0.306831	0.175791	-0.830961
13829		6.220669	4.351423	8.959503	-0.048673	-0.091658	0.924178	-0.675537	-0.362793	-0.340332	-0.423161	-0.305867	0.178867	-0.833898
13830		6.092761	3.688998	8.602934	-0.109150	-0.094118	0.758822	-0.675537	-0.343750	-0.332275	-0.418114	-0.304940	0.181927	-0.836119
13831		6.121959	3.129007	8.490940	-0.115585	-0.122197	0.660951	-0.680176	-0.339600	-0.322754	-0.413703	-0.304326	0.184861	-0.837891
13832		6.388148	2.828422	8.432787	-0.104665	-0.113322	0.590478	-0.690674	-0.332275	-0.321777	-0.409756	-0.303788	0.187493	-0.839440
13833		6.801172	2.326579	8.316621	-0.075920	-0.058381	0.542202	-0.683838	-0.329834	-0.328613	-0.406148	-0.303035	0.189600	-0.840991
13834		6.903884	1.853020	7.851845	0.008446	-0.014855	0.494564	-0.691895	-0.329834	-0.317871	-0.402719	-0.302335	0.190836	-0.842611
13835		7.145803	1.424034	7.389029	0.063621	-0.027967	0.478803	-0.694092	-0.323486	-0.319580	-0.399234	-0.301933	0.191680	-0.844220
13836		7.165603	0.780117	7.105693	0.123516	-0.058544	0.492470	-0.697510	-0.321045	-0.315674	-0.395445	-0.301922	0.192230	-0.845880
13837		7.394661	0.427478	7.006549	0.196002	-0.075899	0.502035	-0.701904	-0.314697	-0.311035	-0.391371	-0.302253	0.192345	-0.847629
13838		7.464742	-0.046609	6.927803	0.257619	-0.093799	0.511410	-0.685059	-0.309082	-0.296875	-0.387039	-0.302892	0.192101	-0.849444
13839		7.399175	-0.474731	7.027097	0.312013	-0.122538	0.531227	-0.706299	-0.311523	-0.305908	-0.382374	-0.303872	0.191609	-0.851315
13840		7.185262	-0.456305	7.077656	0.311843	-0.139148	0.563143	-0.705078	-0.303711	-0.300049	-0.377446	-0.304911	0.191247	-0.853222
13841		6.694764	-0.351417	7.091179	0.287095	-0.149145	0.550667	-0.705078	-0.296631	-0.294189	-0.372644	-0.305956	0.191055	-0.855000
13842		6.592011	-0.264144	7.245724	0.252864	-0.147789	0.510586	-0.711914	-0.294189	-0.296875	-0.368206	-0.306941	0.190994	-0.856582
13843		6.335470	-0.143113	7.473710	0.217653	-0.128466	0.449935	-0.718994	-0.287354	-0.293945	-0.364315	-0.307771	0.190965	-0.857953
13844		6.511233	0.154380	7.725601	0.143479	-0.090475	0.383955	-0.714600	-0.291992	-0.292969	-0.361140	-0.308205	0.191177	-0.859092
13845		6.647347	0.327212	7.591734	0.069618	-0.036927	0.293868	-0.710693	-0.291748	-0.293213	-0.358880	-0.308174	0.191521	-0.859973
13846		6.567594	0.327648	7.289319	0.018621	-0.014382	0.199716	-0.723877	-0.281250	-0.286621	-0.357460	-0.307978	0.191916	-0.860546
13847		6.765522	0.444945	7.204965	-0.025244	-0.032083	0.131638	-0.730469	-0.279785	-0.285645	-0.356611	-0.307888	0.192501	-0.860800
13848		7.077972	0.416051	7.125743	-0.053258	-0.052924	0.064397	-0.721680	-0.285400	-0.288086	-0.356281	-0.307973	0.193174	-0.860756
13849		7.449876	0.520160	6.990810	-0.046145	-0.046354	-0.019341	-0.727783	-0.279053	-0.284424	-0.356544	-0.308168	0.193559	-0.860490
13850		7.135391	0.544429	6.792394	-0.052118	-0.066059	-0.087704	-0.715576	-0.275635	-0.285156	-0.357281	-0.308598	0.193867	-0.859961
13851		6.997742	0.566735	6.725534	-0.057523	-0.130385	-0.152743	-0.726318	-0.287109	-0.290283	-0.358392	-0.309580	0.194235	-0.859062
13852		7.043782	0.620053	6.730261	-0.079213	-0.183760	-0.208486	-0.725098	-0.294922	-0.279297	-0.359870	-0.310969	0.194772	-0.857820
13853		7.011439	0.432913	6.706006	-0.072146	-0.231203	-0.266248	-0.731445	-0.289795	-0.284668	-0.361663	-0.312811	0.195247	-0.856287
13854		7.150609	0.344548	6.835865	-0.068159	-0.274981	-0.306766	-0.730957	-0.296875	-0.263672	-0.363660	-0.315042	0.195715	-0.854515
13855		7.292172	-0.053308	6.843531	-0.078107	-0.291912	-0.294586	-0.726318	-0.290527	-0.268799	-0.365564	-0.317340	0.196334	-0.852708
13856		7.042300	-0.932463	6.852929	0.020003	-0.302529	-0.276902	-0.723877	-0.304443	-0.271240	-0.367061	-0.319981	0.196331	-0.851077
13857		6.755859	-1.238416	7.232308	0.156117	-0.309407	-0.211175	-0.729980	-0.311035	-0.262939	-0.367714	-0.322975	0.195558	-0.849842
13858		6.395687	-1.369212	7.466325	0.203243	-0.308804	-0.090750	-0.730469	-0.307129	-0.259521	-0.367384	-0.325909	0.194771	-0.849044
13859		6.276391	-1.417855	7.659791	0.229695	-0.278830	0.022748	-0.730713	-0.302734	-0.257568	-0.366225	-0.328523	0.194013	-0.848711
13860		6.397065	-1.391324	7.725349	0.224630	-0.224520	0.114828	-0.740967	-0.307861	-0.258057	-0.364512	-0.330584	0.193376	-0.848794
13861		6.578636	-1.497282	7.670582	0.223683	-0.146453	0.168328	-0.736816	-0.304199	-0.257568	-0.362547	-0.332001	0.192654	-0.849247
13862		6.422389	-1.560716	7.569656	0.264719	-0.057865	0.165682	-0.737549	-0.306396	-0.250977	-0.360626	-0.332914	0.191367	-0.849998
13863		6.290545	-1.213700	7.499300	0.215790	-0.002231	0.167407	-0.734863	-0.308350	-0.260498	-0.358915	-0.333280	0.190263	-0.850826
13864		6.489409	-1.514146	7.381642	0.112675	0.033797	0.179136	-0.738525	-0.311035	-0.249512	-0.357462	-0.333062	0.189815	-0.851623
13865		6.849192	-1.895070	7.175499	0.089513	0.091119	0.187042	-0.727783	-0.308838	-0.262695	-0.356107	-0.332352	0.189382	-0.852564
13866		6.780551	-1.739407	6.838784	0.097249	0.136467	0.175834	-0.728271	-0.308594	-0.257568	-0.354880	-0.331358	0.188731	-0.853606
13867		6.846870	-1.628051	6.578746	0.086623	0.130822	0.168607	-0.725586	-0.302979	-0.264160	-0.353725	-0.330383	0.188152	-0.854590
13868		6.930132	-1.659079	6.425986	0.064372	0.103671	0.180629	-0.726318	-0.303223	-0.264648	-0.352502	-0.329515	0.187848	-0.855497
13869		6.865481	-1.547489	6.341975	0.037889	0.065652	0.208730	-0.725098	-0.304199	-0.260254	-0.351091	-0.328795	0.187922	-0.856338
13870		6.846036	-1.335684	6.313484	-0.023054	0.011035	0.243490	-0.732910	-0.302246	-0.258301	-0.349513	-0.328231	0.188688	-0.857031
13871		6.996506	-1.281123	6.238669	-0.058540	-0.038718	0.250206	-0.720459	-0.295166	-0.258057	-0.347905	-0.327907	0.189872	-0.857547
13872		7.179279	-1.299722	6.236614	-0.053241	-0.081426	0.224035	-0.727051	-0.290527	-0.256348	-0.346402	-0.327944	0.191071	-0.857876
13873		7.408842	-1.149250	6.395866	-0.053735	-0.100892	0.195521	-0.731445	-0.290771	-0.262451	-0.345072	-0.328163	0.192252	-0.858064
13874		7.182519	-1.009075	6.425589	-0.080706	-0.104068	0.170764	-0.730713	-0.290283	-0.256836	-0.343988	-0.328367	0.193569	-0.858125
13875		7.016132	-0.815714	6.425994	-0.106667	-0.140313	0.115815	-0.735352	-0.285889	-0.249512	-0.343308	-0.328844	0.195026	-0.857885
13876		7.146818	-0.746503	6.496915	-0.147236	-0.179167	0.064865	-0.740234	-0.282959	-0.248779	-0.343040	-0.329565	0.196743	-0.857323
13877		7.164483	-0.765813	6.524776	-0.159982	-0.204889	0.017928	-0.737549	-0.280273	-0.247803	-0.343099	-0.330510	0.198495	-0.856531
13878		7.175657	-0.655991	6.576026	-0.167733	-0.238085	-0.023226	-0.745361	-0.285645	-0.251953	-0.343416	-0.331736	0.200283	-0.855513
13879		7.132262	-0.615494	6.542163	-0.173762	-0.281310	-0.060381	-0.742432	-0.284180	-0.242432	-0.343941	-0.333314	0.202133	-0.854253
13880		7.007114	-0.359370	6.598604	-0.199714	-0.336809	-0.091649	-0.745117	-0.277344	-0.236572	-0.344664	-0.335262	0.204238	-0.852697
13881		7.150763	-0.298175	6.767029	-0.249489	-0.389345	-0.116194	-0.737793	-0.279297	-0.236572	-0.345606	-0.337479	0.206775	-0.850828
13882		7.369314	-0.450734	6.872602	-0.278375	-0.396259	-0.166321	-0.743896	-0.277344	-0.224365	-0.346967	-0.339743	0.209390	-0.848731
13883		7.396151	-0.454285	6.968643	-0.259937	-0.380984	-0.252629	-0.750977	-0.276611	-0.224609	-0.348906	-0.342096	0.211581	-0.846445
13884		7.518292	-0.374779	7.014518	-0.270357	-0.350412	-0.332123	-0.753174	-0.291016	-0.224609	-0.351482	-0.344337	0.213524	-0.843979
13885		7.696460	-0.516465	7.264482	-0.307303	-0.274120	-0.378449	-0.754639	-0.287598	-0.217773	-0.354617	-0.346009	0.215364	-0.841512
13886		7.346274	-0.779063	7.024920	-0.290747	-0.207590	-0.436492	-0.757324	-0.294189	-0.213867	-0.358223	-0.347359	0.216718	-0.839077
13887		7.238594	-0.897053	6.908735	-0.248331	-0.180871	-0.477086	-0.749512	-0.296387	-0.212158	-0.362030	-0.348715	0.217571	-0.836657
13888		7.175600	-1.056451	6.811117	-0.238291	-0.164846	-0.448329	-0.752686	-0.303711	-0.207764	-0.365629	-0.349929	0.218384	-0.834370
13889		7.122883	-1.315329	6.717765	-0.216037	-0.155645	-0.386251	-0.760742	-0.301758	-0.214111	-0.368741	-0.351027	0.219191	-0.832325
13890		7.108282	-1.435730	6.634498	-0.159467	-0.135780	-0.320601	-0.760742	-0.311035	-0.213867	-0.371263	-0.352036	0.219734	-0.830633
13891		7.189564	-1.417937	6.567687	-0.112516	-0.101738	-0.246897	-0.750000	-0.312256	-0.205566	-0.373196	-0.352815	0.220062	-0.829348
13892		6.974038	-1.342891	6.470119	-0.060579	-0.063363	-0.174292	-0.750977	-0.318848	-0.216797	-0.374544	-0.353356	0.220124	-0.828494
13893		6.891251	-1.235486	6.392715	-0.017701	-0.038595	-0.118190	-0.760986	-0.318848	-0.200928	-0.375423	-0.353754	0.219978	-0.827965
13894		7.104461	-1.211179	6.435811	0.008209	-0.009252	-0.062635	-0.752686	-0.312744	-0.202881	-0.375895	-0.353929	0.219725	-0.827743
13895		7.148999	-1.245126	6.347736	0.046695	0.042228	-0.019447	-0.745605	-0.320068	-0.216797	-0.376050	-0.353790	0.219173	-0.827878
13896		7.169758	-0.989085	6.302153	0.064143	0.084187	0.013023	-0.750977	-0.312744	-0.210205	-0.376006	-0.353355	0.218465	-0.828271
13897		7.237611	-0.936735	6.266747	0.044002	0.130502	0.030374	-0.753906	-0.317139	-0.213867	-0.375985	-0.352506	0.217803	-0.828816
13898		7.337137	-0.959447	6.148708	0.031089	0.147200	0.023349	-0.746338	-0.320068	-0.210205	-0.376081	-0.351513	0.217156	-0.829364
13899		7.396717	-0.792753	6.100168	0.016858	0.163110	0.029219	-0.749023	-0.323975	-0.223877	-0.376206	-0.350354	0.216575	-0.829949
13900		7.453242	-0.680410	6.084344	-0.028244	0.160265	0.025095	-0.747314	-0.320312	-0.224121	-0.376486	-0.349081	0.216303	-0.830430
13901		7.747354	-0.392144	6.184717	-0.081605	0.175110	0.014773	-0.743408	-0.314209	-0.226318	-0.377017	-0.347556	0.216323	-0.830823
13902		7.615101	0.098047	6.259751	-0.169457	0.209702	-0.014296	-0.751221	-0.316650	-0.227783	-0.378066	-0.345567	0.216757	-0.831063
13903		7.409782	0.607082	6.254538	-0.264527	0.222012	-0.082433	-0.738037	-0.315674	-0.224121	-0.379880	-0.343316	0.217612	-0.830946
13904		7.374277	1.203838	6.371953	-0.382439	0.223935	-0.162279	-0.725586	-0.323486	-0.242920	-0.382583	-0.340820	0.219043	-0.830356
13905		7.582351	1.369132	6.510367	-0.459066	0.233095	-0.266427	-0.729492	-0.319092	-0.238281	-0.386234	-0.338202	0.220671	-0.829306
13906		7.788529	1.341360	6.567854	-0.444430	0.268605	-0.402624	-0.722900	-0.316650	-0.242676	-0.390838	-0.335628	0.221690	-0.827921
13907		7.767815	1.733346	6.566773	-0.397074	0.310050	-0.530724	-0.721436	-0.317383	-0.246338	-0.396256	-0.333150	0.221876	-0.826295
13908		7.683526	1.889825	6.485158	-0.395147	0.304875	-0.610438	-0.709473	-0.324707	-0.254395	-0.402192	-0.330850	0.221831	-0.824361
13909		7.806103	1.609055	6.480372	-0.351282	0.277546	-0.662617	-0.715576	-0.330078	-0.266846	-0.408297	-0.328969	0.221418	-0.822221
13910		8.287459	1.442315	6.646517	-0.285164	0.260263	-0.668545	-0.704346	-0.339111	-0.267334	-0.414211	-0.327431	0.220580	-0.820099
13911		8.150894	1.404124	6.739181	-0.212830	0.258363	-0.631888	-0.695801	-0.336914	-0.265869	-0.419658	-0.326077	0.219342	-0.818199
13912		7.853522	1.802371	6.829831	-0.145661	0.219455	-0.597092	-0.696777	-0.348389	-0.284180	-0.424600	-0.325151	0.217866	-0.816411
13913		7.660626	2.155827	7.039781	-0.097510	0.156605	-0.614686	-0.689209	-0.348389	-0.275391	-0.429404	-0.324847	0.216227	-0.814452
13914		7.594616	2.448147	7.396375	-0.065544	0.097785	-0.706526	-0.690186	-0.366699	-0.291016	-0.434625	-0.325213	0.214319	-0.812038
13915		7.573799	2.905568	7.826585	-0.077290	0.064108	-0.825254	-0.684082	-0.363281	-0.292969	-0.440601	-0.325965	0.212276	-0.809046
13916		7.309685	3.024179	8.115925	-0.125387	0.044353	-0.948457	-0.669922	-0.375488	-0.299072	-0.447478	-0.326875	0.210276	-0.805420
13917		7.590255	2.944395	8.580018	-0.145480	0.028688	-1.087088	-0.675781	-0.389160	-0.306152	-0.455278	-0.328033	0.208067	-0.801139
13918		8.172237	2.709685	9.036798	-0.164029	0.129527	-1.173646	-0.658691	-0.395508	-0.306641	-0.463838	-0.328568	0.205335	-0.796702
13919		7.764780	2.212261	9.083264	-0.093583	0.265437	-1.238119	-0.654297	-0.408447	-0.317383	-0.472816	-0.328548	0.201404	-0.792425
13920		7.319841	2.485391	9.109712	-0.017897	0.336935	-1.262129	-0.650391	-0.418213	-0.319580	-0.481808	-0.328354	0.196597	-0.788286
13921		7.030367	2.347008	9.095078	0.006686	0.353949	-1.213300	-0.631348	-0.426270	-0.327393	-0.490382	-0.328027	0.191662	-0.784340
13922		7.362610	1.774530	9.116552	0.151439	0.367455	-1.173436	-0.626465	-0.444824	-0.339600	-0.498266	-0.328102	0.185808	-0.780741
13923		7.624356	2.023713	9.218430	0.315517	0.417110	-1.132655	-0.624023	-0.457031	-0.344727	-0.505457	-0.328432	0.178767	-0.777617
13924		7.230946	3.079506	9.264433	0.291728	0.452321	-1.062921	-0.611328	-0.474365	-0.349121	-0.512259	-0.328294	0.171899	-0.774768
13925		6.977600	3.698437	9.433073	0.213668	0.416729	-1.063779	-0.599121	-0.488281	-0.353516	-0.519177	-0.328019	0.165662	-0.771631
13926		8.063537	3.672294	9.924091	0.187855	0.447131	-1.121591	-0.578613	-0.501221	-0.359375	-0.526526	-0.327483	0.159277	-0.768217
13927		8.474961	3.125503	10.001175	0.319377	0.593880	-1.247052	-0.576904	-0.518066	-0.366211	-0.534447	-0.326708	0.151039	-0.764733
13928		8.249393	3.099353	9.784237	0.503550	0.720501	-1.359178	-0.565186	-0.535156	-0.372559	-0.542651	-0.326031	0.140729	-0.761202
13929		7.661200	3.209432	9.306817	0.579642	0.752699	-1.405276	-0.545654	-0.560303	-0.370361	-0.550873	-0.325483	0.129636	-0.757492
13930		7.396472	3.223641	9.228738	0.543152	0.698384	-1.394491	-0.525879	-0.581543	-0.375000	-0.558957	-0.325032	0.119024	-0.753495
13931		7.516224	2.638707	9.163112	0.551351	0.653400	-1.395870	-0.517334	-0.595947	-0.375977	-0.566875	-0.324838	0.108541	-0.749234
13932		7.656439	2.403059	9.214486	0.596934	0.641860	-1.372429	-0.510010	-0.625488	-0.380127	-0.574405	-0.324845	0.097871	-0.744953
13933		7.614384	1.872332	9.176346	0.682832	0.654930	-1.309363	-0.496094	-0.649414	-0.371826	-0.581215	-0.325069	0.086759	-0.740940
13934		7.385556	1.783141	9.161571	0.824707	0.683368	-1.245130	-0.489502	-0.679932	-0.364258	-0.587156	-0.325693	0.074794	-0.737278
13935		6.747039	2.432850	9.265623	0.868838	0.689322	-1.162084	-0.475342	-0.700928	-0.356445	-0.592360	-0.326381	0.062744	-0.733927
13936		6.482120	2.690710	9.416654	0.844866	0.669337	-1.122539	-0.459229	-0.727783	-0.361816	-0.597272	-0.326991	0.051038	-0.730574
13937		6.596080	3.014259	9.695806	0.823452	0.676238	-1.137512	-0.447998	-0.747070	-0.346924	-0.602225	-0.327400	0.039378	-0.727037
13938		6.615746	2.754910	9.770109	0.812258	0.722854	-1.168759	-0.431641	-0.774170	-0.342285	-0.607265	-0.327427	0.027454	-0.723372
13939		6.267661	2.810812	9.704037	0.859103	0.769602	-1.211837	-0.413818	-0.789551	-0.336670	-0.612340	-0.327351	0.014892	-0.719486
13940		6.086333	3.022359	9.649084	0.868729	0.794684	-1.224684	-0.395996	-0.821533	-0.318848	-0.617339	-0.327104	0.002109	-0.715465
13941		6.012785	3.594937	9.618531	0.765841	0.804648	-1.182812	-0.384766	-0.842041	-0.312012	-0.622236	-0.326200	-0.009999	-0.711559
13942		6.121926	3.228556	9.157586	0.724805	0.820211	-1.159495	-0.363037	-0.857666	-0.307373	-0.626958	-0.324931	-0.021885	-0.707718
13943		6.008067	3.029872	8.707113	0.787481	0.823989	-1.176328	-0.342773	-0.881836	-0.299561	-0.631506	-0.323898	-0.034192	-0.703649
13944		5.824067	3.362809	8.309179	0.789922	0.798618	-1.138459	-0.316895	-0.899658	-0.293457	-0.635725	-0.322972	-0.046264	-0.699573
13945		5.594893	2.952871	7.844405	0.777952	0.750453	-1.059381	-0.309814	-0.915039	-0.279785	-0.639459	-0.322236	-0.057776	-0.695642
13946		5.370848	2.984310	7.362110	0.840125	0.703009	-1.013070	-0.292236	-0.928955	-0.265869	-0.642627	-0.322075	-0.069269	-0.691737
13947		5.342729	2.990331	7.087834	0.835071	0.668734	-0.958861	-0.277832	-0.950195	-0.250000	-0.645417	-0.322064	-0.080389	-0.687932
13948		5.445890	2.679405	6.656322	0.844976	0.649041	-0.920725	-0.264893	-0.965332	-0.243408	-0.647876	-0.322195	-0.091342	-0.684181
13949		5.243470	2.719245	6.090122	0.866702	0.619075	-0.905364	-0.250732	-0.981201	-0.230957	-0.650124	-0.322580	-0.102194	-0.680321
13950		4.780439	2.676073	5.576219	0.842312	0.546383	-0.886063	-0.233643	-0.989746	-0.206299	-0.652306	-0.323218	-0.112442	-0.676301
13951		4.306172	2.631338	5.162659	0.837844	0.432280	-0.875511	-0.220459	-1.002686	-0.202148	-0.654466	-0.324444	-0.121998	-0.671958
13952		4.483758	2.818128	5.154206	0.750234	0.333706	-0.854061	-0.205078	-1.017090	-0.186768	-0.656783	-0.325732	-0.130444	-0.667472
13953		4.532802	1.970290	4.942328	0.686522	0.309025	-0.819480	-0.192383	-1.018066	-0.165771	-0.659053	-0.326816	-0.138287	-0.663111
13954		4.572396	1.054833	4.553756	0.766438	0.297506	-0.817598	-0.178467	-1.028564	-0.161621	-0.661042	-0.328374	-0.146487	-0.658586
13955		4.107982	1.270498	4.215160	0.793452	0.262572	-0.772645	-0.169434	-1.041016	-0.145020	-0.662706	-0.330299	-0.154492	-0.654106
13956		3.738799	1.173751	3.910674	0.635491	0.165511	-0.658582	-0.165283	-1.047119	-0.139648	-0.664251	-0.332003	-0.160769	-0.650153
13957		4.008947	0.486289	3.771953	0.507860	0.079737	-0.584999	-0.156006	-1.053711	-0.131592	-0.665938	-0.333563	-0.165623	-0.646399
13958		3.745272	-0.128659	3.731115	0.460198	0.032686	-0.561266	-0.146729	-1.059082	-0.122559	-0.667669	-0.335135	-0.169877	-0.642685
13959		3.452762	-0.299385	3.650777	0.371064	-0.027044	-0.496375	-0.134521	-1.062012	-0.116455	-0.669368	-0.336613	-0.173124	-0.639270
13960		2.969745	-0.363946	3.593821	0.219741	-0.104544	-0.366484	-0.130859	-1.065918	-0.106934	-0.670899	-0.337842	-0.174756	-0.636567
13961		2.617525	-0.103672	3.734748	-0.010918	-0.199645	-0.184635	-0.132324	-1.069824	-0.103027	-0.672249	-0.338548	-0.174111	-0.634942
13962		2.950968	-0.570763	3.918692	-0.140342	-0.264926	-0.027312	-0.138184	-1.063721	-0.117188	-0.673224	-0.339101	-0.171964	-0.634199
13963		3.520225	-0.925204	4.144917	-0.112140	-0.258522	0.078855	-0.132568	-1.061768	-0.110840	-0.673547	-0.339927	-0.169692	-0.634026
13964		3.455711	-0.612324	4.127703	-0.097948	-0.246395	0.211740	-0.142578	-1.068359	-0.114746	-0.673109	-0.340954	-0.167175	-0.634608
13965		3.234761	-0.108767	4.261140	-0.189008	-0.265973	0.369871	-0.142822	-1.060547	-0.120605	-0.672115	-0.341789	-0.163605	-0.636141
13966		3.132814	0.162081	4.579475	-0.280982	-0.287127	0.488904	-0.153076	-1.063232	-0.114746	-0.670768	-0.342375	-0.159079	-0.638392
13967		3.175684	0.515456	4.842166	-0.308175	-0.313497	0.547668	-0.164062	-1.053467	-0.128906	-0.669202	-0.343015	-0.154079	-0.640913
13968		3.505072	1.090141	5.120807	-0.388379	-0.348129	0.612635	-0.169678	-1.046387	-0.146729	-0.667539	-0.343460	-0.148259	-0.643775
13969		3.791294	1.240957	5.241170	-0.515737	-0.371370	0.682187	-0.184570	-1.035156	-0.149902	-0.665863	-0.343389	-0.141411	-0.647081
13970		3.818231	1.678332	5.523858	-0.629028	-0.400161	0.756167	-0.197021	-1.035156	-0.160645	-0.663834	-0.342880	-0.133659	-0.651070
13971		4.133931	1.663190	5.722624	-0.706974	-0.428098	0.803726	-0.209229	-1.015137	-0.171387	-0.661734	-0.342119	-0.125179	-0.655281
13972		4.531148	1.842083	6.136392	-0.702966	-0.447592	0.825124	-0.224365	-1.019287	-0.184570	-0.659452	-0.341482	-0.116535	-0.659495
13973		4.705348	1.786628	6.406691	-0.720193	-0.471334	0.913397	-0.244385	-1.007568	-0.196045	-0.656677	-0.340937	-0.107397	-0.664081
13974		4.686877	1.389549	6.509884	-0.637697	-0.523576	1.052665	-0.258057	-0.993164	-0.207520	-0.652820	-0.341221	-0.098028	-0.669168
13975		5.167948	1.222475	6.630661	-0.488602	-0.573263	1.205540	-0.274170	-0.981934	-0.215088	-0.647660	-0.342681	-0.088755	-0.674706
13976		5.185508	2.036829	6.974420	-0.442617	-0.591635	1.374850	-0.288574	-0.974609	-0.222168	-0.641357	-0.344571	-0.079126	-0.680934
13977		4.980448	3.269693	7.409959	-0.589627	-0.628331	1.526274	-0.323975	-0.950439	-0.238037	-0.634611	-0.345921	-0.067979	-0.687740
13978		5.403837	3.526278	7.911280	-0.771749	-0.652617	1.599681	-0.342041	-0.926514	-0.254883	-0.627762	-0.346416	-0.055447	-0.694864
