// Start Time: Unknown
// Update Rate: 60.0Hz
// Filter Profile: human (46.1)
// Firmware Version: 4.6.0
PacketCounter	SampleTimeFine	Acc_X	Acc_Y	Acc_Z	Gyr_X	Gyr_Y	Gyr_Z	Mag_X	Mag_Y	Mag_Z	Quat_q0	Quat_q1	Quat_q2	Quat_q3
10198		9.604428	1.715351	-0.813923	0.105463	0.075359	0.046164	-0.667236	-0.486328	-0.155273	0.619014	0.411834	-0.610075	0.273902
10199		9.631996	1.660903	-0.935280	0.091153	0.051343	0.044535	-0.672607	-0.492676	-0.164551	0.618861	0.411960	-0.609755	0.274771
10200		9.651946	1.568331	-1.080197	0.085003	0.042122	0.048746	-0.675537	-0.489258	-0.162598	0.618679	0.412050	-0.609505	0.275597
10201		9.603464	1.489899	-1.099145	0.100682	0.026737	0.053831	-0.666748	-0.487061	-0.155029	0.618342	0.412234	-0.609324	0.276478
10202		9.639154	1.524805	-1.201023	0.085008	0.021540	0.061818	-0.677734	-0.489746	-0.150391	0.618007	0.412309	-0.609238	0.277304
10203		9.777869	1.735598	-1.269277	0.067320	0.030848	0.065985	-0.669189	-0.483643	-0.156494	0.617759	0.412251	-0.609169	0.278093
10204		9.806849	1.845930	-1.241967	0.070175	0.039131	0.079265	-0.672119	-0.489258	-0.157227	0.617499	0.412130	-0.609107	0.278985
10205		9.716319	1.778058	-1.129706	0.071485	0.044177	0.090923	-0.683105	-0.490723	-0.162354	0.617220	0.411957	-0.609064	0.279949
10206		9.637960	1.916893	-1.005284	0.043366	0.041676	0.092151	-0.671143	-0.489014	-0.156982	0.617011	0.411650	-0.609112	0.280757
10207		9.700190	1.972819	-0.964871	-0.061893	0.034819	0.100510	-0.675293	-0.485107	-0.153320	0.617105	0.410791	-0.609469	0.281033
10208		9.682854	1.918689	-1.021130	-0.154069	0.035497	0.115189	-0.687500	-0.479248	-0.164062	0.617485	0.409399	-0.610083	0.280898
10209		9.619668	1.815030	-1.264107	-0.190039	0.037012	0.127354	-0.667236	-0.472900	-0.149658	0.617961	0.407776	-0.610814	0.280624
10210		9.578373	1.659065	-1.260261	-0.182541	0.051480	0.126081	-0.682617	-0.476807	-0.161377	0.618465	0.406187	-0.611461	0.280406
10211		9.539054	1.522043	-1.068956	-0.138480	0.051845	0.103258	-0.668701	-0.474365	-0.167725	0.618846	0.404964	-0.611947	0.280277
10212		9.608503	1.578452	-0.907239	-0.090250	0.011351	0.078771	-0.677246	-0.474854	-0.168457	0.618902	0.404204	-0.612459	0.280131
10213		9.727501	1.693975	-0.935878	-0.108685	-0.014238	0.054029	-0.683350	-0.470947	-0.162354	0.618933	0.403551	-0.613069	0.279668
10214		9.684600	1.767970	-1.101474	-0.168077	-0.030827	0.015809	-0.683350	-0.472412	-0.165039	0.619162	0.402839	-0.613780	0.278628
10215		9.760712	1.844059	-1.181719	-0.267908	-0.036416	-0.025411	-0.683594	-0.468018	-0.169434	0.619780	0.401857	-0.614614	0.276829
10216		9.844687	1.973357	-1.259099	-0.369023	-0.068068	-0.078581	-0.675537	-0.466064	-0.175293	0.620680	0.400712	-0.615675	0.274100
10217		9.733149	2.086710	-1.263773	-0.457015	-0.100646	-0.100564	-0.681396	-0.465332	-0.177002	0.621764	0.399287	-0.617019	0.270680
10218		9.542897	2.033163	-1.097181	-0.483772	-0.105677	-0.095659	-0.681396	-0.470215	-0.177734	0.622850	0.397778	-0.618473	0.267063
10219		9.551436	1.854763	-0.908760	-0.470247	-0.099769	-0.100612	-0.675293	-0.471436	-0.179688	0.623917	0.396406	-0.619814	0.263477
10220		9.695348	1.596082	-1.108602	-0.437063	-0.097732	-0.124660	-0.679443	-0.468750	-0.177246	0.624978	0.395282	-0.620946	0.259963
10221		9.739809	1.585709	-1.242738	-0.365034	-0.095253	-0.150132	-0.680420	-0.473145	-0.190186	0.625822	0.394671	-0.621862	0.256651
10222		9.619308	1.643797	-1.303204	-0.301811	-0.082708	-0.169604	-0.678223	-0.470215	-0.191650	0.626488	0.394517	-0.622505	0.253685
10223		9.549639	1.739037	-1.226464	-0.237054	-0.072281	-0.184459	-0.671631	-0.468018	-0.183105	0.627017	0.394692	-0.622944	0.251016
10224		9.626805	1.795293	-1.218850	-0.164718	-0.069993	-0.209731	-0.675293	-0.469238	-0.180664	0.627453	0.395222	-0.623156	0.248555
10225		9.661614	1.914978	-1.073740	-0.123458	-0.063805	-0.237992	-0.677002	-0.472168	-0.181641	0.627772	0.396174	-0.623193	0.246128
10226		9.873996	2.125039	-1.074305	-0.214133	-0.081818	-0.294915	-0.676758	-0.488281	-0.189941	0.628365	0.397042	-0.623322	0.242870
10227		9.681335	2.234851	-1.323637	-0.373345	-0.090735	-0.334474	-0.676270	-0.482422	-0.182373	0.629421	0.397537	-0.623555	0.238690
10228		9.437408	2.164720	-1.330180	-0.397311	-0.083805	-0.362863	-0.665039	-0.484863	-0.190186	0.630670	0.397929	-0.623789	0.234086
10229		9.518314	1.980408	-1.086991	-0.361734	-0.101147	-0.403161	-0.665283	-0.500244	-0.186523	0.631897	0.398572	-0.623837	0.229511
10230		9.684623	1.948267	-1.154621	-0.359338	-0.105578	-0.434768	-0.661621	-0.491943	-0.186035	0.633028	0.399695	-0.623677	0.224828
10231		9.828999	1.978281	-1.147593	-0.297870	-0.076696	-0.472481	-0.656494	-0.496094	-0.183350	0.634257	0.400942	-0.623264	0.220239
10232		9.775591	2.106732	-1.134277	-0.252115	-0.062406	-0.497754	-0.647705	-0.503662	-0.189453	0.635478	0.402452	-0.622600	0.215800
10233		9.626431	2.341815	-1.184316	-0.256703	-0.080830	-0.527972	-0.652100	-0.505615	-0.184814	0.636704	0.404087	-0.621839	0.211274
10234		9.524317	2.341532	-1.225982	-0.302865	-0.086343	-0.551144	-0.640869	-0.509766	-0.184082	0.637956	0.405686	-0.621212	0.206221
10235		9.554699	2.387196	-1.079042	-0.326588	-0.098449	-0.571807	-0.642334	-0.520508	-0.196777	0.639374	0.407099	-0.620566	0.200922
10236		9.676116	2.614517	-1.126160	-0.344150	-0.098175	-0.609553	-0.634277	-0.530273	-0.193359	0.640718	0.408877	-0.619735	0.195520
10237		9.641583	2.820552	-1.175646	-0.358918	-0.103415	-0.650255	-0.629883	-0.531738	-0.196289	0.642166	0.410822	-0.618713	0.189849
10238		9.506456	2.881090	-1.276688	-0.399549	-0.112967	-0.655886	-0.625732	-0.540283	-0.201660	0.643707	0.412466	-0.617828	0.183854
10239		9.512528	2.932883	-1.097095	-0.421380	-0.115477	-0.641553	-0.624512	-0.540283	-0.194336	0.645206	0.414022	-0.616967	0.177897
10240		9.479029	2.898234	-1.157096	-0.486533	-0.127223	-0.622609	-0.624268	-0.548340	-0.195068	0.646815	0.414989	-0.616454	0.171464
10241		9.491575	2.963614	-1.101401	-0.507021	-0.091482	-0.625375	-0.613525	-0.558105	-0.196533	0.648539	0.415954	-0.615734	0.165079
10242		9.469152	3.100415	-1.034230	-0.470203	-0.107284	-0.643757	-0.600586	-0.549805	-0.207764	0.650104	0.417273	-0.614825	0.158866
10243		9.516664	3.420902	-1.043706	-0.511079	-0.112935	-0.670873	-0.599121	-0.564941	-0.214844	0.652081	0.417912	-0.614002	0.152124
10244		9.205319	3.459557	-1.267088	-0.579704	-0.126745	-0.668208	-0.587158	-0.558838	-0.213135	0.653997	0.418607	-0.613155	0.145249
10245		8.993087	3.277871	-1.182707	-0.534417	-0.096931	-0.653958	-0.590576	-0.579346	-0.216797	0.656076	0.418946	-0.612260	0.138513
10246		9.163824	3.237707	-1.069563	-0.402960	-0.089388	-0.680198	-0.584717	-0.583008	-0.214600	0.657399	0.420781	-0.610875	0.132672
10247		9.225786	3.495979	-1.029102	-0.300142	-0.082945	-0.711349	-0.577148	-0.591309	-0.219238	0.658410	0.423224	-0.609268	0.127158
10248		9.308799	3.822567	-1.120969	-0.302618	-0.070220	-0.748776	-0.569824	-0.588379	-0.223633	0.659507	0.425879	-0.607368	0.121583
10249		9.106171	3.985058	-1.159544	-0.341265	-0.051318	-0.742141	-0.562744	-0.596924	-0.236328	0.660928	0.427891	-0.605553	0.115708
10250		9.013134	4.009524	-1.084097	-0.301250	-0.035122	-0.714020	-0.559570	-0.606201	-0.230225	0.662222	0.430089	-0.603568	0.110408
10251		8.904809	4.000675	-1.041842	-0.333287	-0.003621	-0.683719	-0.552246	-0.611816	-0.231689	0.663632	0.432025	-0.601556	0.105246
10252		8.675096	4.021353	-0.905811	-0.333192	0.014213	-0.650216	-0.544922	-0.615723	-0.231689	0.665088	0.433756	-0.599536	0.100349
10253		8.860468	4.147603	-0.704692	-0.234350	-0.036248	-0.643511	-0.541748	-0.617188	-0.236084	0.665937	0.435960	-0.597743	0.095764
10254		8.923691	4.142501	-0.760075	-0.202272	-0.017942	-0.629167	-0.533447	-0.625488	-0.239746	0.666767	0.438085	-0.595947	0.091381
10255		8.763072	3.759270	-0.902030	-0.179595	0.006180	-0.565014	-0.526855	-0.635010	-0.237793	0.667573	0.440114	-0.594099	0.087708
10256		8.897926	3.520533	-0.884059	-0.085971	0.031137	-0.501830	-0.516113	-0.634521	-0.239014	0.668045	0.442477	-0.592188	0.085107
10257		8.958585	3.626380	-0.900533	-0.029468	0.050191	-0.431742	-0.519043	-0.646240	-0.240723	0.668476	0.444582	-0.590398	0.083166
10258		8.836298	3.980876	-0.834481	-0.025266	0.055888	-0.356665	-0.510010	-0.640625	-0.234863	0.668696	0.446549	-0.588840	0.081893
10259		8.572626	4.171120	-0.892524	-0.090028	0.060278	-0.283556	-0.504150	-0.649414	-0.236572	0.669289	0.447419	-0.587702	0.080461
10260		8.460436	3.984477	-0.773961	-0.138120	0.065173	-0.211021	-0.510742	-0.648438	-0.235352	0.669992	0.447895	-0.586677	0.079441
10261		8.475499	3.704936	-0.800968	-0.075634	0.066313	-0.153184	-0.500488	-0.643799	-0.235352	0.670410	0.448201	-0.586043	0.078859
10262		8.533970	3.657040	-0.799775	0.035306	0.065385	-0.105001	-0.495361	-0.648438	-0.241455	0.670516	0.448766	-0.585468	0.079015
10263		8.487077	3.728892	-0.850415	0.111793	0.067075	-0.046730	-0.504150	-0.644531	-0.240234	0.670318	0.449576	-0.584941	0.079993
10264		8.505590	3.755681	-0.846431	0.142983	0.085664	0.029321	-0.506348	-0.645020	-0.249756	0.670040	0.449951	-0.584770	0.081445
10265		8.600710	3.835752	-0.898483	0.175130	0.093197	0.111959	-0.497803	-0.646973	-0.239746	0.669649	0.450059	-0.584842	0.083529
10266		8.742071	3.983517	-0.852823	0.173676	0.096236	0.179986	-0.513672	-0.644775	-0.245361	0.669219	0.449970	-0.585026	0.086126
10267		8.747238	4.163488	-0.886142	0.126721	0.090500	0.241781	-0.507568	-0.640625	-0.241699	0.668881	0.449126	-0.585678	0.088689
10268		8.693060	4.227696	-0.909562	0.083360	0.082163	0.319259	-0.509033	-0.642578	-0.241699	0.668628	0.447737	-0.586600	0.091477
10269		8.746964	4.063028	-0.967718	0.091609	0.076749	0.387508	-0.524414	-0.634277	-0.242676	0.668245	0.446123	-0.587753	0.094709
10270		8.732292	3.910724	-0.970986	0.126823	0.087971	0.463300	-0.520752	-0.635986	-0.236084	0.667716	0.444147	-0.589231	0.098465
10271		8.677671	3.675250	-0.797644	0.229478	0.113535	0.540111	-0.522461	-0.622070	-0.240967	0.666827	0.442526	-0.590613	0.103387
10272		9.295192	3.666867	-0.606704	0.386008	0.131045	0.575543	-0.531250	-0.628418	-0.235107	0.665466	0.441462	-0.591896	0.109205
10273		9.366229	3.911960	-0.902185	0.323133	0.121233	0.592170	-0.532227	-0.616943	-0.233398	0.664201	0.440021	-0.593316	0.114866
10274		8.761800	3.879778	-1.028426	0.205680	0.144577	0.661678	-0.540283	-0.614014	-0.245850	0.663426	0.437547	-0.594919	0.120375
10275		8.876948	3.568532	-0.783955	0.302033	0.140095	0.715571	-0.549316	-0.614746	-0.233398	0.662261	0.435142	-0.596718	0.126450
10276		9.127805	3.233223	-0.776949	0.428483	0.163144	0.775246	-0.553467	-0.602051	-0.228516	0.660575	0.433247	-0.598376	0.133731
10277		9.191552	2.969897	-0.760829	0.593268	0.216425	0.846784	-0.571289	-0.600342	-0.239746	0.658443	0.431849	-0.599728	0.142428
10278		9.540644	2.991506	-0.742487	0.797911	0.287034	0.903782	-0.572266	-0.586182	-0.223389	0.655895	0.430793	-0.600819	0.152435
10279		9.936848	3.312986	-0.791752	0.911335	0.334264	0.927380	-0.573242	-0.583740	-0.218994	0.653009	0.430388	-0.601342	0.163503
10280		9.569049	3.500158	-0.984488	0.822704	0.351726	0.942814	-0.585693	-0.574951	-0.210205	0.650448	0.429414	-0.601797	0.174245
10281		9.318513	3.439061	-0.690703	0.698859	0.361228	0.991083	-0.595215	-0.562988	-0.215088	0.648190	0.427495	-0.602480	0.184706
10282		9.630079	3.247189	-0.556610	0.601596	0.313566	1.033088	-0.616699	-0.552979	-0.218994	0.645996	0.424675	-0.603733	0.194543
10283		9.966205	2.949573	-0.718614	0.499331	0.351158	1.065903	-0.614258	-0.551025	-0.210449	0.644303	0.420719	-0.605188	0.204001
10284		10.084225	2.760128	-0.803554	0.528083	0.373120	1.106274	-0.615234	-0.535889	-0.216309	0.642408	0.416974	-0.606328	0.214034
10285		10.140351	2.617013	-1.097118	0.553496	0.418448	1.111052	-0.625488	-0.534180	-0.215820	0.640662	0.413166	-0.607095	0.224237
10286		10.021735	2.520276	-1.089542	0.571136	0.444645	1.095805	-0.627441	-0.517822	-0.217285	0.638957	0.409389	-0.607593	0.234449
10287		10.103779	2.392485	-1.037722	0.647989	0.418802	1.075353	-0.641113	-0.505859	-0.215576	0.636834	0.406202	-0.607860	0.244845
10288		10.317920	2.168951	-0.938281	0.673299	0.462794	1.074011	-0.647461	-0.496582	-0.223877	0.634746	0.402974	-0.607797	0.255525
10289		10.179630	2.084011	-0.510276	0.591525	0.499069	1.063606	-0.655029	-0.480713	-0.222412	0.633211	0.399010	-0.607688	0.265611
10290		9.894270	2.215526	-0.110552	0.407261	0.469973	1.037173	-0.661377	-0.482666	-0.223389	0.632056	0.394348	-0.607913	0.274658
10291		9.901978	2.220245	-0.368003	0.241341	0.446598	1.020253	-0.662842	-0.462402	-0.229736	0.631374	0.388874	-0.608545	0.282518
10292		9.758653	1.908502	-0.618866	0.209641	0.411736	1.007722	-0.676025	-0.441406	-0.231201	0.630570	0.383444	-0.609248	0.290119
10293		9.886597	1.490923	-0.700104	0.155708	0.351856	0.999535	-0.676514	-0.436523	-0.233154	0.629451	0.377998	-0.610277	0.297440
10294		9.897546	1.031122	-0.449671	0.053046	0.367272	0.972264	-0.687500	-0.423828	-0.241455	0.628758	0.372178	-0.611315	0.304041
10295		9.970330	0.804620	-0.291852	0.090840	0.350995	0.923569	-0.681885	-0.414551	-0.240234	0.627948	0.366744	-0.612197	0.310476
10296		10.033998	0.823637	-0.538302	0.224437	0.350649	0.880764	-0.692627	-0.404053	-0.244629	0.626710	0.362424	-0.612475	0.317424
10297		9.863701	0.999982	-0.505484	0.261591	0.359365	0.859571	-0.696289	-0.393311	-0.250244	0.625412	0.358311	-0.612546	0.324438
10298		9.753243	1.086153	-0.173595	0.129542	0.343300	0.841508	-0.696045	-0.379150	-0.254639	0.624435	0.353636	-0.612966	0.330599
10299		9.753408	0.938235	0.036519	-0.026750	0.310308	0.806105	-0.694580	-0.375488	-0.254150	0.623801	0.348436	-0.613836	0.335664
10300		9.808644	0.598299	-0.041039	-0.057506	0.255532	0.768727	-0.701904	-0.360352	-0.259521	0.623046	0.343431	-0.614933	0.340186
10301		9.717899	0.341924	-0.150871	-0.055699	0.207458	0.731672	-0.708008	-0.342773	-0.264404	0.622120	0.338741	-0.616144	0.344366
10302		9.677456	0.294480	-0.056443	-0.099402	0.183648	0.699182	-0.707764	-0.345947	-0.265381	0.621265	0.334051	-0.617488	0.348064
10303		9.597482	0.167840	0.143488	-0.165166	0.141431	0.669341	-0.709961	-0.337158	-0.275635	0.620441	0.329299	-0.619132	0.351129
10304		9.519196	-0.068030	0.117433	-0.180939	0.096895	0.614301	-0.706299	-0.322266	-0.279785	0.619575	0.324871	-0.620878	0.353689
10305		9.563141	-0.201893	-0.001109	-0.112639	0.077326	0.542089	-0.718994	-0.321777	-0.276855	0.618620	0.321222	-0.622312	0.356164
10306		9.537083	-0.095020	-0.012859	-0.075247	0.062621	0.477658	-0.706055	-0.315186	-0.280273	0.617667	0.318144	-0.623527	0.358449
10307		9.370266	-0.106703	0.300633	-0.142740	0.069696	0.414130	-0.711670	-0.302246	-0.282715	0.617112	0.315027	-0.624727	0.360064
10308		9.349995	-0.241391	0.439350	-0.128052	0.049499	0.329454	-0.717529	-0.294922	-0.287842	0.616664	0.312488	-0.625755	0.361258
10309		9.491902	-0.348877	0.201153	-0.022423	0.021061	0.243075	-0.715088	-0.287354	-0.279541	0.616053	0.311029	-0.626377	0.362481
10310		9.670644	-0.402518	0.007033	0.047508	0.042030	0.184470	-0.719971	-0.292725	-0.286133	0.615546	0.310174	-0.626524	0.363816
10311		9.725892	-0.401114	0.118342	0.064032	0.080111	0.141544	-0.721191	-0.287354	-0.282471	0.615325	0.309517	-0.626313	0.365111
10312		9.699013	-0.420405	0.290580	0.081597	0.076723	0.085511	-0.723145	-0.286621	-0.279785	0.615211	0.309255	-0.625921	0.366197
10313		9.714434	-0.428851	0.230152	0.129908	0.068359	0.036527	-0.725098	-0.289062	-0.277344	0.615080	0.309524	-0.625294	0.367260
10314		9.646981	-0.356163	0.186462	0.150957	0.064825	-0.010737	-0.722656	-0.287598	-0.283691	0.615021	0.310161	-0.624496	0.368176
10315		9.616263	-0.216040	0.167935	0.128551	0.060285	-0.041004	-0.718506	-0.290283	-0.283447	0.615090	0.310858	-0.623710	0.368806
10316		9.633876	-0.149140	0.162573	0.070747	0.035007	-0.065232	-0.724365	-0.290039	-0.284424	0.615253	0.311466	-0.623166	0.368940
10317		9.614992	-0.154758	0.111745	0.047445	0.008434	-0.085943	-0.718262	-0.293945	-0.287598	0.615404	0.312148	-0.622775	0.368772
10318		9.640899	-0.185098	0.183740	0.045034	-0.026019	-0.109560	-0.718506	-0.294434	-0.282715	0.615456	0.313052	-0.622504	0.368377
10319		9.576212	-0.244329	0.183610	0.000509	-0.045464	-0.135441	-0.725586	-0.302979	-0.280762	0.615602	0.313924	-0.622401	0.367563
10320		9.501838	-0.173705	0.042655	-0.011228	-0.074385	-0.161608	-0.721680	-0.301758	-0.284424	0.615710	0.314963	-0.622412	0.366474
10321		9.531366	-0.175133	0.228831	-0.060497	-0.105250	-0.178299	-0.715820	-0.299805	-0.283936	0.615837	0.315932	-0.622685	0.364958
10322		9.537470	-0.077971	0.217951	-0.121197	-0.124829	-0.212000	-0.714844	-0.297607	-0.275879	0.616124	0.316825	-0.623151	0.362899
10323		9.475476	-0.100309	0.053076	-0.108140	-0.139391	-0.257740	-0.714355	-0.299561	-0.271729	0.616436	0.318067	-0.623527	0.360629
10324		9.533345	-0.311544	-0.055975	-0.076227	-0.158525	-0.300615	-0.713379	-0.315186	-0.278076	0.616690	0.319754	-0.623786	0.358249
10325		9.569951	-0.490896	0.051565	-0.049480	-0.193074	-0.352143	-0.719238	-0.316650	-0.272461	0.616840	0.321950	-0.623998	0.355645
10326		9.669047	-0.539461	0.080035	-0.000006	-0.224993	-0.414824	-0.719727	-0.328125	-0.263672	0.616867	0.324812	-0.624054	0.352887
10327		9.682392	-0.304598	-0.143373	0.066183	-0.248381	-0.473569	-0.714111	-0.321777	-0.262207	0.616751	0.328386	-0.623867	0.350101
10328		9.694604	-0.101360	-0.204065	0.109215	-0.274807	-0.509820	-0.710205	-0.335449	-0.258545	0.616474	0.332430	-0.623579	0.347274
10329		9.831573	0.086609	-0.133873	0.116825	-0.300575	-0.533348	-0.711426	-0.338623	-0.255127	0.616094	0.336710	-0.623317	0.344283
10330		9.920430	0.172960	-0.063979	0.123795	-0.301159	-0.560799	-0.718750	-0.348633	-0.244141	0.615752	0.341157	-0.622945	0.341176
10331		9.949317	0.102101	-0.010571	0.103064	-0.316122	-0.597969	-0.706299	-0.353760	-0.243652	0.615469	0.345727	-0.622590	0.337715
10332		9.999960	-0.092313	-0.035041	0.047906	-0.335775	-0.631179	-0.715576	-0.359619	-0.237793	0.615327	0.350226	-0.622365	0.333730
10333		10.110716	-0.372995	-0.260792	0.039351	-0.336331	-0.640530	-0.715088	-0.379883	-0.231689	0.615202	0.354712	-0.622125	0.329646
10334		10.170685	-0.366008	-0.331718	0.114894	-0.322656	-0.639651	-0.706055	-0.383057	-0.229248	0.614897	0.359549	-0.621581	0.325982
10335		10.149092	-0.169958	-0.167648	0.184179	-0.303664	-0.628293	-0.698975	-0.388672	-0.228516	0.614434	0.364602	-0.620761	0.322788
10336		10.252917	0.090771	-0.047071	0.194256	-0.287282	-0.612097	-0.703369	-0.400146	-0.227539	0.613970	0.369553	-0.619853	0.319773
10337		10.288678	0.501760	-0.137283	0.202310	-0.278482	-0.598799	-0.703857	-0.406494	-0.218994	0.613471	0.374437	-0.618894	0.316891
10338		10.031089	0.790696	-0.166292	0.165217	-0.258171	-0.584087	-0.703857	-0.407959	-0.209717	0.613122	0.378987	-0.617969	0.313950
10339		9.792171	0.814529	-0.016443	0.036485	-0.239489	-0.586750	-0.692139	-0.420654	-0.211670	0.613249	0.382821	-0.617278	0.310389
10340		9.775154	0.810219	-0.235557	-0.058229	-0.245657	-0.580336	-0.697266	-0.430908	-0.205566	0.613643	0.386160	-0.616832	0.306334
10341		9.945801	0.793182	-0.594928	-0.058339	-0.279451	-0.559863	-0.693848	-0.438721	-0.195312	0.613774	0.389478	-0.616621	0.302270
10342		10.385470	0.932316	-1.007731	0.022063	-0.269122	-0.527170	-0.693848	-0.440186	-0.198975	0.613574	0.393026	-0.616256	0.298808
10343		9.994575	1.053537	-0.877512	0.066344	-0.232206	-0.525275	-0.687744	-0.450439	-0.191650	0.613419	0.396646	-0.615584	0.295712
10344		9.851981	1.094263	-0.557781	0.035257	-0.238581	-0.548877	-0.672607	-0.457031	-0.184326	0.613366	0.400270	-0.614923	0.292296
10345		9.708676	1.343292	-0.385212	-0.024004	-0.231752	-0.551437	-0.675293	-0.463135	-0.182617	0.613538	0.403610	-0.614331	0.288562
10346		9.467662	1.424324	-0.373263	-0.116562	-0.222886	-0.564587	-0.675049	-0.473877	-0.185791	0.614077	0.406496	-0.613866	0.284321
10347		9.494017	1.417963	-0.406449	-0.207537	-0.233674	-0.585119	-0.670898	-0.475586	-0.185791	0.614922	0.409038	-0.613561	0.279467
10348		9.785437	1.407361	-0.782588	-0.214655	-0.228371	-0.592935	-0.660889	-0.480957	-0.175781	0.615826	0.411527	-0.613208	0.274555
10349		10.014574	1.314181	-1.312622	-0.104578	-0.225418	-0.588726	-0.667480	-0.488770	-0.177246	0.616299	0.414587	-0.612599	0.270215
10350		10.111704	1.479411	-1.502290	0.013461	-0.213243	-0.564835	-0.663574	-0.495605	-0.176025	0.616347	0.418062	-0.611744	0.266662
10351		9.863817	2.002709	-1.128462	0.051447	-0.189487	-0.537010	-0.662109	-0.507080	-0.166748	0.616313	0.421527	-0.610761	0.263523
10352		9.652992	2.491900	-0.732292	-0.052211	-0.177645	-0.521409	-0.653809	-0.508301	-0.172363	0.616600	0.424415	-0.609993	0.259970
10353		9.623864	2.598418	-0.706289	-0.196535	-0.181089	-0.501224	-0.654297	-0.517334	-0.166504	0.617392	0.426400	-0.609586	0.255764
10354		9.681778	2.335429	-0.959650	-0.334046	-0.163703	-0.455836	-0.642578	-0.528076	-0.171143	0.618596	0.427456	-0.609542	0.251155
10355		9.702524	1.924894	-1.091693	-0.429073	-0.124592	-0.399470	-0.645264	-0.516602	-0.173096	0.620259	0.427721	-0.609587	0.246449
10356		9.737999	1.550743	-1.134483	-0.487063	-0.120194	-0.340683	-0.640381	-0.517578	-0.178467	0.621999	0.427195	-0.610043	0.241806
10357		9.784181	1.356311	-1.198860	-0.462847	-0.125676	-0.278784	-0.643799	-0.526123	-0.174805	0.623514	0.426459	-0.610671	0.237579
10358		9.810886	1.408039	-1.105892	-0.389999	-0.091260	-0.223376	-0.637695	-0.520264	-0.182861	0.624741	0.425839	-0.611175	0.234147
10359		9.786564	1.594037	-0.906947	-0.268153	-0.037461	-0.185951	-0.645264	-0.531006	-0.179443	0.625804	0.425447	-0.611288	0.231714
10360		9.706299	1.770125	-0.737963	-0.153048	-0.000419	-0.152532	-0.628662	-0.527100	-0.177979	0.626486	0.425523	-0.611107	0.230204
10361		9.606025	1.828991	-0.736566	-0.102370	0.013655	-0.121876	-0.632324	-0.524414	-0.174805	0.627035	0.425712	-0.610822	0.229112
10362		9.580702	1.794886	-0.826640	-0.102714	0.020320	-0.091056	-0.635498	-0.523926	-0.182861	0.627500	0.425686	-0.610692	0.228235
10363		9.560703	1.651832	-0.962507	-0.105661	0.030268	-0.059363	-0.631348	-0.532715	-0.182129	0.628027	0.425363	-0.610627	0.227558
10364		9.592061	1.473897	-1.052380	-0.055892	0.022320	-0.023929	-0.635498	-0.525635	-0.186279	0.628256	0.425299	-0.610539	0.227280
10365		9.591543	1.398728	-1.065114	0.040581	0.016353	-0.000292	-0.633057	-0.532959	-0.176025	0.628096	0.425456	-0.610470	0.227616
10366		9.641644	1.541360	-0.989825	0.152489	0.017773	0.012607	-0.636963	-0.521240	-0.188232	0.627400	0.426360	-0.610185	0.228607
10367		9.622565	1.862165	-0.988680	0.256701	0.039164	0.025672	-0.628418	-0.531250	-0.174561	0.626584	0.427326	-0.609726	0.230260
10368		9.512502	2.153665	-0.979908	0.270698	0.060601	0.042990	-0.630615	-0.523926	-0.172852	0.625664	0.428592	-0.609064	0.232149
10369		9.442979	2.303091	-0.994792	0.203266	0.051423	0.060532	-0.637451	-0.532471	-0.178711	0.624906	0.429279	-0.608744	0.233760
10370		9.541668	2.334356	-1.061359	0.142002	0.044658	0.079886	-0.639404	-0.526855	-0.173096	0.624351	0.429580	-0.608565	0.235148
10371		9.610837	2.353796	-1.054618	0.110152	0.042395	0.114796	-0.643066	-0.522461	-0.179199	0.623763	0.429496	-0.608678	0.236567
10372		9.531787	2.283044	-1.006211	0.078481	0.047064	0.138641	-0.637695	-0.531738	-0.174805	0.623355	0.428940	-0.608950	0.237948
10373		9.437248	2.295613	-0.953006	0.041235	0.022697	0.150477	-0.640381	-0.523926	-0.177002	0.622892	0.428490	-0.609286	0.239107
10374		9.497381	2.266901	-0.981878	0.002513	0.012636	0.164904	-0.639160	-0.521484	-0.171387	0.622526	0.427615	-0.609885	0.240099
10375		9.478577	2.292029	-1.030298	0.002486	0.011436	0.165553	-0.639404	-0.522705	-0.175781	0.622078	0.426832	-0.610493	0.241106
10376		9.461069	2.350571	-1.123327	-0.018424	-0.003232	0.163378	-0.644287	-0.519531	-0.186768	0.621708	0.425983	-0.611142	0.241914
10377		9.448553	2.338411	-1.012374	-0.060237	-0.031540	0.162739	-0.643066	-0.514404	-0.183105	0.621506	0.424749	-0.612029	0.242361
10378		9.557128	2.243072	-1.077048	-0.118439	-0.059282	0.154844	-0.650146	-0.512939	-0.180176	0.621336	0.423331	-0.613176	0.242379
10379		9.580034	2.081622	-1.093070	-0.157912	-0.054677	0.151146	-0.649658	-0.513184	-0.176514	0.621247	0.421734	-0.614422	0.242237
10380		9.560945	2.018900	-1.087204	-0.177706	-0.025857	0.146351	-0.651123	-0.514404	-0.175049	0.621317	0.420139	-0.615505	0.242081
10381		9.661461	2.024761	-1.025560	-0.157500	-0.004697	0.152253	-0.648438	-0.508301	-0.188232	0.621364	0.418682	-0.616425	0.242142
10382		9.633638	2.008742	-0.934478	-0.110425	-0.008664	0.151088	-0.653809	-0.499268	-0.180664	0.621469	0.417229	-0.617228	0.242334
10383		9.713129	1.890158	-0.853662	-0.063938	-0.033204	0.133296	-0.660400	-0.501221	-0.179199	0.621144	0.416131	-0.618159	0.242683
10384		9.766149	1.799036	-1.010389	-0.030704	-0.034627	0.116954	-0.661377	-0.496826	-0.186035	0.620667	0.415342	-0.618987	0.243141
10385		9.682097	1.895957	-1.056391	-0.009862	-0.010880	0.114181	-0.657227	-0.502930	-0.175049	0.620385	0.414431	-0.619652	0.243724
10386		9.663788	1.954650	-1.044074	-0.007306	-0.007751	0.103194	-0.660645	-0.496826	-0.184570	0.619949	0.414015	-0.620130	0.244324
10387		9.653282	2.008308	-0.913264	-0.056272	-0.020817	0.087931	-0.661133	-0.496826	-0.175049	0.619826	0.413118	-0.620789	0.244481
10388		9.659851	2.091146	-1.026132	-0.159166	-0.059686	0.076247	-0.659668	-0.498291	-0.183350	0.619682	0.412072	-0.621815	0.244002
10389		9.683372	2.205952	-1.050677	-0.206405	-0.050867	0.064192	-0.660889	-0.491455	-0.184082	0.619951	0.410733	-0.622769	0.243141
10390		9.718978	2.267849	-0.981289	-0.219958	-0.047746	0.045815	-0.665527	-0.493896	-0.186279	0.620305	0.409304	-0.623743	0.242151
10391		9.601169	2.262596	-1.098418	-0.328144	-0.059234	0.021939	-0.666992	-0.492188	-0.189453	0.621011	0.407470	-0.624908	0.240424
10392		9.448708	2.184404	-1.178234	-0.368148	-0.066005	0.008504	-0.663818	-0.487793	-0.180420	0.621859	0.405462	-0.626151	0.238384
10393		9.554231	2.066175	-1.060320	-0.290444	-0.054952	-0.002838	-0.663818	-0.489014	-0.188965	0.622291	0.404151	-0.627146	0.236860
10394		9.713785	2.095760	-0.954112	-0.257518	-0.065090	-0.026701	-0.658691	-0.484619	-0.196777	0.622766	0.403024	-0.628008	0.235246
10395		9.571797	2.066029	-1.124475	-0.335433	-0.091988	-0.068859	-0.662842	-0.479492	-0.196777	0.623617	0.401584	-0.628986	0.232828
10396		9.428810	2.146839	-1.244566	-0.341690	-0.088078	-0.097763	-0.664307	-0.477539	-0.195557	0.624484	0.400154	-0.629965	0.230306
10397		9.580479	2.209469	-1.089005	-0.240949	-0.069334	-0.116510	-0.658447	-0.478027	-0.187500	0.625058	0.399340	-0.630627	0.228340
10398		9.682100	2.308704	-0.978812	-0.232781	-0.068006	-0.158590	-0.663574	-0.482910	-0.190918	0.625505	0.399129	-0.631044	0.226326
10399		9.487151	2.319802	-1.086216	-0.324824	-0.064613	-0.201590	-0.661865	-0.481445	-0.196533	0.626388	0.398571	-0.631509	0.223554
10400		9.459513	2.548418	-1.088475	-0.278171	-0.074444	-0.252009	-0.660400	-0.487305	-0.197754	0.627250	0.398378	-0.631790	0.220667
10401		9.518033	2.492237	-1.181982	-0.290759	-0.050491	-0.290732	-0.656494	-0.487305	-0.201416	0.628347	0.398370	-0.631780	0.217568
10402		9.708224	2.462350	-1.117142	-0.269818	-0.064124	-0.349652	-0.658936	-0.490967	-0.195557	0.629460	0.398730	-0.631600	0.214189
10403		9.683057	2.466279	-1.187397	-0.298855	-0.066330	-0.398606	-0.658203	-0.496826	-0.204102	0.630535	0.399370	-0.631353	0.210528
10404		9.555313	2.567998	-1.246138	-0.293769	-0.079583	-0.447244	-0.652100	-0.497314	-0.202393	0.631759	0.400119	-0.631003	0.206446
10405		9.537476	2.636653	-1.161576	-0.255562	-0.087551	-0.476784	-0.648193	-0.508789	-0.209961	0.632796	0.401310	-0.630504	0.202443
10406		9.452283	2.646095	-1.029172	-0.231494	-0.096843	-0.504304	-0.639648	-0.509033	-0.203613	0.633896	0.402740	-0.629827	0.198228
10407		9.440434	2.668117	-1.153280	-0.245294	-0.103479	-0.538464	-0.627441	-0.510498	-0.206543	0.634911	0.404485	-0.629039	0.193880
10408		9.490979	2.847922	-1.186546	-0.239625	-0.110254	-0.564934	-0.628906	-0.515381	-0.203369	0.635998	0.406383	-0.628100	0.189341
10409		9.609590	3.141289	-1.057146	-0.253776	-0.125843	-0.589542	-0.634521	-0.526611	-0.205078	0.636951	0.408375	-0.627246	0.184622
10410		9.429002	3.127739	-1.092870	-0.395575	-0.164751	-0.600659	-0.619141	-0.536865	-0.211670	0.638148	0.409659	-0.626838	0.178944
10411		9.255852	3.035223	-1.219539	-0.488145	-0.147806	-0.621857	-0.617188	-0.538086	-0.211426	0.639930	0.410639	-0.626160	0.172593
10412		9.327483	2.974868	-1.014183	-0.400162	-0.142758	-0.658816	-0.610352	-0.545898	-0.204346	0.641384	0.412222	-0.625260	0.166580
10413		9.641325	3.114297	-1.079306	-0.389588	-0.124143	-0.699650	-0.609375	-0.552734	-0.211670	0.642756	0.414343	-0.624011	0.160607
10414		9.442246	3.156413	-1.225963	-0.413779	-0.109335	-0.708797	-0.604492	-0.559326	-0.211914	0.644357	0.416143	-0.622723	0.154421
10415		9.413110	3.085789	-1.283584	-0.360521	-0.100148	-0.727370	-0.587402	-0.561523	-0.224365	0.645769	0.418348	-0.621227	0.148474
10416		9.556241	3.198409	-1.134779	-0.263334	-0.110270	-0.753801	-0.583496	-0.568604	-0.219971	0.647068	0.421026	-0.619424	0.142671
10417		9.358959	3.392104	-1.281033	-0.264841	-0.110312	-0.769140	-0.592529	-0.576904	-0.218750	0.648233	0.423858	-0.617582	0.136858
10418		9.305180	3.813815	-1.036408	-0.180327	-0.089562	-0.784313	-0.574463	-0.588379	-0.221924	0.649050	0.427042	-0.615685	0.131533
10419		9.422801	4.211606	-0.826953	-0.193031	-0.084494	-0.808949	-0.569580	-0.601562	-0.218018	0.650048	0.430473	-0.613398	0.125989
10420		9.266230	4.335085	-0.935408	-0.300379	-0.084528	-0.810986	-0.562988	-0.607422	-0.224121	0.651291	0.433513	-0.611140	0.119973
10421		9.308588	4.451065	-1.175025	-0.395603	-0.086810	-0.802033	-0.555420	-0.598389	-0.225342	0.652899	0.435846	-0.609005	0.113465
10422		8.802294	4.212742	-1.107699	-0.438265	-0.058547	-0.758604	-0.542969	-0.620117	-0.226807	0.654738	0.437323	-0.607141	0.106988
10423		9.319923	4.508099	-1.052214	-0.422847	-0.067107	-0.777454	-0.542236	-0.610352	-0.229980	0.656425	0.439493	-0.604843	0.100587
10424		8.729074	4.606485	-0.837695	-0.451817	-0.039324	-0.752362	-0.536133	-0.621094	-0.241699	0.658299	0.440827	-0.602868	0.094154
10425		8.742234	4.549350	-0.819891	-0.415094	-0.032099	-0.759861	-0.530762	-0.626709	-0.249023	0.660153	0.442376	-0.600650	0.087873
10426		8.797531	4.376972	-0.997461	-0.330408	-0.000302	-0.773171	-0.524658	-0.628906	-0.236084	0.661872	0.444334	-0.598134	0.082029
10427		8.718680	4.354441	-1.002707	-0.243905	0.028416	-0.753695	-0.511475	-0.644287	-0.245850	0.663122	0.446810	-0.595573	0.076961
10428		8.549670	4.422715	-0.905051	-0.184159	0.038246	-0.719224	-0.509033	-0.646973	-0.242920	0.664285	0.449597	-0.592742	0.072421
10429		8.387235	4.615728	-0.807116	-0.104560	0.042253	-0.692099	-0.495117	-0.643799	-0.246094	0.665049	0.452592	-0.590072	0.068455
10430		8.432361	4.924100	-0.604636	-0.041127	0.031916	-0.679672	-0.483643	-0.659668	-0.240723	0.665595	0.455723	-0.587461	0.064719
10431		8.155027	4.911310	-0.871676	-0.095256	0.047290	-0.637065	-0.481689	-0.663086	-0.248291	0.666324	0.458674	-0.584714	0.061164
10432		7.950847	4.902952	-1.007885	-0.072375	0.037148	-0.600000	-0.481689	-0.666748	-0.250000	0.666951	0.461332	-0.582245	0.057793
10433		7.769512	4.673858	-0.922376	-0.000987	0.039469	-0.536389	-0.471924	-0.669922	-0.244141	0.667259	0.463936	-0.580080	0.055098
10434		8.050464	4.614876	-0.781761	0.061316	0.053722	-0.486192	-0.458984	-0.677979	-0.257568	0.667336	0.466715	-0.577948	0.053067
10435		7.893810	4.826002	-0.898441	0.046755	0.062237	-0.410137	-0.462402	-0.676270	-0.245850	0.667638	0.469013	-0.575890	0.051348
10436		7.724324	4.786324	-0.845522	0.075557	0.065720	-0.310159	-0.456543	-0.677490	-0.253174	0.667662	0.470923	-0.574389	0.050366
10437		8.186939	4.664429	-0.929499	0.117549	0.029314	-0.245637	-0.448975	-0.679932	-0.247559	0.667401	0.472689	-0.573296	0.049731
10438		8.045029	4.645132	-1.089828	0.064869	0.040872	-0.145388	-0.445068	-0.678955	-0.247070	0.667341	0.473769	-0.572495	0.049486
10439		8.069560	4.635926	-0.998457	0.046779	0.031855	-0.043247	-0.453125	-0.683594	-0.250977	0.667277	0.474247	-0.572157	0.049671
10440		8.085677	4.755112	-0.932954	0.031444	0.024747	0.049158	-0.454590	-0.687744	-0.241943	0.667199	0.474132	-0.572293	0.050263
10441		8.086912	4.911623	-1.002700	-0.005434	0.034426	0.124517	-0.452881	-0.685059	-0.244873	0.667211	0.473581	-0.572647	0.051237
10442		8.084508	4.872539	-1.051839	-0.039135	0.031371	0.192867	-0.452148	-0.686768	-0.250000	0.667349	0.472486	-0.573288	0.052378
10443		8.040014	4.689904	-1.022547	-0.048822	0.033830	0.256497	-0.464600	-0.672363	-0.249268	0.667547	0.471037	-0.574116	0.053810
10444		8.133129	4.387282	-0.888690	-0.012498	0.035251	0.318994	-0.460693	-0.675049	-0.245361	0.667541	0.469284	-0.575375	0.055721
10445		8.418316	4.204330	-0.983018	0.077344	0.047385	0.376186	-0.469482	-0.674561	-0.241211	0.667205	0.467917	-0.576602	0.058497
10446		8.379512	4.307436	-1.118557	0.109443	0.062639	0.454879	-0.475830	-0.668213	-0.255615	0.666728	0.466360	-0.578050	0.061974
10447		8.479411	4.531470	-1.154388	0.140670	0.063948	0.534685	-0.470947	-0.669678	-0.252197	0.666190	0.464357	-0.579848	0.065872
10448		8.484851	4.700145	-1.136321	0.116209	0.099677	0.611158	-0.492676	-0.657471	-0.245117	0.665877	0.461981	-0.581589	0.070251
10449		8.439482	4.615055	-0.834875	0.127099	0.142160	0.656387	-0.484131	-0.658691	-0.240967	0.665579	0.459299	-0.583437	0.075166
10450		8.863219	4.753260	-0.677912	0.113524	0.100768	0.631576	-0.495117	-0.653320	-0.242188	0.665153	0.456897	-0.585196	0.079762
10451		8.465550	4.911219	-0.742924	-0.009721	0.066650	0.657589	-0.503418	-0.644531	-0.242188	0.664990	0.453624	-0.587367	0.083749
10452		8.287159	4.698334	-0.787079	0.064594	0.017964	0.704088	-0.504150	-0.638916	-0.253662	0.664246	0.450515	-0.589950	0.088165
10453		8.934357	4.079059	-0.577944	0.130760	0.040483	0.725206	-0.521729	-0.633545	-0.246338	0.663445	0.447525	-0.592388	0.092948
10454		9.322119	3.759608	-0.972610	0.112044	0.042073	0.732465	-0.531982	-0.617188	-0.244873	0.662600	0.444395	-0.594906	0.097782
10455		8.890989	3.637219	-1.086299	0.165368	0.123512	0.811631	-0.534180	-0.614014	-0.240479	0.661854	0.440965	-0.597298	0.103606
10456		9.205378	3.403853	-0.853516	0.395748	0.155381	0.890816	-0.546387	-0.603027	-0.240723	0.660301	0.438497	-0.599467	0.111180
10457		9.671981	3.590464	-0.692728	0.584384	0.189187	0.955752	-0.549561	-0.608398	-0.243408	0.658129	0.436557	-0.601542	0.120128
10458		9.481210	3.720596	-0.745206	0.619241	0.203807	1.016644	-0.558350	-0.595703	-0.239014	0.655875	0.434490	-0.603547	0.129524
10459		9.329064	3.528414	-0.685801	0.603036	0.249786	1.079073	-0.568115	-0.582764	-0.241943	0.653776	0.431876	-0.605513	0.139335
10460		9.622268	3.162650	-0.586454	0.663491	0.289913	1.110020	-0.579346	-0.578369	-0.231934	0.651620	0.429172	-0.607295	0.149652
10461		9.871064	2.863759	-0.575577	0.796499	0.320223	1.151692	-0.583252	-0.571533	-0.222412	0.648932	0.427033	-0.608758	0.161071
10462		9.885352	2.672948	-0.588529	0.931679	0.355778	1.191252	-0.598633	-0.556641	-0.215820	0.645756	0.425468	-0.609797	0.173563
10463		10.055667	2.598843	-0.575325	0.999137	0.382952	1.218210	-0.603760	-0.550781	-0.218506	0.642276	0.423955	-0.610650	0.186683
10464		10.234651	2.560527	-0.706014	1.010421	0.431323	1.236904	-0.618408	-0.536621	-0.219482	0.638994	0.422131	-0.611166	0.199921
10465		10.183799	2.511790	-0.973254	1.069412	0.463458	1.253242	-0.620117	-0.531250	-0.206055	0.635569	0.420206	-0.611444	0.213575
10466		10.083280	2.471112	-1.025874	1.090291	0.477166	1.271301	-0.634521	-0.515381	-0.210205	0.631897	0.418481	-0.611394	0.227547
10467		10.091581	2.345155	-1.018707	1.034533	0.462407	1.279922	-0.642334	-0.505371	-0.210938	0.628294	0.416088	-0.611546	0.241100
10468		10.349508	2.276770	-0.835925	0.900757	0.457936	1.299703	-0.653564	-0.492920	-0.208984	0.625062	0.412731	-0.611940	0.253928
10469		10.299063	2.210583	-0.563197	0.713584	0.463091	1.313743	-0.660400	-0.479248	-0.205811	0.622353	0.408230	-0.612643	0.265882
10470		10.135402	2.107740	-0.400439	0.519013	0.469366	1.302587	-0.676025	-0.469971	-0.207031	0.620207	0.402811	-0.613548	0.276850
10471		10.017315	2.051234	-0.471574	0.360022	0.449388	1.261947	-0.671631	-0.458984	-0.217773	0.618485	0.396749	-0.614724	0.286672
10472		9.907650	2.067754	-0.833769	0.323555	0.409741	1.212901	-0.688477	-0.446289	-0.222900	0.616911	0.390722	-0.615894	0.295688
10473		9.800974	1.789299	-0.866440	0.251006	0.389225	1.183863	-0.681396	-0.425293	-0.226318	0.615398	0.384469	-0.617223	0.304147
10474		9.766484	1.368619	-0.624479	0.106443	0.374464	1.149121	-0.686279	-0.412109	-0.232422	0.614138	0.377922	-0.618700	0.311801
10475		9.954094	0.980505	-0.630127	0.034674	0.333060	1.114626	-0.702393	-0.395264	-0.230469	0.612809	0.371378	-0.620411	0.318800
10476		10.024161	0.754593	-0.646096	0.072664	0.308271	1.064609	-0.705322	-0.377441	-0.239258	0.611239	0.365379	-0.621948	0.325678
10477		9.992022	0.765414	-0.621638	0.128136	0.290397	0.989562	-0.704346	-0.371094	-0.239990	0.609570	0.360070	-0.623143	0.332366
10478		9.989301	0.824661	-0.486394	0.141911	0.291459	0.910870	-0.711670	-0.359619	-0.249023	0.608037	0.355219	-0.624013	0.338701
10479		9.921087	0.778996	-0.398924	0.121924	0.276834	0.831390	-0.715576	-0.348633	-0.246826	0.606675	0.350699	-0.624741	0.344462
10480		9.728905	0.718890	-0.100786	0.077404	0.227337	0.744558	-0.711914	-0.342285	-0.246094	0.605403	0.346532	-0.625563	0.349389
10481		9.465904	0.650811	0.112382	-0.028670	0.192746	0.658027	-0.708496	-0.331299	-0.248291	0.604487	0.342372	-0.626593	0.353210
10482		9.501527	0.387958	0.118562	-0.062133	0.185515	0.578629	-0.722412	-0.313721	-0.252686	0.603845	0.338469	-0.627512	0.356425
10483		9.724985	-0.087522	-0.072282	-0.024138	0.191675	0.511717	-0.723389	-0.319824	-0.255127	0.603313	0.335080	-0.628083	0.359508
10484		9.777443	-0.338183	-0.024419	-0.006847	0.233872	0.443306	-0.718994	-0.307617	-0.259033	0.603147	0.332007	-0.628186	0.362448
10485		9.654122	-0.428768	0.110780	0.049377	0.253513	0.377227	-0.732422	-0.303711	-0.261963	0.603118	0.329496	-0.627827	0.365398
10486		9.721123	-0.565973	0.159680	0.142508	0.231583	0.323063	-0.721924	-0.300049	-0.266602	0.602874	0.327799	-0.627137	0.368497
10487		9.816463	-0.766494	0.088597	0.195926	0.227695	0.279496	-0.724609	-0.298584	-0.270020	0.602591	0.326607	-0.626175	0.371641
10488		9.815282	-0.753998	0.086491	0.215167	0.217299	0.243731	-0.723633	-0.294922	-0.268066	0.602305	0.325726	-0.625101	0.374673
10489		9.688634	-0.582119	0.040592	0.231838	0.209033	0.227832	-0.726318	-0.288818	-0.282959	0.601974	0.325034	-0.623966	0.377685
10490		9.557722	-0.321299	0.095515	0.223107	0.183424	0.199798	-0.720947	-0.288330	-0.278076	0.601616	0.324522	-0.622905	0.380438
10491		9.562665	-0.208269	0.035311	0.176415	0.145313	0.160582	-0.721680	-0.283691	-0.277100	0.601306	0.324098	-0.622073	0.382644
10492		9.491586	-0.038235	0.078400	0.128518	0.103383	0.121136	-0.721680	-0.297852	-0.281494	0.601032	0.323773	-0.621494	0.384287
10493		9.326043	0.067290	0.037986	0.064304	0.063480	0.075381	-0.723877	-0.291260	-0.281250	0.600871	0.323491	-0.621196	0.385258
10494		9.253052	-0.123807	0.070613	0.005317	0.010059	0.023852	-0.727051	-0.291016	-0.283691	0.600758	0.323353	-0.621216	0.385518
10495		9.293114	-0.399824	-0.090421	0.001408	-0.032162	-0.034684	-0.729004	-0.287354	-0.279053	0.600625	0.323635	-0.621301	0.385349
10496		9.221573	-0.434061	-0.172744	0.019359	-0.072550	-0.097067	-0.725830	-0.290283	-0.279785	0.600436	0.324460	-0.621364	0.384850
10497		9.255400	-0.273567	-0.124016	0.048945	-0.107589	-0.156883	-0.720947	-0.288086	-0.281250	0.600176	0.325856	-0.621344	0.384107
10498		9.265718	-0.073172	0.006922	0.080636	-0.146271	-0.217249	-0.723389	-0.294434	-0.264404	0.599821	0.327845	-0.621251	0.383118
10499		9.317885	-0.068884	0.109195	0.061301	-0.183054	-0.283321	-0.730225	-0.297607	-0.259766	0.599536	0.330197	-0.621219	0.381593
10500		9.417114	-0.026112	-0.048858	0.066324	-0.203601	-0.342637	-0.725586	-0.305664	-0.261963	0.599315	0.332944	-0.621105	0.379735
10501		9.608291	-0.001501	-0.138191	0.056559	-0.241486	-0.364630	-0.719238	-0.304688	-0.264404	0.598988	0.335873	-0.621141	0.377606
10502		9.635383	0.075877	-0.212717	0.013463	-0.280257	-0.389436	-0.722412	-0.318604	-0.252686	0.598652	0.338832	-0.621428	0.375014
10503		9.608786	-0.150350	-0.100542	-0.051765	-0.298171	-0.426988	-0.725342	-0.322754	-0.243652	0.598514	0.341714	-0.621893	0.371836
10504		9.612708	-0.488851	-0.001436	-0.068923	-0.323283	-0.474453	-0.716064	-0.324951	-0.246338	0.598428	0.344826	-0.622389	0.368252
10505		9.710764	-0.626206	-0.049947	-0.012574	-0.354421	-0.517947	-0.720215	-0.333252	-0.239502	0.598142	0.348530	-0.622725	0.364647
10506		9.848135	-0.362225	-0.157562	0.060306	-0.377197	-0.542747	-0.716064	-0.328613	-0.237061	0.597581	0.352787	-0.622864	0.361218
10507		9.925681	-0.041470	-0.399122	0.080356	-0.368550	-0.568536	-0.720459	-0.342285	-0.233154	0.597067	0.357235	-0.622806	0.357781
10508		9.970995	0.151632	-0.317138	0.125385	-0.343303	-0.602875	-0.717773	-0.357666	-0.221680	0.596632	0.362003	-0.622363	0.354468
10509		10.121593	0.200690	-0.160508	0.135508	-0.349959	-0.626799	-0.718506	-0.370361	-0.219238	0.596180	0.366959	-0.621830	0.351053
10510		10.161928	0.051872	-0.141234	0.115829	-0.363325	-0.657263	-0.721436	-0.370361	-0.214111	0.595787	0.371999	-0.621302	0.347331
10511		10.093578	-0.043782	-0.241073	0.109037	-0.361710	-0.680599	-0.711426	-0.385254	-0.210938	0.595468	0.377094	-0.620693	0.343451
10512		10.059542	-0.008485	-0.250349	0.054384	-0.365217	-0.675087	-0.714844	-0.385986	-0.199463	0.595266	0.381895	-0.620240	0.339290
10513		10.028941	0.209777	-0.185294	-0.016977	-0.377502	-0.660891	-0.700928	-0.400879	-0.200439	0.595152	0.386277	-0.620085	0.334780
10514		10.137821	0.585110	-0.084118	-0.099453	-0.396593	-0.660678	-0.703125	-0.400635	-0.184570	0.595196	0.390303	-0.620208	0.329769
10515		10.370293	0.855178	-0.528370	-0.083514	-0.397269	-0.655603	-0.700439	-0.425537	-0.182129	0.595122	0.394360	-0.620307	0.324852
10516		10.070100	0.799078	-0.543485	-0.099719	-0.353760	-0.629537	-0.702637	-0.418701	-0.183350	0.595239	0.398107	-0.620271	0.320103
10517		9.831603	0.524839	-0.322646	-0.285881	-0.327722	-0.609595	-0.697754	-0.432617	-0.179443	0.596043	0.400688	-0.620663	0.314577
10518		9.938995	0.298208	-0.549186	-0.418913	-0.348732	-0.574978	-0.691650	-0.430908	-0.174072	0.597064	0.402499	-0.621587	0.308447
10519		10.315065	0.332294	-0.756697	-0.400455	-0.330052	-0.521418	-0.692627	-0.438477	-0.179199	0.597947	0.404048	-0.622539	0.302736
10520		10.360102	0.494746	-0.889460	-0.377343	-0.280081	-0.468096	-0.692383	-0.443115	-0.166992	0.598877	0.405285	-0.623331	0.297571
10521		10.346720	0.626095	-0.711861	-0.396545	-0.218816	-0.448091	-0.687012	-0.447998	-0.167480	0.600073	0.406189	-0.623941	0.292610
10522		10.244145	0.816853	-0.822364	-0.299804	-0.231759	-0.428630	-0.689209	-0.450195	-0.183838	0.600817	0.407507	-0.624418	0.288199
10523		9.968443	0.787596	-0.817632	-0.267540	-0.265000	-0.391744	-0.687500	-0.462891	-0.166260	0.601254	0.408784	-0.625078	0.284021
10524		9.921515	0.754031	-0.790791	-0.381033	-0.242573	-0.369125	-0.680908	-0.460693	-0.168213	0.602040	0.409425	-0.625966	0.279436
10525		9.908944	0.781233	-0.758496	-0.505053	-0.212970	-0.347603	-0.682129	-0.463867	-0.165283	0.603357	0.409227	-0.627051	0.274410
10526		9.791295	0.824979	-0.681262	-0.524882	-0.210287	-0.336255	-0.678955	-0.469727	-0.170898	0.604682	0.408866	-0.628203	0.269349
10527		9.794930	0.946838	-0.972800	-0.480272	-0.217835	-0.364642	-0.673096	-0.468018	-0.168457	0.605889	0.408895	-0.629148	0.264341
10528		9.848380	1.036642	-1.162629	-0.367075	-0.180738	-0.412237	-0.681396	-0.476074	-0.175537	0.606979	0.409650	-0.629494	0.259810
10529		9.675754	1.183456	-1.227894	-0.184766	-0.179768	-0.440327	-0.673828	-0.482666	-0.173584	0.607522	0.411429	-0.629330	0.256101
10530		9.659013	1.303907	-1.347650	-0.119369	-0.167390	-0.470594	-0.677979	-0.481934	-0.159424	0.607958	0.413709	-0.628822	0.252614
10531		9.627855	1.393720	-1.257405	-0.063293	-0.135060	-0.477447	-0.664062	-0.482910	-0.166992	0.608261	0.416231	-0.628098	0.249525
10532		9.607889	1.563005	-1.277283	0.007900	-0.109220	-0.445387	-0.662109	-0.484375	-0.158203	0.608474	0.418835	-0.627146	0.247032
10533		9.591583	1.702675	-1.202703	0.051214	-0.069584	-0.421001	-0.662598	-0.499268	-0.174316	0.608620	0.421456	-0.626027	0.245043
10534		9.543550	1.853073	-1.056759	0.011030	-0.072013	-0.432848	-0.659912	-0.501953	-0.158691	0.609051	0.423901	-0.624851	0.242746
10535		9.691582	1.959547	-1.282001	-0.122386	-0.102733	-0.479241	-0.645264	-0.505127	-0.160156	0.609742	0.426057	-0.623985	0.239445
10536		9.559808	2.162105	-1.427457	-0.160615	-0.062738	-0.482974	-0.657959	-0.511230	-0.160156	0.610821	0.427977	-0.622911	0.236042
10537		9.834909	2.426425	-1.274533	-0.118303	-0.088334	-0.455066	-0.648682	-0.511719	-0.165039	0.611501	0.429939	-0.622060	0.232940
10538		9.718000	2.548958	-1.324631	-0.269692	-0.121760	-0.430205	-0.643799	-0.522217	-0.160645	0.612566	0.430993	-0.621737	0.229025
10539		9.335469	2.456143	-1.204975	-0.439163	-0.095227	-0.360775	-0.642334	-0.521973	-0.166748	0.614171	0.430921	-0.621779	0.224705
10540		9.417009	2.278505	-1.045129	-0.434225	-0.111696	-0.275539	-0.634277	-0.518799	-0.169922	0.615542	0.430370	-0.622215	0.220769
10541		9.731301	2.103215	-1.012534	-0.454288	-0.092479	-0.205942	-0.647217	-0.521240	-0.175293	0.616980	0.429273	-0.622829	0.217127
10542		9.771973	1.917237	-1.193711	-0.523485	-0.064092	-0.180225	-0.635986	-0.528564	-0.169678	0.618737	0.427523	-0.623585	0.213379
10543		9.368325	1.995447	-1.220305	-0.468492	-0.081845	-0.154984	-0.629883	-0.532715	-0.177490	0.620057	0.426247	-0.624284	0.210029
10544		9.452218	1.890945	-1.141005	-0.348121	-0.104783	-0.128477	-0.645508	-0.530762	-0.175293	0.620847	0.425540	-0.624882	0.207336
10545		9.622104	1.693846	-1.290580	-0.203350	-0.065756	-0.094427	-0.638672	-0.526855	-0.172363	0.621161	0.425210	-0.625315	0.205758
10546		9.631871	1.733236	-1.269999	-0.055454	0.005897	-0.040682	-0.640381	-0.527588	-0.184814	0.621216	0.425258	-0.625320	0.205477
10547		9.542482	1.923516	-1.200517	0.003105	0.035645	0.012698	-0.636475	-0.526855	-0.187012	0.621275	0.425132	-0.625231	0.205830
10548		9.351688	2.199581	-1.190954	0.001227	0.050234	0.053204	-0.643311	-0.536133	-0.182129	0.621391	0.424757	-0.625178	0.206414
10549		9.305533	2.394557	-1.112395	0.013863	0.035648	0.064309	-0.638916	-0.528809	-0.178955	0.621250	0.424622	-0.625164	0.207159
10550		9.343845	2.323327	-1.133916	-0.040972	0.006921	0.053644	-0.637207	-0.525146	-0.185547	0.621164	0.424254	-0.625407	0.207438
10551		9.429546	2.202157	-1.279751	-0.031569	-0.000090	0.026569	-0.645020	-0.524170	-0.182129	0.621158	0.423965	-0.625572	0.207547
10552		9.553646	2.171646	-1.278997	0.048566	0.003406	0.021626	-0.634277	-0.528320	-0.180176	0.620820	0.424076	-0.625652	0.208089
10553		9.527421	2.340749	-1.353099	0.115462	0.030900	0.040229	-0.640381	-0.532227	-0.182373	0.620372	0.424601	-0.625373	0.209190
10554		9.421060	2.451235	-1.225353	0.145531	0.047855	0.051744	-0.644043	-0.521240	-0.181641	0.619894	0.425185	-0.624983	0.210584
10555		9.340922	2.420207	-1.222854	0.105277	0.018273	0.050487	-0.634033	-0.525635	-0.175537	0.619424	0.425336	-0.625007	0.211589
10556		9.468355	2.308300	-1.245505	0.103486	-0.020711	0.032890	-0.641357	-0.518311	-0.173340	0.618745	0.425918	-0.625007	0.212403
10557		9.609106	2.323333	-1.498030	0.145625	0.007621	0.024363	-0.641846	-0.527588	-0.174072	0.618058	0.426482	-0.624943	0.213458
10558		9.471561	2.402065	-1.368923	0.226894	0.020726	0.034606	-0.644775	-0.521240	-0.176758	0.617135	0.427578	-0.624546	0.215089
10559		9.380291	2.477662	-1.284868	0.276484	0.045665	0.039609	-0.637695	-0.518555	-0.177979	0.616232	0.428604	-0.624068	0.217017
10560		9.244315	2.520425	-1.237330	0.300476	0.031426	0.043069	-0.640869	-0.512451	-0.173828	0.615250	0.429714	-0.623588	0.218979
10561		9.259281	2.541199	-1.244026	0.303657	0.023350	0.041531	-0.638428	-0.522217	-0.169434	0.614187	0.430717	-0.623265	0.220905
10562		9.293536	2.480429	-1.260252	0.261618	0.017047	0.017751	-0.647705	-0.526123	-0.169189	0.613241	0.431925	-0.622780	0.222535
10563		9.414653	2.361845	-1.331311	0.243966	0.008008	-0.016912	-0.644043	-0.526123	-0.166016	0.612361	0.433181	-0.622293	0.223873
10564		9.439337	2.320505	-1.399150	0.262092	-0.004822	-0.029195	-0.641113	-0.519043	-0.167480	0.611371	0.434655	-0.621763	0.225194
10565		9.439343	2.289261	-1.507073	0.243022	0.007775	-0.015616	-0.644775	-0.522461	-0.162598	0.610581	0.435715	-0.621339	0.226452
10566		9.551198	2.296804	-1.411446	0.229380	-0.003869	-0.000996	-0.642822	-0.516113	-0.163330	0.609679	0.436728	-0.621050	0.227723
10567		9.714119	2.380617	-1.331532	0.198729	0.005546	0.013493	-0.644775	-0.530029	-0.162354	0.608976	0.437316	-0.620896	0.228891
10568		9.692367	2.513344	-1.255056	0.174562	0.023179	0.036289	-0.641357	-0.525879	-0.155029	0.608410	0.437860	-0.620616	0.230113
10569		9.699088	2.499276	-1.169957	0.129624	0.038296	0.055616	-0.645264	-0.526367	-0.157959	0.607947	0.438155	-0.620407	0.231338
10570		9.660575	2.503352	-1.216950	0.114782	0.055039	0.073839	-0.645264	-0.523682	-0.155518	0.607650	0.438130	-0.620247	0.232588
10571		9.533056	2.487827	-1.290512	0.113443	0.061540	0.096444	-0.643311	-0.525635	-0.156006	0.607309	0.437985	-0.620151	0.234001
10572		9.437619	2.449504	-1.273390	0.078574	0.029902	0.116147	-0.642090	-0.518311	-0.156250	0.606927	0.437685	-0.620288	0.235189
10573		9.432043	2.392134	-1.450016	0.025170	0.000133	0.118320	-0.643555	-0.527100	-0.161621	0.606602	0.437058	-0.620740	0.235999
10574		9.332047	2.407738	-1.484334	0.003629	0.000597	0.118755	-0.650635	-0.514160	-0.155029	0.606486	0.436347	-0.621136	0.236573
10575		9.260335	2.411246	-1.391578	0.005365	-0.007087	0.113697	-0.653076	-0.518066	-0.157227	0.606148	0.435584	-0.621731	0.237281
10576		9.288510	2.333966	-1.391690	-0.003821	-0.017435	0.098956	-0.647949	-0.523193	-0.156250	0.605874	0.434878	-0.622307	0.237764
10577		9.463875	2.344363	-1.469076	-0.038710	-0.005624	0.078685	-0.657227	-0.510986	-0.155518	0.605852	0.434277	-0.622673	0.237962
10578		9.526584	2.374459	-1.410368	-0.077484	-0.016366	0.058979	-0.649658	-0.517090	-0.152100	0.605868	0.433344	-0.623317	0.237935
10579		9.464568	2.463125	-1.377406	-0.109520	-0.008371	0.053294	-0.651123	-0.505859	-0.159180	0.606018	0.432594	-0.623765	0.237743
10580		9.628716	2.490679	-1.307707	-0.158207	-0.041085	0.023447	-0.649902	-0.511719	-0.161133	0.606357	0.431450	-0.624523	0.236966
10581		9.475810	2.542301	-1.577390	-0.298783	-0.058234	-0.013109	-0.651611	-0.505371	-0.165283	0.607231	0.429915	-0.625425	0.235134
10582		9.357736	2.502807	-1.385239	-0.317324	-0.071105	-0.014820	-0.655273	-0.511719	-0.158691	0.608134	0.428140	-0.626506	0.233149
10583		9.819048	2.557755	-1.242720	-0.321146	-0.108617	-0.040929	-0.649170	-0.513672	-0.164307	0.608693	0.426886	-0.627607	0.231020
10584		9.864835	2.775816	-1.360423	-0.531158	-0.147339	-0.115015	-0.647705	-0.510254	-0.164307	0.610074	0.425004	-0.628962	0.227130
10585		9.119073	2.758145	-1.505279	-0.657248	-0.156943	-0.132894	-0.647217	-0.507324	-0.166992	0.611791	0.422646	-0.630521	0.222544
10586		9.288498	2.706259	-1.313279	-0.568760	-0.179045	-0.132910	-0.646729	-0.507080	-0.171631	0.613027	0.420767	-0.632029	0.218386
10587		9.673003	2.567287	-1.296671	-0.525506	-0.188794	-0.159114	-0.651367	-0.516602	-0.174072	0.614141	0.419191	-0.633414	0.214236
10588		9.509617	2.541662	-1.352217	-0.525187	-0.171369	-0.208283	-0.652344	-0.510010	-0.176025	0.615420	0.417899	-0.634502	0.209824
10589		9.506650	2.531993	-1.247458	-0.442346	-0.161076	-0.263130	-0.648193	-0.504883	-0.169678	0.616501	0.417168	-0.635288	0.205686
10590		9.594256	2.760284	-1.407457	-0.459470	-0.175707	-0.315230	-0.642334	-0.510254	-0.177002	0.617429	0.416859	-0.635966	0.201388
10591		9.421767	2.901107	-1.492696	-0.471702	-0.199327	-0.356245	-0.647705	-0.516357	-0.183594	0.618502	0.416653	-0.636575	0.196539
10592		9.461357	3.068448	-1.276760	-0.440506	-0.170324	-0.414603	-0.644287	-0.520264	-0.182861	0.619788	0.416637	-0.636865	0.191519
10593		9.381984	3.199474	-1.447518	-0.470117	-0.144780	-0.500582	-0.647949	-0.523438	-0.184814	0.621368	0.416989	-0.636719	0.186040
10594		9.219953	3.040160	-1.490485	-0.461742	-0.146900	-0.591405	-0.642578	-0.526367	-0.182373	0.622972	0.417738	-0.636353	0.180154
10595		9.771295	3.047546	-1.370374	-0.420592	-0.149784	-0.698363	-0.627686	-0.536133	-0.187256	0.624431	0.419414	-0.635517	0.174057
10596		10.396665	3.762972	-1.154472	-0.570010	-0.225079	-0.825727	-0.626221	-0.540771	-0.197266	0.626297	0.421196	-0.634630	0.166106
10597		8.882788	3.601625	-1.840422	-0.935945	-0.167533	-0.792280	-0.615479	-0.547363	-0.197510	0.629804	0.420367	-0.634180	0.156380
10598		8.805565	3.689881	-1.561850	-0.664553	-0.146655	-0.836626	-0.607178	-0.557373	-0.205078	0.632332	0.421483	-0.632911	0.148092
10599		9.259537	3.381854	-1.120467	-0.551791	-0.112440	-0.940632	-0.604248	-0.563232	-0.198486	0.634810	0.423642	-0.630863	0.139842
10600		9.488718	3.415694	-1.251369	-0.323432	-0.070939	-1.038401	-0.588135	-0.574219	-0.204346	0.636475	0.427712	-0.627962	0.132762
10601		9.498518	3.374390	-1.499361	-0.097724	-0.042726	-1.076320	-0.574219	-0.577881	-0.197266	0.637612	0.433131	-0.624352	0.126623
10602		9.421751	3.652474	-1.482728	0.059776	-0.037814	-1.116208	-0.564209	-0.601562	-0.208496	0.638052	0.439757	-0.620309	0.121331
10603		9.317346	4.339070	-1.405751	0.129204	-0.009023	-1.150365	-0.560303	-0.605469	-0.197998	0.638646	0.446689	-0.615755	0.115956
10604		9.260772	5.216201	-1.347502	0.026951	-0.039042	-1.197453	-0.551758	-0.624023	-0.201172	0.639209	0.453281	-0.611445	0.109928
10605		8.494581	5.533038	-1.465086	-0.148408	-0.051530	-1.197069	-0.541260	-0.626953	-0.193359	0.640373	0.458880	-0.607263	0.102873
10606		8.385009	5.361918	-1.606462	-0.155937	-0.090927	-1.207055	-0.524170	-0.640869	-0.195801	0.641129	0.464534	-0.603316	0.095766
10607		8.580499	5.093440	-1.309915	-0.171386	-0.105118	-1.212926	-0.518311	-0.656006	-0.200439	0.641892	0.470240	-0.599184	0.088469
10608		8.771402	5.064867	-1.360073	-0.248121	-0.078098	-1.185638	-0.503662	-0.662109	-0.199219	0.643047	0.475195	-0.595084	0.080968
10609		8.894144	5.541429	-1.492749	-0.394047	-0.095552	-1.148404	-0.482910	-0.677002	-0.208008	0.644577	0.479191	-0.591252	0.072921
10610		8.211485	5.383946	-1.636135	-0.585405	-0.076425	-1.067165	-0.476074	-0.681885	-0.208008	0.647016	0.481934	-0.587332	0.064426
10611		8.316265	5.086154	-1.432154	-0.552380	-0.092367	-1.027338	-0.466553	-0.684082	-0.216553	0.649040	0.484581	-0.583743	0.056325
10612		8.274052	4.809585	-1.462171	-0.529183	-0.064040	-0.978426	-0.454346	-0.690918	-0.221680	0.651107	0.486803	-0.580279	0.048569
10613		8.382019	4.976506	-1.428156	-0.370454	-0.056617	-0.908890	-0.447021	-0.697998	-0.225098	0.652508	0.489568	-0.576880	0.042015
10614		8.305023	5.039742	-1.211019	-0.318507	-0.035117	-0.838240	-0.432129	-0.708984	-0.235107	0.653728	0.492202	-0.573644	0.036190
10615		7.834300	4.994386	-1.223669	-0.348953	-0.048554	-0.766936	-0.432129	-0.705078	-0.235596	0.655095	0.494467	-0.570454	0.030589
10616		7.589200	5.038403	-1.187178	-0.271457	-0.051272	-0.696407	-0.423828	-0.717285	-0.240479	0.656008	0.496387	-0.567980	0.025545
10617		7.581608	5.014275	-1.239528	-0.214405	-0.063183	-0.622979	-0.415527	-0.724121	-0.234619	0.656621	0.498452	-0.565635	0.021248
10618		7.626201	5.014729	-1.229129	-0.128907	-0.046536	-0.540364	-0.405518	-0.722656	-0.234375	0.656847	0.500748	-0.563453	0.018008
10619		7.605500	5.095823	-1.260041	-0.136629	-0.072002	-0.451577	-0.401855	-0.735107	-0.236816	0.657006	0.502474	-0.561817	0.015009
10620		7.434152	4.962542	-1.383620	-0.183965	-0.063213	-0.339692	-0.401123	-0.728027	-0.235352	0.657410	0.503475	-0.560508	0.012500
10621		7.331118	4.965796	-1.202730	-0.124663	-0.069938	-0.228407	-0.400879	-0.731689	-0.241455	0.657522	0.503970	-0.559970	0.010623
10622		7.600857	4.904843	-0.905290	-0.092895	-0.072435	-0.121663	-0.401855	-0.724121	-0.234131	0.657528	0.504085	-0.559881	0.009421
10623		7.789688	5.062182	-1.042299	-0.124473	-0.069925	-0.034347	-0.395508	-0.724365	-0.234131	0.657648	0.503534	-0.560250	0.008504
10624		7.476308	4.970324	-1.180002	-0.180598	-0.061567	0.093786	-0.398438	-0.733154	-0.240234	0.658059	0.502139	-0.561026	0.008092
10625		7.459710	4.685465	-1.238556	-0.140564	-0.066474	0.196559	-0.393066	-0.725098	-0.243408	0.658283	0.500505	-0.562216	0.008428
10626		7.575038	4.746134	-1.129750	-0.008625	-0.047142	0.286502	-0.403320	-0.725586	-0.244385	0.658053	0.499140	-0.563673	0.009916
10627		7.814617	5.122278	-1.029871	0.030233	-0.059756	0.355454	-0.414795	-0.718262	-0.234619	0.657581	0.497635	-0.565513	0.011910
10628		7.877702	5.481730	-1.237897	-0.020169	-0.048443	0.424875	-0.413086	-0.718994	-0.239014	0.657334	0.495512	-0.567609	0.014119
10629		7.678408	5.438080	-1.156285	-0.050286	-0.032408	0.531495	-0.425537	-0.708252	-0.247070	0.657282	0.492727	-0.570014	0.016824
10630		7.818896	5.177408	-1.158177	-0.036247	-0.014958	0.613481	-0.424805	-0.704102	-0.241455	0.657232	0.489549	-0.572700	0.020061
10631		7.905716	5.037796	-0.988438	0.031817	0.011363	0.681893	-0.430420	-0.691406	-0.239014	0.656996	0.486452	-0.575445	0.024148
10632		8.282688	4.932085	-0.863482	0.104961	0.025393	0.724450	-0.440186	-0.693848	-0.249756	0.656496	0.483524	-0.578259	0.028875
10633		8.149773	4.757021	-1.206280	0.140009	0.042742	0.789552	-0.446045	-0.691650	-0.239014	0.655913	0.480410	-0.581222	0.034138
10634		8.150577	4.683691	-1.307315	0.283504	0.091605	0.851640	-0.464111	-0.686279	-0.242188	0.654926	0.477811	-0.584047	0.040707
10635		8.256207	4.591720	-1.073498	0.504081	0.131033	0.919000	-0.474121	-0.673828	-0.234863	0.653184	0.475986	-0.586859	0.048832
10636		8.621338	4.653676	-0.968975	0.649854	0.193759	0.969805	-0.480713	-0.672607	-0.239014	0.651083	0.474630	-0.589431	0.058202
10637		8.412614	4.373250	-0.961283	0.789826	0.270377	1.050100	-0.499512	-0.667480	-0.221191	0.648724	0.473503	-0.591779	0.068912
10638		8.728501	4.026465	-0.941659	1.013192	0.304538	1.099733	-0.507812	-0.656738	-0.217285	0.645486	0.473318	-0.593901	0.081234
10639		9.113464	4.003747	-1.103685	1.227439	0.355191	1.161662	-0.513428	-0.646484	-0.206299	0.641510	0.473804	-0.595764	0.095078
10640		9.221870	4.116296	-1.227136	1.348899	0.413810	1.221417	-0.529297	-0.645020	-0.201904	0.637159	0.474496	-0.597302	0.110055
10641		9.214219	4.266876	-1.310995	1.358449	0.444177	1.248890	-0.538574	-0.641846	-0.184082	0.632763	0.474896	-0.598662	0.125254
10642		9.311176	4.464580	-1.436702	1.315598	0.455261	1.258727	-0.547852	-0.629883	-0.176514	0.628397	0.474991	-0.599826	0.140388
10643		9.487224	4.501046	-1.439289	1.213805	0.442446	1.291096	-0.568604	-0.621094	-0.173340	0.624195	0.474262	-0.601174	0.155067
10644		9.648760	4.363943	-1.581004	1.066243	0.492880	1.322028	-0.577393	-0.608398	-0.174561	0.620667	0.472343	-0.602502	0.169283
10645		9.644925	4.177370	-1.569340	0.913971	0.554116	1.350851	-0.592285	-0.592773	-0.161621	0.617931	0.469215	-0.603750	0.182989
10646		9.534488	3.933771	-1.543696	0.738257	0.595786	1.374913	-0.592773	-0.585938	-0.166748	0.615855	0.465005	-0.604974	0.196215
10647		9.412683	3.513332	-1.527791	0.494700	0.605654	1.364562	-0.605713	-0.566895	-0.177246	0.614762	0.459458	-0.606379	0.208017
10648		9.539731	3.087878	-1.489018	0.318847	0.581621	1.339857	-0.624023	-0.553467	-0.175537	0.614230	0.452950	-0.608094	0.218585
10649		9.857852	2.778218	-1.365447	0.249782	0.581248	1.333154	-0.620361	-0.535645	-0.176758	0.613815	0.446108	-0.609794	0.228843
10650		10.224124	2.624704	-1.349914	0.280163	0.557607	1.354940	-0.635742	-0.527588	-0.185303	0.613023	0.439389	-0.611461	0.239281
10651		10.304959	2.487251	-1.076311	0.290151	0.549401	1.374270	-0.647461	-0.509521	-0.199463	0.612073	0.432480	-0.613166	0.249710
10652		10.211630	2.312146	-0.957511	0.276881	0.534628	1.367054	-0.656738	-0.493652	-0.204102	0.611079	0.425379	-0.614900	0.259871
10653		10.188691	2.259849	-0.931428	0.220463	0.485232	1.366316	-0.661133	-0.480957	-0.202637	0.609864	0.418162	-0.616848	0.269639
10654		10.045866	2.118229	-0.973405	0.090453	0.464363	1.360293	-0.674805	-0.464355	-0.208008	0.608814	0.410484	-0.619000	0.278725
10655		10.102555	1.884186	-0.932596	-0.041016	0.447764	1.338775	-0.679443	-0.443848	-0.213379	0.608051	0.402266	-0.621372	0.286973
10656		10.136872	1.619960	-0.959118	-0.120688	0.437511	1.303677	-0.694580	-0.425537	-0.217041	0.607485	0.393821	-0.623773	0.294575
10657		10.038683	1.339549	-0.813871	-0.162715	0.416415	1.233879	-0.695557	-0.410645	-0.222412	0.607032	0.385530	-0.626081	0.301499
10658		10.030513	0.892579	-0.679652	-0.120387	0.378210	1.141321	-0.696777	-0.389893	-0.234863	0.606408	0.377996	-0.628104	0.308016
10659		10.138868	0.556161	-0.623853	0.000927	0.335120	1.041147	-0.703369	-0.378174	-0.230957	0.605379	0.371670	-0.629659	0.314496
10660		10.070066	0.353359	-0.506342	0.130616	0.306465	0.948036	-0.707031	-0.365723	-0.238281	0.603988	0.366538	-0.630682	0.321073
10661		10.098526	0.212993	-0.538929	0.235800	0.269212	0.867473	-0.712402	-0.361572	-0.241699	0.602256	0.362433	-0.631322	0.327662
10662		10.066412	0.300121	-0.428803	0.263357	0.249524	0.811995	-0.710693	-0.343506	-0.245605	0.600450	0.358792	-0.631780	0.334038
10663		10.055835	0.441122	-0.305117	0.224276	0.243148	0.770461	-0.711426	-0.335449	-0.246094	0.598811	0.355171	-0.632222	0.339963
10664		9.952409	0.388162	-0.187457	0.199906	0.245238	0.738714	-0.719727	-0.333984	-0.249268	0.597314	0.351575	-0.632597	0.345590
10665		10.011400	0.377769	0.006241	0.176082	0.229903	0.722967	-0.719971	-0.319580	-0.246826	0.595825	0.347972	-0.633041	0.350952
10666		9.981864	0.425834	0.153822	0.084295	0.238863	0.728395	-0.729980	-0.307617	-0.264648	0.594607	0.343844	-0.633698	0.355866
10667		9.719328	0.230150	0.120245	-0.038478	0.214787	0.709508	-0.729980	-0.303955	-0.260742	0.593646	0.339265	-0.634758	0.359954
10668		9.474057	-0.104414	-0.192831	-0.096321	0.156666	0.672569	-0.730469	-0.292480	-0.260986	0.592628	0.334759	-0.636150	0.363375
10669		9.279493	-0.539238	-0.579649	-0.068378	0.112817	0.649603	-0.723877	-0.280029	-0.270508	0.591350	0.330635	-0.637589	0.366696
10670		9.222636	-0.758750	-0.724076	-0.007289	0.070016	0.631642	-0.722900	-0.270508	-0.264893	0.589713	0.327029	-0.638984	0.370122
10671		9.270014	-0.689544	-0.710678	0.081495	0.036517	0.575381	-0.732666	-0.259033	-0.268311	0.587812	0.324253	-0.640101	0.373642
10672		9.378660	-0.385862	-0.556363	0.201853	0.012716	0.480018	-0.741699	-0.258789	-0.267822	0.585742	0.322643	-0.640689	0.377262
10673		9.352984	-0.041278	-0.290411	0.259620	-0.001301	0.379137	-0.735352	-0.250244	-0.262695	0.583748	0.321892	-0.640881	0.380652
10674		9.272245	0.132040	0.036390	0.193792	-0.020444	0.287701	-0.738281	-0.250000	-0.272461	0.582112	0.321366	-0.641122	0.383186
10675		9.235307	0.098719	-0.130670	0.065872	-0.032622	0.202373	-0.742920	-0.256348	-0.275635	0.581024	0.320714	-0.641597	0.384587
10676		9.182723	-0.023269	-0.331367	-0.007633	-0.058324	0.115297	-0.739746	-0.243652	-0.267822	0.580272	0.320254	-0.642198	0.385101
10677		9.273694	-0.217893	-0.467429	-0.018301	-0.082056	0.023688	-0.743896	-0.255127	-0.260010	0.579717	0.320309	-0.642703	0.385048
10678		9.436595	-0.382958	-0.462458	0.036943	-0.085177	-0.074540	-0.740723	-0.249756	-0.264160	0.579313	0.321168	-0.642784	0.384806
10679		9.558726	-0.538220	-0.337164	0.093129	-0.086454	-0.164173	-0.741943	-0.247314	-0.260986	0.579039	0.322782	-0.642450	0.384426
10680		9.622648	-0.544182	-0.213775	0.129719	-0.102402	-0.242313	-0.740723	-0.258301	-0.257812	0.578830	0.325040	-0.641863	0.383819
10681		9.725696	-0.353346	-0.332656	0.155546	-0.126972	-0.298031	-0.731201	-0.261719	-0.257812	0.578594	0.327798	-0.641155	0.383010
10682		9.744745	-0.163799	-0.213460	0.097451	-0.131117	-0.335878	-0.744873	-0.264648	-0.250000	0.578612	0.330488	-0.640544	0.381692
10683		9.748936	-0.169005	-0.130895	0.025058	-0.150163	-0.374260	-0.744873	-0.271729	-0.255371	0.578844	0.333092	-0.640143	0.379744
10684		9.661385	-0.398011	-0.056638	0.019584	-0.168716	-0.427792	-0.736816	-0.279297	-0.249512	0.579157	0.336010	-0.639691	0.377452
10685		9.638018	-0.582244	-0.136227	0.101043	-0.183262	-0.485360	-0.738281	-0.287109	-0.244873	0.579336	0.339668	-0.638881	0.375268
10686		9.724019	-0.738150	0.045032	0.163821	-0.156195	-0.532132	-0.742920	-0.291016	-0.244141	0.579617	0.343786	-0.637598	0.373261
10687		9.562078	-0.843474	0.023712	0.159902	-0.136870	-0.576943	-0.731689	-0.295410	-0.229248	0.580138	0.348055	-0.636089	0.371063
10688		9.545446	-0.725247	-0.137776	0.244939	-0.152901	-0.618439	-0.732178	-0.311279	-0.233154	0.580439	0.352995	-0.634256	0.369059
10689		9.748257	-0.531640	-0.380921	0.350500	-0.183268	-0.648391	-0.732666	-0.326660	-0.232178	0.580342	0.358684	-0.632132	0.367365
10690		9.996445	-0.188177	-0.461672	0.357887	-0.167198	-0.665894	-0.731445	-0.324707	-0.226318	0.580339	0.364437	-0.629830	0.365659
10691		10.104336	-0.023998	-0.269828	0.299094	-0.160214	-0.684888	-0.715576	-0.336914	-0.224609	0.580586	0.369968	-0.627591	0.363557
10692		10.186594	-0.000107	-0.120877	0.271118	-0.169166	-0.712769	-0.715332	-0.348389	-0.218750	0.580934	0.375522	-0.625366	0.361132
10693		10.131144	0.015004	-0.135022	0.224980	-0.211186	-0.736355	-0.715576	-0.354736	-0.217529	0.581254	0.381087	-0.623383	0.358204
10694		10.115955	0.141784	-0.250750	0.159919	-0.236607	-0.759170	-0.711182	-0.375732	-0.210693	0.581693	0.386512	-0.621616	0.354732
10695		10.238682	0.138877	-0.549665	0.089522	-0.234452	-0.752222	-0.718994	-0.374023	-0.208740	0.582325	0.391539	-0.620041	0.350920
10696		10.223404	0.117601	-0.616468	0.079167	-0.235063	-0.735376	-0.711182	-0.385010	-0.200684	0.582915	0.396409	-0.618530	0.347119
10697		10.077178	-0.026732	-0.495645	0.099562	-0.243939	-0.722129	-0.705811	-0.396240	-0.195801	0.583329	0.401322	-0.617020	0.343444
10698		9.953876	0.042856	-0.286229	0.086919	-0.244831	-0.708691	-0.701660	-0.410889	-0.190918	0.583720	0.406093	-0.615570	0.339754
10699		9.895854	0.259260	-0.548183	0.036370	-0.262775	-0.699043	-0.701172	-0.413086	-0.197266	0.584141	0.410605	-0.614357	0.335779
10700		10.013762	0.510729	-0.767833	0.043351	-0.264100	-0.670555	-0.695312	-0.424805	-0.182617	0.584437	0.414984	-0.613208	0.331961
10701		9.962228	0.798534	-1.116292	0.106418	-0.253008	-0.624178	-0.696533	-0.440186	-0.170898	0.584414	0.419398	-0.611971	0.328720
10702		9.666083	0.951317	-0.878863	0.114156	-0.251358	-0.604305	-0.702637	-0.442139	-0.177002	0.584295	0.423740	-0.610754	0.325612
10703		9.677277	0.823022	-0.693656	0.028935	-0.255204	-0.596579	-0.687012	-0.450928	-0.170898	0.584431	0.427602	-0.609804	0.322079
10704		9.752142	0.712976	-0.808606	-0.036659	-0.266576	-0.571301	-0.687256	-0.458496	-0.169434	0.584658	0.431051	-0.609148	0.318291
10705		9.542387	0.891780	-0.869271	-0.079366	-0.256074	-0.556763	-0.680664	-0.460693	-0.165527	0.585039	0.434175	-0.608591	0.314385
10706		9.513672	1.139767	-0.776074	-0.129170	-0.277178	-0.557388	-0.680664	-0.470459	-0.158203	0.585480	0.437100	-0.608252	0.310140
10707		9.758480	1.357140	-1.131316	-0.068638	-0.295182	-0.577200	-0.677734	-0.471436	-0.152100	0.585632	0.440468	-0.607754	0.306036
10708		9.845283	1.606077	-1.272313	0.034930	-0.294969	-0.613321	-0.674072	-0.483154	-0.153564	0.585474	0.444501	-0.606852	0.302273
10709		9.836675	1.716237	-1.597537	0.025285	-0.301839	-0.656860	-0.669678	-0.481445	-0.159668	0.585421	0.448712	-0.605815	0.298209
10710		9.790174	1.579120	-1.409907	-0.056085	-0.301733	-0.670937	-0.663574	-0.494385	-0.148926	0.585719	0.452525	-0.604923	0.293636
10711		9.709402	1.476784	-1.086865	-0.131587	-0.326462	-0.637974	-0.659180	-0.499512	-0.139648	0.586049	0.455894	-0.604424	0.288754
10712		9.768829	1.499717	-1.177365	-0.158055	-0.367507	-0.578283	-0.661133	-0.500244	-0.143311	0.586085	0.458933	-0.604398	0.283880
10713		9.866944	1.691492	-1.426009	-0.187176	-0.345259	-0.513444	-0.659424	-0.512939	-0.144287	0.586199	0.461377	-0.604590	0.279236
10714		9.983816	1.996182	-1.448607	-0.348108	-0.247370	-0.463038	-0.651855	-0.523926	-0.139160	0.587303	0.462553	-0.604839	0.274389
10715		9.982789	2.236235	-1.343000	-0.428931	-0.191999	-0.422868	-0.651855	-0.525879	-0.140625	0.588867	0.463058	-0.605107	0.269554
10716		9.907449	2.225099	-1.326324	-0.498728	-0.162456	-0.365936	-0.650146	-0.532471	-0.135498	0.590704	0.462838	-0.605603	0.264755
10717		9.605579	2.113390	-1.224812	-0.579197	-0.152327	-0.288980	-0.650146	-0.529053	-0.152344	0.592676	0.461854	-0.606490	0.259992
10718		9.531055	2.084788	-1.254449	-0.543361	-0.161687	-0.214329	-0.645752	-0.527832	-0.150635	0.594359	0.460572	-0.607649	0.255683
10719		9.557824	2.220684	-1.437367	-0.556969	-0.157344	-0.173839	-0.638428	-0.526855	-0.148438	0.595993	0.459021	-0.608953	0.251533
10720		9.432959	2.216196	-1.552808	-0.494539	-0.134163	-0.160848	-0.644287	-0.524902	-0.151855	0.597441	0.457704	-0.610026	0.247872
10721		9.552655	2.008104	-1.397521	-0.403481	-0.127326	-0.159084	-0.640381	-0.529785	-0.148193	0.598563	0.456763	-0.610910	0.244700
10722		9.490303	1.758371	-1.530461	-0.376979	-0.110909	-0.137514	-0.634521	-0.526855	-0.159180	0.599582	0.455885	-0.611695	0.241867
10723		9.381078	1.791935	-1.567477	-0.212688	-0.100581	-0.081097	-0.638428	-0.530273	-0.162109	0.599977	0.455451	-0.612313	0.240136
10724		9.397751	1.991637	-1.470029	-0.112918	-0.090650	-0.040772	-0.649658	-0.533203	-0.154297	0.599969	0.455277	-0.612837	0.239145
10725		9.342758	2.199209	-1.507703	-0.083573	-0.060766	-0.031433	-0.647949	-0.531982	-0.149170	0.599917	0.455171	-0.613212	0.238518
10726		9.310727	2.287320	-1.398675	0.004441	-0.055092	-0.029800	-0.643799	-0.534424	-0.155273	0.599522	0.455524	-0.613381	0.238402
10727		9.514934	2.331997	-1.386297	-0.016451	-0.071210	-0.027900	-0.641357	-0.529541	-0.146729	0.599175	0.455780	-0.613653	0.238086
10728		9.329561	2.390095	-1.723137	-0.148188	-0.060015	-0.007958	-0.638916	-0.528076	-0.163574	0.599294	0.455284	-0.614216	0.237281
10729		9.172904	2.545837	-1.394461	-0.136467	-0.046803	0.051848	-0.640625	-0.528320	-0.153076	0.599451	0.454374	-0.614936	0.236762
10730		9.377872	2.394007	-1.318395	-0.140932	-0.056486	0.108928	-0.642578	-0.527100	-0.159180	0.599369	0.453277	-0.615905	0.236556
10731		9.429033	2.276724	-1.388770	-0.195470	-0.035257	0.142334	-0.643311	-0.521729	-0.157715	0.599579	0.451638	-0.617011	0.236274
10732		9.499080	2.079146	-1.549773	-0.197058	-0.009900	0.142689	-0.646973	-0.513672	-0.164062	0.599905	0.449934	-0.618008	0.236091
10733		9.543590	1.949101	-1.607092	-0.146137	0.009646	0.145605	-0.651123	-0.518555	-0.166016	0.600182	0.448297	-0.618889	0.236196
10734		9.691440	1.935957	-1.394219	-0.029989	-0.013651	0.147393	-0.651123	-0.526123	-0.160889	0.599892	0.447332	-0.619623	0.236838
10735		9.792704	1.949757	-1.393685	-0.031726	-0.006513	0.147935	-0.653809	-0.517578	-0.161377	0.599585	0.446513	-0.620227	0.237576
10736		9.568908	2.081927	-1.452941	-0.039623	0.020322	0.146952	-0.648193	-0.512939	-0.162354	0.599456	0.445516	-0.620773	0.238346
10737		9.558446	2.087778	-1.394763	0.008801	0.015164	0.143255	-0.645508	-0.512207	-0.166504	0.599146	0.444796	-0.621215	0.239316
10738		9.603525	1.982179	-1.413430	0.039449	0.007384	0.138788	-0.656006	-0.504639	-0.161133	0.598739	0.444251	-0.621596	0.240354
10739		9.632989	1.983294	-1.470504	0.074830	0.017072	0.146334	-0.659668	-0.516113	-0.158203	0.598174	0.443749	-0.621984	0.241681
10740		9.597613	2.097114	-1.429215	0.072853	0.028099	0.151464	-0.655273	-0.504883	-0.152100	0.597616	0.443366	-0.622229	0.243129
10741		9.500306	2.198546	-1.292256	0.063929	0.028948	0.143898	-0.655273	-0.504150	-0.153809	0.597066	0.442970	-0.622490	0.244531
10742		9.466755	2.129352	-1.393964	0.047550	0.032640	0.133646	-0.658936	-0.506104	-0.158447	0.596642	0.442525	-0.622719	0.245786
10743		9.448142	2.039430	-1.393023	0.087848	0.037899	0.129775	-0.656250	-0.511475	-0.153564	0.596152	0.442249	-0.622823	0.247206
10744		9.486743	1.987600	-1.455206	0.117304	0.047678	0.131039	-0.663330	-0.507568	-0.158447	0.595540	0.442286	-0.622704	0.248907
10745		9.444109	1.986454	-1.410551	0.162792	0.056462	0.125384	-0.663574	-0.501953	-0.164062	0.594876	0.442390	-0.622518	0.250768
10746		9.524235	2.051510	-1.441602	0.204202	0.066362	0.115821	-0.659668	-0.504639	-0.157471	0.594221	0.442565	-0.622224	0.252734
10747		9.458316	2.084806	-1.376782	0.236999	0.047255	0.107500	-0.666992	-0.493652	-0.156738	0.593291	0.443161	-0.621828	0.254841
10748		9.528174	2.112117	-1.448071	0.215315	0.048682	0.082532	-0.663086	-0.494873	-0.161377	0.592522	0.443533	-0.621555	0.256644
10749		9.593107	2.139655	-1.583883	0.157868	0.061270	0.063703	-0.661377	-0.498047	-0.150635	0.592152	0.443666	-0.621233	0.258042
10750		9.723750	2.308571	-1.551541	0.166510	0.046532	0.047321	-0.656250	-0.494385	-0.158447	0.591567	0.444203	-0.620800	0.259499
10751		9.580983	2.370924	-1.569449	0.075167	0.038789	0.050439	-0.663086	-0.502441	-0.149902	0.591413	0.444130	-0.620648	0.260337
10752		9.434760	2.352036	-1.472306	0.022988	0.026874	0.049398	-0.666016	-0.498047	-0.152588	0.591247	0.444057	-0.620580	0.261000
10753		9.510703	2.260173	-1.506053	-0.018135	0.033727	0.046806	-0.664062	-0.485107	-0.149658	0.591316	0.443646	-0.620637	0.261408
10754		9.488127	2.186604	-1.500593	-0.015641	0.038491	0.038510	-0.674316	-0.490967	-0.148682	0.591393	0.443153	-0.620750	0.261800
10755		9.535284	2.158248	-1.480033	0.013994	0.037862	0.024130	-0.667236	-0.490234	-0.163330	0.591335	0.442930	-0.620745	0.262317
10756		9.537092	2.161054	-1.494946	0.031109	0.031904	0.016197	-0.668945	-0.496826	-0.154785	0.591447	0.442628	-0.620719	0.262638
10757		9.491120	2.087436	-1.548485	0.030044	0.025751	0.006922	-0.660156	-0.494385	-0.155029	0.591400	0.442654	-0.620573	0.263046
10758		9.378669	2.039919	-1.551862	0.041086	0.024849	-0.012358	-0.671631	-0.493896	-0.156982	0.591374	0.442880	-0.620283	0.263408
10759		9.458881	2.083197	-1.557020	0.055917	0.025561	-0.042567	-0.663574	-0.499756	-0.158691	0.591376	0.443162	-0.619975	0.263652
10760		9.457721	2.154365	-1.554662	0.069294	0.040754	-0.070911	-0.670166	-0.500732	-0.154297	0.591517	0.443741	-0.619337	0.263860
10761		9.504432	2.274562	-1.471802	0.080344	0.028893	-0.100562	-0.666260	-0.501709	-0.152832	0.591533	0.444574	-0.618663	0.264006
10762		9.471039	2.333199	-1.359948	0.051863	0.008029	-0.134034	-0.663574	-0.498779	-0.146973	0.591608	0.445535	-0.617995	0.263781
10763		9.446971	2.413832	-1.329897	0.001584	0.012022	-0.167881	-0.664062	-0.501221	-0.151123	0.591873	0.446484	-0.617288	0.263238
10764		9.346010	2.495936	-1.323733	-0.076926	-0.022694	-0.192001	-0.665771	-0.501465	-0.153076	0.592376	0.447139	-0.616874	0.261962
10765		9.504241	2.568280	-1.507129	-0.165651	-0.053333	-0.225527	-0.659668	-0.505615	-0.151123	0.593149	0.447494	-0.616741	0.259912
10766		9.676834	2.727775	-1.598798	-0.380190	-0.094372	-0.268687	-0.665039	-0.500000	-0.162109	0.594559	0.447245	-0.617014	0.256448
10767		9.371673	2.733756	-1.634296	-0.541583	-0.111437	-0.273222	-0.656250	-0.509521	-0.155762	0.596636	0.445821	-0.617929	0.251857
10768		9.560040	2.764126	-1.375158	-0.554277	-0.145091	-0.277951	-0.651367	-0.509277	-0.158691	0.598408	0.444873	-0.618752	0.247269
10769		9.517976	2.632073	-1.584208	-0.673274	-0.158981	-0.291113	-0.653320	-0.509766	-0.168945	0.600566	0.443422	-0.619807	0.241942
10770		9.502990	2.472332	-1.397789	-0.646567	-0.139966	-0.305002	-0.648193	-0.518066	-0.172363	0.602844	0.441898	-0.620747	0.236598
10771		9.932802	2.489654	-1.229070	-0.629853	-0.135274	-0.347145	-0.644775	-0.516602	-0.164795	0.605139	0.440820	-0.621325	0.231172
10772		9.567861	2.672331	-1.373713	-0.706211	-0.133749	-0.370890	-0.649414	-0.517334	-0.170898	0.607532	0.439707	-0.621872	0.225473
10773		9.170144	2.518357	-1.550529	-0.690025	-0.114841	-0.388987	-0.633789	-0.521973	-0.181152	0.609991	0.438554	-0.622320	0.219771
10774		9.438525	2.359681	-1.414163	-0.552172	-0.099719	-0.449098	-0.640869	-0.523682	-0.175049	0.612249	0.438444	-0.622039	0.214442
10775		9.429259	2.236063	-1.331311	-0.429105	-0.067674	-0.526801	-0.635986	-0.532959	-0.186523	0.614140	0.439361	-0.621164	0.209640
10776		9.367643	2.313171	-1.334243	-0.265533	-0.047013	-0.603611	-0.627197	-0.532471	-0.183350	0.615806	0.441380	-0.619554	0.205230
10777		9.343150	2.540147	-1.379451	-0.096660	-0.020339	-0.676748	-0.623291	-0.540283	-0.182373	0.617034	0.444606	-0.617257	0.201464
10778		9.513279	2.957459	-1.435374	0.009209	-0.029433	-0.730910	-0.615479	-0.546875	-0.194092	0.617862	0.448686	-0.614605	0.197959
10779		9.480004	3.372039	-1.274869	0.013143	-0.046293	-0.755165	-0.612061	-0.561523	-0.184082	0.618833	0.452639	-0.611977	0.194030
10780		9.327647	3.544869	-1.160659	-0.120675	-0.066272	-0.790132	-0.609619	-0.568848	-0.184082	0.620042	0.456434	-0.609375	0.189413
10781		9.053736	3.652757	-1.304682	-0.183162	-0.080832	-0.829957	-0.599121	-0.576904	-0.186035	0.621435	0.460041	-0.606838	0.184199
10782		9.151966	3.703700	-1.582856	-0.127685	-0.066277	-0.886568	-0.599121	-0.586914	-0.180420	0.622774	0.464206	-0.603835	0.179019
10783		9.294200	3.726078	-1.534265	-0.068396	-0.090701	-0.936233	-0.580566	-0.593262	-0.191650	0.623670	0.468980	-0.600715	0.173882
10784		9.490793	3.963078	-1.268119	-0.079364	-0.120899	-0.973855	-0.562012	-0.608154	-0.184814	0.624713	0.473749	-0.597509	0.168161
10785		9.212078	4.144902	-1.530681	-0.173208	-0.121635	-0.968632	-0.560547	-0.608398	-0.183838	0.625975	0.478436	-0.594075	0.162261
10786		9.088163	4.387488	-1.305743	-0.185879	-0.116823	-0.959608	-0.551514	-0.621826	-0.186279	0.627253	0.482606	-0.590975	0.156185
10787		9.138630	4.485089	-1.415570	-0.229131	-0.112932	-0.962297	-0.544434	-0.628906	-0.183350	0.628697	0.486650	-0.587727	0.149965
10788		8.984242	4.784704	-1.552864	-0.288692	-0.112857	-0.965239	-0.536621	-0.633789	-0.188477	0.630281	0.490354	-0.584566	0.143461
10789		8.770284	4.745951	-1.536238	-0.264949	-0.124410	-0.945515	-0.517090	-0.648193	-0.189453	0.631713	0.493880	-0.581597	0.136992
10790		9.218370	4.897664	-1.449007	-0.253415	-0.121358	-0.963796	-0.521729	-0.656738	-0.187256	0.633084	0.497964	-0.578048	0.130755
10791		8.892915	5.019970	-1.485048	-0.393559	-0.108391	-0.953862	-0.512451	-0.659912	-0.187500	0.634949	0.500995	-0.574888	0.123891
10792		8.914604	5.241490	-1.251720	-0.426063	-0.110208	-0.923941	-0.496338	-0.675049	-0.198486	0.636848	0.503565	-0.571988	0.116947
10793		9.044114	5.507987	-1.382839	-0.556113	-0.137632	-0.936038	-0.490967	-0.679932	-0.199707	0.639221	0.505858	-0.568794	0.109439
10794		8.434776	5.741269	-1.414225	-0.670777	-0.114036	-0.885268	-0.487549	-0.682373	-0.206055	0.642046	0.507130	-0.565906	0.101715
10795		8.242826	5.102031	-1.289063	-0.640001	-0.081602	-0.867357	-0.463135	-0.693848	-0.215820	0.644837	0.508163	-0.563101	0.094194
10796		8.392402	4.780430	-1.244991	-0.537355	-0.038908	-0.893806	-0.460693	-0.694824	-0.214844	0.647448	0.510344	-0.559188	0.087577
10797		8.326359	4.819237	-1.236452	-0.382944	-0.002940	-0.855394	-0.458252	-0.699463	-0.213867	0.649442	0.512760	-0.555530	0.081782
10798		8.678407	5.091164	-1.049116	-0.277327	-0.004742	-0.834561	-0.447021	-0.705811	-0.221436	0.650893	0.515392	-0.552152	0.076407
10799		8.375255	5.374277	-1.275822	-0.333165	0.020564	-0.777753	-0.433350	-0.700195	-0.231445	0.652725	0.517416	-0.548784	0.071182
10800		7.841654	5.588257	-1.166380	-0.404368	0.029302	-0.714936	-0.421875	-0.711914	-0.228760	0.654957	0.518475	-0.545796	0.065736
10801		7.498716	5.202370	-1.005744	-0.326860	0.030478	-0.662098	-0.409668	-0.707764	-0.232910	0.656745	0.519952	-0.542764	0.061174
10802		7.356450	4.883033	-0.945590	-0.137786	0.067765	-0.602359	-0.402832	-0.726318	-0.239258	0.657877	0.522009	-0.539781	0.057800
10803		7.691514	4.932145	-0.946417	0.044419	0.089622	-0.550080	-0.399902	-0.712891	-0.244629	0.658276	0.525042	-0.536547	0.055864
10804		7.730253	5.103898	-1.133475	0.054559	0.073963	-0.488494	-0.397217	-0.728760	-0.238281	0.658573	0.527428	-0.534044	0.053833
10805		7.314332	5.363487	-1.074824	0.047996	0.077754	-0.384616	-0.392334	-0.735596	-0.232910	0.658804	0.529494	-0.531836	0.052565
10806		7.086758	5.559597	-1.298905	0.088704	0.059944	-0.308932	-0.387939	-0.731201	-0.236572	0.658716	0.531509	-0.530000	0.051879
10807		6.951308	5.367973	-0.919752	0.142947	0.044662	-0.206848	-0.385986	-0.738281	-0.235596	0.658308	0.533245	-0.528771	0.051784
10808		6.951666	5.153372	-1.110330	0.104464	0.038943	-0.094645	-0.378906	-0.740234	-0.236084	0.657994	0.534324	-0.528035	0.052159
10809		7.088573	5.062881	-1.034728	0.149529	0.027203	0.023719	-0.387207	-0.730469	-0.232422	0.657391	0.535167	-0.527814	0.053343
10810		7.280510	5.713128	-1.203889	0.064922	0.011462	0.112913	-0.384033	-0.735840	-0.234619	0.657046	0.534979	-0.528324	0.054417
10811		7.019815	5.915242	-1.108713	-0.070797	0.006027	0.239783	-0.381836	-0.734863	-0.232666	0.657235	0.533576	-0.529381	0.055630
10812		7.224165	5.414135	-1.079198	-0.099980	0.011021	0.326637	-0.394775	-0.736084	-0.244385	0.657528	0.531675	-0.530755	0.057255
10813		7.428052	4.811373	-1.240728	-0.071578	0.015857	0.410782	-0.398682	-0.720215	-0.241943	0.657685	0.529459	-0.532538	0.059394
10814		7.842481	4.408819	-1.072971	0.079119	0.029070	0.499215	-0.396973	-0.717773	-0.236572	0.657179	0.527578	-0.534649	0.062672
10815		8.138994	4.749818	-1.187254	0.159757	0.017373	0.595645	-0.410156	-0.721924	-0.232422	0.656194	0.525790	-0.537107	0.066864
10816		8.104111	5.228207	-1.148009	0.115156	0.025052	0.727564	-0.415039	-0.714844	-0.233154	0.655323	0.523189	-0.540081	0.071678
10817		7.817824	5.412689	-1.117979	0.085099	0.036687	0.835679	-0.426514	-0.709473	-0.231445	0.654554	0.519889	-0.543462	0.076960
10818		7.670964	4.919034	-1.040834	0.110226	0.073118	0.922229	-0.441406	-0.699463	-0.233643	0.653742	0.516282	-0.546980	0.082989
10819		7.952672	4.040415	-0.749928	0.342776	0.102558	0.979339	-0.454102	-0.690186	-0.224854	0.651985	0.513548	-0.550458	0.090442
10820		9.243927	4.255550	-0.906198	0.490763	0.075447	0.946469	-0.466797	-0.686035	-0.222656	0.649422	0.511771	-0.553782	0.098325
10821		8.818597	5.166730	-1.417506	0.309688	0.094203	1.060723	-0.471680	-0.683350	-0.217285	0.647577	0.508402	-0.557610	0.106034
10822		8.214549	5.472048	-0.977230	0.218740	0.121714	1.229088	-0.494873	-0.664062	-0.223877	0.646027	0.503782	-0.561928	0.114407
10823		8.208297	4.524598	-0.892299	0.189766	0.163696	1.294183	-0.499756	-0.664062	-0.222412	0.644690	0.498382	-0.566454	0.122964
10824		8.481424	3.809470	-0.808358	0.377215	0.248807	1.296664	-0.510742	-0.656006	-0.219482	0.642897	0.493956	-0.570128	0.132834
10825		9.168429	3.110625	-0.607910	0.759430	0.265939	1.283936	-0.527588	-0.632812	-0.213379	0.639530	0.491580	-0.573116	0.144526
10826		10.397244	3.100782	-0.774712	1.089991	0.284356	1.250786	-0.535889	-0.630127	-0.209229	0.634822	0.490888	-0.575491	0.157608
10827		10.771169	3.728728	-1.452361	1.039396	0.310463	1.256497	-0.551270	-0.620117	-0.197754	0.630356	0.489752	-0.577691	0.170493
10828		10.163151	4.892841	-1.571235	0.833354	0.333099	1.324369	-0.564453	-0.612305	-0.191406	0.626597	0.487111	-0.580222	0.182871
10829		9.227851	4.848030	-1.022185	0.556307	0.410333	1.418630	-0.562988	-0.595703	-0.195312	0.624075	0.482389	-0.583027	0.194707
10830		9.254273	4.101181	-0.899725	0.413657	0.387223	1.433037	-0.585938	-0.581543	-0.192627	0.621966	0.476742	-0.586158	0.205657
10831		9.818886	3.276140	-0.945535	0.526380	0.425836	1.421634	-0.597656	-0.567871	-0.196289	0.619470	0.471585	-0.588770	0.217289
10832		10.263855	2.514390	-1.157063	0.758013	0.485381	1.427593	-0.609131	-0.553955	-0.201416	0.616282	0.467310	-0.590618	0.230191
10833		10.380618	2.424116	-1.437256	1.024683	0.546836	1.427402	-0.619141	-0.537354	-0.204346	0.612315	0.464036	-0.591598	0.244444
10834		10.377029	2.580969	-1.178308	1.189614	0.585243	1.436854	-0.634521	-0.530762	-0.190918	0.607807	0.461231	-0.592010	0.259539
10835		10.469354	2.686191	-0.714799	1.087558	0.604393	1.451519	-0.641846	-0.516846	-0.191162	0.603478	0.457905	-0.592293	0.274456
10836		10.533295	2.798834	-0.259455	0.789735	0.648132	1.426649	-0.657715	-0.510254	-0.185547	0.600450	0.452979	-0.592800	0.287851
10837		10.458061	2.818216	-0.642786	0.506268	0.657511	1.375730	-0.666748	-0.494385	-0.193848	0.598461	0.446919	-0.593534	0.299708
10838		10.186422	2.560483	-1.446080	0.593210	0.663387	1.304690	-0.668945	-0.474854	-0.198975	0.596294	0.441485	-0.593683	0.311553
10839		10.409508	2.070854	-1.723097	0.806181	0.655728	1.274986	-0.674316	-0.452148	-0.201416	0.593263	0.437228	-0.593067	0.324258
10840		10.667192	1.370256	-1.408407	0.857843	0.697923	1.274737	-0.678711	-0.445557	-0.205566	0.590069	0.433107	-0.591933	0.337420
10841		10.884595	0.729982	-1.028052	0.750302	0.740549	1.305118	-0.684814	-0.433105	-0.216064	0.587267	0.428149	-0.590858	0.350276
10842		10.505969	0.836664	-0.251141	0.628436	0.754523	1.335739	-0.690430	-0.421387	-0.217285	0.584731	0.422365	-0.590039	0.362699
10843		10.167729	1.224876	0.208921	0.521531	0.704099	1.347241	-0.704590	-0.411865	-0.224609	0.582139	0.416128	-0.589695	0.374449
10844		10.039299	1.152924	0.458734	0.382265	0.637491	1.315954	-0.696045	-0.392090	-0.228760	0.579698	0.409506	-0.589897	0.385068
10845		10.024320	0.855626	-0.007157	0.287998	0.598753	1.277333	-0.708008	-0.376709	-0.235840	0.577419	0.402683	-0.590363	0.394848
10846		9.833206	0.483939	-0.302217	0.257092	0.595126	1.215575	-0.708496	-0.350342	-0.242920	0.575347	0.395971	-0.590659	0.404109
10847		9.615401	-0.055190	-0.274443	0.310815	0.558004	1.130725	-0.710205	-0.340820	-0.250732	0.573127	0.390009	-0.590598	0.413052
10848		9.602437	-0.291150	-0.118179	0.391184	0.476884	1.025814	-0.721680	-0.338135	-0.248535	0.570542	0.385185	-0.590241	0.421580
10849		9.861628	-0.195314	0.105073	0.360420	0.493873	0.900615	-0.719238	-0.326904	-0.272461	0.568525	0.380735	-0.589455	0.429375
10850		9.732565	0.293450	-0.060362	0.409150	0.491053	0.783592	-0.724121	-0.313721	-0.270020	0.566712	0.377072	-0.588091	0.436811
10851		9.651870	0.508074	-0.438089	0.521030	0.440436	0.695451	-0.713379	-0.310059	-0.267822	0.564581	0.374526	-0.586240	0.444186
10852		9.613587	0.442483	-0.218223	0.484960	0.399919	0.641788	-0.719971	-0.304932	-0.273926	0.562527	0.372201	-0.584509	0.450975
10853		9.140584	0.031398	0.528398	0.112560	0.341309	0.605244	-0.723389	-0.292969	-0.273926	0.561454	0.368512	-0.584313	0.455573
10854		8.899259	-0.197861	0.288116	-0.051245	0.260803	0.548386	-0.716553	-0.292236	-0.287598	0.560691	0.364628	-0.584922	0.458845
10855		9.054579	-0.128292	0.215375	0.045032	0.209534	0.496918	-0.725830	-0.285400	-0.287354	0.559568	0.361633	-0.585233	0.462177
10856		8.816596	0.055491	0.932721	-0.073131	0.166338	0.416931	-0.721680	-0.279541	-0.283447	0.558890	0.358637	-0.585949	0.464419
10857		8.761606	-0.579270	0.765773	-0.275411	0.098381	0.293283	-0.720459	-0.275391	-0.287109	0.558956	0.355563	-0.587387	0.464888
10858		8.927354	-1.443424	0.176206	-0.181183	0.036909	0.204864	-0.728760	-0.270752	-0.291748	0.558779	0.353595	-0.588478	0.465219
10859		9.051080	-1.782619	0.236459	0.003979	0.043492	0.172864	-0.728516	-0.264160	-0.290039	0.558211	0.352620	-0.588726	0.466327
10860		9.207403	-1.577531	0.640077	0.047625	0.030049	0.122839	-0.724121	-0.268799	-0.291504	0.557642	0.352145	-0.588719	0.467374
10861		9.361170	-1.348080	0.645914	0.039065	-0.012578	0.059564	-0.730225	-0.265381	-0.290039	0.557135	0.352105	-0.588758	0.467960
10862		9.407477	-1.238114	0.432385	0.111341	-0.029046	0.000534	-0.724609	-0.269531	-0.286865	0.556565	0.352755	-0.588418	0.468577
10863		9.404794	-0.935554	0.517992	0.099937	-0.047370	-0.059039	-0.726562	-0.260742	-0.288330	0.556170	0.353715	-0.588031	0.468806
10864		9.422448	-0.722347	0.776232	0.010600	-0.107314	-0.110635	-0.720215	-0.264893	-0.286621	0.555947	0.354748	-0.588119	0.468181
10865		9.408933	-0.870025	0.446092	-0.067037	-0.146922	-0.158890	-0.728760	-0.278320	-0.289551	0.555947	0.355812	-0.588549	0.466832
10866		9.385746	-1.305571	0.256495	-0.039920	-0.172255	-0.215389	-0.729004	-0.268311	-0.279297	0.555960	0.357376	-0.588820	0.465276
10867		9.500917	-1.466076	0.018186	0.075991	-0.204248	-0.267614	-0.727539	-0.275879	-0.282471	0.555671	0.359854	-0.588632	0.463947
10868		9.512759	-1.154144	0.423443	0.163367	-0.237677	-0.309248	-0.723877	-0.278564	-0.275146	0.555111	0.363067	-0.588131	0.462748
10869		9.406809	-0.486675	0.696837	0.102026	-0.296951	-0.348890	-0.731689	-0.284180	-0.269043	0.554592	0.366414	-0.588013	0.460879
10870		9.322150	-0.012034	0.608896	-0.006602	-0.314546	-0.394028	-0.724121	-0.285400	-0.264648	0.554484	0.369542	-0.588245	0.458207
10871		9.288454	0.108276	0.326505	-0.099466	-0.346407	-0.433566	-0.727295	-0.296631	-0.266602	0.554648	0.372550	-0.588845	0.454789
10872		9.381148	-0.191809	0.215137	-0.165859	-0.384337	-0.472280	-0.727295	-0.296387	-0.258545	0.554967	0.375577	-0.589738	0.450735
10873		9.551033	-0.492235	0.080225	-0.208596	-0.425195	-0.527157	-0.729736	-0.303955	-0.252441	0.555409	0.378818	-0.590791	0.446075
10874		9.598549	-0.496046	0.115274	-0.226723	-0.446440	-0.589968	-0.730957	-0.307861	-0.252441	0.556018	0.382349	-0.591790	0.440951
10875		9.514807	-0.380713	0.128810	-0.245615	-0.460783	-0.664545	-0.726807	-0.325439	-0.244385	0.556867	0.386196	-0.592660	0.435321
10876		9.616368	-0.176204	-0.070775	-0.231280	-0.479475	-0.724928	-0.729004	-0.323486	-0.239502	0.557769	0.390457	-0.593341	0.429399
10877		9.942244	-0.073275	-0.453539	-0.193017	-0.493827	-0.747772	-0.723877	-0.330566	-0.228027	0.558528	0.395036	-0.593844	0.423488
10878		10.242507	-0.193395	-0.240185	-0.193180	-0.480670	-0.761865	-0.726562	-0.343994	-0.221436	0.559371	0.399616	-0.594207	0.417528
10879		10.243566	-0.411599	0.187860	-0.289594	-0.456885	-0.775307	-0.723145	-0.357422	-0.215820	0.560667	0.403707	-0.594714	0.411082
10880		10.200445	-0.325049	-0.007245	-0.348765	-0.465809	-0.785488	-0.714844	-0.364746	-0.218018	0.562118	0.407578	-0.595393	0.404240
10881		10.187502	-0.098916	-0.360699	-0.291622	-0.443347	-0.768568	-0.712891	-0.371094	-0.203369	0.563398	0.411530	-0.595795	0.397813
10882		9.913545	-0.144140	-0.174476	-0.282036	-0.421492	-0.760818	-0.718750	-0.379639	-0.193604	0.564692	0.415392	-0.596057	0.391521
10883		9.907407	-0.325229	-0.062803	-0.228676	-0.434672	-0.794529	-0.709717	-0.386719	-0.195557	0.565813	0.419691	-0.596058	0.385266
10884		10.424953	-0.381955	-0.446368	-0.121793	-0.436831	-0.819764	-0.721191	-0.401367	-0.190186	0.566601	0.424599	-0.595599	0.379395
10885		10.340286	-0.035509	-0.606910	-0.063037	-0.394197	-0.829797	-0.706055	-0.403809	-0.185059	0.567390	0.429674	-0.594686	0.373896
10886		9.906987	0.309770	-0.082425	-0.136354	-0.390936	-0.862546	-0.703857	-0.415283	-0.181885	0.568528	0.434524	-0.593833	0.367868
10887		9.939069	0.450869	0.004906	-0.251116	-0.427766	-0.895202	-0.697021	-0.429688	-0.174805	0.569962	0.439078	-0.593347	0.360961
10888		10.720432	0.578053	-1.033442	-0.201207	-0.438734	-0.871761	-0.699463	-0.439453	-0.171875	0.571043	0.443770	-0.592798	0.354355
10889		10.568863	0.644143	-1.331547	0.000114	-0.367877	-0.841224	-0.695801	-0.444824	-0.172607	0.571606	0.449024	-0.591401	0.349126
10890		10.302213	0.371464	-0.990946	0.106196	-0.329784	-0.835462	-0.689697	-0.462646	-0.158936	0.571923	0.454596	-0.589512	0.344559
10891		10.186963	0.348928	-0.442913	0.102332	-0.315029	-0.816002	-0.690186	-0.473145	-0.157227	0.572216	0.460028	-0.587587	0.340124
10892		10.071993	0.580726	-0.331658	0.071299	-0.281511	-0.772076	-0.680664	-0.481201	-0.152344	0.572646	0.464966	-0.585735	0.335854
10893		10.012767	0.973587	-0.576931	0.071484	-0.270768	-0.698723	-0.668213	-0.489014	-0.147217	0.572896	0.469504	-0.584083	0.331969
10894		10.131924	1.388605	-0.940454	0.178708	-0.278874	-0.615436	-0.667236	-0.499756	-0.134277	0.572433	0.474171	-0.582462	0.328968
10895		10.060274	1.634825	-1.214506	0.226100	-0.243460	-0.566378	-0.662598	-0.504395	-0.134277	0.571774	0.478746	-0.580706	0.326585
10896		9.729278	1.717334	-0.959018	0.194620	-0.210238	-0.571047	-0.667480	-0.499512	-0.131348	0.571416	0.483067	-0.578849	0.324136
10897		9.834607	1.721659	-0.977235	0.103686	-0.203318	-0.565753	-0.651855	-0.505615	-0.131592	0.571448	0.486815	-0.577280	0.321257
10898		9.746347	1.806883	-1.313272	0.104702	-0.193429	-0.519009	-0.656494	-0.523193	-0.125488	0.571399	0.490323	-0.575809	0.318639
10899		9.553372	1.881474	-1.017507	0.070198	-0.210827	-0.486215	-0.646973	-0.533203	-0.121338	0.571280	0.493596	-0.574603	0.315965
10900		9.549009	1.883902	-1.044098	-0.028044	-0.191238	-0.467325	-0.650879	-0.532227	-0.126709	0.571588	0.496297	-0.573588	0.313007
10901		9.424336	2.107480	-1.221988	-0.154211	-0.186553	-0.422419	-0.644287	-0.541260	-0.118408	0.572359	0.498070	-0.573120	0.309623
10902		9.426235	2.299735	-1.187833	-0.294636	-0.240059	-0.391162	-0.637207	-0.543213	-0.113770	0.573321	0.499231	-0.573338	0.305540
10903		9.553650	2.413202	-1.475027	-0.527702	-0.267013	-0.393018	-0.639648	-0.549316	-0.123535	0.575094	0.499375	-0.574237	0.300238
10904		9.708376	2.583253	-1.594373	-0.714227	-0.255339	-0.382392	-0.638672	-0.543701	-0.129150	0.577687	0.498482	-0.575586	0.294098
10905		10.020551	2.461369	-1.593025	-0.815892	-0.206071	-0.362870	-0.636719	-0.549316	-0.131836	0.580888	0.496779	-0.577062	0.287711
10906		9.970851	2.386100	-1.491122	-0.827765	-0.156793	-0.331918	-0.631592	-0.554199	-0.134521	0.584249	0.494764	-0.578399	0.281632
10907		9.364103	2.375488	-1.352093	-0.795456	-0.114708	-0.225590	-0.635986	-0.553223	-0.137207	0.587375	0.492328	-0.579822	0.276423
10908		9.106812	2.196050	-1.137942	-0.601323	-0.126154	-0.132457	-0.627441	-0.556885	-0.145752	0.589398	0.490385	-0.581243	0.272560
10909		9.250524	2.151559	-1.526625	-0.499905	-0.111871	-0.101263	-0.630615	-0.549561	-0.146240	0.591012	0.488784	-0.582427	0.269395
10910		9.529313	2.266832	-1.661679	-0.386550	-0.065994	-0.105818	-0.626221	-0.546631	-0.153076	0.592389	0.487589	-0.583169	0.266918
10911		9.565134	2.527188	-1.713208	-0.299840	-0.047983	-0.073884	-0.627930	-0.553955	-0.148926	0.593461	0.486580	-0.583774	0.265050
10912		9.388383	2.682911	-1.487925	-0.277061	-0.054525	-0.016273	-0.633545	-0.548096	-0.155762	0.594216	0.485530	-0.584520	0.263639
10913		9.258734	2.705909	-1.574127	-0.376689	-0.060072	0.016082	-0.627197	-0.552246	-0.154053	0.595320	0.483712	-0.585730	0.261796
10914		9.073052	2.655287	-1.581411	-0.404920	-0.037505	0.021186	-0.628174	-0.549072	-0.159424	0.596586	0.481808	-0.586804	0.260013
10915		9.005800	2.374926	-1.473197	-0.345870	-0.060257	0.007528	-0.629395	-0.542969	-0.155029	0.597550	0.480267	-0.587832	0.258324
10916		9.199735	2.172629	-1.406899	-0.259241	-0.095637	-0.034635	-0.623047	-0.551270	-0.164307	0.598049	0.479430	-0.588708	0.256725
10917		9.351044	2.150213	-1.505093	-0.183214	-0.090268	-0.072410	-0.634033	-0.547607	-0.152832	0.598381	0.479218	-0.589143	0.255344
10918		9.327613	2.309810	-1.637776	-0.092624	-0.083763	-0.073791	-0.632080	-0.542969	-0.157959	0.598308	0.479438	-0.589415	0.254475
10919		9.331751	2.476573	-1.580860	-0.056660	-0.076791	-0.041722	-0.620117	-0.544678	-0.160400	0.598118	0.479554	-0.589771	0.253876
10920		9.386222	2.530438	-1.464782	-0.081609	-0.092642	0.000308	-0.628906	-0.544189	-0.154541	0.597879	0.479444	-0.590341	0.253320
10921		9.382223	2.567911	-1.450976	-0.115678	-0.094163	0.019231	-0.633057	-0.541260	-0.156006	0.597686	0.479067	-0.591103	0.252711
10922		9.447150	2.588685	-1.488018	-0.126089	-0.103091	0.028808	-0.634766	-0.546875	-0.153809	0.597492	0.478534	-0.592029	0.252012
10923		9.491849	2.478992	-1.383586	-0.122883	-0.081085	0.022814	-0.637695	-0.539795	-0.154053	0.597364	0.478114	-0.592727	0.251472
10924		9.454088	2.314533	-1.406430	-0.081707	-0.075340	0.027228	-0.636230	-0.543701	-0.156982	0.597121	0.477741	-0.593430	0.251098
10925		9.483808	2.341284	-1.460219	0.004102	-0.062360	0.044148	-0.636719	-0.540527	-0.154785	0.596573	0.477740	-0.593893	0.251309
10926		9.478120	2.396548	-1.347608	0.037881	-0.060231	0.061771	-0.622070	-0.547363	-0.155029	0.595866	0.477788	-0.594370	0.251768
10927		9.475372	2.517583	-1.398237	0.020340	-0.064686	0.072994	-0.632812	-0.542236	-0.156982	0.595165	0.477914	-0.594748	0.252292
10928		9.474643	2.548901	-1.404663	0.026009	-0.067977	0.075643	-0.635742	-0.547852	-0.156738	0.594465	0.477881	-0.595291	0.252725
10929		9.435668	2.491052	-1.433210	0.034000	-0.085821	0.082936	-0.634766	-0.543213	-0.159180	0.593607	0.477970	-0.595864	0.253222
10930		9.453910	2.492252	-1.496651	0.053821	-0.065791	0.095861	-0.641357	-0.540039	-0.154785	0.592791	0.477958	-0.596405	0.253881
10931		9.481187	2.523015	-1.381627	0.129763	-0.050292	0.127878	-0.642578	-0.529541	-0.146973	0.591666	0.478083	-0.596892	0.255123
10932		9.496225	2.421341	-1.412799	0.164305	-0.052761	0.149516	-0.640869	-0.535400	-0.149658	0.590335	0.478182	-0.597502	0.256588
10933		9.545930	2.328016	-1.484174	0.140568	-0.040098	0.154998	-0.641357	-0.534912	-0.142334	0.589157	0.478203	-0.598016	0.258055
10934		9.604982	2.291928	-1.487103	0.126644	-0.012341	0.151715	-0.638184	-0.537109	-0.150146	0.588125	0.478200	-0.598356	0.259624
10935		9.513394	2.198108	-1.502783	0.131231	-0.001760	0.149883	-0.643066	-0.529541	-0.138916	0.587199	0.478182	-0.598597	0.261191
10936		9.442316	2.175708	-1.394329	0.192638	0.007037	0.151398	-0.647461	-0.534424	-0.138672	0.586002	0.478427	-0.598720	0.263142
10937		9.396789	2.180389	-1.399784	0.201752	-0.008077	0.144384	-0.645508	-0.525879	-0.138184	0.584692	0.478845	-0.598810	0.265084
10938		9.486022	2.179210	-1.641660	0.171705	0.004462	0.128495	-0.645020	-0.526367	-0.135986	0.583649	0.479040	-0.598931	0.266751
10939		9.459243	2.192942	-1.535250	0.175812	0.001112	0.117828	-0.652588	-0.525879	-0.138428	0.582580	0.479364	-0.598974	0.268404
10940		9.502108	2.190898	-1.534893	0.168758	0.009258	0.107064	-0.652832	-0.522949	-0.134766	0.581641	0.479594	-0.599015	0.269937
10941		9.544019	2.259124	-1.466395	0.145678	0.016657	0.090495	-0.645508	-0.525879	-0.143066	0.580853	0.479778	-0.599010	0.271311
10942		9.554965	2.305210	-1.547511	0.069657	-0.001314	0.059343	-0.652832	-0.525391	-0.138428	0.580434	0.479779	-0.599095	0.272018
10943		9.602502	2.229048	-1.661210	0.051978	-0.003225	0.020745	-0.652344	-0.521484	-0.130859	0.580119	0.479899	-0.599095	0.272479
10944		9.562550	2.231775	-1.746387	0.093752	0.026841	-0.005606	-0.654297	-0.515381	-0.133545	0.579785	0.480334	-0.598738	0.273206
10945		9.517983	2.380541	-1.662173	0.112243	0.040441	-0.026696	-0.661621	-0.521973	-0.128662	0.579557	0.480764	-0.598315	0.273860
10946		9.480015	2.595378	-1.655746	0.068958	0.037842	-0.072349	-0.640137	-0.519531	-0.139404	0.579514	0.481338	-0.597748	0.274179
10947		9.479120	2.820578	-1.583621	0.037813	0.038995	-0.134427	-0.647217	-0.523193	-0.129395	0.579893	0.481989	-0.596987	0.273893
10948		9.551624	3.036356	-1.584448	-0.042747	0.021996	-0.205671	-0.647949	-0.525635	-0.131592	0.580537	0.482794	-0.596136	0.272963
10949		9.225929	3.095139	-1.628275	-0.164264	0.012314	-0.266192	-0.642090	-0.529053	-0.137451	0.581778	0.483287	-0.595394	0.271061
10950		9.394921	3.169229	-1.594478	-0.214529	-0.027832	-0.314599	-0.640137	-0.526611	-0.135742	0.583181	0.483826	-0.594766	0.268449
10951		9.520810	3.378230	-1.703380	-0.338177	-0.043202	-0.360706	-0.641846	-0.543457	-0.139648	0.585078	0.483999	-0.594332	0.264949
10952		9.087771	3.440365	-1.798139	-0.488241	-0.048334	-0.397173	-0.636963	-0.543457	-0.148682	0.587598	0.483762	-0.593974	0.260572
10953		9.149167	3.410626	-1.598889	-0.506420	-0.066560	-0.426837	-0.637451	-0.542969	-0.148193	0.590229	0.483473	-0.593694	0.255757
10954		9.723537	3.390991	-1.717491	-0.580507	-0.087330	-0.492222	-0.634521	-0.550049	-0.150879	0.593128	0.483163	-0.593425	0.250199
10955		9.730342	3.534153	-1.662669	-0.695656	-0.115333	-0.581615	-0.631836	-0.555908	-0.156494	0.596480	0.482833	-0.593096	0.243558
10956		9.984360	4.044318	-1.459960	-0.784778	-0.162463	-0.647722	-0.627686	-0.555176	-0.159912	0.600057	0.482444	-0.592886	0.235937
10957		9.573686	4.435398	-1.803734	-1.206197	-0.244491	-0.674849	-0.619141	-0.561035	-0.164062	0.604902	0.480143	-0.593802	0.225734
10958		8.479961	4.180277	-1.750836	-1.337312	-0.193173	-0.547562	-0.617188	-0.566650	-0.177246	0.610141	0.476547	-0.595021	0.215824
10959		8.864026	3.250196	-1.439097	-1.054128	-0.101172	-0.552786	-0.605713	-0.564453	-0.178223	0.614675	0.474174	-0.595178	0.207598
10960		9.180599	3.013753	-1.418277	-0.870285	-0.047376	-0.672070	-0.610840	-0.565430	-0.196289	0.618824	0.473356	-0.594124	0.200019
10961		9.346793	3.291204	-1.435198	-0.618225	-0.032101	-0.772042	-0.592041	-0.576660	-0.197998	0.622314	0.473868	-0.592426	0.192889
10962		9.541641	3.421651	-1.470281	-0.535130	-0.027300	-0.859021	-0.589600	-0.580322	-0.192383	0.625541	0.475516	-0.589923	0.185942
10963		9.242231	3.879834	-1.298872	-0.431927	0.003694	-0.918723	-0.576172	-0.589111	-0.207031	0.628443	0.478018	-0.586812	0.179471
10964		8.996111	4.082526	-1.354801	-0.363493	0.007283	-0.970928	-0.566650	-0.603516	-0.204346	0.631258	0.480940	-0.583377	0.172863
10965		9.035748	4.285511	-1.213344	-0.265765	0.026416	-1.016483	-0.557373	-0.616211	-0.215088	0.633701	0.484797	-0.579287	0.166799
10966		9.172443	4.480631	-1.367922	-0.188442	0.005966	-1.055104	-0.544922	-0.615479	-0.209717	0.635818	0.489151	-0.575015	0.160702
10967		9.197840	4.742317	-1.248319	-0.191000	-0.010757	-1.075982	-0.540039	-0.631836	-0.211914	0.637809	0.493517	-0.570792	0.154392
10968		8.866373	5.054520	-1.108885	-0.244737	-0.007303	-1.075560	-0.522461	-0.641357	-0.211182	0.639961	0.497621	-0.566521	0.147911
10969		9.055180	5.484962	-0.930379	-0.359049	-0.013762	-1.100233	-0.519287	-0.643799	-0.211670	0.642511	0.501357	-0.562121	0.140858
10970		9.059613	5.972081	-1.168055	-0.605625	-0.047371	-1.111057	-0.507324	-0.651123	-0.229248	0.645883	0.503581	-0.558341	0.132276
10971		8.200106	5.316384	-0.971791	-0.750811	-0.048415	-1.074928	-0.496338	-0.666260	-0.234131	0.649869	0.504613	-0.554899	0.122978
10972		8.649266	4.538018	-1.421493	-0.618353	0.016486	-1.129938	-0.477539	-0.673584	-0.239502	0.653522	0.506753	-0.550452	0.114512
10973		8.818548	4.462959	-1.100203	-0.378504	0.055763	-1.148276	-0.468994	-0.679199	-0.251221	0.656294	0.510313	-0.545292	0.107310
10974		8.795780	4.630476	-0.913521	-0.208506	0.068332	-1.096121	-0.452148	-0.681641	-0.250488	0.658366	0.514273	-0.540260	0.100984
10975		8.460013	5.008979	-0.916100	-0.099275	0.064386	-1.028169	-0.444824	-0.696045	-0.250732	0.659844	0.518463	-0.535432	0.095473
10976		8.121334	5.306429	-0.876998	-0.023370	0.053209	-0.974701	-0.434082	-0.700195	-0.244873	0.660821	0.522903	-0.530724	0.090664
10977		7.976073	5.668433	-0.809259	0.003309	0.049739	-0.943360	-0.424805	-0.708984	-0.248291	0.661573	0.527298	-0.526175	0.086124
10978		7.677263	5.786213	-0.967552	-0.050563	0.070676	-0.900950	-0.414062	-0.711914	-0.248535	0.662609	0.531127	-0.521718	0.081631
10979		7.298071	5.250976	-0.789835	0.024922	0.076092	-0.817656	-0.399414	-0.725342	-0.248779	0.663259	0.534899	-0.517598	0.077863
10980		7.717028	5.201909	-0.895974	0.114579	0.059532	-0.751820	-0.387207	-0.729004	-0.247070	0.663360	0.539087	-0.513532	0.074988
10981		7.680013	5.786192	-0.900974	0.021363	-0.000621	-0.642774	-0.384766	-0.733643	-0.239990	0.663549	0.542287	-0.510335	0.072016
10982		7.174683	5.856322	-0.945057	-0.139627	-0.001820	-0.498228	-0.376465	-0.741455	-0.254639	0.664324	0.543915	-0.507988	0.069122
10983		6.750538	5.446071	-0.944870	-0.148848	0.010995	-0.379645	-0.375488	-0.735596	-0.255615	0.665189	0.544956	-0.506040	0.066854
10984		6.732005	4.773768	-1.056814	-0.048642	0.038818	-0.298700	-0.372314	-0.726074	-0.244873	0.665678	0.545983	-0.504483	0.065363
10985		7.222822	4.702866	-0.829044	0.100346	0.017260	-0.246012	-0.369141	-0.742432	-0.246338	0.665341	0.547521	-0.503358	0.064592
10986		7.587340	5.191253	-1.055528	0.030570	-0.041418	-0.157829	-0.369141	-0.733887	-0.251221	0.665019	0.548526	-0.502770	0.063964
10987		7.050324	5.604292	-1.260192	-0.115372	-0.048620	0.004961	-0.367188	-0.740479	-0.251953	0.665284	0.547855	-0.503225	0.063375
10988		6.754070	5.061151	-0.965646	-0.033689	-0.029219	0.129117	-0.369141	-0.737549	-0.249268	0.665183	0.547214	-0.503973	0.064022
10989		7.444255	4.521693	-0.863730	0.119168	-0.014632	0.165802	-0.362061	-0.741699	-0.246338	0.664418	0.547250	-0.504743	0.065579
10990		7.897594	4.710152	-1.040770	0.166930	-0.019550	0.237497	-0.375488	-0.737061	-0.251221	0.663373	0.547363	-0.505699	0.067821
10991		7.753681	5.325086	-1.199662	0.125807	-0.041319	0.389558	-0.378418	-0.741943	-0.254395	0.662348	0.546436	-0.507681	0.070443
10992		7.549492	5.831611	-1.189187	0.016785	-0.054834	0.551519	-0.388672	-0.733643	-0.251709	0.661666	0.544258	-0.510475	0.073460
10993		7.399194	5.738568	-0.975986	-0.045791	-0.022041	0.662749	-0.391846	-0.728760	-0.248535	0.661315	0.541176	-0.513685	0.076930
10994		7.606904	5.117131	-1.002863	-0.019460	-0.007046	0.710973	-0.403320	-0.727295	-0.240723	0.660848	0.538060	-0.516938	0.080901
10995		7.872711	4.465036	-0.891717	0.138628	0.026358	0.774189	-0.409180	-0.720459	-0.247314	0.659713	0.535579	-0.520106	0.086160
10996		8.366808	4.433413	-1.079784	0.298955	0.020973	0.816512	-0.424072	-0.709473	-0.246582	0.657810	0.533692	-0.523409	0.092203
10997		8.384737	4.862211	-1.015634	0.351203	0.034822	0.910862	-0.435059	-0.705811	-0.242432	0.655634	0.531531	-0.527095	0.098946
10998		8.524037	5.381592	-0.984236	0.301432	0.031324	0.988888	-0.447754	-0.703857	-0.230225	0.653547	0.528736	-0.531131	0.105895
10999		8.245997	5.243454	-1.080838	0.213062	0.053183	1.065022	-0.459473	-0.692871	-0.232422	0.651786	0.525185	-0.535315	0.113110
11000		8.197878	4.689418	-1.038166	0.296789	0.093321	1.107737	-0.461426	-0.675293	-0.229980	0.649762	0.521736	-0.539406	0.121004
11001		8.400269	4.142974	-0.875218	0.496690	0.134003	1.140747	-0.483398	-0.669922	-0.231934	0.646973	0.519093	-0.543182	0.130084
11002		9.439356	4.232193	-0.766448	0.704110	0.179093	1.151580	-0.502686	-0.666748	-0.215576	0.643423	0.517304	-0.546566	0.140247
11003		9.402394	5.024148	-1.410579	0.577911	0.171303	1.211889	-0.504150	-0.657227	-0.216797	0.640162	0.514641	-0.550225	0.150294
11004		8.956492	5.175432	-0.661785	0.473672	0.230753	1.349291	-0.518066	-0.645264	-0.215820	0.637411	0.510594	-0.554228	0.160727
11005		9.448178	4.561743	-1.072358	0.325669	0.172703	1.317014	-0.534180	-0.641846	-0.208496	0.634993	0.505869	-0.558556	0.169988
11006		8.869304	4.021150	-0.899279	0.299594	0.199810	1.337304	-0.543945	-0.621826	-0.216553	0.632652	0.500928	-0.562687	0.179462
11007		9.109778	3.397898	-0.985498	0.571480	0.261876	1.350534	-0.562988	-0.610107	-0.217041	0.629438	0.496992	-0.566210	0.190296
11008		9.846540	3.171649	-0.938557	0.850354	0.334129	1.365777	-0.569336	-0.601318	-0.204346	0.625308	0.494153	-0.568953	0.202718
11009		10.280765	3.378113	-1.206264	0.934094	0.353331	1.366670	-0.581299	-0.587891	-0.198242	0.620751	0.491777	-0.571209	0.215740
11010		9.893902	3.603820	-1.515171	0.804604	0.395561	1.436300	-0.592773	-0.574219	-0.191406	0.616676	0.488215	-0.573655	0.228640
11011		9.468038	3.628774	-1.055684	0.807697	0.432579	1.525089	-0.612061	-0.562256	-0.200439	0.612439	0.484126	-0.576100	0.242177
11012		9.791666	3.278965	-0.987427	0.871715	0.451722	1.539688	-0.618164	-0.543213	-0.193115	0.608001	0.479874	-0.578441	0.255854
11013		10.111297	2.913351	-0.808032	0.911314	0.486315	1.520878	-0.629150	-0.524658	-0.197266	0.603436	0.475817	-0.580233	0.269804
11014		10.299376	2.387101	-1.207819	0.989703	0.502493	1.476746	-0.645996	-0.511963	-0.187256	0.598686	0.472058	-0.581559	0.283771
11015		10.426760	2.259894	-1.454988	1.165487	0.556787	1.447726	-0.655029	-0.498535	-0.194092	0.593316	0.469248	-0.581810	0.298798
11016		10.491624	2.167202	-1.420506	1.231354	0.609082	1.448407	-0.663818	-0.492432	-0.187500	0.587918	0.466309	-0.581605	0.314076
11017		10.308554	2.242076	-1.203663	1.157065	0.643286	1.437281	-0.666748	-0.476318	-0.193848	0.582782	0.463003	-0.581104	0.329107
11018		10.148017	2.462278	-0.870300	0.963036	0.625341	1.394569	-0.676025	-0.464600	-0.188477	0.578296	0.458902	-0.580898	0.342840
11019		10.210244	2.482011	-0.748331	0.685013	0.604191	1.332997	-0.683594	-0.445312	-0.199707	0.574697	0.453925	-0.581098	0.354967
11020		10.077261	2.241515	-0.706219	0.496743	0.595056	1.242090	-0.684570	-0.426270	-0.195801	0.571917	0.448462	-0.581440	0.365679
11021		10.025986	1.618773	-0.883860	0.460840	0.550921	1.125729	-0.694580	-0.417725	-0.202637	0.569296	0.443516	-0.581553	0.375488
11022		10.080996	1.352127	-0.995161	0.564598	0.520175	1.024219	-0.696289	-0.398926	-0.206299	0.566395	0.439593	-0.581044	0.385153
11023		10.306383	1.253031	-0.989954	0.618871	0.518535	0.962039	-0.703125	-0.398926	-0.216553	0.563420	0.436183	-0.580074	0.394736
11024		10.253809	1.181728	-0.547154	0.537791	0.554315	0.911841	-0.708252	-0.383057	-0.218506	0.561017	0.432472	-0.578958	0.403777
11025		10.200431	1.083945	-0.174485	0.342129	0.533918	0.843211	-0.708008	-0.374268	-0.227295	0.559400	0.428208	-0.578296	0.411441
11026		10.264338	1.092132	-0.009660	0.210891	0.504952	0.775935	-0.709229	-0.368164	-0.226318	0.558302	0.423725	-0.577936	0.418026
11027		9.996283	1.030620	-0.037374	0.114088	0.481735	0.716372	-0.708740	-0.358643	-0.234863	0.557609	0.419135	-0.577777	0.423760
11028		9.742024	0.719836	-0.012361	0.028800	0.440829	0.655405	-0.715332	-0.354736	-0.240479	0.557204	0.414567	-0.577867	0.428634
11029		9.744453	0.341516	0.143697	0.023709	0.400254	0.591303	-0.715088	-0.342529	-0.244873	0.556828	0.410413	-0.577918	0.433029
11030		9.850081	0.034593	0.342860	-0.013406	0.378714	0.528160	-0.714111	-0.336670	-0.256104	0.556685	0.406456	-0.577968	0.436862
11031		9.899105	-0.027865	0.410426	-0.020887	0.385048	0.453534	-0.714111	-0.332520	-0.252930	0.556853	0.402789	-0.577747	0.440323
11032		9.714926	0.119265	0.209253	0.028291	0.405217	0.373031	-0.711182	-0.327881	-0.255127	0.557236	0.399655	-0.576967	0.443704
11033		9.598638	0.127026	0.256920	0.073447	0.411595	0.314513	-0.718506	-0.327881	-0.266357	0.557704	0.396980	-0.575784	0.447042
11034		9.532095	0.069002	0.335359	0.040951	0.397754	0.306091	-0.714600	-0.322998	-0.277588	0.558234	0.394239	-0.574747	0.450129
11035		9.488362	0.008551	0.118092	-0.027265	0.327817	0.298061	-0.717285	-0.308350	-0.282227	0.558674	0.391476	-0.574256	0.452615
11036		9.495531	-0.047634	0.233056	-0.102341	0.296375	0.263643	-0.713379	-0.309570	-0.277344	0.559331	0.388641	-0.574075	0.454471
11037		9.348252	-0.270859	0.257565	-0.196922	0.260277	0.228493	-0.718506	-0.308350	-0.289307	0.560249	0.385667	-0.574301	0.455588
11038		9.268189	-0.532083	0.174860	-0.180019	0.203444	0.201389	-0.708740	-0.299316	-0.282227	0.560939	0.383113	-0.574635	0.456472
11039		9.126626	-0.406051	0.231037	-0.181969	0.145888	0.157974	-0.710449	-0.293701	-0.295654	0.561520	0.380975	-0.575104	0.456956
11040		8.984520	-0.220377	0.267676	-0.221663	0.116631	0.094859	-0.719727	-0.290283	-0.295654	0.562325	0.379063	-0.575658	0.456858
11041		8.844504	-0.317561	0.377457	-0.210697	0.087103	-0.001906	-0.715332	-0.289551	-0.299316	0.563321	0.377778	-0.576001	0.456263
11042		8.894588	-0.522459	0.404207	-0.141339	0.036300	-0.104126	-0.712646	-0.297607	-0.295898	0.564241	0.377502	-0.575996	0.455360
11043		9.019800	-0.772867	0.215460	-0.116079	0.006824	-0.153576	-0.714844	-0.300781	-0.293213	0.565128	0.377692	-0.575878	0.454251
11044		9.079688	-0.901858	0.067459	-0.099496	-0.026186	-0.191199	-0.705566	-0.294434	-0.299072	0.565945	0.378266	-0.575732	0.452938
11045		9.199459	-0.880104	0.081723	-0.046716	-0.055420	-0.244876	-0.708740	-0.298096	-0.296387	0.566657	0.379454	-0.575355	0.451532
11046		9.491534	-0.859504	0.074482	0.049941	-0.095879	-0.282154	-0.707275	-0.303467	-0.292480	0.567006	0.381428	-0.574686	0.450281
11047		9.813261	-0.690160	0.108857	0.111063	-0.141006	-0.284197	-0.712158	-0.310059	-0.294434	0.566949	0.383866	-0.573990	0.449166
11048		9.761260	-0.345535	0.304292	0.056404	-0.160679	-0.288778	-0.706055	-0.308594	-0.294189	0.566986	0.386139	-0.573574	0.447701
11049		9.636150	-0.171676	0.437661	-0.018874	-0.219779	-0.315100	-0.711670	-0.312500	-0.287598	0.567076	0.388400	-0.573629	0.445557
11050		9.550485	-0.356247	0.203950	-0.096116	-0.280587	-0.346464	-0.709961	-0.316895	-0.284668	0.567236	0.390666	-0.574149	0.442692
11051		9.526085	-0.566551	-0.005511	-0.093268	-0.320956	-0.371479	-0.713867	-0.328369	-0.280273	0.567277	0.393209	-0.574760	0.439584
11052		9.540935	-0.657958	-0.153848	-0.018572	-0.355411	-0.386078	-0.702881	-0.322021	-0.269043	0.566953	0.396294	-0.575202	0.436644
11053		9.498640	-0.721851	-0.042876	0.102477	-0.380980	-0.409180	-0.713379	-0.330078	-0.271484	0.566179	0.400146	-0.575238	0.434080
11054		9.412185	-0.636562	0.160047	0.196826	-0.413495	-0.451873	-0.712402	-0.338379	-0.268066	0.565075	0.404755	-0.574930	0.431647
11055		9.318036	-0.510717	0.223596	0.250775	-0.431407	-0.508736	-0.707520	-0.348389	-0.256348	0.563890	0.409942	-0.574302	0.429130
11056		9.168153	-0.459418	0.418767	0.245920	-0.439082	-0.573233	-0.710938	-0.353516	-0.253662	0.562894	0.415427	-0.573485	0.426245
11057		9.410850	-0.330304	0.302960	0.250367	-0.454810	-0.630736	-0.705566	-0.364502	-0.242432	0.561989	0.421245	-0.572503	0.423039
11058		10.094481	-0.125574	-0.242392	0.447834	-0.478263	-0.650115	-0.705322	-0.374023	-0.224609	0.560317	0.428140	-0.570836	0.420580
11059		10.627924	0.256025	-0.204919	0.589334	-0.460182	-0.619500	-0.710938	-0.390381	-0.218506	0.558084	0.435461	-0.568662	0.418975
11060		10.462915	0.584988	-0.021417	0.501299	-0.453544	-0.617250	-0.707275	-0.402100	-0.210449	0.556160	0.442312	-0.566737	0.416960
11061		10.296860	0.651248	0.019069	0.369079	-0.458121	-0.620298	-0.702393	-0.413330	-0.205811	0.554683	0.448556	-0.565249	0.414267
11062		10.313414	0.531047	-0.195443	0.267157	-0.473304	-0.622267	-0.696777	-0.416748	-0.199463	0.553496	0.454370	-0.564148	0.411008
11063		10.374188	0.427674	-0.421909	0.232949	-0.489042	-0.608683	-0.700195	-0.418701	-0.183350	0.552294	0.459992	-0.563263	0.407570
11064		10.348000	0.496393	-0.589975	0.216587	-0.482133	-0.583497	-0.705566	-0.432373	-0.179443	0.551075	0.465376	-0.562476	0.404180
11065		10.141629	0.945340	-0.600791	0.165447	-0.475668	-0.546836	-0.694092	-0.435547	-0.167725	0.549941	0.470314	-0.561949	0.400727
11066		9.793314	1.495129	-0.532980	0.004755	-0.471791	-0.498543	-0.695557	-0.437744	-0.162109	0.549272	0.474264	-0.562108	0.396747
11067		9.663661	1.593153	-0.311724	-0.119456	-0.465953	-0.465222	-0.700928	-0.454346	-0.160156	0.548997	0.477450	-0.562770	0.392344
11068		9.788131	1.419705	-0.469946	-0.178511	-0.435722	-0.431504	-0.687012	-0.458496	-0.153320	0.548972	0.480102	-0.563597	0.387931
11069		9.943921	1.260328	-0.734212	-0.241851	-0.390356	-0.404833	-0.683350	-0.457764	-0.150879	0.549309	0.482191	-0.564504	0.383519
11070		9.864927	1.249619	-1.075114	-0.267312	-0.351817	-0.405363	-0.686035	-0.456299	-0.145996	0.549923	0.484022	-0.565306	0.379126
11071		9.763242	1.151596	-0.900725	-0.303200	-0.343451	-0.403993	-0.685303	-0.467529	-0.150879	0.550704	0.485635	-0.566186	0.374590
11072		9.922627	1.058672	-0.725329	-0.411430	-0.368631	-0.394687	-0.678467	-0.468262	-0.145264	0.551766	0.486773	-0.567535	0.369472
11073		10.097630	1.184480	-1.395503	-0.351724	-0.311986	-0.395515	-0.682129	-0.469971	-0.149414	0.552834	0.488011	-0.568417	0.364859
11074		9.802208	1.149588	-1.044062	-0.360378	-0.266451	-0.393466	-0.677734	-0.478760	-0.147705	0.554148	0.489024	-0.569127	0.360375
11075		9.784349	0.863824	-0.573257	-0.451167	-0.281836	-0.389043	-0.680908	-0.479736	-0.142578	0.555722	0.489651	-0.570167	0.355422
11076		9.994908	0.792664	-0.833591	-0.474129	-0.294310	-0.402243	-0.675781	-0.482666	-0.150146	0.557342	0.490259	-0.571266	0.350245
11077		10.024312	1.053546	-1.200244	-0.366290	-0.239159	-0.430991	-0.665771	-0.492920	-0.141846	0.558873	0.491308	-0.571671	0.345645
11078		9.979621	1.415727	-1.296034	-0.239168	-0.216940	-0.446972	-0.668213	-0.490234	-0.147461	0.559988	0.493013	-0.571480	0.341704
11079		9.933200	1.718973	-1.296844	-0.159981	-0.220982	-0.446513	-0.674805	-0.499756	-0.135986	0.560777	0.495028	-0.571120	0.338080
11080		9.736589	1.728272	-1.094949	-0.231208	-0.222928	-0.461155	-0.669678	-0.497070	-0.139404	0.561842	0.496820	-0.570875	0.334074
11081		9.654931	1.572600	-1.098994	-0.309308	-0.240981	-0.465060	-0.664062	-0.503662	-0.138428	0.563169	0.498258	-0.570935	0.329564
11082		9.793783	1.538964	-1.345109	-0.323109	-0.229714	-0.427968	-0.653809	-0.502441	-0.134033	0.564485	0.499432	-0.571103	0.325215
11083		9.729403	1.793381	-1.508295	-0.318451	-0.205438	-0.384126	-0.658691	-0.509277	-0.147705	0.565755	0.500360	-0.571305	0.321203
11084		9.653709	1.979890	-1.455034	-0.300453	-0.157378	-0.359565	-0.661377	-0.510498	-0.129395	0.567157	0.501043	-0.571374	0.317522
11085		9.675250	1.970264	-1.369151	-0.260382	-0.116236	-0.355403	-0.660889	-0.520020	-0.143066	0.568487	0.501870	-0.571101	0.314312
11086		9.611090	2.049037	-1.236136	-0.199511	-0.117301	-0.334358	-0.652100	-0.528076	-0.136230	0.569547	0.502829	-0.570784	0.311426
11087		9.600293	2.099021	-1.389855	-0.229434	-0.132697	-0.300418	-0.653320	-0.522949	-0.133057	0.570519	0.503611	-0.570679	0.308561
11088		9.531823	2.126186	-1.397305	-0.251512	-0.121378	-0.259175	-0.649658	-0.527344	-0.136719	0.571527	0.504023	-0.570782	0.305819
11089		9.598318	2.071341	-1.390094	-0.232020	-0.082628	-0.217437	-0.644775	-0.527100	-0.142334	0.572538	0.504226	-0.570816	0.303520
11090		9.741519	1.994403	-1.503539	-0.180406	-0.064977	-0.164672	-0.641846	-0.532959	-0.137695	0.573308	0.504341	-0.570878	0.301757
11091		9.686213	1.910123	-1.507087	-0.152822	-0.051467	-0.117001	-0.643799	-0.537598	-0.140869	0.573864	0.504403	-0.570942	0.300472
11092		9.663230	1.749641	-1.552361	-0.107358	-0.039319	-0.092786	-0.638184	-0.525391	-0.145264	0.574230	0.504535	-0.570933	0.299568
11093		9.612972	1.773355	-1.553500	0.039638	-0.033504	-0.053905	-0.640869	-0.535889	-0.147705	0.573966	0.505053	-0.570787	0.299478
11094		9.629758	1.961726	-1.536952	0.129612	-0.004054	0.004013	-0.650635	-0.534668	-0.136963	0.573309	0.505696	-0.570475	0.300245
11095		9.703264	2.314172	-1.456674	0.102256	0.027555	0.046102	-0.638428	-0.531738	-0.138184	0.572763	0.505960	-0.570251	0.301266
11096		9.553201	2.636061	-1.432164	-0.045088	0.016634	0.056604	-0.642578	-0.534424	-0.143555	0.572773	0.505507	-0.570475	0.301583
11097		9.220809	2.721485	-1.386811	-0.250431	-0.041684	0.063996	-0.636475	-0.528564	-0.141113	0.573375	0.504156	-0.571540	0.300684
11098		9.254147	2.695800	-1.496223	-0.410629	-0.083605	0.094210	-0.648193	-0.525146	-0.141113	0.574354	0.502021	-0.573312	0.299008
11099		9.231284	2.511074	-1.562801	-0.535080	-0.065332	0.137709	-0.651611	-0.529785	-0.141846	0.575817	0.498995	-0.575522	0.297008
11100		9.221698	2.135470	-1.599506	-0.512436	-0.039578	0.171972	-0.650879	-0.523193	-0.150146	0.577166	0.495939	-0.577604	0.295463
11101		9.306451	1.860395	-1.523533	-0.322972	-0.037711	0.166760	-0.653809	-0.520020	-0.153076	0.577788	0.493738	-0.579232	0.294744
11102		9.345395	1.770555	-1.393790	-0.145336	-0.040632	0.139746	-0.652344	-0.510254	-0.157959	0.577736	0.492509	-0.580338	0.294726
11103		9.526612	1.643401	-1.544450	0.009939	-0.027341	0.101017	-0.652588	-0.514893	-0.148438	0.577268	0.492058	-0.580934	0.295221
11104		9.614691	1.638912	-1.686737	0.150001	0.013030	0.070400	-0.650879	-0.519043	-0.156738	0.576399	0.492505	-0.580734	0.296566
11105		9.635824	1.920596	-1.645547	0.259474	0.046564	0.049233	-0.659912	-0.515625	-0.149414	0.575347	0.493452	-0.580024	0.298417
11106		9.536820	2.313649	-1.525148	0.294222	0.063439	0.033625	-0.649170	-0.514893	-0.150391	0.574245	0.494573	-0.579120	0.300434
11107		9.469689	2.472947	-1.515110	0.287441	0.063108	0.030969	-0.654541	-0.509033	-0.160645	0.573194	0.495680	-0.578196	0.302388
11108		9.419606	2.431370	-1.406341	0.267564	0.059702	0.034403	-0.659424	-0.511719	-0.144043	0.572337	0.496425	-0.577547	0.304028
11109		9.405352	2.263432	-1.357974	0.237503	0.049058	0.046204	-0.660156	-0.514648	-0.145752	0.571372	0.497201	-0.576931	0.305738
11110		9.480173	2.052110	-1.429629	0.229542	0.050454	0.056183	-0.656738	-0.511963	-0.139160	0.570441	0.497872	-0.576370	0.307439
11111		9.488171	2.016971	-1.423715	0.257107	0.066278	0.067143	-0.659668	-0.517090	-0.140625	0.569395	0.498645	-0.575658	0.309451
11112		9.465351	2.122609	-1.471863	0.264180	0.071505	0.077844	-0.655762	-0.511230	-0.143555	0.568326	0.499387	-0.574933	0.311560
