// Start Time: Unknown
// Update Rate: 60.0Hz
// Filter Profile: human (46.1)
// Firmware Version: 4.6.0
PacketCounter	SampleTimeFine	Acc_X	Acc_Y	Acc_Z	Gyr_X	Gyr_Y	Gyr_Z	Mag_X	Mag_Y	Mag_Z	Quat_q0	Quat_q1	Quat_q2	Quat_q3
25672		8.267653	-4.837528	-2.141936	0.003292	0.003012	-0.007735	-0.661621	0.242188	0.655518	0.080713	-0.718856	0.303931	-0.619966
25673		8.245972	-4.851275	-2.179077	-0.005702	0.006809	-0.006937	-0.645996	0.252930	0.657227	0.080625	-0.718842	0.303923	-0.619997
25674		8.227663	-4.887430	-2.277523	0.003086	0.005967	-0.006530	-0.658936	0.254150	0.661133	0.080851	-0.718848	0.303912	-0.619966
25675		8.214403	-4.928472	-2.206050	0.008487	0.005537	-0.006514	-0.660645	0.251465	0.658936	0.081015	-0.718843	0.303860	-0.619976
25676		8.191525	-4.900592	-2.230103	0.007636	0.000968	-0.006558	-0.650146	0.245361	0.658203	0.081133	-0.718859	0.303801	-0.619971
25677		8.229637	-4.852914	-2.230659	0.007140	-0.001442	-0.004498	-0.648193	0.242676	0.659668	0.081266	-0.718884	0.303757	-0.619946
25678		8.242528	-4.870797	-2.201419	0.002651	0.009796	-0.004210	-0.650635	0.241699	0.655762	0.081331	-0.718854	0.303745	-0.619978
25679		8.249265	-4.878229	-2.155048	0.001131	0.005072	-0.008283	-0.655762	0.244873	0.658203	0.081338	-0.718858	0.303709	-0.619991
25680		8.254283	-4.835644	-2.190005	0.002001	0.004566	-0.010541	-0.660156	0.249023	0.654785	0.081346	-0.718869	0.303656	-0.620002
25681		8.170174	-4.961606	-2.196206	-0.003676	0.011157	-0.012313	-0.653320	0.253418	0.654297	0.081293	-0.718856	0.303627	-0.620038
25682		8.161842	-4.962208	-2.223315	0.002337	-0.002510	-0.010913	-0.654541	0.249512	0.659912	0.081401	-0.718912	0.303585	-0.619981
25683		8.236200	-4.855246	-2.194770	0.019995	-0.010172	-0.014521	-0.655029	0.240479	0.660400	0.081590	-0.719003	0.303427	-0.619928
25684		8.212696	-4.890670	-2.245409	0.017692	-0.008363	-0.010906	-0.658447	0.234619	0.667236	0.081696	-0.719072	0.303292	-0.619900
25685		8.209914	-4.900127	-2.227342	0.019390	-0.006382	-0.013212	-0.645264	0.257812	0.652588	0.081743	-0.719136	0.303136	-0.619895
25686		8.228943	-4.925733	-2.153262	0.021641	-0.009568	-0.009622	-0.652832	0.248535	0.663574	0.082061	-0.719206	0.303017	-0.619829
25687		8.236951	-4.873143	-2.206664	0.011294	-0.010468	-0.011888	-0.661133	0.249756	0.656006	0.082205	-0.719320	0.302930	-0.619722
25688		8.208757	-4.876795	-2.227615	0.014946	-0.007591	-0.012445	-0.647705	0.254639	0.662598	0.082316	-0.719380	0.302820	-0.619691
25689		8.209439	-4.908538	-2.271123	0.020179	-0.008057	-0.013442	-0.645020	0.251221	0.651367	0.082554	-0.719482	0.302687	-0.619605
25690		8.258493	-4.867531	-2.212137	0.039770	-0.009741	-0.013021	-0.655029	0.246826	0.652588	0.082871	-0.719533	0.302451	-0.619619
25691		8.259091	-4.834402	-2.166853	0.036041	-0.013785	-0.010429	-0.656494	0.245361	0.656738	0.083114	-0.719613	0.302243	-0.619596
25692		8.251581	-4.814910	-2.180940	0.014088	-0.009374	-0.005105	-0.648926	0.255859	0.663574	0.083223	-0.719695	0.302177	-0.619518
25693		8.281824	-4.851955	-2.172354	0.008925	-0.000586	-0.003770	-0.643311	0.248047	0.659180	0.083399	-0.719766	0.302162	-0.619419
25694		8.274919	-4.834365	-2.248169	0.002600	0.005630	-0.004401	-0.652588	0.244629	0.655762	0.083455	-0.719793	0.302155	-0.619384
25695		8.270443	-4.800026	-2.154887	0.011844	0.003045	-0.006239	-0.658447	0.244141	0.661377	0.083500	-0.719812	0.302084	-0.619390
25696		8.282022	-4.770571	-2.267770	0.012159	0.012570	-0.006938	-0.650391	0.250000	0.656494	0.083505	-0.719815	0.302007	-0.619423
25697		8.307891	-4.773283	-2.165313	0.013109	0.001698	-0.008608	-0.658936	0.249023	0.663574	0.083588	-0.719850	0.301917	-0.619415
25698		8.289700	-4.777236	-2.219298	0.002281	0.007626	-0.006336	-0.645264	0.243896	0.658936	0.083575	-0.719901	0.301887	-0.619372
25699		8.298153	-4.795588	-2.204106	-0.015998	0.009833	-0.003864	-0.654785	0.253174	0.661133	0.083441	-0.719929	0.301948	-0.619328
25700		8.273611	-4.788660	-2.242559	-0.018455	0.008807	-0.008638	-0.651611	0.244629	0.661133	0.083320	-0.719977	0.302016	-0.619255
25701		8.222093	-4.899395	-2.245847	-0.024247	0.019305	-0.006083	-0.653076	0.246826	0.649414	0.083089	-0.719983	0.302106	-0.619235
25702		8.273330	-4.835717	-2.173658	-0.007964	0.019200	-0.008090	-0.652100	0.252686	0.657471	0.082944	-0.719899	0.302118	-0.619347
25703		8.279887	-4.835279	-2.219812	-0.008986	0.021748	-0.006758	-0.657471	0.250732	0.656006	0.082860	-0.719849	0.302159	-0.619396
25704		8.256427	-4.836022	-2.162495	-0.007129	0.019405	-0.003052	-0.659424	0.237305	0.664795	0.082776	-0.719794	0.302203	-0.619450
25705		8.253154	-4.805327	-2.193140	-0.006260	0.009657	-0.007773	-0.642090	0.241699	0.654541	0.082598	-0.719883	0.302158	-0.619392
25706		8.255993	-4.815020	-2.223262	-0.017214	0.012536	-0.008732	-0.650146	0.244385	0.653809	0.082419	-0.719888	0.302196	-0.619392
25707		8.218236	-4.882068	-2.234180	-0.015866	0.021592	-0.010682	-0.656494	0.250244	0.655029	0.082211	-0.719842	0.302226	-0.619458
25708		8.235995	-4.920510	-2.265655	-0.003532	0.013455	-0.016426	-0.659912	0.233887	0.657227	0.082104	-0.719840	0.302171	-0.619502
25709		8.198319	-4.987771	-2.276130	0.011827	0.003265	-0.011397	-0.652832	0.250244	0.658447	0.081993	-0.719915	0.302014	-0.619506
25710		8.264896	-4.902286	-2.211533	0.030463	-0.012648	-0.004100	-0.652100	0.246582	0.656250	0.082251	-0.720015	0.301864	-0.619428
25711		8.294508	-4.838915	-2.289134	0.032068	-0.020557	0.005649	-0.649170	0.250244	0.653076	0.082554	-0.720122	0.301748	-0.619320
25712		8.302617	-4.704152	-2.304140	0.016861	-0.009814	0.014104	-0.656494	0.248535	0.659668	0.082814	-0.720136	0.301781	-0.619253
25713		8.350040	-4.667869	-2.308529	0.011449	-0.007114	0.008993	-0.647461	0.253662	0.660400	0.082965	-0.720207	0.301788	-0.619146
25714		8.411338	-4.592600	-2.165172	0.003636	0.003399	0.011917	-0.650146	0.247559	0.659424	0.083132	-0.720231	0.301878	-0.619053
25715		8.441795	-4.569861	-2.191957	-0.013146	0.021853	0.015797	-0.655029	0.249023	0.656738	0.083089	-0.720171	0.302045	-0.619047
25716		8.455320	-4.535314	-2.104653	-0.029508	0.030030	0.022281	-0.651367	0.244385	0.661621	0.082942	-0.720038	0.302326	-0.619084
25717		8.390354	-4.567536	-2.109200	-0.064445	0.048845	0.024329	-0.653564	0.251221	0.655762	0.082519	-0.719889	0.302778	-0.619093
25718		8.296425	-4.731105	-2.185458	-0.086631	0.069991	0.023043	-0.656006	0.242676	0.657715	0.081953	-0.719577	0.303367	-0.619242
25719		8.204224	-4.869958	-2.186354	-0.079750	0.067542	0.014365	-0.656250	0.238770	0.649170	0.081305	-0.719339	0.303827	-0.619379
25720		8.293249	-4.866330	-2.151384	-0.061752	0.057674	0.017876	-0.655518	0.255371	0.650879	0.080767	-0.719067	0.304206	-0.619579
25721		8.250737	-4.834476	-2.260417	-0.062863	0.059039	0.021216	-0.657715	0.244141	0.648926	0.080432	-0.718740	0.304678	-0.619769
25722		8.252506	-4.884787	-2.177007	-0.069742	0.056592	0.022323	-0.659424	0.242432	0.651611	0.079940	-0.718450	0.305154	-0.619936
25723		8.276624	-4.889685	-2.074506	-0.087347	0.063082	0.028849	-0.650879	0.244385	0.656494	0.079349	-0.718146	0.305763	-0.620064
25724		8.208512	-4.972010	-2.012991	-0.087459	0.069261	0.028051	-0.664551	0.242432	0.651123	0.078832	-0.717859	0.306400	-0.620148
25725		8.174386	-4.968987	-2.077183	-0.081055	0.064200	0.026631	-0.658203	0.237061	0.649902	0.078265	-0.717524	0.306968	-0.620327
25726		8.154340	-4.921478	-2.149439	-0.086964	0.062658	0.018239	-0.666260	0.240967	0.654541	0.077610	-0.717240	0.307523	-0.620462
25727		8.073988	-5.069647	-2.219859	-0.078221	0.048679	0.010837	-0.654541	0.236816	0.653809	0.077028	-0.717045	0.307989	-0.620529
25728		8.097334	-5.104306	-2.102158	-0.067106	0.029464	0.007970	-0.663818	0.241455	0.652832	0.076586	-0.716983	0.308397	-0.620453
25729		8.138885	-5.108437	-2.147717	-0.053130	0.022177	0.002055	-0.665283	0.241699	0.651611	0.076232	-0.716907	0.308696	-0.620436
25730		8.181620	-4.995796	-2.109602	-0.037450	-0.000182	0.004472	-0.651123	0.239746	0.650146	0.076050	-0.716907	0.308923	-0.620345
25731		8.130411	-5.036497	-2.247543	-0.020236	-0.006070	0.003253	-0.667725	0.242432	0.658691	0.076051	-0.716961	0.309074	-0.620207
25732		8.207915	-5.003991	-2.199809	0.009631	-0.013103	0.005983	-0.651123	0.239990	0.647949	0.076210	-0.717033	0.309072	-0.620104
25733		8.280975	-4.828058	-2.237295	0.016931	-0.026007	0.005130	-0.659180	0.247803	0.652100	0.076494	-0.717136	0.309041	-0.619967
25734		8.348480	-4.670184	-2.102909	0.006220	-0.023979	0.002956	-0.655762	0.240234	0.663086	0.076759	-0.717222	0.309048	-0.619830
25735		8.268380	-4.789373	-2.257265	-0.023627	-0.005905	0.008009	-0.655762	0.243408	0.646240	0.076753	-0.717365	0.309227	-0.619576
25736		8.318558	-4.803490	-2.243636	-0.034126	0.018477	0.017218	-0.665527	0.240234	0.658447	0.076669	-0.717189	0.309549	-0.619629
25737		8.330261	-4.760164	-2.188785	-0.047665	0.029070	0.023190	-0.658936	0.241211	0.656250	0.076433	-0.717047	0.309951	-0.619623
25738		8.379369	-4.752134	-2.035527	-0.037298	0.024891	0.023237	-0.656494	0.242188	0.656494	0.076325	-0.716923	0.310304	-0.619602
25739		8.294117	-4.672403	-2.090255	-0.048681	0.024469	0.022081	-0.659180	0.237549	0.651367	0.076178	-0.716822	0.310704	-0.619537
25740		8.290095	-4.738087	-2.192920	-0.048020	0.032479	0.013023	-0.664307	0.241211	0.652100	0.075863	-0.716657	0.311044	-0.619596
25741		8.268107	-4.896756	-2.159205	-0.052822	0.042073	0.000849	-0.664062	0.239746	0.647949	0.075464	-0.716450	0.311338	-0.619737
25742		8.206646	-4.944301	-2.103140	-0.040016	0.037561	-0.009883	-0.663574	0.234619	0.651123	0.075076	-0.716252	0.311505	-0.619928
25743		8.121877	-4.975406	-2.178694	-0.037151	0.040288	-0.015431	-0.661865	0.235596	0.653076	0.074614	-0.716107	0.311622	-0.620093
25744		8.142771	-5.158893	-2.264384	-0.029226	0.025689	-0.017524	-0.659912	0.239502	0.660889	0.074277	-0.716065	0.311680	-0.620153
25745		8.114422	-5.108568	-2.302624	-0.008707	0.012901	-0.013398	-0.657227	0.243896	0.658203	0.074236	-0.716137	0.311651	-0.620089
25746		8.105058	-5.086552	-2.191021	0.003607	0.013230	-0.000999	-0.659424	0.231201	0.655273	0.074421	-0.716135	0.311649	-0.620070
25747		8.180762	-5.014779	-2.263754	0.000047	0.015158	0.007987	-0.667236	0.232422	0.654297	0.074393	-0.716110	0.311716	-0.620069
25748		8.166079	-5.027760	-2.210573	0.000697	0.008154	0.009600	-0.667236	0.241943	0.661621	0.074361	-0.716062	0.311785	-0.620093
25749		8.124487	-4.994052	-2.320809	-0.000882	0.017060	0.002027	-0.663086	0.250732	0.652588	0.074441	-0.716024	0.311826	-0.620107
25750		8.110620	-4.913757	-2.395683	0.022248	0.003983	-0.003607	-0.663330	0.239014	0.652832	0.074799	-0.715946	0.311748	-0.620194
25751		8.231009	-4.874781	-2.280292	0.025274	-0.000638	-0.005389	-0.664307	0.246582	0.656494	0.074981	-0.715951	0.311620	-0.620230
25752		8.308871	-4.810074	-2.184551	0.008075	-0.001875	-0.006649	-0.662109	0.236328	0.642578	0.075185	-0.715982	0.311572	-0.620193
25753		8.193795	-4.888924	-2.234188	-0.003972	0.011826	-0.007025	-0.658447	0.242920	0.653320	0.075056	-0.715855	0.311621	-0.620331
25754		8.208842	-4.968951	-2.155503	-0.000689	0.012046	0.000705	-0.658203	0.245605	0.656982	0.075177	-0.715821	0.311670	-0.620331
25755		8.232205	-4.882673	-2.181824	0.002041	0.011256	0.002269	-0.658691	0.240967	0.646729	0.075388	-0.715816	0.311705	-0.620294
25756		8.254569	-4.878973	-2.111096	-0.009777	0.009330	0.006264	-0.660645	0.234375	0.650635	0.075416	-0.715721	0.311856	-0.620325
25757		8.107512	-4.964716	-2.258662	-0.017869	0.014696	0.004800	-0.668701	0.242920	0.656006	0.075270	-0.715669	0.312015	-0.620322
25758		8.096941	-5.080095	-2.170746	-0.002195	0.007105	0.001756	-0.663086	0.240723	0.647461	0.075345	-0.715633	0.312057	-0.620332
25759		8.081846	-5.104446	-2.225333	0.019709	-0.005810	0.001532	-0.659424	0.244141	0.655273	0.075539	-0.715596	0.312016	-0.620373
25760		8.240695	-5.071029	-2.093074	0.060666	-0.035927	-0.003824	-0.657715	0.240723	0.650146	0.076149	-0.715798	0.311686	-0.620231
25761		8.141464	-5.024820	-2.171520	0.068048	-0.033148	-0.007045	-0.662598	0.234863	0.652832	0.076688	-0.715950	0.311322	-0.620172
25762		8.137397	-5.058857	-2.228094	0.069197	-0.025050	-0.013089	-0.660889	0.249023	0.648926	0.077047	-0.716099	0.310903	-0.620165
25763		8.080264	-5.109462	-2.219556	0.078810	-0.032611	-0.015130	-0.660889	0.238037	0.649658	0.077696	-0.716194	0.310450	-0.620202
25764		8.120449	-5.029035	-2.096874	0.098927	-0.048220	-0.021449	-0.665527	0.232910	0.651611	0.078269	-0.716425	0.309837	-0.620170
25765		8.098464	-5.066428	-2.209555	0.107507	-0.062466	-0.024691	-0.660889	0.243652	0.650146	0.078786	-0.716742	0.309141	-0.620085
25766		8.118185	-5.056408	-2.308684	0.125410	-0.071227	-0.024151	-0.658936	0.248779	0.648193	0.079631	-0.717057	0.308363	-0.620000
25767		8.237579	-5.017691	-2.195448	0.140173	-0.078615	-0.019925	-0.657471	0.257080	0.646729	0.080674	-0.717359	0.307539	-0.619925
25768		8.307527	-4.807779	-2.062739	0.139950	-0.066489	-0.016351	-0.665039	0.245361	0.652832	0.081824	-0.717550	0.306747	-0.619946
25769		8.318144	-4.770571	-2.207038	0.117259	-0.059064	-0.018291	-0.649658	0.244629	0.650635	0.082540	-0.717784	0.306041	-0.619929
25770		8.288172	-4.807951	-2.208640	0.110701	-0.052002	-0.017922	-0.657959	0.246826	0.654541	0.083254	-0.718058	0.305389	-0.619838
25771		8.306738	-4.773985	-2.170364	0.105473	-0.058707	-0.019393	-0.649170	0.246826	0.652832	0.083925	-0.718357	0.304728	-0.619727
25772		8.334278	-4.697392	-2.154387	0.097424	-0.047342	-0.015454	-0.654297	0.263428	0.653320	0.084567	-0.718624	0.304149	-0.619614
25773		8.375584	-4.713615	-2.167190	0.074392	-0.051501	-0.016656	-0.654297	0.251953	0.649658	0.085327	-0.718853	0.303650	-0.619489
25774		8.246676	-4.814745	-2.131259	0.064247	-0.029545	-0.018106	-0.659912	0.256104	0.654785	0.085708	-0.718973	0.303237	-0.619499
25775		8.177727	-5.013819	-2.151154	0.066795	-0.023012	-0.020411	-0.655273	0.258301	0.653320	0.086129	-0.719073	0.302769	-0.619554
25776		8.160039	-4.954500	-2.179912	0.088078	-0.052720	-0.024472	-0.655029	0.250732	0.641846	0.086785	-0.719328	0.302151	-0.619468
25777		8.082563	-4.998027	-2.196276	0.089146	-0.051320	-0.020513	-0.657715	0.251953	0.656250	0.087244	-0.719460	0.301620	-0.619509
25778		8.035448	-5.152722	-2.196719	0.094674	-0.048902	-0.012159	-0.651123	0.251465	0.652100	0.087836	-0.719689	0.301049	-0.619437
25779		8.062164	-5.174255	-2.249348	0.120750	-0.066019	-0.012527	-0.650879	0.255371	0.656982	0.088622	-0.719982	0.300355	-0.619321
25780		8.121632	-5.123262	-2.180661	0.154234	-0.090595	-0.020836	-0.653076	0.260986	0.650635	0.089697	-0.720434	0.299400	-0.619104
25781		8.128326	-4.946862	-2.184672	0.167680	-0.100418	-0.024907	-0.656250	0.255371	0.655518	0.090886	-0.720833	0.298356	-0.618969
25782		8.162578	-4.990868	-2.067832	0.169302	-0.097585	-0.025279	-0.647949	0.260498	0.652100	0.091931	-0.721258	0.297304	-0.618827
25783		8.384394	-4.968808	-2.022703	0.187658	-0.114573	-0.022284	-0.649902	0.257568	0.654541	0.093245	-0.721742	0.296168	-0.618610
25784		8.384022	-4.748696	-1.969776	0.153277	-0.093658	-0.012005	-0.648682	0.264648	0.657959	0.094251	-0.722131	0.295290	-0.618423
25785		8.262958	-4.813730	-2.015330	0.111472	-0.063631	-0.011316	-0.650879	0.257324	0.655273	0.095052	-0.722413	0.294625	-0.618288
25786		8.158403	-5.087464	-2.088720	0.099880	-0.051844	-0.008742	-0.640137	0.264404	0.655762	0.095581	-0.722613	0.294072	-0.618237
25787		8.087175	-5.183172	-2.068209	0.120774	-0.071551	-0.010402	-0.641357	0.264404	0.651367	0.096459	-0.722946	0.293379	-0.618040
25788		8.035953	-5.151351	-2.070195	0.125565	-0.084683	-0.013903	-0.636230	0.271240	0.660400	0.097331	-0.723297	0.292642	-0.617843
25789		7.950320	-5.168907	-2.273023	0.140961	-0.085172	-0.021247	-0.647217	0.277344	0.657715	0.098417	-0.723744	0.291753	-0.617567
25790		8.066272	-5.221341	-2.182632	0.185250	-0.111754	-0.032069	-0.641113	0.269043	0.662109	0.099783	-0.724209	0.290525	-0.617382
25791		8.041211	-5.223269	-2.126481	0.199091	-0.127653	-0.038631	-0.638428	0.267090	0.651855	0.101092	-0.724845	0.289207	-0.617041
25792		8.085600	-5.162210	-2.072368	0.209521	-0.132047	-0.033845	-0.644043	0.282959	0.652588	0.102407	-0.725395	0.287899	-0.616789
25793		8.188179	-5.021514	-2.191275	0.201150	-0.118674	-0.032038	-0.633789	0.272461	0.656982	0.103871	-0.725810	0.286593	-0.616664
25794		8.239805	-4.924030	-2.223976	0.196810	-0.119808	-0.035549	-0.644775	0.281250	0.659424	0.105124	-0.726356	0.285341	-0.616390
25795		8.255643	-5.040870	-2.245171	0.195802	-0.107783	-0.041540	-0.632324	0.283691	0.661865	0.106375	-0.726790	0.284015	-0.616277
25796		8.326186	-4.754169	-2.200233	0.180841	-0.091414	-0.039268	-0.636230	0.282227	0.655518	0.107594	-0.727226	0.282805	-0.616106
25797		8.383648	-4.574420	-2.167947	0.142166	-0.077368	-0.041296	-0.638672	0.286865	0.657715	0.108431	-0.727553	0.281804	-0.616032
25798		8.436462	-4.663027	-2.205943	0.099855	-0.058915	-0.040285	-0.637451	0.285156	0.663330	0.109023	-0.727817	0.281014	-0.615976
25799		8.375262	-4.718144	-2.269481	0.076147	-0.049877	-0.042352	-0.634033	0.283203	0.656250	0.109409	-0.728119	0.280341	-0.615858
25800		8.367684	-4.615386	-2.092744	0.053015	-0.041605	-0.043485	-0.623535	0.286865	0.656250	0.109587	-0.728362	0.279808	-0.615781
25801		8.392445	-4.658566	-2.080286	0.014799	-0.025333	-0.038051	-0.633057	0.278320	0.655029	0.109648	-0.728593	0.279514	-0.615631
25802		8.247664	-4.846219	-2.202702	-0.003122	-0.006136	-0.038007	-0.631348	0.282227	0.654541	0.109337	-0.728692	0.279352	-0.615642
25803		8.299603	-4.940869	-2.222899	0.005688	-0.009193	-0.028510	-0.631104	0.286865	0.658203	0.109229	-0.728776	0.279179	-0.615641
25804		8.190509	-4.939773	-2.276893	0.000207	-0.008029	-0.012696	-0.634033	0.282959	0.661865	0.109265	-0.728847	0.279102	-0.615585
25805		8.260353	-4.744734	-2.239980	0.004210	-0.022854	-0.004431	-0.633057	0.285156	0.662598	0.109319	-0.728991	0.279055	-0.615427
25806		8.318927	-4.761064	-2.183458	-0.019507	-0.008804	0.005150	-0.631348	0.281250	0.650391	0.109291	-0.729066	0.279188	-0.615282
25807		8.292836	-4.912706	-2.184119	-0.026320	0.008583	0.009015	-0.631104	0.284668	0.658203	0.109115	-0.728965	0.279423	-0.615327
25808		8.275353	-4.827745	-2.144741	-0.031366	0.004978	0.011092	-0.637695	0.279541	0.654785	0.109012	-0.728942	0.279668	-0.615261
25809		8.207458	-4.823001	-2.201116	-0.029799	0.004686	0.012827	-0.629639	0.278076	0.661621	0.108790	-0.728860	0.279933	-0.615277
25810		8.245436	-4.879114	-2.177142	-0.019765	0.007452	0.022162	-0.631104	0.288086	0.659180	0.108707	-0.728830	0.280222	-0.615195
25811		8.296317	-4.857938	-2.121865	-0.032505	0.018624	0.032425	-0.630371	0.271484	0.657227	0.108748	-0.728691	0.280588	-0.615186
25812		8.190069	-4.980244	-2.081157	-0.042756	0.022612	0.047220	-0.632324	0.282227	0.657715	0.108483	-0.728516	0.281197	-0.615162
25813		8.085558	-4.987658	-2.169928	-0.056503	0.024121	0.044993	-0.630371	0.274658	0.667236	0.108314	-0.728331	0.281796	-0.615137
25814		8.104923	-5.104556	-2.178652	-0.032031	0.011452	0.037361	-0.629639	0.284180	0.662354	0.108168	-0.728294	0.282266	-0.614991
25815		8.159606	-5.022815	-2.150201	-0.005647	0.000888	0.024160	-0.632812	0.283936	0.662598	0.108315	-0.728272	0.282455	-0.614904
25816		8.211540	-5.109587	-2.125575	0.019616	0.000217	0.009315	-0.636475	0.284424	0.666504	0.108512	-0.728250	0.282420	-0.614911
25817		8.291009	-4.872945	-2.188019	0.020378	0.013196	0.004187	-0.632324	0.288818	0.652832	0.108643	-0.728183	0.282357	-0.614997
25818		8.482332	-4.599556	-2.154675	-0.008853	0.028725	0.010788	-0.632324	0.278076	0.655273	0.108678	-0.727967	0.282472	-0.615193
25819		8.297403	-4.731040	-2.237429	-0.048949	0.034851	0.008078	-0.638428	0.285889	0.662109	0.108252	-0.727798	0.282840	-0.615299
25820		8.238138	-4.824485	-2.248084	-0.071722	0.041195	0.008909	-0.628662	0.275391	0.654297	0.107798	-0.727628	0.283282	-0.615376
25821		8.241684	-4.859981	-2.195773	-0.073198	0.050934	0.005219	-0.635010	0.277588	0.661133	0.107169	-0.727425	0.283785	-0.615495
25822		8.340606	-4.918935	-2.221793	-0.065783	0.052541	0.004678	-0.635010	0.285400	0.666748	0.106605	-0.727225	0.284227	-0.615625
25823		8.267183	-4.779759	-2.196368	-0.069103	0.048695	0.009442	-0.639404	0.275879	0.659424	0.106210	-0.727067	0.284671	-0.615675
25824		8.290826	-4.701741	-2.198950	-0.089997	0.055837	0.016068	-0.637451	0.274658	0.657959	0.105526	-0.726821	0.285296	-0.615794
25825		8.302762	-4.834244	-2.183451	-0.126376	0.081287	0.022143	-0.637207	0.276367	0.651611	0.104600	-0.726465	0.286170	-0.615966
25826		8.249806	-5.032288	-2.214368	-0.154311	0.091275	0.021871	-0.637207	0.281738	0.661621	0.103533	-0.726044	0.287168	-0.616179
25827		7.858923	-5.335918	-2.407378	-0.149019	0.096009	0.018661	-0.638672	0.274658	0.659668	0.102594	-0.725662	0.288107	-0.616347
25828		7.725326	-5.527353	-2.474894	-0.093261	0.059229	0.018626	-0.640869	0.271973	0.653809	0.101981	-0.725413	0.288759	-0.616436
25829		7.731970	-5.676035	-2.505462	-0.024671	0.022464	0.025398	-0.632324	0.278076	0.661621	0.101863	-0.725236	0.289072	-0.616518
25830		7.744518	-5.644725	-2.481966	0.066260	-0.020674	0.024320	-0.639160	0.276611	0.653809	0.102546	-0.725285	0.288882	-0.616437
25831		8.031614	-5.102168	-2.326289	0.129205	-0.062159	0.022756	-0.645020	0.283691	0.658691	0.103616	-0.725416	0.288313	-0.616369
25832		8.323024	-4.765842	-2.257016	0.117446	-0.050392	0.024351	-0.633057	0.279785	0.669434	0.104653	-0.725489	0.287790	-0.616352
25833		8.503729	-4.570626	-2.175811	0.080674	-0.022883	0.023222	-0.638916	0.284180	0.654053	0.105368	-0.725577	0.287543	-0.616243
25834		8.599526	-4.321798	-2.069941	0.018259	0.014683	0.027706	-0.632568	0.280762	0.666016	0.105647	-0.725390	0.287618	-0.616380
25835		8.627244	-4.182270	-2.033094	-0.060436	0.060679	0.038879	-0.632080	0.286377	0.656738	0.105375	-0.725118	0.288251	-0.616450
25836		8.502871	-4.442591	-1.996318	-0.149894	0.104479	0.047965	-0.636963	0.279297	0.649902	0.104590	-0.724619	0.289393	-0.616636
25837		8.397855	-4.729093	-1.948972	-0.205344	0.134011	0.051572	-0.638672	0.280762	0.653076	0.103295	-0.723957	0.290873	-0.616935
25838		8.140419	-4.955233	-1.935732	-0.235841	0.144793	0.050501	-0.644531	0.277588	0.649902	0.101835	-0.723284	0.292496	-0.617201
25839		7.902330	-5.348976	-1.990424	-0.235640	0.144134	0.034547	-0.642578	0.276123	0.658203	0.100249	-0.722613	0.294015	-0.617524
25840		7.662028	-5.762056	-2.216899	-0.188738	0.118139	0.007601	-0.641846	0.275391	0.658203	0.098910	-0.722168	0.295121	-0.617733
25841		7.300912	-6.136986	-2.437070	-0.110838	0.075708	-0.029917	-0.644043	0.270264	0.651123	0.097981	-0.721973	0.295569	-0.617895
25842		7.235229	-6.423891	-2.612474	0.021626	-0.001011	-0.061373	-0.647461	0.275146	0.648682	0.097804	-0.722096	0.295104	-0.618002
25843		7.495434	-6.306085	-2.570739	0.168433	-0.102207	-0.076688	-0.648193	0.267578	0.655029	0.098742	-0.722619	0.293688	-0.617915
25844		7.773470	-5.681885	-2.329748	0.270091	-0.155624	-0.079970	-0.638428	0.278076	0.656494	0.100276	-0.723378	0.291735	-0.617705
25845		8.183746	-5.136047	-2.147434	0.269393	-0.153474	-0.062532	-0.634766	0.278564	0.658447	0.102062	-0.724108	0.289872	-0.617435
25846		8.367495	-4.844658	-2.123070	0.219027	-0.111295	-0.053672	-0.642578	0.285400	0.663574	0.103471	-0.724657	0.288370	-0.617259
25847		8.390296	-4.630278	-2.109614	0.178675	-0.075453	-0.046855	-0.638672	0.285400	0.647705	0.104620	-0.725026	0.287109	-0.617219
25848		8.479434	-4.452082	-2.021338	0.147085	-0.057157	-0.034857	-0.639893	0.278809	0.662354	0.105563	-0.725216	0.286104	-0.617303
25849		8.580895	-4.348651	-2.101711	0.106947	-0.046129	-0.026359	-0.638184	0.289795	0.665039	0.106180	-0.725460	0.285394	-0.617239
25850		8.601426	-4.366421	-1.963536	0.052924	-0.010081	0.000177	-0.637695	0.283691	0.656250	0.106675	-0.725511	0.285111	-0.617224
25851		8.659627	-4.321276	-1.878989	-0.014254	0.026758	0.025349	-0.628418	0.285645	0.655029	0.106695	-0.725331	0.285380	-0.617308
25852		8.607853	-4.307179	-1.828123	-0.097545	0.075515	0.041583	-0.635498	0.280762	0.648682	0.106247	-0.724964	0.286224	-0.617426
25853		8.423680	-4.577625	-1.924486	-0.151497	0.114022	0.049292	-0.640625	0.276123	0.650146	0.105315	-0.724370	0.287427	-0.617724
25854		8.228658	-4.807548	-2.040009	-0.184910	0.119146	0.050908	-0.637695	0.275635	0.657715	0.104112	-0.723776	0.288818	-0.617976
25855		8.027165	-5.059538	-2.185108	-0.187217	0.110773	0.044753	-0.648193	0.273438	0.650635	0.102932	-0.723302	0.290175	-0.618092
25856		7.838103	-5.407884	-2.122741	-0.171317	0.083357	0.040720	-0.640381	0.280273	0.656250	0.101828	-0.722886	0.291387	-0.618191
25857		7.722981	-5.606078	-2.171982	-0.125137	0.047238	0.031476	-0.648193	0.275879	0.661133	0.101208	-0.722693	0.292261	-0.618106
25858		7.711808	-5.773241	-2.137215	-0.051915	0.008873	0.027229	-0.633545	0.276855	0.656250	0.101028	-0.722650	0.292704	-0.617977
25859		7.775577	-5.731409	-2.246526	0.022448	-0.022605	0.019855	-0.635986	0.279053	0.650879	0.101408	-0.722742	0.292722	-0.617797
25860		7.839459	-5.509885	-2.172550	0.080850	-0.052460	0.004266	-0.640381	0.280518	0.654297	0.102132	-0.722930	0.292313	-0.617653
25861		7.908560	-5.324990	-2.188772	0.122472	-0.073903	-0.017159	-0.640869	0.276123	0.653809	0.103037	-0.723242	0.291534	-0.617505
25862		8.049320	-5.148435	-2.198376	0.127633	-0.082424	-0.033042	-0.633301	0.285400	0.656006	0.103830	-0.723629	0.290646	-0.617337
25863		8.206401	-5.042136	-2.221065	0.124958	-0.077303	-0.043904	-0.642090	0.284668	0.654785	0.104682	-0.724043	0.289691	-0.617157
25864		8.229091	-4.921290	-2.213244	0.123369	-0.073980	-0.043599	-0.644043	0.281738	0.649414	0.105448	-0.724397	0.288740	-0.617057
25865		8.293555	-4.781636	-2.176395	0.124191	-0.072725	-0.036557	-0.636230	0.285156	0.657715	0.106176	-0.724690	0.287839	-0.617009
25866		8.354580	-4.764879	-2.216391	0.103447	-0.058306	-0.026836	-0.631104	0.268311	0.653809	0.106876	-0.724975	0.287113	-0.616891
25867		8.407212	-4.736859	-2.097378	0.076728	-0.035423	-0.015657	-0.640869	0.280273	0.658691	0.107194	-0.725153	0.286690	-0.616823
25868		8.451662	-4.511081	-2.112939	0.030008	-0.014132	-0.004464	-0.640625	0.283203	0.657959	0.107352	-0.725216	0.286527	-0.616798
25869		8.415222	-4.552877	-2.046593	-0.025900	0.012111	-0.000594	-0.641846	0.271484	0.657959	0.107164	-0.725178	0.286684	-0.616802
25870		8.368933	-4.745589	-2.144173	-0.061843	0.033704	0.003163	-0.640625	0.284180	0.652832	0.106573	-0.725063	0.287107	-0.616844
25871		8.313632	-4.823125	-2.112861	-0.073351	0.041530	0.001532	-0.639893	0.283691	0.654053	0.106061	-0.724884	0.287532	-0.616943
25872		8.202220	-4.830261	-2.149227	-0.079695	0.047739	0.000864	-0.627441	0.283936	0.655518	0.105501	-0.724692	0.287992	-0.617050
25873		8.091453	-5.039157	-2.221484	-0.093985	0.052128	-0.002371	-0.636963	0.283691	0.655029	0.104898	-0.724549	0.288534	-0.617069
25874		8.021318	-5.275915	-2.196086	-0.078942	0.039770	0.000463	-0.640869	0.275146	0.657715	0.104400	-0.724415	0.288983	-0.617100
25875		8.053656	-5.180608	-2.143016	-0.063154	0.026708	0.005225	-0.641357	0.279053	0.667480	0.103943	-0.724333	0.289393	-0.617081
25876		8.016506	-5.261195	-2.183570	-0.042692	0.009995	-0.001435	-0.648926	0.277344	0.655273	0.103686	-0.724380	0.289632	-0.616957
25877		7.946415	-5.279971	-2.172431	-0.002932	0.001885	-0.009754	-0.630127	0.282959	0.657715	0.103585	-0.724367	0.289590	-0.617009
25878		8.074145	-5.303633	-2.197934	0.029720	-0.004664	-0.013463	-0.636475	0.277832	0.664062	0.103826	-0.724433	0.289380	-0.616990
25879		8.142232	-5.089930	-2.154183	0.042070	-0.015144	-0.014155	-0.637451	0.283203	0.655273	0.104080	-0.724562	0.289100	-0.616926
25880		8.142308	-4.946834	-2.078264	0.020229	-0.016685	-0.012840	-0.632324	0.284424	0.656494	0.104256	-0.724659	0.288918	-0.616868
25881		8.177960	-4.980691	-2.056047	0.001702	-0.012520	-0.006868	-0.639160	0.287598	0.656250	0.104373	-0.724756	0.288878	-0.616753
25882		8.185134	-5.068529	-2.126752	0.005788	-0.012663	-0.002511	-0.636475	0.278076	0.658691	0.104547	-0.724812	0.288817	-0.616687
25883		8.216126	-4.919916	-2.173850	0.005719	-0.003273	-0.005408	-0.636719	0.281250	0.662598	0.104582	-0.724858	0.288783	-0.616642
25884		8.225226	-4.868338	-2.074165	-0.001962	-0.000939	-0.001698	-0.638428	0.281250	0.654785	0.104626	-0.724906	0.288801	-0.616570
25885		8.222941	-4.865207	-2.168848	-0.021305	0.000736	0.004393	-0.640137	0.278809	0.656006	0.104559	-0.724900	0.288954	-0.616517
25886		8.265996	-4.888397	-2.151880	-0.038159	0.006824	0.007987	-0.642090	0.281982	0.654297	0.104363	-0.724873	0.289222	-0.616456
25887		8.320271	-4.890675	-2.157202	-0.046191	0.018331	0.011968	-0.636230	0.268555	0.656006	0.104140	-0.724765	0.289551	-0.616466
25888		8.308057	-4.744264	-2.141062	-0.065420	0.040840	0.018487	-0.635498	0.280762	0.655518	0.103656	-0.724585	0.290089	-0.616506
25889		8.220777	-4.851820	-2.143426	-0.096549	0.044095	0.016564	-0.636230	0.277100	0.660400	0.103115	-0.724406	0.290739	-0.616501
25890		8.110642	-5.069619	-2.187321	-0.104159	0.050818	0.010944	-0.635986	0.282959	0.660156	0.102458	-0.724240	0.291407	-0.616491
25891		8.119172	-5.116347	-2.155183	-0.083830	0.029795	0.008341	-0.645996	0.277100	0.656738	0.102040	-0.724161	0.291918	-0.616411
25892		8.059991	-5.117730	-2.230689	-0.079496	0.024822	0.002111	-0.645752	0.276855	0.651123	0.101529	-0.724079	0.292360	-0.616382
25893		8.068805	-5.103829	-2.238018	-0.064292	0.020976	0.001005	-0.637939	0.273193	0.657715	0.101109	-0.723977	0.292716	-0.616402
25894		8.173507	-5.173191	-2.283557	-0.034267	0.016225	-0.001006	-0.637695	0.276611	0.654541	0.100881	-0.723941	0.292926	-0.616383
25895		8.298871	-5.008626	-2.160428	-0.006816	0.003843	0.001469	-0.644531	0.278320	0.661133	0.100898	-0.723919	0.292990	-0.616375
25896		8.307135	-4.730412	-2.103041	-0.037270	0.023838	0.008105	-0.635254	0.275635	0.657715	0.100723	-0.723815	0.293247	-0.616404
25897		8.421933	-4.672806	-2.134308	-0.061663	0.038622	0.011292	-0.639160	0.272461	0.652100	0.100382	-0.723661	0.293686	-0.616430
25898		8.463319	-4.712269	-2.220551	-0.108756	0.070523	0.000729	-0.649414	0.273193	0.659668	0.099570	-0.723374	0.294331	-0.616592
25899		8.360611	-4.726274	-2.273113	-0.137817	0.089671	-0.013843	-0.642090	0.270752	0.663330	0.098463	-0.723058	0.295023	-0.616809
25900		8.430592	-4.858883	-2.325338	-0.134393	0.083287	-0.023123	-0.644287	0.272705	0.660400	0.097375	-0.722839	0.295651	-0.616938
25901		8.585134	-4.727324	-2.201788	-0.126356	0.100308	-0.007680	-0.639404	0.262207	0.655762	0.096400	-0.722465	0.296333	-0.617201
25902		8.626818	-4.512371	-2.107646	-0.175704	0.142393	0.017566	-0.648438	0.265869	0.665039	0.095070	-0.721859	0.297489	-0.617561
25903		8.247843	-4.523275	-2.279095	-0.255155	0.184236	0.031766	-0.640869	0.259766	0.651611	0.093283	-0.721084	0.299132	-0.617945
25904		8.000954	-4.814092	-2.407415	-0.283490	0.190388	0.041045	-0.648193	0.260742	0.656738	0.091323	-0.720239	0.301014	-0.618310
25905		8.071248	-4.987564	-2.410303	-0.269257	0.174467	0.041531	-0.650391	0.259521	0.656250	0.089521	-0.719468	0.302787	-0.618604
25906		8.148422	-4.821387	-2.324510	-0.257564	0.165614	0.041758	-0.645508	0.254395	0.652344	0.087824	-0.718727	0.304490	-0.618873
25907		8.266013	-4.766668	-2.256958	-0.243809	0.151493	0.044583	-0.652832	0.259521	0.656494	0.086244	-0.718043	0.306147	-0.619073
25908		8.536787	-4.657558	-2.134444	-0.249306	0.166080	0.048874	-0.657715	0.255615	0.652100	0.084679	-0.717269	0.307837	-0.619348
25909		8.555881	-4.441235	-2.058702	-0.310451	0.208649	0.057797	-0.660400	0.247559	0.654053	0.082646	-0.716265	0.309922	-0.619744
25910		8.373681	-4.507920	-2.110883	-0.376139	0.247097	0.058700	-0.663818	0.245361	0.654053	0.080079	-0.715120	0.312375	-0.620172
25911		8.072490	-4.987865	-2.239538	-0.410767	0.262865	0.054002	-0.667969	0.241211	0.647949	0.077251	-0.713919	0.314978	-0.620597
25912		7.926049	-5.252667	-2.284217	-0.373161	0.227239	0.036926	-0.664062	0.246094	0.646484	0.074629	-0.712883	0.317262	-0.620945
25913		7.749777	-5.415868	-2.314608	-0.317770	0.192211	0.022428	-0.666748	0.241211	0.644775	0.072450	-0.712024	0.319153	-0.621220
25914		7.730022	-5.671644	-2.343759	-0.260049	0.163836	0.004057	-0.663330	0.235596	0.646729	0.070570	-0.711315	0.320623	-0.621492
25915		7.790970	-5.727931	-2.375456	-0.190813	0.124502	-0.009171	-0.669678	0.235352	0.649170	0.069135	-0.710834	0.321639	-0.621678
25916		7.775673	-5.597758	-2.314720	-0.129118	0.085063	-0.011692	-0.672852	0.232178	0.637451	0.068167	-0.710524	0.322287	-0.621803
25917		7.834335	-5.448917	-2.245548	-0.093661	0.062006	-0.003988	-0.675293	0.231689	0.649658	0.067449	-0.710224	0.322813	-0.621952
25918		7.825343	-5.363018	-2.245188	-0.090522	0.064503	-0.002318	-0.667969	0.232422	0.643555	0.066794	-0.709969	0.323303	-0.622060
25919		7.703155	-5.480813	-2.356612	-0.059823	0.045273	-0.013252	-0.670410	0.229980	0.649902	0.066336	-0.709811	0.323584	-0.622143
25920		7.783339	-5.581289	-2.330106	-0.016796	0.006246	-0.021934	-0.672119	0.225586	0.648682	0.066193	-0.709889	0.323552	-0.622085
25921		7.869669	-5.378081	-2.316163	0.051475	-0.034464	-0.033499	-0.671387	0.235352	0.645264	0.066460	-0.710167	0.323080	-0.621985
25922		7.970241	-5.226797	-2.167108	0.093827	-0.060594	-0.038306	-0.678711	0.233643	0.648193	0.067090	-0.710527	0.322363	-0.621878
25923		8.077664	-5.293243	-2.209922	0.115100	-0.059903	-0.045733	-0.674805	0.236084	0.641113	0.067770	-0.710887	0.321479	-0.621851
25924		8.197013	-5.200616	-2.246077	0.128737	-0.067115	-0.054519	-0.668945	0.227295	0.650391	0.068499	-0.711261	0.320499	-0.621849
25925		8.258502	-4.959180	-2.149620	0.136129	-0.071696	-0.054979	-0.666504	0.230957	0.646240	0.069256	-0.711746	0.319439	-0.621756
25926		8.103210	-4.801573	-2.123431	0.120153	-0.059249	-0.050899	-0.663574	0.226318	0.641113	0.069916	-0.712136	0.318511	-0.621711
25927		7.849256	-5.004112	-2.127587	0.100213	-0.051807	-0.048490	-0.662354	0.236328	0.655762	0.070393	-0.712479	0.317723	-0.621667
25928		7.748877	-5.404730	-2.260704	0.128053	-0.094535	-0.054096	-0.670654	0.229004	0.647705	0.071255	-0.713108	0.316682	-0.621379
25929		8.107576	-5.351056	-2.279978	0.206206	-0.136444	-0.047089	-0.661377	0.233887	0.657959	0.072599	-0.713824	0.315281	-0.621114
25930		8.423061	-5.001666	-2.258068	0.250006	-0.155907	-0.048184	-0.658203	0.237305	0.645508	0.074336	-0.714687	0.313599	-0.620768
25931		8.611962	-4.625743	-2.002251	0.217709	-0.125769	-0.044904	-0.662598	0.243896	0.647949	0.075780	-0.715322	0.312180	-0.620577
25932		8.595812	-4.459675	-1.977811	0.136943	-0.074255	-0.043842	-0.667480	0.239258	0.653320	0.076639	-0.715719	0.311212	-0.620500
25933		8.486976	-4.581211	-2.103816	0.081311	-0.030863	-0.040961	-0.664307	0.243896	0.642090	0.077028	-0.715949	0.310540	-0.620523
25934		8.229499	-4.735377	-2.194765	0.065647	-0.018295	-0.034692	-0.669434	0.241943	0.649658	0.077318	-0.716036	0.310054	-0.620629
25935		8.122355	-4.792287	-2.217135	0.085095	-0.051920	-0.038430	-0.656494	0.237305	0.645264	0.077788	-0.716332	0.309382	-0.620564
25936		8.005344	-4.974356	-2.122121	0.105440	-0.075907	-0.038817	-0.663818	0.239746	0.652100	0.078422	-0.716762	0.308601	-0.620377
25937		8.392867	-5.058372	-2.053192	0.145613	-0.084585	-0.041992	-0.659424	0.242188	0.653320	0.079314	-0.717228	0.307560	-0.620243
25938		8.422578	-4.760865	-2.098411	0.127309	-0.053719	-0.033519	-0.663330	0.245117	0.652100	0.080086	-0.717535	0.306681	-0.620223
25939		8.251612	-4.738115	-2.242859	0.110540	-0.039834	-0.047789	-0.663330	0.238281	0.657715	0.080643	-0.717791	0.305821	-0.620279
25940		8.171659	-4.951904	-2.350763	0.119601	-0.049071	-0.040454	-0.666992	0.242188	0.651367	0.081281	-0.718121	0.304913	-0.620261
25941		8.325797	-4.849825	-2.204562	0.120734	-0.052230	-0.025263	-0.655762	0.248047	0.648193	0.081998	-0.718368	0.304125	-0.620268
25942		8.351245	-4.725974	-2.036493	0.093580	-0.047752	-0.013102	-0.654297	0.243164	0.649658	0.082657	-0.718580	0.303575	-0.620204
25943		8.279942	-4.734382	-1.920548	0.070172	-0.043145	-0.008831	-0.656250	0.251709	0.649414	0.083153	-0.718798	0.303157	-0.620089
25944		8.217792	-4.887228	-2.072399	0.070741	-0.031482	-0.007489	-0.661133	0.239502	0.654053	0.083678	-0.718923	0.302766	-0.620065
25945		8.222125	-4.996545	-2.169708	0.094881	-0.028361	-0.014825	-0.656738	0.247559	0.652588	0.084209	-0.719075	0.302167	-0.620109
25946		8.137389	-4.912075	-2.316543	0.109408	-0.045674	-0.023289	-0.658203	0.253418	0.646240	0.084886	-0.719313	0.301448	-0.620090
25947		8.038459	-4.854145	-2.288185	0.120861	-0.066689	-0.030313	-0.656494	0.255859	0.656738	0.085654	-0.719613	0.300654	-0.620022
25948		8.383526	-4.922429	-2.208793	0.135598	-0.091697	-0.024572	-0.658447	0.262939	0.649170	0.086652	-0.720077	0.299750	-0.619783
25949		8.458196	-4.705369	-2.055652	0.103806	-0.076941	-0.015265	-0.655273	0.251465	0.652588	0.087473	-0.720393	0.299128	-0.619601
25950		8.249546	-4.708292	-2.051002	0.063717	-0.038215	-0.007736	-0.655273	0.255371	0.652588	0.087926	-0.720574	0.298747	-0.619510
25951		8.280019	-4.991620	-2.110037	0.071699	-0.029345	0.003546	-0.650635	0.260498	0.655762	0.088483	-0.720665	0.298404	-0.619489
25952		8.351806	-5.056092	-2.079351	0.098314	-0.039101	0.013899	-0.655762	0.262207	0.657715	0.089332	-0.720782	0.297968	-0.619442
25953		8.331520	-4.739504	-2.089527	0.097908	-0.055080	0.018622	-0.651855	0.254639	0.645996	0.090234	-0.720962	0.297544	-0.619305
25954		8.252788	-4.672504	-2.087416	0.063549	-0.036896	0.012006	-0.651123	0.252441	0.647705	0.090756	-0.721051	0.297316	-0.619235
25955		8.165099	-4.934276	-2.155317	0.055873	-0.024757	-0.001817	-0.646240	0.254883	0.657959	0.091116	-0.721135	0.297039	-0.619217
25956		8.260250	-5.075416	-2.093317	0.094809	-0.043468	-0.005528	-0.655762	0.264648	0.655273	0.091798	-0.721362	0.296474	-0.619122
25957		8.204416	-4.950501	-2.101949	0.100842	-0.043369	-0.011908	-0.644287	0.269775	0.651367	0.092506	-0.721533	0.295872	-0.619106
25958		8.157112	-4.938785	-2.101840	0.110015	-0.061491	-0.017342	-0.647705	0.264648	0.646973	0.093330	-0.721803	0.295197	-0.618990
25959		8.161602	-5.033499	-2.092312	0.122741	-0.067471	-0.021039	-0.647705	0.264404	0.654785	0.094156	-0.722079	0.294445	-0.618901
25960		8.187825	-5.016174	-2.195279	0.134035	-0.068122	-0.018095	-0.647949	0.268555	0.656494	0.095082	-0.722385	0.293610	-0.618799
25961		8.158159	-4.873577	-2.154386	0.143533	-0.079931	-0.021378	-0.651123	0.263916	0.651611	0.096098	-0.722751	0.292694	-0.618649
25962		8.155661	-4.897676	-2.166580	0.133932	-0.081693	-0.021762	-0.657715	0.266846	0.652344	0.096988	-0.723105	0.291843	-0.618498
25963		8.196940	-5.009783	-2.183350	0.128481	-0.076339	-0.014421	-0.646729	0.261230	0.656250	0.097863	-0.723395	0.291071	-0.618385
25964		8.342732	-5.007112	-2.140122	0.142699	-0.075572	-0.008953	-0.639160	0.272217	0.650635	0.098843	-0.723720	0.290229	-0.618245
25965		8.386100	-4.683462	-2.071411	0.129206	-0.072220	-0.000070	-0.642090	0.266602	0.659912	0.099845	-0.723982	0.289548	-0.618096
25966		8.361519	-4.638795	-2.085401	0.075136	-0.043207	-0.004403	-0.647705	0.270264	0.653809	0.100398	-0.724204	0.289093	-0.617960
25967		8.280714	-4.821027	-2.221428	0.056300	-0.026568	-0.009695	-0.645020	0.269043	0.652344	0.100752	-0.724310	0.288751	-0.617937
25968		8.332241	-4.893734	-2.166115	0.060426	-0.021416	-0.007297	-0.639893	0.276611	0.655518	0.101122	-0.724384	0.288410	-0.617950
25969		8.293993	-4.808662	-2.053175	0.063648	-0.026032	-0.008057	-0.646729	0.274414	0.656982	0.101589	-0.724496	0.288035	-0.617917
25970		8.162440	-4.827324	-2.145127	0.036468	-0.022038	-0.008802	-0.646484	0.267822	0.647461	0.101843	-0.724606	0.287791	-0.617859
25971		8.103041	-5.099973	-2.290243	0.032940	-0.008910	-0.024508	-0.648438	0.275391	0.654053	0.101889	-0.724653	0.287516	-0.617925
25972		8.019935	-5.306758	-2.355628	0.073261	-0.026888	-0.035069	-0.643066	0.279053	0.648438	0.102232	-0.724798	0.286933	-0.617969
25973		8.009517	-5.231958	-2.327448	0.107646	-0.051236	-0.034177	-0.645996	0.274902	0.650635	0.102865	-0.725016	0.286183	-0.617956
25974		8.151296	-5.062692	-2.210254	0.130869	-0.069879	-0.027838	-0.648193	0.272217	0.657227	0.103679	-0.725306	0.285325	-0.617877
25975		8.094062	-4.999938	-2.338424	0.120841	-0.059478	-0.020482	-0.640137	0.270508	0.667480	0.104428	-0.725563	0.284545	-0.617808
25976		8.287598	-4.967909	-2.190289	0.127736	-0.063387	-0.016826	-0.634766	0.277588	0.656250	0.105273	-0.725899	0.283712	-0.617654
25977		8.299379	-4.804585	-2.123367	0.117962	-0.062208	-0.010706	-0.648438	0.278809	0.652100	0.106110	-0.726167	0.283011	-0.617517
25978		8.354819	-4.663760	-2.037927	0.087755	-0.041099	-0.004189	-0.636963	0.280762	0.656494	0.106702	-0.726280	0.282536	-0.617499
25979		8.247192	-4.764991	-2.000413	0.047162	-0.024180	0.002371	-0.644775	0.278076	0.650635	0.107087	-0.726374	0.282310	-0.617425
25980		8.210162	-4.879910	-2.018123	0.033895	-0.025718	0.005094	-0.646973	0.276123	0.655762	0.107353	-0.726439	0.282183	-0.617361
25981		7.930127	-5.069115	-2.175086	0.027072	-0.032322	0.006408	-0.641602	0.282959	0.656738	0.107590	-0.726562	0.282076	-0.617224
25982		7.686447	-5.412438	-2.228499	0.079310	-0.069579	0.006423	-0.637451	0.287842	0.649414	0.108289	-0.726834	0.281668	-0.616968
25983		7.795146	-5.588217	-2.228540	0.153387	-0.115646	0.004760	-0.634521	0.285156	0.649170	0.109553	-0.727244	0.280854	-0.616632
25984		8.216395	-5.345980	-2.137239	0.215336	-0.137588	-0.001519	-0.632080	0.290283	0.660156	0.111184	-0.727731	0.279667	-0.616306
25985		8.323148	-4.902860	-2.042641	0.200609	-0.108522	-0.006621	-0.636719	0.288574	0.662354	0.112673	-0.728134	0.278523	-0.616076
25986		8.339654	-4.875479	-2.067906	0.142642	-0.057396	-0.010461	-0.635986	0.291992	0.659180	0.113635	-0.728338	0.277693	-0.616034
25987		8.227794	-5.034918	-2.172444	0.102190	-0.046536	-0.007955	-0.633301	0.295654	0.662842	0.114347	-0.728501	0.277102	-0.615976
25988		8.125053	-5.022991	-2.167598	0.093670	-0.049869	-0.002010	-0.642334	0.286621	0.658203	0.115074	-0.728691	0.276580	-0.615850
25989		8.169932	-5.075235	-2.207143	0.083620	-0.045575	0.000173	-0.637451	0.294434	0.651367	0.115643	-0.728837	0.276133	-0.615771
25990		8.163638	-5.080067	-2.219622	0.084593	-0.042939	-0.008413	-0.634033	0.290527	0.664307	0.116212	-0.728958	0.275647	-0.615738
25991		8.411713	-4.937296	-2.049751	0.089308	-0.034334	-0.005238	-0.633789	0.296143	0.649658	0.116802	-0.729089	0.275145	-0.615696
25992		8.399333	-4.561469	-2.155320	0.038919	-0.007497	-0.006525	-0.636475	0.292236	0.658691	0.117026	-0.729069	0.274943	-0.615768
25993		8.423321	-4.608385	-2.137745	-0.008532	0.022903	-0.005279	-0.630615	0.296631	0.655518	0.116878	-0.728973	0.275003	-0.615882
25994		8.399607	-4.765649	-2.193869	-0.060739	0.047705	0.004269	-0.627930	0.286865	0.657715	0.116444	-0.728775	0.275421	-0.616012
25995		8.349147	-4.813345	-2.084506	-0.091047	0.072147	-0.001489	-0.636963	0.292725	0.661377	0.115688	-0.728521	0.275991	-0.616201
25996		8.193929	-4.923957	-2.209690	-0.115846	0.087819	-0.002299	-0.630127	0.286133	0.656982	0.114776	-0.728200	0.276675	-0.616443
25997		8.084875	-4.997371	-2.263464	-0.111476	0.087889	-0.001244	-0.638184	0.290039	0.652344	0.113869	-0.727878	0.277365	-0.616681
25998		8.065370	-5.260413	-2.351087	-0.076935	0.062443	0.002506	-0.638672	0.290527	0.653076	0.113267	-0.727609	0.277862	-0.616886
25999		8.032248	-5.247915	-2.291034	-0.034085	0.037081	0.001394	-0.629639	0.288330	0.656250	0.112987	-0.727435	0.278107	-0.617033
26000		8.100197	-5.098127	-2.180155	-0.009687	0.020149	0.002264	-0.633789	0.284912	0.654785	0.112907	-0.727354	0.278235	-0.617085
26001		8.043366	-4.994285	-2.205440	-0.017471	0.030850	0.000895	-0.637451	0.290039	0.655029	0.112716	-0.727219	0.278403	-0.617203
26002		8.077503	-4.952816	-2.362602	0.010084	0.027961	0.010634	-0.634521	0.290039	0.652832	0.112780	-0.727040	0.278472	-0.617370
26003		8.365485	-4.873500	-2.129657	0.017760	0.015967	0.032891	-0.642822	0.284912	0.658447	0.113034	-0.726864	0.278633	-0.617459
26004		8.474018	-4.604736	-2.007476	-0.031454	0.020287	0.042383	-0.637695	0.291260	0.656494	0.112982	-0.726701	0.279097	-0.617450
26005		8.407867	-4.533472	-1.885635	-0.078662	0.049714	0.042254	-0.635986	0.296143	0.648193	0.112624	-0.726428	0.279833	-0.617505
26006		8.314678	-4.851991	-1.941456	-0.117111	0.084721	0.027741	-0.635498	0.289795	0.657715	0.111909	-0.726015	0.280704	-0.617725
26007		8.081449	-5.144541	-1.951120	-0.112588	0.078749	0.015164	-0.633545	0.284424	0.652832	0.111145	-0.725697	0.281482	-0.617883
26008		7.846509	-5.293999	-2.126652	-0.079592	0.041187	0.007763	-0.638184	0.287109	0.651855	0.110600	-0.725551	0.282022	-0.617905
26009		7.898758	-5.506741	-2.239857	-0.027510	0.004695	0.019364	-0.643799	0.286621	0.651367	0.110532	-0.725505	0.282317	-0.617837
26010		7.953027	-5.494278	-2.294043	0.018742	-0.007452	0.016846	-0.633789	0.291260	0.654053	0.110747	-0.725473	0.282335	-0.617828
26011		8.042094	-5.279234	-2.154085	0.034824	-0.003495	0.013524	-0.647461	0.289795	0.657959	0.111078	-0.725432	0.282275	-0.617843
26012		8.207361	-5.112515	-2.094215	0.032348	0.019204	0.016382	-0.640869	0.293213	0.655762	0.111323	-0.725263	0.282238	-0.618015
26013		8.238909	-5.099617	-2.086818	0.012526	0.034245	0.017565	-0.640381	0.287598	0.649414	0.111447	-0.725034	0.282336	-0.618217
26014		8.253874	-4.978861	-2.027653	-0.003846	0.038452	0.024152	-0.632812	0.291992	0.648682	0.111453	-0.724771	0.282569	-0.618417
26015		8.311079	-4.702729	-2.071406	-0.038716	0.049041	0.027361	-0.632812	0.295166	0.655029	0.111280	-0.724485	0.283025	-0.618575
26016		8.361691	-4.802781	-2.086075	-0.063925	0.060493	0.013950	-0.645264	0.288574	0.655273	0.110885	-0.724213	0.283539	-0.618729
26017		8.271947	-4.847049	-2.075093	-0.066435	0.060456	-0.003274	-0.644287	0.293945	0.647949	0.110328	-0.723974	0.283939	-0.618925
26018		8.165318	-4.822030	-2.209290	-0.069700	0.067188	-0.007767	-0.645020	0.288086	0.652344	0.109751	-0.723690	0.284322	-0.619184
26019		8.158512	-4.972417	-2.133058	-0.065836	0.058485	0.010048	-0.636963	0.289062	0.649414	0.109278	-0.723423	0.284797	-0.619361
26020		8.231519	-5.054119	-2.112884	-0.069857	0.054118	0.030572	-0.643555	0.288818	0.647217	0.108919	-0.723137	0.285431	-0.619466
26021		8.334578	-4.834110	-1.929545	-0.081522	0.067748	0.052860	-0.633789	0.294678	0.654541	0.108563	-0.722723	0.286252	-0.619633
26022		8.337343	-4.747362	-1.972859	-0.123754	0.093268	0.061681	-0.638184	0.276123	0.649902	0.107997	-0.722224	0.287391	-0.619787
26023		8.302062	-4.879024	-1.924086	-0.157503	0.114811	0.061356	-0.643311	0.279785	0.649658	0.107048	-0.721641	0.288738	-0.620004
26024		8.171387	-4.937196	-1.963053	-0.171988	0.116994	0.051621	-0.637939	0.281982	0.644775	0.105981	-0.721073	0.290080	-0.620222
26025		8.160375	-5.029638	-2.023305	-0.157754	0.108480	0.049528	-0.642090	0.286621	0.647461	0.105039	-0.720531	0.291334	-0.620424
26026		8.090314	-5.186397	-2.117647	-0.142874	0.102399	0.046352	-0.651855	0.286865	0.646240	0.104219	-0.720013	0.292470	-0.620629
26027		8.090373	-5.255628	-2.045151	-0.120362	0.088745	0.041603	-0.644287	0.287354	0.645996	0.103538	-0.719543	0.293419	-0.620841
26028		8.049722	-5.221916	-1.926498	-0.125981	0.080921	0.029986	-0.637451	0.279053	0.644287	0.102802	-0.719154	0.294344	-0.620976
26029		7.945888	-5.344223	-1.954291	-0.133570	0.083537	0.018935	-0.646973	0.280762	0.646484	0.101918	-0.718795	0.295277	-0.621094
26030		7.857945	-5.555460	-2.100053	-0.094610	0.072117	0.002875	-0.647461	0.273438	0.648438	0.101221	-0.718494	0.295875	-0.621272
26031		7.805205	-5.645523	-2.100279	-0.030333	0.036927	-0.008020	-0.647949	0.276367	0.650879	0.100898	-0.718358	0.296063	-0.621392
26032		7.806926	-5.575530	-2.168343	0.022358	0.006243	-0.013457	-0.650391	0.269775	0.648193	0.100961	-0.718353	0.295919	-0.621456
26033		7.946463	-5.383556	-2.141779	0.046059	-0.016084	-0.018412	-0.653809	0.278809	0.650635	0.101148	-0.718451	0.295608	-0.621460
26034		8.026975	-5.294377	-2.099706	0.053044	-0.024114	-0.013683	-0.648193	0.288574	0.646240	0.101473	-0.718567	0.295262	-0.621438
26035		8.111783	-5.134959	-2.115274	0.041842	-0.022346	-0.018796	-0.648926	0.280762	0.649902	0.101764	-0.718683	0.294940	-0.621409
26036		8.192599	-5.041178	-2.168654	0.031286	-0.020334	-0.019866	-0.644531	0.278564	0.647217	0.101930	-0.718814	0.294684	-0.621351
26037		8.172641	-4.972899	-2.076904	0.035317	-0.020385	-0.020646	-0.655029	0.280273	0.645020	0.102105	-0.718944	0.294415	-0.621300
26038		8.224411	-4.918706	-2.037595	0.029550	-0.008832	-0.015177	-0.650879	0.280029	0.650635	0.102240	-0.718987	0.294180	-0.621340
26039		8.258010	-4.936931	-2.075885	0.016442	0.000027	-0.006270	-0.651611	0.273193	0.644531	0.102326	-0.718992	0.294095	-0.621360
26040		8.239976	-4.943787	-2.130512	0.003456	-0.003433	-0.001765	-0.650635	0.286621	0.645752	0.102319	-0.719005	0.294100	-0.621343
26041		8.258554	-4.909829	-2.001513	-0.008223	0.000033	0.000540	-0.646484	0.287354	0.643066	0.102332	-0.718998	0.294166	-0.621319
26042		8.194113	-4.970974	-1.988254	-0.020771	0.010387	0.000021	-0.650391	0.277588	0.647949	0.102249	-0.718946	0.294309	-0.621324
26043		8.108394	-5.113399	-2.035134	-0.033083	0.017665	0.003551	-0.648438	0.279297	0.648193	0.102030	-0.718875	0.294554	-0.621327
26044		8.024876	-5.241914	-2.038156	-0.025193	0.013252	0.006108	-0.645020	0.283203	0.644287	0.101898	-0.718814	0.294773	-0.621315
26045		7.998645	-5.328747	-2.018541	0.005562	-0.000353	0.001007	-0.645264	0.285645	0.649658	0.101985	-0.718801	0.294790	-0.621308
26046		8.001035	-5.311655	-2.067293	0.040504	-0.016025	-0.003897	-0.639160	0.282715	0.645752	0.102311	-0.718862	0.294587	-0.621280
26047		7.977783	-5.321530	-2.135062	0.070828	-0.039202	-0.009115	-0.647217	0.281006	0.642822	0.102832	-0.719029	0.294194	-0.621187
26048		8.065889	-5.161902	-2.137385	0.091507	-0.050538	-0.017486	-0.645996	0.280029	0.652344	0.103434	-0.719241	0.293610	-0.621117
26049		8.039840	-5.154157	-2.112721	0.095777	-0.047258	-0.024535	-0.641602	0.281738	0.649902	0.104012	-0.719476	0.292982	-0.621046
26050		8.055714	-5.283715	-2.176362	0.109475	-0.050859	-0.022112	-0.648193	0.286377	0.647705	0.104702	-0.719707	0.292301	-0.620982
26051		8.182975	-5.095078	-2.025207	0.129246	-0.080553	-0.018210	-0.644775	0.282471	0.646240	0.105615	-0.720048	0.291487	-0.620816
26052		8.272505	-4.859416	-1.870245	0.113167	-0.070052	-0.009785	-0.639648	0.282471	0.644043	0.106421	-0.720329	0.290828	-0.620660
26053		8.225735	-4.918254	-1.956152	0.072311	-0.038674	-0.000282	-0.642578	0.280762	0.646973	0.106952	-0.720461	0.290475	-0.620581
26054		8.213973	-5.012088	-2.016945	0.058260	-0.026075	0.007852	-0.647217	0.289551	0.652588	0.107392	-0.720526	0.290252	-0.620534
26055		8.199112	-4.993405	-1.983035	0.039282	-0.014860	0.013836	-0.637939	0.291260	0.645752	0.107767	-0.720537	0.290154	-0.620503
26056		8.233918	-4.943330	-1.923625	0.023337	-0.006187	0.012956	-0.637451	0.294189	0.645020	0.108036	-0.720511	0.290156	-0.620484
26057		8.246577	-4.937144	-1.974842	-0.003879	0.013529	0.009270	-0.646240	0.291016	0.646240	0.108090	-0.720414	0.290290	-0.620525
26058		8.241199	-4.967053	-2.061640	-0.021002	0.013399	0.001230	-0.641113	0.288086	0.645508	0.107970	-0.720350	0.290442	-0.620550
26059		8.221301	-4.990230	-2.066842	-0.033777	0.017574	-0.010738	-0.645020	0.286133	0.644775	0.107691	-0.720310	0.290612	-0.620565
26060		8.161995	-5.039028	-2.071060	-0.031897	0.008238	-0.019562	-0.648926	0.284912	0.645996	0.107386	-0.720335	0.290699	-0.620549
26061		8.115612	-5.073999	-2.066515	-0.034147	0.009169	-0.018070	-0.640381	0.282715	0.649658	0.107064	-0.720352	0.290798	-0.620537
26062		8.137753	-5.105553	-2.023440	-0.030199	0.005925	-0.016823	-0.647705	0.283203	0.646484	0.106782	-0.720398	0.290919	-0.620476
26063		8.083783	-5.157669	-2.076732	-0.038318	0.011163	-0.013072	-0.648193	0.286133	0.648193	0.106455	-0.720399	0.291078	-0.620457
26064		8.068572	-5.237531	-2.030554	-0.035015	0.005501	-0.010694	-0.647461	0.284668	0.649658	0.106194	-0.720422	0.291225	-0.620406
26065		7.982398	-5.341481	-2.129290	-0.025178	-0.002115	-0.006511	-0.644531	0.290283	0.646484	0.106028	-0.720469	0.291348	-0.620322
26066		8.024456	-5.260765	-2.140582	0.007612	-0.013759	-0.006908	-0.645752	0.289062	0.650391	0.106123	-0.720539	0.291283	-0.620255
26067		8.135132	-5.087827	-2.171561	0.037909	-0.027731	-0.004777	-0.653564	0.286621	0.647217	0.106436	-0.720657	0.291068	-0.620165
26068		8.238613	-5.023921	-2.106160	0.037173	-0.016559	-0.011752	-0.641357	0.282227	0.650879	0.106654	-0.720722	0.290797	-0.620180
26069		8.237742	-4.920611	-2.134787	0.018073	-0.006337	-0.014069	-0.641846	0.288330	0.640625	0.106707	-0.720779	0.290673	-0.620162
26070		8.232808	-4.943194	-2.159999	-0.000697	0.004020	-0.014365	-0.645264	0.288574	0.650146	0.106654	-0.720773	0.290622	-0.620201
26071		8.199332	-4.938828	-2.070610	-0.020924	0.007387	-0.013436	-0.636230	0.295166	0.648682	0.106476	-0.720784	0.290690	-0.620188
26072		8.220138	-4.933567	-2.078369	-0.034136	0.013232	-0.012822	-0.646973	0.287842	0.649902	0.106260	-0.720775	0.290850	-0.620161
26073		8.161538	-5.047809	-2.104001	-0.022446	0.022248	-0.015002	-0.642822	0.288086	0.645752	0.106027	-0.720711	0.290923	-0.620240
26074		8.077837	-5.221911	-2.033943	-0.018309	0.021090	-0.007518	-0.647217	0.287842	0.643555	0.105869	-0.720628	0.291024	-0.620317
26075		8.100456	-5.170958	-2.110033	-0.028603	0.015798	0.000668	-0.644531	0.290039	0.656006	0.105697	-0.720552	0.291206	-0.620348
26076		8.070625	-5.076986	-2.066785	-0.029708	0.010953	0.009129	-0.641357	0.276367	0.648193	0.105596	-0.720509	0.291469	-0.620292
26077		8.152371	-5.065149	-2.081582	-0.032124	0.011811	0.009612	-0.643066	0.275879	0.649170	0.105403	-0.720458	0.291766	-0.620244
26078		8.201292	-5.093851	-2.017171	-0.028112	0.011836	0.003620	-0.637207	0.279297	0.641113	0.105199	-0.720418	0.292005	-0.620213
26079		8.098726	-5.097026	-2.122473	-0.017982	0.012905	-0.005633	-0.642090	0.292236	0.654053	0.105033	-0.720372	0.292133	-0.620234
26080		8.185664	-5.046684	-2.080408	-0.006239	-0.001929	-0.010250	-0.646240	0.289551	0.645996	0.105024	-0.720418	0.292147	-0.620176
26081		8.134088	-5.055249	-2.109007	-0.014638	0.000183	-0.015853	-0.645752	0.280518	0.655029	0.104908	-0.720455	0.292148	-0.620152
26082		8.072463	-5.092121	-2.083920	-0.012627	-0.004001	-0.016316	-0.645996	0.288086	0.648926	0.104764	-0.720537	0.292165	-0.620072
26083		8.157431	-5.120710	-2.109331	0.005363	-0.010658	-0.010585	-0.636963	0.280518	0.653076	0.104818	-0.720607	0.292092	-0.620017
26084		8.169815	-5.041742	-2.077849	0.011752	-0.008586	-0.004522	-0.647461	0.289307	0.643066	0.104903	-0.720666	0.292074	-0.619943
26085		8.212480	-4.940045	-2.075495	0.005487	-0.009774	0.002929	-0.647705	0.283447	0.647461	0.105028	-0.720682	0.292064	-0.619907
26086		8.187443	-4.972138	-2.157366	-0.007162	-0.002631	0.004483	-0.642090	0.283936	0.647705	0.105033	-0.720682	0.292151	-0.619865
26087		8.193621	-5.013337	-2.154537	-0.008604	0.004943	0.005929	-0.643311	0.283203	0.648438	0.105027	-0.720646	0.292278	-0.619849
26088		8.237746	-5.014949	-2.122518	-0.009391	0.008621	0.011343	-0.634033	0.278809	0.650635	0.105031	-0.720579	0.292443	-0.619848
26089		8.235842	-4.916220	-2.057612	-0.016568	0.008147	0.010660	-0.648193	0.281494	0.646729	0.104974	-0.720538	0.292682	-0.619793
26090		8.216965	-4.864567	-2.152505	-0.026875	0.011239	0.013765	-0.640381	0.282471	0.648682	0.104863	-0.720460	0.292937	-0.619781
26091		8.183820	-4.997861	-2.170071	-0.027939	0.024373	0.004825	-0.645996	0.282715	0.651123	0.104683	-0.720348	0.293181	-0.619827
26092		8.200006	-5.034721	-2.138232	-0.016501	0.017656	0.003515	-0.637451	0.283447	0.648193	0.104578	-0.720263	0.293340	-0.619868
26093		8.372918	-4.847324	-2.110627	-0.023893	0.028406	0.009293	-0.639648	0.279785	0.647461	0.104446	-0.720117	0.293601	-0.619936
26094		8.344575	-4.758301	-2.126596	-0.070066	0.049934	0.009266	-0.648193	0.283936	0.643066	0.103962	-0.719899	0.294116	-0.620026
26095		8.187036	-4.938597	-2.110722	-0.096013	0.063943	0.008256	-0.651367	0.283691	0.651611	0.103300	-0.719616	0.294728	-0.620175
26096		8.185184	-4.975398	-2.072926	-0.104899	0.061694	-0.000525	-0.643799	0.283936	0.650635	0.102548	-0.719388	0.295338	-0.620274
26097		8.159480	-5.003609	-2.167103	-0.101992	0.077919	-0.013325	-0.646240	0.274902	0.651367	0.101724	-0.719109	0.295892	-0.620470
26098		8.143604	-5.090445	-2.100088	-0.102966	0.077617	-0.024651	-0.645264	0.273193	0.652344	0.100789	-0.718864	0.296393	-0.620666
26099		8.002082	-5.180207	-2.240543	-0.093302	0.065861	-0.026779	-0.645264	0.278809	0.649902	0.099931	-0.718682	0.296830	-0.620808
26100		8.019741	-5.225343	-2.253279	-0.059616	0.045323	-0.024236	-0.645508	0.288574	0.647949	0.099378	-0.718562	0.297078	-0.620917
26101		8.085370	-5.184798	-2.185172	-0.048590	0.022620	-0.015353	-0.647949	0.277100	0.647217	0.099051	-0.718518	0.297285	-0.620920
26102		8.011365	-5.152040	-2.041217	-0.050698	0.023475	-0.007675	-0.649902	0.277100	0.644775	0.098686	-0.718457	0.297558	-0.620919
26103		8.067512	-5.207678	-2.099238	-0.060300	0.036197	-0.002509	-0.650635	0.276611	0.645020	0.098259	-0.718317	0.297913	-0.620978
26104		8.101211	-5.188944	-2.096600	-0.055208	0.029555	-0.009858	-0.651611	0.270508	0.647949	0.097841	-0.718226	0.298192	-0.621016
26105		8.029761	-5.194918	-2.056881	-0.025363	0.013538	-0.015776	-0.650146	0.274170	0.648193	0.097581	-0.718216	0.298280	-0.621025
26106		8.041579	-5.166822	-2.017093	-0.001247	-0.002310	-0.018533	-0.648682	0.268066	0.648926	0.097515	-0.718275	0.298213	-0.621000
26107		8.015923	-5.191637	-2.206491	-0.003742	0.003763	-0.021058	-0.641602	0.270508	0.646729	0.097375	-0.718317	0.298164	-0.620997
26108		8.025088	-5.237992	-2.172422	0.018365	-0.018298	-0.023574	-0.644287	0.271484	0.653564	0.097431	-0.718462	0.297981	-0.620909
26109		7.992468	-5.334558	-2.150686	0.041757	-0.035616	-0.023118	-0.649658	0.277832	0.652832	0.097678	-0.718685	0.297667	-0.620762
26110		7.977949	-5.274511	-2.170172	0.065381	-0.058216	-0.013477	-0.652344	0.270508	0.647949	0.098197	-0.718971	0.297245	-0.620551
26111		8.251347	-5.033305	-2.043939	0.070444	-0.069582	0.005064	-0.640137	0.283447	0.652832	0.098822	-0.719257	0.296892	-0.620290
26112		8.386564	-4.891406	-1.939362	0.054853	-0.049685	0.019826	-0.645752	0.270020	0.645508	0.099460	-0.719426	0.296748	-0.620061
26113		8.324942	-4.748807	-1.955541	-0.001138	-0.005438	0.034434	-0.651367	0.274902	0.651611	0.099642	-0.719365	0.297005	-0.619978
26114		8.278304	-4.834177	-2.117391	-0.043802	0.028236	0.030707	-0.651123	0.275391	0.656006	0.099486	-0.719180	0.297473	-0.619994
26115		8.166439	-5.036506	-2.165282	-0.046058	0.027171	0.026936	-0.649658	0.282227	0.660156	0.099305	-0.719021	0.297935	-0.619986
26116		8.085753	-5.131480	-2.113108	-0.038797	0.016412	0.020130	-0.642334	0.276367	0.655518	0.099199	-0.718932	0.298312	-0.619925
26117		8.064011	-5.213613	-2.175089	-0.042663	0.020770	0.016781	-0.646973	0.274170	0.653076	0.099018	-0.718834	0.298712	-0.619875
26118		8.002930	-5.266295	-2.179848	-0.021932	0.024107	0.008795	-0.641602	0.271240	0.652100	0.098895	-0.718713	0.298946	-0.619922
26119		8.028638	-5.365429	-2.143087	0.005973	0.019612	0.001385	-0.640869	0.281738	0.648438	0.098904	-0.718616	0.299006	-0.620004
26120		7.996574	-5.286860	-2.139236	0.025161	0.000279	-0.003668	-0.658203	0.281250	0.652344	0.099100	-0.718600	0.298910	-0.620037
26121		7.963127	-5.286420	-2.203924	0.010570	0.004370	-0.003967	-0.649902	0.270508	0.647705	0.099177	-0.718569	0.298851	-0.620089
26122		7.981466	-5.335807	-2.202926	0.008231	-0.004047	-0.005787	-0.636475	0.274414	0.645996	0.099204	-0.718595	0.298812	-0.620073
26123		7.989314	-5.285387	-2.257459	0.033472	-0.017193	-0.011841	-0.646240	0.273682	0.648193	0.099415	-0.718687	0.298628	-0.620021
26124		8.088820	-5.175586	-2.116316	0.048466	-0.026279	-0.011738	-0.645508	0.273193	0.656982	0.099725	-0.718810	0.298338	-0.619969
26125		8.101855	-5.033400	-2.213854	0.070079	-0.025686	-0.016852	-0.649658	0.273682	0.641357	0.100137	-0.718944	0.297916	-0.619950
26126		8.253198	-4.931297	-2.149488	0.067659	-0.026923	-0.016444	-0.641357	0.286377	0.646484	0.100526	-0.719048	0.297480	-0.619976
26127		8.323488	-4.818681	-2.061640	0.051779	-0.035909	-0.019876	-0.645508	0.275635	0.648438	0.100895	-0.719228	0.297115	-0.619882
26128		8.313463	-4.764116	-1.878900	0.019034	-0.008910	-0.011068	-0.655273	0.280518	0.650146	0.100988	-0.719284	0.296992	-0.619861
26129		8.263996	-4.898808	-2.046504	-0.007740	0.010886	-0.011843	-0.650146	0.276855	0.653320	0.100882	-0.719253	0.296990	-0.619915
26130		8.176449	-5.050929	-2.074725	0.000722	0.009785	-0.003070	-0.649902	0.278809	0.645020	0.100864	-0.719214	0.297016	-0.619951
26131		8.028417	-5.222055	-2.220478	0.002578	0.007628	-0.004504	-0.653564	0.281250	0.654297	0.100861	-0.719169	0.297012	-0.620006
26132		7.937955	-5.306697	-2.163009	0.029187	-0.004010	0.000625	-0.648682	0.276367	0.653564	0.101086	-0.719163	0.296891	-0.620034
26133		8.006098	-5.214477	-2.180666	0.048225	-0.027776	0.004874	-0.641357	0.279053	0.656738	0.101484	-0.719261	0.296694	-0.619950
26134		8.167789	-5.074570	-2.035257	0.064439	-0.047685	0.004517	-0.655273	0.280518	0.647705	0.102046	-0.719458	0.296414	-0.619763
26135		8.236869	-4.999346	-1.991956	0.056374	-0.041389	0.006149	-0.651367	0.271973	0.652344	0.102535	-0.719593	0.296143	-0.619654
26136		8.215076	-4.909738	-1.982398	0.045727	-0.030139	0.007335	-0.646973	0.277100	0.645996	0.102901	-0.719696	0.295964	-0.619560
26137		8.247032	-5.025978	-2.025657	0.041213	-0.026230	0.010340	-0.645264	0.288818	0.651855	0.103268	-0.719762	0.295829	-0.619487
26138		8.105251	-5.015695	-2.104622	0.051046	-0.019186	0.009600	-0.646973	0.281982	0.651611	0.103731	-0.719788	0.295646	-0.619467
26139		8.051833	-5.150960	-2.208179	0.058457	-0.023684	0.003918	-0.638916	0.284668	0.649658	0.104181	-0.719849	0.295386	-0.619444
26140		7.963564	-5.311134	-2.295677	0.067308	-0.021111	-0.008171	-0.641113	0.290283	0.651855	0.104632	-0.719919	0.295027	-0.619458
26141		8.114215	-5.242920	-2.119210	0.083677	-0.038901	-0.007500	-0.641602	0.275146	0.654541	0.105249	-0.720063	0.294565	-0.619406
26142		8.130026	-5.134828	-2.091063	0.089481	-0.044314	-0.007713	-0.640381	0.288818	0.648193	0.105839	-0.720247	0.294080	-0.619321
26143		8.158360	-5.043529	-2.033365	0.105117	-0.042689	-0.008707	-0.636475	0.288818	0.648682	0.106570	-0.720389	0.293495	-0.619309
26144		8.203729	-4.994115	-2.006006	0.111234	-0.043746	-0.012060	-0.644531	0.287109	0.644531	0.107323	-0.720542	0.292867	-0.619298
26145		8.188911	-4.966153	-2.002524	0.098715	-0.044755	-0.020073	-0.645264	0.284668	0.640381	0.107938	-0.720718	0.292229	-0.619287
26146		8.159974	-5.000645	-2.095499	0.099030	-0.052901	-0.023418	-0.645752	0.285645	0.651855	0.108538	-0.720937	0.291557	-0.619244
26147		8.084141	-5.021882	-2.191051	0.105957	-0.063967	-0.027074	-0.639404	0.288086	0.648682	0.109192	-0.721237	0.290827	-0.619123
26148		8.125327	-5.091577	-2.101059	0.097991	-0.060770	-0.022386	-0.638428	0.289795	0.651611	0.109827	-0.721512	0.290178	-0.618995
26149		8.221903	-5.081703	-2.042628	0.092978	-0.066581	-0.010045	-0.646729	0.281982	0.654785	0.110515	-0.721797	0.289628	-0.618799
26150		8.123345	-5.037305	-2.048987	0.089876	-0.063053	-0.001102	-0.637695	0.292236	0.658936	0.111171	-0.722048	0.289139	-0.618616
26151		8.144717	-5.030137	-1.980884	0.084658	-0.052221	0.005227	-0.637939	0.304443	0.653809	0.111856	-0.722239	0.288744	-0.618454
26152		8.186185	-5.092431	-2.002664	0.076665	-0.045960	0.017293	-0.635010	0.287109	0.656494	0.112590	-0.722357	0.288447	-0.618322
26153		8.180956	-5.084800	-1.972315	0.063272	-0.035115	0.029472	-0.630127	0.296875	0.651367	0.113197	-0.722422	0.288330	-0.618190
26154		8.203387	-4.982751	-1.982634	0.050866	-0.034187	0.042410	-0.634277	0.299316	0.652344	0.113837	-0.722450	0.288351	-0.618030
26155		8.202256	-4.980548	-2.001201	0.027076	-0.018020	0.042202	-0.635010	0.295166	0.651367	0.114296	-0.722414	0.288494	-0.617920
26156		8.151380	-5.089996	-2.015778	0.008344	-0.007507	0.027382	-0.637451	0.301025	0.648193	0.114517	-0.722379	0.288654	-0.617846
26157		8.082328	-5.193229	-1.961437	0.004672	-0.005037	0.010452	-0.639160	0.302979	0.650391	0.114645	-0.722365	0.288713	-0.617812
26158		8.065833	-5.157092	-1.993581	0.002438	-0.010164	-0.007879	-0.644043	0.285400	0.650879	0.114684	-0.722424	0.288664	-0.617758
26159		8.012744	-5.284488	-2.033902	0.027983	-0.020162	-0.019465	-0.632812	0.298584	0.649170	0.114755	-0.722547	0.288411	-0.617718
26160		7.969141	-5.348555	-2.086541	0.055789	-0.034331	-0.020112	-0.636475	0.296631	0.651611	0.115095	-0.722713	0.288013	-0.617647
26161		8.022521	-5.307031	-2.079164	0.066187	-0.034329	-0.020196	-0.638672	0.304443	0.654785	0.115483	-0.722872	0.287556	-0.617601
26162		8.022379	-5.211555	-2.077867	0.045898	-0.032045	-0.017042	-0.632080	0.299805	0.653320	0.115791	-0.723029	0.287215	-0.617518
26163		7.973213	-5.212639	-2.123697	0.023150	-0.024706	-0.018533	-0.630371	0.296387	0.652588	0.115918	-0.723179	0.287012	-0.617414
26164		8.068898	-5.197977	-2.254875	0.036899	-0.039650	-0.023592	-0.634766	0.299805	0.651855	0.116123	-0.723405	0.286701	-0.617255
26165		8.266569	-5.091407	-2.168965	0.059594	-0.034481	-0.027257	-0.632812	0.298340	0.656738	0.116445	-0.723585	0.286235	-0.617199
26166		8.418564	-4.830591	-2.153388	0.035157	-0.014465	-0.026205	-0.634521	0.307373	0.650391	0.116569	-0.723692	0.285939	-0.617187
26167		8.391738	-4.674709	-2.057476	-0.014807	0.014580	-0.020790	-0.628662	0.296387	0.653076	0.116391	-0.723671	0.285925	-0.617252
26168		8.401672	-4.623155	-2.020722	-0.087986	0.042352	-0.014728	-0.633789	0.300781	0.655762	0.115693	-0.723577	0.286392	-0.617277
26169		8.188877	-4.937489	-2.115117	-0.127419	0.056873	-0.013776	-0.632324	0.298340	0.658936	0.114748	-0.723442	0.287062	-0.617300
26170		7.934769	-5.295307	-2.158815	-0.119790	0.054385	-0.008156	-0.628906	0.296143	0.655518	0.113881	-0.723305	0.287739	-0.617307
26171		7.840983	-5.368485	-2.148976	-0.095852	0.024700	-0.005064	-0.629395	0.283203	0.651855	0.113245	-0.723287	0.288290	-0.617188
26172		7.816114	-5.479668	-2.205380	-0.060538	0.007080	-0.008346	-0.631348	0.290771	0.662842	0.112792	-0.723333	0.288633	-0.617056
26173		7.833975	-5.585050	-2.261074	-0.006958	-0.015951	-0.007068	-0.639893	0.289062	0.658203	0.112760	-0.723453	0.288695	-0.616892
26174		7.909941	-5.502990	-2.208583	0.042870	-0.047053	-0.013448	-0.629150	0.294678	0.653076	0.113057	-0.723692	0.288395	-0.616698
26175		7.889197	-5.410738	-2.201743	0.082671	-0.062374	-0.019742	-0.630859	0.292236	0.646729	0.113630	-0.723980	0.287853	-0.616508
26176		8.016786	-5.253612	-2.098975	0.119165	-0.073218	-0.015986	-0.640869	0.300537	0.649658	0.114453	-0.724271	0.287116	-0.616358
26177		8.043810	-5.189750	-2.118689	0.121112	-0.072283	-0.014381	-0.633545	0.292969	0.657471	0.115318	-0.724546	0.286336	-0.616236
26178		8.090123	-5.129890	-2.207112	0.125755	-0.067873	-0.016447	-0.633057	0.292480	0.662842	0.116153	-0.724814	0.285584	-0.616113
26179		8.162573	-5.095513	-2.174922	0.126335	-0.070753	-0.015634	-0.632568	0.302734	0.653564	0.116993	-0.725100	0.284848	-0.615957
26180		8.260162	-4.880234	-2.073418	0.106352	-0.073612	-0.008374	-0.633057	0.303223	0.651611	0.117800	-0.725387	0.284211	-0.615760
26181		8.274901	-4.814573	-2.155211	0.072120	-0.052329	-0.001029	-0.624268	0.304932	0.660400	0.118384	-0.725578	0.283803	-0.615611
26182		8.276468	-4.918155	-2.124319	0.027979	-0.021388	0.002268	-0.630127	0.298828	0.658936	0.118652	-0.725659	0.283726	-0.615500
26183		8.305698	-4.853561	-2.052589	-0.002441	-0.005458	0.009889	-0.633545	0.302979	0.653076	0.118704	-0.725669	0.283850	-0.615421
26184		8.234488	-4.869215	-1.978913	-0.042118	0.015188	0.019512	-0.629883	0.296631	0.655273	0.118535	-0.725580	0.284215	-0.615390
26185		8.296700	-4.932438	-2.070799	-0.069509	0.033732	0.018133	-0.633301	0.303467	0.652100	0.118124	-0.725432	0.284763	-0.615390
26186		8.294017	-4.866841	-2.143812	-0.091914	0.062042	0.024071	-0.631836	0.298828	0.648193	0.117573	-0.725140	0.285450	-0.615521
26187		8.253815	-4.804967	-2.201404	-0.121934	0.075100	0.016879	-0.627441	0.291992	0.657227	0.116757	-0.724825	0.286264	-0.615670
26188		8.174966	-5.061652	-2.240442	-0.142624	0.079370	-0.001784	-0.634766	0.302979	0.658691	0.115684	-0.724564	0.287137	-0.615773
26189		8.171765	-5.161594	-2.237438	-0.155000	0.094011	-0.010675	-0.636475	0.301025	0.654297	0.114509	-0.724257	0.287984	-0.615959
26190		8.101502	-5.159694	-2.382220	-0.145125	0.103203	-0.021127	-0.630615	0.296875	0.664795	0.113317	-0.723912	0.288709	-0.616245
26191		8.076793	-5.175072	-2.350270	-0.130490	0.103191	-0.015930	-0.630859	0.289062	0.655762	0.112229	-0.723552	0.289460	-0.616514
26192		8.058616	-5.174781	-2.261249	-0.139315	0.097495	-0.001786	-0.640625	0.291504	0.660889	0.111150	-0.723188	0.290324	-0.616731
26193		7.949367	-5.235469	-2.197921	-0.154027	0.079460	0.009226	-0.632080	0.291992	0.649658	0.110092	-0.722904	0.291288	-0.616799
26194		7.823633	-5.355528	-2.170243	-0.144317	0.071775	0.012265	-0.640625	0.286621	0.655273	0.109146	-0.722632	0.292207	-0.616850
26195		7.711061	-5.677917	-2.304826	-0.098495	0.060677	-0.000297	-0.630371	0.282715	0.661133	0.108413	-0.722410	0.292804	-0.616957
26196		7.649528	-5.623265	-2.430407	-0.010432	0.032337	-0.006860	-0.635010	0.291748	0.656494	0.108236	-0.722278	0.292955	-0.617072
26197		7.949035	-5.334810	-2.351535	0.064899	-0.018136	-0.008003	-0.636963	0.288818	0.647217	0.108670	-0.722332	0.292614	-0.617094
26198		8.170843	-5.207162	-2.146111	0.093047	-0.042358	-0.017109	-0.640869	0.288086	0.642578	0.109272	-0.722498	0.292020	-0.617075
26199		8.076739	-5.110175	-2.062538	0.074455	-0.021378	-0.030874	-0.633789	0.282959	0.651123	0.109631	-0.722600	0.291430	-0.617169
26200		8.043636	-5.103898	-2.062936	0.072060	-0.015223	-0.037646	-0.633057	0.282959	0.651123	0.109902	-0.722701	0.290888	-0.617259
26201		7.955722	-5.247233	-2.209227	0.065489	-0.008253	-0.026882	-0.632080	0.292969	0.650879	0.110169	-0.722746	0.290455	-0.617363
26202		7.859536	-5.292215	-2.399379	0.082115	-0.025987	-0.020031	-0.636475	0.298828	0.656250	0.110660	-0.722848	0.289941	-0.617397
26203		8.042984	-5.150654	-2.325711	0.119677	-0.072808	-0.008360	-0.633301	0.285645	0.647949	0.111568	-0.723130	0.289250	-0.617227
26204		8.338916	-4.883982	-2.016400	0.107592	-0.069711	0.006576	-0.641113	0.294189	0.649658	0.112411	-0.723366	0.288730	-0.617042
26205		8.531106	-4.711381	-1.845335	0.054052	-0.029088	0.013693	-0.635254	0.291992	0.650635	0.112898	-0.723424	0.288518	-0.616984
26206		8.514915	-4.591164	-1.748858	-0.040585	0.035604	0.022196	-0.626465	0.295898	0.658691	0.112692	-0.723221	0.288936	-0.617065
26207		8.377332	-4.748934	-1.815358	-0.110545	0.083625	0.023345	-0.633057	0.300293	0.655029	0.111976	-0.722843	0.289815	-0.617226
26208		8.115295	-5.012119	-1.900827	-0.134406	0.097637	0.017808	-0.632324	0.287842	0.655273	0.111075	-0.722422	0.290746	-0.617442
26209		8.009421	-5.258169	-2.106314	-0.113479	0.079139	0.002863	-0.639648	0.294189	0.651367	0.110218	-0.722115	0.291499	-0.617600
26210		7.967907	-5.343260	-2.077856	-0.091559	0.056992	-0.011230	-0.641846	0.291260	0.652344	0.109506	-0.721930	0.291976	-0.617718
26211		7.968125	-5.353780	-2.122373	-0.065395	0.036900	-0.014647	-0.637207	0.290771	0.656494	0.108973	-0.721832	0.292284	-0.617781
26212		8.023031	-5.365681	-2.170045	-0.063220	0.030749	-0.019345	-0.632812	0.285889	0.648926	0.108446	-0.721780	0.292580	-0.617794
26213		7.980105	-5.352899	-2.235170	-0.060657	0.030010	-0.024057	-0.634766	0.289307	0.656494	0.107900	-0.721736	0.292836	-0.617821
26214		7.858277	-5.366980	-2.223083	-0.042747	0.012138	-0.037235	-0.640625	0.285645	0.648926	0.107452	-0.721804	0.292915	-0.617781
26215		7.852866	-5.424872	-2.212467	-0.001003	-0.007319	-0.039518	-0.635498	0.290039	0.645996	0.107278	-0.721933	0.292708	-0.617759
26216		7.909323	-5.474524	-2.207311	0.043431	-0.024467	-0.032923	-0.637207	0.286865	0.652588	0.107472	-0.722093	0.292294	-0.617735
26217		8.098227	-5.210771	-2.105302	0.076874	-0.042121	-0.014783	-0.629639	0.280762	0.650146	0.107985	-0.722273	0.291827	-0.617655
26218		8.225558	-4.887636	-2.148318	0.068705	-0.032767	-0.010986	-0.638916	0.288330	0.654053	0.108421	-0.722404	0.291469	-0.617595
26219		8.350783	-4.722864	-2.073917	0.038500	-0.016872	-0.006861	-0.635742	0.284668	0.654541	0.108681	-0.722470	0.291264	-0.617568
26220		8.410299	-4.722369	-2.061874	-0.000852	0.009997	0.000279	-0.634521	0.288574	0.654053	0.108659	-0.722418	0.291351	-0.617592
26221		8.376174	-4.750085	-1.950484	-0.030434	0.034517	0.008560	-0.640381	0.285400	0.652344	0.108461	-0.722247	0.291654	-0.617684
26222		8.348763	-4.788799	-1.855107	-0.063127	0.050161	0.015255	-0.633789	0.287842	0.661377	0.108047	-0.722006	0.292160	-0.617799
26223		8.237247	-4.858224	-1.946082	-0.102696	0.067556	0.018079	-0.645508	0.286377	0.654053	0.107380	-0.721714	0.292950	-0.617882
26224		8.108165	-5.138952	-2.141803	-0.111740	0.067160	0.013542	-0.645996	0.285156	0.662109	0.106631	-0.721433	0.293695	-0.617987
26225		8.057469	-5.152556	-1.983350	-0.100713	0.045750	0.003736	-0.644287	0.291260	0.649414	0.105946	-0.721283	0.294334	-0.617975
26226		8.040646	-5.156959	-2.041071	-0.095960	0.040972	-0.005652	-0.650391	0.283936	0.650635	0.105290	-0.721165	0.294832	-0.617988
26227		7.973428	-5.296679	-2.109251	-0.080965	0.038223	-0.010750	-0.644043	0.280762	0.645752	0.104673	-0.721060	0.295221	-0.618029
26228		7.913448	-5.507060	-2.154409	-0.066898	0.028696	-0.011574	-0.648193	0.285645	0.643066	0.104156	-0.720991	0.295540	-0.618045
26229		7.835333	-5.526351	-2.267206	-0.027925	0.002669	-0.013297	-0.638428	0.283936	0.652588	0.103951	-0.721022	0.295588	-0.618021
26230		7.883775	-5.397555	-2.240512	0.007509	-0.025129	-0.016435	-0.651123	0.274658	0.652100	0.104009	-0.721184	0.295482	-0.617873
26231		7.925297	-5.315364	-2.251892	0.027291	-0.034735	-0.025651	-0.638672	0.278809	0.654785	0.104112	-0.721395	0.295191	-0.617748
26232		8.018592	-5.216475	-2.173362	0.046674	-0.045591	-0.034826	-0.638184	0.288818	0.659424	0.104337	-0.721673	0.294774	-0.617584
26233		8.085638	-5.163721	-2.220012	0.058571	-0.055165	-0.036280	-0.638184	0.275879	0.658936	0.104690	-0.721998	0.294266	-0.617387
26234		8.141102	-5.044998	-2.209504	0.071528	-0.053721	-0.040929	-0.640137	0.279785	0.664795	0.105037	-0.722314	0.293697	-0.617229
26235		8.193502	-4.966013	-2.160555	0.076772	-0.052162	-0.036766	-0.642090	0.278564	0.653564	0.105444	-0.722611	0.293127	-0.617084
26236		8.219064	-4.904017	-2.255853	0.061300	-0.040243	-0.036708	-0.638428	0.279053	0.651367	0.105725	-0.722849	0.292606	-0.617004
26237		8.299587	-4.842849	-2.104207	0.043116	-0.027732	-0.027732	-0.639893	0.276367	0.658203	0.105916	-0.723015	0.292245	-0.616947
26238		8.293473	-4.769743	-2.127926	0.012863	-0.009835	-0.023576	-0.636719	0.295410	0.651855	0.105886	-0.723112	0.292105	-0.616905
26239		8.300035	-4.794474	-2.095267	-0.021134	0.000929	-0.019799	-0.636475	0.281494	0.654297	0.105731	-0.723169	0.292108	-0.616863
26240		8.346311	-4.872605	-2.037273	-0.040579	0.013971	-0.020987	-0.641113	0.282959	0.652832	0.105363	-0.723183	0.292260	-0.616839
26241		8.296048	-4.849733	-2.084834	-0.059149	0.039976	-0.021149	-0.645508	0.276367	0.655762	0.104825	-0.723076	0.292502	-0.616940
26242		8.193561	-4.889916	-2.150637	-0.068695	0.052891	-0.025381	-0.646729	0.276123	0.656006	0.104149	-0.722923	0.292792	-0.617096
26243		8.136608	-5.126419	-2.265150	-0.062734	0.053832	-0.024490	-0.650879	0.272705	0.665527	0.103514	-0.722758	0.293054	-0.617272
26244		8.086060	-5.150089	-2.241147	-0.056627	0.047497	-0.020586	-0.632324	0.266113	0.655518	0.102935	-0.722617	0.293330	-0.617403
26245		8.083759	-5.172476	-2.173361	-0.064685	0.028649	-0.015113	-0.645264	0.280762	0.654053	0.102372	-0.722565	0.293711	-0.617377
26246		7.999545	-5.214162	-2.155831	-0.065378	0.027118	-0.006664	-0.639404	0.271240	0.660645	0.101911	-0.722494	0.294057	-0.617371
26247		7.949248	-5.279843	-2.239330	-0.047970	0.027699	-0.006939	-0.648438	0.279541	0.655273	0.101515	-0.722413	0.294378	-0.617378
26248		8.008908	-5.268748	-2.259483	-0.015570	0.018274	-0.010272	-0.652100	0.265625	0.661133	0.101355	-0.722354	0.294435	-0.617446
26249		8.114942	-5.104318	-2.175054	0.021741	-0.001063	-0.019923	-0.638428	0.270020	0.659180	0.101356	-0.722390	0.294271	-0.617482
26250		8.159935	-5.012319	-2.200599	0.025431	-0.008559	-0.020758	-0.642090	0.274414	0.656494	0.101419	-0.722466	0.294104	-0.617462
26251		8.223474	-4.945542	-2.058450	0.019242	-0.010700	-0.020632	-0.646729	0.278320	0.656738	0.101469	-0.722555	0.293935	-0.617430
26252		8.226663	-4.929026	-2.015342	-0.001612	-0.012129	-0.013449	-0.646240	0.275391	0.654053	0.101447	-0.722650	0.293891	-0.617345
26253		8.159104	-4.959337	-2.129655	-0.011557	0.001473	-0.007128	-0.647217	0.274170	0.654541	0.101354	-0.722665	0.293945	-0.617316
26254		8.131095	-5.050450	-2.030522	-0.009493	-0.002761	-0.002368	-0.643311	0.270508	0.658691	0.101304	-0.722689	0.294016	-0.617262
26255		8.192650	-4.948801	-2.097324	-0.006162	-0.006231	-0.005160	-0.645752	0.271240	0.654297	0.101253	-0.722740	0.294084	-0.617179
26256		8.172679	-4.969466	-2.198131	-0.006214	-0.011359	-0.013589	-0.638916	0.272217	0.652588	0.101175	-0.722833	0.294072	-0.617088
26257		8.140788	-4.978837	-2.140971	-0.000554	-0.014621	-0.019973	-0.642822	0.267090	0.663086	0.101116	-0.722954	0.294002	-0.616989
26258		8.156813	-4.978169	-2.070237	-0.003580	-0.018296	-0.018393	-0.635742	0.277344	0.653564	0.101028	-0.723101	0.293986	-0.616839
26259		8.165966	-5.021137	-2.131894	-0.002660	-0.021003	-0.015481	-0.639404	0.268311	0.658203	0.101019	-0.723247	0.293945	-0.616689
26260		8.093827	-5.055869	-2.168386	-0.007060	-0.024331	-0.014673	-0.644287	0.271484	0.646973	0.100955	-0.723415	0.293952	-0.616500
26261		8.008203	-5.043944	-2.254480	-0.008539	-0.030295	-0.016570	-0.639893	0.274658	0.657471	0.100904	-0.723607	0.293889	-0.616311
26262		8.019197	-5.154760	-2.246795	0.012919	-0.041121	-0.020958	-0.632812	0.274170	0.660889	0.100998	-0.723858	0.293717	-0.616084
26263		8.274127	-5.162778	-2.163009	0.051127	-0.056947	-0.022463	-0.643799	0.269531	0.657959	0.101352	-0.724166	0.293357	-0.615836
26264		8.380704	-4.849744	-2.073590	0.040412	-0.031220	-0.014742	-0.640137	0.273193	0.656494	0.101595	-0.724325	0.293088	-0.615737
26265		8.409609	-4.734461	-2.162558	0.001540	-0.004305	-0.008741	-0.637939	0.275391	0.654541	0.101584	-0.724363	0.293072	-0.615700
26266		8.462648	-4.831021	-2.182609	-0.020863	0.005964	0.000034	-0.635498	0.276611	0.657715	0.101469	-0.724347	0.293227	-0.615665
26267		8.414252	-4.618516	-2.196021	-0.037458	0.029754	0.004720	-0.644531	0.280762	0.663330	0.101226	-0.724215	0.293527	-0.615718
26268		8.465444	-4.646992	-2.285059	-0.076230	0.053601	0.008533	-0.645264	0.271240	0.660889	0.100720	-0.723985	0.294047	-0.615823
26269		8.533768	-4.684600	-2.268695	-0.090623	0.065995	0.010467	-0.641846	0.270996	0.661621	0.100074	-0.723696	0.294677	-0.615966
26270		8.696493	-4.562261	-2.039139	-0.132701	0.107819	0.023476	-0.647705	0.271729	0.659424	0.099142	-0.723199	0.295647	-0.616236
26271		8.514455	-4.441556	-2.253053	-0.217889	0.154480	0.037449	-0.641357	0.264404	0.658691	0.097659	-0.722492	0.297151	-0.616579
26272		8.201413	-4.707967	-2.419643	-0.264276	0.180514	0.040169	-0.644775	0.261230	0.659668	0.095828	-0.721682	0.298963	-0.616939
26273		8.132970	-5.044086	-2.428152	-0.243777	0.159568	0.041740	-0.650146	0.268555	0.654785	0.094176	-0.720956	0.300660	-0.617217
26274		8.052263	-5.046332	-2.446461	-0.222529	0.143109	0.048575	-0.653076	0.264404	0.655273	0.092765	-0.720271	0.302229	-0.617465
26275		8.033327	-4.974014	-2.277474	-0.215301	0.137443	0.043683	-0.654053	0.258057	0.655029	0.091376	-0.719618	0.303730	-0.617696
26276		7.932709	-5.047901	-2.391124	-0.228786	0.134854	0.031169	-0.644287	0.255127	0.648682	0.089830	-0.719017	0.305236	-0.617880
26277		7.961741	-5.163408	-2.371562	-0.199780	0.124974	0.019163	-0.656006	0.262695	0.658447	0.088424	-0.718473	0.306527	-0.618077
26278		8.000764	-5.202139	-2.316684	-0.168620	0.110742	0.018247	-0.648682	0.254639	0.659424	0.087265	-0.717983	0.307617	-0.618270
26279		8.054239	-5.212723	-2.130499	-0.131082	0.090278	0.023439	-0.655273	0.258057	0.648193	0.086389	-0.717562	0.308568	-0.618407
26280		8.030492	-5.167300	-2.218733	-0.124966	0.089170	0.025358	-0.642334	0.260010	0.652588	0.085579	-0.717122	0.309449	-0.618591
26281		8.041080	-5.240045	-2.259211	-0.108748	0.080909	0.022211	-0.655762	0.252197	0.655518	0.084888	-0.716732	0.310254	-0.618734
26282		8.010324	-5.194323	-2.298850	-0.083831	0.064411	0.026745	-0.655273	0.256348	0.655029	0.084378	-0.716394	0.310943	-0.618849
26283		8.148125	-5.071686	-2.181041	-0.051089	0.055235	0.026024	-0.652588	0.251465	0.651855	0.084102	-0.716082	0.311444	-0.618997
26284		8.086372	-4.990428	-2.228993	-0.056119	0.047873	0.011009	-0.656494	0.255127	0.650879	0.083722	-0.715849	0.311886	-0.619095
26285		8.066328	-4.955829	-2.347002	-0.048628	0.040528	0.002199	-0.654297	0.248535	0.651367	0.083374	-0.715667	0.312215	-0.619186
26286		8.287508	-4.977256	-2.286195	-0.004528	0.019663	-0.003845	-0.662354	0.256348	0.652832	0.083291	-0.715582	0.312284	-0.619260
26287		8.389177	-4.723839	-2.183232	-0.001301	0.026449	-0.001064	-0.650635	0.257568	0.651123	0.083247	-0.715448	0.312331	-0.619398
26288		8.325752	-4.639036	-2.168341	-0.034783	0.040492	-0.002271	-0.654785	0.240479	0.651611	0.082974	-0.715274	0.312567	-0.619516
26289		8.239215	-4.757319	-2.159061	-0.059707	0.050556	-0.001945	-0.663086	0.252197	0.656982	0.082464	-0.715067	0.312965	-0.619622
26290		8.223105	-4.913992	-2.122603	-0.056594	0.035738	-0.010236	-0.664062	0.252686	0.654297	0.082009	-0.714955	0.313260	-0.619663
26291		8.132161	-5.004285	-2.223242	-0.054831	0.050210	-0.011149	-0.668213	0.255615	0.651367	0.081525	-0.714764	0.313543	-0.619803
26292		8.149747	-5.011113	-2.284923	-0.050195	0.058891	-0.012720	-0.660156	0.253662	0.647705	0.081048	-0.714522	0.313785	-0.620023
26293		8.088365	-5.083332	-2.316986	-0.020104	0.037081	-0.018422	-0.650635	0.244385	0.644287	0.080779	-0.714390	0.313834	-0.620186
26294		8.101459	-5.182493	-2.261449	0.004223	0.028573	-0.011270	-0.664795	0.248291	0.649658	0.080689	-0.714273	0.313817	-0.620340
26295		8.137034	-5.088509	-2.168421	0.006275	0.024082	-0.000294	-0.667725	0.246582	0.645996	0.080685	-0.714144	0.313835	-0.620480
26296		8.226695	-4.955904	-2.126838	-0.004573	0.015311	0.001229	-0.655762	0.247070	0.648926	0.080637	-0.714057	0.313911	-0.620549
26297		8.082527	-4.949359	-2.129354	-0.040357	0.035281	0.004629	-0.659912	0.250244	0.647461	0.080353	-0.713897	0.314219	-0.620613
26298		7.989878	-5.113456	-2.163104	-0.039373	0.031595	0.005382	-0.667480	0.254150	0.648682	0.080098	-0.713747	0.314513	-0.620670
26299		8.170587	-5.142392	-2.089802	0.005929	0.003022	0.001203	-0.665771	0.252441	0.644043	0.080175	-0.713718	0.314519	-0.620691
26300		8.207382	-5.091575	-2.012773	0.014674	-0.010147	0.000395	-0.660400	0.250732	0.650391	0.080327	-0.713748	0.314468	-0.620662
26301		8.117381	-5.046497	-2.066737	0.001868	0.005070	0.001933	-0.656982	0.251953	0.645996	0.080371	-0.713720	0.314512	-0.620666
26302		8.059313	-5.137511	-2.269809	-0.003455	0.019206	-0.005085	-0.660156	0.242432	0.638428	0.080316	-0.713637	0.314551	-0.620749
26303		8.088413	-5.302444	-2.337274	0.030701	0.002906	-0.019540	-0.654297	0.249023	0.650146	0.080393	-0.713642	0.314325	-0.620848
26304		8.138977	-5.217795	-2.309952	0.063341	-0.021568	-0.030882	-0.672363	0.242920	0.651367	0.080702	-0.713805	0.313844	-0.620864
26305		8.135267	-5.079821	-2.287448	0.073835	-0.028757	-0.027648	-0.654297	0.257812	0.654053	0.081070	-0.713974	0.313322	-0.620885
26306		8.198072	-5.130641	-2.253048	0.058708	-0.024556	-0.011499	-0.660645	0.247559	0.653809	0.081487	-0.714106	0.312970	-0.620856
26307		8.185715	-5.022627	-2.088745	0.058241	-0.014820	0.003435	-0.657227	0.249512	0.647461	0.081910	-0.714147	0.312723	-0.620877
26308		8.178125	-4.941528	-2.062527	0.046314	-0.026513	0.014445	-0.663330	0.253662	0.644531	0.082354	-0.714220	0.312597	-0.620799
26309		7.985023	-4.854996	-2.137234	0.035686	-0.021460	0.010100	-0.659180	0.250488	0.649902	0.082704	-0.714269	0.312498	-0.620746
26310		7.863641	-4.975294	-2.197923	0.031755	-0.016965	0.000459	-0.667969	0.250244	0.651123	0.082962	-0.714339	0.312368	-0.620696
26311		7.735870	-5.213742	-2.307711	0.057209	-0.053549	-0.010061	-0.653809	0.250000	0.650146	0.083402	-0.714600	0.312017	-0.620513
26312		7.656738	-5.446713	-2.218498	0.142882	-0.109322	-0.012563	-0.660156	0.268799	0.650635	0.084495	-0.715109	0.311173	-0.620202
26313		7.822341	-5.520180	-2.064285	0.214911	-0.168264	-0.006819	-0.647705	0.252686	0.654053	0.086246	-0.715833	0.309938	-0.619744
26314		8.169323	-5.356346	-1.974989	0.248100	-0.181980	0.011767	-0.656982	0.252197	0.647461	0.088279	-0.716582	0.308642	-0.619239
26315		8.319404	-5.329171	-1.981097	0.248546	-0.147821	0.025709	-0.652100	0.256592	0.653076	0.090273	-0.717086	0.307458	-0.618957
26316		8.336179	-5.106140	-1.994877	0.242135	-0.106444	0.027485	-0.649414	0.264648	0.653320	0.092141	-0.717386	0.306344	-0.618886
26317		8.204021	-5.182213	-2.171610	0.227986	-0.070813	0.015928	-0.656738	0.267334	0.652832	0.093792	-0.717538	0.305256	-0.619000
26318		8.120487	-5.188490	-2.199091	0.250136	-0.082522	0.018719	-0.647705	0.269775	0.648193	0.095609	-0.717712	0.304060	-0.619109
26319		8.167387	-5.068187	-2.238036	0.250642	-0.102266	0.023164	-0.645020	0.279053	0.648193	0.097507	-0.717974	0.302875	-0.619090
26320		8.295011	-4.929021	-2.060240	0.240822	-0.098088	0.026825	-0.657471	0.277588	0.650391	0.099376	-0.718207	0.301760	-0.619067
26321		8.411338	-4.770633	-1.914858	0.195909	-0.092893	0.018327	-0.648438	0.277344	0.652100	0.100891	-0.718459	0.300830	-0.618982
26322		8.374597	-4.748016	-1.997855	0.158682	-0.061679	-0.000472	-0.643066	0.280029	0.656494	0.102008	-0.718643	0.300004	-0.618987
26323		8.500460	-4.686653	-1.981020	0.146136	-0.048148	-0.013679	-0.647705	0.275146	0.649902	0.102959	-0.718813	0.299169	-0.619036
26324		8.446347	-4.465683	-1.974495	0.103169	-0.023153	-0.018850	-0.649170	0.283203	0.641357	0.103535	-0.718889	0.298553	-0.619149
26325		8.198402	-4.671540	-2.140783	0.060055	-0.002439	-0.019820	-0.644287	0.285400	0.647949	0.103814	-0.718874	0.298169	-0.619304
26326		8.103045	-5.104003	-2.184756	0.071077	-0.022918	-0.016953	-0.643311	0.291748	0.654541	0.104238	-0.718968	0.297722	-0.619340
26327		8.314476	-4.961081	-2.053120	0.088042	-0.038231	-0.018304	-0.641602	0.290039	0.648438	0.104816	-0.719139	0.297157	-0.619315
26328		8.304510	-4.818428	-2.084156	0.061467	-0.022688	-0.012035	-0.649170	0.281250	0.643066	0.105219	-0.719229	0.296785	-0.619320
26329		8.225054	-4.926840	-2.070940	0.031722	0.007971	-0.009164	-0.642822	0.284912	0.650146	0.105344	-0.719165	0.296620	-0.619452
26330		8.422500	-5.133211	-2.161493	0.043509	0.015007	-0.005115	-0.643311	0.285156	0.647217	0.105564	-0.719065	0.296417	-0.619628
26331		8.231857	-4.874338	-2.054314	0.019127	0.035786	0.010187	-0.643311	0.288086	0.652100	0.105663	-0.718836	0.296451	-0.619861
26332		8.064017	-4.923797	-2.143412	-0.055366	0.058204	0.007994	-0.649414	0.287598	0.640869	0.105259	-0.718571	0.296871	-0.620035
26333		7.882203	-5.443168	-2.285367	-0.046102	0.050458	0.002998	-0.642822	0.282715	0.647705	0.104894	-0.718323	0.297211	-0.620222
26334		7.839849	-5.742027	-2.116239	0.017597	0.017329	0.002005	-0.641113	0.273438	0.646729	0.104984	-0.718217	0.297188	-0.620340
26335		7.885923	-5.477348	-2.056452	0.085851	-0.019707	-0.001972	-0.643799	0.286621	0.650146	0.105525	-0.718259	0.296766	-0.620402
26336		7.880531	-5.342328	-2.039760	0.088467	-0.034008	-0.004708	-0.639404	0.286133	0.651855	0.106138	-0.718374	0.296292	-0.620391
26337		7.788219	-5.454578	-2.255222	0.093353	-0.047106	-0.014131	-0.641357	0.289551	0.639893	0.106765	-0.718584	0.295726	-0.620311
26338		7.792270	-5.462848	-2.206994	0.143570	-0.079924	-0.008471	-0.645752	0.294922	0.650146	0.107803	-0.718876	0.294908	-0.620182
26339		7.897720	-5.381798	-2.269011	0.186382	-0.116630	0.007882	-0.645996	0.291504	0.650635	0.109282	-0.719287	0.293928	-0.619912
26340		8.185164	-5.062106	-2.243274	0.190105	-0.111777	0.028884	-0.639404	0.289551	0.645752	0.110861	-0.719616	0.293063	-0.619658
26341		8.391793	-4.713250	-2.089279	0.154689	-0.087171	0.039981	-0.640381	0.297119	0.643066	0.112214	-0.719822	0.292474	-0.619454
26342		8.364306	-4.822902	-2.096878	0.089841	-0.048253	0.039345	-0.638184	0.293701	0.647705	0.113094	-0.719878	0.292247	-0.619336
26343		8.430332	-4.810294	-1.920413	0.066807	-0.040158	0.033493	-0.632324	0.293945	0.650391	0.113774	-0.719940	0.292114	-0.619202
26344		8.459474	-4.579253	-1.736842	0.037489	-0.033153	0.024756	-0.638184	0.299805	0.647461	0.114220	-0.720026	0.292085	-0.619033
26345		8.327697	-4.664628	-1.697887	-0.020836	-0.001251	0.022965	-0.633545	0.295654	0.650391	0.114237	-0.719993	0.292370	-0.618935
26346		8.081153	-5.109511	-1.780227	-0.050693	0.017990	0.026908	-0.636475	0.299072	0.645996	0.114042	-0.719892	0.292853	-0.618860
26347		8.015904	-5.432082	-1.801835	-0.023263	0.015220	0.031823	-0.635010	0.295410	0.650879	0.114050	-0.719753	0.293217	-0.618847
26348		7.867201	-5.620853	-1.909909	0.001096	0.012981	0.033192	-0.642334	0.305664	0.648193	0.114208	-0.719612	0.293466	-0.618864
26349		7.758905	-5.789486	-1.987279	0.025626	-0.006900	0.032394	-0.630859	0.301025	0.652100	0.114580	-0.719533	0.293555	-0.618845
26350		7.753014	-5.692519	-2.016729	0.035794	-0.010078	0.028256	-0.629639	0.298828	0.654785	0.114994	-0.719492	0.293574	-0.618807
26351		7.798938	-5.685219	-2.187730	0.053911	-0.012312	0.003756	-0.637939	0.302734	0.648926	0.115389	-0.719511	0.293357	-0.618814
26352		7.775055	-5.631812	-2.324967	0.095145	-0.029948	-0.027525	-0.638184	0.307861	0.651367	0.115912	-0.719637	0.292716	-0.618874
26353		7.938003	-5.416367	-2.253044	0.152697	-0.069608	-0.053858	-0.630615	0.307129	0.654053	0.116754	-0.719975	0.291579	-0.618858
26354		8.195399	-5.024954	-2.197321	0.154268	-0.084512	-0.073100	-0.638184	0.305908	0.647949	0.117544	-0.720447	0.290311	-0.618756
26355		8.251703	-4.867393	-2.145701	0.135928	-0.066748	-0.077857	-0.634521	0.308838	0.636963	0.118140	-0.720837	0.289120	-0.618745
26356		8.334558	-4.747384	-2.096020	0.101694	-0.037171	-0.059487	-0.633545	0.309814	0.643799	0.118563	-0.721049	0.288242	-0.618828
26357		8.546161	-4.657030	-1.943858	0.063992	-0.017672	-0.037185	-0.637939	0.305420	0.645264	0.118830	-0.721155	0.287711	-0.618900
26358		8.333085	-4.780495	-1.877709	-0.012497	0.024931	-0.014212	-0.635010	0.304688	0.648926	0.118636	-0.721064	0.287754	-0.619023
26359		8.162089	-4.897753	-2.000121	-0.068914	0.050553	-0.001620	-0.641113	0.309082	0.655762	0.118110	-0.720876	0.288192	-0.619139
26360		8.031265	-5.185883	-2.107813	-0.091067	0.052859	0.008114	-0.640625	0.292969	0.639160	0.117505	-0.720676	0.288798	-0.619204
26361		7.892458	-5.404785	-2.148185	-0.051674	0.036366	0.011538	-0.634277	0.311523	0.644531	0.117147	-0.720498	0.289215	-0.619285
26362		7.949498	-5.390197	-2.012957	-0.014593	0.015568	0.013393	-0.633057	0.298096	0.649170	0.117137	-0.720392	0.289418	-0.619316
26363		8.007129	-5.302158	-2.063302	-0.005394	0.002494	0.010494	-0.639404	0.311279	0.645996	0.117158	-0.720365	0.289563	-0.619275
26364		7.775921	-5.659851	-2.127561	0.023448	-0.002643	0.021324	-0.631592	0.303955	0.643799	0.117455	-0.720294	0.289598	-0.619285
26365		7.882013	-5.697514	-2.015688	0.072253	-0.032055	0.048987	-0.630127	0.310059	0.645752	0.118241	-0.720267	0.289533	-0.619197
26366		7.862618	-5.353148	-2.039181	0.070647	-0.024486	0.070136	-0.635010	0.296631	0.650391	0.119123	-0.720152	0.289608	-0.619127
26367		7.919894	-5.478902	-2.022491	0.057270	-0.022928	0.074921	-0.630127	0.303955	0.644531	0.119895	-0.720038	0.289801	-0.619021
26368		7.989610	-5.649368	-1.956226	0.063705	-0.037436	0.070470	-0.638672	0.313232	0.656738	0.120739	-0.719995	0.289911	-0.618855
26369		7.847047	-5.331624	-1.935902	0.065878	-0.032236	0.053275	-0.632324	0.314453	0.645020	0.121511	-0.719968	0.289905	-0.618737
26370		8.156370	-5.031160	-1.939054	0.050621	-0.031706	0.026152	-0.627686	0.310791	0.653320	0.122054	-0.720009	0.289811	-0.618627
26371		8.031232	-5.185851	-2.058526	0.042249	-0.029816	-0.009682	-0.634277	0.314697	0.648438	0.122348	-0.720151	0.289563	-0.618519
26372		8.288831	-5.030438	-1.938333	0.063960	-0.041913	-0.035019	-0.631836	0.313965	0.644531	0.122675	-0.720381	0.289023	-0.618440
26373		8.367758	-4.781314	-1.946110	0.032128	-0.017350	-0.043131	-0.629395	0.303711	0.646973	0.122709	-0.720533	0.288621	-0.618444
26374		8.234357	-4.943230	-2.167559	-0.005608	0.002184	-0.041628	-0.633301	0.318848	0.653564	0.122448	-0.720629	0.288460	-0.618459
26375		8.229955	-4.918953	-2.090535	-0.028644	0.009368	-0.029562	-0.631592	0.318848	0.646240	0.122139	-0.720682	0.288479	-0.618450
26376		8.320026	-4.936038	-2.039371	-0.052693	0.023415	-0.000622	-0.627930	0.299805	0.645752	0.121804	-0.720610	0.288801	-0.618449
26377		8.270364	-5.011404	-1.993395	-0.082618	0.045850	0.005476	-0.632324	0.312012	0.647461	0.121213	-0.720447	0.289366	-0.618491
26378		8.163227	-4.983668	-1.977732	-0.107918	0.059110	0.006440	-0.627441	0.306641	0.651367	0.120481	-0.720233	0.290058	-0.618559
26379		8.094420	-5.061260	-2.018750	-0.122589	0.073561	0.006213	-0.635010	0.308350	0.646973	0.119615	-0.719969	0.290856	-0.618660
26380		8.040613	-5.167794	-2.060382	-0.111539	0.058263	0.007038	-0.639893	0.307129	0.645508	0.118860	-0.719759	0.291566	-0.618715
26381		8.015340	-5.355872	-2.019945	-0.069449	0.040971	0.006780	-0.629883	0.307861	0.656250	0.118395	-0.719593	0.292033	-0.618778
26382		7.860636	-5.367357	-2.091043	-0.053902	0.035254	-0.013086	-0.633545	0.301025	0.650635	0.117946	-0.719507	0.292323	-0.618826
26383		7.740819	-5.565759	-2.202431	0.007628	0.003814	-0.050581	-0.633789	0.297363	0.648438	0.117728	-0.719608	0.292036	-0.618885
26384		7.831090	-5.457100	-2.262919	0.085861	-0.047282	-0.060164	-0.632568	0.305664	0.654297	0.118044	-0.719917	0.291242	-0.618841
26385		8.085173	-5.161745	-2.223399	0.139261	-0.076543	-0.055421	-0.636230	0.302979	0.652344	0.118800	-0.720315	0.290171	-0.618735
26386		8.434278	-4.905797	-2.023059	0.131123	-0.071290	-0.041349	-0.636475	0.308105	0.655762	0.119553	-0.720655	0.289227	-0.618636
26387		8.469153	-4.672478	-1.902511	0.065984	-0.028143	-0.022915	-0.632080	0.305908	0.649902	0.119917	-0.720795	0.288769	-0.618617
26388		8.435863	-4.614863	-1.914618	-0.013226	0.025584	-0.016173	-0.633545	0.311035	0.649902	0.119707	-0.720718	0.288812	-0.618727
26389		8.233388	-4.909991	-1.977505	-0.056332	0.053766	-0.018894	-0.631348	0.313965	0.650391	0.119172	-0.720543	0.289078	-0.618910
26390		8.079477	-5.113425	-2.057955	-0.059838	0.052005	-0.009836	-0.635498	0.297852	0.645264	0.118680	-0.720361	0.289415	-0.619059
26391		8.042663	-5.145805	-1.928604	-0.049064	0.031451	0.012029	-0.633057	0.302490	0.644287	0.118367	-0.720219	0.289814	-0.619098
26392		8.007276	-5.312024	-1.935260	-0.065021	0.033792	0.021532	-0.634766	0.307129	0.647461	0.118019	-0.720056	0.290350	-0.619102
26393		8.057595	-5.404391	-1.983974	-0.055026	0.032591	0.016343	-0.630127	0.307617	0.648438	0.117720	-0.719902	0.290798	-0.619127
26394		8.090330	-5.305761	-1.917616	-0.056194	0.045526	0.001911	-0.643311	0.304443	0.644287	0.117314	-0.719722	0.291188	-0.619232
26395		8.094534	-5.257212	-1.894017	-0.073836	0.051101	-0.019608	-0.631348	0.309814	0.649658	0.116662	-0.719570	0.291519	-0.619375
26396		7.967146	-5.267944	-1.926424	-0.095718	0.055590	-0.023591	-0.634521	0.304688	0.656006	0.115874	-0.719437	0.291966	-0.619467
26397		7.914211	-5.416780	-1.992279	-0.092353	0.047892	-0.021177	-0.637207	0.296387	0.645020	0.115122	-0.719340	0.292416	-0.619507
26398		7.879084	-5.556780	-2.003752	-0.086716	0.048665	-0.017133	-0.640381	0.302979	0.642822	0.114403	-0.719213	0.292849	-0.619583
26399		7.816701	-5.630347	-2.033290	-0.071010	0.039963	-0.012994	-0.647461	0.303223	0.649902	0.113840	-0.719099	0.293199	-0.619654
26400		7.760134	-5.597357	-2.067386	-0.061609	0.024919	-0.025331	-0.636475	0.302979	0.643555	0.113305	-0.719087	0.293412	-0.619666
26401		7.700700	-5.764565	-2.192394	-0.027970	0.003472	-0.032034	-0.638184	0.294922	0.648193	0.112999	-0.719168	0.293401	-0.619632
26402		7.866094	-5.646101	-2.094326	0.023080	-0.026815	-0.036970	-0.646973	0.299805	0.643066	0.113024	-0.719376	0.293087	-0.619536
26403		8.039914	-5.382727	-2.131803	0.030226	-0.024209	-0.031090	-0.643311	0.306396	0.650635	0.113124	-0.719536	0.292741	-0.619494
26404		8.184131	-5.068757	-2.042171	0.017124	-0.001672	-0.033706	-0.643555	0.303223	0.643066	0.113099	-0.719606	0.292479	-0.619542
26405		8.180520	-4.971324	-2.054288	-0.031752	0.026568	-0.033376	-0.634033	0.295654	0.648682	0.112704	-0.719569	0.292488	-0.619652
26406		8.089250	-5.066509	-2.146220	-0.068604	0.044236	-0.031288	-0.640869	0.299316	0.653076	0.112043	-0.719483	0.292755	-0.619746
26407		8.064948	-5.097558	-2.052794	-0.087334	0.054461	-0.025520	-0.638428	0.292236	0.650146	0.111283	-0.719347	0.293152	-0.619853
26408		7.982249	-5.269919	-2.090492	-0.092946	0.042150	-0.017156	-0.641846	0.296143	0.645264	0.110548	-0.719259	0.293626	-0.619862
26409		8.046124	-5.307568	-1.997576	-0.082164	0.026761	-0.007846	-0.642090	0.291016	0.640381	0.109976	-0.719210	0.294064	-0.619813
26410		8.169336	-5.107438	-1.947906	-0.064691	0.011684	-0.000880	-0.639893	0.294434	0.647949	0.109570	-0.719202	0.294438	-0.619717
26411		8.265060	-4.922226	-1.886500	-0.080571	0.027550	-0.002980	-0.639404	0.297119	0.656006	0.109032	-0.719138	0.294906	-0.619663
26412		8.251047	-4.829761	-1.929229	-0.113815	0.048082	-0.012149	-0.645264	0.295166	0.646484	0.108207	-0.719028	0.295518	-0.619644
26413		8.217395	-4.946276	-1.931973	-0.133558	0.058846	-0.026114	-0.648193	0.289551	0.648193	0.107160	-0.718902	0.296132	-0.619680
26414		8.095145	-5.167835	-1.890804	-0.146822	0.059353	-0.039326	-0.642334	0.283203	0.651123	0.105951	-0.718818	0.296739	-0.619694
26415		7.968675	-5.373338	-2.023065	-0.147738	0.056782	-0.045549	-0.639648	0.281738	0.653320	0.104703	-0.718770	0.297335	-0.619677
26416		7.920185	-5.546237	-2.076658	-0.111753	0.041912	-0.050524	-0.646729	0.279297	0.651611	0.103685	-0.718782	0.297710	-0.619654
26417		7.806048	-5.576202	-2.160263	-0.062723	0.029650	-0.056857	-0.642334	0.277344	0.651123	0.102952	-0.718824	0.297771	-0.619697
26418		7.951166	-5.411947	-2.136122	-0.030626	0.002336	-0.055859	-0.646729	0.279541	0.656494	0.102485	-0.718980	0.297660	-0.619648
26419		7.960356	-5.258463	-2.192092	-0.036291	0.002625	-0.068398	-0.651855	0.279053	0.649902	0.101924	-0.719170	0.297500	-0.619596
26420		8.019482	-5.224348	-2.291564	-0.030684	0.006724	-0.088289	-0.645996	0.276611	0.647949	0.101283	-0.719375	0.297176	-0.619619
26421		7.921104	-5.349344	-2.315919	-0.009215	0.006515	-0.108097	-0.651123	0.276367	0.649170	0.100669	-0.719612	0.296631	-0.619704
26422		8.042729	-5.340633	-2.379414	0.040210	-0.002249	-0.114445	-0.646973	0.278564	0.649658	0.100340	-0.719867	0.295780	-0.619869
26423		8.100626	-5.134154	-2.202370	0.058491	-0.001222	-0.098066	-0.654053	0.272217	0.648438	0.100215	-0.720062	0.294938	-0.620064
26424		8.280744	-4.876142	-2.057497	0.047391	-0.012389	-0.082457	-0.648926	0.271973	0.645752	0.100108	-0.720281	0.294235	-0.620160
26425		8.338555	-4.716411	-2.157638	0.023316	-0.018723	-0.083189	-0.649414	0.270996	0.659668	0.099874	-0.720556	0.293650	-0.620157
26426		8.347402	-4.665693	-2.196061	0.001265	-0.003038	-0.084165	-0.645752	0.272949	0.650146	0.099461	-0.720784	0.293207	-0.620167
26427		8.434141	-4.620046	-2.010260	-0.017803	-0.006717	-0.095268	-0.650879	0.267578	0.647705	0.098897	-0.721066	0.292778	-0.620132
26428		8.417320	-4.580720	-2.039418	-0.038790	0.008490	-0.102763	-0.650879	0.278564	0.653320	0.098117	-0.721301	0.292418	-0.620154
26429		8.385674	-4.727338	-2.112652	-0.064871	0.018868	-0.106186	-0.652100	0.269043	0.652832	0.097172	-0.721513	0.292171	-0.620172
26430		8.298915	-4.779211	-2.074155	-0.061589	0.024810	-0.111047	-0.647705	0.267334	0.649414	0.096185	-0.721705	0.291890	-0.620234
26431		8.317542	-4.854645	-2.064917	-0.048697	0.010603	-0.110506	-0.649902	0.270752	0.658447	0.095317	-0.721958	0.291536	-0.620241
26432		8.346513	-4.842638	-2.042963	-0.039293	-0.007613	-0.100907	-0.654053	0.264648	0.650879	0.094613	-0.722280	0.291179	-0.620141
26433		8.268041	-4.813941	-2.161390	-0.046314	0.008484	-0.081628	-0.651367	0.260010	0.657227	0.093911	-0.722469	0.290976	-0.620123
26434		8.342734	-4.825299	-2.104378	-0.035907	0.001273	-0.063692	-0.662598	0.261719	0.659668	0.093376	-0.722652	0.290838	-0.620055
26435		8.341948	-4.821098	-2.027305	-0.037245	0.000457	-0.050835	-0.658203	0.260498	0.657715	0.092901	-0.722804	0.290767	-0.619983
26436		8.321956	-4.752416	-2.000715	-0.046702	0.011082	-0.037401	-0.651123	0.259033	0.651123	0.092415	-0.722876	0.290837	-0.619938
26437		8.305980	-4.783068	-2.146611	-0.045436	0.005423	-0.035594	-0.649658	0.247314	0.645752	0.091963	-0.722970	0.290910	-0.619862
26438		8.253078	-4.769839	-2.179862	-0.027746	-0.007187	-0.039051	-0.655273	0.251221	0.644287	0.091602	-0.723123	0.290868	-0.619756
26439		8.307318	-4.750316	-2.154173	-0.007315	-0.014129	-0.039817	-0.653809	0.246826	0.652832	0.091385	-0.723291	0.290697	-0.619673
26440		8.332326	-4.709103	-2.168496	0.013063	-0.018987	-0.040558	-0.646729	0.247803	0.651855	0.091290	-0.723481	0.290428	-0.619591
26441		8.370023	-4.740249	-2.052131	0.013614	-0.022977	-0.032275	-0.656494	0.248047	0.643799	0.091259	-0.723675	0.290209	-0.619472
26442		8.359232	-4.775571	-1.982071	0.000740	-0.009898	-0.029733	-0.649658	0.257812	0.648193	0.091126	-0.723788	0.290059	-0.619429
26443		8.341560	-4.742156	-2.090433	-0.003200	-0.010997	-0.025836	-0.656006	0.254395	0.658203	0.091024	-0.723907	0.289952	-0.619355
26444		8.296898	-4.747045	-2.200545	-0.016936	-0.002636	-0.018947	-0.648682	0.257812	0.649170	0.090842	-0.723984	0.289971	-0.619283
26445		8.281330	-4.807524	-2.157401	-0.009347	-0.019614	-0.021587	-0.662598	0.249756	0.653076	0.090748	-0.724143	0.289916	-0.619136
26446		8.265307	-4.834805	-2.228281	0.003300	-0.024380	-0.024034	-0.653076	0.257568	0.652588	0.090699	-0.724319	0.289776	-0.619003
26447		8.244874	-4.875931	-2.187020	0.029098	-0.035815	-0.020609	-0.650879	0.258789	0.652344	0.090879	-0.724530	0.289513	-0.618853
26448		8.317785	-4.783596	-2.055195	0.036623	-0.037058	-0.017847	-0.654053	0.255859	0.649658	0.091126	-0.724735	0.289228	-0.618710
26449		8.348438	-4.731783	-2.166991	0.037643	-0.028098	-0.014816	-0.652832	0.250732	0.654541	0.091362	-0.724881	0.288960	-0.618630
26450		8.331324	-4.739606	-2.222959	0.041771	-0.025877	-0.014545	-0.648438	0.253662	0.656250	0.091605	-0.725019	0.288686	-0.618560
26451		8.341397	-4.719961	-2.152008	0.027339	-0.023106	-0.015982	-0.651367	0.251221	0.658447	0.091757	-0.725162	0.288481	-0.618465
26452		8.349482	-4.706484	-2.156896	0.008664	-0.007868	-0.015445	-0.656006	0.249023	0.651367	0.091753	-0.725240	0.288389	-0.618418
26453		8.302490	-4.797867	-2.251906	0.011203	-0.006502	-0.014869	-0.650635	0.256348	0.655029	0.091755	-0.725296	0.288281	-0.618402
26454		8.313509	-4.810713	-2.067632	0.026868	-0.026562	-0.011708	-0.650879	0.253662	0.650391	0.091940	-0.725442	0.288094	-0.618290
26455		8.360021	-4.731934	-2.018491	0.003982	-0.014746	0.001234	-0.653320	0.254395	0.653320	0.092016	-0.725508	0.288112	-0.618193
26456		8.269099	-4.832581	-2.208597	-0.005591	0.000076	0.009524	-0.648193	0.251221	0.663818	0.092042	-0.725487	0.288239	-0.618155
26457		8.256580	-4.870424	-2.230539	-0.002854	0.002574	0.014291	-0.655762	0.258301	0.658203	0.092098	-0.725457	0.288398	-0.618108
26458		8.343356	-4.778998	-2.117944	-0.000031	-0.010634	0.008369	-0.655029	0.255371	0.656250	0.092185	-0.725491	0.288479	-0.618017
26459		8.295284	-4.791345	-2.134139	-0.015633	-0.006368	0.005080	-0.647949	0.258301	0.661133	0.092143	-0.725522	0.288627	-0.617918
26460		8.246509	-4.839675	-2.206990	-0.032999	0.000092	0.004257	-0.656982	0.252686	0.644775	0.091990	-0.725546	0.288867	-0.617800
26461		8.217198	-4.953452	-2.228819	-0.024732	0.004592	-0.000471	-0.653809	0.251221	0.664307	0.091829	-0.725525	0.289031	-0.617772
26462		8.199486	-5.008897	-2.215779	-0.007637	-0.000970	0.001464	-0.646484	0.255371	0.656494	0.091796	-0.725542	0.289130	-0.617711
26463		8.220922	-4.906633	-2.192470	0.010801	-0.011079	0.003103	-0.650879	0.259277	0.650635	0.091923	-0.725588	0.289130	-0.617638
26464		8.288261	-4.874722	-2.235727	0.019177	-0.024502	0.003485	-0.649902	0.258057	0.659912	0.092140	-0.725683	0.289070	-0.617522
26465		8.268408	-4.822854	-2.069715	0.005249	-0.027762	-0.001243	-0.645264	0.250977	0.654297	0.092254	-0.725829	0.289057	-0.617339
26466		8.276974	-4.745768	-2.196659	0.002918	-0.027952	-0.002908	-0.651123	0.253906	0.659912	0.092330	-0.725981	0.289054	-0.617151
26467		8.253384	-4.838032	-2.348600	0.005611	-0.012837	0.004083	-0.656006	0.258545	0.656250	0.092426	-0.726036	0.289086	-0.617056
26468		8.408458	-4.713894	-2.278742	0.032009	-0.025010	0.008360	-0.644775	0.254395	0.666748	0.092739	-0.726112	0.288991	-0.616965
26469		8.434735	-4.571621	-2.280017	0.025377	-0.024372	0.008591	-0.644287	0.256592	0.654297	0.093010	-0.726214	0.288944	-0.616825
26470		8.519832	-4.383784	-2.151938	0.000084	-0.011659	0.011498	-0.653320	0.258057	0.656250	0.093116	-0.726248	0.289047	-0.616722
26471		8.549984	-4.367222	-2.150082	-0.038466	0.016062	0.014999	-0.648926	0.251953	0.656738	0.092936	-0.726153	0.289386	-0.616701
26472		8.445128	-4.501685	-2.204980	-0.066388	0.038975	0.016377	-0.642822	0.253906	0.663818	0.092527	-0.725966	0.289901	-0.616741
26473		8.397610	-4.605681	-2.173957	-0.068194	0.036877	0.023010	-0.656250	0.255127	0.663330	0.092159	-0.725790	0.290464	-0.616738
26474		8.366263	-4.646448	-2.188920	-0.073101	0.044751	0.025053	-0.644775	0.259766	0.659424	0.091748	-0.725559	0.291064	-0.616789
26475		8.361388	-4.627470	-2.189716	-0.072803	0.048012	0.030265	-0.650879	0.242676	0.661377	0.091378	-0.725302	0.291691	-0.616849
26476		8.278738	-4.840786	-2.223015	-0.075066	0.069005	0.022432	-0.649170	0.254150	0.655518	0.090858	-0.724961	0.292316	-0.617032
26477		8.273161	-4.871444	-2.321209	-0.076233	0.073673	0.018435	-0.656250	0.253174	0.653809	0.090329	-0.724596	0.292912	-0.617255
26478		8.201021	-4.849865	-2.391698	-0.076180	0.054746	0.015010	-0.651367	0.250488	0.652588	0.089824	-0.724329	0.293472	-0.617376
26479		8.221268	-4.879339	-2.284180	-0.077833	0.049576	0.019440	-0.647217	0.250977	0.655762	0.089343	-0.724083	0.294067	-0.617452
26480		8.237165	-4.841415	-2.248042	-0.080401	0.044939	0.026150	-0.655273	0.250244	0.653809	0.088899	-0.723854	0.294711	-0.617476
26481		8.268822	-4.855142	-2.225039	-0.072958	0.048856	0.032142	-0.650635	0.252930	0.644043	0.088514	-0.723575	0.295356	-0.617551
26482		8.285130	-4.849244	-2.168417	-0.071270	0.051848	0.032879	-0.649902	0.249023	0.661621	0.088146	-0.723267	0.295995	-0.617659
26483		8.311097	-4.791158	-2.152539	-0.077316	0.054916	0.031893	-0.645264	0.251465	0.650879	0.087723	-0.722977	0.296665	-0.617737
26484		8.212193	-4.816596	-2.194792	-0.091687	0.065113	0.029367	-0.648193	0.247559	0.645264	0.087186	-0.722640	0.297398	-0.617855
26485		8.216756	-4.859237	-2.204588	-0.094686	0.063534	0.025623	-0.655762	0.249023	0.643311	0.086604	-0.722314	0.298126	-0.617967
26486		8.344490	-4.880131	-2.131595	-0.077448	0.050763	0.019080	-0.649902	0.256104	0.652832	0.086123	-0.722045	0.298715	-0.618064
26487		8.368315	-4.685072	-2.148066	-0.073084	0.047859	0.017152	-0.652100	0.248291	0.656982	0.085692	-0.721811	0.299257	-0.618135
26488		8.421527	-4.556500	-2.148704	-0.110714	0.067605	0.018956	-0.661621	0.245117	0.658447	0.084976	-0.721504	0.300025	-0.618220
26489		8.409514	-4.617359	-2.089336	-0.154287	0.092555	0.020778	-0.652344	0.248047	0.654297	0.083932	-0.721087	0.301048	-0.618352
26490		8.398558	-4.677272	-2.199210	-0.173519	0.111589	0.023314	-0.660156	0.251709	0.657959	0.082757	-0.720582	0.302191	-0.618542
26491		8.273026	-4.753914	-2.195922	-0.181157	0.113752	0.022400	-0.660400	0.244141	0.649658	0.081534	-0.720067	0.303363	-0.618730
26492		8.236583	-4.802064	-2.208181	-0.178951	0.109505	0.028038	-0.656494	0.242432	0.650879	0.080348	-0.719548	0.304562	-0.618900
26493		8.331676	-4.813506	-2.233771	-0.177283	0.101729	0.037907	-0.659424	0.246582	0.650879	0.079246	-0.719049	0.305803	-0.619010
26494		8.363010	-4.717038	-2.146167	-0.188777	0.106842	0.048186	-0.658447	0.249268	0.652344	0.078128	-0.718499	0.307162	-0.619118
26495		8.185292	-4.870123	-2.139507	-0.227987	0.133863	0.057270	-0.659668	0.238037	0.648193	0.076765	-0.717813	0.308787	-0.619276
26496		8.016494	-5.140700	-2.216443	-0.242230	0.146121	0.055397	-0.658936	0.235352	0.645508	0.075251	-0.717071	0.310492	-0.619469
26497		7.894440	-5.378291	-2.266421	-0.206385	0.124415	0.049663	-0.664795	0.243408	0.645996	0.073976	-0.716429	0.311965	-0.619625
26498		7.826171	-5.594203	-2.304858	-0.156982	0.096259	0.047993	-0.666504	0.236572	0.644043	0.073080	-0.715895	0.313150	-0.619751
26499		7.789257	-5.548480	-2.286476	-0.099200	0.047691	0.037224	-0.662842	0.238525	0.658691	0.072583	-0.715601	0.313952	-0.619743
26500		7.823010	-5.565039	-2.327887	-0.047160	0.019200	0.024884	-0.668213	0.239258	0.643066	0.072425	-0.715484	0.314376	-0.619682
26501		7.871621	-5.481163	-2.289471	0.001586	-0.000609	0.014408	-0.662842	0.234619	0.654053	0.072543	-0.715431	0.314496	-0.619668
26502		7.970620	-5.333838	-2.223731	0.046515	-0.024600	0.005474	-0.667725	0.234375	0.653320	0.072945	-0.715526	0.314306	-0.619607
26503		8.033662	-5.130820	-2.169066	0.075112	-0.055235	-0.003149	-0.672119	0.239258	0.641602	0.073545	-0.715776	0.313905	-0.619451
26504		8.038447	-5.018456	-2.259307	0.076708	-0.061606	-0.007818	-0.663086	0.234619	0.656738	0.074144	-0.716039	0.313482	-0.619290
26505		8.193008	-4.956559	-2.248970	0.091526	-0.054698	-0.010083	-0.665527	0.237061	0.650391	0.074807	-0.716303	0.312950	-0.619174
26506		8.363061	-4.793264	-2.159550	0.091385	-0.043203	-0.011898	-0.671875	0.233154	0.655029	0.075426	-0.716494	0.312426	-0.619142
26507		8.517656	-4.600624	-2.068535	0.070922	-0.034220	-0.011491	-0.668457	0.238525	0.657715	0.075884	-0.716652	0.312021	-0.619108
26508		8.477978	-4.546065	-2.092892	0.007700	-0.004004	-0.010811	-0.660889	0.241211	0.652588	0.075907	-0.716699	0.311954	-0.619085
26509		8.553024	-4.587181	-2.200667	-0.023945	0.024996	-0.000663	-0.663086	0.244141	0.654541	0.075729	-0.716590	0.312123	-0.619147
26510		8.410696	-4.667182	-2.179637	-0.073664	0.068592	0.004409	-0.657227	0.245605	0.656982	0.075174	-0.716274	0.312603	-0.619337
26511		8.094595	-4.956192	-2.287753	-0.095259	0.073814	0.004874	-0.657959	0.235107	0.656250	0.074494	-0.715958	0.313186	-0.619491
26512		8.247332	-5.165639	-2.246528	-0.049677	0.049697	0.012520	-0.660400	0.233398	0.655762	0.074165	-0.715722	0.313569	-0.619610
26513		8.329158	-5.114243	-2.118018	-0.027858	0.052400	0.033160	-0.663086	0.231445	0.656494	0.074060	-0.715401	0.313968	-0.619791
26514		8.137859	-4.927197	-2.185074	-0.041607	0.061400	0.049218	-0.667725	0.237549	0.645020	0.073926	-0.715000	0.314542	-0.619979
26515		8.037387	-4.854169	-2.389660	-0.040581	0.051469	0.048754	-0.664795	0.240723	0.645752	0.073823	-0.714619	0.315123	-0.620135
26516		8.242629	-4.795986	-2.388533	-0.008216	0.025135	0.032375	-0.662109	0.237549	0.648926	0.073908	-0.714401	0.315417	-0.620226
26517		8.302806	-4.644946	-2.264782	-0.007585	0.017493	0.017396	-0.672852	0.235840	0.643555	0.073937	-0.714276	0.315603	-0.620272
26518		8.279788	-4.691105	-2.221474	-0.034293	0.038201	0.004393	-0.664795	0.233887	0.641357	0.073665	-0.714068	0.315890	-0.620398
26519		8.143725	-5.056347	-2.253289	-0.053272	0.064065	-0.008672	-0.677734	0.237793	0.651123	0.073149	-0.713783	0.316203	-0.620628
26520		8.073397	-5.196942	-2.291817	0.000615	0.038381	-0.012670	-0.669678	0.229492	0.656006	0.073004	-0.713606	0.316197	-0.620851
26521		7.942247	-5.211996	-2.263009	0.048790	0.022963	-0.004983	-0.664795	0.234619	0.651855	0.073222	-0.713490	0.315957	-0.621081
26522		7.970198	-5.157363	-2.315193	0.081072	-0.015267	-0.009017	-0.667969	0.236572	0.649170	0.073725	-0.713558	0.315502	-0.621174
26523		7.958248	-5.163650	-2.353510	0.128786	-0.061962	-0.016793	-0.668701	0.236328	0.645020	0.074590	-0.713848	0.314735	-0.621128
26524		8.027419	-5.197958	-2.168847	0.178260	-0.097200	-0.027796	-0.670898	0.240967	0.646484	0.075777	-0.714305	0.313637	-0.621014
26525		8.107257	-5.035645	-2.159470	0.180849	-0.099929	-0.033708	-0.662354	0.241211	0.645996	0.076958	-0.714783	0.312492	-0.620896
26526		8.098853	-5.005590	-2.127744	0.173941	-0.088849	-0.039852	-0.666748	0.243652	0.652588	0.078043	-0.715233	0.311341	-0.620820
26527		7.993797	-5.096764	-2.239684	0.199986	-0.114698	-0.048050	-0.657715	0.250488	0.644287	0.079309	-0.715823	0.309984	-0.620659
26528		7.991365	-4.997620	-2.325801	0.246352	-0.152974	-0.049517	-0.662842	0.246582	0.644531	0.080956	-0.716571	0.308357	-0.620393
26529		8.082750	-4.984188	-2.369674	0.288761	-0.179676	-0.056585	-0.663330	0.250244	0.655273	0.082865	-0.717434	0.306463	-0.620083
26530		8.441003	-4.803415	-2.127629	0.332136	-0.197479	-0.067039	-0.647461	0.256104	0.648682	0.085032	-0.718395	0.304249	-0.619766
26531		8.525369	-4.597279	-1.979362	0.317481	-0.176014	-0.073194	-0.656982	0.241943	0.653809	0.087043	-0.719270	0.302075	-0.619536
26532		8.733787	-4.468856	-1.842321	0.259639	-0.136686	-0.073401	-0.650635	0.257812	0.655762	0.088559	-0.719981	0.300239	-0.619388
26533		8.562655	-4.341051	-1.962324	0.181854	-0.094393	-0.064456	-0.654541	0.260254	0.647705	0.089586	-0.720509	0.298870	-0.619289
26534		8.394709	-4.545897	-1.991592	0.137134	-0.081698	-0.053204	-0.656494	0.252441	0.653320	0.090362	-0.720948	0.297833	-0.619164
26535		8.326834	-4.819014	-1.919367	0.126811	-0.098067	-0.025296	-0.649658	0.258789	0.656738	0.091241	-0.721423	0.296999	-0.618883
26536		8.336299	-4.871571	-1.781639	0.123805	-0.116853	0.006532	-0.653076	0.260498	0.653809	0.092334	-0.721929	0.296337	-0.618448
26537		8.262250	-4.977238	-1.784890	0.113164	-0.134423	0.034535	-0.645508	0.259277	0.650879	0.093543	-0.722447	0.295901	-0.617870
26538		8.371656	-4.741769	-1.973263	0.094666	-0.109679	0.040199	-0.642334	0.263428	0.658447	0.094606	-0.722839	0.295612	-0.617387
26539		8.475204	-4.427067	-2.107729	0.091688	-0.088867	-0.000203	-0.645996	0.264160	0.657959	0.095406	-0.723242	0.295091	-0.617042
26540		8.452913	-4.536971	-2.104072	0.054898	-0.046132	-0.040293	-0.657715	0.264893	0.647705	0.095665	-0.723543	0.294561	-0.616902
26541		8.321454	-4.610817	-2.220555	0.022929	-0.002881	-0.086546	-0.650879	0.270020	0.651611	0.095365	-0.723717	0.293996	-0.617014
26542		8.334083	-4.807797	-2.186547	0.052587	0.013143	-0.106895	-0.648682	0.253906	0.662109	0.095126	-0.723852	0.293143	-0.617298
26543		8.034082	-5.181095	-2.287776	0.045167	0.031156	-0.089606	-0.648193	0.261963	0.659912	0.094863	-0.723894	0.292423	-0.617630
26544		7.927741	-5.415422	-2.455758	0.075119	-0.002439	-0.066064	-0.648926	0.260986	0.651367	0.095003	-0.724021	0.291663	-0.617819
26545		7.999006	-5.450001	-2.434364	0.116663	-0.042506	-0.027896	-0.650391	0.265137	0.653809	0.095679	-0.724209	0.290909	-0.617850
26546		8.137742	-5.276155	-2.347206	0.128103	-0.068130	-0.001818	-0.644287	0.263672	0.657471	0.096626	-0.724456	0.290231	-0.617732
26547		8.271099	-4.852885	-2.070050	0.093452	-0.062611	0.014335	-0.650391	0.270020	0.655029	0.097436	-0.724680	0.289817	-0.617536
26548		8.347032	-4.735882	-2.099627	0.019730	-0.014753	0.017207	-0.643311	0.268799	0.656006	0.097700	-0.724690	0.289856	-0.617464
26549		8.244199	-4.817955	-2.148017	-0.016712	0.011021	0.009619	-0.647949	0.265381	0.654785	0.097649	-0.724630	0.290043	-0.617455
26550		8.185211	-4.957708	-2.137286	-0.012228	0.013475	-0.003905	-0.642334	0.265625	0.647705	0.097535	-0.724578	0.290139	-0.617489
26551		8.053025	-5.077067	-2.200862	0.011967	-0.019900	-0.009777	-0.642090	0.255371	0.650635	0.097622	-0.724687	0.290052	-0.617388
26552		8.055188	-5.057841	-2.346105	0.038256	-0.034249	-0.006513	-0.639404	0.260986	0.661133	0.097897	-0.724852	0.289837	-0.617252
26553		8.226000	-5.008242	-2.208209	0.056950	-0.048483	0.001379	-0.642822	0.268311	0.651123	0.098382	-0.725077	0.289535	-0.617053
26554		8.322462	-4.940450	-2.144158	0.057043	-0.049521	0.009772	-0.644287	0.262939	0.651855	0.098916	-0.725255	0.289308	-0.616864
26555		8.259511	-4.872090	-2.154831	0.017106	-0.031972	0.010268	-0.655762	0.265625	0.660645	0.099152	-0.725376	0.289310	-0.616684
26556		8.178658	-4.917626	-2.218247	0.003881	-0.020062	-0.002926	-0.637695	0.268799	0.654297	0.099208	-0.725474	0.289314	-0.616557
26557		8.058368	-5.076355	-2.264891	0.018630	-0.022691	0.000486	-0.644043	0.265869	0.656738	0.099403	-0.725579	0.289238	-0.616437
26558		8.177584	-5.063943	-2.166550	0.058701	-0.037056	0.014682	-0.631348	0.273926	0.656738	0.099933	-0.725686	0.289041	-0.616318
26559		8.240971	-4.917330	-2.182474	0.041439	-0.031611	0.032864	-0.641846	0.271729	0.660645	0.100469	-0.725751	0.289021	-0.616164
26560		8.339240	-4.751958	-2.182316	0.018374	-0.014486	0.042739	-0.647705	0.262695	0.655029	0.100858	-0.725715	0.289208	-0.616056
26561		8.421764	-4.604139	-2.111107	0.002912	-0.000618	0.034228	-0.642334	0.264648	0.656738	0.101043	-0.725624	0.289463	-0.616013
26562		8.520257	-4.410120	-1.942126	-0.038619	0.028789	0.031981	-0.638184	0.275146	0.659668	0.100906	-0.725433	0.289927	-0.616041
26563		8.535165	-4.273729	-1.984140	-0.111545	0.065635	0.019057	-0.645508	0.268311	0.653076	0.100203	-0.725154	0.290697	-0.616122
26564		8.396312	-4.558265	-2.218492	-0.175016	0.092728	0.016762	-0.649902	0.273926	0.662109	0.099014	-0.724772	0.291827	-0.616229
26565		8.123975	-5.122873	-2.320537	-0.175656	0.098657	0.013570	-0.642334	0.266357	0.655029	0.097807	-0.724376	0.292929	-0.616365
26566		8.060051	-5.288734	-2.150921	-0.125632	0.066350	0.024647	-0.652100	0.268066	0.655518	0.097032	-0.724079	0.293815	-0.616415
26567		8.139982	-5.051351	-1.952115	-0.108714	0.041626	0.032751	-0.651123	0.270020	0.656006	0.096455	-0.723859	0.294658	-0.616361
26568		8.125353	-4.947881	-2.199951	-0.130299	0.053230	0.029517	-0.647217	0.263672	0.661377	0.095711	-0.723606	0.295597	-0.616325
26569		7.910109	-5.352277	-2.306857	-0.124919	0.067727	0.021136	-0.647461	0.262939	0.657471	0.094918	-0.723313	0.296453	-0.616380
26570		7.956977	-5.421048	-2.373360	-0.062838	0.050445	0.016531	-0.647217	0.271729	0.652344	0.094517	-0.723063	0.296956	-0.616492
26571		8.035080	-5.292683	-2.167482	-0.005004	0.016152	0.013717	-0.647461	0.263672	0.656250	0.094552	-0.722938	0.297122	-0.616554
26572		7.859758	-5.296739	-2.389719	0.019281	0.005014	0.004826	-0.646484	0.259521	0.660889	0.094699	-0.722884	0.297100	-0.616606
26573		7.935149	-5.176883	-2.522333	0.080579	-0.041085	-0.001889	-0.643555	0.255859	0.652100	0.095290	-0.723047	0.296678	-0.616527
26574		8.135244	-4.906939	-2.562001	0.126983	-0.062519	-0.011967	-0.652344	0.264404	0.654785	0.096149	-0.723296	0.295957	-0.616448
26575		8.460158	-4.587857	-2.338798	0.146478	-0.069975	-0.018999	-0.653320	0.264648	0.651855	0.097114	-0.723570	0.295094	-0.616388
26576		8.679254	-4.137354	-2.196633	0.110235	-0.040967	-0.017222	-0.640869	0.265869	0.659912	0.097791	-0.723712	0.294461	-0.616418
26577		8.780192	-4.008473	-2.057556	0.018844	0.039632	-0.010791	-0.648682	0.261475	0.658691	0.097772	-0.723533	0.294361	-0.616678
26578		8.685400	-4.183438	-2.007408	-0.056839	0.083341	-0.003402	-0.653076	0.268311	0.653076	0.097209	-0.723163	0.294747	-0.617017
26579		8.576643	-4.244943	-1.971181	-0.124063	0.104123	0.011603	-0.648438	0.259766	0.659912	0.096277	-0.722684	0.295592	-0.617319
26580		8.473725	-4.457253	-2.101000	-0.200799	0.146084	0.025177	-0.644287	0.269775	0.647217	0.094844	-0.722043	0.296927	-0.617651
26581		8.332730	-4.819586	-2.167772	-0.238232	0.160639	0.029879	-0.652100	0.264160	0.647949	0.093199	-0.721322	0.298494	-0.617988
26582		8.248709	-5.048098	-2.058002	-0.237781	0.166049	0.025256	-0.650879	0.259277	0.652588	0.091505	-0.720575	0.300045	-0.618362
26583		8.244252	-5.074964	-1.894887	-0.254264	0.164483	0.022601	-0.650391	0.254150	0.658447	0.089703	-0.719866	0.301649	-0.618671
26584		8.088254	-5.194386	-1.982896	-0.274193	0.189493	0.015498	-0.656738	0.247803	0.641113	0.087681	-0.719073	0.303315	-0.619068
26585		7.825438	-5.505552	-1.937847	-0.261305	0.190102	0.001176	-0.659424	0.262939	0.655518	0.085638	-0.718261	0.304869	-0.619534
26586		7.532226	-5.826369	-2.285248	-0.215778	0.159956	-0.017038	-0.652588	0.255371	0.650879	0.083897	-0.717634	0.306017	-0.619933
26587		7.531502	-6.102758	-2.416339	-0.101809	0.090921	-0.033696	-0.660889	0.248779	0.647949	0.082923	-0.717332	0.306425	-0.620212
26588		7.515955	-5.972923	-2.407706	0.027260	0.003813	-0.049795	-0.657959	0.251953	0.645752	0.082838	-0.717416	0.306033	-0.620319
