// Start Time: Unknown
// Update Rate: 60.0Hz
// Filter Profile: human (46.1)
// Firmware Version: 4.6.0
PacketCounter	SampleTimeFine	Acc_X	Acc_Y	Acc_Z	Gyr_X	Gyr_Y	Gyr_Z	Mag_X	Mag_Y	Mag_Z	Quat_q0	Quat_q1	Quat_q2	Quat_q3
13074		9.274380	0.647816	2.753179	-0.045784	-0.039760	-0.023990	-0.601562	0.113770	-0.565186	0.778021	-0.102447	-0.589394	-0.191842
13075		9.389009	0.636732	2.807864	-0.030933	-0.023750	-0.018860	-0.600830	0.111572	-0.569092	0.777847	-0.102593	-0.589514	-0.192096
13076		9.475139	0.702809	2.784287	-0.008149	-0.050334	-0.018247	-0.604736	0.112793	-0.573975	0.777567	-0.102632	-0.589840	-0.192212
13077		9.513741	0.793336	2.552986	0.016349	-0.076561	-0.014019	-0.616943	0.117188	-0.570312	0.777181	-0.102580	-0.590374	-0.192157
13078		9.607378	0.839551	2.423731	0.014067	-0.044897	-0.014810	-0.609375	0.121582	-0.572266	0.776945	-0.102486	-0.590706	-0.192147
13079		9.575424	0.896056	2.384439	0.015031	-0.013300	-0.013308	-0.611084	0.116211	-0.564697	0.776857	-0.102340	-0.590845	-0.192150
13080		9.536782	0.917517	2.399977	0.002905	-0.001349	-0.012884	-0.604492	0.125488	-0.572266	0.776807	-0.102250	-0.590902	-0.192223
13081		9.506219	0.863796	2.391886	-0.003897	-0.006073	-0.010687	-0.611084	0.113525	-0.566406	0.776718	-0.102215	-0.590995	-0.192316
13082		9.513535	0.845457	2.391242	0.002575	-0.005205	-0.003365	-0.607666	0.113037	-0.573730	0.776635	-0.102168	-0.591107	-0.192334
13083		9.543155	0.713736	2.419944	0.017096	0.026790	0.003155	-0.607666	0.123291	-0.567871	0.776716	-0.102003	-0.591050	-0.192268
13084		9.527092	0.686462	2.509938	0.026379	0.038736	0.017934	-0.609131	0.115234	-0.567627	0.776873	-0.101834	-0.590939	-0.192067
13085		9.501002	0.785543	2.548869	0.015163	0.046718	0.027349	-0.609863	0.115967	-0.575684	0.777063	-0.101775	-0.590766	-0.191863
13086		9.445832	0.838146	2.548635	0.015258	0.068957	0.043218	-0.608643	0.116211	-0.564453	0.777376	-0.101753	-0.590449	-0.191578
13087		9.463642	0.827698	2.534904	0.038338	0.083333	0.054130	-0.610596	0.114014	-0.574951	0.777787	-0.101605	-0.590080	-0.191126
13088		9.451379	0.828298	2.531530	0.063600	0.098862	0.059262	-0.606445	0.116699	-0.575439	0.778287	-0.101285	-0.589668	-0.190533
13089		9.438494	0.831048	2.605961	0.088603	0.109893	0.057632	-0.610840	0.125244	-0.577637	0.778848	-0.100770	-0.589237	-0.189844
13090		9.272307	0.801263	2.671417	0.094604	0.093810	0.052264	-0.605469	0.111572	-0.578857	0.779308	-0.100207	-0.588944	-0.189164
13091		9.274690	0.763509	2.540846	0.082695	0.083159	0.044267	-0.598389	0.106689	-0.578613	0.779705	-0.099684	-0.588699	-0.188564
13092		9.314106	0.885749	2.537208	0.063030	0.133015	0.038281	-0.600586	0.116211	-0.577148	0.780328	-0.099180	-0.588097	-0.188130
13093		9.396246	1.026002	2.624351	0.048789	0.161057	0.037081	-0.603027	0.112061	-0.579346	0.781046	-0.098715	-0.587313	-0.187843
13094		9.498202	1.107344	2.717372	0.036451	0.181444	0.037299	-0.600342	0.122314	-0.584473	0.781830	-0.098262	-0.586411	-0.187640
13095		9.490402	1.050155	2.822124	0.036830	0.172346	0.037641	-0.589844	0.119141	-0.589844	0.782540	-0.097800	-0.585589	-0.187487
13096		9.464840	0.939378	2.823802	0.033139	0.148042	0.036764	-0.583984	0.114502	-0.582520	0.783163	-0.097376	-0.584883	-0.187309
13097		9.354869	0.872940	2.760487	0.024915	0.133813	0.035619	-0.592041	0.114746	-0.585449	0.783773	-0.097047	-0.584169	-0.187157
13098		9.291724	0.849723	2.839142	0.017917	0.129375	0.035523	-0.587891	0.114746	-0.593262	0.784282	-0.096720	-0.583568	-0.187069
13099		9.189808	0.898594	2.881561	0.003045	0.140959	0.043074	-0.591553	0.114746	-0.595703	0.784847	-0.096483	-0.582876	-0.186981
13100		9.170949	0.997430	2.917174	-0.019637	0.141903	0.045177	-0.584717	0.118896	-0.588379	0.785370	-0.096357	-0.582183	-0.187010
13101		9.268194	1.077102	2.840072	-0.027658	0.163256	0.052869	-0.596436	0.112549	-0.593506	0.786076	-0.096380	-0.581195	-0.187106
13102		9.390691	1.036878	2.915438	-0.044922	0.193036	0.067308	-0.583496	0.112549	-0.600586	0.786830	-0.096365	-0.580139	-0.187217
13103		9.486491	1.029034	3.009549	-0.066882	0.195320	0.075379	-0.588867	0.115479	-0.602295	0.787669	-0.096539	-0.578953	-0.187272
13104		9.556971	1.162787	3.091315	-0.097115	0.184239	0.081885	-0.571777	0.126221	-0.599609	0.788369	-0.096886	-0.577868	-0.187500
13105		9.537615	1.152506	3.203639	-0.128663	0.144952	0.094026	-0.578369	0.126465	-0.595215	0.789004	-0.097790	-0.576749	-0.187805
13106		9.499007	1.050142	3.182568	-0.138592	0.090375	0.107959	-0.578125	0.126221	-0.597412	0.789336	-0.098868	-0.576000	-0.188141
13107		9.365102	0.866111	3.116568	-0.151587	0.047535	0.125693	-0.570068	0.129150	-0.608887	0.789481	-0.100120	-0.575517	-0.188352
13108		9.378373	0.680917	2.865513	-0.167426	0.033897	0.137813	-0.581787	0.125000	-0.601807	0.789611	-0.101474	-0.575102	-0.188349
13109		9.285967	0.578427	2.925072	-0.189000	0.095658	0.125317	-0.574951	0.138672	-0.604248	0.789927	-0.102738	-0.574334	-0.188684
13110		9.053449	0.499612	3.098368	-0.185555	0.067216	0.103670	-0.570312	0.144531	-0.598633	0.790074	-0.104062	-0.573738	-0.189153
13111		8.878864	0.383514	3.021827	-0.155600	0.013225	0.087410	-0.572998	0.129639	-0.614502	0.790009	-0.105413	-0.573428	-0.189618
13112		8.851507	0.254913	2.912853	-0.121908	0.003188	0.074467	-0.573242	0.142090	-0.599121	0.789965	-0.106013	-0.573408	-0.189525
13113		9.039815	0.299557	2.778890	-0.085100	0.004925	0.071039	-0.575684	0.142578	-0.604736	0.789914	-0.106786	-0.573291	-0.189659
13114		9.310462	0.375738	2.798242	-0.056349	0.072024	0.076254	-0.573975	0.144775	-0.606445	0.790192	-0.107142	-0.572872	-0.189566
13115		9.430675	0.425984	2.943463	-0.030456	0.079566	0.084030	-0.568848	0.141602	-0.602539	0.790542	-0.107373	-0.572443	-0.189268
13116		9.420882	0.442837	3.020320	-0.015781	0.038890	0.085852	-0.566162	0.145996	-0.601318	0.790779	-0.107718	-0.572196	-0.188832
13117		9.332039	0.411024	3.019290	-0.011714	0.004614	0.080036	-0.568848	0.145752	-0.608154	0.790846	-0.108166	-0.572149	-0.188436
13118		9.272693	0.466669	3.016655	-0.008645	-0.000822	0.067612	-0.574463	0.153320	-0.606201	0.790854	-0.108345	-0.572255	-0.187978
13119		9.259024	0.440482	3.017054	-0.006588	0.014647	0.067044	-0.570068	0.150391	-0.601807	0.790848	-0.108552	-0.572315	-0.187701
13120		9.229044	0.367229	3.128568	-0.011694	0.023626	0.069032	-0.570068	0.150146	-0.598389	0.790941	-0.108908	-0.572203	-0.187443
13121		9.222310	0.320435	3.105715	-0.013014	0.013387	0.075309	-0.574219	0.144287	-0.601318	0.790997	-0.109389	-0.572117	-0.187191
13122		9.123543	0.330171	3.051940	-0.018347	0.013565	0.073084	-0.571777	0.151855	-0.597900	0.791044	-0.109699	-0.572105	-0.186849
13123		9.162549	0.297820	3.037587	-0.020093	-0.007170	0.070477	-0.566895	0.155762	-0.606445	0.790972	-0.110240	-0.572164	-0.186653
13124		9.234756	0.210419	2.979859	-0.009868	-0.020089	0.068857	-0.571777	0.160156	-0.603027	0.790903	-0.110640	-0.572315	-0.186246
13125		9.267466	0.199174	2.985830	-0.000045	-0.033478	0.063076	-0.573242	0.149658	-0.603760	0.790699	-0.111062	-0.572612	-0.185949
13126		9.221265	0.249924	2.942783	0.009973	-0.054466	0.062197	-0.577393	0.155273	-0.607910	0.790453	-0.111250	-0.573092	-0.185402
13127		9.276507	0.224207	2.877144	0.018022	-0.061171	0.060573	-0.565186	0.161133	-0.608643	0.790131	-0.111366	-0.573697	-0.184834
13128		9.351381	0.194683	2.813671	0.024833	-0.037773	0.055900	-0.569824	0.158447	-0.601318	0.790029	-0.111556	-0.573982	-0.184267
13129		9.449602	0.227813	2.747487	0.031771	-0.002249	0.053126	-0.573486	0.151855	-0.600830	0.790046	-0.111696	-0.574076	-0.183814
13130		9.448063	0.275755	2.801355	0.030701	0.043103	0.051886	-0.572021	0.149902	-0.602051	0.790264	-0.111638	-0.573941	-0.183336
13131		9.401213	0.302451	3.015551	0.032138	0.019494	0.041244	-0.571045	0.155762	-0.603271	0.790370	-0.111514	-0.573974	-0.182848
13132		9.341857	0.300343	2.943773	0.030623	-0.031126	0.030900	-0.565674	0.153076	-0.604004	0.790204	-0.111524	-0.574324	-0.182458
13133		9.243771	0.277511	2.925797	0.025582	-0.026800	0.020014	-0.566406	0.151855	-0.598145	0.790111	-0.111472	-0.574580	-0.182089
13134		9.227426	0.225959	2.821403	0.030340	0.001786	0.012568	-0.566406	0.158936	-0.606934	0.790126	-0.111381	-0.574654	-0.181847
13135		9.250347	0.213386	2.920472	0.024247	0.060553	0.005390	-0.568115	0.154297	-0.600830	0.790408	-0.111203	-0.574344	-0.181711
13136		9.286332	0.271797	3.049832	0.015280	0.057308	-0.003282	-0.575928	0.151367	-0.600342	0.790621	-0.111062	-0.574078	-0.181712
13137		9.276465	0.335772	3.065184	-0.004036	0.039244	-0.006555	-0.564697	0.152100	-0.604248	0.790648	-0.110988	-0.574022	-0.181814
13138		9.259064	0.438924	3.001328	-0.033088	0.023747	-0.016779	-0.567627	0.157715	-0.598389	0.790688	-0.111074	-0.573880	-0.182034
13139		9.234800	0.464482	2.929647	-0.061824	0.046277	-0.031360	-0.577393	0.158447	-0.600098	0.790708	-0.111439	-0.573578	-0.182676
13140		9.161213	0.469701	3.071037	-0.084444	0.071526	-0.055924	-0.570312	0.152100	-0.608154	0.790692	-0.111744	-0.573239	-0.183622
13141		9.035913	0.525114	3.184175	-0.093529	0.044960	-0.068718	-0.557617	0.151367	-0.611816	0.790651	-0.111846	-0.573002	-0.184475
13142		9.131631	0.386435	3.150708	-0.106494	-0.004095	-0.068730	-0.575684	0.152832	-0.615723	0.790516	-0.112062	-0.572889	-0.185268
13143		9.266095	0.258334	3.063800	-0.123067	-0.011466	-0.068620	-0.570312	0.152832	-0.602539	0.790165	-0.112329	-0.573032	-0.186163
13144		9.428520	0.226574	3.048346	-0.126270	0.021443	-0.064037	-0.573242	0.155762	-0.599609	0.789976	-0.112774	-0.572869	-0.187193
13145		9.425724	0.262829	3.207398	-0.131314	0.052720	-0.052291	-0.558838	0.162109	-0.605713	0.789898	-0.113351	-0.572510	-0.188269
13146		9.384661	0.326969	3.211923	-0.125052	0.016320	-0.040945	-0.567139	0.161621	-0.614502	0.789834	-0.114053	-0.572167	-0.189154
13147		9.420767	0.294014	3.183036	-0.120790	0.017792	-0.028297	-0.569092	0.164062	-0.603516	0.789767	-0.114619	-0.571915	-0.189853
13148		9.440464	0.189829	3.176847	-0.097937	0.009490	-0.020242	-0.567871	0.160400	-0.602539	0.789615	-0.115265	-0.571775	-0.190513
13149		9.438742	0.132746	3.177162	-0.073599	0.003595	-0.008281	-0.566406	0.150635	-0.595703	0.789500	-0.115732	-0.571702	-0.190925
13150		9.430811	0.028863	3.108051	-0.050564	0.005706	0.011762	-0.563232	0.162598	-0.607666	0.789456	-0.115998	-0.571670	-0.191041
13151		9.384578	-0.033989	3.117340	-0.024526	0.050307	0.028471	-0.559814	0.158691	-0.605225	0.789748	-0.116212	-0.571250	-0.190963
13152		9.215847	0.048250	3.218898	-0.004050	0.050098	0.042062	-0.563721	0.166504	-0.609131	0.790103	-0.116305	-0.570837	-0.190672
13153		9.181233	0.118010	3.163851	0.024353	0.012395	0.052323	-0.559814	0.164307	-0.604248	0.790282	-0.116440	-0.570722	-0.190187
13154		9.110604	0.165684	3.111597	0.051591	0.011307	0.054427	-0.561279	0.167236	-0.603271	0.790500	-0.116420	-0.570630	-0.189571
13155		9.077388	0.150280	3.085947	0.078726	0.015483	0.056710	-0.562256	0.160400	-0.607666	0.790737	-0.116302	-0.570565	-0.188849
13156		9.050265	0.181443	3.129934	0.087768	0.022225	0.054881	-0.563477	0.155273	-0.606934	0.791035	-0.115916	-0.570502	-0.188028
13157		9.108809	0.229144	3.042019	0.105810	-0.003439	0.049480	-0.560547	0.167725	-0.612793	0.791205	-0.115338	-0.570684	-0.187114
13158		9.197938	0.244202	3.045850	0.107718	-0.012236	0.045061	-0.578125	0.161621	-0.607178	0.791370	-0.114960	-0.570813	-0.186252
13159		9.184027	0.302826	2.989973	0.096235	-0.043895	0.038164	-0.559082	0.157959	-0.615723	0.791162	-0.114615	-0.571417	-0.185498
13160		9.233299	0.478667	2.859213	0.085687	-0.052361	0.023373	-0.562012	0.162842	-0.602295	0.791125	-0.114142	-0.571792	-0.184791
13161		9.218544	0.508092	2.885267	0.081339	-0.030670	0.005491	-0.564697	0.154053	-0.599854	0.791046	-0.113812	-0.572111	-0.184342
13162		9.198408	0.441970	2.980127	0.064673	-0.028684	-0.017605	-0.567383	0.151611	-0.614014	0.790894	-0.113329	-0.572493	-0.184107
13163		9.229582	0.392686	2.983490	0.045709	-0.050670	-0.031956	-0.571045	0.156982	-0.599609	0.790658	-0.112777	-0.572968	-0.183979
13164		9.248176	0.447305	2.867080	0.020341	-0.042756	-0.044045	-0.566895	0.151611	-0.607422	0.790298	-0.112574	-0.573449	-0.184154
13165		9.320688	0.554492	2.927791	-0.010111	0.005113	-0.054884	-0.562256	0.156250	-0.608643	0.790220	-0.112272	-0.573496	-0.184527
13166		9.339240	0.635515	3.066306	-0.034296	0.012655	-0.062190	-0.567383	0.156006	-0.609131	0.790192	-0.112171	-0.573377	-0.185077
13167		9.383414	0.602890	3.052417	-0.053533	-0.008510	-0.065499	-0.562988	0.156250	-0.609131	0.789991	-0.112208	-0.573434	-0.185735
13168		9.360783	0.537341	2.965967	-0.066139	-0.000020	-0.070535	-0.559326	0.153076	-0.607178	0.789856	-0.112290	-0.573359	-0.186488
13169		9.395989	0.426461	2.994248	-0.070688	0.014869	-0.072507	-0.563965	0.150146	-0.609375	0.789809	-0.112320	-0.573158	-0.187285
13170		9.378077	0.320099	3.038434	-0.065262	0.026664	-0.063071	-0.566650	0.153564	-0.608887	0.789804	-0.112272	-0.572938	-0.188007
13171		9.339878	0.326020	3.133325	-0.058104	0.017261	-0.054731	-0.567383	0.152100	-0.600098	0.789743	-0.112304	-0.572807	-0.188643
13172		9.225188	0.392237	3.129942	-0.039020	0.009241	-0.039960	-0.570312	0.156494	-0.608643	0.789620	-0.112343	-0.572811	-0.189120
13173		9.188971	0.384445	3.154840	-0.024625	0.008933	-0.026713	-0.565430	0.153320	-0.609619	0.789561	-0.112360	-0.572792	-0.189414
13174		9.179368	0.340379	3.138025	-0.020479	0.004626	-0.021417	-0.560547	0.149414	-0.601807	0.789547	-0.112314	-0.572747	-0.189636
13175		9.256214	0.345149	3.092998	-0.011052	0.012531	-0.014143	-0.557617	0.154785	-0.597412	0.789587	-0.112219	-0.572660	-0.189789
13176		9.294475	0.337858	3.122564	0.002308	0.013741	-0.011215	-0.562988	0.154053	-0.606201	0.789648	-0.112182	-0.572556	-0.189870
13177		9.322137	0.326935	3.142154	0.010664	0.002238	-0.005816	-0.574219	0.149658	-0.606445	0.789675	-0.112056	-0.572552	-0.189844
13178		9.349668	0.347835	3.101724	0.017601	0.000435	-0.002352	-0.565918	0.160156	-0.608887	0.789599	-0.111841	-0.572716	-0.189794
13179		9.363290	0.375987	3.146033	0.020687	0.011959	-0.005184	-0.572266	0.163574	-0.604248	0.789677	-0.111738	-0.572654	-0.189720
13180		9.320900	0.385907	3.170454	0.019858	0.006359	-0.000411	-0.562744	0.155762	-0.602051	0.789645	-0.111776	-0.572717	-0.189638
13181		9.293286	0.312337	3.185808	0.018594	0.005113	0.007843	-0.571289	0.159912	-0.608398	0.789691	-0.111734	-0.572707	-0.189498
13182		9.271241	0.304511	3.168444	0.024767	0.007951	0.015595	-0.563965	0.161865	-0.611816	0.789732	-0.111722	-0.572725	-0.189280
13183		9.244251	0.327320	3.168504	0.027615	0.011188	0.018727	-0.567139	0.155029	-0.601807	0.789884	-0.111711	-0.572606	-0.189012
13184		9.246575	0.337597	3.162434	0.032705	0.018438	0.021345	-0.576904	0.156494	-0.596436	0.789986	-0.111609	-0.572579	-0.188729
13185		9.250643	0.347874	3.130261	0.033133	0.001479	0.023398	-0.566162	0.152832	-0.605713	0.789891	-0.111598	-0.572813	-0.188423
13186		9.308815	0.407529	3.084494	0.019849	0.015517	0.022344	-0.563965	0.156494	-0.604736	0.790001	-0.111534	-0.572751	-0.188189
13187		9.354286	0.473826	3.098922	0.004258	0.020325	0.024682	-0.570801	0.150879	-0.612549	0.790134	-0.111646	-0.572602	-0.188018
13188		9.377671	0.531715	3.096440	-0.017129	0.030857	0.025733	-0.563721	0.155518	-0.600586	0.790279	-0.111748	-0.572400	-0.187962
13189		9.326723	0.598084	3.131841	-0.033860	0.015522	0.021255	-0.567383	0.156006	-0.602295	0.790318	-0.112095	-0.572269	-0.187991
13190		9.329266	0.592956	3.083627	-0.051807	0.010383	0.022011	-0.569092	0.156250	-0.607422	0.790293	-0.112559	-0.572176	-0.188101
13191		9.279300	0.549080	3.065716	-0.071408	0.012353	0.016430	-0.565918	0.159424	-0.610107	0.790265	-0.113086	-0.572030	-0.188347
13192		9.257311	0.546747	3.091868	-0.092762	0.003603	0.012908	-0.557129	0.161865	-0.610840	0.790211	-0.113778	-0.571848	-0.188711
13193		9.294771	0.508041	3.060601	-0.105278	-0.004565	0.010699	-0.561523	0.150879	-0.604736	0.790180	-0.114574	-0.571590	-0.189139
13194		9.293048	0.543093	3.071050	-0.112296	0.011172	0.019953	-0.565186	0.162109	-0.611328	0.790157	-0.115249	-0.571347	-0.189559
13195		9.300847	0.481697	3.106735	-0.117803	0.003826	0.028622	-0.570557	0.164062	-0.602539	0.790115	-0.116153	-0.571094	-0.189941
13196		9.398885	0.424377	3.079274	-0.116629	0.002548	0.051390	-0.565186	0.164307	-0.605713	0.790011	-0.117200	-0.570951	-0.190161
13197		9.430546	0.418432	3.132646	-0.120321	-0.007174	0.070974	-0.566895	0.155518	-0.606445	0.789950	-0.118343	-0.570765	-0.190264
13198		9.402211	0.476984	3.208231	-0.127211	-0.012418	0.085594	-0.563721	0.164307	-0.608398	0.789867	-0.119430	-0.570637	-0.190314
13199		9.346528	0.513786	3.136309	-0.141765	-0.028564	0.098823	-0.566650	0.169434	-0.600098	0.789754	-0.120802	-0.570502	-0.190322
13200		9.326616	0.505458	3.014575	-0.165874	-0.016447	0.109735	-0.563477	0.170654	-0.610840	0.789623	-0.122444	-0.570313	-0.190381
13201		9.299791	0.459679	3.055422	-0.170621	0.007942	0.113870	-0.559082	0.172363	-0.592285	0.789697	-0.124022	-0.569842	-0.190465
13202		9.294332	0.419213	3.115707	-0.180273	-0.002053	0.117571	-0.564697	0.180176	-0.611328	0.789643	-0.125766	-0.569504	-0.190556
13203		9.239507	0.384584	3.138016	-0.182344	-0.008303	0.123035	-0.560791	0.174805	-0.601807	0.789632	-0.127539	-0.569107	-0.190612
13204		9.182012	0.303648	3.223709	-0.192335	-0.033208	0.122379	-0.564453	0.173096	-0.598877	0.789461	-0.129328	-0.568908	-0.190706
13205		9.163544	0.257660	3.154485	-0.214067	-0.082942	0.127538	-0.565186	0.186523	-0.598633	0.788994	-0.131302	-0.569062	-0.190831
13206		9.268184	0.217689	3.004649	-0.217345	-0.071683	0.123428	-0.562744	0.189453	-0.598145	0.788576	-0.133410	-0.569097	-0.190991
13207		9.260991	0.265946	3.170751	-0.219040	-0.025575	0.118506	-0.567139	0.193115	-0.595947	0.788391	-0.135421	-0.568796	-0.191237
13208		9.266819	0.308679	3.255443	-0.236298	-0.041227	0.123096	-0.559570	0.198975	-0.590576	0.788074	-0.137603	-0.568615	-0.191527
13209		9.278527	0.207055	3.144342	-0.258948	-0.050295	0.128481	-0.561279	0.203613	-0.592285	0.787727	-0.140033	-0.568387	-0.191867
13210		9.321448	0.112586	3.085379	-0.257086	-0.043959	0.121961	-0.562500	0.206543	-0.594482	0.787404	-0.142402	-0.568118	-0.192245
13211		9.269335	-0.028475	3.222616	-0.253817	-0.032231	0.122470	-0.564697	0.210205	-0.597168	0.787149	-0.144699	-0.567766	-0.192617
13212		9.293041	-0.107335	3.180369	-0.237091	-0.046670	0.134867	-0.556885	0.211426	-0.588379	0.786867	-0.146945	-0.567515	-0.192808
13213		9.266031	-0.179713	3.124637	-0.215230	-0.062840	0.154953	-0.558105	0.216064	-0.597168	0.786577	-0.149180	-0.567355	-0.192745
13214		9.234125	-0.219085	3.178957	-0.195230	-0.078352	0.177120	-0.549072	0.227539	-0.588379	0.786323	-0.151371	-0.567241	-0.192406
13215		9.294887	-0.250780	3.117955	-0.189487	-0.087971	0.207153	-0.560547	0.223145	-0.586182	0.786102	-0.153839	-0.567090	-0.191797
13216		9.374810	-0.285781	3.126365	-0.177327	-0.070389	0.232902	-0.561035	0.232422	-0.589111	0.785921	-0.156200	-0.566954	-0.191031
13217		9.401112	-0.389644	3.239974	-0.191442	-0.049115	0.255458	-0.562256	0.234375	-0.582764	0.785875	-0.158773	-0.566586	-0.190186
13218		9.369530	-0.318728	3.332626	-0.232515	-0.061598	0.266176	-0.568604	0.231201	-0.585205	0.785683	-0.161678	-0.566273	-0.189463
13219		9.326830	-0.152435	3.345890	-0.285051	-0.093586	0.265454	-0.559570	0.235107	-0.581543	0.785232	-0.164844	-0.566144	-0.188993
13220		9.315573	-0.113449	3.396539	-0.318971	-0.120977	0.267375	-0.555908	0.238770	-0.582275	0.784655	-0.168284	-0.566057	-0.188620
13221		9.335342	-0.171090	3.357452	-0.357294	-0.165729	0.287447	-0.552734	0.257568	-0.570801	0.783880	-0.172101	-0.566113	-0.188227
13222		9.540874	-0.417736	3.124055	-0.391479	-0.158485	0.326433	-0.562988	0.266602	-0.569336	0.783117	-0.176519	-0.565985	-0.187695
13223		9.420183	-0.656849	3.049416	-0.442934	-0.117340	0.353549	-0.565918	0.259766	-0.567383	0.782435	-0.181335	-0.565537	-0.187298
13224		9.522734	-0.761094	2.975772	-0.443028	-0.115609	0.375505	-0.562500	0.268066	-0.569092	0.781755	-0.186065	-0.565094	-0.186837
13225		9.387382	-0.995267	2.981160	-0.473465	-0.071085	0.389427	-0.555908	0.282471	-0.569092	0.781292	-0.190969	-0.564219	-0.186470
13226		9.203173	-1.030895	2.780420	-0.514879	-0.088827	0.369591	-0.555664	0.290527	-0.555664	0.780687	-0.196138	-0.563327	-0.186332
13227		9.169160	-0.906037	2.702741	-0.515735	-0.065154	0.356321	-0.552002	0.296387	-0.561279	0.780079	-0.201273	-0.562353	-0.186349
13228		9.231924	-1.047087	2.705388	-0.501686	-0.034308	0.353534	-0.552734	0.309082	-0.559082	0.779687	-0.206170	-0.561124	-0.186339
13229		9.202152	-1.419472	2.702141	-0.496027	-0.030444	0.360733	-0.559814	0.310791	-0.555420	0.779303	-0.211098	-0.559858	-0.186234
13230		9.420141	-1.595231	2.504845	-0.450602	-0.047005	0.373975	-0.548340	0.316650	-0.554932	0.778852	-0.215746	-0.558830	-0.185882
13231		9.478619	-1.725719	2.430942	-0.449026	0.003636	0.385531	-0.551270	0.333496	-0.556885	0.778725	-0.220336	-0.557348	-0.185480
13232		9.480111	-1.706489	2.423591	-0.409852	0.042007	0.396930	-0.545898	0.342285	-0.546387	0.778843	-0.224715	-0.555649	-0.184827
13233		9.374179	-1.582928	2.739573	-0.380633	0.058272	0.402972	-0.542725	0.344238	-0.541260	0.779044	-0.228980	-0.553889	-0.184026
13234		9.283012	-1.590778	2.902533	-0.350182	0.025785	0.415969	-0.540771	0.351074	-0.541504	0.779132	-0.233134	-0.552373	-0.182992
13235		9.245114	-1.898028	2.715368	-0.308908	-0.041527	0.431241	-0.535645	0.356445	-0.540527	0.779007	-0.237172	-0.551312	-0.181530
13236		9.209746	-2.204846	2.374176	-0.280828	-0.042642	0.441641	-0.539551	0.366943	-0.540283	0.778961	-0.241056	-0.550242	-0.179848
13237		9.107044	-2.434403	2.253031	-0.252117	-0.028529	0.446032	-0.529785	0.374512	-0.540283	0.778999	-0.244765	-0.549142	-0.178029
13238		8.998148	-2.475666	2.428346	-0.228356	0.033794	0.430472	-0.532227	0.381836	-0.535645	0.779397	-0.248157	-0.547630	-0.176241
13239		9.012253	-2.479328	2.526704	-0.181629	0.014539	0.409888	-0.526855	0.381836	-0.526123	0.779698	-0.251209	-0.546404	-0.174376
13240		9.112467	-2.565001	2.279967	-0.113960	-0.010615	0.396066	-0.523926	0.391357	-0.534180	0.779955	-0.253823	-0.545484	-0.172311
13241		9.270777	-2.638518	2.269900	-0.059710	0.054315	0.405330	-0.522217	0.397705	-0.535889	0.780690	-0.256001	-0.544148	-0.169969
13242		9.247894	-2.707720	2.536800	-0.040892	0.070078	0.421786	-0.523926	0.402588	-0.531494	0.781551	-0.258109	-0.542698	-0.167445
13243		9.062206	-2.392645	2.385844	-0.070310	0.067554	0.393398	-0.511963	0.401123	-0.531982	0.782220	-0.260317	-0.541335	-0.165295
13244		8.833923	-2.086589	2.620053	-0.111971	0.091479	0.363602	-0.504395	0.402344	-0.531982	0.782917	-0.262593	-0.539758	-0.163546
13245		8.634046	-2.356555	2.503027	-0.109602	0.024930	0.337490	-0.507080	0.406494	-0.541016	0.783304	-0.264806	-0.538643	-0.161792
13246		8.750020	-2.713913	2.212508	-0.108103	-0.000304	0.285585	-0.504883	0.411621	-0.541260	0.783528	-0.266738	-0.537806	-0.160309
13247		8.813691	-2.806172	2.413216	-0.094039	0.038813	0.243468	-0.510986	0.413818	-0.531982	0.783905	-0.268340	-0.536821	-0.159090
13248		8.754883	-2.734235	2.254104	-0.047425	0.034550	0.200168	-0.508545	0.423584	-0.535889	0.784190	-0.269512	-0.536109	-0.158100
13249		8.564037	-2.803104	2.290469	-0.033130	0.084218	0.153139	-0.493652	0.415527	-0.537598	0.784700	-0.270329	-0.535176	-0.157339
13250		8.507011	-2.801000	2.293307	0.009001	0.072264	0.084123	-0.508301	0.410400	-0.533691	0.785252	-0.270514	-0.534447	-0.156743
13251		8.656070	-2.449270	2.326627	0.013641	0.042328	-0.003935	-0.501709	0.418213	-0.534668	0.785419	-0.270329	-0.534233	-0.156954
13252		8.733903	-2.076880	2.380605	0.005218	0.040159	-0.056698	-0.492676	0.423584	-0.535400	0.785541	-0.270001	-0.534102	-0.157351
13253		8.950809	-2.172652	2.456711	0.005849	0.039067	-0.082418	-0.493408	0.420654	-0.540527	0.785694	-0.269577	-0.533985	-0.157713
13254		9.034393	-2.396396	2.516687	0.000806	0.028144	-0.139686	-0.499023	0.420166	-0.545654	0.785735	-0.268896	-0.534051	-0.158445
13255		8.989509	-2.408158	2.576971	0.019416	0.011287	-0.206320	-0.500732	0.413818	-0.537598	0.785648	-0.267788	-0.534417	-0.159519
13256		8.918466	-2.505665	2.427027	0.056950	-0.031969	-0.241985	-0.499512	0.424805	-0.538818	0.785342	-0.266371	-0.535223	-0.160689
13257		8.892594	-2.379397	2.506074	0.073542	0.009576	-0.266701	-0.505859	0.417969	-0.535645	0.785267	-0.264715	-0.535823	-0.161791
13258		8.876973	-2.202920	2.626989	0.094366	0.020822	-0.289696	-0.510010	0.415039	-0.541016	0.785192	-0.262817	-0.536460	-0.163132
13259		8.950163	-2.274921	2.775303	0.119887	0.010748	-0.311243	-0.514160	0.410889	-0.538330	0.785105	-0.260636	-0.537241	-0.164473
13260		8.914191	-2.326643	2.806816	0.157044	0.010214	-0.333313	-0.507568	0.394531	-0.538330	0.785023	-0.258137	-0.538140	-0.165860
13261		8.878010	-2.401910	2.816949	0.179355	0.018960	-0.343893	-0.503662	0.391357	-0.543213	0.785041	-0.255393	-0.538979	-0.167293
13262		9.000082	-2.289999	2.699219	0.213374	0.027065	-0.359232	-0.526367	0.387451	-0.542969	0.785207	-0.252310	-0.539802	-0.168535
13263		9.029747	-2.250112	2.944179	0.249821	0.055203	-0.360001	-0.513428	0.382568	-0.547119	0.785400	-0.249005	-0.540587	-0.170028
13264		8.948021	-2.219744	2.976719	0.279956	-0.023623	-0.367752	-0.519531	0.375732	-0.549805	0.785404	-0.245528	-0.541867	-0.170989
13265		9.000590	-2.133993	2.821199	0.304218	-0.073258	-0.382511	-0.523682	0.374756	-0.544922	0.785178	-0.241891	-0.543539	-0.171901
13266		9.033225	-2.098036	2.685571	0.337992	-0.073464	-0.365171	-0.526123	0.364990	-0.554199	0.784995	-0.238164	-0.545244	-0.172538
13267		9.150894	-2.163018	2.675267	0.365620	-0.074159	-0.316539	-0.530762	0.361084	-0.550537	0.784965	-0.234413	-0.546858	-0.172703
13268		9.395296	-2.165517	2.697603	0.383716	-0.046339	-0.278354	-0.534912	0.356689	-0.553467	0.785097	-0.230719	-0.548260	-0.172634
13269		9.498093	-2.020214	2.848088	0.385075	-0.012423	-0.271194	-0.529541	0.346436	-0.552490	0.785379	-0.226998	-0.549427	-0.172572
13270		9.414735	-1.862681	3.015502	0.387569	-0.034701	-0.265724	-0.534424	0.342285	-0.559814	0.785583	-0.223309	-0.550699	-0.172400
13271		9.503427	-1.743260	2.919185	0.388229	-0.104273	-0.239007	-0.533203	0.333984	-0.554688	0.785511	-0.219812	-0.552368	-0.171889
13272		9.452887	-1.585276	2.799962	0.410711	-0.095630	-0.204942	-0.535156	0.330322	-0.557129	0.785537	-0.216336	-0.553942	-0.171111
13273		9.409923	-1.821138	2.711674	0.441378	-0.130459	-0.144911	-0.537354	0.323486	-0.554688	0.785542	-0.212978	-0.555670	-0.169692
13274		9.441979	-1.921385	2.523540	0.423500	-0.104725	-0.110245	-0.547363	0.329834	-0.565186	0.785643	-0.209882	-0.557145	-0.168235
13275		9.034667	-1.697916	2.721067	0.367035	-0.047504	-0.122434	-0.541016	0.314453	-0.557373	0.785906	-0.207000	-0.558197	-0.167087
13276		8.847690	-1.288345	2.625570	0.377549	-0.111176	-0.170089	-0.551514	0.305908	-0.567139	0.785787	-0.203935	-0.559745	-0.166235
13277		9.057980	-1.172981	2.499611	0.374435	-0.090446	-0.200870	-0.545166	0.304199	-0.563232	0.785690	-0.200676	-0.561207	-0.165731
13278		9.205617	-1.046574	2.663504	0.378243	-0.071054	-0.214583	-0.557129	0.302490	-0.565918	0.785698	-0.197313	-0.562545	-0.165193
13279		9.450641	-1.192049	2.616851	0.426923	-0.104242	-0.207814	-0.564941	0.290283	-0.564453	0.785574	-0.193730	-0.564190	-0.164412
13280		9.658191	-1.506051	2.596124	0.405402	-0.051818	-0.190404	-0.552490	0.289551	-0.572754	0.785605	-0.190309	-0.565460	-0.163897
13281		9.394196	-1.321472	2.734573	0.338663	0.007050	-0.199717	-0.555176	0.287598	-0.577393	0.785932	-0.187141	-0.566175	-0.163510
13282		9.239021	-0.787811	2.656878	0.328057	-0.012827	-0.220492	-0.557129	0.277832	-0.573975	0.786122	-0.183966	-0.567031	-0.163233
13283		9.365423	-0.665021	2.802958	0.283216	0.055566	-0.214122	-0.562988	0.267822	-0.583496	0.786524	-0.181034	-0.567383	-0.163349
13284		9.542601	-0.677436	3.144024	0.223314	0.021882	-0.194240	-0.556885	0.268555	-0.573486	0.786690	-0.178601	-0.567836	-0.163655
13285		9.604365	-0.533161	2.810579	0.284226	-0.111926	-0.175844	-0.559082	0.262207	-0.578613	0.786330	-0.176079	-0.569228	-0.163284
13286		9.603381	-0.908079	2.526052	0.326903	-0.079427	-0.155629	-0.552490	0.263916	-0.574951	0.786225	-0.173302	-0.570413	-0.162619
13287		9.386300	-1.103604	2.758169	0.320442	0.043535	-0.123327	-0.563965	0.258301	-0.576416	0.786777	-0.170567	-0.570713	-0.161791
13288		9.185915	-0.781448	2.873240	0.249195	0.091825	-0.106309	-0.565918	0.256104	-0.583740	0.787394	-0.168336	-0.570626	-0.161429
13289		9.274018	-0.368651	2.983308	0.166223	0.152513	-0.120512	-0.550537	0.248535	-0.581055	0.788178	-0.166483	-0.570036	-0.161611
13290		9.466333	-0.230368	3.088335	0.111234	0.130616	-0.129316	-0.556641	0.255127	-0.589111	0.788822	-0.164960	-0.569476	-0.162005
13291		9.650503	-0.145010	2.801984	0.137907	-0.028438	-0.150382	-0.567871	0.240234	-0.583252	0.788726	-0.163379	-0.570034	-0.162111
13292		9.600404	-0.394241	2.495067	0.197746	-0.075564	-0.164336	-0.558105	0.244141	-0.577148	0.788339	-0.161426	-0.571069	-0.162308
13293		9.441223	-0.668389	2.431482	0.246139	-0.020651	-0.160989	-0.569336	0.239014	-0.584473	0.788337	-0.159104	-0.571775	-0.162127
13294		9.458173	-0.598476	2.675395	0.238635	0.146606	-0.145331	-0.565186	0.233643	-0.585693	0.789103	-0.156671	-0.571372	-0.162189
13295		9.333340	-0.315731	3.198383	0.197133	0.232204	-0.138055	-0.555664	0.233398	-0.584473	0.790238	-0.154423	-0.570325	-0.162502
13296		9.182211	-0.186891	3.167612	0.154286	0.140266	-0.146967	-0.559570	0.229248	-0.589111	0.790899	-0.152546	-0.569811	-0.162862
13297		9.163957	-0.157627	2.869347	0.142014	0.062773	-0.169927	-0.559814	0.220215	-0.581543	0.791125	-0.150738	-0.569830	-0.163383
13298		9.176063	-0.141784	2.581111	0.169782	0.043777	-0.189804	-0.567383	0.220459	-0.590332	0.791210	-0.148688	-0.570071	-0.164006
13299		9.328933	-0.278845	2.539882	0.191689	0.076570	-0.198066	-0.567383	0.219727	-0.593018	0.791466	-0.146398	-0.570139	-0.164594
13300		9.524003	-0.313011	2.734309	0.219060	0.148996	-0.193400	-0.556152	0.208496	-0.589844	0.792114	-0.143853	-0.569752	-0.165062
13301		9.535444	-0.192620	3.186909	0.220784	0.159000	-0.177640	-0.551758	0.212646	-0.596924	0.792849	-0.141338	-0.569250	-0.165437
13302		9.355469	-0.063419	3.368906	0.185146	0.068588	-0.146950	-0.562500	0.205078	-0.613281	0.793206	-0.139346	-0.569214	-0.165539
13303		9.232606	-0.092237	3.066869	0.159191	-0.041916	-0.110428	-0.563232	0.209229	-0.602783	0.793053	-0.137803	-0.569826	-0.165455
13304		9.297494	-0.231428	2.774406	0.160147	-0.009679	-0.084278	-0.556641	0.202148	-0.603271	0.793057	-0.136378	-0.570234	-0.165210
13305		9.356112	-0.294603	2.870962	0.178736	0.029568	-0.057926	-0.557373	0.197021	-0.603516	0.793331	-0.134884	-0.570344	-0.164742
13306		9.398497	-0.160659	2.881615	0.198190	0.039384	-0.029992	-0.555908	0.186523	-0.600830	0.793697	-0.133372	-0.570391	-0.164043
13307		9.314673	-0.167688	2.901114	0.205375	0.044709	-0.023909	-0.560059	0.186523	-0.596680	0.794078	-0.131811	-0.570420	-0.163359
13308		9.303367	-0.230543	2.873554	0.210796	0.047026	-0.031964	-0.550537	0.192871	-0.604736	0.794424	-0.130185	-0.570494	-0.162725
13309		9.242499	-0.261777	2.922431	0.219057	0.071690	-0.035651	-0.552490	0.183105	-0.600342	0.794978	-0.128478	-0.570332	-0.161939
13310		9.219355	-0.217728	3.044366	0.192340	0.082831	-0.040923	-0.551270	0.175293	-0.608154	0.795500	-0.126883	-0.570109	-0.161420
13311		9.268074	0.037750	3.104314	0.155021	0.094566	-0.058985	-0.563232	0.181152	-0.611816	0.796032	-0.125398	-0.569751	-0.161222
13312		9.311417	0.326323	3.205970	0.114969	0.092194	-0.081300	-0.552979	0.184570	-0.613281	0.796435	-0.124107	-0.569429	-0.161368
13313		9.389948	0.397598	3.146320	0.079431	0.066793	-0.092263	-0.551270	0.176514	-0.608154	0.796722	-0.123061	-0.569178	-0.161635
13314		9.370377	0.113613	3.299406	0.047005	0.054589	-0.087105	-0.548584	0.180420	-0.610107	0.796899	-0.122246	-0.568985	-0.162064
13315		9.312579	-0.056180	3.388403	0.015948	0.035513	-0.077815	-0.550781	0.172119	-0.610107	0.796989	-0.121731	-0.568841	-0.162509
13316		9.182015	-0.003719	3.394068	-0.015828	0.032003	-0.071502	-0.549561	0.175049	-0.614746	0.797017	-0.121424	-0.568694	-0.163118
13317		9.093302	0.109940	3.350429	-0.050855	0.025692	-0.072773	-0.555908	0.181152	-0.604736	0.797003	-0.121364	-0.568513	-0.163859
13318		8.995989	0.093118	3.407349	-0.070387	0.019445	-0.076211	-0.550049	0.174316	-0.611816	0.796876	-0.121467	-0.568420	-0.164721
13319		9.018699	0.008965	3.340746	-0.063447	-0.024573	-0.073800	-0.556396	0.173096	-0.618408	0.796596	-0.121554	-0.568570	-0.165490
13320		9.275831	-0.036515	3.141551	-0.060192	-0.017803	-0.058302	-0.554932	0.173584	-0.613037	0.796368	-0.121667	-0.568668	-0.166166
13321		9.370729	-0.069676	3.181090	-0.076225	0.016276	-0.051247	-0.547852	0.181641	-0.611816	0.796287	-0.121881	-0.568521	-0.166903
13322		9.387766	-0.094237	3.124492	-0.072120	0.006698	-0.046069	-0.562744	0.177002	-0.606201	0.796208	-0.122154	-0.568393	-0.167512
13323		9.307730	-0.132871	3.189352	-0.067064	0.022709	-0.047830	-0.558350	0.168213	-0.607666	0.796116	-0.122328	-0.568280	-0.168205
13324		9.243256	-0.124875	3.196697	-0.064228	0.015631	-0.047221	-0.554688	0.174316	-0.611572	0.796010	-0.122445	-0.568199	-0.168894
13325		9.237158	-0.058180	3.207123	-0.070629	0.010613	-0.046921	-0.558594	0.182861	-0.603760	0.795910	-0.122647	-0.568096	-0.169563
13326		9.244403	0.001398	3.134877	-0.065642	0.030132	-0.056203	-0.557617	0.176758	-0.615479	0.795860	-0.122799	-0.567921	-0.170275
13327		9.157958	-0.047486	3.236622	-0.057835	0.046662	-0.062201	-0.549805	0.178711	-0.610596	0.795925	-0.122798	-0.567608	-0.171015
13328		9.149445	-0.139321	3.283401	-0.043240	0.029554	-0.057381	-0.554932	0.177734	-0.609131	0.795947	-0.122771	-0.567400	-0.171616
13329		9.176901	-0.114770	3.246767	-0.038226	0.020054	-0.051906	-0.547607	0.179443	-0.607422	0.795910	-0.122740	-0.567295	-0.172162
13330		9.163961	-0.101771	3.307144	-0.046440	0.004076	-0.047354	-0.553467	0.172363	-0.611572	0.795821	-0.122830	-0.567241	-0.172681
13331		9.220843	-0.028440	3.193156	-0.045539	-0.001250	-0.041937	-0.553223	0.178955	-0.618408	0.795700	-0.122890	-0.567246	-0.173182
13332		9.217642	0.038882	3.153218	-0.048571	0.024832	-0.039045	-0.555908	0.178467	-0.614990	0.795732	-0.122984	-0.567026	-0.173685
13333		9.284841	0.104564	3.171087	-0.055969	0.027115	-0.038698	-0.556396	0.178711	-0.610352	0.795744	-0.123122	-0.566812	-0.174229
13334		9.343936	0.103610	3.220687	-0.064598	0.014204	-0.045878	-0.552979	0.174561	-0.619385	0.795659	-0.123304	-0.566703	-0.174847
13335		9.325611	0.070787	3.185823	-0.064692	-0.004994	-0.058802	-0.552734	0.176025	-0.607178	0.795501	-0.123424	-0.566682	-0.175543
13336		9.232171	0.007455	3.203264	-0.065214	-0.003988	-0.067703	-0.551270	0.173584	-0.608398	0.795301	-0.123520	-0.566710	-0.176291
13337		9.212596	-0.012475	3.235663	-0.065857	0.007364	-0.070982	-0.551514	0.173584	-0.612793	0.795158	-0.123573	-0.566653	-0.177079
13338		9.128042	0.046398	3.249025	-0.052648	0.005514	-0.070164	-0.555176	0.177246	-0.607910	0.795035	-0.123542	-0.566608	-0.177799
13339		9.143828	0.069163	3.225446	-0.045825	0.000299	-0.061374	-0.549316	0.179688	-0.617188	0.794881	-0.123539	-0.566632	-0.178414
13340		9.209282	0.029472	3.187663	-0.044226	0.014734	-0.047129	-0.562012	0.183594	-0.607422	0.794871	-0.123589	-0.566467	-0.178941
13341		9.258637	0.059270	3.168991	-0.037591	0.022208	-0.037722	-0.554443	0.170654	-0.614990	0.794842	-0.123643	-0.566362	-0.179368
13342		9.293481	0.084081	3.192361	-0.031425	0.023034	-0.032386	-0.564941	0.174805	-0.606689	0.794873	-0.123601	-0.566202	-0.179762
13343		9.312417	0.082428	3.196841	-0.029881	0.018282	-0.031116	-0.563232	0.165283	-0.604736	0.794823	-0.123581	-0.566165	-0.180115
13344		9.309033	0.041503	3.239987	-0.034753	0.006538	-0.032066	-0.557373	0.181152	-0.607910	0.794706	-0.123546	-0.566216	-0.180494
13345		9.264598	0.075320	3.212680	-0.029350	-0.001877	-0.035214	-0.540527	0.173096	-0.612305	0.794591	-0.123588	-0.566254	-0.180849
13346		9.209966	0.084496	3.251911	-0.026186	0.006298	-0.032650	-0.556641	0.175781	-0.610352	0.794598	-0.123566	-0.566141	-0.181190
13347		9.152999	0.104082	3.197812	-0.024259	-0.004013	-0.032389	-0.543457	0.186523	-0.606934	0.794491	-0.123552	-0.566194	-0.181503
13348		9.180431	0.083513	3.174143	-0.021945	0.010259	-0.030233	-0.561279	0.173096	-0.612549	0.794502	-0.123608	-0.566068	-0.181809
13349		9.209746	0.042038	3.202639	-0.013990	0.017997	-0.031792	-0.549805	0.178955	-0.611328	0.794500	-0.123468	-0.566012	-0.182089
13350		9.249583	0.090528	3.235169	-0.006590	0.022943	-0.029474	-0.553955	0.183350	-0.601074	0.794573	-0.123342	-0.565859	-0.182331
13351		9.280771	0.169031	3.175853	-0.015577	0.032819	-0.025174	-0.549561	0.183350	-0.616699	0.794645	-0.123317	-0.565682	-0.182581
13352		9.292064	0.229034	3.192503	-0.024542	0.040296	-0.015864	-0.553467	0.178711	-0.613037	0.794816	-0.123377	-0.565342	-0.182847
13353		9.292460	0.208492	3.248655	-0.026713	0.031749	-0.010631	-0.556396	0.172363	-0.614258	0.794925	-0.123452	-0.565103	-0.183066
13354		9.341509	0.168082	3.321792	-0.033989	0.004044	-0.000769	-0.555176	0.181152	-0.612549	0.794899	-0.123611	-0.565054	-0.183220
13355		9.328845	0.096923	3.267009	-0.040867	-0.018935	0.010711	-0.551758	0.174316	-0.607666	0.794779	-0.123968	-0.565117	-0.183308
13356		9.289878	0.005374	3.225125	-0.036825	-0.016160	0.018671	-0.557617	0.176270	-0.611084	0.794685	-0.124287	-0.565174	-0.183321
13357		9.250389	-0.065807	3.269004	-0.027533	-0.013160	0.021420	-0.562256	0.170654	-0.612061	0.794611	-0.124552	-0.565237	-0.183270
13358		9.191552	-0.099166	3.253876	-0.018071	-0.008524	0.028862	-0.559814	0.178955	-0.603760	0.794565	-0.124733	-0.565310	-0.183118
13359		9.122837	-0.082282	3.255794	-0.006197	-0.023136	0.037780	-0.554932	0.177979	-0.607910	0.794465	-0.124968	-0.565491	-0.182834
13360		9.156133	-0.057079	3.204109	0.002928	-0.028499	0.043378	-0.555176	0.175049	-0.608154	0.794387	-0.125170	-0.565670	-0.182479
13361		9.191813	-0.063994	3.160284	0.009588	-0.020829	0.047567	-0.557373	0.174561	-0.604248	0.794360	-0.125311	-0.565810	-0.182067
13362		9.221034	-0.040594	3.160964	0.011855	-0.007261	0.044781	-0.554688	0.189453	-0.606689	0.794376	-0.125400	-0.565897	-0.181665
13363		9.256604	0.006804	3.147235	0.011231	-0.002378	0.043856	-0.555176	0.180908	-0.617676	0.794431	-0.125595	-0.565889	-0.181315
13364		9.308192	0.069525	3.109767	0.002325	-0.004926	0.045282	-0.550781	0.184326	-0.611572	0.794495	-0.125776	-0.565862	-0.180991
13365		9.335735	0.092160	3.136041	-0.011342	-0.018743	0.035214	-0.559082	0.178955	-0.599854	0.794462	-0.126056	-0.565911	-0.180790
13366		9.339616	0.120900	3.049232	-0.021220	-0.022569	0.021110	-0.546631	0.180176	-0.613281	0.794320	-0.126298	-0.566095	-0.180670
13367		9.295181	0.104795	3.034873	-0.021797	-0.009547	0.004883	-0.555664	0.181152	-0.615234	0.794294	-0.126456	-0.566076	-0.180734
13368		9.273884	0.065029	3.049772	-0.027462	0.015687	-0.006257	-0.558594	0.184326	-0.611328	0.794340	-0.126552	-0.565934	-0.180907
13369		9.244776	0.089011	3.078830	-0.039564	0.045204	-0.014233	-0.559082	0.178955	-0.604736	0.794479	-0.126669	-0.565615	-0.181211
13370		9.294692	0.102798	3.159012	-0.060592	0.061171	-0.010705	-0.548828	0.180664	-0.610352	0.794655	-0.126882	-0.565203	-0.181579
13371		9.269295	0.234100	3.197026	-0.088926	0.062908	-0.012458	-0.552490	0.184814	-0.606201	0.794851	-0.127288	-0.564656	-0.182134
13372		9.208399	0.407836	3.285772	-0.120925	0.065962	-0.025528	-0.556885	0.187988	-0.616943	0.794981	-0.127867	-0.564088	-0.182919
13373		9.154831	0.433061	3.345680	-0.161627	0.071783	-0.040009	-0.552734	0.196533	-0.606201	0.795084	-0.128633	-0.563414	-0.184007
13374		9.149246	0.395895	3.415720	-0.208524	0.069244	-0.052072	-0.548096	0.191650	-0.606201	0.795086	-0.129730	-0.562703	-0.185403
13375		9.131003	0.376350	3.425208	-0.252936	0.057800	-0.060090	-0.548584	0.192627	-0.613281	0.794983	-0.131057	-0.561996	-0.187046
13376		9.131962	0.350012	3.458514	-0.291287	0.032486	-0.075467	-0.557129	0.192627	-0.610352	0.794708	-0.132587	-0.561388	-0.188953
13377		9.191961	0.277242	3.413396	-0.327318	0.007289	-0.078600	-0.543457	0.196777	-0.602783	0.794234	-0.134349	-0.560956	-0.190974
13378		9.233554	0.184591	3.438040	-0.343014	-0.012439	-0.080488	-0.558838	0.195557	-0.604736	0.793663	-0.136280	-0.560568	-0.193104
13379		9.271299	0.067791	3.449265	-0.350291	-0.019717	-0.069661	-0.543457	0.207764	-0.609863	0.793027	-0.138259	-0.560286	-0.195121
13380		9.196867	-0.031610	3.467165	-0.354731	-0.038518	-0.055995	-0.553223	0.200928	-0.600342	0.792374	-0.140453	-0.559952	-0.197157
13381		9.158881	-0.140281	3.397602	-0.334249	-0.064935	-0.032850	-0.548828	0.214355	-0.608398	0.791608	-0.142578	-0.559910	-0.198820
13382		9.278297	-0.260068	3.351820	-0.326802	-0.074313	-0.005129	-0.557617	0.199463	-0.598389	0.790883	-0.144877	-0.559803	-0.200336
13383		9.256737	-0.262461	3.295508	-0.326500	-0.080143	0.017469	-0.554443	0.212158	-0.599854	0.790126	-0.147140	-0.559839	-0.201571
13384		9.115476	-0.244932	3.187555	-0.298918	-0.112471	0.032669	-0.549805	0.216064	-0.599121	0.789288	-0.149423	-0.560046	-0.202597
13385		9.192952	-0.213385	3.049807	-0.250581	-0.133996	0.047609	-0.563477	0.224854	-0.590332	0.788449	-0.151507	-0.560414	-0.203297
13386		9.254136	-0.263688	3.065390	-0.207525	-0.103955	0.069988	-0.560059	0.224854	-0.599365	0.787785	-0.153393	-0.560709	-0.203644
13387		9.178788	-0.303525	3.098756	-0.185621	-0.134105	0.086014	-0.560791	0.226318	-0.592041	0.787073	-0.155231	-0.561157	-0.203772
13388		9.263005	-0.329000	2.986912	-0.163748	-0.150173	0.107877	-0.562256	0.230713	-0.591553	0.786334	-0.157055	-0.561740	-0.203619
13389		9.387845	-0.307656	2.952199	-0.142156	-0.115413	0.125294	-0.550537	0.228760	-0.583984	0.785816	-0.158769	-0.562097	-0.203302
13390		9.421163	-0.257580	2.995545	-0.122559	-0.108723	0.151481	-0.562256	0.230713	-0.588135	0.785417	-0.160464	-0.562373	-0.202750
13391		9.550775	-0.304963	2.949859	-0.112817	-0.099450	0.182168	-0.565918	0.235840	-0.582520	0.785107	-0.162188	-0.562607	-0.201929
13392		9.599245	-0.287809	2.961246	-0.120210	-0.073324	0.203041	-0.560303	0.240967	-0.573730	0.784919	-0.164032	-0.562657	-0.201027
13393		9.577740	-0.213252	2.930440	-0.144865	-0.030371	0.217188	-0.565186	0.245117	-0.577881	0.784913	-0.166071	-0.562355	-0.200223
13394		9.422547	-0.017295	3.125240	-0.191354	-0.019116	0.212019	-0.558594	0.243164	-0.579590	0.784881	-0.168356	-0.561914	-0.199677
13395		9.358663	0.010831	3.089624	-0.220244	-0.065121	0.204456	-0.562988	0.249512	-0.578125	0.784602	-0.170832	-0.561706	-0.199256
13396		9.443531	-0.206407	3.086724	-0.242699	-0.072419	0.207150	-0.562500	0.259033	-0.577881	0.784241	-0.173489	-0.561519	-0.198906
13397		9.354982	-0.270838	3.116896	-0.268270	-0.089667	0.206534	-0.568848	0.256104	-0.579346	0.783759	-0.176375	-0.561375	-0.198678
13398		9.372651	-0.311280	2.992035	-0.296218	-0.089385	0.205932	-0.554688	0.263672	-0.572754	0.783223	-0.179363	-0.561224	-0.198541
13399		9.453195	-0.459876	2.997285	-0.319838	-0.020516	0.217359	-0.553223	0.269775	-0.578857	0.783012	-0.182500	-0.560489	-0.198591
13400		9.383216	-0.630698	3.186536	-0.372065	0.009038	0.225452	-0.564453	0.273926	-0.563965	0.782887	-0.185957	-0.559422	-0.198883
13401		9.259194	-0.623130	3.201897	-0.418701	-0.019305	0.223099	-0.562256	0.284424	-0.565918	0.782469	-0.189748	-0.558579	-0.199320
13402		9.167876	-0.588249	3.148205	-0.440273	-0.077396	0.212377	-0.562500	0.289307	-0.568359	0.781729	-0.193750	-0.558048	-0.199856
13403		9.296091	-0.622186	2.908531	-0.445091	-0.098731	0.215696	-0.555176	0.295654	-0.562988	0.780890	-0.197808	-0.557622	-0.200351
13404		9.461241	-0.672017	2.949123	-0.514347	0.003871	0.247140	-0.549805	0.292969	-0.573730	0.780464	-0.202307	-0.556317	-0.201146
13405		9.507391	-0.542087	3.118416	-0.609683	0.085832	0.273945	-0.558350	0.308838	-0.554443	0.780339	-0.207309	-0.554225	-0.202311
13406		9.405004	-0.508205	3.161146	-0.711297	0.104082	0.281788	-0.550049	0.309570	-0.557861	0.780018	-0.213053	-0.551896	-0.203938
13407		9.314974	-0.576348	3.059233	-0.748929	0.034428	0.257361	-0.546631	0.321045	-0.557129	0.779277	-0.218970	-0.549953	-0.205745
13408		9.363951	-0.951451	2.780928	-0.740562	-0.019694	0.222533	-0.550537	0.331787	-0.553223	0.778226	-0.224766	-0.548391	-0.207636
13409		9.370518	-1.582582	2.569931	-0.696753	-0.066470	0.222850	-0.548340	0.344727	-0.544922	0.776997	-0.230357	-0.547205	-0.209233
13410		9.288589	-2.003395	2.418500	-0.637894	-0.013211	0.235622	-0.553955	0.354004	-0.542969	0.776109	-0.235571	-0.545722	-0.210590
13411		9.237893	-2.197277	2.543968	-0.610109	0.109247	0.272434	-0.540039	0.358643	-0.533936	0.775858	-0.240544	-0.543430	-0.211818
13412		9.075050	-2.022610	2.965565	-0.595668	0.152632	0.289729	-0.534668	0.370850	-0.542969	0.775852	-0.245435	-0.540803	-0.212950
13413		8.832479	-1.670938	2.875483	-0.540076	0.013200	0.280099	-0.536377	0.375732	-0.531006	0.775341	-0.250149	-0.539134	-0.213557
13414		9.046886	-1.467538	2.359623	-0.460727	-0.051214	0.264186	-0.534912	0.386963	-0.522949	0.774616	-0.254403	-0.538085	-0.213809
13415		9.248884	-1.660449	2.117262	-0.399080	0.009404	0.263987	-0.530029	0.388916	-0.530518	0.774260	-0.258197	-0.536738	-0.213934
13416		9.531311	-2.032726	2.385330	-0.354880	0.087149	0.275676	-0.524414	0.402100	-0.532471	0.774406	-0.261550	-0.534919	-0.213888
13417		9.570805	-2.259222	2.811410	-0.330331	0.105075	0.288760	-0.532715	0.405518	-0.524414	0.774721	-0.264802	-0.532955	-0.213650
13418		9.303626	-2.306391	3.017225	-0.316509	0.044606	0.277342	-0.521484	0.412109	-0.516602	0.774702	-0.268021	-0.531487	-0.213363
13419		9.012424	-2.260970	2.755167	-0.258688	-0.076262	0.259993	-0.525391	0.410400	-0.528809	0.774245	-0.271044	-0.530904	-0.212650
13420		8.951918	-2.390724	2.427571	-0.175301	-0.098893	0.263157	-0.528076	0.413818	-0.517334	0.773915	-0.273479	-0.530621	-0.211438
13421		8.847595	-2.523589	2.491512	-0.116111	-0.047787	0.299380	-0.526367	0.410645	-0.524170	0.773954	-0.275634	-0.530053	-0.209917
13422		8.858772	-2.629149	2.494697	-0.082426	-0.002071	0.338574	-0.522949	0.424316	-0.516602	0.774367	-0.277591	-0.529163	-0.208052
13423		8.775372	-2.401715	2.722319	-0.077793	0.044703	0.334164	-0.517822	0.425537	-0.517822	0.774959	-0.279502	-0.527964	-0.206328
13424		8.747265	-2.229571	2.881254	-0.067372	-0.021409	0.301458	-0.520020	0.434570	-0.512451	0.775237	-0.281295	-0.527281	-0.204587
13425		8.818692	-2.118124	2.480869	-0.047960	-0.107955	0.263422	-0.514160	0.430664	-0.511230	0.775076	-0.282990	-0.527276	-0.202862
13426		8.982345	-2.357270	2.099363	-0.040734	-0.112113	0.225005	-0.513916	0.431152	-0.516113	0.774864	-0.284444	-0.527399	-0.201314
13427		9.338669	-2.530995	1.955512	-0.072724	-0.038534	0.216599	-0.505371	0.438477	-0.518799	0.774905	-0.285905	-0.527016	-0.200087
13428		9.238439	-2.158674	2.536712	-0.145708	0.098442	0.170838	-0.506592	0.443115	-0.512207	0.775337	-0.287416	-0.525709	-0.199685
13429		9.072335	-1.860598	2.690387	-0.141835	0.047392	0.117464	-0.515625	0.440674	-0.509766	0.775425	-0.288788	-0.524871	-0.199568
13430		9.063215	-2.062937	2.574844	-0.119310	0.002109	0.061355	-0.513672	0.440674	-0.510010	0.775223	-0.289832	-0.524525	-0.199750
13431		9.138746	-2.706827	2.073224	-0.035226	-0.101944	0.050674	-0.504150	0.442871	-0.510010	0.774762	-0.290445	-0.525015	-0.199360
13432		9.132725	-3.279683	2.040648	0.026493	-0.064324	0.052252	-0.509033	0.444092	-0.512451	0.774663	-0.290604	-0.525345	-0.198644
13433		8.707680	-2.944664	2.346220	0.046584	0.000388	0.018276	-0.515381	0.446533	-0.505859	0.774832	-0.290368	-0.525381	-0.198234
13434		8.442112	-2.258653	2.641451	0.062590	-0.011027	-0.037551	-0.503906	0.454102	-0.512207	0.774840	-0.289854	-0.525651	-0.198241
13435		8.562885	-2.145043	2.746572	0.094953	-0.051507	-0.083272	-0.520752	0.450195	-0.505371	0.774752	-0.288997	-0.526325	-0.198046
13436		8.921078	-2.398832	2.439258	0.125042	-0.083949	-0.130510	-0.516113	0.442383	-0.514160	0.774416	-0.287822	-0.527385	-0.198252
13437		9.056065	-2.528928	2.465475	0.139720	-0.045326	-0.159762	-0.512695	0.440674	-0.510254	0.774297	-0.286289	-0.528299	-0.198504
13438		9.019397	-2.373498	2.539136	0.163023	-0.022329	-0.168581	-0.516113	0.430176	-0.509277	0.774320	-0.284550	-0.529113	-0.198744
13439		8.928008	-2.237745	2.630711	0.177495	-0.006289	-0.191949	-0.522705	0.434082	-0.512451	0.774386	-0.282567	-0.529910	-0.199193
13440		8.930482	-2.144356	2.741802	0.202302	-0.017374	-0.223629	-0.520264	0.427246	-0.513184	0.774393	-0.280323	-0.530887	-0.199733
13441		8.996084	-2.232987	2.705700	0.228554	-0.062471	-0.246163	-0.520996	0.418457	-0.514893	0.774234	-0.277870	-0.532249	-0.200153
13442		9.164301	-2.282976	2.598048	0.216026	-0.050665	-0.251109	-0.520752	0.420410	-0.519775	0.774091	-0.275430	-0.533527	-0.200674
13443		9.168164	-2.090737	2.879037	0.148664	0.032820	-0.242647	-0.530518	0.414307	-0.517090	0.774206	-0.273323	-0.534128	-0.201511
13444		9.140129	-1.655922	2.879270	0.088963	0.011524	-0.272846	-0.527832	0.414307	-0.521240	0.773976	-0.271521	-0.534830	-0.202966
13445		9.258190	-1.614759	2.933455	0.084217	0.013540	-0.311855	-0.527588	0.413086	-0.522461	0.773711	-0.269559	-0.535597	-0.204559
13446		9.243349	-2.250959	2.625308	0.142660	-0.046025	-0.312515	-0.533447	0.405518	-0.525635	0.773321	-0.267319	-0.536844	-0.205704
13447		9.382267	-2.789067	2.289074	0.198030	-0.019875	-0.276669	-0.528320	0.406494	-0.525146	0.773219	-0.264813	-0.537939	-0.206463
13448		9.270761	-2.777744	2.582215	0.208701	0.048142	-0.237262	-0.529053	0.397705	-0.517578	0.773542	-0.262309	-0.538522	-0.206931
13449		9.191511	-2.267493	2.710324	0.205942	0.019197	-0.226565	-0.541504	0.392334	-0.529541	0.773697	-0.259949	-0.539249	-0.207437
13450		8.998804	-1.992964	2.791578	0.253849	0.008542	-0.256853	-0.537354	0.392334	-0.526367	0.773839	-0.257123	-0.540200	-0.207954
13451		8.886948	-2.160428	2.841003	0.300783	-0.056131	-0.279966	-0.533936	0.366943	-0.523926	0.773755	-0.254026	-0.541688	-0.208204
13452		9.054906	-2.075293	2.313969	0.323754	-0.083894	-0.267123	-0.545410	0.378174	-0.525879	0.773594	-0.250836	-0.543365	-0.208298
13453		9.118234	-1.798495	2.538964	0.264944	0.083569	-0.244340	-0.538330	0.370361	-0.534424	0.774074	-0.247898	-0.543796	-0.208906
13454		9.284222	-1.562606	2.799677	0.223707	0.034422	-0.258543	-0.542725	0.365479	-0.525635	0.774284	-0.245184	-0.544514	-0.209460
13455		9.615920	-1.525851	2.875035	0.225568	-0.005122	-0.278438	-0.547363	0.365234	-0.538086	0.774207	-0.242498	-0.545506	-0.210288
13456		9.514363	-1.698809	2.871076	0.273943	-0.058491	-0.272117	-0.547607	0.361328	-0.531738	0.774034	-0.239578	-0.546924	-0.210588
13457		9.333990	-2.002183	2.642514	0.322941	-0.097274	-0.213887	-0.541992	0.357178	-0.534912	0.773851	-0.236711	-0.548545	-0.210288
13458		9.368217	-1.771304	2.516685	0.336588	-0.041743	-0.147137	-0.552490	0.345947	-0.537354	0.774112	-0.233932	-0.549704	-0.209410
13459		9.487350	-1.322112	2.581792	0.345633	0.035055	-0.110410	-0.552002	0.342041	-0.545166	0.774743	-0.231127	-0.550303	-0.208617
13460		9.495462	-1.305263	3.093142	0.312814	0.097757	-0.091639	-0.551025	0.342041	-0.547363	0.775656	-0.228477	-0.550408	-0.207861
13461		9.334846	-0.988344	3.035773	0.311900	0.001261	-0.114006	-0.555664	0.337158	-0.539795	0.776087	-0.225906	-0.551172	-0.207039
13462		9.062034	-0.950574	2.842454	0.335779	-0.034851	-0.128224	-0.555908	0.323730	-0.550293	0.776294	-0.223238	-0.552213	-0.206380
13463		9.241444	-1.162762	2.555207	0.345355	-0.011502	-0.102438	-0.552734	0.337402	-0.556152	0.776701	-0.220509	-0.553085	-0.205449
13464		9.401693	-1.360668	2.732840	0.281668	0.074320	-0.084495	-0.550781	0.323486	-0.547852	0.777477	-0.218139	-0.553259	-0.204574
13465		9.531524	-0.963854	2.884231	0.258777	0.023644	-0.096850	-0.560059	0.321289	-0.550049	0.777894	-0.215970	-0.553729	-0.204015
13466		9.208230	-0.814484	2.627093	0.295768	-0.041632	-0.145610	-0.550537	0.321289	-0.552734	0.777943	-0.213474	-0.554763	-0.203648
13467		8.849298	-1.181269	2.658452	0.392060	-0.106583	-0.171376	-0.556641	0.308105	-0.547852	0.777884	-0.210310	-0.556431	-0.202611
13468		8.893894	-1.263182	2.619517	0.461277	-0.104183	-0.171509	-0.562012	0.309570	-0.544189	0.777880	-0.206716	-0.558183	-0.201502
13469		9.252866	-0.991273	2.719491	0.498342	-0.048258	-0.138494	-0.568604	0.306396	-0.554932	0.778209	-0.202993	-0.559559	-0.200199
13470		9.515874	-0.670542	2.834724	0.476461	-0.025568	-0.096171	-0.561035	0.291504	-0.558594	0.778681	-0.199542	-0.560678	-0.198691
13471		9.585573	-0.338390	2.760324	0.419878	-0.030271	-0.068263	-0.558594	0.289307	-0.560547	0.779113	-0.196534	-0.561691	-0.197130
13472		9.406176	-0.191205	2.683270	0.357745	-0.037315	-0.067024	-0.566895	0.285889	-0.566895	0.779424	-0.193944	-0.562637	-0.195765
13473		9.210234	-0.210350	2.600299	0.303041	-0.069262	-0.108554	-0.562012	0.280518	-0.562500	0.779405	-0.191562	-0.563767	-0.194933
13474		9.209898	-0.370140	2.508431	0.263553	-0.077793	-0.174376	-0.571777	0.278809	-0.565186	0.779176	-0.189145	-0.564986	-0.194680
13475		9.338778	-0.456484	2.553737	0.246175	-0.053968	-0.222088	-0.567139	0.270996	-0.562012	0.778918	-0.186594	-0.566093	-0.194958
13476		9.456802	-0.503963	2.727444	0.246089	-0.032937	-0.224127	-0.570557	0.266602	-0.559814	0.778761	-0.183989	-0.567062	-0.195244
13477		9.547816	-0.529243	2.769650	0.258721	-0.021130	-0.193444	-0.573975	0.274414	-0.563721	0.778698	-0.181444	-0.567924	-0.195371
13478		9.670457	-0.516956	2.815850	0.279198	0.032434	-0.157889	-0.568604	0.269287	-0.573975	0.778988	-0.178879	-0.568407	-0.195175
13479		9.598472	-0.580737	2.792048	0.293470	0.051530	-0.133812	-0.574219	0.260498	-0.572510	0.779490	-0.176250	-0.568751	-0.194561
13480		9.421254	-0.440442	2.719044	0.320620	0.084414	-0.137446	-0.570068	0.253906	-0.574707	0.780129	-0.173380	-0.568931	-0.194052
13481		9.328753	-0.384492	2.812986	0.323750	0.007894	-0.132589	-0.575684	0.250977	-0.575928	0.780427	-0.170620	-0.569601	-0.193331
13482		9.409271	-0.213821	2.851040	0.282738	-0.003753	-0.129246	-0.576416	0.241943	-0.569580	0.780587	-0.168176	-0.570273	-0.192845
13483		9.347421	-0.096887	2.813873	0.247499	-0.030512	-0.134384	-0.581787	0.243408	-0.576416	0.780518	-0.165991	-0.571071	-0.192654
13484		9.383672	-0.134874	2.644823	0.232611	0.015318	-0.139786	-0.574463	0.242676	-0.575439	0.780646	-0.163803	-0.571552	-0.192585
13485		9.424553	-0.423910	2.748862	0.254524	0.088224	-0.130495	-0.573486	0.228760	-0.567383	0.781193	-0.161400	-0.571570	-0.192341
13486		9.404499	-0.606994	3.050560	0.273557	0.112834	-0.103330	-0.571777	0.227783	-0.579346	0.781873	-0.158957	-0.571431	-0.192025
13487		9.522687	-0.397855	3.106190	0.266949	0.063781	-0.072132	-0.577393	0.233887	-0.577881	0.782405	-0.156758	-0.571549	-0.191314
13488		9.523706	0.005853	3.082854	0.224099	0.035418	-0.052017	-0.572510	0.218018	-0.578369	0.782744	-0.155031	-0.571755	-0.190717
13489		9.501659	0.228755	3.011308	0.179969	0.022406	-0.041307	-0.572021	0.224121	-0.578125	0.782987	-0.153606	-0.571968	-0.190236
13490		9.402959	0.148923	2.900833	0.144371	0.029096	-0.038694	-0.570557	0.221191	-0.583008	0.783223	-0.152450	-0.572069	-0.189890
13491		9.261707	-0.128939	2.943514	0.114797	0.034827	-0.038597	-0.576172	0.217529	-0.582031	0.783468	-0.151461	-0.572081	-0.189631
13492		9.137719	-0.219642	2.983997	0.077349	0.000366	-0.049162	-0.573730	0.221191	-0.586670	0.783453	-0.150720	-0.572284	-0.189673
13493		9.216309	-0.164673	2.829536	0.052068	-0.001182	-0.055343	-0.570801	0.220215	-0.585693	0.783419	-0.150125	-0.572452	-0.189777
13494		9.296827	-0.123463	2.889509	0.036338	0.042666	-0.063201	-0.571777	0.216309	-0.586426	0.783571	-0.149526	-0.572315	-0.190036
13495		9.358271	-0.108762	2.959254	0.031147	0.052359	-0.065246	-0.575928	0.222412	-0.584961	0.783753	-0.148924	-0.572113	-0.190366
13496		9.354291	-0.185821	2.994048	0.022394	0.049022	-0.066538	-0.572998	0.209717	-0.584473	0.783886	-0.148413	-0.571923	-0.190787
13497		9.312469	-0.158175	3.067414	0.014150	0.025349	-0.067250	-0.568604	0.203857	-0.581543	0.783894	-0.147939	-0.571884	-0.191239
13498		9.292856	-0.054707	3.043439	-0.006535	0.017834	-0.056462	-0.569092	0.216797	-0.585205	0.783861	-0.147646	-0.571850	-0.191703
13499		9.330735	0.069187	3.083331	-0.022006	0.026564	-0.042720	-0.568604	0.202881	-0.590820	0.783891	-0.147559	-0.571698	-0.192097
13500		9.349553	0.062058	3.019414	-0.039470	0.024893	-0.029494	-0.576660	0.215820	-0.585449	0.783925	-0.147579	-0.571521	-0.192472
13501		9.340426	-0.099377	3.008482	-0.043178	0.008717	-0.025754	-0.572510	0.215576	-0.581787	0.783841	-0.147737	-0.571447	-0.192914
13502		9.382794	-0.282550	2.892968	-0.029767	-0.012426	-0.024019	-0.572510	0.212402	-0.576904	0.783679	-0.147854	-0.571527	-0.193244
13503		9.385867	-0.354186	2.887350	-0.004612	0.017696	-0.021804	-0.570312	0.213379	-0.587891	0.783680	-0.147760	-0.571458	-0.193516
13504		9.300683	-0.388017	2.909569	0.019018	0.025936	-0.011131	-0.573486	0.215088	-0.579346	0.783810	-0.147537	-0.571341	-0.193505
13505		9.276545	-0.384796	2.965573	0.041743	0.048606	-0.000291	-0.564941	0.213379	-0.590576	0.784055	-0.147203	-0.571115	-0.193434
13506		9.261370	-0.344797	3.001321	0.069240	0.048077	0.005484	-0.568848	0.216309	-0.588867	0.784402	-0.146697	-0.570900	-0.193048
13507		9.249869	-0.254095	2.949082	0.087127	0.064785	0.010194	-0.563721	0.206787	-0.586426	0.784836	-0.146089	-0.570606	-0.192612
13508		9.340575	-0.133827	2.907418	0.091673	0.094334	0.012734	-0.564697	0.203613	-0.595459	0.785420	-0.145379	-0.570130	-0.192178
13509		9.411251	-0.078084	2.957967	0.100456	0.125371	0.007196	-0.569580	0.211182	-0.589111	0.786169	-0.144511	-0.569465	-0.191742
13510		9.431039	-0.140216	2.967247	0.126376	0.145313	-0.000353	-0.566650	0.210938	-0.583496	0.786988	-0.143456	-0.568735	-0.191340
13511		9.367977	-0.166879	3.113264	0.140559	0.157528	-0.006940	-0.568359	0.201172	-0.597168	0.787853	-0.142274	-0.567961	-0.190963
13512		9.205479	-0.173977	3.184787	0.135571	0.119373	-0.010873	-0.571289	0.205566	-0.596924	0.788545	-0.141104	-0.567432	-0.190544
13513		9.164059	-0.090960	3.221573	0.118843	0.095634	-0.005632	-0.564453	0.202148	-0.597656	0.789096	-0.140136	-0.567031	-0.190171
13514		9.155922	0.119402	3.247273	0.092958	0.067174	-0.008671	-0.557129	0.200684	-0.599609	0.789494	-0.139362	-0.566769	-0.189872
13515		9.113885	0.265388	3.236098	0.059115	0.034997	-0.007478	-0.568115	0.199707	-0.605225	0.789726	-0.138869	-0.566644	-0.189639
13516		9.113751	0.227445	3.226987	0.038115	-0.005372	-0.018029	-0.561035	0.195068	-0.600586	0.789705	-0.138510	-0.566784	-0.189570
13517		9.185933	0.082388	3.186084	0.021878	-0.017355	-0.026764	-0.567627	0.187500	-0.593262	0.789603	-0.138227	-0.566983	-0.189607
13518		9.244271	0.009548	3.139594	0.003167	-0.016292	-0.036677	-0.563477	0.203369	-0.592041	0.789427	-0.137986	-0.567196	-0.189878
13519		9.275838	0.004543	3.104466	-0.014849	-0.013920	-0.045711	-0.563477	0.206787	-0.597412	0.789241	-0.137910	-0.567342	-0.190269
13520		9.288294	-0.028747	3.100545	-0.016205	-0.013438	-0.047445	-0.569824	0.195801	-0.603516	0.789071	-0.137847	-0.567468	-0.190644
13521		9.273358	-0.074573	3.177716	-0.023545	-0.031298	-0.042427	-0.567627	0.205322	-0.595459	0.788815	-0.137808	-0.567716	-0.190995
13522		9.312634	-0.056294	3.124164	-0.018933	-0.041635	-0.036141	-0.561035	0.196777	-0.597656	0.788513	-0.137852	-0.568023	-0.191296
13523		9.277573	0.056338	3.105479	-0.024693	-0.042283	-0.032044	-0.559326	0.197021	-0.592529	0.788235	-0.137912	-0.568309	-0.191549
13524		9.298169	0.079390	3.025239	-0.026135	-0.038125	-0.025741	-0.560791	0.199951	-0.596191	0.787979	-0.138014	-0.568560	-0.191784
13525		9.359276	-0.021401	3.050242	-0.019120	-0.034591	-0.014823	-0.572266	0.197266	-0.597900	0.787773	-0.138127	-0.568776	-0.191906
13526		9.401428	-0.089919	2.949097	-0.006406	-0.035348	-0.010532	-0.566650	0.203857	-0.593506	0.787560	-0.138146	-0.569046	-0.191968
13527		9.451927	-0.106070	2.938793	0.009636	-0.008500	-0.003673	-0.564941	0.195801	-0.597412	0.787510	-0.138100	-0.569136	-0.191938
13528		9.425110	-0.073191	3.006525	0.018683	-0.001307	-0.000366	-0.558838	0.198486	-0.601562	0.787526	-0.137949	-0.569190	-0.191822
13529		9.414636	-0.031505	2.983202	0.022416	0.001552	0.008427	-0.562988	0.197021	-0.596680	0.787600	-0.137832	-0.569189	-0.191602
13530		9.314065	0.001272	3.023273	0.031162	0.012117	0.012564	-0.562500	0.199707	-0.606201	0.787717	-0.137652	-0.569154	-0.191357
13531		9.293191	-0.003478	2.980492	0.037015	0.001610	0.018355	-0.566650	0.196289	-0.591797	0.787825	-0.137485	-0.569164	-0.191002
13532		9.292809	0.030396	2.924965	0.041349	0.019732	0.023391	-0.565918	0.198730	-0.597168	0.787982	-0.137277	-0.569107	-0.190673
13533		9.330466	0.017224	2.955603	0.042025	0.028165	0.027065	-0.563721	0.198975	-0.591064	0.788201	-0.137079	-0.568974	-0.190310
13534		9.370810	0.015461	2.980408	0.039169	0.041158	0.031944	-0.567871	0.195068	-0.594482	0.788473	-0.136914	-0.568753	-0.189958
13535		9.361286	0.030390	3.013387	0.035903	0.046373	0.035103	-0.563965	0.196289	-0.597168	0.788768	-0.136745	-0.568504	-0.189602
13536		9.293346	-0.016905	3.064628	0.015833	0.040733	0.036166	-0.564697	0.198975	-0.598145	0.789028	-0.136731	-0.568242	-0.189316
13537		9.283131	0.029927	3.064085	0.003054	0.027859	0.034289	-0.557617	0.198486	-0.603760	0.789208	-0.136826	-0.568045	-0.189091
13538		9.245955	0.013414	3.090741	-0.004321	0.024262	0.029433	-0.571777	0.190186	-0.600586	0.789384	-0.136950	-0.567832	-0.188903
13539		9.211776	-0.008861	3.023019	-0.007977	0.017667	0.028094	-0.561523	0.193115	-0.597900	0.789479	-0.137036	-0.567729	-0.188752
13540		9.245693	-0.046267	3.018260	-0.014936	0.028982	0.027741	-0.553467	0.194092	-0.607422	0.789637	-0.137181	-0.567510	-0.188645
13541		9.317350	-0.095832	3.043325	-0.021818	0.052388	0.032694	-0.563232	0.195801	-0.605713	0.789948	-0.137360	-0.567072	-0.188531
13542		9.385039	-0.062737	3.118535	-0.021665	0.063570	0.035238	-0.560059	0.198975	-0.602783	0.790283	-0.137529	-0.566596	-0.188434
13543		9.356388	0.050543	3.167515	-0.030431	0.054564	0.038836	-0.559570	0.197998	-0.604980	0.790569	-0.137810	-0.566156	-0.188353
13544		9.261541	0.048906	3.142050	-0.048047	0.016080	0.040392	-0.560303	0.201416	-0.601074	0.790659	-0.138263	-0.565939	-0.188295
13545		9.228011	0.014355	3.029481	-0.051147	0.003986	0.034896	-0.564209	0.201416	-0.601074	0.790668	-0.138748	-0.565811	-0.188287
13546		9.173907	-0.031863	3.058809	-0.061979	0.012443	0.028773	-0.560791	0.195557	-0.601318	0.790684	-0.139252	-0.565632	-0.188382
13547		9.209028	-0.018971	3.082437	-0.075757	0.027103	0.022515	-0.552246	0.195068	-0.599854	0.790753	-0.139761	-0.565342	-0.188587
13548		9.258055	0.017485	3.152638	-0.090717	0.032347	0.018897	-0.553955	0.203369	-0.602539	0.790839	-0.140349	-0.564976	-0.188888
13549		9.285079	0.031013	3.117961	-0.107882	0.025612	0.010084	-0.554932	0.209229	-0.597900	0.790860	-0.141051	-0.564625	-0.189326
13550		9.248370	-0.021350	3.175918	-0.113381	0.025393	0.005881	-0.550781	0.214600	-0.603760	0.790851	-0.141802	-0.564278	-0.189836
13551		9.273671	-0.095962	3.167537	-0.113393	0.016727	0.010779	-0.560791	0.204590	-0.601074	0.790832	-0.142607	-0.563946	-0.190295
13552		9.312617	-0.156921	3.162851	-0.116640	0.049851	0.020317	-0.547363	0.199463	-0.601807	0.790950	-0.143356	-0.563441	-0.190737
13553		9.275318	-0.160044	3.254087	-0.122882	0.057871	0.028600	-0.562012	0.210938	-0.604248	0.791143	-0.144151	-0.562828	-0.191148
13554		9.339637	-0.163971	3.249612	-0.142395	0.039920	0.048214	-0.548340	0.205811	-0.600098	0.791227	-0.145228	-0.562308	-0.191513
13555		9.353640	-0.026564	3.285536	-0.164626	0.035130	0.057297	-0.553467	0.212402	-0.604736	0.791297	-0.146486	-0.561748	-0.191912
13556		9.275665	0.082655	3.321655	-0.194429	0.034419	0.049639	-0.557373	0.221191	-0.600830	0.791310	-0.147914	-0.561154	-0.192497
13557		9.310267	0.040369	3.336807	-0.216339	0.039978	0.058604	-0.553955	0.215332	-0.605469	0.791315	-0.149555	-0.560487	-0.193152
13558		9.319744	-0.056140	3.371231	-0.234072	0.039181	0.067164	-0.551025	0.228271	-0.607422	0.791324	-0.151302	-0.559778	-0.193807
13559		9.375482	-0.200691	3.317296	-0.244450	0.019857	0.079410	-0.552002	0.225586	-0.595947	0.791258	-0.153254	-0.559131	-0.194416
13560		9.365758	-0.235080	3.239753	-0.250394	-0.002150	0.093219	-0.549072	0.230713	-0.593018	0.791070	-0.155335	-0.558638	-0.194946
13561		9.416624	-0.322127	3.193882	-0.255078	0.001648	0.110720	-0.542236	0.241943	-0.597900	0.790919	-0.157537	-0.558078	-0.195393
13562		9.446188	-0.434463	3.223011	-0.254688	0.032920	0.127876	-0.547363	0.238770	-0.594238	0.790965	-0.159798	-0.557237	-0.195768
13563		9.302587	-0.418098	3.308699	-0.243640	0.056199	0.143612	-0.546387	0.239502	-0.598145	0.791135	-0.161985	-0.556278	-0.196011
13564		9.144361	-0.438549	3.262524	-0.220571	0.046452	0.170250	-0.546875	0.246094	-0.589600	0.791341	-0.164136	-0.555378	-0.195945
13565		9.086409	-0.475123	3.305096	-0.215164	0.023958	0.193689	-0.547852	0.254150	-0.596680	0.791460	-0.166422	-0.554619	-0.195684
13566		9.130481	-0.471779	3.287008	-0.216994	-0.021467	0.215035	-0.548340	0.254639	-0.597168	0.791411	-0.168895	-0.554105	-0.195221
13567		9.183233	-0.395993	3.085974	-0.215447	-0.039658	0.215057	-0.543701	0.250244	-0.598633	0.791275	-0.171364	-0.553718	-0.194714
13568		9.187761	-0.391456	3.043541	-0.215359	-0.021530	0.209644	-0.539551	0.263184	-0.588379	0.791226	-0.173737	-0.553212	-0.194252
13569		9.170231	-0.440939	3.149185	-0.226877	-0.004641	0.215377	-0.545166	0.266602	-0.581787	0.791227	-0.176248	-0.552553	-0.193859
13570		9.155425	-0.589916	3.268378	-0.246943	-0.006853	0.217340	-0.543945	0.270264	-0.589355	0.791159	-0.178902	-0.551907	-0.193548
13571		9.183656	-0.619905	3.182633	-0.261985	-0.021902	0.217974	-0.537598	0.271240	-0.590820	0.791015	-0.181660	-0.551312	-0.193261
13572		9.160885	-0.602199	3.123928	-0.305516	-0.022885	0.212405	-0.535400	0.280518	-0.588867	0.790804	-0.184665	-0.550638	-0.193198
13573		9.164670	-0.623210	3.240607	-0.356534	-0.035132	0.201136	-0.537598	0.278564	-0.577881	0.790434	-0.187995	-0.549961	-0.193432
13574		9.155183	-0.770632	3.296944	-0.388665	-0.088068	0.182665	-0.537842	0.295410	-0.576416	0.789704	-0.191515	-0.549645	-0.193854
13575		9.152144	-0.984422	3.213853	-0.379087	-0.128555	0.186989	-0.540039	0.290771	-0.582031	0.788801	-0.195108	-0.549572	-0.194158
13576		9.103523	-1.061908	3.205658	-0.393578	-0.124897	0.226239	-0.533936	0.300293	-0.573486	0.787961	-0.198898	-0.549391	-0.194232
13577		9.174633	-1.173056	3.261846	-0.425805	-0.120590	0.277801	-0.540039	0.303955	-0.581299	0.787157	-0.203162	-0.549015	-0.194139
13578		9.193559	-1.322954	3.218830	-0.461194	-0.151942	0.323984	-0.536133	0.308838	-0.568848	0.786222	-0.207871	-0.548708	-0.193815
13579		9.309686	-1.189340	3.100464	-0.480792	-0.191692	0.354143	-0.540039	0.323730	-0.561768	0.785086	-0.212917	-0.548572	-0.193325
13580		9.308030	-1.253939	2.904665	-0.485969	-0.236187	0.366677	-0.538330	0.332764	-0.558838	0.783719	-0.218156	-0.548683	-0.192716
13581		9.340387	-1.468884	2.693882	-0.479653	-0.230490	0.369797	-0.538330	0.337891	-0.560303	0.782380	-0.223355	-0.548733	-0.192057
13582		9.309101	-1.602939	2.690512	-0.473496	-0.146507	0.352884	-0.539551	0.354248	-0.538574	0.781405	-0.228268	-0.548260	-0.191603
13583		9.244970	-1.823257	2.892524	-0.460395	-0.087478	0.336271	-0.539307	0.352783	-0.548584	0.780626	-0.233003	-0.547452	-0.191385
13584		9.136685	-2.087282	2.918900	-0.424774	-0.092840	0.324721	-0.542236	0.358398	-0.543457	0.779892	-0.237382	-0.546751	-0.191002
13585		9.176894	-2.253622	2.696139	-0.376961	-0.093617	0.305243	-0.534912	0.362061	-0.534180	0.779189	-0.241353	-0.546177	-0.190536
13586		9.329470	-2.322498	2.593990	-0.318962	-0.037152	0.286703	-0.537109	0.374512	-0.529053	0.778818	-0.244783	-0.545350	-0.190046
13587		9.507976	-2.424064	2.810549	-0.259281	0.030002	0.300215	-0.533936	0.371582	-0.543701	0.778868	-0.247815	-0.544144	-0.189366
13588		9.484220	-2.484203	2.839305	-0.211454	0.018503	0.332463	-0.527588	0.387451	-0.544434	0.779056	-0.250615	-0.543018	-0.188137
13589		9.411666	-2.348326	2.777626	-0.187666	0.046212	0.351191	-0.520996	0.389893	-0.540771	0.779451	-0.253347	-0.541669	-0.186724
13590		9.220052	-2.211488	2.818871	-0.178153	0.074633	0.362648	-0.523438	0.398926	-0.531250	0.780006	-0.256024	-0.540117	-0.185246
13591		9.069317	-2.213751	2.759674	-0.160882	0.072315	0.359507	-0.516357	0.396484	-0.538574	0.780534	-0.258614	-0.538620	-0.183775
13592		9.010305	-2.323755	2.812850	-0.133271	0.105064	0.353242	-0.519287	0.403809	-0.533447	0.781284	-0.260894	-0.536960	-0.182221
13593		9.028004	-2.510415	2.836548	-0.084513	0.090222	0.364470	-0.520508	0.409424	-0.537598	0.782051	-0.262950	-0.535452	-0.180401
13594		9.160234	-2.615255	2.548683	-0.031359	0.071534	0.387298	-0.508301	0.411621	-0.544189	0.782877	-0.264777	-0.534097	-0.178149
13595		9.180700	-2.582661	2.639497	-0.012781	0.181933	0.413534	-0.495605	0.416748	-0.541992	0.784304	-0.266413	-0.531967	-0.175792
13596		8.922484	-2.492269	2.888306	-0.019433	0.192079	0.411832	-0.495605	0.410400	-0.541260	0.785757	-0.268088	-0.529739	-0.173466
13597		8.718520	-2.474086	2.948551	-0.009935	0.112222	0.386400	-0.493652	0.423828	-0.548096	0.786816	-0.269667	-0.528127	-0.171123
13598		8.753742	-2.531975	2.354563	-0.000488	-0.001851	0.346510	-0.496582	0.421875	-0.534424	0.787339	-0.271182	-0.527349	-0.168701
13599		9.016919	-2.573342	2.350918	0.028616	0.017925	0.324740	-0.498047	0.430176	-0.535645	0.787927	-0.272408	-0.526543	-0.166484
13600		9.098909	-2.783845	2.491022	0.092407	0.024731	0.327794	-0.481689	0.433350	-0.543213	0.788680	-0.273233	-0.525767	-0.164002
13601		8.913695	-2.872132	2.622510	0.154406	0.047078	0.320075	-0.479980	0.428711	-0.541260	0.789709	-0.273569	-0.524921	-0.161179
13602		8.559427	-2.694133	2.989619	0.144992	0.051422	0.306612	-0.483887	0.435791	-0.545654	0.790698	-0.273889	-0.524071	-0.158529
13603		8.377632	-2.481154	2.938148	0.136379	-0.002697	0.279533	-0.476318	0.439209	-0.548584	0.791380	-0.274224	-0.523626	-0.155996
13604		8.681735	-2.152795	2.658818	0.125522	-0.053042	0.220306	-0.470947	0.428467	-0.545410	0.791756	-0.274436	-0.523623	-0.153711
13605		8.721651	-2.201400	2.645353	0.087278	-0.042130	0.151044	-0.486572	0.436279	-0.544189	0.792002	-0.274558	-0.523665	-0.152071
13606		8.593826	-2.483013	2.610736	0.024944	0.014507	0.087121	-0.473877	0.438477	-0.550049	0.792221	-0.274772	-0.523406	-0.151431
13607		8.626913	-2.586974	2.847596	-0.025366	0.018883	0.028414	-0.475830	0.433350	-0.553467	0.792319	-0.275036	-0.523181	-0.151221
13608		8.721796	-2.629655	2.866634	-0.029437	0.011142	-0.017594	-0.476074	0.429199	-0.544434	0.792317	-0.275106	-0.523122	-0.151304
13609		8.832383	-2.564271	2.684642	-0.035434	0.023612	-0.057586	-0.477295	0.438232	-0.553467	0.792281	-0.275048	-0.523062	-0.151811
13610		8.919921	-2.541470	2.570367	-0.058912	0.064916	-0.106525	-0.477051	0.428467	-0.540527	0.792332	-0.274866	-0.522813	-0.152728
13611		9.024837	-2.464813	2.806755	-0.048101	0.084107	-0.153406	-0.472656	0.438965	-0.546143	0.792393	-0.274412	-0.522550	-0.154116
13612		8.973670	-2.644398	2.800819	-0.025396	0.028380	-0.193122	-0.485107	0.437500	-0.547119	0.792244	-0.273705	-0.522770	-0.155392
13613		8.856317	-2.842506	2.687384	0.006841	-0.011147	-0.212464	-0.476562	0.431641	-0.547607	0.791936	-0.272758	-0.523340	-0.156701
13614		8.701385	-2.886985	2.641505	0.045237	-0.004384	-0.214564	-0.491943	0.431396	-0.549561	0.791773	-0.271515	-0.523923	-0.157734
13615		8.759142	-2.918304	2.536498	0.103521	-0.006918	-0.225222	-0.489258	0.426270	-0.546875	0.791676	-0.269857	-0.524622	-0.158741
13616		8.745744	-2.953355	2.584728	0.167776	0.028843	-0.252981	-0.484619	0.419189	-0.547363	0.791841	-0.267608	-0.525227	-0.159716
13617		8.710752	-3.030933	2.702480	0.227102	0.017686	-0.278022	-0.481201	0.415039	-0.555176	0.792067	-0.264860	-0.526040	-0.160503
13618		8.871928	-2.738579	2.709021	0.253571	-0.011558	-0.294850	-0.494385	0.414795	-0.552002	0.792229	-0.261865	-0.527126	-0.161054
13619		8.964267	-2.317413	2.892344	0.279002	-0.000014	-0.311815	-0.485840	0.406250	-0.556885	0.792416	-0.258655	-0.528185	-0.161848
13620		9.104656	-2.276937	2.953781	0.277589	-0.020379	-0.303573	-0.491455	0.391357	-0.560059	0.792557	-0.255476	-0.529365	-0.162350
13621		9.064351	-2.435179	3.002300	0.250105	-0.016107	-0.303465	-0.501709	0.400146	-0.561035	0.792638	-0.252453	-0.530482	-0.163039
13622		8.986816	-2.506797	2.967187	0.230537	-0.070973	-0.318798	-0.494873	0.383789	-0.555420	0.792384	-0.249602	-0.531945	-0.163893
13623		9.117983	-2.651131	2.776482	0.247051	-0.073897	-0.297555	-0.500732	0.390869	-0.553711	0.792177	-0.246732	-0.533401	-0.164508
13624		9.069247	-2.587719	2.851958	0.265126	-0.054477	-0.264661	-0.513672	0.376465	-0.565918	0.792117	-0.243897	-0.534664	-0.164920
13625		9.017822	-2.502448	3.021277	0.306052	-0.060612	-0.244684	-0.508789	0.375000	-0.563721	0.792124	-0.240844	-0.536000	-0.165040
13626		9.088130	-2.610994	2.950405	0.360073	-0.121276	-0.211704	-0.508057	0.373779	-0.568359	0.792020	-0.237667	-0.537733	-0.164504
13627		8.980048	-2.751076	2.724766	0.380881	-0.149035	-0.184853	-0.514160	0.371826	-0.563232	0.791887	-0.234487	-0.539624	-0.163515
13628		8.891453	-2.441087	2.645396	0.390358	-0.095260	-0.176172	-0.515381	0.360107	-0.567383	0.791982	-0.231251	-0.541131	-0.162678
13629		8.813649	-2.199403	3.024613	0.368076	-0.050749	-0.183811	-0.509766	0.356201	-0.574951	0.792222	-0.228041	-0.542332	-0.162042
13630		8.910404	-1.888020	2.993087	0.385478	-0.122789	-0.231509	-0.514648	0.351807	-0.573975	0.792143	-0.224542	-0.544132	-0.161276
13631		9.062434	-1.799617	2.598376	0.457065	-0.133598	-0.269802	-0.515137	0.350098	-0.574951	0.792070	-0.220424	-0.546153	-0.160485
13632		9.142137	-2.017713	2.681732	0.504444	-0.114768	-0.258630	-0.529297	0.335205	-0.583984	0.792179	-0.216008	-0.548079	-0.159378
13633		9.204502	-2.007498	2.488455	0.479195	-0.103585	-0.229333	-0.524414	0.332031	-0.586182	0.792289	-0.211865	-0.549840	-0.158325
13634		9.341662	-1.527700	2.868469	0.428212	0.011279	-0.245160	-0.522949	0.322510	-0.581299	0.792835	-0.207798	-0.550799	-0.157648
13635		9.396238	-1.208352	3.306952	0.406233	0.020505	-0.267186	-0.531006	0.320801	-0.579834	0.793323	-0.203793	-0.551683	-0.157331
13636		9.539205	-1.174205	3.061137	0.380357	-0.048206	-0.277863	-0.530273	0.313965	-0.586914	0.793386	-0.200049	-0.552980	-0.157263
13637		9.358274	-0.940727	2.884056	0.348134	-0.016698	-0.308771	-0.535889	0.305420	-0.586914	0.793522	-0.196281	-0.554083	-0.157446
13638		9.134742	-0.787604	3.154244	0.268701	0.079036	-0.328635	-0.537109	0.303467	-0.584473	0.793906	-0.192848	-0.554465	-0.158403
13639		9.108674	-0.783123	3.366650	0.211444	0.094510	-0.324311	-0.532715	0.297119	-0.577393	0.794251	-0.189821	-0.554646	-0.159691
13640		9.164315	-0.876945	3.334492	0.187840	0.086926	-0.316439	-0.534424	0.285156	-0.586670	0.794507	-0.187040	-0.554813	-0.161114
13641		9.304161	-1.205954	3.026246	0.170555	-0.007924	-0.301064	-0.536865	0.286621	-0.591309	0.794328	-0.184526	-0.555569	-0.162283
13642		9.470361	-1.451534	2.632682	0.203660	0.020098	-0.274731	-0.543457	0.277344	-0.585449	0.794380	-0.181847	-0.556146	-0.163073
13643		9.420052	-1.527604	2.980116	0.264670	0.105127	-0.247650	-0.541504	0.273193	-0.591553	0.794887	-0.178850	-0.556183	-0.163791
13644		9.226009	-1.083639	3.261121	0.307578	0.101690	-0.222779	-0.531250	0.275391	-0.590820	0.795496	-0.175647	-0.556267	-0.164016
13645		9.223868	-0.716083	3.183874	0.319264	0.075418	-0.224083	-0.540771	0.264160	-0.589600	0.796031	-0.172370	-0.556534	-0.163990
13646		9.124960	-0.417371	3.291654	0.284498	0.069917	-0.229577	-0.542725	0.254883	-0.597168	0.796413	-0.169367	-0.556786	-0.164410
13647		9.028501	-0.193074	3.266449	0.268834	0.019908	-0.248103	-0.534912	0.264648	-0.601318	0.796518	-0.166417	-0.557381	-0.164896
13648		9.183826	-0.262518	3.067074	0.288268	0.023193	-0.233279	-0.537354	0.249512	-0.596680	0.796747	-0.163347	-0.557950	-0.164934
13649		9.289861	-0.433623	3.245167	0.314788	0.085226	-0.208252	-0.545898	0.249512	-0.597168	0.797281	-0.160178	-0.558101	-0.164950
13650		9.260253	-0.537182	3.525451	0.307406	0.056273	-0.173655	-0.541016	0.239990	-0.602295	0.797675	-0.157296	-0.558382	-0.164871
13651		9.209657	-0.344497	3.306983	0.290340	-0.035080	-0.163231	-0.542236	0.235352	-0.602539	0.797658	-0.154661	-0.559232	-0.164563
13652		9.283830	-0.038392	3.046544	0.269900	-0.023152	-0.177383	-0.543945	0.231934	-0.612793	0.797641	-0.152082	-0.559990	-0.164472
13653		9.245588	-0.139822	3.170252	0.252352	0.016491	-0.188440	-0.533691	0.225586	-0.603027	0.797802	-0.149459	-0.560476	-0.164441
13654		9.230031	-0.360625	3.231309	0.260627	-0.007493	-0.176954	-0.547119	0.223145	-0.605469	0.797868	-0.146899	-0.561102	-0.164294
13655		9.276618	-0.501538	3.224319	0.278007	-0.017223	-0.153209	-0.538330	0.215332	-0.607666	0.797894	-0.144377	-0.561791	-0.164047
13656		9.289279	-0.621624	3.205192	0.273850	-0.055851	-0.137412	-0.548096	0.215332	-0.605713	0.797790	-0.141969	-0.562705	-0.163523
13657		9.208648	-0.624441	3.008478	0.256164	-0.116629	-0.135860	-0.552979	0.201904	-0.605225	0.797337	-0.139810	-0.563996	-0.163142
13658		9.227906	-0.503351	2.634161	0.266167	-0.099655	-0.140855	-0.556152	0.206787	-0.608398	0.796939	-0.137542	-0.565202	-0.162838
13659		9.247310	-0.362765	2.857832	0.283193	0.044692	-0.139948	-0.552002	0.214111	-0.606445	0.797254	-0.134957	-0.565465	-0.162552
13660		9.232680	-0.305666	3.197950	0.293670	0.056400	-0.112869	-0.551025	0.200928	-0.619629	0.797681	-0.132430	-0.565614	-0.162014
13661		9.314094	-0.190352	3.289257	0.261658	0.015854	-0.086413	-0.550781	0.197266	-0.616455	0.797950	-0.130223	-0.565963	-0.161253
13662		9.269154	0.028231	3.144447	0.200494	-0.052536	-0.089758	-0.552002	0.192383	-0.612549	0.797809	-0.128518	-0.566687	-0.160782
13663		9.349262	0.127814	2.906159	0.148504	-0.046156	-0.109852	-0.555908	0.198486	-0.612549	0.797593	-0.127075	-0.567321	-0.160761
13664		9.440171	-0.006078	3.008804	0.117106	0.022908	-0.119206	-0.558105	0.183594	-0.621338	0.797654	-0.125718	-0.567459	-0.161037
13665		9.462924	-0.189990	3.282527	0.103269	0.034003	-0.115247	-0.549561	0.187256	-0.611816	0.797767	-0.124406	-0.567513	-0.161303
13666		9.442676	-0.162754	3.283203	0.081462	-0.012814	-0.098854	-0.556396	0.180420	-0.608154	0.797656	-0.123420	-0.567816	-0.161545
13667		9.327708	-0.025549	3.239561	0.058771	-0.036147	-0.092322	-0.552246	0.184570	-0.613281	0.797379	-0.122671	-0.568254	-0.161944
13668		9.248668	0.118514	3.172472	0.026738	-0.018365	-0.084621	-0.563232	0.180908	-0.614258	0.797204	-0.122119	-0.568505	-0.162339
13669		9.176037	0.101430	3.175344	0.003577	0.014776	-0.083045	-0.551025	0.177734	-0.613281	0.797131	-0.121690	-0.568525	-0.162950
13670		9.180915	-0.023354	3.194145	-0.004906	0.030115	-0.089931	-0.560303	0.176514	-0.613525	0.797147	-0.121247	-0.568419	-0.163571
13671		9.230505	-0.188537	3.359838	0.002306	0.019541	-0.087360	-0.549072	0.178467	-0.606201	0.797093	-0.120794	-0.568409	-0.164204
13672		9.360299	-0.118538	3.234724	0.015407	-0.008282	-0.068892	-0.552734	0.176270	-0.610596	0.796959	-0.120401	-0.568563	-0.164610
13673		9.375291	0.002702	3.110182	0.002776	0.008046	-0.052816	-0.555176	0.171143	-0.618164	0.796915	-0.120127	-0.568580	-0.164963
13674		9.346729	0.067980	3.102777	-0.008971	0.019272	-0.059549	-0.546631	0.178955	-0.610107	0.796917	-0.119847	-0.568518	-0.165370
13675		9.214067	0.029612	3.137221	0.009237	0.003224	-0.066163	-0.555420	0.177734	-0.607910	0.796858	-0.119478	-0.568571	-0.165739
13676		9.171834	-0.068761	3.200895	0.018558	0.000768	-0.058360	-0.550049	0.173584	-0.609863	0.796772	-0.119102	-0.568669	-0.166086
13677		9.181413	-0.067039	3.191927	0.033090	-0.014173	-0.053321	-0.553711	0.174316	-0.608154	0.796658	-0.118654	-0.568871	-0.166261
13678		9.139143	0.006091	3.103227	0.052556	-0.010699	-0.054977	-0.561035	0.174561	-0.612793	0.796563	-0.118076	-0.569086	-0.166391
13679		9.143741	-0.002237	3.126970	0.077390	-0.011553	-0.057056	-0.560547	0.177734	-0.623047	0.796481	-0.117314	-0.569353	-0.166412
13680		9.186310	0.001021	3.102120	0.096498	-0.016308	-0.052764	-0.560059	0.168945	-0.617188	0.796435	-0.116428	-0.569652	-0.166227
13681		9.217207	0.044044	3.077187	0.103023	-0.007320	-0.048137	-0.553711	0.171143	-0.614014	0.796425	-0.115509	-0.569913	-0.166024
13682		9.278349	0.225246	3.106938	0.090115	-0.005933	-0.044519	-0.559326	0.166016	-0.614746	0.796424	-0.114709	-0.570124	-0.165859
13683		9.387485	0.344189	3.147992	0.070984	-0.001342	-0.043560	-0.547119	0.163574	-0.608643	0.796412	-0.114024	-0.570297	-0.165796
13684		9.456654	0.330890	3.143844	0.046442	0.003281	-0.039611	-0.558594	0.166748	-0.614746	0.796418	-0.113527	-0.570380	-0.165824
13685		9.448104	0.272742	3.178694	0.016730	0.021877	-0.045988	-0.554199	0.157471	-0.620361	0.796463	-0.113166	-0.570319	-0.166058
13686		9.397315	0.212436	3.195223	-0.011076	0.019846	-0.054532	-0.558105	0.166260	-0.616455	0.796485	-0.112910	-0.570235	-0.166418
13687		9.330921	0.211667	3.184979	-0.037786	0.013596	-0.063193	-0.557617	0.164551	-0.616455	0.796421	-0.112838	-0.570167	-0.167008
13688		9.338296	0.231486	3.103681	-0.057870	0.020366	-0.067612	-0.556396	0.160400	-0.613525	0.796364	-0.112864	-0.570030	-0.167725
13689		9.264595	0.217412	3.153850	-0.087696	0.032560	-0.068599	-0.545654	0.167969	-0.613525	0.796329	-0.113062	-0.569779	-0.168608
13690		9.220341	0.232027	3.182791	-0.109121	0.044611	-0.067133	-0.553711	0.167480	-0.608154	0.796362	-0.113416	-0.569373	-0.169584
13691		9.189198	0.217274	3.230229	-0.124902	0.043930	-0.069198	-0.558594	0.161865	-0.623779	0.796335	-0.113878	-0.568987	-0.170692
13692		9.199069	0.224752	3.221739	-0.136115	0.048149	-0.072193	-0.561523	0.163330	-0.612793	0.796341	-0.114329	-0.568557	-0.171794
13693		9.198289	0.207643	3.281244	-0.144305	0.059646	-0.072371	-0.555420	0.168945	-0.608154	0.796353	-0.114848	-0.568067	-0.173006
13694		9.174901	0.215349	3.288802	-0.143252	0.050287	-0.069653	-0.550537	0.166260	-0.607422	0.796328	-0.115417	-0.567619	-0.174209
13695		9.211620	0.240171	3.265458	-0.153256	0.037146	-0.062880	-0.550049	0.174561	-0.611328	0.796248	-0.116094	-0.567230	-0.175390
13696		9.243795	0.251297	3.273896	-0.165376	0.028357	-0.058542	-0.550781	0.164795	-0.612793	0.796132	-0.116899	-0.566854	-0.176592
13697		9.195115	0.204131	3.188201	-0.171999	0.013086	-0.054887	-0.553711	0.165527	-0.612549	0.795941	-0.117743	-0.566586	-0.177748
13698		9.180006	0.144581	3.204269	-0.158527	0.004659	-0.049498	-0.568115	0.167236	-0.616211	0.795725	-0.118531	-0.566397	-0.178794
13699		9.246343	0.056456	3.181923	-0.136831	0.003717	-0.046441	-0.550537	0.172363	-0.610352	0.795507	-0.119174	-0.566281	-0.179702
13700		9.325673	0.047706	3.232273	-0.123257	0.023903	-0.036363	-0.558350	0.170166	-0.615234	0.795438	-0.119785	-0.565984	-0.180531
13701		9.282351	0.098252	3.243788	-0.117984	0.029653	-0.028883	-0.561035	0.174316	-0.609863	0.795407	-0.120357	-0.565673	-0.181261
13702		9.249451	0.151716	3.265646	-0.108702	0.033953	-0.028595	-0.558105	0.175049	-0.609619	0.795387	-0.120886	-0.565360	-0.181975
13703		9.166480	0.135235	3.322383	-0.091872	0.016155	-0.029042	-0.553467	0.181885	-0.609375	0.795303	-0.121330	-0.565182	-0.182595
13704		9.179583	0.119519	3.222997	-0.066916	0.008691	-0.026544	-0.549316	0.178223	-0.611816	0.795224	-0.121661	-0.565060	-0.183099
13705		9.224394	0.167727	3.180309	-0.058747	0.025282	-0.023613	-0.550293	0.181396	-0.613037	0.795250	-0.121905	-0.564827	-0.183543
13706		9.220596	0.123525	3.225179	-0.047811	0.031936	-0.022378	-0.558838	0.175049	-0.612793	0.795320	-0.122081	-0.564561	-0.183941
13707		9.188892	0.146864	3.278845	-0.027839	0.020104	-0.020459	-0.549072	0.178467	-0.606689	0.795339	-0.122115	-0.564448	-0.184178
13708		9.146926	0.146368	3.259505	-0.019372	-0.008679	-0.013413	-0.556152	0.179443	-0.611816	0.795247	-0.122208	-0.564503	-0.184345
13709		9.120475	0.248230	3.208966	-0.015798	-0.018794	-0.009539	-0.551758	0.179443	-0.619385	0.795116	-0.122296	-0.564639	-0.184437
13710		9.194327	0.283850	3.180830	-0.001593	0.000372	-0.011174	-0.558350	0.171631	-0.607666	0.795114	-0.122241	-0.564637	-0.184487
13711		9.196310	0.240026	3.308337	-0.000845	0.025368	-0.007904	-0.561035	0.178711	-0.601807	0.795198	-0.122141	-0.564535	-0.184508
13712		9.229802	0.228272	3.389539	-0.000090	0.009623	-0.002258	-0.549072	0.181152	-0.612305	0.795196	-0.122130	-0.564540	-0.184508
13713		9.203829	0.252136	3.387508	-0.005558	-0.023992	0.005817	-0.544678	0.178955	-0.616943	0.795088	-0.122246	-0.564678	-0.184471
13714		9.211629	0.297552	3.292074	-0.006810	-0.036860	0.013809	-0.547607	0.174805	-0.608643	0.794951	-0.122412	-0.564868	-0.184370
13715		9.233664	0.289421	3.288489	-0.014620	-0.027810	0.025160	-0.556885	0.179688	-0.606934	0.794844	-0.122662	-0.565013	-0.184220
13716		9.231360	0.237125	3.349541	-0.028740	-0.031340	0.039193	-0.554932	0.175781	-0.603516	0.794707	-0.123091	-0.565172	-0.184036
13717		9.245577	0.211958	3.267416	-0.047388	-0.046627	0.049103	-0.559570	0.181885	-0.620850	0.794493	-0.123698	-0.565403	-0.183843
13718		9.265373	0.144683	3.123307	-0.068581	-0.045140	0.050219	-0.555420	0.187256	-0.610352	0.794296	-0.124434	-0.565552	-0.183742
13719		9.260593	0.118042	3.175577	-0.086009	-0.034148	0.054880	-0.554443	0.184326	-0.603027	0.794123	-0.125337	-0.565593	-0.183751
13720		9.370453	0.139398	3.104114	-0.097592	-0.029263	0.062981	-0.555664	0.181396	-0.608154	0.793962	-0.126339	-0.565596	-0.183749
13721		9.452424	0.148992	3.092081	-0.115814	-0.002793	0.067321	-0.556152	0.193359	-0.602539	0.793925	-0.127406	-0.565393	-0.183798
13722		9.385602	0.229055	3.160828	-0.130892	0.005720	0.061377	-0.547852	0.185791	-0.616211	0.793886	-0.128593	-0.565106	-0.184024
13723		9.393352	0.193760	3.136578	-0.156392	0.009001	0.058091	-0.567383	0.193848	-0.598877	0.793873	-0.129866	-0.564718	-0.184373
13724		9.386127	0.127010	3.231039	-0.183451	0.039498	0.061681	-0.556152	0.198242	-0.610840	0.793912	-0.131315	-0.564188	-0.184802
13725		9.290339	0.183984	3.321252	-0.208385	0.051051	0.054860	-0.546875	0.192871	-0.610107	0.794004	-0.132886	-0.563471	-0.185469
13726		9.209608	0.237632	3.327735	-0.234797	0.038271	0.046163	-0.552979	0.191406	-0.609375	0.794007	-0.134584	-0.562792	-0.186296
13727		9.233275	0.095025	3.318368	-0.260240	0.023763	0.047718	-0.557373	0.199951	-0.610840	0.793903	-0.136447	-0.562204	-0.187157
13728		9.262858	0.043448	3.227909	-0.255995	0.009798	0.055049	-0.546143	0.207275	-0.607910	0.793740	-0.138355	-0.561704	-0.187945
13729		9.232522	0.007314	3.312922	-0.252694	0.030199	0.063239	-0.548584	0.207764	-0.601807	0.793696	-0.140290	-0.561011	-0.188764
13730		9.168471	-0.048970	3.350622	-0.237611	0.004232	0.078811	-0.556641	0.205322	-0.605225	0.793555	-0.142229	-0.560525	-0.189348
13731		9.136249	-0.029430	3.172020	-0.204131	-0.016341	0.089817	-0.547363	0.200684	-0.607178	0.793371	-0.143980	-0.560253	-0.189601
13732		9.246055	-0.200175	3.243775	-0.191352	0.012311	0.105530	-0.548096	0.219482	-0.602783	0.793380	-0.145648	-0.559766	-0.189728
13733		9.328268	-0.322557	3.243689	-0.185409	0.023333	0.127151	-0.553711	0.221436	-0.596924	0.793462	-0.147445	-0.559159	-0.189787
13734		9.403364	-0.307606	3.215566	-0.189042	0.041094	0.149956	-0.547607	0.218750	-0.598633	0.793637	-0.149338	-0.558440	-0.189693
13735		9.507367	-0.319329	3.319330	-0.187010	0.068383	0.177242	-0.546631	0.229980	-0.608643	0.793995	-0.151275	-0.557498	-0.189433
13736		9.450467	-0.260150	3.384657	-0.195215	0.051280	0.196774	-0.534912	0.223877	-0.600830	0.794305	-0.153403	-0.556584	-0.189106
13737		9.389552	-0.309747	3.254331	-0.215385	-0.000465	0.212958	-0.537598	0.225342	-0.608398	0.794375	-0.155803	-0.555958	-0.188691
13738		9.255296	-0.352527	3.155908	-0.234835	-0.014894	0.219845	-0.541260	0.242920	-0.600098	0.794371	-0.158350	-0.555387	-0.188268
13739		9.183479	-0.449464	3.020731	-0.221794	-0.019551	0.218379	-0.529785	0.242920	-0.605957	0.794328	-0.160883	-0.554864	-0.187843
13740		9.212110	-0.635474	3.127216	-0.197097	0.047391	0.227300	-0.539795	0.249268	-0.598633	0.794667	-0.163173	-0.553870	-0.187366
13741		9.171747	-0.870513	3.210659	-0.167592	0.056575	0.249797	-0.539062	0.244873	-0.600830	0.795088	-0.165359	-0.552887	-0.186566
13742		9.047641	-1.025979	3.235114	-0.143858	0.035631	0.260706	-0.533447	0.251221	-0.593994	0.795465	-0.167424	-0.552082	-0.185499
13743		9.032513	-0.984198	3.075160	-0.130789	0.010804	0.264373	-0.536621	0.254395	-0.597900	0.795738	-0.169490	-0.551444	-0.184349
13744		9.072003	-0.721575	2.904223	-0.126621	0.031964	0.249341	-0.535889	0.255859	-0.597900	0.796089	-0.171405	-0.550700	-0.183280
13745		9.195615	-0.468098	3.156816	-0.157421	0.085593	0.230851	-0.531250	0.267822	-0.599609	0.796610	-0.173347	-0.549586	-0.182534
13746		9.221800	-0.378181	3.308593	-0.169115	0.088808	0.214931	-0.530518	0.264648	-0.595703	0.797103	-0.175329	-0.548413	-0.182017
13747		9.288278	-0.607207	3.335190	-0.164474	0.057475	0.199676	-0.532471	0.265381	-0.601562	0.797426	-0.177231	-0.547506	-0.181487
13748		9.369151	-0.921367	3.200484	-0.161565	0.030454	0.191630	-0.527344	0.275879	-0.603027	0.797623	-0.179085	-0.546803	-0.180923
13749		9.350164	-0.980661	3.353025	-0.198248	0.035819	0.184526	-0.522949	0.277344	-0.598145	0.797780	-0.181180	-0.545975	-0.180642
13750		9.291524	-0.916208	3.355112	-0.218531	0.024996	0.187892	-0.520508	0.282959	-0.592041	0.797856	-0.183445	-0.545181	-0.180419
13751		9.238387	-0.873101	3.353869	-0.229452	0.019720	0.194373	-0.525146	0.290039	-0.602539	0.797886	-0.185841	-0.544393	-0.180214
13752		9.219078	-0.995118	3.359004	-0.237805	0.037102	0.198185	-0.521729	0.288574	-0.598633	0.797995	-0.188263	-0.543461	-0.180029
13753		9.100613	-1.118802	3.362345	-0.252128	0.024877	0.204349	-0.516602	0.293213	-0.594238	0.798030	-0.190809	-0.542588	-0.179827
13754		9.110744	-1.286375	3.335785	-0.251747	0.026984	0.217260	-0.520752	0.298096	-0.593750	0.798087	-0.193423	-0.541666	-0.179563
13755		9.078618	-1.401000	3.392104	-0.251148	0.051670	0.233855	-0.522705	0.306885	-0.588379	0.798267	-0.196060	-0.540572	-0.179198
13756		8.972533	-1.450627	3.390516	-0.238019	0.021985	0.249909	-0.522949	0.304932	-0.593994	0.798337	-0.198746	-0.539676	-0.178628
13757		9.069637	-1.467173	3.291916	-0.211376	0.008775	0.273651	-0.512451	0.317871	-0.597900	0.798434	-0.201334	-0.538878	-0.177705
13758		9.128080	-1.562247	3.437653	-0.240148	0.050426	0.291135	-0.502197	0.327637	-0.587891	0.798706	-0.204172	-0.537654	-0.176947
13759		9.124906	-1.441619	3.463079	-0.268247	0.068968	0.292124	-0.509033	0.323975	-0.585693	0.798999	-0.207230	-0.536222	-0.176414
13760		9.220416	-1.178273	3.442784	-0.287541	0.099046	0.289234	-0.504639	0.321533	-0.589844	0.799367	-0.210302	-0.534629	-0.175945
13761		9.416761	-1.170436	3.530197	-0.328537	0.193197	0.302411	-0.504150	0.332764	-0.584961	0.800106	-0.213526	-0.532324	-0.175693
13762		9.342558	-1.204576	4.046923	-0.463801	0.302266	0.316144	-0.497070	0.346680	-0.590088	0.801075	-0.217575	-0.529062	-0.176163
13763		9.183365	-1.249544	3.962959	-0.560837	0.213515	0.305975	-0.505615	0.351562	-0.592773	0.801447	-0.222375	-0.526213	-0.177006
13764		9.070711	-1.254150	3.800905	-0.621952	0.164702	0.292548	-0.489502	0.369385	-0.582520	0.801437	-0.227540	-0.523668	-0.178032
13765		8.992627	-1.661653	3.420967	-0.683006	0.067191	0.293335	-0.493164	0.368408	-0.576660	0.800857	-0.233336	-0.521586	-0.179250
13766		9.062986	-1.989259	3.105520	-0.679741	0.077655	0.296445	-0.487061	0.377930	-0.581055	0.800294	-0.239047	-0.519474	-0.180369
13767		8.964772	-2.596786	3.180434	-0.658101	0.117443	0.342015	-0.486328	0.379150	-0.580566	0.800003	-0.244736	-0.516991	-0.181163
13768		8.742729	-2.934688	3.044877	-0.603613	0.119956	0.390998	-0.479248	0.392334	-0.578369	0.799884	-0.250215	-0.514488	-0.181330
13769		8.575219	-2.781892	3.201390	-0.556470	0.154838	0.417588	-0.477539	0.405273	-0.572510	0.800028	-0.255456	-0.511722	-0.181213
13770		8.461558	-2.574864	3.206635	-0.519410	0.090715	0.435627	-0.470947	0.414062	-0.574219	0.799966	-0.260634	-0.509386	-0.180695
13771		8.613960	-2.573834	2.853872	-0.492520	0.029044	0.422329	-0.464111	0.414551	-0.566406	0.799668	-0.265659	-0.507498	-0.180006
13772		8.725544	-2.484570	2.874888	-0.471077	0.092828	0.391166	-0.462402	0.429932	-0.558350	0.799619	-0.270294	-0.505284	-0.179552
13773		8.661314	-2.523436	3.025170	-0.442890	0.096052	0.379498	-0.464355	0.435791	-0.562988	0.799591	-0.274720	-0.503092	-0.179112
13774		8.562335	-2.855360	3.208686	-0.393644	0.088389	0.379650	-0.465088	0.445312	-0.552002	0.799632	-0.278790	-0.501039	-0.178396
13775		8.486027	-3.097020	3.122561	-0.331446	0.040426	0.379078	-0.455566	0.449219	-0.558838	0.799574	-0.282531	-0.499404	-0.177350
13776		8.420233	-3.240168	3.015975	-0.253158	-0.008870	0.364543	-0.451660	0.456543	-0.556396	0.799491	-0.285743	-0.498215	-0.175917
13777		8.600584	-3.281138	2.780367	-0.156891	-0.050974	0.347974	-0.443848	0.458252	-0.559082	0.799429	-0.288316	-0.497469	-0.174103
13778		8.631353	-3.302519	2.896585	-0.102914	0.012241	0.321636	-0.446777	0.457520	-0.554932	0.799733	-0.290319	-0.496422	-0.172362
13779		8.673213	-3.202528	3.033237	-0.066165	0.037700	0.304559	-0.443359	0.464600	-0.550293	0.800184	-0.291948	-0.495335	-0.170631
13780		8.559438	-2.759285	3.342560	-0.092965	0.076301	0.239412	-0.442139	0.469482	-0.550537	0.800623	-0.293457	-0.494094	-0.169577
13781		8.531251	-2.625587	3.247810	-0.076694	-0.025155	0.170888	-0.439209	0.463135	-0.552002	0.800583	-0.294722	-0.493717	-0.168671
13782		8.764449	-2.944891	3.056949	-0.035358	-0.134537	0.101627	-0.434814	0.477295	-0.552734	0.800104	-0.295548	-0.494316	-0.167738
13783		8.828940	-3.410842	2.788686	0.019516	-0.143758	0.079107	-0.440430	0.464600	-0.550781	0.799700	-0.295979	-0.495048	-0.166745
13784		8.636955	-3.426871	2.930107	0.041804	-0.039045	0.074109	-0.434326	0.471680	-0.550049	0.799766	-0.296041	-0.495187	-0.165904
13785		8.469540	-3.025642	3.188362	0.041271	-0.017617	0.056618	-0.452637	0.466553	-0.556885	0.799903	-0.296042	-0.495182	-0.165255
13786		8.466141	-2.696756	3.199418	0.046269	-0.036802	0.018293	-0.443115	0.465576	-0.548096	0.799898	-0.295808	-0.495494	-0.164761
13787		8.569483	-2.843193	2.993315	0.083857	-0.096928	-0.021233	-0.447510	0.461182	-0.550049	0.799684	-0.295279	-0.496320	-0.164262
13788		8.673738	-3.235469	2.793935	0.119149	-0.130412	-0.057766	-0.438965	0.459717	-0.551758	0.799365	-0.294387	-0.497529	-0.163759
13789		8.586775	-3.406129	2.737065	0.156122	-0.110893	-0.097174	-0.444824	0.458252	-0.552979	0.799187	-0.293069	-0.498721	-0.163368
13790		8.510463	-3.275999	2.868138	0.180557	-0.061559	-0.132267	-0.456787	0.453613	-0.551514	0.799216	-0.291367	-0.499714	-0.163234
13791		8.437748	-2.881423	3.011530	0.185461	-0.028813	-0.174876	-0.439697	0.457520	-0.554688	0.799304	-0.289395	-0.500634	-0.163493
13792		8.618544	-2.623591	3.011062	0.208967	-0.036598	-0.215825	-0.449951	0.457520	-0.554688	0.799401	-0.287146	-0.501660	-0.163835
13793		8.855777	-2.753041	3.087391	0.235076	-0.068221	-0.252951	-0.458252	0.461670	-0.560303	0.799351	-0.284613	-0.503030	-0.164299
13794		8.845710	-2.990905	2.996233	0.269461	-0.126157	-0.288499	-0.460693	0.446289	-0.554443	0.799078	-0.281787	-0.504908	-0.164735
13795		8.711489	-3.137691	2.819276	0.287403	-0.138438	-0.316008	-0.470215	0.445068	-0.556641	0.798735	-0.278724	-0.506974	-0.165266
13796		8.547555	-2.764985	2.959393	0.259811	-0.042074	-0.358315	-0.467529	0.440186	-0.556152	0.798653	-0.275533	-0.508457	-0.166449
13797		8.528389	-2.382574	3.225937	0.229349	-0.009093	-0.407371	-0.460449	0.436035	-0.560303	0.798571	-0.272299	-0.509768	-0.168149
13798		8.684217	-2.181891	3.297067	0.222807	-0.016087	-0.442389	-0.463379	0.423096	-0.560059	0.798413	-0.268972	-0.511161	-0.170015
13799		8.733389	-2.437392	3.266613	0.226588	-0.066883	-0.447209	-0.473633	0.417236	-0.559570	0.798024	-0.265647	-0.512917	-0.171770
13800		8.717146	-2.809038	3.101374	0.237632	-0.121064	-0.437178	-0.477051	0.413330	-0.563965	0.797409	-0.262361	-0.515034	-0.173340
13801		8.799458	-2.911592	3.187808	0.198230	-0.109649	-0.429486	-0.479248	0.417236	-0.564209	0.796764	-0.259346	-0.516987	-0.175016
13802		8.772411	-2.575371	3.006050	0.171167	-0.083945	-0.454202	-0.487549	0.397217	-0.568359	0.796128	-0.256391	-0.518749	-0.177039
13803		8.884335	-2.230737	3.060462	0.180994	-0.026693	-0.458488	-0.490723	0.395996	-0.576416	0.795738	-0.253206	-0.520195	-0.179124
13804		9.004734	-2.305002	3.264315	0.216190	-0.055123	-0.439536	-0.496338	0.387451	-0.568115	0.795332	-0.249903	-0.521826	-0.180811
13805		9.143236	-2.567683	2.809800	0.283117	-0.137367	-0.393720	-0.506104	0.391357	-0.565674	0.794734	-0.246491	-0.524003	-0.181827
13806		9.229982	-2.775113	2.894149	0.328829	-0.075449	-0.346912	-0.503174	0.375000	-0.568848	0.794535	-0.242915	-0.525720	-0.182549
13807		9.206043	-2.750558	3.010684	0.366007	-0.015795	-0.297852	-0.501953	0.369141	-0.568115	0.794754	-0.239183	-0.527007	-0.182818
13808		9.240089	-2.320654	3.341988	0.380994	0.091209	-0.272702	-0.504150	0.360107	-0.569824	0.795499	-0.235303	-0.527542	-0.183066
13809		9.091640	-2.209055	3.621897	0.434279	0.029932	-0.266289	-0.500977	0.352783	-0.585693	0.796068	-0.231183	-0.528551	-0.182931
13810		9.200620	-2.262124	3.311449	0.520459	-0.116719	-0.251751	-0.510010	0.352051	-0.578369	0.796210	-0.226735	-0.530627	-0.181868
13811		9.202572	-2.235662	2.937389	0.582042	-0.140462	-0.184412	-0.507812	0.347412	-0.579590	0.796402	-0.222251	-0.532802	-0.180195
13812		9.066256	-2.015575	2.924862	0.598374	-0.091960	-0.120628	-0.513916	0.337158	-0.582031	0.796926	-0.217871	-0.534534	-0.178086
13813		8.859221	-1.795802	2.988151	0.579623	-0.049144	-0.101799	-0.516602	0.326904	-0.578613	0.797599	-0.213623	-0.535920	-0.176041
13814		8.774293	-1.707588	3.162132	0.539628	-0.018345	-0.154434	-0.515625	0.327393	-0.594238	0.798220	-0.209364	-0.537132	-0.174642
13815		8.858372	-1.398433	3.225503	0.497913	-0.029913	-0.243883	-0.519775	0.318115	-0.591797	0.798612	-0.204977	-0.538491	-0.173869
13816		9.033531	-0.828016	3.227694	0.451469	-0.060492	-0.317523	-0.518311	0.314697	-0.597656	0.798643	-0.200617	-0.540106	-0.173805
13817		9.268748	-0.497153	3.081329	0.411560	-0.070595	-0.328093	-0.523682	0.295166	-0.599854	0.798552	-0.196482	-0.541724	-0.173909
13818		9.470894	-0.641602	2.922918	0.422664	-0.057378	-0.318198	-0.530273	0.298340	-0.594971	0.798528	-0.192262	-0.543273	-0.173907
13819		9.407804	-1.125167	3.274847	0.417797	-0.077661	-0.287312	-0.522217	0.297852	-0.585449	0.798404	-0.188289	-0.544873	-0.173814
13820		9.194293	-1.401863	3.116099	0.413645	-0.177121	-0.253862	-0.531982	0.281250	-0.593994	0.797858	-0.184677	-0.547039	-0.173394
13821		9.198271	-0.743173	2.989812	0.370177	-0.060967	-0.257956	-0.532227	0.278809	-0.601562	0.797756	-0.181116	-0.548400	-0.173321
13822		9.167220	-0.031707	3.489085	0.285886	0.093738	-0.270855	-0.529053	0.275635	-0.598389	0.798228	-0.177822	-0.548612	-0.173885
13823		9.333286	0.290589	3.689855	0.216873	0.098762	-0.266000	-0.533203	0.265869	-0.599365	0.798616	-0.175019	-0.548668	-0.174770
13824		9.560639	0.037435	3.667685	0.163838	0.056748	-0.246549	-0.529785	0.267822	-0.598633	0.798741	-0.172708	-0.548910	-0.175734
13825		9.565878	-0.377060	3.367425	0.134058	-0.018379	-0.222984	-0.542480	0.271973	-0.598877	0.798517	-0.170831	-0.549554	-0.176574
13826		9.391285	-0.672291	3.179554	0.125867	-0.035664	-0.204470	-0.537109	0.259277	-0.597900	0.798193	-0.169147	-0.550275	-0.177412
13827		9.236092	-0.858201	3.085718	0.141228	-0.010367	-0.190657	-0.532227	0.250977	-0.597412	0.798039	-0.167356	-0.550839	-0.178052
13828		9.187248	-0.916588	3.297788	0.174638	0.051892	-0.194383	-0.547119	0.253174	-0.612549	0.798221	-0.165215	-0.551044	-0.178598
13829		9.102578	-0.760645	3.469521	0.226096	0.075441	-0.201405	-0.538574	0.242432	-0.614502	0.798565	-0.162653	-0.551183	-0.178982
13830		9.017160	-0.674117	3.477476	0.271186	0.029854	-0.187322	-0.531006	0.247803	-0.610352	0.798801	-0.159898	-0.551668	-0.178919
13831		8.976923	-0.418306	3.373222	0.286374	0.003869	-0.170864	-0.532715	0.237061	-0.606689	0.798965	-0.157197	-0.552288	-0.178667
13832		8.940788	-0.219208	3.293330	0.317066	-0.005947	-0.160334	-0.542480	0.236084	-0.607910	0.799116	-0.154345	-0.553019	-0.178218
13833		9.046798	-0.165262	3.218130	0.378400	-0.015301	-0.148706	-0.536377	0.231689	-0.622314	0.799286	-0.151166	-0.553892	-0.177467
13834		9.159061	-0.190571	3.219297	0.403302	-0.035363	-0.126827	-0.543701	0.219971	-0.612549	0.799473	-0.147920	-0.554877	-0.176281
13835		9.285627	-0.256221	3.190533	0.406757	-0.055192	-0.100312	-0.545654	0.217529	-0.615479	0.799552	-0.144808	-0.555993	-0.174984
13836		9.322651	-0.222329	3.166931	0.416034	-0.086816	-0.068487	-0.547852	0.210205	-0.616699	0.799535	-0.141830	-0.557283	-0.173391
13837		9.407333	-0.250100	3.013758	0.413680	-0.080304	-0.038433	-0.548584	0.206787	-0.615723	0.799577	-0.138988	-0.558490	-0.171606
13838		9.445508	-0.187748	3.112843	0.396365	-0.043877	-0.013156	-0.532471	0.205078	-0.602783	0.799791	-0.136332	-0.559393	-0.169787
13839		9.467572	-0.057606	3.234544	0.373598	-0.030755	0.001083	-0.549072	0.195312	-0.615723	0.800062	-0.133908	-0.560127	-0.168010
13840		9.458839	0.073677	3.344247	0.346459	-0.038084	0.006995	-0.542236	0.198730	-0.618896	0.800257	-0.131659	-0.560896	-0.166287
13841		9.358724	0.118696	3.219640	0.315196	-0.044109	0.007673	-0.540771	0.199219	-0.615479	0.800409	-0.129645	-0.561624	-0.164670
13842		9.221426	-0.043129	3.153943	0.293646	-0.017842	0.006316	-0.545654	0.193604	-0.622070	0.800648	-0.127754	-0.562137	-0.163226
13843		9.188550	-0.294973	3.090503	0.283828	-0.002557	0.001085	-0.551025	0.188721	-0.619629	0.800939	-0.125862	-0.562547	-0.161851
13844		9.213518	-0.381950	3.255158	0.265307	0.037302	0.000201	-0.545654	0.183594	-0.624023	0.801370	-0.124035	-0.562685	-0.160646
13845		9.198968	-0.102463	3.352755	0.235349	0.042752	-0.009919	-0.537109	0.174316	-0.625488	0.801800	-0.122337	-0.562742	-0.159599
13846		9.183531	0.187661	3.354619	0.199031	0.033422	-0.020533	-0.549316	0.181885	-0.621338	0.802154	-0.120817	-0.562816	-0.158717
13847		9.270656	0.397709	3.285659	0.149833	0.042694	-0.034836	-0.556396	0.184570	-0.622559	0.802435	-0.119595	-0.562793	-0.158299
13848		9.238215	0.457359	3.402870	0.083331	0.079174	-0.049481	-0.542969	0.178223	-0.624268	0.802784	-0.118717	-0.562461	-0.158373
13849		9.201380	0.385581	3.545401	0.019327	0.063807	-0.056922	-0.552490	0.185791	-0.623291	0.803021	-0.118231	-0.562132	-0.158703
13850		9.182098	0.303670	3.464313	-0.029380	0.020353	-0.071913	-0.539307	0.185547	-0.628662	0.802957	-0.118091	-0.562055	-0.159401
13851		9.158067	0.177048	3.446977	-0.062736	0.023280	-0.079556	-0.549072	0.177490	-0.631836	0.802909	-0.118128	-0.561878	-0.160240
13852		9.079027	0.099048	3.475557	-0.086790	0.010206	-0.084869	-0.547607	0.168701	-0.627197	0.802752	-0.118279	-0.561798	-0.161189
13853		9.058632	-0.050443	3.368643	-0.092717	-0.018458	-0.086429	-0.549072	0.180420	-0.629639	0.802447	-0.118475	-0.561924	-0.162123
13854		9.133429	-0.076094	3.271947	-0.088508	0.010830	-0.080551	-0.549072	0.174561	-0.614258	0.802293	-0.118670	-0.561828	-0.163070
13855		9.166800	-0.134764	3.303512	-0.077286	0.048253	-0.066265	-0.542969	0.179932	-0.622314	0.802312	-0.118806	-0.561519	-0.163943
13856		9.178140	-0.168840	3.284990	-0.048736	0.040124	-0.047242	-0.538818	0.171875	-0.623779	0.802377	-0.118861	-0.561245	-0.164523
13857		9.301463	-0.247453	3.335319	-0.019284	0.053005	-0.024873	-0.542480	0.168213	-0.621826	0.802575	-0.118773	-0.560907	-0.164773
13858		9.393439	-0.217957	3.317856	0.011331	0.042855	-0.008421	-0.542969	0.174805	-0.623047	0.802764	-0.118557	-0.560685	-0.164759
13859		9.428907	-0.227582	3.353104	0.016708	0.040664	0.006113	-0.540527	0.180176	-0.618652	0.802967	-0.118403	-0.560458	-0.164652
13860		9.447742	-0.243601	3.318269	0.031614	0.035412	0.015294	-0.546631	0.177734	-0.624756	0.803166	-0.118232	-0.560268	-0.164453
13861		9.333776	-0.211817	3.348801	0.053348	0.040015	0.025927	-0.542969	0.177979	-0.626953	0.803421	-0.117936	-0.560081	-0.164059
13862		9.228594	-0.178148	3.412657	0.078212	0.017725	0.043315	-0.542969	0.177734	-0.625488	0.803630	-0.117586	-0.560047	-0.163400
13863		9.154316	-0.224049	3.398050	0.087909	-0.001638	0.059570	-0.541748	0.176270	-0.632568	0.803776	-0.117276	-0.560142	-0.162576
13864		9.202762	-0.204532	3.403303	0.091153	0.001612	0.074419	-0.546631	0.172607	-0.625000	0.803977	-0.116995	-0.560193	-0.161607
13865		9.158775	-0.083395	3.411537	0.083936	0.017407	0.077202	-0.536865	0.170166	-0.633789	0.804221	-0.116747	-0.560161	-0.160679
13866		9.205035	0.029444	3.344920	0.058820	0.029731	0.072646	-0.538086	0.172852	-0.627686	0.804530	-0.116614	-0.559979	-0.159863
13867		9.186058	-0.015634	3.314030	0.036896	0.038164	0.060358	-0.534180	0.176270	-0.635254	0.804821	-0.116580	-0.559733	-0.159279
13868		9.133508	-0.067113	3.391204	0.021282	0.040555	0.040339	-0.534180	0.180664	-0.631592	0.805103	-0.116560	-0.559440	-0.158900
13869		9.134539	-0.113661	3.361812	0.005453	0.022968	0.020148	-0.536621	0.173828	-0.628662	0.805250	-0.116599	-0.559264	-0.158751
13870		9.045373	-0.118174	3.375116	-0.016760	0.038587	-0.001190	-0.538574	0.175293	-0.629150	0.805409	-0.116640	-0.559003	-0.158833
13871		9.035904	-0.109395	3.364458	-0.037281	0.053499	-0.021562	-0.528564	0.180420	-0.631592	0.805585	-0.116708	-0.558638	-0.159169
13872		9.064131	-0.022872	3.379043	-0.050757	0.084535	-0.040626	-0.533447	0.181641	-0.629883	0.805890	-0.116761	-0.558022	-0.159750
13873		9.095262	0.056215	3.440219	-0.053723	0.100890	-0.047812	-0.537354	0.176514	-0.638184	0.806241	-0.116783	-0.557318	-0.160419
13874		9.143845	0.033451	3.492462	-0.056843	0.073859	-0.056124	-0.532959	0.173096	-0.630127	0.806458	-0.116786	-0.556811	-0.161083
13875		9.173019	-0.080571	3.505848	-0.064926	0.082774	-0.063832	-0.534668	0.177002	-0.629639	0.806690	-0.116796	-0.556253	-0.161845
13876		9.127369	-0.021006	3.524179	-0.062455	0.089214	-0.069294	-0.537109	0.178223	-0.636475	0.806937	-0.116770	-0.555660	-0.162662
13877		9.100567	0.033964	3.547013	-0.063400	0.115976	-0.070938	-0.530029	0.184326	-0.634033	0.807311	-0.116700	-0.554883	-0.163510
13878		9.111654	0.046530	3.610192	-0.062073	0.128439	-0.068549	-0.536377	0.176514	-0.640625	0.807748	-0.116651	-0.553994	-0.164396
13879		9.017450	0.028621	3.685638	-0.059125	0.099837	-0.066468	-0.531738	0.176270	-0.640869	0.808058	-0.116583	-0.553329	-0.165161
13880		9.042859	0.032134	3.600718	-0.056271	0.084025	-0.063775	-0.532715	0.183594	-0.634277	0.808306	-0.116533	-0.552761	-0.165884
13881		9.061820	0.077494	3.575844	-0.058677	0.101599	-0.064792	-0.523193	0.180176	-0.637695	0.808612	-0.116508	-0.552075	-0.166693
13882		9.043015	0.090976	3.624718	-0.061527	0.109819	-0.062656	-0.523926	0.182861	-0.631348	0.808977	-0.116491	-0.551299	-0.167498
13883		9.022459	0.114572	3.715083	-0.070003	0.086930	-0.065540	-0.525146	0.182861	-0.637451	0.809206	-0.116567	-0.550683	-0.168362
13884		9.110264	0.060127	3.625913	-0.064599	0.075798	-0.061334	-0.524658	0.177246	-0.637695	0.809401	-0.116632	-0.550140	-0.169151
13885		9.139356	-0.010679	3.647892	-0.058347	0.076892	-0.061094	-0.523926	0.177246	-0.640137	0.809609	-0.116629	-0.549612	-0.169874
13886		9.156272	-0.053538	3.651591	-0.054607	0.068834	-0.048205	-0.527832	0.171387	-0.635498	0.809804	-0.116669	-0.549127	-0.170484
13887		9.119843	-0.038980	3.691594	-0.048997	0.055826	-0.025399	-0.526123	0.178467	-0.637207	0.809964	-0.116768	-0.548755	-0.170855
13888		9.103739	-0.021880	3.663603	-0.041188	0.038617	-0.005404	-0.520996	0.176758	-0.637207	0.810083	-0.116960	-0.548467	-0.171084
13889		9.041516	-0.021928	3.642980	-0.038327	0.009944	0.020657	-0.528320	0.182129	-0.645020	0.810118	-0.117289	-0.548341	-0.171096
13890		9.074624	-0.019346	3.561531	-0.034099	-0.016473	0.041263	-0.527832	0.177246	-0.644531	0.810066	-0.117725	-0.548377	-0.170928
13891		9.065812	-0.085622	3.521863	-0.032978	-0.016722	0.055496	-0.522461	0.180908	-0.637207	0.810036	-0.118196	-0.548415	-0.170622
13892		9.053552	-0.165219	3.488538	-0.030921	-0.033275	0.062217	-0.519775	0.177490	-0.644531	0.809938	-0.118733	-0.548549	-0.170285
13893		9.071652	-0.171317	3.443173	-0.020149	-0.030452	0.061737	-0.533691	0.182129	-0.630127	0.809881	-0.119169	-0.548664	-0.169880
13894		9.100333	-0.248860	3.430570	-0.010823	-0.035390	0.057051	-0.525635	0.184814	-0.633789	0.809758	-0.119541	-0.548898	-0.169450
13895		9.124772	-0.208044	3.429543	-0.004469	-0.035314	0.054549	-0.520508	0.179932	-0.644775	0.809656	-0.119875	-0.549101	-0.169045
13896		9.103795	-0.212081	3.446741	0.007135	-0.040870	0.054215	-0.526367	0.185791	-0.636230	0.809569	-0.120107	-0.549328	-0.168557
13897		9.154767	-0.151792	3.346387	0.019848	-0.040311	0.056404	-0.530273	0.182373	-0.639893	0.809475	-0.120288	-0.549591	-0.168020
13898		9.201191	-0.082056	3.402240	0.026103	-0.001561	0.065410	-0.526123	0.181396	-0.635010	0.809581	-0.120389	-0.549605	-0.167391
13899		9.196423	-0.081943	3.469219	0.017723	-0.010507	0.072269	-0.528076	0.181396	-0.644531	0.809644	-0.120595	-0.549660	-0.166752
13900		9.218792	-0.097010	3.357725	0.006739	-0.029909	0.070155	-0.529053	0.181396	-0.640381	0.809617	-0.120878	-0.549822	-0.166145
13901		9.209809	-0.002448	3.398577	-0.005885	-0.020471	0.063442	-0.528076	0.188965	-0.638916	0.809604	-0.121203	-0.549921	-0.165645
13902		9.211143	-0.012113	3.394939	-0.009437	-0.026915	0.056838	-0.535889	0.185303	-0.640137	0.809544	-0.121564	-0.550048	-0.165251
13903		9.168445	-0.044295	3.445128	-0.006655	-0.020049	0.055615	-0.524902	0.187988	-0.631836	0.809509	-0.121862	-0.550168	-0.164802
13904		9.170934	-0.095958	3.430477	0.001305	-0.043512	0.057920	-0.518066	0.184326	-0.644775	0.809381	-0.122182	-0.550425	-0.164337
13905		9.211953	-0.126306	3.411233	0.014291	-0.035066	0.064736	-0.528076	0.188232	-0.636719	0.809347	-0.122407	-0.550594	-0.163767
13906		9.186105	-0.121645	3.497288	0.021947	-0.029438	0.069193	-0.522705	0.190430	-0.638672	0.809324	-0.122607	-0.550774	-0.163127
13907		9.136250	-0.038389	3.498211	0.016901	-0.031084	0.075993	-0.526123	0.197510	-0.632812	0.809308	-0.122886	-0.550922	-0.162496
13908		9.150040	0.018465	3.548337	0.010479	-0.026695	0.079011	-0.519775	0.188477	-0.635010	0.809292	-0.123246	-0.551036	-0.161912
13909		9.039058	0.072141	3.556915	-0.013193	-0.054259	0.076535	-0.531982	0.193359	-0.643066	0.809139	-0.123757	-0.551301	-0.161385
13910		9.114471	0.176199	3.459836	-0.046274	-0.033631	0.064436	-0.526855	0.188965	-0.636230	0.809024	-0.124398	-0.551411	-0.161091
13911		9.120145	0.261895	3.556956	-0.071082	0.028820	0.052571	-0.520996	0.198486	-0.630615	0.809154	-0.125061	-0.551085	-0.161042
13912		9.150817	0.225317	3.600885	-0.114892	0.056985	0.048948	-0.527832	0.190430	-0.641113	0.809357	-0.126012	-0.550485	-0.161330
13913		9.170237	0.161359	3.686167	-0.155113	0.038891	0.053825	-0.525635	0.202881	-0.632568	0.809450	-0.127219	-0.549977	-0.161651
13914		9.220948	0.189335	3.621596	-0.194118	0.012725	0.050525	-0.527588	0.195312	-0.639160	0.809360	-0.128763	-0.549582	-0.162223
13915		9.249919	0.121194	3.736490	-0.240071	0.013887	0.055559	-0.529297	0.206055	-0.631104	0.809242	-0.130586	-0.549127	-0.162895
13916		9.219473	0.076919	3.774499	-0.270791	-0.022372	0.059269	-0.520996	0.206543	-0.635254	0.808909	-0.132717	-0.548872	-0.163684
13917		9.143165	0.094687	3.710165	-0.307182	-0.065480	0.051371	-0.527588	0.203613	-0.636963	0.808342	-0.135111	-0.548828	-0.164668
13918		9.114670	-0.102192	3.669570	-0.327863	-0.077999	0.060470	-0.522705	0.206543	-0.628418	0.807702	-0.137663	-0.548857	-0.165597
13919		9.118896	-0.251513	3.663861	-0.340350	-0.115839	0.075416	-0.525146	0.212402	-0.630615	0.806885	-0.140430	-0.549098	-0.166458
13920		9.148008	-0.265497	3.572862	-0.333032	-0.101834	0.094646	-0.532959	0.221680	-0.615723	0.806164	-0.143215	-0.549220	-0.167175
13921		9.157870	-0.448821	3.521061	-0.317225	-0.090533	0.125643	-0.524414	0.230957	-0.620850	0.805518	-0.146042	-0.549285	-0.167624
13922		9.181585	-0.555430	3.433321	-0.309583	-0.093492	0.160011	-0.524414	0.226318	-0.626465	0.804930	-0.149004	-0.549274	-0.167880
13923		9.227355	-0.609416	3.394647	-0.307696	-0.086737	0.191828	-0.539307	0.232422	-0.621094	0.804429	-0.152042	-0.549182	-0.167860
13924		9.225756	-0.670431	3.385682	-0.304722	-0.079600	0.218769	-0.534668	0.237549	-0.619141	0.803968	-0.155157	-0.549068	-0.167587
13925		9.177563	-0.737887	3.404635	-0.316311	-0.097000	0.238350	-0.533203	0.240967	-0.614014	0.803438	-0.158470	-0.549005	-0.167237
13926		9.239453	-0.729322	3.285829	-0.337267	-0.109381	0.246214	-0.521973	0.247314	-0.614258	0.802822	-0.161974	-0.548984	-0.166908
13927		9.264832	-0.641108	3.258871	-0.356558	-0.072609	0.246192	-0.527588	0.254150	-0.611328	0.802356	-0.165571	-0.548632	-0.166773
13928		9.321880	-0.771492	3.370134	-0.361797	-0.067510	0.255936	-0.532959	0.266357	-0.612793	0.801900	-0.169235	-0.548240	-0.166581
13929		9.439047	-0.999348	3.253065	-0.358028	-0.073951	0.269918	-0.524902	0.266113	-0.605713	0.801424	-0.172953	-0.547867	-0.166280
13930		9.341375	-1.091237	3.413219	-0.375416	-0.040948	0.293826	-0.518799	0.273682	-0.602051	0.801098	-0.176844	-0.547203	-0.165941
13931		9.177210	-1.211706	3.450616	-0.383229	-0.089498	0.312135	-0.518555	0.286621	-0.602295	0.800556	-0.180950	-0.546796	-0.165475
13932		9.204402	-1.308515	3.137880	-0.371744	-0.080994	0.332748	-0.522705	0.289551	-0.603516	0.800086	-0.185077	-0.546285	-0.164865
13933		9.112553	-1.358375	3.238729	-0.391405	0.012828	0.346561	-0.520508	0.297119	-0.597168	0.800019	-0.189239	-0.545115	-0.164344
13934		9.147370	-1.407099	3.182126	-0.388607	0.045482	0.360464	-0.524658	0.296387	-0.598389	0.800100	-0.193407	-0.543702	-0.163774
13935		9.163760	-1.507101	3.327700	-0.395288	0.080043	0.368062	-0.518311	0.307129	-0.589844	0.800320	-0.197558	-0.542070	-0.163155
13936		9.113491	-1.604095	3.261343	-0.406798	0.063999	0.359320	-0.515137	0.309570	-0.598389	0.800411	-0.201797	-0.540518	-0.162665
13937		9.063879	-1.661127	3.234181	-0.420914	0.079385	0.338120	-0.511230	0.323730	-0.588135	0.800522	-0.205977	-0.538865	-0.162365
13938		9.129294	-1.755732	3.257955	-0.438697	0.100224	0.330323	-0.508301	0.329346	-0.591553	0.800654	-0.210251	-0.537038	-0.162290
13939		9.300930	-1.769580	3.294909	-0.422921	0.142173	0.328595	-0.498779	0.343018	-0.594971	0.800991	-0.214337	-0.534940	-0.162210
13940		9.261439	-1.822234	3.478919	-0.422061	0.146680	0.326864	-0.496582	0.340332	-0.585205	0.801345	-0.218424	-0.532755	-0.162200
13941		9.326311	-1.855611	3.504438	-0.410181	0.120475	0.343423	-0.501221	0.347168	-0.582520	0.801596	-0.222518	-0.530762	-0.161929
13942		9.207755	-2.096847	3.551605	-0.409629	0.098765	0.371586	-0.491455	0.364990	-0.586670	0.801760	-0.226745	-0.528886	-0.161393
13943		9.030495	-2.271357	3.502731	-0.414696	0.061771	0.412062	-0.488037	0.364502	-0.584229	0.801804	-0.231267	-0.527095	-0.160614
13944		8.876084	-2.379398	3.274225	-0.410206	0.056557	0.435051	-0.475342	0.375488	-0.590576	0.801846	-0.235836	-0.525311	-0.159603
13945		8.812493	-2.419498	3.382137	-0.400611	0.143518	0.453829	-0.479980	0.383789	-0.586426	0.802320	-0.240316	-0.522847	-0.158629
13946		8.680856	-2.609380	3.232737	-0.359807	0.075682	0.467407	-0.474609	0.394531	-0.580566	0.802558	-0.244656	-0.520889	-0.157220
13947		8.716709	-2.853518	3.045499	-0.311499	0.084662	0.490253	-0.475830	0.393555	-0.580078	0.802940	-0.248777	-0.518864	-0.155493
13948		8.547264	-2.949751	3.062608	-0.293134	0.057145	0.484864	-0.470947	0.402344	-0.584229	0.803210	-0.252744	-0.517090	-0.153598
13949		8.546444	-2.912565	2.955068	-0.263758	0.031893	0.483066	-0.464844	0.408936	-0.582275	0.803424	-0.256533	-0.515499	-0.151532
13950		8.443455	-2.817347	2.985406	-0.262020	0.033849	0.465184	-0.463135	0.416504	-0.567383	0.803614	-0.260233	-0.513914	-0.149588
13951		8.589518	-2.809874	2.958196	-0.263329	-0.004503	0.425346	-0.458008	0.420654	-0.576660	0.803547	-0.263836	-0.512680	-0.147860
13952		8.517565	-2.845663	2.963727	-0.240992	-0.000754	0.378015	-0.455566	0.422852	-0.573242	0.803496	-0.267060	-0.511528	-0.146331
13953		8.404199	-3.072988	3.027642	-0.212158	-0.032850	0.354002	-0.453369	0.437256	-0.561768	0.803330	-0.270017	-0.510684	-0.144753
13954		8.258942	-3.283906	3.167957	-0.209125	-0.006873	0.328984	-0.448242	0.439697	-0.569824	0.803225	-0.272859	-0.509704	-0.143454
13955		8.128267	-3.133099	3.115822	-0.193185	-0.050373	0.289677	-0.452148	0.440186	-0.563232	0.802938	-0.275460	-0.509103	-0.142222
13956		8.143047	-3.002294	2.909854	-0.178784	-0.046732	0.235051	-0.454346	0.445068	-0.567871	0.802611	-0.277712	-0.508656	-0.141282
13957		8.301532	-3.032994	2.871714	-0.167439	-0.008773	0.177219	-0.453125	0.445068	-0.565918	0.802404	-0.279584	-0.508105	-0.140746
13958		8.531010	-3.009143	2.925272	-0.155683	0.044233	0.122688	-0.445557	0.450439	-0.568604	0.802382	-0.281076	-0.507348	-0.140636
13959		8.684449	-2.961837	3.198241	-0.141069	0.060946	0.075811	-0.443359	0.450928	-0.562012	0.802423	-0.282268	-0.506566	-0.140832
13960		8.833459	-2.980982	3.075126	-0.098436	-0.040678	0.041089	-0.443848	0.451416	-0.556396	0.802085	-0.283154	-0.506600	-0.140853
13961		8.893817	-3.122628	2.932848	-0.066112	-0.039504	0.001891	-0.447754	0.448242	-0.552002	0.801774	-0.283661	-0.506765	-0.141012
13962		8.811254	-3.214812	2.933096	-0.012541	-0.019606	-0.025076	-0.451660	0.455811	-0.566162	0.801630	-0.283660	-0.506952	-0.141162
13963		8.733989	-3.091200	3.040092	0.016886	0.013592	-0.049283	-0.443115	0.455566	-0.560547	0.801684	-0.283314	-0.506992	-0.141404
13964		8.679865	-2.832538	3.109261	0.033671	0.019013	-0.083182	-0.451172	0.449951	-0.555908	0.801765	-0.282734	-0.507063	-0.141846
13965		8.696781	-2.949118	3.051023	0.062524	-0.025895	-0.121775	-0.444824	0.452881	-0.563232	0.801658	-0.281829	-0.507607	-0.142308
13966		8.746046	-3.074374	2.850547	0.093025	-0.018944	-0.164141	-0.448486	0.445557	-0.549561	0.801624	-0.280551	-0.508192	-0.142940
13967		8.688921	-3.006410	3.041272	0.118661	0.030478	-0.219454	-0.454346	0.449951	-0.561035	0.801763	-0.278808	-0.508639	-0.143975
13968		8.721909	-2.809453	3.076133	0.161802	-0.004609	-0.255071	-0.449219	0.443848	-0.569824	0.801815	-0.276663	-0.509444	-0.144969
13969		8.822434	-2.907550	3.136045	0.204715	-0.044348	-0.278229	-0.454346	0.443115	-0.565918	0.801789	-0.274176	-0.510589	-0.145810
13970		8.730776	-3.003564	3.014536	0.237703	-0.060715	-0.285722	-0.458496	0.435791	-0.566650	0.801739	-0.271466	-0.511902	-0.146550
13971		8.498144	-2.892896	3.013175	0.240226	-0.051095	-0.303441	-0.459229	0.442139	-0.569092	0.801703	-0.268636	-0.513204	-0.147406
13972		8.577667	-2.639778	2.981866	0.232298	0.003989	-0.333167	-0.463623	0.423584	-0.572021	0.801843	-0.265698	-0.514154	-0.148651
13973		8.693838	-2.463482	3.418612	0.198709	0.086810	-0.369918	-0.470947	0.420654	-0.572998	0.802208	-0.262674	-0.514626	-0.150415
13974		8.710252	-2.390119	3.450421	0.201704	-0.028883	-0.394664	-0.474365	0.414062	-0.573242	0.802031	-0.259659	-0.515940	-0.152085
13975		8.750079	-2.374584	3.034438	0.211072	-0.111877	-0.408321	-0.470459	0.406738	-0.572266	0.801485	-0.256620	-0.517849	-0.153622
13976		8.779921	-2.568228	2.821020	0.242819	-0.065765	-0.373611	-0.468994	0.399902	-0.569824	0.801251	-0.253469	-0.519386	-0.154885
13977		8.780043	-3.023988	3.097607	0.260276	-0.010197	-0.330684	-0.482422	0.398926	-0.575684	0.801340	-0.250319	-0.520468	-0.155907
13978		8.850824	-3.089822	3.191720	0.301279	-0.027620	-0.323224	-0.483154	0.397949	-0.583740	0.801427	-0.246932	-0.521724	-0.156663
13979		8.914499	-2.668811	3.157926	0.323228	-0.026213	-0.328169	-0.486084	0.387451	-0.581787	0.801560	-0.243383	-0.522979	-0.157347
13980		8.904330	-2.230683	3.368682	0.301731	-0.011698	-0.340233	-0.490723	0.384033	-0.579346	0.801679	-0.239891	-0.524143	-0.158231
13981		8.840350	-1.989661	3.250438	0.303695	-0.094444	-0.353166	-0.485107	0.365479	-0.583008	0.801400	-0.236439	-0.525889	-0.159048
13982		8.955529	-2.070551	3.154871	0.311021	-0.131968	-0.359068	-0.489014	0.373291	-0.583740	0.800969	-0.232938	-0.527893	-0.159743
13983		8.917894	-2.270141	3.219943	0.281401	-0.168411	-0.347920	-0.492188	0.355225	-0.585693	0.800321	-0.229767	-0.530042	-0.160462
13984		8.839234	-2.307687	3.331808	0.255227	-0.240918	-0.350794	-0.504883	0.354980	-0.581543	0.799290	-0.226814	-0.532660	-0.161132
13985		8.789631	-2.093383	3.059922	0.244936	-0.324247	-0.367803	-0.508057	0.348877	-0.575195	0.797811	-0.223964	-0.535862	-0.161835
13986		8.846482	-1.450360	2.878641	0.232409	-0.266597	-0.410029	-0.511230	0.349854	-0.585938	0.796487	-0.220932	-0.538731	-0.162992
