// Start Time: Unknown
// Update Rate: 60.0Hz
// Filter Profile: human (46.1)
// Firmware Version: 4.6.0
PacketCounter	SampleTimeFine	Acc_X	Acc_Y	Acc_Z	Gyr_X	Gyr_Y	Gyr_Z	Mag_X	Mag_Y	Mag_Z	Quat_q0	Quat_q1	Quat_q2	Quat_q3
05461		8.790791	0.181718	-4.469418	-0.031675	-0.016006	0.021021	-0.840088	-0.370117	0.276367	0.437670	0.481209	-0.703525	0.286245
05462		8.771844	-0.004741	-4.428846	-0.017110	-0.014615	0.011855	-0.838135	-0.372314	0.283691	0.437624	0.481112	-0.703666	0.286130
05463		8.721047	0.020362	-4.506897	0.020127	-0.020513	-0.008098	-0.842285	-0.370850	0.278320	0.437374	0.481360	-0.703671	0.286083
05464		8.731228	0.270541	-4.515692	0.024786	-0.021612	-0.012096	-0.836426	-0.375244	0.276855	0.437173	0.481574	-0.703644	0.286097
05465		8.694665	0.281076	-4.490249	-0.006632	-0.026848	-0.004567	-0.837158	-0.369385	0.275635	0.437031	0.481665	-0.703743	0.285917
05466		8.705798	0.026397	-4.486236	0.004881	-0.022817	-0.009972	-0.834961	-0.373291	0.277832	0.436909	0.481787	-0.703774	0.285821
05467		8.749985	0.153899	-4.389663	0.009948	-0.029026	-0.016311	-0.841309	-0.368896	0.283447	0.436714	0.482010	-0.703796	0.285688
05468		8.738214	0.133784	-4.449511	0.007809	-0.032564	-0.022282	-0.840820	-0.369141	0.275391	0.436525	0.482264	-0.703811	0.285512
05469		8.713353	0.243633	-4.539711	0.014359	-0.027819	-0.028426	-0.842285	-0.370361	0.277832	0.436401	0.482507	-0.703761	0.285413
05470		8.723880	0.370704	-4.467666	-0.009365	-0.025732	-0.019830	-0.840088	-0.373779	0.278809	0.436353	0.482622	-0.703797	0.285203
05471		8.738515	0.176732	-4.332037	-0.026784	-0.021868	-0.017155	-0.842773	-0.363525	0.292725	0.436381	0.482675	-0.703870	0.284892
05472		8.724021	0.000648	-4.458843	0.025175	-0.027031	-0.031457	-0.839600	-0.372803	0.275146	0.436164	0.483055	-0.703785	0.284789
05473		8.713902	0.335146	-4.556025	0.051942	-0.017940	-0.038413	-0.840088	-0.372314	0.280029	0.435986	0.483473	-0.703559	0.284911
05474		8.721465	0.641808	-4.496990	-0.001958	-0.015887	-0.018414	-0.850830	-0.369385	0.287354	0.435959	0.483596	-0.703545	0.284779
05475		8.714519	0.286258	-4.523590	-0.030559	-0.010266	-0.005412	-0.841064	-0.366211	0.285400	0.436056	0.483536	-0.703626	0.284531
05476		8.723303	0.155474	-4.453709	0.004930	-0.013293	-0.014882	-0.844482	-0.370361	0.283203	0.435995	0.483677	-0.703604	0.284438
05477		8.736307	0.270494	-4.558601	0.014878	-0.017422	-0.016969	-0.841553	-0.373047	0.288574	0.435917	0.483871	-0.703546	0.284374
05478		8.733382	0.354838	-4.532267	0.016994	-0.015411	-0.017805	-0.839111	-0.376465	0.273193	0.435806	0.484116	-0.703479	0.284294
05479		8.713464	0.409371	-4.478936	-0.006646	-0.016129	-0.012713	-0.838867	-0.379395	0.282959	0.435876	0.484194	-0.703456	0.284109
05480		8.745159	0.244779	-4.473735	-0.023672	-0.018747	-0.010663	-0.838135	-0.375488	0.285156	0.435941	0.484263	-0.703504	0.283773
05481		8.743539	0.107298	-4.531839	-0.010651	-0.017367	-0.019756	-0.841309	-0.372559	0.283203	0.435949	0.484417	-0.703499	0.283510
05482		8.686798	0.159096	-4.586735	0.010323	-0.015206	-0.030062	-0.845703	-0.373047	0.278320	0.435916	0.484666	-0.703400	0.283382
05483		8.694082	0.142033	-4.527736	-0.003829	-0.017833	-0.029827	-0.848145	-0.370850	0.282471	0.435963	0.484838	-0.703333	0.283182
05484		8.730581	0.082827	-4.522761	0.014405	-0.018259	-0.040275	-0.840820	-0.365234	0.280029	0.435927	0.485134	-0.703199	0.283061
05485		8.755070	0.325061	-4.552245	0.028888	-0.016783	-0.049497	-0.838623	-0.367676	0.285889	0.435817	0.485507	-0.703017	0.283042
05486		8.684358	0.349860	-4.496399	0.013680	-0.017614	-0.044512	-0.845459	-0.377930	0.284912	0.435728	0.485840	-0.702896	0.282909
05487		8.716540	0.301923	-4.522021	0.011902	-0.016528	-0.042320	-0.845947	-0.376953	0.282227	0.435729	0.486167	-0.702743	0.282726
05488		8.714102	0.348718	-4.510123	0.014759	-0.016511	-0.044143	-0.843018	-0.370361	0.281250	0.435738	0.486492	-0.702576	0.282569
05489		8.692611	0.236099	-4.577892	0.024769	-0.016370	-0.042823	-0.838135	-0.381592	0.290283	0.435672	0.486822	-0.702410	0.282513
05490		8.699975	0.304209	-4.510452	0.034551	-0.011053	-0.044507	-0.833008	-0.369629	0.293457	0.435574	0.487281	-0.702183	0.282438
05491		8.693305	0.360323	-4.528847	0.022490	-0.014397	-0.041714	-0.835449	-0.376465	0.283203	0.435408	0.487666	-0.702053	0.282353
05492		8.732419	0.402550	-4.503223	0.021851	-0.016326	-0.040995	-0.834961	-0.375732	0.283691	0.435350	0.488015	-0.701892	0.282240
05493		8.715985	0.380132	-4.624528	0.021713	-0.017784	-0.040880	-0.831055	-0.373535	0.279297	0.435283	0.488365	-0.701737	0.282123
05494		8.675838	0.348081	-4.675353	0.021404	-0.012558	-0.036973	-0.835693	-0.379150	0.278564	0.435249	0.488655	-0.701586	0.282051
05495		8.697016	0.357618	-4.601265	0.005472	-0.006042	-0.030844	-0.834961	-0.377930	0.286865	0.435345	0.488839	-0.701457	0.281903
05496		8.712703	0.318217	-4.458573	-0.001239	-0.004317	-0.029365	-0.838623	-0.375488	0.289307	0.435402	0.489027	-0.701364	0.281720
05497		8.703130	0.343137	-4.520805	0.000723	-0.006459	-0.026711	-0.838867	-0.381348	0.294434	0.435415	0.489198	-0.701294	0.281577
05498		8.684100	0.316173	-4.599314	0.016626	-0.006171	-0.034389	-0.836670	-0.384277	0.281982	0.435376	0.489523	-0.701141	0.281455
05499		8.658572	0.424375	-4.561481	0.003937	-0.010127	-0.025643	-0.832275	-0.378174	0.288818	0.435446	0.489706	-0.701039	0.281281
05500		8.722391	0.317946	-4.567658	-0.009482	-0.008049	-0.020991	-0.833008	-0.377197	0.298340	0.435474	0.489829	-0.701021	0.281069
05501		8.727775	0.441481	-4.556768	-0.000825	-0.005131	-0.021365	-0.832764	-0.374756	0.292969	0.435402	0.490023	-0.700993	0.280910
05502		8.718009	0.492701	-4.532759	-0.015622	-0.004353	-0.013318	-0.831787	-0.377441	0.284912	0.435413	0.490066	-0.701031	0.280725
05503		8.704376	0.396389	-4.502049	-0.015292	-0.005317	-0.006895	-0.836914	-0.383545	0.289795	0.435489	0.490044	-0.701066	0.280557
05504		8.709973	0.418673	-4.531484	-0.009114	-0.003421	-0.005933	-0.827881	-0.379639	0.285400	0.435551	0.490087	-0.701061	0.280399
05505		8.687217	0.341876	-4.562445	-0.004020	-0.008022	-0.005484	-0.827881	-0.382812	0.289307	0.435562	0.490133	-0.701073	0.280271
05506		8.666505	0.337360	-4.534124	0.002781	-0.002832	-0.006934	-0.835449	-0.375732	0.299805	0.435558	0.490246	-0.701037	0.280169
05507		8.672908	0.400553	-4.444389	-0.015481	-0.001335	0.000281	-0.834473	-0.383301	0.284912	0.435499	0.490235	-0.701135	0.280036
05508		8.729942	0.314447	-4.532007	-0.008256	-0.007988	-0.001955	-0.831543	-0.376465	0.279053	0.435566	0.490237	-0.701146	0.279899
05509		8.674325	0.320837	-4.599801	0.012720	-0.006863	-0.009045	-0.838623	-0.373535	0.285156	0.435584	0.490269	-0.701102	0.279926
05510		8.705940	0.464892	-4.522051	0.016289	-0.010157	-0.003251	-0.838623	-0.374268	0.286865	0.435490	0.490279	-0.701121	0.280006
05511		8.712015	0.399280	-4.560397	0.013774	-0.008450	0.001616	-0.827881	-0.374512	0.290771	0.435397	0.490266	-0.701157	0.280085
05512		8.717269	0.418594	-4.590684	0.009690	-0.009670	0.001502	-0.839111	-0.375488	0.287354	0.435246	0.490326	-0.701206	0.280094
05513		8.689647	0.278839	-4.732186	0.013981	-0.001427	0.003223	-0.846680	-0.373047	0.288818	0.435202	0.490292	-0.701216	0.280195
05514		8.705127	0.347617	-4.619928	0.012845	0.001574	0.004695	-0.844727	-0.382324	0.286377	0.435161	0.490194	-0.701250	0.280346
05515		8.696822	0.236635	-4.557541	0.017804	0.003618	0.002020	-0.836914	-0.379883	0.290771	0.435200	0.490179	-0.701199	0.280439
05516		8.706429	0.286630	-4.540913	0.021276	0.005589	-0.000530	-0.832520	-0.369873	0.296387	0.435150	0.490252	-0.701135	0.280550
05517		8.692815	0.343832	-4.546646	0.016842	0.001294	-0.001988	-0.842529	-0.373047	0.290039	0.434948	0.490334	-0.701148	0.280686
05518		8.707697	0.371253	-4.553032	0.015090	0.002349	0.000204	-0.833008	-0.376465	0.285156	0.434888	0.490295	-0.701155	0.280829
05519		8.730052	0.448211	-4.523016	0.004297	-0.001210	0.006652	-0.838135	-0.378174	0.292480	0.434895	0.490221	-0.701190	0.280859
05520		8.694875	0.340987	-4.442117	-0.014299	-0.002796	0.012526	-0.835938	-0.376709	0.279541	0.434891	0.490109	-0.701298	0.280791
05521		8.707227	0.195851	-4.549112	0.013496	-0.007313	0.003690	-0.832031	-0.374756	0.293457	0.434923	0.490026	-0.701314	0.280846
05522		8.677040	0.437404	-4.540420	0.028965	-0.004617	0.001710	-0.833008	-0.370361	0.285156	0.434700	0.490167	-0.701291	0.281004
05523		8.709926	0.494888	-4.470372	-0.008976	-0.005784	0.014441	-0.837646	-0.379639	0.291992	0.434688	0.489963	-0.701434	0.281023
05524		8.722666	0.147948	-4.408125	-0.030269	-0.005950	0.015117	-0.828613	-0.377686	0.286621	0.434752	0.489800	-0.701581	0.280839
05525		8.702601	0.002379	-4.560231	0.016525	-0.012626	-0.003619	-0.834961	-0.380859	0.291748	0.434661	0.489917	-0.701559	0.280830
05526		8.676675	0.279595	-4.653332	0.038113	-0.013621	-0.013278	-0.841553	-0.367188	0.291504	0.434467	0.490205	-0.701447	0.280908
05527		8.703009	0.390669	-4.601142	0.004408	-0.013473	-0.005759	-0.838135	-0.375488	0.294189	0.434322	0.490161	-0.701540	0.280978
05528		8.705283	0.178491	-4.507342	-0.005631	-0.009577	-0.005225	-0.838379	-0.376221	0.295166	0.434255	0.490190	-0.701588	0.280908
05529		8.668299	0.231879	-4.590512	0.026609	-0.011172	-0.017842	-0.831787	-0.379639	0.292969	0.434070	0.490426	-0.701512	0.280975
05530		8.694867	0.443837	-4.497479	0.012600	-0.009716	-0.014146	-0.833740	-0.373779	0.285889	0.433980	0.490631	-0.701445	0.280923
05531		8.705190	0.370022	-4.505293	-0.013915	-0.016189	-0.001933	-0.834229	-0.381348	0.286133	0.434009	0.490525	-0.701553	0.280794
05532		8.715977	0.183400	-4.607499	0.010128	-0.018836	-0.009558	-0.836182	-0.370605	0.286621	0.433997	0.490619	-0.701536	0.280691
05533		8.676154	0.290381	-4.624526	0.029685	-0.018973	-0.013279	-0.831787	-0.369141	0.291504	0.433833	0.490702	-0.701530	0.280814
05534		8.695413	0.394034	-4.491038	0.018646	-0.018714	-0.008136	-0.838135	-0.365723	0.287354	0.433606	0.490797	-0.701570	0.280897
05535		8.701531	0.316087	-4.583587	0.021353	-0.016086	-0.008020	-0.832764	-0.369385	0.281982	0.433456	0.490752	-0.701631	0.281056
05536		8.658491	0.291227	-4.685341	0.034966	-0.013831	-0.014627	-0.839844	-0.376953	0.294189	0.433383	0.490783	-0.701595	0.281205
05537		8.641093	0.360317	-4.619802	0.017250	-0.011890	-0.007990	-0.830322	-0.369873	0.289551	0.433266	0.490877	-0.701584	0.281246
05538		8.685218	0.161245	-4.729553	0.012801	-0.009437	-0.010995	-0.835449	-0.371826	0.298096	0.433177	0.490931	-0.701581	0.281297
05539		8.627668	0.265087	-4.736353	0.029495	-0.004210	-0.019678	-0.834961	-0.367432	0.291016	0.432963	0.491178	-0.701478	0.281454
05540		8.647818	0.326719	-4.594225	0.015627	-0.001309	-0.016088	-0.838623	-0.384277	0.291748	0.432901	0.491198	-0.701452	0.281578
05541		8.686500	0.292602	-4.500931	0.008843	-0.005167	-0.016302	-0.835205	-0.371826	0.292480	0.432985	0.491301	-0.701375	0.281460
05542		8.724876	0.446056	-4.506048	0.017854	-0.004560	-0.015498	-0.835938	-0.374023	0.296143	0.432906	0.491385	-0.701330	0.281546
05543		8.664011	0.318489	-4.637973	0.021190	-0.009419	-0.011155	-0.834229	-0.379150	0.289307	0.432738	0.491532	-0.701296	0.281634
05544		8.647879	0.274751	-4.664994	0.033397	-0.004362	-0.012546	-0.838623	-0.375000	0.292236	0.432712	0.491656	-0.701192	0.281717
05545		8.694218	0.432517	-4.502315	0.004110	-0.005564	-0.005240	-0.841309	-0.376465	0.295166	0.432714	0.491608	-0.701222	0.281725
05546		8.695724	0.091535	-4.636795	0.009660	-0.001565	-0.008662	-0.833984	-0.379395	0.285156	0.432700	0.491622	-0.701203	0.281768
05547		8.654851	0.368983	-4.636899	0.023129	0.000582	-0.016856	-0.835938	-0.379150	0.289551	0.432828	0.491653	-0.701098	0.281778
05548		8.636263	0.338434	-4.713924	0.001615	0.002842	-0.008860	-0.834229	-0.374268	0.292236	0.432967	0.491605	-0.701067	0.281726
05549		8.660553	0.189383	-4.599269	-0.008522	0.006560	-0.009897	-0.829834	-0.376221	0.288086	0.433072	0.491552	-0.701053	0.281692
05550		8.711690	0.081170	-4.510119	0.005698	0.005376	-0.017368	-0.834229	-0.381104	0.290771	0.433196	0.491584	-0.700967	0.281658
05551		8.708516	0.282587	-4.658964	0.023721	0.009249	-0.026069	-0.841064	-0.370850	0.287109	0.433297	0.491749	-0.700779	0.281682
05552		8.664996	0.458317	-4.656657	0.002228	0.008765	-0.021595	-0.835693	-0.377930	0.291504	0.433463	0.491641	-0.700725	0.281752
05553		8.670585	0.307890	-4.657569	-0.013854	0.012200	-0.015208	-0.838623	-0.373047	0.292236	0.433665	0.491586	-0.700675	0.281660
05554		8.711473	0.290479	-4.529018	-0.001398	0.014807	-0.016966	-0.834961	-0.370850	0.295410	0.433780	0.491548	-0.700602	0.281730
05555		8.727780	0.336698	-4.501229	-0.013364	0.011337	-0.014121	-0.835449	-0.370361	0.293457	0.433826	0.491540	-0.700569	0.281756
05556		8.681331	0.310004	-4.662265	-0.004105	0.012180	-0.017074	-0.843750	-0.374023	0.294189	0.433876	0.491542	-0.700508	0.281829
05557		8.664819	0.367559	-4.625533	-0.008580	0.016007	-0.014869	-0.836426	-0.372314	0.287598	0.434007	0.491457	-0.700465	0.281882
05558		8.672154	0.275245	-4.599455	-0.020839	0.019076	-0.009841	-0.839111	-0.374512	0.290771	0.434260	0.491249	-0.700460	0.281865
05559		8.674039	0.277681	-4.471535	-0.013415	0.018111	-0.015694	-0.837158	-0.380127	0.294189	0.434456	0.491151	-0.700409	0.281862
05560		8.765286	0.397043	-4.451788	-0.022649	0.011856	-0.012873	-0.840332	-0.367920	0.290039	0.434621	0.491126	-0.700377	0.281729
05561		8.739073	0.360668	-4.549285	-0.010689	0.015341	-0.015706	-0.834473	-0.369629	0.298584	0.434737	0.491002	-0.700354	0.281826
05562		8.712311	0.494762	-4.527203	-0.012683	0.014821	-0.008059	-0.834717	-0.381592	0.286133	0.434682	0.491045	-0.700314	0.281934
05563		8.691611	0.418017	-4.554572	-0.024818	0.013977	0.003628	-0.838135	-0.380615	0.288574	0.434960	0.490821	-0.700352	0.281799
05564		8.677818	0.375030	-4.453173	-0.021365	0.014623	0.002767	-0.831299	-0.378174	0.287354	0.435183	0.490626	-0.700382	0.281721
05565		8.714381	0.353534	-4.533720	-0.017522	0.011578	0.004810	-0.833984	-0.379150	0.287354	0.435338	0.490481	-0.700409	0.281666
05566		8.715526	0.440935	-4.545049	-0.008366	0.010949	0.001989	-0.835205	-0.376953	0.282227	0.435470	0.490373	-0.700409	0.281650
05567		8.681285	0.364639	-4.626040	-0.023368	0.012761	0.012107	-0.833008	-0.382324	0.295898	0.435719	0.490047	-0.700503	0.281600
05568		8.693606	0.116882	-4.728489	-0.006961	0.020528	0.003824	-0.833496	-0.378174	0.290283	0.435764	0.490090	-0.700433	0.281629
05569		8.675411	0.269315	-4.629419	0.007096	0.027387	-0.001540	-0.835693	-0.376709	0.278564	0.435861	0.490085	-0.700315	0.281781
05570		8.698167	0.246187	-4.615587	-0.008348	0.024624	0.000438	-0.831299	-0.377197	0.291260	0.436182	0.489812	-0.700291	0.281819
05571		8.705603	0.179237	-4.502979	0.000959	0.022741	-0.006017	-0.837646	-0.376465	0.285645	0.436239	0.489870	-0.700178	0.281910
05572		8.735209	0.208144	-4.578153	0.012231	0.025464	-0.018287	-0.843750	-0.379639	0.297607	0.436397	0.489887	-0.700015	0.282044
05573		8.696609	0.243526	-4.648094	0.018685	0.023551	-0.022913	-0.833740	-0.371582	0.279297	0.436371	0.490108	-0.699806	0.282217
05574		8.662096	0.253377	-4.594587	0.007257	0.028802	-0.022395	-0.834717	-0.377197	0.283447	0.436623	0.490035	-0.699648	0.282345
05575		8.700704	0.205281	-4.633413	0.009705	0.032549	-0.027122	-0.837646	-0.374268	0.284912	0.436864	0.490086	-0.699422	0.282442
05576		8.697253	0.390112	-4.539399	0.010386	0.040044	-0.033052	-0.838867	-0.381836	0.279053	0.437114	0.490141	-0.699162	0.282605
05577		8.727777	0.421093	-4.487079	-0.020074	0.039056	-0.021012	-0.837646	-0.378662	0.283203	0.437598	0.489966	-0.699013	0.282530
05578		8.764373	0.256600	-4.555733	-0.020270	0.045729	-0.024153	-0.831787	-0.380615	0.283447	0.438018	0.489862	-0.698824	0.282525
05579		8.703693	0.299000	-4.622434	0.021725	0.073261	-0.034788	-0.835693	-0.378662	0.285645	0.438428	0.489985	-0.698366	0.282806
05580		8.685525	0.406862	-4.695151	0.066452	0.124274	-0.045238	-0.839355	-0.383057	0.270752	0.438922	0.490213	-0.697588	0.283565
05581		8.709541	0.319597	-4.505106	0.090214	0.145361	-0.043848	-0.836670	-0.379395	0.280762	0.439691	0.490259	-0.696703	0.284469
05582		8.774157	0.153639	-4.462156	0.132205	0.148772	-0.051505	-0.832520	-0.376953	0.279053	0.440104	0.490675	-0.695656	0.285674
05583		8.732404	0.217444	-4.168411	0.181955	0.153264	-0.060298	-0.838135	-0.379150	0.275635	0.440334	0.491331	-0.694432	0.287168
05584		8.778470	0.351909	-4.187075	0.142119	0.111337	-0.052523	-0.839600	-0.383545	0.280029	0.440535	0.491824	-0.693497	0.288271
05585		8.890318	0.497559	-4.182678	0.088070	0.081168	-0.037219	-0.835938	-0.381348	0.277100	0.440703	0.492190	-0.692840	0.288968
05586		8.871549	0.705111	-4.263878	0.030669	0.050210	-0.014187	-0.843262	-0.384033	0.279297	0.440885	0.492273	-0.692528	0.289298
05587		8.905611	0.590594	-4.263967	-0.001535	0.029064	-0.001710	-0.846924	-0.379150	0.270508	0.441045	0.492210	-0.692428	0.289401
05588		8.818577	0.560560	-4.292360	-0.028528	0.022982	0.014492	-0.831299	-0.380127	0.267822	0.441344	0.491799	-0.692521	0.289420
05589		8.801617	0.526834	-4.346104	-0.061949	0.013161	0.026654	-0.837158	-0.379150	0.274414	0.441693	0.491325	-0.692734	0.289184
05590		8.845993	0.455757	-4.303703	-0.125157	0.002785	0.044649	-0.836914	-0.379395	0.275879	0.442097	0.490591	-0.693218	0.288652
05591		8.773631	0.103799	-4.599093	-0.087952	0.022176	0.036272	-0.840088	-0.384277	0.272461	0.442449	0.490032	-0.693500	0.288384
05592		8.761109	0.134367	-4.562774	-0.057266	0.030717	0.029218	-0.846924	-0.381592	0.270020	0.442820	0.489576	-0.693640	0.288253
05593		8.765212	0.224602	-4.487925	-0.041329	0.027113	0.019891	-0.845703	-0.380127	0.270508	0.443147	0.489155	-0.693748	0.288206
05594		8.789981	0.234024	-4.428204	-0.059415	0.029908	0.019862	-0.833008	-0.388916	0.260986	0.443532	0.488680	-0.693889	0.288076
05595		8.808107	0.238828	-4.306999	-0.047404	0.025146	0.011961	-0.847168	-0.372559	0.278809	0.444010	0.488343	-0.693927	0.287823
05596		8.843784	0.365739	-4.038134	-0.071909	0.018804	0.014660	-0.838135	-0.374268	0.263672	0.444205	0.487954	-0.694143	0.287658
05597		8.833675	0.316020	-3.926700	-0.091787	0.004692	0.021874	-0.844238	-0.382080	0.275879	0.444578	0.487381	-0.694467	0.287272
05598		8.737697	0.219308	-4.322987	-0.022714	-0.019945	-0.001198	-0.835938	-0.377441	0.267822	0.444469	0.487416	-0.694595	0.287072
05599		8.795089	0.609983	-4.463355	-0.013810	-0.033338	-0.001870	-0.834961	-0.385742	0.270996	0.444312	0.487452	-0.694753	0.286872
05600		8.734749	0.642924	-4.323604	-0.060879	-0.017286	0.019835	-0.841797	-0.379639	0.266113	0.444399	0.487241	-0.695010	0.286472
05601		8.929281	0.286334	-4.275376	-0.090977	-0.024762	0.030971	-0.842529	-0.379150	0.268066	0.444583	0.486726	-0.695460	0.285970
05602		8.857476	0.130694	-4.404680	-0.028687	-0.017222	0.012817	-0.837891	-0.381836	0.270996	0.444569	0.486547	-0.695662	0.285803
05603		8.787398	0.524881	-4.545040	-0.017703	-0.017383	0.014722	-0.848877	-0.377197	0.269775	0.444472	0.486484	-0.695821	0.285677
05604		8.757115	0.481175	-4.501849	-0.047590	-0.014786	0.034146	-0.842285	-0.381104	0.264648	0.444482	0.486065	-0.696171	0.285521
05605		8.843741	0.161621	-4.315055	-0.046525	-0.010947	0.031136	-0.848389	-0.374023	0.270508	0.444592	0.485681	-0.696454	0.285312
05606		8.809774	-0.033092	-4.557740	0.010010	-0.007967	0.011563	-0.840088	-0.374756	0.263184	0.444432	0.485593	-0.696560	0.285454
05607		8.698616	0.042775	-4.697828	0.083071	0.008443	-0.021298	-0.850098	-0.377686	0.273682	0.444233	0.485910	-0.696274	0.285922
05608		8.638084	0.270771	-4.471236	0.068488	0.027392	-0.022193	-0.844971	-0.375244	0.270264	0.444111	0.486193	-0.695960	0.286395
05609		8.875824	0.300094	-4.230325	0.004547	0.036234	-0.017328	-0.845215	-0.374268	0.264893	0.444308	0.486173	-0.695784	0.286550
05610		8.843866	-0.111735	-4.621329	0.044183	0.048933	-0.040137	-0.840088	-0.375488	0.270996	0.444529	0.486340	-0.695380	0.286903
05611		8.787689	0.350478	-4.703017	0.106495	0.066351	-0.060062	-0.839600	-0.376709	0.271973	0.444554	0.486927	-0.694662	0.287607
05612		8.728325	0.595563	-4.414955	0.067482	0.103184	-0.041561	-0.846924	-0.367676	0.267822	0.444894	0.487195	-0.693971	0.288294
05613		8.884385	0.371193	-4.132232	0.012455	0.101556	-0.023915	-0.842285	-0.379395	0.271240	0.445416	0.487010	-0.693558	0.288796
05614		8.885891	0.105561	-4.225415	0.030967	0.099169	-0.032935	-0.846191	-0.378418	0.268066	0.445859	0.487123	-0.692993	0.289277
05615		8.751497	0.274450	-4.223576	0.064742	0.085462	-0.046862	-0.836914	-0.376465	0.265625	0.446148	0.487414	-0.692360	0.289858
05616		8.747858	0.574392	-4.176913	0.023044	0.074545	-0.036945	-0.837646	-0.372803	0.264160	0.446508	0.487553	-0.691893	0.290185
05617		8.891239	0.298468	-3.997573	-0.030748	0.059877	-0.019081	-0.837158	-0.380859	0.264648	0.446952	0.487381	-0.691707	0.290233
05618		8.912252	0.025435	-4.158238	-0.002129	0.047877	-0.031675	-0.843506	-0.380127	0.256348	0.447256	0.487501	-0.691396	0.290305
05619		8.852727	0.530268	-4.334955	0.039277	0.044585	-0.046265	-0.842285	-0.374756	0.263672	0.447514	0.487723	-0.690968	0.290552
05620		8.961510	0.946108	-4.290566	-0.068662	0.042924	-0.005346	-0.840332	-0.383301	0.262207	0.447976	0.487361	-0.691001	0.290370
05621		8.842488	0.321640	-4.300807	-0.103340	0.042034	0.012828	-0.848389	-0.377197	0.256592	0.448569	0.486845	-0.691136	0.289997
05622		8.911321	0.055093	-4.320664	-0.018188	0.050498	-0.010636	-0.844971	-0.384766	0.265381	0.448967	0.486602	-0.691006	0.290099
05623		8.842278	0.412580	-4.154146	0.001434	0.044943	-0.015681	-0.845215	-0.378906	0.258057	0.449169	0.486670	-0.690765	0.290248
05624		8.837845	0.391989	-4.203428	-0.033136	0.035499	-0.004350	-0.836914	-0.374268	0.259521	0.449489	0.486439	-0.690731	0.290220
05625		8.818544	0.230704	-4.110519	-0.034654	0.039549	-0.009340	-0.850586	-0.388916	0.256348	0.449788	0.486266	-0.690668	0.290197
05626		8.970430	0.210810	-4.005028	-0.055213	0.037043	-0.011620	-0.840576	-0.381104	0.255127	0.450275	0.486036	-0.690603	0.289980
05627		8.796871	0.052659	-4.172136	-0.023684	0.037595	-0.032683	-0.848877	-0.386963	0.257568	0.450641	0.486043	-0.690396	0.289894
05628		8.843849	0.660205	-4.042350	-0.012029	0.040856	-0.039997	-0.842285	-0.380127	0.252930	0.450995	0.486146	-0.690109	0.289855
05629		9.024927	0.681136	-4.148679	-0.107427	0.040805	-0.009866	-0.843994	-0.388672	0.253418	0.451671	0.485656	-0.690204	0.289396
05630		8.869875	0.162702	-4.368357	-0.084335	0.043102	-0.014060	-0.850098	-0.386475	0.249512	0.452288	0.485352	-0.690166	0.289033
05631		8.824096	0.384076	-4.346661	-0.036871	0.051557	-0.023845	-0.843018	-0.391846	0.250488	0.452818	0.485167	-0.689981	0.288956
05632		8.869338	0.462138	-4.284850	-0.039858	0.048641	-0.020275	-0.848877	-0.386230	0.253662	0.453315	0.485071	-0.689772	0.288836
05633		8.937866	0.347256	-4.123525	-0.056392	0.049050	-0.014033	-0.837158	-0.384521	0.247314	0.453809	0.484818	-0.689689	0.288684
05634		8.842808	0.140876	-4.045258	-0.035016	0.038052	-0.019263	-0.840576	-0.381348	0.247070	0.454197	0.484715	-0.689551	0.288576
05635		8.936247	0.203729	-3.677000	-0.022737	0.024684	-0.035475	-0.841553	-0.388428	0.251465	0.454486	0.484731	-0.689404	0.288443
05636		8.973248	0.324984	-3.500525	-0.043917	0.015852	-0.042130	-0.844727	-0.382080	0.255127	0.454795	0.484829	-0.689269	0.288115
05637		8.902560	0.186444	-4.194605	-0.019630	0.001949	-0.055807	-0.841553	-0.377441	0.251709	0.454900	0.485074	-0.689137	0.287854
05638		8.840862	0.581803	-4.425952	0.037090	-0.001748	-0.076295	-0.843750	-0.390625	0.246826	0.454821	0.485594	-0.688831	0.287834
05639		8.827642	0.888551	-4.303107	-0.019145	0.002642	-0.046332	-0.841553	-0.385254	0.250000	0.455020	0.485779	-0.688675	0.287580
05640		8.921684	0.631642	-4.012691	-0.044275	0.001560	-0.023065	-0.843506	-0.384277	0.241211	0.455202	0.485720	-0.688720	0.287284
05641		9.060268	0.563379	-3.738851	-0.032339	0.010951	-0.022279	-0.848633	-0.391357	0.246094	0.455484	0.485569	-0.688722	0.287087
05642		9.027070	0.537916	-3.639951	-0.065519	0.001485	-0.011242	-0.839111	-0.393799	0.245605	0.455789	0.485336	-0.688845	0.286700
05643		8.832049	0.070207	-4.196897	-0.014406	-0.009322	-0.028255	-0.842773	-0.392090	0.248535	0.455854	0.485512	-0.688767	0.286488
05644		8.756221	0.396798	-4.185676	0.028835	-0.018174	-0.046022	-0.843506	-0.397217	0.249756	0.455705	0.485950	-0.688578	0.286435
05645		8.787270	0.432033	-3.730293	-0.016794	-0.024714	-0.038723	-0.838623	-0.395020	0.241943	0.455692	0.486235	-0.688520	0.286112
05646		8.955161	-0.058360	-4.027090	0.009156	-0.035420	-0.052732	-0.840576	-0.394287	0.244629	0.455616	0.486657	-0.688387	0.285835
05647		8.991778	0.561756	-4.059161	0.080120	-0.041510	-0.081858	-0.839600	-0.387207	0.255615	0.455263	0.487516	-0.688011	0.285840
05648		8.964193	0.958441	-4.029609	0.018399	-0.050164	-0.058582	-0.838623	-0.389404	0.250244	0.454933	0.488033	-0.687974	0.285573
05649		8.938455	0.528596	-4.126718	-0.005143	-0.052699	-0.042174	-0.837158	-0.394287	0.240967	0.454715	0.488338	-0.688052	0.285209
05650		8.916766	0.774904	-3.829106	-0.022175	-0.057196	-0.031838	-0.835205	-0.392822	0.248291	0.454628	0.488497	-0.688189	0.284746
05651		8.993248	0.834763	-3.780218	-0.089589	-0.066116	-0.004943	-0.845947	-0.399170	0.245605	0.454623	0.488317	-0.688638	0.283974
05652		8.878257	0.513109	-4.256579	-0.068530	-0.070095	-0.004859	-0.830811	-0.387939	0.254883	0.454577	0.488184	-0.689042	0.283298
05653		8.735434	0.923888	-4.271445	-0.047488	-0.071283	0.000327	-0.839600	-0.396240	0.248047	0.454278	0.488168	-0.689460	0.282786
05654		8.825662	0.833131	-4.185297	-0.117744	-0.075781	0.035684	-0.835449	-0.400879	0.251709	0.454271	0.487646	-0.690173	0.281959
05655		8.886318	0.371618	-4.175170	-0.119507	-0.080121	0.037676	-0.836182	-0.384766	0.250977	0.454210	0.487222	-0.690860	0.281105
05656		8.887562	0.423733	-4.253247	-0.059074	-0.075456	0.022472	-0.842773	-0.385986	0.245361	0.453939	0.486923	-0.691458	0.280589
05657		8.845989	0.726565	-4.245277	-0.067310	-0.080819	0.032364	-0.845947	-0.394043	0.256836	0.453728	0.486461	-0.692149	0.280031
05658		8.869220	0.579090	-4.185220	-0.100876	-0.073405	0.040375	-0.839355	-0.395752	0.248779	0.453591	0.485966	-0.692863	0.279344
05659		8.846480	0.356136	-4.327986	-0.091467	-0.077853	0.037406	-0.839111	-0.388916	0.252686	0.453475	0.485526	-0.693523	0.278659
05660		8.696545	0.388088	-4.581620	-0.038838	-0.068646	0.018025	-0.840332	-0.390869	0.251953	0.453190	0.485344	-0.693995	0.278263
05661		8.776819	0.739153	-4.477756	-0.078351	-0.062956	0.028204	-0.837891	-0.389648	0.254395	0.453095	0.484939	-0.694569	0.277693
05662		8.867782	0.205873	-4.569443	-0.111973	-0.054074	0.034636	-0.845215	-0.392578	0.239502	0.453144	0.484376	-0.695210	0.276992
05663		8.858877	0.172681	-4.392507	-0.065985	-0.044588	0.011367	-0.840332	-0.396729	0.252197	0.453286	0.483938	-0.695630	0.276469
05664		8.798197	0.438550	-4.100674	-0.074088	-0.044026	0.002319	-0.841064	-0.388428	0.252686	0.453357	0.483706	-0.695977	0.275884
05665		8.790618	0.295083	-4.355830	-0.060769	-0.041938	-0.001884	-0.832520	-0.390625	0.257324	0.453369	0.483472	-0.696325	0.275396
05666		8.735517	0.528461	-4.496965	-0.009724	-0.045951	-0.021002	-0.844238	-0.395752	0.252441	0.453140	0.483670	-0.696446	0.275118
05667		8.688772	0.755204	-4.647805	-0.017614	-0.034130	-0.014807	-0.833008	-0.398682	0.254395	0.453089	0.483676	-0.696585	0.274840
05668		8.898822	0.686438	-4.249826	-0.045104	-0.020702	-0.003657	-0.842285	-0.396973	0.255615	0.453171	0.483599	-0.696723	0.274491
05669		8.858809	0.165683	-4.268953	-0.018765	-0.022705	-0.004803	-0.837402	-0.394531	0.259033	0.453138	0.483562	-0.696848	0.274292
05670		8.800922	0.271348	-4.214137	0.087851	-0.040329	-0.041827	-0.839111	-0.400146	0.261230	0.452609	0.484225	-0.696643	0.274517
05671		8.604487	0.746509	-3.806245	0.075370	-0.059607	-0.037159	-0.834717	-0.385742	0.256348	0.452017	0.484895	-0.696530	0.274598
05672		8.896082	0.506577	-4.056869	0.017781	-0.077467	-0.020416	-0.834717	-0.399414	0.254883	0.451528	0.485148	-0.696764	0.274360
05673		8.841547	0.449009	-4.343803	0.084436	-0.090910	-0.041768	-0.847412	-0.395020	0.265381	0.450804	0.485890	-0.696727	0.274333
05674		8.817536	0.854296	-4.133885	0.104520	-0.100213	-0.037304	-0.834473	-0.389404	0.255859	0.449863	0.486649	-0.696765	0.274436
05675		8.810771	0.806445	-4.040971	0.078091	-0.115281	-0.013770	-0.837646	-0.392334	0.259521	0.448959	0.487149	-0.697013	0.274399
05676		8.904382	1.289935	-4.076656	0.020549	-0.122200	0.013661	-0.843262	-0.392090	0.261475	0.448186	0.487303	-0.697521	0.274097
05677		8.741420	0.634286	-4.435877	0.015174	-0.116451	0.032278	-0.847656	-0.387695	0.272461	0.447436	0.487279	-0.698113	0.273858
05678		8.843711	0.373090	-4.566973	0.059223	-0.121442	0.033037	-0.833984	-0.396973	0.266846	0.446385	0.487454	-0.698649	0.273895
05679		8.726083	0.093350	-4.677588	0.130759	-0.115394	0.004948	-0.836670	-0.394775	0.263184	0.445220	0.488133	-0.698795	0.274209
05680		8.707115	0.546040	-4.769151	0.110821	-0.112499	0.005220	-0.835205	-0.392090	0.279297	0.444208	0.488643	-0.699004	0.274410
05681		8.624788	0.102493	-5.059137	0.066686	-0.098870	-0.002361	-0.828613	-0.383545	0.274170	0.443333	0.489121	-0.699219	0.274425
05682		8.557994	0.143920	-4.570449	0.083519	-0.083131	-0.023320	-0.833496	-0.380127	0.282959	0.442551	0.489679	-0.699281	0.274535
05683		8.838834	0.119282	-4.424941	0.060486	-0.075159	-0.031074	-0.835449	-0.386475	0.274902	0.441859	0.490188	-0.699356	0.274549
05684		8.720075	-0.020140	-4.647515	0.153086	-0.065596	-0.075750	-0.835205	-0.387207	0.281738	0.441063	0.491208	-0.698995	0.274926
05685		8.711566	0.730044	-4.778307	0.201808	-0.064991	-0.085006	-0.837402	-0.390869	0.290283	0.440046	0.492505	-0.698470	0.275568
05686		8.608284	0.757527	-4.658406	0.161404	-0.060735	-0.062387	-0.841797	-0.387451	0.282227	0.439125	0.493570	-0.698096	0.276078
05687		8.621838	0.824722	-4.221469	0.085955	-0.053129	-0.037155	-0.837158	-0.382568	0.285400	0.438592	0.494048	-0.698023	0.276257
05688		8.677013	0.258366	-4.771065	0.069305	-0.057277	-0.030180	-0.835205	-0.384521	0.288330	0.438043	0.494460	-0.698029	0.276374
05689		8.666222	0.546747	-4.877307	0.155750	-0.049111	-0.050622	-0.823975	-0.386719	0.284180	0.437219	0.495326	-0.697704	0.276950
05690		8.783002	1.058939	-4.483869	0.098619	-0.041616	-0.022018	-0.827881	-0.382324	0.289551	0.436648	0.495827	-0.697569	0.277294
05691		8.813424	0.420121	-4.349181	0.035423	-0.050147	0.010975	-0.825928	-0.387207	0.295166	0.436166	0.495922	-0.697764	0.277390
05692		8.741826	0.200547	-4.527050	0.085208	-0.045340	-0.012143	-0.826904	-0.386963	0.287842	0.435532	0.496404	-0.697692	0.277704
05693		8.610634	0.467589	-4.675092	0.093262	-0.041165	-0.018987	-0.832764	-0.393066	0.290771	0.434988	0.496851	-0.697586	0.278025
05694		8.516045	0.342869	-4.782135	0.048068	-0.040973	-0.015748	-0.837891	-0.391113	0.291504	0.434645	0.497117	-0.697592	0.278071
05695		8.582232	0.292800	-4.641514	0.016692	-0.039380	-0.014298	-0.831543	-0.389404	0.292725	0.434441	0.497213	-0.697696	0.277957
05696		8.667464	0.148427	-4.799051	0.058609	-0.031398	-0.032826	-0.830811	-0.385986	0.293213	0.434126	0.497591	-0.697580	0.278063
05697		8.659557	0.644015	-4.511863	0.060476	-0.036275	-0.035262	-0.829590	-0.391846	0.283203	0.433768	0.497992	-0.697475	0.278170
05698		8.681589	0.641127	-4.516040	0.022603	-0.034576	-0.023664	-0.830322	-0.390869	0.289062	0.433671	0.498098	-0.697514	0.278031
05699		8.720291	0.670514	-4.567999	0.013177	-0.033307	-0.008061	-0.833008	-0.388672	0.295410	0.433531	0.498122	-0.697626	0.277926
05700		8.713495	0.637377	-4.597080	-0.012381	-0.037143	0.001881	-0.822266	-0.389404	0.290283	0.433395	0.498042	-0.697846	0.277730
05701		8.679546	0.443864	-4.756065	0.002659	-0.033127	0.007189	-0.832764	-0.386230	0.295166	0.433239	0.497990	-0.698022	0.277624
05702		8.630425	0.423520	-4.744452	0.019548	-0.028491	0.004835	-0.827148	-0.388672	0.290039	0.433012	0.497977	-0.698153	0.277671
05703		8.636296	0.398036	-4.645853	0.015027	-0.027598	0.008880	-0.835449	-0.393555	0.299561	0.432850	0.497904	-0.698307	0.277667
05704		8.605209	0.349577	-4.561647	0.022577	-0.022615	0.000910	-0.824707	-0.386963	0.296631	0.432663	0.497938	-0.698385	0.277701
05705		8.611731	0.476568	-4.658088	0.024850	-0.025813	0.001500	-0.830811	-0.381348	0.294678	0.432424	0.498013	-0.698454	0.277765
05706		8.573232	0.350406	-4.841648	0.046273	-0.030261	-0.003202	-0.825439	-0.381104	0.296875	0.432089	0.498141	-0.698496	0.277953
05707		8.636875	0.441809	-4.667559	0.049200	-0.030020	-0.003477	-0.827881	-0.382812	0.294678	0.431719	0.498327	-0.698510	0.278160
05708		8.680953	0.202912	-4.636017	0.065380	-0.024611	-0.008525	-0.830322	-0.381592	0.297363	0.431366	0.498544	-0.698462	0.278439
05709		8.578473	0.363098	-4.674675	0.111175	-0.023412	-0.025418	-0.836914	-0.390137	0.302002	0.430850	0.499028	-0.698232	0.278947
05710		8.667928	0.658489	-4.524689	0.087722	-0.026492	-0.014584	-0.830811	-0.391357	0.296875	0.430413	0.499366	-0.698121	0.279295
05711		8.582085	0.228548	-4.723470	0.068475	-0.026697	-0.009144	-0.834717	-0.381836	0.304688	0.430092	0.499576	-0.698083	0.279507
05712		8.565968	0.166289	-4.805828	0.096117	-0.028640	-0.022075	-0.821045	-0.380127	0.302734	0.429571	0.500025	-0.697911	0.279935
05713		8.544461	0.439810	-4.749132	0.084744	-0.027553	-0.028615	-0.832520	-0.385254	0.306885	0.429110	0.500517	-0.697709	0.280266
05714		8.639886	0.374424	-4.679288	0.044010	-0.026356	-0.018175	-0.828369	-0.382324	0.307129	0.428824	0.500759	-0.697666	0.280381
05715		8.656531	0.289475	-4.801908	0.053271	-0.014156	-0.023240	-0.829834	-0.383545	0.308105	0.428562	0.501058	-0.697523	0.280602
05716		8.634667	0.489548	-4.780175	0.075110	-0.005645	-0.026985	-0.825195	-0.385498	0.299561	0.428273	0.501430	-0.697287	0.280964
05717		8.735467	0.517306	-4.658826	0.036267	-0.005489	-0.011815	-0.825195	-0.383057	0.303955	0.428193	0.501505	-0.697230	0.281095
05718		8.687277	0.289016	-4.761840	0.023837	-0.005812	-0.008014	-0.823486	-0.386475	0.307617	0.428105	0.501561	-0.697199	0.281204
05719		8.562033	0.412811	-4.792836	0.031328	-0.004978	-0.012485	-0.829346	-0.379150	0.307861	0.427986	0.501707	-0.697119	0.281325
05720		8.560536	0.485183	-4.715965	0.014812	-0.005414	-0.005111	-0.825439	-0.383057	0.309326	0.427888	0.501734	-0.697111	0.281447
05721		8.593385	0.354542	-4.588672	0.005230	-0.006976	-0.001454	-0.823730	-0.380127	0.303711	0.427815	0.501735	-0.697139	0.281483
05722		8.642520	0.435435	-4.643509	0.024126	-0.005544	-0.004868	-0.826416	-0.382080	0.302979	0.427712	0.501778	-0.697116	0.281622
05723		8.585430	0.599456	-4.709185	0.010423	-0.003174	0.004141	-0.825928	-0.372070	0.299072	0.427682	0.501686	-0.697167	0.281704
05724		8.579516	0.413101	-4.660532	-0.014706	-0.008350	0.017501	-0.828857	-0.382080	0.302490	0.427677	0.501425	-0.697345	0.281738
05725		8.624765	0.175652	-4.602469	-0.005570	-0.011308	0.012680	-0.834473	-0.378906	0.310059	0.427658	0.501227	-0.697507	0.281717
05726		8.658894	0.299786	-4.573191	0.015067	-0.018943	0.003508	-0.828857	-0.380371	0.313965	0.427458	0.501233	-0.697584	0.281820
05727		8.587903	0.287088	-4.768022	0.030570	-0.018133	-0.004350	-0.829834	-0.383301	0.303711	0.427184	0.501400	-0.697565	0.281982
05728		8.667959	0.562748	-4.674611	0.007473	-0.021226	0.008125	-0.830078	-0.386963	0.291748	0.427072	0.501294	-0.697718	0.281964
05729		8.647030	0.378357	-4.867673	0.006297	-0.016948	0.007853	-0.830078	-0.390381	0.299316	0.427116	0.501036	-0.697917	0.281863
05730		8.606978	0.453941	-4.700929	0.014033	-0.018761	0.013708	-0.832520	-0.380371	0.309814	0.427060	0.500839	-0.698112	0.281815
05731		8.639035	0.262342	-4.766342	0.012344	-0.017768	0.015904	-0.826416	-0.378662	0.312988	0.426871	0.500755	-0.698245	0.281920
05732		8.545811	0.253888	-4.836981	0.035377	-0.017473	0.005264	-0.824219	-0.378906	0.305420	0.426570	0.500879	-0.698251	0.282141
05733		8.593717	0.463965	-4.624888	0.005846	-0.014716	0.011965	-0.828369	-0.375000	0.300537	0.426459	0.500777	-0.698376	0.282179
05734		8.598329	0.141614	-4.731306	-0.005281	-0.017758	0.010583	-0.834473	-0.379883	0.307861	0.426410	0.500596	-0.698546	0.282156
05735		8.576426	0.163630	-4.764588	0.043016	-0.016322	-0.008333	-0.824219	-0.379639	0.305176	0.426191	0.500716	-0.698519	0.282340
05736		8.531354	0.414528	-4.815465	0.038982	-0.017648	-0.008380	-0.822754	-0.376465	0.315674	0.425989	0.500842	-0.698501	0.282466
05737		8.609864	0.360280	-4.681599	0.015731	-0.012693	0.000763	-0.826660	-0.387695	0.319092	0.425785	0.500946	-0.698501	0.282587
05738		8.648679	0.310758	-4.601646	-0.002443	-0.018878	0.005112	-0.834717	-0.376953	0.312500	0.425661	0.500934	-0.698628	0.282485
05739		8.623225	0.197373	-4.841629	0.036349	-0.017520	-0.010291	-0.826904	-0.372070	0.308594	0.425427	0.501088	-0.698589	0.282659
05740		8.573809	0.428997	-4.862773	0.036051	-0.011032	-0.008182	-0.828369	-0.379883	0.312744	0.425222	0.501227	-0.698523	0.282885
05741		8.591919	0.297880	-4.788613	0.006729	-0.012294	0.003688	-0.824707	-0.373535	0.312256	0.425122	0.501190	-0.698601	0.282908
05742		8.637299	0.180549	-4.701560	0.019528	-0.010048	-0.007819	-0.829346	-0.377197	0.308105	0.424972	0.501299	-0.698563	0.283033
05743		8.580108	0.286137	-4.792871	0.030017	-0.007511	-0.012746	-0.826172	-0.380127	0.309814	0.424871	0.501384	-0.698512	0.283158
05744		8.563540	0.418476	-4.745340	0.007201	-0.011630	-0.007604	-0.824951	-0.362061	0.309326	0.424829	0.501384	-0.698554	0.283120
05745		8.614329	0.190103	-4.789668	-0.001628	-0.011030	-0.008443	-0.835938	-0.376709	0.312012	0.424727	0.501443	-0.698531	0.283226
05746		8.600885	0.208160	-4.832242	0.021704	-0.007659	-0.017833	-0.818359	-0.380615	0.305176	0.424653	0.501535	-0.698475	0.283312
05747		8.576044	0.392882	-4.802469	0.009112	-0.006810	-0.017280	-0.832520	-0.383789	0.312988	0.424685	0.501565	-0.698467	0.283227
05748		8.591594	0.261783	-4.664958	-0.017697	-0.001430	-0.010494	-0.829834	-0.370850	0.310791	0.424823	0.501449	-0.698536	0.283057
05749		8.613362	0.198423	-4.813768	0.001844	-0.004713	-0.013068	-0.830078	-0.383301	0.307373	0.424801	0.501485	-0.698501	0.283114
05750		8.569279	0.393633	-4.887652	0.030328	-0.000119	-0.025714	-0.824463	-0.382812	0.310547	0.424817	0.501582	-0.698405	0.283153
05751		8.566506	0.466548	-4.768817	-0.017149	0.004544	-0.009489	-0.829346	-0.379395	0.308594	0.424984	0.501464	-0.698450	0.283003
05752		8.597995	0.158282	-4.630166	-0.034051	-0.000349	-0.008548	-0.825439	-0.382080	0.312012	0.425190	0.501274	-0.698551	0.282781
05753		8.574316	0.137769	-4.757444	0.017152	0.002913	-0.027967	-0.823486	-0.375000	0.306885	0.425226	0.501410	-0.698431	0.282782
05754		8.545477	0.424423	-4.855189	0.025228	0.004378	-0.031512	-0.819580	-0.378174	0.315674	0.425239	0.501592	-0.698251	0.282883
05755		8.574455	0.397948	-4.834007	-0.018690	0.005929	-0.021736	-0.821533	-0.379883	0.304199	0.425363	0.501642	-0.698186	0.282767
05756		8.572242	0.234861	-4.770622	-0.017411	0.009961	-0.021688	-0.828369	-0.376953	0.303223	0.425607	0.501558	-0.698161	0.282610
05757		8.565798	0.261616	-4.726694	-0.005923	0.008132	-0.027910	-0.820557	-0.376465	0.312256	0.425803	0.501541	-0.698082	0.282540
05758		8.587368	0.318202	-4.824907	0.005234	0.009985	-0.030172	-0.824219	-0.381592	0.307617	0.425878	0.501702	-0.697909	0.282572
05759		8.569265	0.466705	-4.680161	-0.017024	0.011787	-0.024025	-0.831055	-0.378418	0.304932	0.426112	0.501653	-0.697858	0.282430
05760		8.625014	0.350175	-4.786925	-0.027633	0.011892	-0.022527	-0.822510	-0.382324	0.312988	0.426396	0.501529	-0.697835	0.282278
05761		8.592540	0.380293	-4.722870	-0.035008	0.012508	-0.018176	-0.824951	-0.375488	0.304443	0.426645	0.501448	-0.697822	0.282080
05762		8.580395	0.326644	-4.631963	-0.035737	0.010440	-0.018989	-0.833740	-0.381104	0.319092	0.426912	0.501328	-0.697809	0.281920
05763		8.669050	0.379339	-4.716221	-0.010116	0.006600	-0.024185	-0.825439	-0.379150	0.305908	0.426987	0.501422	-0.697704	0.281899
05764		8.631456	0.509038	-4.781717	-0.015774	0.008923	-0.018547	-0.822510	-0.379395	0.308350	0.427164	0.501373	-0.697662	0.281823
05765		8.622336	0.397494	-4.757053	-0.026287	0.010380	-0.011856	-0.822754	-0.387207	0.310303	0.427353	0.501282	-0.697653	0.281721
05766		8.643950	0.361916	-4.590366	-0.035659	0.011711	-0.008456	-0.826660	-0.379883	0.300293	0.427606	0.501109	-0.697710	0.281502
05767		8.614156	0.364165	-4.673627	-0.014846	0.009810	-0.014445	-0.822754	-0.383057	0.309570	0.427813	0.500988	-0.697700	0.281428
05768		8.603869	0.492005	-4.779166	-0.016059	0.004444	-0.012790	-0.833496	-0.387695	0.305664	0.427926	0.500956	-0.697692	0.281332
05769		8.568346	0.442247	-4.732116	-0.035320	0.000999	-0.001673	-0.826904	-0.377197	0.314941	0.428143	0.500696	-0.697840	0.281100
05770		8.574257	0.345775	-4.623750	-0.050342	0.000731	0.000250	-0.827148	-0.381348	0.305664	0.428272	0.500557	-0.697922	0.280947
05771		8.596882	0.359052	-4.715376	-0.033472	-0.003861	-0.004076	-0.829834	-0.389404	0.305664	0.428407	0.500399	-0.698026	0.280765
05772		8.594818	0.496369	-4.799917	-0.032828	-0.000436	-0.004969	-0.826904	-0.383301	0.300537	0.428608	0.500184	-0.698160	0.280508
05773		8.627449	0.486974	-4.622261	-0.045506	-0.005327	0.004606	-0.824219	-0.381836	0.296875	0.428808	0.499881	-0.698362	0.280238
05774		8.594983	0.292030	-4.752780	-0.022482	-0.005038	-0.000711	-0.819336	-0.384521	0.301758	0.428940	0.499678	-0.698490	0.280080
05775		8.609162	0.383943	-4.777449	0.003017	-0.004997	-0.005699	-0.826416	-0.385254	0.304688	0.428946	0.499644	-0.698528	0.280034
05776		8.599762	0.405756	-4.880661	0.016041	0.002832	-0.008634	-0.820312	-0.375977	0.305176	0.428943	0.499655	-0.698494	0.280106
05777		8.575865	0.515566	-4.925527	0.015887	0.009423	-0.004934	-0.824463	-0.380615	0.306396	0.428904	0.499717	-0.698387	0.280322
05778		8.591609	0.424275	-4.794265	-0.010788	0.013525	0.005125	-0.833740	-0.383545	0.304443	0.429001	0.499580	-0.698398	0.280390
05779		8.597114	0.262357	-4.668348	0.000430	0.011349	0.001100	-0.830078	-0.380127	0.310547	0.429090	0.499443	-0.698408	0.280473
05780		8.630672	0.296608	-4.703824	0.019025	0.015411	-0.007337	-0.822510	-0.382324	0.300049	0.429073	0.499509	-0.698274	0.280714
05781		8.595881	0.455308	-4.890020	0.027834	0.018973	-0.010045	-0.827637	-0.384033	0.299561	0.429129	0.499523	-0.698149	0.280915
05782		8.579949	0.571195	-4.869373	-0.008814	0.026472	0.005930	-0.829102	-0.376465	0.305420	0.429362	0.499263	-0.698167	0.280977
05783		8.640821	0.436094	-4.715097	-0.040114	0.031306	0.018453	-0.827393	-0.371826	0.308594	0.429636	0.498915	-0.698218	0.281049
05784		8.618737	0.304897	-4.606757	-0.041005	0.029125	0.016060	-0.829102	-0.386230	0.300293	0.429849	0.498656	-0.698225	0.281166
05785		8.641059	0.266499	-4.603816	-0.029050	0.031843	0.011021	-0.830078	-0.382568	0.302979	0.430182	0.498287	-0.698297	0.281130
05786		8.625922	0.370221	-4.800927	0.006470	0.031281	-0.001697	-0.831543	-0.380371	0.302002	0.430349	0.498175	-0.698200	0.281316
05787		8.623750	0.694050	-4.752332	-0.002722	0.038119	0.010248	-0.821777	-0.393799	0.301758	0.430560	0.497948	-0.698140	0.281544
05788		8.684271	0.601693	-4.625085	-0.036776	0.034554	0.031696	-0.827148	-0.382080	0.299561	0.430901	0.497432	-0.698336	0.281448
05789		8.687151	0.434024	-4.600410	-0.028006	0.035190	0.036190	-0.833740	-0.377441	0.304688	0.431153	0.496963	-0.698467	0.281566
05790		8.621534	0.509250	-4.697847	-0.006674	0.033619	0.034973	-0.825684	-0.385498	0.301270	0.431251	0.496644	-0.698501	0.281892
05791		8.594113	0.443466	-4.782477	-0.004918	0.034001	0.037981	-0.834717	-0.389893	0.298096	0.431396	0.496258	-0.698603	0.282100
05792		8.628302	0.380416	-4.716811	-0.025956	0.041256	0.049323	-0.828857	-0.377930	0.301270	0.431699	0.495629	-0.698820	0.282202
05793		8.623813	0.232405	-4.648712	-0.033913	0.042888	0.047215	-0.829590	-0.374023	0.293457	0.431952	0.495109	-0.698953	0.282401
05794		8.616287	0.276553	-4.618888	-0.020576	0.041544	0.038712	-0.826416	-0.384033	0.298340	0.432194	0.494644	-0.699032	0.282648
05795		8.658626	0.358264	-4.614442	-0.029558	0.040732	0.037963	-0.835449	-0.382080	0.303223	0.432482	0.494151	-0.699171	0.282727
05796		8.657184	0.395462	-4.720221	-0.028587	0.040388	0.038441	-0.832275	-0.376221	0.295166	0.432724	0.493695	-0.699283	0.282875
05797		8.689128	0.525996	-4.691315	-0.056710	0.047503	0.048248	-0.833984	-0.374268	0.293457	0.433119	0.493040	-0.699472	0.282947
05798		8.694227	0.330255	-4.625121	-0.072885	0.054492	0.054904	-0.830078	-0.371338	0.296387	0.433604	0.492270	-0.699695	0.282993
05799		8.691668	0.245490	-4.571828	-0.053263	0.051147	0.052442	-0.829102	-0.378418	0.290039	0.433946	0.491659	-0.699841	0.283168
05800		8.699862	0.275553	-4.685862	-0.013362	0.057336	0.043212	-0.831055	-0.376953	0.290283	0.434259	0.491143	-0.699896	0.283449
05801		8.652326	0.363918	-4.548386	0.001164	0.065253	0.040261	-0.837158	-0.373291	0.288574	0.434554	0.490689	-0.699867	0.283855
05802		8.645957	0.316973	-4.606079	0.002038	0.056571	0.040908	-0.843506	-0.370117	0.291504	0.434789	0.490249	-0.699858	0.284277
05803		8.626902	0.123508	-4.707977	0.036150	0.055501	0.026968	-0.833496	-0.376709	0.289551	0.434879	0.490046	-0.699692	0.284899
05804		8.681196	0.286701	-4.371527	0.031621	0.046845	0.027533	-0.835449	-0.375977	0.295166	0.434970	0.489822	-0.699608	0.285349
05805		8.745639	0.165840	-4.411839	0.009355	0.031184	0.033345	-0.832520	-0.369873	0.282715	0.435005	0.489571	-0.699636	0.285658
05806		8.704470	0.086014	-4.728701	0.046450	0.031760	0.012139	-0.836914	-0.370117	0.294189	0.434995	0.489510	-0.699499	0.286113
05807		8.667116	0.395476	-4.641074	0.039488	0.031594	0.017516	-0.841553	-0.378418	0.285645	0.434927	0.489478	-0.699366	0.286596
05808		8.685557	0.200374	-4.566464	-0.012947	0.029412	0.026792	-0.840088	-0.367676	0.289795	0.435144	0.489077	-0.699479	0.286673
05809		8.668133	-0.147519	-4.464433	-0.003654	0.030671	0.013152	-0.838379	-0.375244	0.289062	0.435278	0.488884	-0.699442	0.286890
05810		8.714442	-0.044951	-4.615783	0.034724	0.027012	-0.013087	-0.832764	-0.375732	0.288086	0.435334	0.488957	-0.699258	0.287130
05811		8.672105	0.160533	-4.735781	0.054786	0.022668	-0.028190	-0.837158	-0.374023	0.286865	0.435321	0.489208	-0.698982	0.287395
05812		8.688340	0.383832	-4.527181	0.026264	0.029549	-0.016348	-0.831299	-0.366211	0.295166	0.435440	0.489255	-0.698795	0.287587
05813		8.759200	0.173271	-4.522652	0.017914	0.029365	-0.016189	-0.836426	-0.381104	0.285400	0.435490	0.489396	-0.698564	0.287834
05814		8.716386	0.172541	-4.490776	0.052729	0.030368	-0.029194	-0.834961	-0.372803	0.291992	0.435574	0.489578	-0.698290	0.288062
05815		8.684478	0.346000	-4.455646	0.054126	0.036035	-0.034582	-0.843750	-0.366699	0.293213	0.435613	0.489877	-0.697913	0.288408
05816		8.743490	0.358803	-4.622426	0.035507	0.036419	-0.028335	-0.833740	-0.375000	0.291748	0.435686	0.490083	-0.697579	0.288756
05817		8.707630	0.348795	-4.704203	0.027615	0.040813	-0.020103	-0.836914	-0.371826	0.283447	0.435833	0.490186	-0.697314	0.288999
05818		8.690411	0.270392	-4.579541	0.013823	0.055808	-0.014988	-0.841553	-0.380371	0.279053	0.436150	0.490117	-0.697059	0.289253
05819		8.774697	0.249775	-4.534801	0.024934	0.061706	-0.015313	-0.837646	-0.366943	0.287598	0.436523	0.490004	-0.696799	0.289509
05820		8.861894	0.489010	-4.189927	0.022234	0.061759	-0.011913	-0.835938	-0.375732	0.279785	0.436774	0.489994	-0.696480	0.289914
05821		8.768598	0.281683	-4.360360	0.021476	0.052682	-0.007336	-0.846680	-0.378418	0.283691	0.437048	0.489895	-0.696266	0.290183
05822		8.715076	0.203036	-4.561415	0.051336	0.045935	-0.013846	-0.840332	-0.374756	0.282959	0.437169	0.489955	-0.695981	0.290583
05823		8.749000	0.609504	-4.326751	0.010659	0.044392	-0.000467	-0.843750	-0.373779	0.285156	0.437396	0.489820	-0.695839	0.290808
05824		8.798117	0.302499	-4.212475	-0.052864	0.037377	0.019386	-0.839600	-0.371094	0.284180	0.437774	0.489371	-0.695949	0.290732
05825		8.797179	-0.076436	-4.389611	-0.002199	0.035338	0.005587	-0.843750	-0.374512	0.284424	0.437953	0.489212	-0.695875	0.290906
05826		8.636327	0.434214	-4.551487	0.048822	0.033652	-0.010383	-0.832031	-0.368164	0.280029	0.437967	0.489318	-0.695632	0.291288
05827		8.737556	0.680435	-4.646358	-0.016674	0.032978	0.016986	-0.839600	-0.376953	0.276123	0.438166	0.489051	-0.695644	0.291409
05828		8.760154	0.105915	-4.636873	-0.062346	0.034690	0.033053	-0.837402	-0.375000	0.281982	0.438588	0.488448	-0.695867	0.291253
05829		8.783599	-0.197360	-4.525322	-0.016823	0.041243	0.008307	-0.834229	-0.369385	0.282715	0.438871	0.488196	-0.695835	0.291325
05830		8.799029	0.051151	-4.604923	0.008092	0.046032	-0.009405	-0.845947	-0.372559	0.283936	0.439088	0.488163	-0.695630	0.291543
05831		8.775112	0.221022	-4.453227	-0.015658	0.049471	-0.009001	-0.845459	-0.369385	0.284180	0.439434	0.488003	-0.695484	0.291637
05832		8.762093	0.195964	-4.292643	-0.047417	0.054448	-0.005487	-0.848877	-0.367676	0.277832	0.439909	0.487712	-0.695400	0.291608
05833		8.786912	-0.050968	-4.509033	-0.020841	0.052583	-0.021645	-0.841553	-0.370117	0.273438	0.440332	0.487579	-0.695198	0.291676
05834		8.758559	0.172962	-4.520179	-0.000787	0.052363	-0.034795	-0.839111	-0.375977	0.272217	0.440726	0.487587	-0.694902	0.291771
05835		8.747559	0.284433	-4.444080	-0.020569	0.048747	-0.034110	-0.832520	-0.370361	0.271484	0.441199	0.487518	-0.694684	0.291690
05836		8.799407	0.177934	-4.409315	-0.024517	0.044708	-0.030816	-0.845215	-0.371094	0.276123	0.441627	0.487458	-0.694485	0.291619
05837		8.784573	0.183281	-4.289271	-0.009913	0.051483	-0.037236	-0.839111	-0.369385	0.276611	0.442030	0.487472	-0.694198	0.291668
05838		8.768343	0.395557	-4.175092	-0.010096	0.048536	-0.036970	-0.842773	-0.385010	0.279053	0.442395	0.487519	-0.693914	0.291713
05839		8.869669	0.438670	-4.343518	-0.025784	0.047751	-0.029407	-0.842041	-0.377441	0.272949	0.442842	0.487448	-0.693730	0.291590
05840		8.760903	0.293233	-4.504280	0.003952	0.049179	-0.032158	-0.847900	-0.366943	0.269531	0.443183	0.487483	-0.693448	0.291684
05841		8.696222	0.512316	-4.415287	0.003982	0.047846	-0.023537	-0.839111	-0.375732	0.265137	0.443477	0.487457	-0.693192	0.291887
05842		8.808993	0.444154	-4.121059	-0.039668	0.043265	-0.006807	-0.843018	-0.369873	0.269531	0.443926	0.487173	-0.693143	0.291797
05843		8.939026	0.184207	-3.881395	-0.050670	0.037485	-0.005018	-0.842529	-0.375732	0.271729	0.444334	0.486881	-0.693134	0.291685
05844		8.924861	0.169927	-3.921732	-0.009485	0.019761	-0.018047	-0.843994	-0.376465	0.279297	0.444505	0.486872	-0.693042	0.291656
05845		8.859117	0.361302	-4.287864	0.018329	0.013488	-0.028465	-0.841064	-0.384766	0.273438	0.444511	0.487084	-0.692855	0.291738
05846		8.740892	0.412492	-4.503230	0.020666	0.013118	-0.022745	-0.843994	-0.375000	0.273193	0.444548	0.487241	-0.692701	0.291787
05847		8.804043	0.532159	-4.225027	-0.010046	0.017777	-0.003491	-0.836670	-0.378418	0.264160	0.444662	0.487157	-0.692675	0.291815
05848		8.881237	0.380711	-3.997038	-0.032942	0.005159	0.008192	-0.845703	-0.382080	0.272217	0.444820	0.486924	-0.692803	0.291659
05849		8.869467	0.505114	-3.936047	-0.011296	0.003750	0.003643	-0.843994	-0.380615	0.272217	0.444867	0.486820	-0.692867	0.291608
05850		8.910324	0.541947	-4.138202	-0.047901	-0.010442	0.016921	-0.841797	-0.381104	0.271240	0.444941	0.486545	-0.693123	0.291345
05851		8.792868	0.147844	-4.285871	-0.028820	-0.015944	0.013955	-0.839844	-0.378418	0.270264	0.444918	0.486373	-0.693340	0.291152
05852		8.787928	0.353196	-4.272866	-0.007253	-0.014633	0.005986	-0.848145	-0.381836	0.273438	0.444831	0.486325	-0.693464	0.291070
05853		8.872234	0.601006	-3.934407	-0.082602	-0.021091	0.034567	-0.841064	-0.374512	0.263184	0.444943	0.485840	-0.693917	0.290628
05854		8.848331	0.080927	-4.116076	-0.079955	-0.032340	0.033198	-0.841064	-0.379150	0.263672	0.445009	0.485369	-0.694396	0.290168
05855		8.823169	0.469039	-4.343486	-0.014294	-0.037433	0.015257	-0.840576	-0.376465	0.270996	0.444834	0.485264	-0.694661	0.289979
05856		8.764013	0.795382	-4.391401	-0.042947	-0.041771	0.037278	-0.846436	-0.375000	0.260986	0.444652	0.484968	-0.695098	0.289706
05857		8.914164	0.422299	-4.056551	-0.111857	-0.046815	0.068025	-0.843262	-0.382080	0.264404	0.444702	0.484186	-0.695851	0.289129
05858		8.922001	0.076145	-3.923275	-0.079141	-0.053612	0.058304	-0.841553	-0.377197	0.270996	0.444602	0.483629	-0.696504	0.288642
05859		8.832317	0.257297	-4.394371	-0.008793	-0.056922	0.041368	-0.843506	-0.370850	0.270752	0.444193	0.483470	-0.696929	0.288511
05860		8.779752	0.808990	-4.497125	-0.034253	-0.059187	0.059313	-0.849365	-0.364502	0.270752	0.443822	0.483102	-0.697501	0.288318
05861		8.752247	0.481842	-4.534056	-0.106644	-0.058986	0.087352	-0.847168	-0.371582	0.262207	0.443670	0.482277	-0.698367	0.287836
05862		8.822702	-0.068372	-4.434662	-0.088973	-0.051846	0.082317	-0.843262	-0.367188	0.277832	0.443562	0.481507	-0.699136	0.287424
05863		8.751136	-0.113098	-4.431380	-0.047810	-0.054416	0.061979	-0.852051	-0.373535	0.275146	0.443231	0.481088	-0.699733	0.287185
05864		8.606863	-0.027280	-4.757194	-0.004390	-0.046434	0.035315	-0.850342	-0.366211	0.278320	0.442878	0.480935	-0.700091	0.287110
05865		8.606713	0.223957	-4.814110	-0.055138	-0.040681	0.038073	-0.847412	-0.362061	0.270996	0.442724	0.480570	-0.700567	0.286797
05866		8.677735	-0.129108	-4.978606	-0.104147	-0.021882	0.033332	-0.848389	-0.377197	0.273438	0.442913	0.479977	-0.701073	0.286263
05867		8.848864	-0.184256	-4.552393	-0.100274	-0.001025	0.014434	-0.842041	-0.366211	0.268799	0.443277	0.479493	-0.701400	0.285709
05868		8.770478	0.008321	-4.354839	-0.089497	0.000293	-0.000818	-0.838867	-0.373047	0.272949	0.443629	0.479117	-0.701642	0.285201
05869		8.715829	0.003922	-4.455251	-0.045999	-0.005825	-0.022192	-0.840820	-0.365479	0.261963	0.443810	0.479082	-0.701705	0.284820
05870		8.726696	0.420412	-4.489555	-0.033261	-0.001286	-0.027729	-0.850098	-0.368652	0.260498	0.444017	0.479052	-0.701710	0.284537
05871		8.694473	0.246811	-4.467850	-0.044426	-0.005586	-0.020734	-0.850830	-0.375977	0.273438	0.444247	0.478922	-0.701791	0.284196
05872		8.800943	0.124487	-4.345400	-0.009709	-0.003990	-0.027683	-0.852295	-0.368408	0.273926	0.444317	0.479019	-0.701753	0.284019
05873		8.812977	0.229941	-4.064376	0.031706	-0.013700	-0.041203	-0.843018	-0.372314	0.269287	0.444177	0.479353	-0.701612	0.284020
05874		8.882529	0.601529	-4.089572	0.055770	-0.032596	-0.039995	-0.847168	-0.367920	0.269287	0.443852	0.479829	-0.701470	0.284075
05875		8.813972	0.654304	-4.368339	0.051315	-0.042733	-0.024021	-0.844482	-0.373779	0.269531	0.443446	0.480193	-0.701453	0.284139
05876		8.743922	0.496710	-4.291758	0.017367	-0.053500	0.001130	-0.853027	-0.375732	0.273193	0.443067	0.480328	-0.701642	0.284036
05877		8.801090	-0.020075	-4.415019	0.040642	-0.056377	-0.002005	-0.845215	-0.367920	0.270020	0.442584	0.480563	-0.701782	0.284045
05878		8.775271	0.160985	-4.178714	0.116366	-0.056104	-0.025851	-0.844971	-0.364014	0.273193	0.441852	0.481205	-0.701648	0.284427
05879		8.790011	0.620118	-4.228003	0.111591	-0.056571	-0.021729	-0.846191	-0.362305	0.275635	0.441110	0.481804	-0.701551	0.284803
05880		8.692648	0.446214	-4.646167	0.069806	-0.058533	-0.004009	-0.840332	-0.375488	0.270996	0.440477	0.482144	-0.701637	0.284996
05881		8.618279	0.311108	-4.817880	0.031580	-0.052793	0.007539	-0.844238	-0.369873	0.274658	0.440054	0.482294	-0.701800	0.284993
05882		8.679710	-0.010037	-4.659010	0.012687	-0.042684	0.003429	-0.835205	-0.370605	0.281738	0.439756	0.482357	-0.701974	0.284920
05883		8.793084	-0.233041	-4.518358	0.042795	-0.048137	-0.010196	-0.846436	-0.366455	0.281006	0.439300	0.482675	-0.702032	0.284942
05884		8.894847	0.093961	-4.519248	0.133978	-0.037245	-0.043752	-0.849854	-0.369385	0.278564	0.438630	0.483445	-0.701720	0.285435
05885		8.849442	0.744018	-4.234943	0.100399	-0.037961	-0.024025	-0.841797	-0.364990	0.285645	0.438072	0.483962	-0.701565	0.285798
05886		8.662649	0.283693	-4.772790	0.075300	-0.037078	-0.011470	-0.835938	-0.369385	0.283203	0.437547	0.484344	-0.701520	0.286066
05887		8.551562	0.538367	-4.838741	0.081177	-0.025507	-0.008627	-0.842041	-0.371582	0.287354	0.437078	0.484722	-0.701410	0.286411
05888		8.614761	0.497681	-4.621505	0.015773	-0.024247	0.015105	-0.843018	-0.360596	0.287354	0.436821	0.484717	-0.701553	0.286462
05889		8.822976	0.146635	-4.364282	-0.013895	-0.018473	0.026577	-0.846191	-0.370117	0.290039	0.436672	0.484487	-0.701819	0.286426
05890		8.810990	0.102675	-4.433381	0.025733	-0.015460	0.009321	-0.849854	-0.364990	0.280273	0.436432	0.484524	-0.701891	0.286552
05891		8.724999	0.457230	-4.352057	0.015524	-0.017584	0.018829	-0.845459	-0.361572	0.282715	0.436239	0.484416	-0.702041	0.286660
05892		8.685902	0.178207	-4.462831	-0.020721	-0.022577	0.024816	-0.838135	-0.373047	0.284180	0.436129	0.484165	-0.702324	0.286561
05893		8.674379	-0.144900	-4.460942	0.002607	-0.026461	0.012614	-0.850586	-0.371338	0.285156	0.435941	0.484141	-0.702478	0.286510
05894		8.708403	-0.007130	-4.670213	0.063725	-0.032012	-0.011024	-0.842773	-0.358643	0.285889	0.435536	0.484451	-0.702430	0.286718
05895		8.787951	0.354029	-4.754720	0.086330	-0.024159	-0.017235	-0.839844	-0.368652	0.288574	0.435070	0.484845	-0.702296	0.287088
05896		8.758271	0.589723	-4.388161	0.018063	-0.020395	0.010351	-0.841797	-0.366211	0.292725	0.434845	0.484866	-0.702396	0.287150
05897		8.744920	-0.017022	-4.271740	-0.015987	-0.031551	0.024174	-0.846191	-0.363525	0.286133	0.434640	0.484707	-0.702686	0.287020
05898		8.721549	-0.250338	-4.670382	0.090187	-0.035327	-0.013463	-0.840332	-0.359863	0.290771	0.434104	0.485122	-0.702586	0.287372
05899		8.668256	0.521994	-4.726015	0.116968	-0.032749	-0.023330	-0.837646	-0.364746	0.290039	0.433471	0.485702	-0.702379	0.287856
05900		8.713973	0.462657	-4.679013	0.026360	-0.024301	0.013748	-0.837402	-0.362061	0.293457	0.433180	0.485735	-0.702489	0.287967
05901		8.790088	-0.068231	-4.412349	0.025819	-0.020717	0.016147	-0.839111	-0.361572	0.285889	0.432890	0.485745	-0.702607	0.288099
05902		8.729308	-0.089107	-4.473113	0.083825	-0.023579	-0.009168	-0.838867	-0.360107	0.291992	0.432445	0.486092	-0.702487	0.288476
05903		8.579725	0.154321	-4.626234	0.087582	-0.022358	-0.017571	-0.838867	-0.361572	0.291504	0.431987	0.486510	-0.702327	0.288847
05904		8.555855	0.261729	-4.675621	0.033745	-0.020682	-0.006321	-0.838623	-0.362793	0.289551	0.431739	0.486665	-0.702330	0.288948
05905		8.644518	0.102076	-4.609749	-0.010108	-0.017152	-0.000849	-0.834961	-0.358398	0.295410	0.431688	0.486620	-0.702442	0.288826
05906		8.709638	-0.094958	-4.537353	-0.002473	-0.013441	-0.012460	-0.841797	-0.360352	0.291260	0.431621	0.486673	-0.702490	0.288721
05907		8.724568	-0.031931	-4.503346	0.037655	-0.022030	-0.028903	-0.832764	-0.362305	0.288574	0.431409	0.486961	-0.702404	0.288763
05908		8.765680	0.222127	-4.403434	0.028138	-0.024804	-0.028928	-0.845703	-0.357666	0.291992	0.431227	0.487246	-0.702330	0.288733
05909		8.708045	0.196773	-4.413337	0.022780	-0.030266	-0.023737	-0.846680	-0.368164	0.291748	0.431015	0.487448	-0.702342	0.288681
05910		8.714444	0.204980	-4.687501	0.052631	-0.032800	-0.027089	-0.847168	-0.361816	0.293701	0.430696	0.487812	-0.702249	0.288767
05911		8.699899	0.341755	-4.559617	0.045799	-0.035649	-0.018272	-0.834717	-0.363281	0.296387	0.430352	0.488087	-0.702238	0.288842
05912		8.706815	0.141512	-4.680970	0.050259	-0.031077	-0.015330	-0.843750	-0.363281	0.302002	0.429992	0.488393	-0.702198	0.288959
05913		8.687463	0.286154	-4.583564	0.054624	-0.027972	-0.012251	-0.843506	-0.364014	0.282471	0.429614	0.488675	-0.702164	0.289125
05914		8.704355	0.380324	-4.362032	0.009071	-0.029188	-0.000804	-0.839844	-0.359863	0.299072	0.429472	0.488686	-0.702260	0.289084
05915		8.727351	-0.072156	-4.705282	-0.005278	-0.030120	0.003702	-0.848389	-0.360107	0.304932	0.429295	0.488657	-0.702442	0.288956
05916		8.634736	0.101547	-4.746284	0.043065	-0.028685	-0.014952	-0.842773	-0.364258	0.296387	0.428960	0.488896	-0.702442	0.289049
05917		8.622465	0.284220	-4.666782	0.017491	-0.027375	-0.006481	-0.840332	-0.361328	0.301025	0.428757	0.488997	-0.702504	0.289027
05918		8.660519	-0.045715	-4.636538	-0.002798	-0.026127	-0.004847	-0.840576	-0.363281	0.285889	0.428615	0.489021	-0.702629	0.288895
05919		8.602498	-0.057861	-4.592502	0.034946	-0.021734	-0.023954	-0.841797	-0.355225	0.306641	0.428458	0.489251	-0.702541	0.288951
05920		8.703928	0.421680	-4.632168	-0.000937	-0.022762	-0.014363	-0.839111	-0.362061	0.293701	0.428322	0.489317	-0.702633	0.288816
05921		8.672331	0.259636	-4.720185	-0.057039	-0.021176	0.002078	-0.831543	-0.360840	0.301514	0.428449	0.489080	-0.702884	0.288420
05922		8.657515	-0.016644	-4.513228	-0.059700	-0.027982	0.005589	-0.840820	-0.363525	0.295410	0.428496	0.488861	-0.703189	0.287978
05923		8.731715	-0.143402	-4.562248	0.009310	-0.028655	-0.020606	-0.844238	-0.364746	0.301514	0.428359	0.489014	-0.703216	0.287857
05924		8.666510	0.238975	-4.671184	0.052599	-0.029671	-0.027492	-0.845215	-0.357422	0.299072	0.428038	0.489369	-0.703124	0.287954
05925		8.609395	0.346975	-4.620365	0.013555	-0.029830	-0.015534	-0.841309	-0.359863	0.289307	0.427847	0.489487	-0.703187	0.287885
05926		8.661849	0.076800	-4.679721	0.009083	-0.028941	-0.011492	-0.839111	-0.365479	0.300781	0.427711	0.489558	-0.703249	0.287814
05927		8.662729	0.140014	-4.721538	0.045060	-0.030447	-0.023048	-0.845215	-0.364258	0.300781	0.427412	0.489869	-0.703189	0.287875
05928		8.610982	0.283084	-4.668237	0.024601	-0.029438	-0.017604	-0.838379	-0.364746	0.294922	0.427195	0.490054	-0.703202	0.287851
05929		8.658680	0.037803	-4.559949	-0.003680	-0.032430	-0.003637	-0.831787	-0.362061	0.303955	0.427063	0.490068	-0.703335	0.287699
05930		8.657344	-0.035138	-4.641793	0.040850	-0.031885	-0.024693	-0.838379	-0.363770	0.306396	0.426757	0.490388	-0.703289	0.287721
05931		8.658100	0.296489	-4.709145	0.046709	-0.028568	-0.027118	-0.835449	-0.357910	0.296875	0.426455	0.490726	-0.703210	0.287783
05932		8.632993	0.273713	-4.674656	0.011189	-0.029402	-0.014278	-0.832520	-0.365723	0.295166	0.426289	0.490838	-0.703264	0.287708
05933		8.638682	-0.000099	-4.664022	0.000979	-0.034397	-0.009705	-0.834473	-0.363525	0.307129	0.426145	0.490918	-0.703361	0.287547
05934		8.615398	0.024773	-4.700054	0.029073	-0.035532	-0.027046	-0.840088	-0.366943	0.305664	0.425873	0.491214	-0.703348	0.287475
05935		8.595868	0.158237	-4.822894	0.029092	-0.032719	-0.028908	-0.834717	-0.360107	0.296387	0.425642	0.491503	-0.703312	0.287411
05936		8.604622	0.232038	-4.656035	0.007285	-0.026382	-0.021663	-0.843750	-0.364014	0.303223	0.425540	0.491637	-0.703326	0.287299
05937		8.672183	0.083368	-4.633811	-0.006885	-0.029949	-0.018982	-0.838379	-0.364502	0.303711	0.425459	0.491713	-0.703408	0.287091
05938		8.646462	0.001899	-4.768468	0.025063	-0.020280	-0.034507	-0.833252	-0.357666	0.306641	0.425336	0.491981	-0.703313	0.287045
05939		8.586397	0.123450	-4.788895	0.038945	-0.025110	-0.038519	-0.833252	-0.361816	0.306885	0.425108	0.492337	-0.703196	0.287058
05940		8.639208	0.183915	-4.682136	0.012647	-0.023362	-0.034154	-0.834229	-0.364258	0.308594	0.424998	0.492574	-0.703150	0.286927
05941		8.652799	0.204511	-4.600758	0.002333	-0.025715	-0.032992	-0.830811	-0.363770	0.304688	0.424914	0.492777	-0.703142	0.286723
05942		8.613800	0.019839	-4.783349	0.030110	-0.021697	-0.041241	-0.831055	-0.357422	0.302246	0.424772	0.493115	-0.703011	0.286675
05943		8.591694	0.227446	-4.620620	0.032379	-0.028866	-0.042375	-0.831787	-0.366211	0.310303	0.424578	0.493468	-0.702897	0.286633
05944		8.647803	0.202186	-4.685543	0.031615	-0.026891	-0.041425	-0.837402	-0.364990	0.311035	0.424386	0.493831	-0.702788	0.286560
05945		8.614476	0.368167	-4.796360	0.033209	-0.026604	-0.040000	-0.829102	-0.360107	0.310059	0.424187	0.494178	-0.702682	0.286516
05946		8.697006	0.355203	-4.640383	-0.001225	-0.019915	-0.023061	-0.839111	-0.367432	0.315674	0.424116	0.494293	-0.702705	0.286366
05947		8.465193	-0.154362	-4.830798	0.017683	-0.041447	-0.022767	-0.834961	-0.363281	0.316406	0.423844	0.494524	-0.702765	0.286222
05948		8.654060	0.199160	-4.514918	0.083480	-0.019620	-0.053338	-0.835205	-0.375488	0.306396	0.423489	0.495116	-0.702468	0.286454
05949		8.634232	0.257370	-4.714575	0.038007	-0.039450	-0.030152	-0.833008	-0.365723	0.299561	0.423216	0.495454	-0.702418	0.286396
05950		8.558051	0.181269	-4.873588	0.057232	-0.038555	-0.037897	-0.834229	-0.366943	0.313965	0.422894	0.495882	-0.702279	0.286471
05951		8.537964	0.314964	-4.831072	0.051925	-0.030296	-0.038199	-0.840088	-0.358887	0.308350	0.422595	0.496294	-0.702146	0.286525
05952		8.617041	0.040517	-4.866268	0.035384	-0.026986	-0.030570	-0.833252	-0.362305	0.311768	0.422376	0.496567	-0.702065	0.286575
05953		8.607159	-0.026668	-4.915178	0.059015	-0.021327	-0.046143	-0.832764	-0.366211	0.318848	0.422120	0.497019	-0.701846	0.286702
05954		8.585399	0.135007	-4.910567	0.067198	-0.011262	-0.053768	-0.829834	-0.362793	0.312988	0.421891	0.497535	-0.701551	0.286867
05955		8.568182	0.226601	-4.835778	0.037157	-0.006934	-0.046031	-0.833496	-0.366455	0.303467	0.421807	0.497880	-0.701335	0.286920
05956		8.562173	0.118257	-4.873191	0.044333	0.000686	-0.052263	-0.835205	-0.367188	0.309082	0.421801	0.498245	-0.701033	0.287034
05957		8.565661	0.232632	-4.794970	0.030140	0.002354	-0.049492	-0.830566	-0.365723	0.311768	0.421838	0.498547	-0.700779	0.287075
05958		8.584353	0.121105	-4.809757	0.025431	0.001674	-0.052183	-0.831787	-0.367432	0.311035	0.421879	0.498862	-0.700532	0.287072
05959		8.573406	0.296763	-4.801838	0.021657	0.005920	-0.049051	-0.828369	-0.370605	0.312500	0.421960	0.499130	-0.700291	0.287073
05960		8.566998	0.401682	-4.723860	-0.001739	0.008687	-0.037525	-0.833496	-0.363770	0.312500	0.422125	0.499251	-0.700148	0.286969
05961		8.588903	0.384905	-4.691021	-0.025297	0.014091	-0.029452	-0.831543	-0.373291	0.309326	0.422387	0.499221	-0.700072	0.286823
05962		8.673608	0.420777	-4.559050	-0.042072	0.008579	-0.013990	-0.828857	-0.364502	0.311279	0.422680	0.499050	-0.700122	0.286566
05963		8.613887	0.314583	-4.701035	-0.037194	0.005400	-0.011463	-0.833496	-0.368408	0.317871	0.422895	0.498902	-0.700178	0.286370
05964		8.587986	0.350730	-4.782855	-0.030352	0.005554	-0.006249	-0.832520	-0.367432	0.309326	0.423056	0.498753	-0.700250	0.286215
05965		8.574068	0.369476	-4.802873	-0.054528	0.000725	0.002891	-0.833008	-0.367432	0.315918	0.423295	0.498461	-0.700424	0.285945
05966		8.589460	0.130948	-4.719886	-0.051050	0.008472	0.003403	-0.828125	-0.370605	0.297119	0.423537	0.498174	-0.700572	0.285722
05967		8.674945	0.149761	-4.662193	-0.038672	0.000874	0.001392	-0.835449	-0.371582	0.316650	0.423762	0.497927	-0.700693	0.285525
05968		8.684782	0.284794	-4.675744	-0.025826	-0.003452	-0.003119	-0.824707	-0.375244	0.309814	0.423850	0.497794	-0.700801	0.285360
05969		8.567902	0.329089	-4.814655	-0.033299	-0.003058	-0.000326	-0.829102	-0.368652	0.308350	0.423992	0.497615	-0.700937	0.285126
05970		8.548048	0.173864	-4.855207	-0.045879	-0.001147	0.003863	-0.835449	-0.377686	0.312988	0.424178	0.497359	-0.701102	0.284889
05971		8.623171	0.151950	-4.697286	-0.066993	-0.003970	0.008776	-0.836426	-0.372314	0.307617	0.424432	0.497001	-0.701364	0.284493
05972		8.628478	0.116581	-4.751168	-0.049210	0.001240	-0.006190	-0.830566	-0.368896	0.302002	0.424682	0.496774	-0.701488	0.284208
05973		8.579504	0.235964	-4.840459	-0.032359	0.001099	-0.012551	-0.841064	-0.373047	0.311279	0.424884	0.496644	-0.701538	0.284011
05974		8.532760	0.205489	-4.854701	-0.038644	0.002847	-0.013198	-0.827637	-0.367676	0.306885	0.425104	0.496494	-0.701607	0.283774
05975		8.564944	0.199011	-4.635025	-0.058695	0.003938	-0.009831	-0.824951	-0.372559	0.297363	0.425398	0.496266	-0.701725	0.283441
05976		8.654825	0.043103	-4.649953	-0.046799	-0.001258	-0.018448	-0.828613	-0.374512	0.306396	0.425676	0.496118	-0.701798	0.283100
05977		8.561407	0.162145	-4.918549	0.028614	-0.006124	-0.039956	-0.833496	-0.373291	0.306885	0.425636	0.496390	-0.701632	0.283095
05978		8.586560	0.710294	-4.803251	0.021934	0.001726	-0.029410	-0.830078	-0.370117	0.312256	0.425642	0.496555	-0.701493	0.283142
05979		8.621241	0.444955	-4.650459	-0.030088	0.001887	-0.004840	-0.834229	-0.371094	0.300049	0.425776	0.496413	-0.701577	0.282980
05980		8.620507	0.110225	-4.482925	-0.006759	-0.002658	-0.007118	-0.828857	-0.372314	0.300293	0.425842	0.496343	-0.701602	0.282942
05981		8.625319	0.208874	-4.706314	0.053054	-0.007310	-0.023989	-0.834229	-0.368408	0.308105	0.425672	0.496600	-0.701439	0.283153
05982		8.610576	0.666032	-4.754965	0.037055	-0.007755	-0.013387	-0.831299	-0.372559	0.305420	0.425504	0.496758	-0.701353	0.283340
05983		8.593926	0.389032	-4.845508	-0.009626	-0.010236	0.007742	-0.829102	-0.367920	0.303711	0.425487	0.496621	-0.701482	0.283285
05984		8.590146	0.125625	-4.788992	-0.003356	-0.006373	0.004655	-0.830078	-0.373535	0.304443	0.425467	0.496521	-0.701561	0.283297
05985		8.598384	0.255898	-4.573850	-0.011215	0.000573	0.004194	-0.828369	-0.377930	0.311523	0.425535	0.496369	-0.701646	0.283252
05986		8.626876	0.150403	-4.775644	0.006845	0.001796	-0.005611	-0.835938	-0.368164	0.299072	0.425541	0.496346	-0.701660	0.283245
05987		8.578943	0.357910	-5.004479	0.036848	0.008440	-0.011716	-0.841553	-0.372803	0.301758	0.425502	0.496431	-0.701517	0.283511
05988		8.564001	0.400965	-4.897767	-0.003069	0.009089	0.002085	-0.835449	-0.375977	0.312988	0.425606	0.496282	-0.701534	0.283574
05989		8.578898	0.126611	-4.879956	-0.020647	0.009931	0.005779	-0.825928	-0.368896	0.311035	0.425741	0.496075	-0.701626	0.283506
05990		8.595407	0.235889	-4.705322	-0.024990	0.011081	0.000741	-0.827881	-0.367920	0.304932	0.425892	0.495902	-0.701689	0.283425
05991		8.605372	0.156545	-4.770052	-0.023513	0.012805	-0.004895	-0.827637	-0.368408	0.310547	0.426082	0.495748	-0.701712	0.283354
05992		8.562003	0.187181	-4.841463	-0.002565	0.012741	-0.009505	-0.835205	-0.375244	0.304688	0.426173	0.495711	-0.701671	0.283382
05993		8.548677	0.234435	-4.962340	0.013930	0.013586	-0.015384	-0.822754	-0.369141	0.307861	0.426260	0.495725	-0.701576	0.283462
05994		8.639073	0.393270	-4.759536	-0.015801	0.019613	-0.009998	-0.833984	-0.372559	0.315674	0.426455	0.495624	-0.701544	0.283423
05995		8.653572	0.287757	-4.595828	-0.048646	0.020856	0.001459	-0.834961	-0.375488	0.308594	0.426751	0.495340	-0.701639	0.283240
05996		8.623698	0.241826	-4.607434	-0.028127	0.021891	-0.008002	-0.836426	-0.376709	0.297363	0.427023	0.495156	-0.701647	0.283132
05997		8.721128	0.607807	-4.525989	-0.034480	0.020471	0.002317	-0.833740	-0.374268	0.304199	0.427333	0.494859	-0.701715	0.283015
05998		8.708380	0.441330	-4.513084	-0.046027	0.013495	0.017900	-0.833984	-0.363281	0.305908	0.427576	0.494475	-0.701897	0.282867
05999		8.594762	0.286118	-4.319070	-0.029782	0.002759	0.021676	-0.827881	-0.377930	0.310791	0.427641	0.494189	-0.702060	0.282862
06000		8.563977	0.221837	-4.595351	0.027718	-0.014137	0.008369	-0.843018	-0.370361	0.308105	0.427421	0.494206	-0.702146	0.282952
06001		8.558205	0.625719	-4.812292	0.022441	-0.014447	0.019015	-0.831299	-0.373779	0.309082	0.427196	0.494140	-0.702255	0.283139
06002		8.562669	0.506295	-4.904378	-0.043850	-0.019455	0.046393	-0.829834	-0.376221	0.308350	0.427151	0.493690	-0.702672	0.282955
06003		8.560203	0.120819	-4.877821	-0.053039	-0.015275	0.049518	-0.830322	-0.368164	0.293945	0.427171	0.493171	-0.703119	0.282720
06004		8.684485	0.099401	-4.666303	-0.042372	-0.006591	0.038659	-0.837158	-0.366211	0.311035	0.427257	0.492712	-0.703437	0.282600
06005		8.630185	0.010221	-4.882945	-0.016229	-0.003842	0.025319	-0.834229	-0.371094	0.296875	0.427216	0.492467	-0.703624	0.282625
06006		8.618506	0.255152	-5.024116	-0.014147	0.002522	0.022405	-0.838379	-0.374756	0.305908	0.427277	0.492177	-0.703787	0.282630
06007		8.606794	-0.002984	-4.956750	-0.034236	0.009257	0.022047	-0.837402	-0.368896	0.299561	0.427439	0.491814	-0.703985	0.282524
06008		8.587765	-0.118066	-4.651438	-0.019736	0.016486	0.006178	-0.840820	-0.366455	0.306396	0.427628	0.491578	-0.704039	0.282515
06009		8.580736	-0.033191	-4.789922	0.008764	0.013746	-0.019131	-0.835693	-0.375732	0.308105	0.427711	0.491625	-0.703923	0.282598
06010		8.523763	0.272757	-5.040949	0.027567	0.029433	-0.031904	-0.838623	-0.368408	0.302002	0.427855	0.491758	-0.703690	0.282728
06011		8.502030	0.538880	-5.031637	-0.024210	0.033145	-0.015217	-0.829102	-0.374756	0.297852	0.428195	0.491603	-0.703605	0.282692
06012		8.660822	0.177601	-4.843648	-0.062042	0.040430	-0.002818	-0.834473	-0.362549	0.298340	0.428730	0.491202	-0.703663	0.282436
06013		8.662248	0.131829	-4.372938	-0.042679	0.045674	-0.012531	-0.833008	-0.365723	0.297607	0.429199	0.490953	-0.703569	0.282388
06014		8.648830	0.072988	-4.382243	0.001198	0.037876	-0.027543	-0.832520	-0.369141	0.301758	0.429486	0.490960	-0.703351	0.282485
06015		8.618346	0.255744	-4.804005	0.070182	0.032816	-0.047198	-0.838867	-0.359619	0.303223	0.429498	0.491347	-0.702918	0.282872
06016		8.604086	0.681054	-4.866902	0.044442	0.036079	-0.032911	-0.832031	-0.376709	0.304443	0.429570	0.491578	-0.702555	0.283262
06017		8.648298	0.422150	-4.667881	-0.027181	0.039478	-0.004385	-0.837402	-0.371582	0.291504	0.429928	0.491336	-0.702529	0.283202
06018		8.684604	-0.042323	-4.700370	-0.019308	0.038125	-0.007633	-0.835938	-0.371826	0.299316	0.430287	0.491118	-0.702455	0.283221
06019		8.658866	0.081028	-4.646998	0.046413	0.041046	-0.035630	-0.831787	-0.374756	0.297363	0.430427	0.491320	-0.702102	0.283533
06020		8.704838	0.541510	-4.620045	0.020858	0.043311	-0.028767	-0.835205	-0.367920	0.300537	0.430680	0.491375	-0.701841	0.283697
06021		8.612725	0.227265	-4.743177	-0.008192	0.044528	-0.017243	-0.838623	-0.370605	0.295410	0.431001	0.491285	-0.701666	0.283800
06022		8.597642	0.164238	-4.876891	-0.001632	0.048794	-0.022480	-0.831299	-0.370117	0.298340	0.431357	0.491215	-0.701444	0.283928
06023		8.660375	0.293445	-4.691542	-0.016650	0.056820	-0.026165	-0.833252	-0.376221	0.294434	0.431810	0.491113	-0.701218	0.283974
06024		8.680251	0.285072	-4.682577	-0.043380	0.064805	-0.019771	-0.836670	-0.374268	0.293213	0.432433	0.490830	-0.701070	0.283881
06025		8.672840	0.062421	-4.833406	-0.015972	0.074406	-0.029427	-0.845215	-0.371338	0.296387	0.433017	0.490684	-0.700772	0.283977
06026		8.576374	0.292728	-4.751931	0.016131	0.079186	-0.037960	-0.829102	-0.370117	0.286865	0.433497	0.490709	-0.700330	0.284296
06027		8.654130	0.375241	-4.772664	-0.005867	0.078305	-0.032271	-0.835449	-0.374512	0.293213	0.434066	0.490613	-0.699972	0.284471
06028		8.706537	0.354587	-4.727995	-0.028211	0.088199	-0.026493	-0.835938	-0.372070	0.288818	0.434757	0.490386	-0.699664	0.284564
06029		8.743208	0.396546	-4.419093	-0.079973	0.090691	-0.012253	-0.835693	-0.365479	0.293457	0.435644	0.489881	-0.699519	0.284437
06030		8.695231	-0.007332	-4.385012	-0.062533	0.084443	-0.024324	-0.842285	-0.377441	0.284668	0.436407	0.489565	-0.699282	0.284395
06031		8.707773	0.113110	-4.521170	0.010369	0.079599	-0.050140	-0.837158	-0.379883	0.282959	0.436967	0.489615	-0.698817	0.284592
06032		8.654932	0.517235	-4.404393	0.018736	0.073139	-0.050240	-0.838379	-0.378174	0.284912	0.437459	0.489708	-0.698364	0.284785
06033		8.712579	0.458177	-4.415672	-0.013702	0.066631	-0.037965	-0.841797	-0.375977	0.283691	0.438001	0.489642	-0.698054	0.284827
06034		8.684629	0.321102	-4.449508	-0.027771	0.061522	-0.033706	-0.834473	-0.380127	0.276123	0.438555	0.489516	-0.697802	0.284809
06035		8.742484	0.188099	-4.352233	-0.016744	0.062261	-0.041047	-0.837646	-0.377441	0.270020	0.439116	0.489446	-0.697508	0.284784
06036		8.732479	0.192097	-4.522133	0.022461	0.052274	-0.054441	-0.832764	-0.374512	0.272217	0.439502	0.489611	-0.697092	0.284925
06037		8.758525	0.451674	-4.631097	0.051544	0.053939	-0.062215	-0.831543	-0.386230	0.288574	0.439775	0.489946	-0.696560	0.285227
06038		8.769174	0.744947	-4.457970	0.017067	0.053254	-0.038680	-0.837891	-0.380615	0.272705	0.440096	0.490047	-0.696239	0.285343
06039		8.814091	0.569836	-4.136453	-0.045935	0.047338	-0.009796	-0.831055	-0.377197	0.280762	0.440614	0.489723	-0.696190	0.285221
06040		8.866566	0.182946	-4.058621	-0.038169	0.038917	-0.016023	-0.836426	-0.380859	0.275391	0.441019	0.489530	-0.696117	0.285103
06041		8.788530	0.262507	-4.356659	0.016760	0.031743	-0.035589	-0.840576	-0.388428	0.281006	0.441233	0.489642	-0.695867	0.285189
06042		8.676854	0.599069	-4.589193	0.028776	0.023316	-0.033086	-0.837891	-0.381836	0.279541	0.441343	0.489801	-0.695647	0.285283
06043		8.741958	0.721877	-4.437387	-0.019825	0.021548	-0.008962	-0.836426	-0.382324	0.285889	0.441569	0.489660	-0.695630	0.285218
06044		8.796888	0.512196	-4.111023	-0.059551	0.016628	0.012629	-0.832031	-0.381104	0.281250	0.441852	0.489284	-0.695812	0.284980
06045		8.781910	0.345413	-3.934071	-0.051249	0.010024	0.010994	-0.827881	-0.379150	0.279541	0.442076	0.488959	-0.695991	0.284755
06046		8.789335	0.348123	-4.265963	-0.012445	-0.001916	-0.001540	-0.831787	-0.382812	0.270752	0.442100	0.488884	-0.696065	0.284664
06047		8.758662	0.698559	-4.442558	-0.007286	-0.007755	-0.000876	-0.833740	-0.381348	0.278564	0.442110	0.488796	-0.696162	0.284560
06048		8.757464	0.664614	-4.612802	-0.058529	-0.012251	0.023139	-0.834961	-0.381348	0.275879	0.442215	0.488418	-0.696489	0.284248
06049		8.745115	0.330539	-4.419461	-0.068907	-0.005389	0.039823	-0.843750	-0.386719	0.270752	0.442372	0.487879	-0.696883	0.283964
06050		8.888192	0.464008	-4.044564	-0.094586	-0.008723	0.044744	-0.839844	-0.372559	0.277100	0.442638	0.487186	-0.697382	0.283513
06051		8.848336	0.307079	-4.362321	-0.070705	-0.011370	0.040483	-0.844482	-0.383789	0.280273	0.442739	0.486668	-0.697784	0.283255
06052		8.702474	0.591210	-4.469057	-0.034854	-0.018329	0.035146	-0.833984	-0.381348	0.280518	0.442685	0.486314	-0.698128	0.283100
06053		8.681503	0.580904	-4.567559	-0.063397	-0.023652	0.052706	-0.836426	-0.376465	0.269287	0.442664	0.485783	-0.698626	0.282817
06054		8.677603	0.221343	-4.566780	-0.062501	-0.025449	0.053323	-0.835693	-0.380127	0.275879	0.442657	0.485222	-0.699127	0.282551
06055		8.693320	0.100615	-4.421677	-0.045306	-0.025235	0.043458	-0.840576	-0.380859	0.267822	0.442591	0.484799	-0.699552	0.282331
06056		8.640592	0.056128	-4.630257	-0.031983	-0.020447	0.026048	-0.838867	-0.382324	0.271240	0.442574	0.484479	-0.699862	0.282137
06057		8.794563	0.317452	-4.662361	-0.025946	-0.012219	0.012637	-0.842041	-0.372803	0.274170	0.442603	0.484252	-0.700075	0.281952
06058		8.732893	0.282581	-4.587781	-0.037984	-0.006530	0.012027	-0.839600	-0.374512	0.278076	0.442684	0.483990	-0.700277	0.281777
06059		8.790236	-0.129966	-4.710654	0.005319	-0.005394	-0.008473	-0.839844	-0.369385	0.280518	0.442633	0.484019	-0.700290	0.281772
06060		8.738241	0.336652	-4.573318	0.034331	0.010061	-0.021622	-0.843506	-0.381348	0.280273	0.442565	0.484209	-0.700118	0.281980
06061		8.724930	0.475842	-4.603068	-0.019274	0.020842	-0.007720	-0.838623	-0.375732	0.268555	0.442775	0.484074	-0.700105	0.281913
06062		8.669895	0.062410	-4.667863	-0.009323	0.031653	-0.017393	-0.842285	-0.380615	0.270996	0.443056	0.483981	-0.699988	0.281923
06063		8.598453	0.090458	-4.781616	0.046312	0.034555	-0.037911	-0.835938	-0.381592	0.277588	0.443179	0.484206	-0.699652	0.282177
06064		8.708270	0.490593	-4.361016	0.040906	0.045875	-0.038459	-0.838867	-0.378662	0.266113	0.443365	0.484420	-0.699281	0.282438
06065		8.707591	0.213023	-4.188038	0.044707	0.061224	-0.036871	-0.841553	-0.383057	0.278076	0.443655	0.484563	-0.698852	0.282797
06066		8.698672	0.058516	-4.390984	0.120206	0.052936	-0.057877	-0.843262	-0.371338	0.275146	0.443606	0.485163	-0.698189	0.283482
06067		8.696931	0.574921	-4.492474	0.143245	0.038281	-0.064206	-0.841553	-0.379395	0.273926	0.443378	0.485916	-0.697489	0.284272
06068		8.890370	0.900547	-4.104690	0.057150	0.034764	-0.023876	-0.835449	-0.375732	0.271729	0.443405	0.486115	-0.697177	0.284656
06069		8.822006	0.405917	-4.090754	0.014733	0.015791	-0.001975	-0.839355	-0.377197	0.272461	0.443438	0.486080	-0.697119	0.284805
06070		8.787135	0.438599	-4.246896	0.087423	-0.002584	-0.015373	-0.839111	-0.384521	0.274902	0.443103	0.486432	-0.696904	0.285251
06071		8.738665	0.869300	-4.492750	0.092626	-0.005759	-0.004301	-0.844482	-0.376221	0.270020	0.442712	0.486749	-0.696737	0.285725
06072		8.684753	0.815608	-4.659082	0.017999	-0.015785	0.034147	-0.830322	-0.383545	0.277100	0.442480	0.486566	-0.696941	0.285899
06073		8.822808	0.287151	-4.519014	-0.031074	-0.016344	0.053327	-0.842529	-0.380127	0.270752	0.442382	0.486137	-0.697337	0.285815
06074		8.937647	0.047415	-4.174101	-0.017064	-0.022325	0.044292	-0.835693	-0.375000	0.275391	0.442238	0.485784	-0.697692	0.285772
06075		8.784899	0.009185	-4.391177	0.070321	-0.038642	0.015197	-0.848145	-0.379639	0.271729	0.441685	0.485992	-0.697771	0.286081
06076		8.760150	0.733854	-4.382059	0.061836	-0.060467	0.019947	-0.838623	-0.370605	0.274170	0.441062	0.486153	-0.697982	0.286255
06077		8.814061	0.669342	-4.348793	-0.036151	-0.062506	0.049457	-0.842285	-0.377686	0.272705	0.440726	0.485810	-0.698543	0.285985
06078		8.658046	0.013897	-4.694957	-0.034813	-0.063948	0.054808	-0.846436	-0.369873	0.273193	0.440389	0.485429	-0.699134	0.285708
06079		8.660925	0.139723	-4.693871	0.011154	-0.052523	0.033700	-0.838135	-0.368896	0.274902	0.439970	0.485305	-0.699488	0.285697
06080		8.800118	0.374088	-4.350922	-0.013085	-0.047324	0.038316	-0.850586	-0.378662	0.274170	0.439659	0.485071	-0.699894	0.285577
06081		8.806957	0.164830	-4.392359	-0.003186	-0.056527	0.039967	-0.847412	-0.377686	0.280762	0.439285	0.484856	-0.700328	0.285454
06082		8.833606	0.285129	-4.370047	0.044995	-0.071149	0.025765	-0.840576	-0.370605	0.281738	0.438640	0.484960	-0.700639	0.285505
06083		8.700380	0.519183	-4.550294	0.002710	-0.059924	0.037699	-0.843018	-0.370850	0.281006	0.438187	0.484827	-0.701050	0.285417
06084		8.670380	0.116300	-4.691501	-0.017334	-0.058699	0.042389	-0.844482	-0.369629	0.286865	0.437820	0.484580	-0.701526	0.285232
06085		8.682325	0.067882	-4.638617	0.024897	-0.050210	0.029693	-0.848389	-0.370605	0.283447	0.437343	0.484556	-0.701817	0.285288
06086		8.781573	0.282935	-4.467610	0.041324	-0.049454	0.022432	-0.841553	-0.367676	0.287842	0.436842	0.484609	-0.702043	0.285411
06087		8.689215	0.285564	-4.532171	0.067613	-0.039729	0.016207	-0.831543	-0.363525	0.288330	0.436285	0.484796	-0.702138	0.285710
06088		8.722392	0.593221	-4.452979	0.046609	-0.041245	0.032980	-0.835938	-0.359375	0.284668	0.435753	0.484830	-0.702349	0.285946
06089		8.620958	0.186752	-4.543895	0.026695	-0.044193	0.041281	-0.837158	-0.361328	0.278809	0.435275	0.484727	-0.702656	0.286094
06090		8.666290	-0.167832	-4.693243	0.057437	-0.037973	0.027511	-0.845947	-0.370361	0.282959	0.434771	0.484776	-0.702817	0.286382
06091		8.692319	0.056420	-4.525794	0.053850	-0.033065	0.017764	-0.834961	-0.371826	0.294189	0.434348	0.484852	-0.702934	0.286609
06092		8.728526	0.124276	-4.439905	0.020120	-0.028089	0.019048	-0.843262	-0.352539	0.282471	0.434048	0.484842	-0.703106	0.286658
06093		8.770055	0.135301	-4.564678	0.030604	-0.023766	0.008711	-0.841553	-0.363281	0.286377	0.433764	0.484864	-0.703205	0.286807
06094		8.702052	0.320912	-4.467574	0.016862	-0.022958	0.012451	-0.837646	-0.360596	0.287842	0.433542	0.484827	-0.703347	0.286858
06095		8.670857	0.070163	-4.675041	0.011404	-0.021675	0.010659	-0.842041	-0.362793	0.292480	0.433342	0.484789	-0.703487	0.286881
06096		8.647639	0.012768	-4.724307	0.039078	-0.018852	0.002735	-0.844238	-0.359131	0.292969	0.433059	0.484896	-0.703520	0.287046
06097		8.640891	0.264502	-4.639437	0.026332	-0.018278	0.001625	-0.853760	-0.364746	0.288818	0.432829	0.484957	-0.703579	0.287148
06098		8.671802	0.146036	-4.584458	0.001868	-0.017620	0.005231	-0.837646	-0.361816	0.291748	0.432725	0.484874	-0.703717	0.287104
06099		8.699456	0.131468	-4.534480	0.007241	-0.025878	0.005552	-0.842529	-0.373047	0.302979	0.432526	0.484868	-0.703861	0.287061
06100		8.679732	0.078418	-4.646604	0.058652	-0.028491	-0.010293	-0.839111	-0.354492	0.290039	0.432131	0.485173	-0.703826	0.287226
06101		8.682914	0.171709	-4.665424	0.076780	-0.024652	-0.011136	-0.837158	-0.357910	0.296143	0.431695	0.485498	-0.703735	0.287556
06102		8.653667	0.121242	-4.746244	0.081716	-0.023554	-0.010597	-0.844238	-0.354004	0.296143	0.431232	0.485856	-0.703626	0.287911
06103		8.639989	0.027096	-4.744423	0.086167	-0.014508	-0.015046	-0.841064	-0.364990	0.294189	0.430816	0.486216	-0.703462	0.288327
06104		8.688840	0.079742	-4.595053	0.062950	-0.018130	-0.011107	-0.840576	-0.357422	0.295898	0.430491	0.486480	-0.703380	0.288569
06105		8.679339	-0.054153	-4.604570	0.065329	-0.009771	-0.021721	-0.840820	-0.372803	0.292480	0.430213	0.486795	-0.703219	0.288843
06106		8.743052	0.336411	-4.529706	0.048406	-0.009539	-0.020822	-0.841553	-0.357422	0.301025	0.430045	0.487038	-0.703100	0.288974
06107		8.673241	0.168532	-4.606397	0.019061	-0.007316	-0.014251	-0.842529	-0.356934	0.299561	0.429938	0.487148	-0.703072	0.289016
06108		8.622076	-0.007439	-4.578248	0.028294	-0.009977	-0.017450	-0.838867	-0.363525	0.296631	0.429791	0.487309	-0.703020	0.289091
06109		8.676632	0.054653	-4.510922	0.030020	-0.012165	-0.023248	-0.846436	-0.354736	0.296875	0.429659	0.487515	-0.702944	0.289123
06110		8.688543	0.021111	-4.669460	0.040816	-0.011626	-0.032231	-0.839844	-0.364014	0.295898	0.429496	0.487793	-0.702811	0.289219
06111		8.651810	0.322766	-4.554567	0.028582	-0.007916	-0.030477	-0.834229	-0.363525	0.302002	0.429418	0.488020	-0.702695	0.289234
06112		8.681969	0.176120	-4.540569	-0.010938	-0.011074	-0.020882	-0.846436	-0.364502	0.302246	0.429435	0.488084	-0.702720	0.289040
06113		8.705086	-0.055526	-4.604787	0.009902	-0.020840	-0.024912	-0.835693	-0.360840	0.297607	0.429328	0.488246	-0.702722	0.288919
06114		8.699985	0.050360	-4.613455	0.046694	-0.021754	-0.039741	-0.843994	-0.357178	0.296631	0.429105	0.488634	-0.702572	0.288960
06115		8.690616	0.335714	-4.592964	0.036937	-0.018349	-0.032303	-0.835693	-0.363770	0.295166	0.428926	0.488913	-0.702471	0.289001
06116		8.712352	0.365405	-4.489035	-0.007769	-0.017595	-0.014092	-0.837402	-0.368896	0.304932	0.428902	0.488937	-0.702542	0.288823
06117		8.686852	0.047587	-4.643689	-0.007321	-0.022606	-0.016295	-0.834961	-0.368896	0.295898	0.428833	0.489011	-0.702620	0.288610
06118		8.542538	0.107717	-4.714955	0.021457	-0.019591	-0.026042	-0.838623	-0.368896	0.290283	0.428715	0.489219	-0.702576	0.288540
06119		8.595792	0.155695	-4.681424	0.008714	-0.023396	-0.025080	-0.837646	-0.365479	0.297119	0.428645	0.489361	-0.702583	0.288385
06120		8.706441	0.084480	-4.567008	-0.002595	-0.018739	-0.024558	-0.837158	-0.370117	0.296631	0.428619	0.489465	-0.702605	0.288195
06121		8.712866	0.236348	-4.531169	-0.007730	-0.019952	-0.026653	-0.843506	-0.366699	0.296387	0.428622	0.489566	-0.702633	0.287950
06122		8.671917	0.133383	-4.686646	-0.013604	-0.016520	-0.024348	-0.838135	-0.362061	0.300537	0.428662	0.489611	-0.702676	0.287709
06123		8.616601	0.093035	-4.746639	-0.000643	-0.022104	-0.027061	-0.840576	-0.357178	0.298096	0.428598	0.489749	-0.702696	0.287522
06124		8.613897	0.157380	-4.746482	-0.001742	-0.014912	-0.027687	-0.842285	-0.363037	0.305176	0.428582	0.489856	-0.702691	0.287373
06125		8.661484	0.189129	-4.474365	-0.011819	-0.014518	-0.026838	-0.834717	-0.372314	0.299561	0.428598	0.489937	-0.702715	0.287154
06126		8.716303	0.178985	-4.443103	-0.004866	-0.019609	-0.026941	-0.834717	-0.363770	0.298584	0.428586	0.490056	-0.702734	0.286923
06127		8.649823	0.077903	-4.600750	0.034998	-0.028359	-0.034925	-0.838135	-0.364746	0.300049	0.428366	0.490380	-0.702656	0.286887
06128		8.642448	0.273048	-4.710289	0.053562	-0.027909	-0.038218	-0.837891	-0.365479	0.295410	0.428081	0.490784	-0.702521	0.286951
06129		8.663851	0.318943	-4.576417	0.011218	-0.033134	-0.022722	-0.836670	-0.368896	0.297119	0.427919	0.490947	-0.702568	0.286800
06130		8.674641	-0.003950	-4.616613	0.012343	-0.036029	-0.024130	-0.836182	-0.364746	0.299805	0.427741	0.491134	-0.702617	0.286626
06131		8.666792	0.117006	-4.575120	0.040280	-0.036452	-0.034591	-0.836914	-0.368408	0.297852	0.427456	0.491487	-0.702558	0.286592
06132		8.657260	0.250190	-4.647679	0.035948	-0.038129	-0.037767	-0.824951	-0.368408	0.296143	0.427201	0.491840	-0.702502	0.286503
06133		8.628269	0.330490	-4.806757	0.011234	-0.035546	-0.029936	-0.830322	-0.370361	0.298828	0.427044	0.492065	-0.702523	0.286298
06134		8.582638	0.223536	-4.901623	-0.004202	-0.027025	-0.029413	-0.840820	-0.371094	0.303467	0.426999	0.492208	-0.702556	0.286039
06135		8.622134	0.292836	-4.723486	-0.027108	-0.022475	-0.024069	-0.836670	-0.369629	0.299561	0.427056	0.492220	-0.702654	0.285692
06136		8.663311	-0.008676	-4.603819	-0.026051	-0.028403	-0.019825	-0.833252	-0.364746	0.302979	0.427069	0.492222	-0.702786	0.285344
06137		8.641498	0.005515	-4.525297	0.034637	-0.026717	-0.042057	-0.833252	-0.366211	0.304932	0.426874	0.492579	-0.702674	0.285294
06138		8.666993	0.241851	-4.549346	0.027758	-0.041016	-0.039439	-0.833740	-0.366943	0.302002	0.426616	0.492933	-0.702641	0.285151
06139		8.611079	0.169091	-4.717174	0.043481	-0.040570	-0.046260	-0.837891	-0.367676	0.301270	0.426324	0.493373	-0.702540	0.285078
06140		8.592640	0.170214	-4.776269	0.050949	-0.046414	-0.045279	-0.836182	-0.364746	0.306641	0.425972	0.493836	-0.702446	0.285030
06141		8.572036	0.155969	-4.639231	0.050259	-0.045427	-0.051724	-0.835938	-0.366455	0.310791	0.425624	0.494346	-0.702324	0.284970
06142		8.642407	0.273783	-4.678875	0.031757	-0.044461	-0.048514	-0.837402	-0.363281	0.308350	0.425343	0.494775	-0.702255	0.284813
06143		8.576151	0.222665	-4.763366	0.034429	-0.044228	-0.050389	-0.833008	-0.365967	0.303711	0.425060	0.495216	-0.702170	0.284680
06144		8.574640	0.384573	-4.804510	0.031665	-0.041950	-0.041293	-0.836914	-0.371094	0.312256	0.424799	0.495579	-0.702121	0.284559
06145		8.600945	0.203607	-4.796250	0.018390	-0.043790	-0.037725	-0.826904	-0.363770	0.313965	0.424561	0.495889	-0.702129	0.284353
06146		8.616069	0.228514	-4.779587	0.032136	-0.035678	-0.044137	-0.832031	-0.367920	0.312744	0.424306	0.496287	-0.702041	0.284257
06147		8.574258	0.311919	-4.865980	0.032232	-0.030287	-0.037236	-0.828613	-0.367432	0.312256	0.424082	0.496616	-0.701967	0.284200
06148		8.570197	0.297222	-4.881525	0.025438	-0.029388	-0.033487	-0.831055	-0.371338	0.312500	0.423882	0.496900	-0.701920	0.284118
06149		8.570752	0.334723	-4.863232	0.019852	-0.024443	-0.029742	-0.824463	-0.367920	0.305420	0.423736	0.497123	-0.701888	0.284026
06150		8.613949	0.311298	-4.793348	0.006987	-0.026067	-0.023011	-0.833008	-0.367188	0.308838	0.423629	0.497257	-0.701916	0.283880
06151		8.587006	0.300540	-4.850343	0.015505	-0.022489	-0.022062	-0.830322	-0.368408	0.318848	0.423499	0.497403	-0.701917	0.283816
06152		8.582293	0.361891	-4.830320	0.004983	-0.017480	-0.015182	-0.834717	-0.372559	0.308350	0.423398	0.497487	-0.701952	0.283732
06153		8.587593	0.120855	-4.800513	-0.000597	-0.018027	-0.012990	-0.830322	-0.374512	0.315918	0.423354	0.497503	-0.702019	0.283605
06154		8.569356	0.072972	-4.722561	0.018070	-0.015458	-0.024124	-0.829102	-0.367920	0.306396	0.423254	0.497667	-0.701986	0.283549
06155		8.558274	0.110290	-4.817227	0.033150	-0.015309	-0.035730	-0.836182	-0.367432	0.312256	0.423134	0.497933	-0.701863	0.283563
06156		8.586353	0.286970	-4.884210	0.031759	-0.014005	-0.035737	-0.836914	-0.371582	0.314941	0.423014	0.498197	-0.701738	0.283588
06157		8.581039	0.316148	-4.926598	0.023239	-0.007855	-0.037181	-0.828857	-0.372559	0.314941	0.422970	0.498425	-0.701610	0.283570
06158		8.576333	0.315517	-4.823786	0.012235	0.000642	-0.027954	-0.826416	-0.363770	0.317139	0.422997	0.498550	-0.701516	0.283542
06159		8.583801	0.076012	-4.790929	0.016788	0.000319	-0.034233	-0.827881	-0.367676	0.312256	0.422991	0.498748	-0.701373	0.283556
06160		8.530821	0.301545	-4.805594	0.046798	0.002637	-0.042697	-0.830811	-0.375000	0.308350	0.422918	0.499075	-0.701124	0.283707
06161		8.609268	0.505071	-4.764195	0.015773	-0.002369	-0.029039	-0.830566	-0.383057	0.305420	0.422942	0.499201	-0.701034	0.283673
06162		8.590184	0.328770	-4.750818	0.004774	0.000636	-0.021365	-0.830811	-0.373535	0.312500	0.423037	0.499216	-0.701005	0.283576
06163		8.576944	0.458101	-4.736523	-0.001964	-0.001548	-0.011935	-0.827393	-0.367432	0.311279	0.423082	0.499191	-0.701021	0.283514
06164		8.529976	0.356655	-4.897482	-0.005022	0.004660	-0.008038	-0.830322	-0.362549	0.315186	0.423155	0.499128	-0.701028	0.283497
06165		8.574355	0.331254	-4.781759	-0.025958	0.005097	0.002466	-0.829590	-0.362549	0.313232	0.423271	0.498945	-0.701117	0.283428
06166		8.584950	0.045956	-4.697626	-0.024340	0.004188	0.000271	-0.827881	-0.374756	0.310791	0.423385	0.498777	-0.701197	0.283353
06167		8.586963	0.189906	-4.805616	0.012924	0.007646	-0.012742	-0.836426	-0.370361	0.315186	0.423428	0.498786	-0.701146	0.283401
06168		8.542660	0.391046	-4.882167	-0.000647	0.006653	-0.008669	-0.837402	-0.370605	0.314941	0.423493	0.498735	-0.701136	0.283416
06169		8.588545	0.209398	-4.771810	-0.017599	0.007595	-0.005551	-0.838135	-0.368652	0.312500	0.423628	0.498602	-0.701178	0.283348
06170		8.597733	0.188699	-4.833411	0.009042	0.007627	-0.012901	-0.828857	-0.367188	0.303467	0.423672	0.498601	-0.701123	0.283417
06171		8.541052	0.314202	-4.788836	0.012285	0.005805	-0.017289	-0.826416	-0.380371	0.320312	0.423723	0.498628	-0.701053	0.283468
06172		8.572832	0.321617	-4.703463	-0.013729	0.006400	-0.009000	-0.832764	-0.367676	0.307861	0.423840	0.498546	-0.701089	0.283347
06173		8.646192	0.281567	-4.721919	-0.022670	0.003511	-0.005702	-0.828125	-0.361328	0.317383	0.423983	0.498397	-0.701155	0.283234
06174		8.633737	0.283950	-4.836071	-0.012476	0.002199	-0.008668	-0.828125	-0.374023	0.311768	0.424035	0.498355	-0.701165	0.283204
06175		8.611736	0.277711	-4.722768	-0.023357	0.002639	-0.002873	-0.830811	-0.379639	0.306396	0.424167	0.498196	-0.701256	0.283059
06176		8.595538	0.184196	-4.550619	-0.019667	-0.002931	-0.005833	-0.829590	-0.374756	0.307373	0.424288	0.498050	-0.701363	0.282871
06177		8.643084	0.333845	-4.751174	0.012561	-0.006568	-0.013314	-0.831787	-0.375977	0.310059	0.424256	0.498086	-0.701364	0.282855
06178		8.561474	0.666614	-4.877748	-0.010256	-0.005616	0.001576	-0.826904	-0.371582	0.308838	0.424285	0.497955	-0.701477	0.282762
06179		8.568901	0.393889	-4.680645	-0.055112	-0.002332	0.020983	-0.829590	-0.372070	0.305908	0.424464	0.497554	-0.701756	0.282504
06180		8.627997	0.130875	-4.699015	-0.029774	-0.003796	0.015523	-0.838867	-0.373779	0.308350	0.424554	0.497266	-0.701962	0.282365
06181		8.596580	0.282854	-4.819328	0.005906	-0.003676	0.006773	-0.833740	-0.366211	0.307373	0.424518	0.497149	-0.702048	0.282410
06182		8.519042	0.317922	-4.925128	-0.004613	0.000064	0.010049	-0.833008	-0.375977	0.313232	0.424523	0.496986	-0.702143	0.282453
06183		8.544353	0.252348	-4.864137	-0.027852	0.002609	0.012524	-0.828613	-0.369873	0.310059	0.424637	0.496718	-0.702313	0.282331
06184		8.597694	0.079247	-4.713019	-0.042901	-0.000969	0.009527	-0.832275	-0.379395	0.310059	0.424793	0.496433	-0.702507	0.282117
06185		8.560847	-0.134650	-4.775597	-0.009486	-0.005432	-0.012413	-0.828857	-0.369141	0.309326	0.424859	0.496378	-0.702571	0.281954
06186		8.526084	0.189094	-5.023373	0.019800	0.006111	-0.027637	-0.827637	-0.364746	0.312012	0.424883	0.496516	-0.702436	0.282011
06187		8.534515	0.470676	-4.937983	-0.014228	0.010817	-0.023295	-0.832031	-0.362305	0.309082	0.425045	0.496520	-0.702367	0.281932
06188		8.572444	0.314094	-4.764324	-0.057895	0.018433	-0.007664	-0.830566	-0.374268	0.311035	0.425400	0.496250	-0.702435	0.281701
06189		8.615876	0.131111	-4.798689	-0.051914	0.018323	-0.014097	-0.830811	-0.379150	0.312012	0.425764	0.496022	-0.702491	0.281415
06190		8.589482	0.200133	-4.794480	-0.033391	0.018070	-0.024905	-0.825684	-0.377686	0.303467	0.426080	0.495917	-0.702469	0.281176
06191		8.581229	0.241840	-4.883488	-0.028535	0.026296	-0.028359	-0.829102	-0.381104	0.307373	0.426450	0.495812	-0.702398	0.280977
06192		8.605095	0.305706	-4.855143	-0.043369	0.029788	-0.028395	-0.826904	-0.375244	0.300293	0.426897	0.495650	-0.702352	0.280700
06193		8.647383	0.312213	-4.775292	-0.049590	0.044070	-0.029829	-0.825684	-0.376709	0.308594	0.427460	0.495437	-0.702255	0.280463
06194		8.613386	0.323768	-4.883999	-0.046130	0.049346	-0.031235	-0.826172	-0.378174	0.302490	0.428014	0.495265	-0.702114	0.280272
06195		8.573459	0.295952	-4.910012	-0.042491	0.070224	-0.033728	-0.827148	-0.378174	0.301025	0.428700	0.495050	-0.701889	0.280166
06196		8.548694	0.349994	-4.681107	-0.053960	0.068724	-0.027177	-0.832031	-0.377930	0.307617	0.429409	0.494759	-0.701722	0.280013
06197		8.636091	0.328558	-4.482143	-0.062517	0.060907	-0.026128	-0.830566	-0.377441	0.299805	0.430079	0.494476	-0.701593	0.279809
06198		8.638951	0.412921	-4.667466	-0.034148	0.050066	-0.031350	-0.834473	-0.381348	0.303711	0.430599	0.494330	-0.701421	0.279698
06199		8.614581	0.752503	-4.655777	-0.037458	0.043054	-0.019128	-0.818848	-0.378418	0.299805	0.431057	0.494123	-0.701334	0.279577
06200		8.662144	0.635623	-4.580871	-0.083639	0.032049	0.009646	-0.834717	-0.377197	0.304688	0.431568	0.493621	-0.701508	0.279236
06201		8.653033	0.245279	-4.596879	-0.074898	0.026037	0.012664	-0.835449	-0.382812	0.297607	0.431987	0.493157	-0.701682	0.278974
06202		8.660122	0.462414	-4.446804	-0.054981	0.018513	0.007890	-0.828613	-0.380615	0.302734	0.432322	0.492770	-0.701842	0.278735
06203		8.649539	0.369827	-4.750627	-0.051734	0.019106	0.010741	-0.845947	-0.376953	0.296387	0.432615	0.492413	-0.701987	0.278544
06204		8.601872	0.425368	-4.861739	-0.039753	0.015257	0.011117	-0.830811	-0.384277	0.295410	0.432852	0.492074	-0.702120	0.278441
06205		8.606654	0.480134	-4.637718	-0.072957	0.018085	0.021274	-0.826416	-0.382812	0.298584	0.433230	0.491545	-0.702382	0.278127
06206		8.725700	0.287319	-4.462878	-0.109593	0.017462	0.028868	-0.834229	-0.377197	0.297119	0.433719	0.490865	-0.702751	0.277633
06207		8.697385	0.081637	-4.629834	-0.052165	0.013519	0.005997	-0.827881	-0.378906	0.297363	0.433994	0.490540	-0.702893	0.277420
06208		8.610152	0.329629	-4.950301	-0.001744	0.016902	-0.009483	-0.829590	-0.382812	0.290527	0.434116	0.490487	-0.702844	0.277444
06209		8.548725	0.480493	-4.920770	-0.027218	0.028349	-0.002995	-0.834961	-0.373291	0.290771	0.434426	0.490239	-0.702862	0.277353
06210		8.635411	0.297312	-4.569542	-0.083288	0.030199	0.012456	-0.837402	-0.373535	0.295654	0.434917	0.489714	-0.703040	0.277061
06211		8.633830	-0.068099	-4.701572	-0.035116	0.035815	-0.011003	-0.826416	-0.384521	0.293213	0.435281	0.489509	-0.702980	0.277004
06212		8.638457	0.382387	-4.710434	0.012800	0.038373	-0.035729	-0.831543	-0.381592	0.287109	0.435546	0.489596	-0.702729	0.277069
06213		8.670285	0.532093	-4.663246	-0.031663	0.037270	-0.019463	-0.829102	-0.383545	0.296143	0.435961	0.489408	-0.702654	0.276940
06214		8.644742	0.170721	-4.629714	-0.017916	0.039729	-0.023565	-0.837402	-0.381592	0.292725	0.436315	0.489328	-0.702507	0.276897
06215		8.612975	0.308613	-4.690423	0.041823	0.040667	-0.042177	-0.831299	-0.381348	0.291016	0.436481	0.489556	-0.702142	0.277157
06216		8.624940	0.528485	-4.618877	0.049899	0.043752	-0.040506	-0.833496	-0.380127	0.291260	0.436629	0.489799	-0.701755	0.277475
06217		8.639569	0.448138	-4.658859	0.031526	0.043043	-0.030324	-0.830566	-0.374023	0.287354	0.436820	0.489920	-0.701450	0.277731
06218		8.624242	0.426008	-4.821156	0.058877	0.052027	-0.036738	-0.833496	-0.382568	0.294922	0.436962	0.490161	-0.701014	0.278183
06219		8.637457	0.611778	-4.812277	0.061763	0.063499	-0.032233	-0.828125	-0.377686	0.291748	0.437144	0.490369	-0.700554	0.278690
06220		8.729498	0.620077	-4.672879	0.005966	0.065120	-0.010062	-0.831543	-0.393066	0.290039	0.437506	0.490247	-0.700300	0.278973
06221		8.742938	0.250550	-4.517781	-0.009649	0.069230	-0.007550	-0.830322	-0.381592	0.286865	0.437988	0.490004	-0.700115	0.279110
06222		8.668088	0.060900	-4.606830	0.043320	0.071771	-0.029830	-0.824463	-0.385498	0.281982	0.438301	0.490095	-0.699683	0.279540
06223		8.636195	0.335691	-4.687039	0.074389	0.075749	-0.048269	-0.832764	-0.378662	0.284180	0.438571	0.490382	-0.699103	0.280064
06224		8.673156	0.469088	-4.708055	0.032889	0.083597	-0.034962	-0.833252	-0.385010	0.285400	0.439005	0.490435	-0.698627	0.280478
06225		8.713869	0.354670	-4.596071	0.015398	0.088498	-0.031888	-0.835693	-0.385010	0.286865	0.439538	0.490391	-0.698195	0.280795
06226		8.668401	0.185980	-4.544432	0.026605	0.088584	-0.039739	-0.833984	-0.389404	0.283447	0.440036	0.490443	-0.697699	0.281159
06227		8.675957	0.286726	-4.547460	0.053041	0.084416	-0.053180	-0.830811	-0.377441	0.285400	0.440447	0.490664	-0.697113	0.281583
06228		8.770004	0.635892	-4.499866	0.037545	0.088643	-0.049176	-0.837402	-0.379639	0.281250	0.440900	0.490834	-0.696532	0.282015
06229		8.731090	0.665556	-4.540878	0.008293	0.091482	-0.037565	-0.833008	-0.385742	0.289795	0.441479	0.490797	-0.696068	0.282319
06230		8.741106	0.643136	-4.487024	-0.011657	0.092874	-0.020157	-0.826416	-0.386963	0.279541	0.442085	0.490619	-0.695707	0.282571
06231		8.822189	0.585676	-4.159245	-0.042215	0.086840	-0.004402	-0.839111	-0.385986	0.275879	0.442770	0.490223	-0.695520	0.282645
06232		8.817225	0.338596	-4.067969	-0.050289	0.073309	0.001830	-0.836182	-0.386475	0.277344	0.443405	0.489767	-0.695435	0.282650
06233		8.744103	0.269934	-4.359112	0.021905	0.064558	-0.023021	-0.837646	-0.383545	0.284424	0.443743	0.489760	-0.695102	0.282950
06234		8.714508	0.618738	-4.292605	0.028669	0.053028	-0.014915	-0.830322	-0.383301	0.275391	0.443937	0.489793	-0.694808	0.283308
06235		8.712754	0.254141	-4.410106	0.013703	0.044574	-0.007088	-0.832764	-0.389404	0.271973	0.444148	0.489722	-0.694626	0.283547
06236		8.704288	0.303871	-4.423609	0.068736	0.033764	-0.028753	-0.837402	-0.393555	0.275146	0.444145	0.489983	-0.694281	0.283947
06237		8.847092	0.843497	-3.983669	0.016707	0.029647	-0.015424	-0.839844	-0.390381	0.271973	0.444298	0.489985	-0.694130	0.284074
06238		8.953484	0.641345	-4.127422	-0.080938	0.023730	0.020631	-0.837646	-0.382324	0.279541	0.444734	0.489420	-0.694381	0.283753
06239		8.873103	0.438221	-4.391053	-0.056983	0.022102	0.014233	-0.839355	-0.386230	0.263428	0.445035	0.489033	-0.694524	0.283596
06240		8.756527	0.614222	-4.533145	-0.029242	0.022839	0.015322	-0.830811	-0.377686	0.278076	0.445281	0.488669	-0.694642	0.283548
06241		8.780368	0.484537	-4.410221	-0.052719	0.019028	0.028612	-0.836914	-0.377197	0.267822	0.445501	0.488238	-0.694836	0.283470
06242		8.802749	0.235586	-4.409650	-0.040759	0.010730	0.029627	-0.841797	-0.388184	0.270996	0.445655	0.487812	-0.695063	0.283406
06243		8.790333	0.129270	-4.248755	-0.018337	0.007763	0.012828	-0.840576	-0.381104	0.274902	0.445752	0.487573	-0.695185	0.283366
06244		8.750379	0.224646	-4.276861	0.003526	0.005644	-0.005078	-0.839844	-0.391602	0.271729	0.445764	0.487549	-0.695174	0.283415
06245		8.778039	0.478023	-4.020365	-0.030634	-0.003702	-0.004333	-0.832520	-0.381348	0.276123	0.445886	0.487397	-0.695295	0.283184
06246		8.825524	0.273584	-4.216894	-0.056696	-0.014261	0.000203	-0.830078	-0.388184	0.267822	0.446007	0.487187	-0.695511	0.282826
06247		8.725104	0.215674	-4.439653	0.009589	-0.024059	-0.027121	-0.832031	-0.391357	0.270264	0.445901	0.487372	-0.695516	0.282664
06248		8.804029	0.761304	-4.102213	-0.004262	-0.018110	-0.021896	-0.838135	-0.380615	0.265869	0.445874	0.487464	-0.695550	0.282462
06249		8.849709	0.561240	-4.175723	-0.055059	-0.025444	0.000663	-0.841064	-0.389893	0.273682	0.445955	0.487228	-0.695833	0.282045
06250		8.862219	0.516125	-4.202255	-0.020120	-0.033951	-0.001606	-0.835449	-0.392334	0.269287	0.445843	0.487179	-0.696046	0.281781
06251		8.866317	0.719423	-4.173609	-0.047951	-0.036802	0.011914	-0.833496	-0.387939	0.272949	0.445812	0.486946	-0.696394	0.281373
06252		8.769044	0.282272	-4.338652	-0.038640	-0.046540	0.011102	-0.831055	-0.387695	0.280273	0.445669	0.486795	-0.696741	0.281000
06253		8.730800	0.419974	-4.287793	-0.009101	-0.049427	0.006518	-0.838623	-0.388428	0.268799	0.445377	0.486821	-0.696994	0.280792
06254		8.742059	0.741144	-4.347066	-0.043590	-0.056662	0.018321	-0.838623	-0.384521	0.267822	0.445198	0.486602	-0.697435	0.280361
06255		8.672658	0.513794	-4.551198	-0.048347	-0.057889	0.024658	-0.841064	-0.391357	0.273438	0.445014	0.486324	-0.697920	0.279928
06256		8.743813	0.333996	-4.409070	-0.033865	-0.063390	0.025684	-0.838135	-0.390869	0.280762	0.444734	0.486124	-0.698388	0.279554
06257		8.793725	0.251557	-4.450839	0.015309	-0.068368	0.009614	-0.838379	-0.384766	0.274170	0.444240	0.486244	-0.698676	0.279407
06258		8.848363	0.768682	-4.402290	0.027946	-0.061654	0.012264	-0.838135	-0.373291	0.285400	0.443743	0.486348	-0.698937	0.279366
06259		8.774625	0.743319	-4.542713	-0.013949	-0.060592	0.038856	-0.837158	-0.382080	0.278809	0.443311	0.486179	-0.699378	0.279241
06260		8.693887	0.353277	-4.809665	0.004539	-0.051703	0.040828	-0.835205	-0.384277	0.279541	0.442887	0.486020	-0.699765	0.279220
06261		8.770144	0.577705	-4.421956	-0.016427	-0.047971	0.048510	-0.835938	-0.391357	0.275635	0.442556	0.485734	-0.700216	0.279114
06262		8.737964	0.264677	-4.543623	-0.057127	-0.042874	0.053364	-0.837158	-0.375244	0.278564	0.442433	0.485241	-0.700769	0.278778
06263		8.658816	-0.071598	-4.774422	-0.009920	-0.046953	0.032419	-0.832520	-0.374268	0.272705	0.442113	0.485056	-0.701143	0.278667
06264		8.610511	0.290239	-4.614975	0.004863	-0.044278	0.019795	-0.834961	-0.385010	0.276367	0.441794	0.484976	-0.701430	0.278591
06265		8.679331	0.212046	-4.662820	-0.009551	-0.044201	0.017209	-0.839111	-0.376709	0.278809	0.441548	0.484871	-0.701732	0.278404
06266		8.725199	0.349488	-4.562689	0.001479	-0.035632	0.003784	-0.833984	-0.377197	0.276855	0.441323	0.484859	-0.701927	0.278289
06267		8.702850	0.323814	-4.695008	-0.000482	-0.026178	0.000383	-0.833252	-0.383057	0.276123	0.441175	0.484839	-0.702076	0.278181
06268		8.652360	0.362996	-4.678394	0.004085	-0.020919	-0.004216	-0.837402	-0.377686	0.279785	0.441061	0.484851	-0.702176	0.278088
06269		8.702401	0.411268	-4.476914	-0.028601	-0.017177	0.002879	-0.841309	-0.380127	0.284180	0.441070	0.484694	-0.702368	0.277865
06270		8.726194	0.219184	-4.490096	-0.030813	-0.016586	0.000337	-0.841309	-0.376221	0.282471	0.441089	0.484553	-0.702546	0.277627
06271		8.690639	0.245364	-4.451635	0.012921	-0.017575	-0.018054	-0.832031	-0.385254	0.280762	0.440968	0.484674	-0.702559	0.277578
06272		8.723425	0.463231	-4.407011	0.007770	-0.021967	-0.014555	-0.831055	-0.377930	0.282715	0.440847	0.484784	-0.702600	0.277473
06273		8.698980	0.327005	-4.389777	0.007900	-0.025978	-0.016320	-0.836182	-0.381104	0.279053	0.440691	0.484917	-0.702648	0.277367
06274		8.666769	0.258434	-4.566539	0.058560	-0.025313	-0.029595	-0.841553	-0.379883	0.284668	0.440384	0.485286	-0.702537	0.277491
06275		8.706813	0.626878	-4.565238	0.065485	-0.026302	-0.027939	-0.837891	-0.379395	0.290527	0.440026	0.485680	-0.702418	0.277673
06276		8.723664	0.536712	-4.605741	0.024228	-0.035437	-0.010343	-0.835449	-0.380371	0.291260	0.439723	0.485869	-0.702483	0.277657
06277		8.696964	0.317264	-4.542908	0.028869	-0.033015	-0.013091	-0.837891	-0.385254	0.286621	0.439421	0.486091	-0.702514	0.277667
06278		8.724910	0.243746	-4.311853	0.034329	-0.041457	-0.009003	-0.829590	-0.375732	0.285645	0.439062	0.486306	-0.702590	0.277665
06279		8.755162	-0.010189	-4.560261	0.113189	-0.044546	-0.032873	-0.832031	-0.380859	0.289062	0.438408	0.486959	-0.702397	0.278041
06280		8.646383	0.630077	-4.535753	0.143223	-0.046419	-0.040543	-0.833496	-0.372803	0.288330	0.437641	0.487779	-0.702104	0.278553
06281		8.637583	0.519466	-4.778843	0.115766	-0.048882	-0.023597	-0.824707	-0.385498	0.284912	0.436929	0.488381	-0.701967	0.278960
06282		8.640414	0.538983	-4.711802	0.094954	-0.042209	-0.016104	-0.834229	-0.373779	0.286377	0.436348	0.488863	-0.701870	0.279270
06283		8.661781	0.441226	-4.389649	0.039670	-0.044395	0.002144	-0.833008	-0.378662	0.297607	0.435928	0.489007	-0.702008	0.279327
06284		8.742023	0.083601	-4.639016	0.064894	-0.048814	-0.004367	-0.837646	-0.375244	0.288818	0.435370	0.489341	-0.702048	0.279512
06285		8.757473	0.485573	-4.644556	0.118338	-0.039830	-0.022666	-0.828125	-0.381592	0.289307	0.434717	0.489900	-0.701887	0.279953
06286		8.678249	0.890581	-4.458768	0.062762	-0.043022	0.005389	-0.840088	-0.388672	0.290527	0.434211	0.490128	-0.701963	0.280151
06287		8.673068	0.382328	-4.625530	0.042463	-0.046566	0.024052	-0.836426	-0.373535	0.293945	0.433739	0.490161	-0.702185	0.280265
06288		8.599896	0.465778	-4.766593	0.080708	-0.037942	0.017170	-0.833740	-0.377197	0.302002	0.433150	0.490355	-0.702261	0.280645
06289		8.623522	0.598196	-4.878803	0.063510	-0.037592	0.027707	-0.833252	-0.375732	0.300049	0.432592	0.490465	-0.702396	0.280978
06290		8.646589	0.465127	-4.597594	0.002937	-0.030570	0.049367	-0.838867	-0.373291	0.300537	0.432279	0.490200	-0.702742	0.281056
06291		8.688292	0.113667	-4.397378	-0.023630	-0.031787	0.054498	-0.829346	-0.379395	0.298096	0.432056	0.489798	-0.703185	0.280990
06292		8.692305	0.129678	-4.494599	0.003364	-0.039365	0.040088	-0.837158	-0.372559	0.292236	0.431723	0.489617	-0.703517	0.280989
06293		8.607869	0.327257	-4.713549	0.035325	-0.041930	0.033250	-0.834717	-0.369141	0.298340	0.431275	0.489545	-0.703786	0.281127
06294		8.664697	0.375496	-4.620691	0.017104	-0.042697	0.043493	-0.830566	-0.370361	0.299072	0.430853	0.489373	-0.704130	0.281213
06295		8.750534	0.153010	-4.590510	0.039859	-0.042847	0.039871	-0.838135	-0.373779	0.295654	0.430345	0.489318	-0.704398	0.281418
06296		8.643270	0.197263	-4.631130	0.057662	-0.045360	0.032125	-0.834961	-0.372070	0.301270	0.429790	0.489347	-0.704616	0.281667
06297		8.544706	0.107488	-4.770706	0.052300	-0.046733	0.028479	-0.833496	-0.362061	0.297363	0.429240	0.489408	-0.704823	0.281882
06298		8.490336	0.088349	-4.811727	0.033160	-0.049280	0.027277	-0.832031	-0.372070	0.299072	0.428758	0.489386	-0.705096	0.281971
06299		8.548749	-0.038033	-4.945072	0.055349	-0.046473	0.009470	-0.842773	-0.364990	0.304199	0.428253	0.489560	-0.705220	0.282125
06300		8.641497	0.068150	-4.962588	0.070770	-0.035908	-0.003210	-0.829102	-0.362061	0.295654	0.427764	0.489822	-0.705232	0.282383
06301		8.678591	0.257943	-4.677807	0.041649	-0.031326	-0.002093	-0.838379	-0.359375	0.300049	0.427432	0.489955	-0.705303	0.282479
06302		8.650151	0.086419	-4.451654	-0.009002	-0.032533	0.006976	-0.832031	-0.374512	0.307373	0.427272	0.489847	-0.705541	0.282313
06303		8.603044	-0.161419	-4.758555	0.042163	-0.032703	-0.017500	-0.825195	-0.367920	0.306641	0.426954	0.490124	-0.705524	0.282357
06304		8.555932	0.325880	-4.829296	0.062727	-0.027536	-0.033317	-0.838623	-0.377930	0.306152	0.426611	0.490558	-0.705373	0.282498
06305		8.606441	0.357051	-4.809103	-0.001207	-0.027035	-0.015142	-0.837646	-0.365723	0.304443	0.426515	0.490629	-0.705459	0.282302
06306		8.556349	0.049382	-4.764169	-0.009054	-0.023098	-0.013767	-0.829102	-0.366699	0.309326	0.426460	0.490637	-0.705569	0.282097
06307		8.668589	0.172011	-4.581700	0.009135	-0.025114	-0.022194	-0.826904	-0.367676	0.312500	0.426322	0.490803	-0.705586	0.281976
06308		8.612724	0.093954	-4.705220	0.031898	-0.030454	-0.031228	-0.832031	-0.371338	0.302979	0.426071	0.491131	-0.705523	0.281942
06309		8.559670	0.162652	-4.771217	0.058709	-0.024409	-0.039205	-0.833008	-0.370605	0.303955	0.425802	0.491539	-0.705368	0.282027
06310		8.596339	0.337846	-4.704656	0.044805	-0.023040	-0.034843	-0.835449	-0.369141	0.307617	0.425586	0.491865	-0.705260	0.282053
06311		8.643426	0.346844	-4.861605	0.037939	-0.025151	-0.030761	-0.836914	-0.375977	0.300537	0.425367	0.492153	-0.705191	0.282054
06312		8.645163	0.370623	-4.687766	0.039488	-0.019607	-0.024031	-0.831055	-0.367676	0.305664	0.425189	0.492367	-0.705139	0.282079
06313		8.643230	0.162158	-4.728858	0.032363	-0.017851	-0.019809	-0.831055	-0.367432	0.304932	0.425013	0.492549	-0.705104	0.282113
06314		8.587509	0.147142	-4.682486	0.047636	-0.018968	-0.024340	-0.835449	-0.371338	0.309326	0.424782	0.492811	-0.705020	0.282214
06315		8.654252	0.001333	-4.811693	0.057441	-0.018976	-0.030615	-0.833984	-0.367676	0.313965	0.424522	0.493151	-0.704884	0.282351
06316		8.573869	0.102495	-4.730853	0.035155	-0.009638	-0.035416	-0.828613	-0.368896	0.313477	0.424402	0.493434	-0.704739	0.282397
06317		8.479281	0.520913	-4.878579	0.010516	-0.007739	-0.029009	-0.832520	-0.368408	0.313965	0.424381	0.493597	-0.704666	0.282326
06318		8.493824	0.526477	-4.826987	0.000731	-0.005292	-0.015520	-0.831543	-0.366211	0.309814	0.424383	0.493632	-0.704669	0.282256
06319		8.658846	0.449142	-4.896375	0.013778	-0.008466	-0.001972	-0.832031	-0.365967	0.313721	0.424289	0.493626	-0.704716	0.282292
06320		8.685831	0.404312	-4.596931	0.026450	-0.004967	0.009798	-0.839111	-0.370117	0.307373	0.424125	0.493600	-0.704762	0.282467
06321		8.650182	0.262002	-4.666035	0.017662	-0.010727	0.015020	-0.838135	-0.366699	0.307373	0.423980	0.493489	-0.704891	0.282558
06322		8.585455	0.227322	-4.847426	0.047045	-0.010061	0.007332	-0.833496	-0.361816	0.304932	0.423731	0.493526	-0.704916	0.282804
06323		8.513556	0.300070	-4.807949	0.013656	-0.008229	0.016729	-0.822998	-0.363281	0.310303	0.423607	0.493382	-0.705053	0.282898
06324		8.538457	-0.201362	-4.853829	-0.002006	-0.009572	0.007147	-0.834473	-0.366455	0.311768	0.423544	0.493286	-0.705168	0.282873
06325		8.544507	-0.209343	-4.823765	0.032454	-0.006484	-0.018953	-0.836914	-0.372803	0.310791	0.423427	0.493440	-0.705095	0.282963
06326		8.608636	0.044647	-4.825445	0.024499	-0.008917	-0.031822	-0.829834	-0.369873	0.308105	0.423372	0.493639	-0.705000	0.282933
06327		8.594618	0.209408	-4.770566	0.005707	-0.004584	-0.029976	-0.834229	-0.359619	0.308838	0.423415	0.493753	-0.704940	0.282819
06328		8.597437	0.152906	-4.772872	0.004846	-0.005592	-0.028711	-0.835938	-0.367920	0.309326	0.423439	0.493851	-0.704895	0.282727
06329		8.590463	0.214809	-4.689135	0.010067	-0.002294	-0.034397	-0.829834	-0.367432	0.312744	0.423485	0.493992	-0.704804	0.282640
06330		8.585317	0.181824	-4.649635	0.008827	-0.008058	-0.030419	-0.832764	-0.369141	0.306885	0.423478	0.494143	-0.704738	0.282547
06331		8.549054	0.204624	-4.796909	0.038143	-0.008545	-0.041730	-0.829346	-0.372070	0.317871	0.423396	0.494437	-0.704574	0.282566
06332		8.514961	0.521981	-4.791259	0.027209	-0.011383	-0.031804	-0.835938	-0.369629	0.311279	0.423290	0.494687	-0.704463	0.282564
06333		8.610950	0.303981	-4.701750	-0.016765	-0.010669	-0.014830	-0.832520	-0.371582	0.322021	0.423350	0.494641	-0.704543	0.282355
06334		8.627165	0.067797	-4.792034	0.021276	-0.011302	-0.025364	-0.835205	-0.366455	0.307129	0.423245	0.494840	-0.704468	0.282352
06335		8.579194	0.273881	-4.665651	0.024931	-0.011351	-0.026779	-0.833496	-0.362793	0.314697	0.423162	0.494998	-0.704410	0.282343
06336		8.605101	0.145183	-4.773418	0.001542	-0.010957	-0.021901	-0.836914	-0.365967	0.309082	0.423141	0.495075	-0.704408	0.282243
06337		8.549836	0.195368	-4.806783	0.024405	-0.008806	-0.031836	-0.836670	-0.371582	0.316650	0.423083	0.495257	-0.704321	0.282229
06338		8.636398	0.334769	-4.801323	0.015847	-0.008754	-0.027273	-0.840332	-0.358643	0.312500	0.423039	0.495410	-0.704258	0.282184
06339		8.587003	0.308742	-4.929198	0.016438	-0.002649	-0.024819	-0.832275	-0.376465	0.316162	0.423016	0.495514	-0.704191	0.282203
06340		8.544264	0.341386	-4.857862	0.027406	-0.002077	-0.017917	-0.822021	-0.362549	0.317383	0.422947	0.495641	-0.704116	0.282272
06341		8.568661	0.247760	-4.569488	-0.000125	-0.004132	-0.003259	-0.822510	-0.363281	0.315186	0.422915	0.495615	-0.704155	0.282265
06342		8.615791	0.060765	-4.666724	0.036487	-0.010090	-0.018945	-0.828613	-0.368164	0.309814	0.422742	0.495815	-0.704070	0.282385
06343		8.602448	0.416313	-4.712369	0.056029	-0.014745	-0.021901	-0.829590	-0.373535	0.311523	0.422494	0.496078	-0.703963	0.282562
06344		8.581060	0.306707	-4.873540	0.040368	-0.014471	-0.012929	-0.826172	-0.370605	0.314941	0.422297	0.496234	-0.703929	0.282667
06345		8.562080	0.288852	-4.648946	0.032736	-0.017661	-0.007541	-0.834717	-0.367188	0.317383	0.422086	0.496357	-0.703937	0.282749
06346		8.632457	0.113909	-4.673732	0.044423	-0.019932	-0.008946	-0.831055	-0.372070	0.314697	0.421811	0.496527	-0.703921	0.282900
06347		8.595737	0.295004	-4.715761	0.074570	-0.022037	-0.019656	-0.828125	-0.368896	0.313721	0.421438	0.496864	-0.703802	0.283158
06348		8.612086	0.507516	-4.755952	0.042807	-0.024707	-0.004480	-0.823486	-0.365723	0.311279	0.421144	0.497007	-0.703830	0.283277
06349		8.568018	0.302973	-4.982223	0.022179	-0.016234	0.007239	-0.824463	-0.369629	0.312256	0.420958	0.496987	-0.703925	0.283352
06350		8.525198	0.190425	-4.760006	0.009842	-0.015079	0.015266	-0.832520	-0.367432	0.322754	0.420816	0.496872	-0.704081	0.283377
06351		8.546902	-0.049426	-4.993745	0.037274	-0.012978	0.000559	-0.827881	-0.367920	0.313721	0.420581	0.496960	-0.704089	0.283551
06352		8.534600	0.407136	-4.831950	0.027640	-0.009861	0.002740	-0.833740	-0.369873	0.317627	0.420424	0.496966	-0.704133	0.283663
06353		8.610435	0.400138	-4.851537	-0.041467	-0.009881	0.023970	-0.831543	-0.362549	0.318848	0.420499	0.496607	-0.704429	0.283446
06354		8.540182	0.108927	-4.725372	-0.042716	-0.004236	0.023425	-0.826660	-0.370361	0.320068	0.420597	0.496248	-0.704694	0.283270
06355		8.574759	-0.091687	-4.739659	-0.024185	-0.013780	0.014699	-0.832275	-0.365479	0.316895	0.420590	0.496037	-0.704912	0.283109
06356		8.539989	0.085474	-5.091401	0.043093	-0.008822	-0.008017	-0.833496	-0.367676	0.322266	0.420390	0.496165	-0.704867	0.283293
06357		8.511584	0.555833	-4.887036	-0.015191	0.000530	0.012137	-0.835938	-0.375732	0.317871	0.420431	0.495963	-0.705003	0.283248
06358		8.550682	0.057514	-4.708576	-0.070588	-0.000382	0.025186	-0.826172	-0.365234	0.318359	0.420690	0.495466	-0.705345	0.282881
06359		8.594238	-0.165187	-4.784502	-0.008450	-0.003966	0.002901	-0.834473	-0.364990	0.312988	0.420698	0.495355	-0.705441	0.282823
06360		8.530458	0.132374	-4.708955	0.023631	-0.009176	-0.014098	-0.830566	-0.364990	0.315918	0.420602	0.495436	-0.705426	0.282862
06361		8.583206	0.147915	-4.760412	0.002765	-0.014416	-0.010359	-0.826172	-0.361084	0.317383	0.420544	0.495450	-0.705486	0.282775
06362		8.564984	0.014307	-4.838434	0.021762	-0.016312	-0.022180	-0.832520	-0.372070	0.317871	0.420411	0.495620	-0.705449	0.282767
06363		8.551409	0.275257	-4.867014	0.031790	-0.013219	-0.027280	-0.833496	-0.367188	0.319580	0.420288	0.495829	-0.705372	0.282777
06364		8.495901	0.114041	-4.894083	0.006081	-0.005884	-0.021321	-0.823975	-0.367188	0.316895	0.420289	0.495902	-0.705347	0.282708
06365		8.562163	0.037716	-4.790780	-0.004946	-0.008189	-0.024242	-0.826904	-0.367432	0.316650	0.420331	0.495965	-0.705343	0.282546
06366		8.579108	-0.067133	-4.814125	0.017565	-0.007323	-0.039418	-0.834229	-0.370605	0.311523	0.420322	0.496189	-0.705222	0.282467
06367		8.578798	0.182052	-4.758969	0.025544	-0.010510	-0.046792	-0.831299	-0.359863	0.317871	0.420302	0.496456	-0.705083	0.282375
06368		8.533719	0.131760	-4.845954	0.028328	-0.011547	-0.046946	-0.823730	-0.356201	0.317383	0.420229	0.496776	-0.704912	0.282350
06369		8.587678	0.431292	-4.799113	0.016587	-0.010740	-0.045344	-0.829102	-0.371582	0.315674	0.420196	0.497056	-0.704763	0.282276
06370		8.569462	0.318162	-4.802794	-0.007267	-0.002996	-0.036404	-0.829346	-0.370850	0.326904	0.420319	0.497149	-0.704708	0.282066
06371		8.529216	0.197531	-4.651823	-0.007127	-0.011459	-0.032202	-0.822754	-0.373535	0.319336	0.420351	0.497280	-0.704675	0.281869
06372		8.546187	-0.020498	-4.688747	0.025112	-0.022313	-0.041609	-0.822754	-0.368652	0.320068	0.420229	0.497585	-0.704579	0.281754
06373		8.557325	0.303074	-4.903763	0.091233	-0.022664	-0.058845	-0.829590	-0.368164	0.320068	0.419860	0.498229	-0.704250	0.281987
06374		8.578780	0.889195	-4.834972	0.026765	-0.021207	-0.029046	-0.820557	-0.368896	0.314941	0.419703	0.498456	-0.704197	0.281954
06375		8.591828	0.370082	-4.897332	-0.044835	-0.016839	0.003271	-0.833252	-0.364746	0.312256	0.419804	0.498225	-0.704437	0.281613
06376		8.535324	0.128066	-4.770147	-0.014128	-0.011497	-0.001502	-0.828125	-0.376221	0.323975	0.419826	0.498093	-0.704573	0.281473
06377		8.507366	0.061438	-4.898522	0.011947	-0.017945	-0.011905	-0.820557	-0.373047	0.312744	0.419712	0.498164	-0.704618	0.281404
06378		8.513034	0.215048	-5.053236	0.015193	-0.009396	-0.022891	-0.821777	-0.373779	0.314697	0.419681	0.498265	-0.704593	0.281333
06379		8.560813	0.457905	-4.955661	-0.018027	-0.005680	-0.007693	-0.816650	-0.369385	0.317871	0.419772	0.498154	-0.704695	0.281138
06380		8.559406	0.232041	-4.897614	-0.044364	-0.000826	0.001326	-0.822266	-0.370361	0.316895	0.419961	0.497913	-0.704863	0.280863
06381		8.540609	0.132709	-4.785480	-0.040145	0.005491	-0.001456	-0.823486	-0.371826	0.321777	0.420181	0.497676	-0.704993	0.280627
06382		8.526146	0.115767	-4.909730	-0.022344	0.006557	-0.011932	-0.825195	-0.368164	0.318359	0.420347	0.497577	-0.705026	0.280471
