// Start Time: Unknown
// Update Rate: 60.0Hz
// Filter Profile: human (46.1)
// Firmware Version: 4.6.0
PacketCounter	SampleTimeFine	Acc_X	Acc_Y	Acc_Z	Gyr_X	Gyr_Y	Gyr_Z	Mag_X	Mag_Y	Mag_Z	Quat_q0	Quat_q1	Quat_q2	Quat_q3
01791		9.654543	-0.222453	-2.264328	-0.032763	-0.006762	-0.002923	-0.679932	0.338867	0.303223	0.342954	-0.663230	-0.417416	-0.517950
01792		9.622272	-0.168645	-2.260257	-0.036507	0.003834	-0.017333	-0.682617	0.333740	0.293701	0.342690	-0.663258	-0.417343	-0.518148
01793		9.610232	0.038461	-2.355909	-0.011060	0.016311	-0.021415	-0.676025	0.345703	0.302734	0.342597	-0.663134	-0.417369	-0.518347
01794		9.544426	0.003397	-2.261630	0.004092	0.021682	-0.007988	-0.683838	0.341309	0.294678	0.342657	-0.663001	-0.417372	-0.518476
01795		9.550845	-0.065821	-2.233499	-0.008361	0.024141	-0.005181	-0.676025	0.336914	0.288574	0.342666	-0.662900	-0.417301	-0.518655
01796		9.621371	-0.086445	-2.336050	-0.009072	0.028746	-0.014337	-0.682373	0.333496	0.302979	0.342644	-0.662749	-0.417267	-0.518891
01797		9.575341	-0.048660	-2.351239	0.028240	0.032297	-0.024801	-0.681885	0.339111	0.299072	0.342789	-0.662439	-0.417446	-0.519046
01798		9.567255	-0.002679	-2.281077	0.055067	0.029197	-0.028177	-0.678955	0.338135	0.302734	0.343049	-0.662055	-0.417775	-0.519100
01799		9.519342	0.032845	-2.233254	0.036654	0.023782	-0.028855	-0.677979	0.341309	0.295654	0.343176	-0.661742	-0.418051	-0.519192
01800		9.568866	0.134171	-2.208548	0.018502	0.017482	-0.039736	-0.678467	0.336914	0.296631	0.343123	-0.661467	-0.418336	-0.519350
01801		9.593920	0.192756	-2.237188	0.007238	0.014953	-0.047415	-0.681152	0.344238	0.295166	0.342950	-0.661199	-0.418633	-0.519565
01802		9.652087	0.188694	-2.166833	-0.000567	0.008997	-0.040416	-0.683105	0.336182	0.299805	0.342723	-0.660994	-0.418892	-0.519767
01803		9.598326	0.133787	-2.146066	-0.028078	0.000245	-0.035583	-0.687256	0.338379	0.297607	0.342317	-0.660909	-0.419044	-0.520020
01804		9.590180	0.027160	-2.163810	-0.029979	-0.002217	-0.039878	-0.687988	0.333984	0.300049	0.341860	-0.660812	-0.419230	-0.520293
01805		9.581456	-0.028709	-2.126254	-0.013834	-0.001945	-0.049417	-0.678711	0.331543	0.304443	0.341445	-0.660629	-0.419542	-0.520548
01806		9.625550	0.005170	-2.090574	-0.009351	0.001500	-0.052100	-0.677490	0.337158	0.299561	0.341062	-0.660408	-0.419867	-0.520817
01807		9.631214	0.079673	-2.083951	0.001768	0.007614	-0.044268	-0.681396	0.330322	0.305420	0.340800	-0.660143	-0.420185	-0.521068
01808		9.621491	0.106967	-2.055265	0.004174	0.008576	-0.036255	-0.680664	0.335938	0.297852	0.340572	-0.659884	-0.420467	-0.521317
01809		9.585952	0.063580	-2.053212	-0.013160	0.008724	-0.027545	-0.686523	0.332764	0.301514	0.340297	-0.659684	-0.420640	-0.521610
01810		9.622529	0.044633	-2.146373	-0.017881	0.002259	-0.023862	-0.684570	0.337891	0.303223	0.339968	-0.659520	-0.420796	-0.521906
01811		9.628979	-0.020621	-2.120251	-0.016287	0.017481	-0.031268	-0.679932	0.333496	0.294678	0.339667	-0.659255	-0.420954	-0.522309
01812		9.616494	0.072422	-2.158383	-0.009511	0.016583	-0.020894	-0.682617	0.332275	0.299805	0.339504	-0.659027	-0.421079	-0.522602
01813		9.543582	0.142994	-2.155779	-0.013486	0.010380	-0.018719	-0.673584	0.330566	0.300293	0.339272	-0.658839	-0.421187	-0.522903
01814		9.568495	0.142356	-2.157511	-0.014488	0.003363	-0.028877	-0.683838	0.324951	0.291748	0.338995	-0.658691	-0.421326	-0.523157
01815		9.590551	0.153178	-2.200386	-0.001518	-0.003024	-0.036380	-0.683838	0.333740	0.299316	0.338719	-0.658454	-0.421654	-0.523369
01816		9.618881	0.094257	-2.218683	0.011653	0.004987	-0.041345	-0.679199	0.332764	0.302734	0.338477	-0.658117	-0.422044	-0.523636
01817		9.605804	0.078841	-2.221730	0.020651	0.013640	-0.036925	-0.684082	0.331299	0.298584	0.338338	-0.657773	-0.422381	-0.523885
01818		9.589164	0.122341	-2.208590	0.033534	0.013182	-0.032383	-0.685547	0.334473	0.295410	0.338286	-0.657384	-0.422793	-0.524075
01819		9.591388	0.173143	-2.195253	0.036182	0.006536	-0.030230	-0.681152	0.333496	0.310547	0.338247	-0.657003	-0.423259	-0.524202
01820		9.587050	0.294185	-2.207004	0.036087	0.008073	-0.032932	-0.692139	0.333740	0.297852	0.338112	-0.656686	-0.423611	-0.524401
01821		9.603667	0.338600	-2.207289	0.029128	0.008923	-0.028313	-0.683594	0.328369	0.297607	0.337978	-0.656285	-0.424072	-0.524618
01822		9.607166	0.251871	-2.175436	-0.002844	0.007202	-0.015992	-0.680176	0.337891	0.295166	0.337768	-0.656109	-0.424252	-0.524827
01823		9.596598	0.178252	-2.214461	-0.023176	0.003747	-0.009747	-0.681396	0.330811	0.303711	0.337513	-0.656013	-0.424345	-0.525036
01824		9.578360	0.247022	-2.184485	-0.013444	0.011427	-0.011043	-0.682129	0.324463	0.295898	0.337234	-0.655907	-0.424383	-0.525317
01825		9.598305	0.308495	-2.190048	0.001816	0.011356	-0.000615	-0.687500	0.327881	0.295898	0.337156	-0.655773	-0.424483	-0.525454
01826		9.566401	0.301929	-2.155691	-0.014892	0.012011	-0.000374	-0.686279	0.339355	0.299072	0.336941	-0.655625	-0.424569	-0.525706
01827		9.535045	0.281140	-2.243095	-0.062762	0.007904	0.003624	-0.685059	0.327881	0.295898	0.336451	-0.655638	-0.424431	-0.526116
01828		9.580338	0.280898	-2.223817	-0.059813	0.003489	0.006156	-0.683594	0.328613	0.300049	0.336014	-0.655702	-0.424290	-0.526428
01829		9.589372	0.310398	-2.194663	-0.035008	0.004814	0.009212	-0.679688	0.325439	0.293213	0.335691	-0.655743	-0.424188	-0.526667
01830		9.580136	0.296363	-2.100177	-0.051754	0.006229	0.008118	-0.679443	0.331787	0.305420	0.335405	-0.655810	-0.424046	-0.526879
01831		9.591834	0.227160	-2.182332	-0.090744	0.002460	0.007640	-0.688965	0.322510	0.298828	0.334729	-0.656074	-0.423630	-0.527315
01832		9.608583	0.137916	-2.184743	-0.074135	0.003966	0.006809	-0.681641	0.326660	0.304688	0.334148	-0.656165	-0.423434	-0.527727
01833		9.615203	0.068494	-2.159637	-0.054410	0.006098	0.010345	-0.678711	0.328613	0.303223	0.333699	-0.656315	-0.423164	-0.528041
01834		9.607918	0.034653	-2.166728	-0.054160	0.009714	0.011495	-0.679688	0.328857	0.297607	0.333340	-0.656463	-0.422867	-0.528322
01835		9.567633	0.051395	-2.169116	-0.048734	0.008495	0.006423	-0.678223	0.338379	0.311035	0.333087	-0.656519	-0.422701	-0.528545
01836		9.606574	0.098848	-2.211882	-0.041270	0.004930	0.001277	-0.688477	0.331543	0.301270	0.332658	-0.656694	-0.422429	-0.528815
01837		9.609269	0.045823	-2.247414	-0.046917	0.000654	-0.001090	-0.686523	0.336182	0.295898	0.332245	-0.656721	-0.422364	-0.529093
01838		9.595348	-0.003947	-2.206298	-0.032568	0.000756	0.000427	-0.685059	0.333252	0.302002	0.332063	-0.656675	-0.422394	-0.529240
01839		9.604841	0.078190	-2.185247	-0.030281	0.001410	-0.000607	-0.684326	0.327148	0.300537	0.331804	-0.656705	-0.422338	-0.529410
01840		9.594090	0.135742	-2.223044	-0.029929	0.001626	-0.003083	-0.677734	0.337646	0.303223	0.331563	-0.656724	-0.422302	-0.529567
01841		9.620833	0.047390	-2.216161	-0.012455	0.000493	-0.003523	-0.679688	0.329102	0.296143	0.331465	-0.656780	-0.422255	-0.529596
01842		9.596827	-0.004857	-2.185368	0.009477	0.004083	-0.002418	-0.680908	0.331787	0.296631	0.331592	-0.656670	-0.422391	-0.529544
01843		9.589420	0.005287	-2.116652	0.026947	0.010470	-0.008470	-0.678223	0.325439	0.294434	0.331806	-0.656464	-0.422611	-0.529490
01844		9.576901	0.147192	-2.163049	0.017829	0.005374	-0.012749	-0.680908	0.329346	0.301270	0.331959	-0.656294	-0.422824	-0.529435
01845		9.601656	0.254094	-2.200545	0.010145	0.002834	-0.017161	-0.682861	0.336182	0.303955	0.331918	-0.656203	-0.422972	-0.529454
01846		9.599158	0.179550	-2.167096	0.004498	-0.001439	-0.019538	-0.680908	0.331543	0.304932	0.331804	-0.656155	-0.423102	-0.529482
01847		9.603184	0.013477	-2.148058	-0.011481	-0.000386	-0.024209	-0.678467	0.335938	0.299561	0.331556	-0.656161	-0.423165	-0.529580
01848		9.612745	-0.033468	-2.130171	0.004905	-0.002616	-0.022770	-0.688721	0.333740	0.305908	0.331546	-0.656093	-0.423320	-0.529547
01849		9.625947	0.013031	-2.087269	0.023561	0.003945	-0.025873	-0.683105	0.328125	0.306885	0.331467	-0.655940	-0.423555	-0.529598
01850		9.616519	0.067134	-2.104327	0.032191	0.009928	-0.027375	-0.690186	0.328857	0.302490	0.331442	-0.655784	-0.423784	-0.529623
01851		9.597783	0.061293	-2.103984	0.038640	0.006805	-0.017414	-0.683838	0.326904	0.300537	0.331522	-0.655563	-0.424060	-0.529625
01852		9.585350	0.071733	-2.153377	0.034768	0.007149	-0.016076	-0.684570	0.327393	0.302734	0.331653	-0.655378	-0.424293	-0.529586
01853		9.601997	0.092034	-2.191600	0.034888	0.003734	-0.019685	-0.687256	0.329346	0.296143	0.331718	-0.655224	-0.424535	-0.529542
01854		9.579593	0.154700	-2.260316	-0.004759	-0.003018	-0.023639	-0.683838	0.333740	0.301758	0.331632	-0.655105	-0.424693	-0.529617
01855		9.587866	0.112863	-2.262650	0.006170	-0.004496	-0.022667	-0.678711	0.338379	0.305664	0.331565	-0.655071	-0.424823	-0.529596
01856		9.620011	-0.016624	-2.214364	0.020922	-0.004924	-0.022268	-0.678467	0.325684	0.296143	0.331585	-0.655095	-0.424951	-0.529451
01857		9.605446	-0.029649	-2.239475	0.029209	-0.000391	-0.025504	-0.681152	0.334473	0.301758	0.331717	-0.654921	-0.425233	-0.529357
01858		9.579744	0.035672	-2.264446	0.027174	0.001328	-0.027535	-0.681641	0.329590	0.302490	0.331798	-0.654820	-0.425444	-0.529262
01859		9.599161	0.174144	-2.241115	0.032552	0.001515	-0.031847	-0.678711	0.335693	0.300537	0.331839	-0.654683	-0.425725	-0.529180
01860		9.593522	0.169017	-2.275161	0.005079	0.001247	-0.028502	-0.684326	0.331787	0.303467	0.331835	-0.654655	-0.425831	-0.529132
01861		9.622729	0.087034	-2.331717	-0.011497	-0.000961	-0.029744	-0.684814	0.331787	0.290283	0.331624	-0.654666	-0.425908	-0.529189
01862		9.606578	0.050864	-2.330318	0.004966	0.004039	-0.026989	-0.685303	0.330811	0.299316	0.331719	-0.654477	-0.426057	-0.529243
01863		9.553713	0.087978	-2.242116	0.052089	0.007932	-0.026042	-0.680908	0.329346	0.296631	0.331954	-0.654241	-0.426385	-0.529122
01864		9.583048	0.174147	-2.199287	0.072451	0.011956	-0.026691	-0.680908	0.326660	0.301514	0.332357	-0.653926	-0.426797	-0.528927
01865		9.589918	0.245049	-2.254863	0.070306	0.016450	-0.027201	-0.685791	0.331543	0.295654	0.332666	-0.653640	-0.427205	-0.528757
01866		9.601726	0.243034	-2.222443	0.064026	0.010953	-0.023250	-0.692139	0.333008	0.292236	0.333019	-0.653349	-0.427557	-0.528610
01867		9.603218	0.187612	-2.192633	0.041465	0.012186	-0.024479	-0.681396	0.332764	0.302246	0.333258	-0.653056	-0.427808	-0.528618
01868		9.585045	0.211414	-2.237813	0.045406	0.011060	-0.024431	-0.682373	0.331299	0.303955	0.333449	-0.652914	-0.428079	-0.528453
01869		9.589571	0.280146	-2.230856	0.050024	0.004262	-0.022941	-0.677490	0.328369	0.294922	0.333605	-0.652802	-0.428398	-0.528235
01870		9.566141	0.334109	-2.215856	0.026763	0.003830	-0.023452	-0.678711	0.329834	0.293457	0.333734	-0.652677	-0.428627	-0.528122
01871		9.581752	0.296221	-2.162348	-0.001593	0.004819	-0.021399	-0.686279	0.335449	0.299072	0.333739	-0.652622	-0.428706	-0.528123
01872		9.615896	0.227080	-2.203040	-0.017653	0.008949	-0.015634	-0.685303	0.326904	0.299561	0.333639	-0.652661	-0.428642	-0.528191
01873		9.619107	0.145213	-2.190941	-0.022299	0.009663	-0.010728	-0.684570	0.329590	0.294678	0.333465	-0.652690	-0.428600	-0.528298
01874		9.580711	0.061702	-2.240719	-0.032049	0.010665	-0.010894	-0.682129	0.333496	0.306641	0.333325	-0.652716	-0.428471	-0.528458
01875		9.565058	0.127647	-2.254251	0.011494	0.008104	-0.015717	-0.688965	0.332275	0.293945	0.333320	-0.652756	-0.428574	-0.528329
01876		9.567874	0.171497	-2.221015	0.043970	0.009783	-0.020044	-0.682373	0.327637	0.299805	0.333556	-0.652539	-0.428795	-0.528269
01877		9.625554	0.124053	-2.245704	0.032693	0.017716	-0.022856	-0.681152	0.331055	0.290283	0.333687	-0.652359	-0.429036	-0.528213
01878		9.608999	0.090499	-2.261442	0.036115	0.019331	-0.022288	-0.685059	0.333984	0.299072	0.333972	-0.652115	-0.429210	-0.528193
01879		9.594875	0.151142	-2.253587	0.045042	0.018958	-0.025403	-0.682861	0.329346	0.296143	0.334204	-0.651917	-0.429455	-0.528091
01880		9.626221	0.136224	-2.257115	0.052892	0.016853	-0.028744	-0.684082	0.332275	0.291992	0.334455	-0.651654	-0.429793	-0.527981
01881		9.608435	0.056420	-2.285080	0.039480	0.012717	-0.034042	-0.680176	0.330566	0.299561	0.334647	-0.651413	-0.430062	-0.527939
01882		9.551931	0.087635	-2.294709	0.031590	0.007099	-0.037480	-0.683350	0.334229	0.293945	0.334703	-0.651274	-0.430399	-0.527800
01883		9.601142	0.158586	-2.269413	0.044548	0.010899	-0.045560	-0.685303	0.333984	0.296143	0.334868	-0.651026	-0.430748	-0.527716
01884		9.571174	0.159136	-2.299462	0.034978	0.008314	-0.045876	-0.682617	0.324951	0.299316	0.334937	-0.650828	-0.431080	-0.527646
01885		9.619589	0.079850	-2.269374	0.039949	0.001849	-0.050268	-0.685059	0.328857	0.300049	0.334911	-0.650599	-0.431602	-0.527517
01886		9.556876	0.074342	-2.268785	0.061941	-0.004084	-0.062068	-0.688721	0.329102	0.297607	0.334947	-0.650322	-0.432256	-0.527301
01887		9.541032	0.192295	-2.274057	0.093220	-0.008400	-0.069678	-0.691406	0.333008	0.299561	0.335104	-0.649927	-0.433069	-0.527021
01888		9.566242	0.242547	-2.266746	0.115602	-0.005168	-0.072911	-0.684082	0.327148	0.292725	0.335381	-0.649480	-0.433954	-0.526668
01889		9.593345	0.154490	-2.175791	0.109038	-0.012161	-0.070632	-0.689697	0.326904	0.297607	0.335656	-0.649030	-0.434848	-0.526310
01890		9.562839	-0.077220	-2.149488	0.158348	-0.038644	-0.072100	-0.691650	0.332520	0.290771	0.336026	-0.648566	-0.436074	-0.525631
01891		9.580985	-0.086196	-2.192449	0.234123	-0.043896	-0.084773	-0.683350	0.330811	0.300293	0.336803	-0.647868	-0.437578	-0.524745
01892		9.589600	0.149185	-2.231360	0.263426	-0.031283	-0.103316	-0.686279	0.324463	0.286377	0.337683	-0.647028	-0.439410	-0.523683
01893		9.573849	0.338184	-2.257763	0.237751	-0.015258	-0.105684	-0.692139	0.318604	0.295166	0.338488	-0.646043	-0.441050	-0.523000
01894		9.568433	0.373679	-2.181167	0.207100	-0.021057	-0.099575	-0.689941	0.325684	0.288818	0.338999	-0.645178	-0.442693	-0.522348
01895		9.653978	0.239372	-2.116476	0.176196	-0.022643	-0.087956	-0.684082	0.337158	0.294189	0.339484	-0.644487	-0.444002	-0.521774
01896		9.738163	0.117671	-2.173761	0.152485	-0.001226	-0.073717	-0.686768	0.333008	0.284180	0.340064	-0.643968	-0.444995	-0.521192
01897		9.656473	-0.007610	-2.334027	0.116930	0.006494	-0.077281	-0.685303	0.326660	0.289795	0.340476	-0.643409	-0.445785	-0.520937
01898		9.601537	-0.017171	-2.503356	0.081111	-0.001111	-0.079335	-0.690918	0.330322	0.284912	0.340598	-0.642959	-0.446601	-0.520715
01899		9.755541	0.064739	-2.296792	0.094896	0.005286	-0.066758	-0.689209	0.328125	0.286621	0.340889	-0.642493	-0.447275	-0.520522
01900		9.818871	0.236043	-2.351712	-0.048607	0.006893	-0.078762	-0.688232	0.325195	0.293457	0.340355	-0.642380	-0.447442	-0.520867
01901		9.338242	0.286877	-2.553886	-0.192263	0.001409	-0.070124	-0.693115	0.327148	0.288574	0.339033	-0.642744	-0.447054	-0.521613
01902		9.483558	0.246864	-2.309171	-0.066550	0.008980	-0.065046	-0.689697	0.325195	0.289307	0.338455	-0.642735	-0.447037	-0.522013
01903		9.548617	0.182128	-2.148084	0.082128	0.004198	-0.061833	-0.685303	0.321777	0.290283	0.338684	-0.642340	-0.447693	-0.521788
01904		9.407582	0.009803	-2.239898	0.088503	-0.004120	-0.069297	-0.697510	0.327637	0.287842	0.338888	-0.641922	-0.448511	-0.521469
01905		9.527226	-0.010744	-2.372313	0.226505	-0.018149	-0.081858	-0.689453	0.328369	0.291260	0.339696	-0.641148	-0.449889	-0.520707
01906		9.476639	0.081681	-2.161796	0.419735	-0.010834	-0.085733	-0.685059	0.333740	0.281006	0.341584	-0.639815	-0.452172	-0.519132
01907		9.558514	0.073507	-1.685539	0.616528	-0.028876	-0.075665	-0.684570	0.330322	0.283447	0.344573	-0.638046	-0.455151	-0.516724
01908		9.643908	0.179847	-1.937690	0.680961	-0.121015	-0.087697	-0.693604	0.325684	0.281006	0.347452	-0.636383	-0.458869	-0.513550
01909		9.727982	0.417512	-2.051789	0.745754	-0.132194	-0.111391	-0.698975	0.321777	0.277344	0.350423	-0.634377	-0.463065	-0.510236
01910		9.386795	0.743413	-2.142869	0.593483	-0.207632	-0.150257	-0.685791	0.331543	0.277588	0.352054	-0.632891	-0.467071	-0.507298
01911		9.392715	1.156109	-2.616390	0.363616	-0.212932	-0.169132	-0.688477	0.336670	0.272705	0.352486	-0.632125	-0.470146	-0.505108
01912		9.307761	1.580414	-2.434166	0.028202	-0.253904	-0.203544	-0.691406	0.322021	0.278809	0.350868	-0.632403	-0.471967	-0.504187
01913		9.058174	1.331908	-2.968563	-0.359791	-0.187115	-0.192129	-0.692871	0.317383	0.283936	0.347397	-0.633452	-0.472100	-0.505149
01914		9.477139	0.004334	-2.721852	-0.261790	-0.152064	-0.152586	-0.691162	0.323242	0.289307	0.344717	-0.634212	-0.472351	-0.505796
01915		9.809487	-1.286161	-2.631642	-0.054272	-0.089818	-0.131148	-0.692383	0.317627	0.286377	0.343526	-0.634291	-0.473097	-0.505810
01916		10.038644	-1.304722	-2.478364	0.219568	-0.037684	-0.092483	-0.693848	0.323975	0.287109	0.344148	-0.633472	-0.474629	-0.504977
01917		9.926368	-0.693256	-2.318354	0.419482	0.017011	-0.050701	-0.700928	0.317627	0.285400	0.346256	-0.632075	-0.476547	-0.503479
01918		9.604591	0.207901	-2.535665	0.507066	0.057885	-0.027925	-0.696533	0.325684	0.286133	0.348996	-0.630254	-0.478665	-0.501858
01919		9.497489	1.029460	-2.680184	0.472476	0.049581	-0.026947	-0.696045	0.327148	0.280518	0.351568	-0.628638	-0.480635	-0.500204
01920		9.357610	1.493884	-2.681214	0.329658	0.023906	-0.037601	-0.698486	0.325195	0.275635	0.353247	-0.627484	-0.482120	-0.499040
01921		9.206000	1.694645	-2.667331	0.114567	-0.007677	-0.064010	-0.694580	0.323730	0.279785	0.353536	-0.626943	-0.482944	-0.498719
01922		9.073087	1.678006	-2.421590	-0.060454	-0.043705	-0.072529	-0.702148	0.326660	0.279541	0.352718	-0.627036	-0.483277	-0.498858
01923		9.136452	1.000607	-2.446800	-0.202558	-0.089376	-0.087050	-0.695068	0.329346	0.273682	0.350895	-0.627691	-0.483152	-0.499440
01924		9.618626	0.306653	-2.552741	-0.132287	-0.071479	-0.113625	-0.694336	0.323242	0.283691	0.349492	-0.627992	-0.483280	-0.499923
01925		9.667584	-0.088966	-2.682143	-0.049068	-0.033384	-0.131599	-0.703125	0.318359	0.279297	0.348549	-0.627801	-0.483887	-0.500233
01926		9.651388	0.218438	-2.469450	0.081567	-0.012675	-0.122247	-0.703857	0.319580	0.287354	0.348376	-0.627125	-0.484885	-0.500235
01927		9.565268	0.385029	-2.630838	0.062113	0.013839	-0.105026	-0.695801	0.317383	0.277832	0.348262	-0.626506	-0.485697	-0.500302
01928		9.394606	0.525418	-2.541091	0.099984	0.042876	-0.078112	-0.693604	0.327881	0.278320	0.348647	-0.625745	-0.486382	-0.500321
01929		9.431447	0.479984	-2.618798	0.092001	0.037356	-0.037785	-0.704102	0.320312	0.287109	0.349200	-0.625305	-0.486728	-0.500148
01930		9.375906	0.572847	-2.462136	0.078595	0.013694	0.010041	-0.698242	0.313721	0.276367	0.349661	-0.625126	-0.487013	-0.499773
01931		9.522161	0.616756	-2.218754	0.049077	-0.003569	0.053896	-0.691650	0.313477	0.277100	0.350110	-0.625201	-0.486989	-0.499388
01932		10.036423	1.022790	-2.377339	-0.071524	0.005712	0.051326	-0.698242	0.317871	0.282715	0.349978	-0.625581	-0.486487	-0.499494
01933		9.533513	1.008457	-2.197577	-0.243085	0.022583	0.072135	-0.691895	0.318115	0.286377	0.349070	-0.626513	-0.485095	-0.500314
01934		9.855652	0.975301	-2.270243	-0.390600	-0.017278	0.042736	-0.699219	0.319092	0.283203	0.347122	-0.627940	-0.483385	-0.501533
01935		9.426874	1.157217	-2.726622	-0.659631	-0.043606	-0.008423	-0.701172	0.313721	0.291016	0.343441	-0.630023	-0.480784	-0.503951
01936		8.678577	0.560312	-2.652022	-0.568795	-0.016962	0.027222	-0.701172	0.311035	0.290283	0.340444	-0.631844	-0.478349	-0.506017
01937		9.340099	-0.625361	-2.546072	-0.374560	-0.017618	-0.006556	-0.695801	0.314941	0.296143	0.338334	-0.632958	-0.476871	-0.507434
01938		9.892044	-0.943995	-2.616226	-0.175305	0.017642	-0.061616	-0.696777	0.312744	0.295166	0.337220	-0.633218	-0.476392	-0.508299
01939		9.721590	-0.868380	-2.475303	0.057042	0.085224	-0.030482	-0.688477	0.309082	0.295654	0.337741	-0.632652	-0.476527	-0.508531
01940		9.633163	-0.324212	-2.497852	0.247889	0.113003	0.016761	-0.699219	0.314209	0.290527	0.339595	-0.631612	-0.477218	-0.507942
01941		9.706345	0.175806	-2.353804	0.287512	0.102366	0.036050	-0.703613	0.324219	0.286621	0.341684	-0.630581	-0.477907	-0.507173
01942		9.657671	0.498605	-2.418992	0.268819	0.100664	0.057039	-0.689941	0.320068	0.296631	0.343781	-0.629753	-0.478283	-0.506430
01943		9.617941	0.712664	-2.525984	0.217513	0.078874	0.082439	-0.697754	0.315918	0.280762	0.345612	-0.629263	-0.478603	-0.505489
01944		9.301770	0.796433	-2.273013	0.107809	0.058107	0.095939	-0.692383	0.316162	0.286621	0.346827	-0.629118	-0.478372	-0.505057
01945		9.357595	0.591019	-2.191876	0.054420	0.050280	0.096091	-0.696289	0.318604	0.284912	0.347722	-0.629172	-0.478038	-0.504690
01946		9.516541	0.431082	-2.230110	0.057747	0.041177	0.073222	-0.693848	0.319580	0.281738	0.348491	-0.629160	-0.477831	-0.504370
01947		9.785770	0.474634	-1.957540	0.122146	0.032024	0.034647	-0.696777	0.325195	0.276855	0.349414	-0.628844	-0.478101	-0.503869
01948		9.697910	0.793858	-2.060113	0.025710	0.004216	-0.002064	-0.695557	0.321777	0.280029	0.349587	-0.628804	-0.478136	-0.503767
01949		9.564156	1.109472	-1.689660	-0.047900	-0.000501	-0.012525	-0.686768	0.322510	0.284668	0.349290	-0.628931	-0.478010	-0.503932
01950		9.497897	0.802369	-2.238456	-0.223408	0.020454	-0.049905	-0.693848	0.322998	0.282959	0.348019	-0.629371	-0.477322	-0.504916
01951		9.186714	0.232231	-2.027274	-0.205301	0.009411	-0.042536	-0.693848	0.320557	0.285889	0.346820	-0.629824	-0.476640	-0.505818
01952		9.584613	-0.118385	-2.116670	-0.154647	-0.031760	-0.027203	-0.695068	0.319580	0.290527	0.345779	-0.630359	-0.476238	-0.506243
01953		10.226920	0.629794	-2.114120	-0.149330	-0.060203	-0.059669	-0.699951	0.318115	0.291260	0.344504	-0.630872	-0.476140	-0.506566
01954		9.691724	0.662959	-1.845152	-0.264619	-0.000914	-0.015998	-0.696533	0.305908	0.289551	0.343029	-0.631617	-0.475139	-0.507576
01955		9.336226	-0.083607	-2.031254	-0.209002	0.030225	0.043393	-0.690186	0.311768	0.288086	0.342198	-0.632209	-0.474074	-0.508395
01956		9.423618	-0.347239	-2.266574	-0.086900	0.012850	0.089566	-0.694092	0.315918	0.283936	0.342185	-0.632783	-0.473227	-0.508478
01957		9.849266	0.305631	-2.283628	-0.016855	-0.019693	0.043396	-0.691162	0.324219	0.292725	0.342237	-0.633121	-0.472924	-0.508306
01958		9.371477	0.661108	-1.901585	-0.023821	-0.018205	0.026998	-0.695312	0.315186	0.285889	0.342202	-0.633502	-0.472658	-0.508102
01959		9.662629	0.570717	-1.955118	-0.008772	-0.014341	-0.012478	-0.693848	0.311035	0.296143	0.342065	-0.633555	-0.472695	-0.508094
01960		9.760355	0.342921	-1.960219	-0.116831	0.000015	-0.032343	-0.694336	0.309814	0.290039	0.341287	-0.633770	-0.472476	-0.508553
01961		9.655660	0.035257	-2.074950	-0.129952	0.008820	-0.015003	-0.687744	0.314697	0.289307	0.340566	-0.634034	-0.472020	-0.509130
01962		9.636443	-0.101988	-2.010242	-0.033143	0.015409	0.001235	-0.696777	0.316406	0.292236	0.340493	-0.634127	-0.471789	-0.509276
01963		9.722075	0.073761	-2.059157	-0.000932	0.031701	-0.027876	-0.693359	0.320801	0.300293	0.340515	-0.633935	-0.471805	-0.509485
01964		9.653155	0.035728	-2.327629	-0.064632	0.052768	-0.049017	-0.691895	0.318115	0.294434	0.340197	-0.633821	-0.471622	-0.510010
01965		9.373728	-0.246207	-2.521817	-0.046250	0.053205	-0.012119	-0.688232	0.317627	0.288818	0.340147	-0.633776	-0.471289	-0.510406
01966		9.528011	-0.092182	-2.713010	0.060598	0.035190	0.027576	-0.692383	0.311279	0.288818	0.340780	-0.633664	-0.471203	-0.510202
01967		9.572251	0.552606	-2.445658	0.129990	0.018039	0.062607	-0.697266	0.325928	0.289551	0.341823	-0.633493	-0.471364	-0.509567
01968		9.332698	0.527767	-2.203122	0.128953	0.019359	0.087627	-0.690674	0.324463	0.284424	0.343013	-0.633507	-0.471252	-0.508853
01969		9.582528	0.570979	-2.593680	0.064591	-0.003624	0.066148	-0.691162	0.318604	0.293701	0.343685	-0.633708	-0.471038	-0.508349
01970		9.280104	0.849369	-2.658607	-0.030206	-0.010451	0.100415	-0.688965	0.322510	0.292236	0.343924	-0.634295	-0.470437	-0.508011
01971		9.199639	1.058697	-2.734615	-0.111587	-0.050722	0.138637	-0.685303	0.330811	0.290771	0.343750	-0.635461	-0.469353	-0.507675
01972		9.666151	1.405501	-2.598959	-0.213174	-0.114077	0.121328	-0.696045	0.325195	0.293701	0.342745	-0.637181	-0.468000	-0.507446
01973		9.154587	0.757959	-2.083030	-0.335436	-0.092723	0.108044	-0.694336	0.333984	0.299072	0.341077	-0.639001	-0.466227	-0.507914
01974		9.476970	-0.018764	-2.233907	-0.262819	-0.041307	0.052129	-0.693359	0.321533	0.303467	0.339781	-0.640255	-0.464826	-0.508486
01975		9.557201	-0.408396	-2.335910	-0.165515	-0.003011	0.056964	-0.682861	0.329102	0.297363	0.339136	-0.640988	-0.463873	-0.508865
01976		9.813979	-0.257229	-2.383290	-0.045408	0.009679	0.073908	-0.686768	0.330811	0.298340	0.339293	-0.641498	-0.463117	-0.508806
01977		9.824456	0.168058	-2.303206	-0.004385	0.002152	0.109077	-0.683350	0.330078	0.289795	0.339786	-0.642051	-0.462366	-0.508462
01978		9.932037	0.496063	-2.462528	-0.137711	-0.017117	0.084368	-0.687988	0.320801	0.306641	0.339388	-0.642958	-0.461163	-0.508674
01979		9.211137	0.494914	-2.312132	-0.248944	0.005434	0.095004	-0.683350	0.328613	0.297363	0.338488	-0.644016	-0.459677	-0.509281
01980		9.344015	0.047496	-2.699550	-0.268967	0.042723	0.078323	-0.675781	0.329590	0.296143	0.337576	-0.644991	-0.457860	-0.510288
01981		9.421123	-0.082566	-2.695354	-0.255582	0.012618	0.079541	-0.689941	0.327148	0.304932	0.336633	-0.646100	-0.456127	-0.511059
01982		9.679494	-0.358469	-2.423863	-0.144062	-0.023981	0.075636	-0.677979	0.329834	0.302002	0.336114	-0.646955	-0.455120	-0.511216
01983		9.496208	-0.107917	-2.539886	-0.098167	-0.008546	0.045357	-0.682617	0.335205	0.304199	0.335786	-0.647571	-0.454336	-0.511349
01984		9.520010	0.218896	-2.602212	-0.072098	0.011484	0.022757	-0.680908	0.328369	0.298096	0.335582	-0.647970	-0.453683	-0.511558
01985		9.773365	0.264647	-2.484947	-0.108548	0.014895	0.033389	-0.682617	0.337158	0.305176	0.335228	-0.648440	-0.452823	-0.511956
01986		9.465744	0.182961	-2.366767	-0.200756	0.002372	0.053106	-0.677490	0.335693	0.304932	0.334419	-0.649368	-0.451455	-0.512516
01987		9.301570	-0.088519	-2.538864	-0.197257	-0.025744	0.039625	-0.681885	0.331299	0.309082	0.333463	-0.650365	-0.450246	-0.512940
01988		9.413562	-0.331964	-2.806693	-0.048662	-0.017508	0.005907	-0.672119	0.329346	0.307617	0.333190	-0.650726	-0.449923	-0.512941
01989		9.649907	-0.270790	-2.847429	0.049746	0.004988	-0.021571	-0.687256	0.329834	0.307861	0.333424	-0.650637	-0.450103	-0.512746
01990		9.557645	0.173126	-2.732165	0.064544	0.014607	-0.001489	-0.675293	0.329346	0.305176	0.333847	-0.650484	-0.450225	-0.512557
01991		9.466292	0.414676	-2.361972	0.062351	0.011324	0.023140	-0.681396	0.335205	0.305176	0.334358	-0.650483	-0.450191	-0.512255
01992		9.560255	0.458397	-2.507151	0.034937	0.007869	0.028309	-0.679199	0.331787	0.318604	0.334722	-0.650621	-0.449953	-0.512050
01993		9.551422	0.140686	-2.484529	0.040071	0.024549	0.032444	-0.681641	0.337158	0.302979	0.335210	-0.650637	-0.449903	-0.511755
01994		9.518906	-0.194571	-2.641734	0.085570	0.027811	0.033512	-0.678223	0.336182	0.305664	0.335936	-0.650575	-0.449765	-0.511479
01995		9.566347	-0.184253	-2.562097	0.140191	0.029892	0.036364	-0.684814	0.337646	0.305176	0.336985	-0.650349	-0.449910	-0.510948
01996		9.580453	0.178698	-2.491128	0.158310	0.038640	0.028350	-0.678467	0.338867	0.304199	0.338124	-0.649982	-0.450158	-0.510445
01997		9.499629	0.553122	-2.516488	0.146598	0.049255	0.019979	-0.679932	0.339844	0.301270	0.339208	-0.649591	-0.450371	-0.510035
01998		9.489988	0.620451	-2.641866	0.090341	0.050227	0.026963	-0.672607	0.340820	0.304932	0.340013	-0.649377	-0.450286	-0.509846
01999		9.540476	0.416281	-2.550820	0.025803	0.046048	0.035043	-0.684570	0.333984	0.303467	0.340501	-0.649411	-0.449953	-0.509771
02000		9.451902	0.119427	-2.489724	0.005614	0.026612	0.034870	-0.676270	0.344482	0.297119	0.340811	-0.649452	-0.449718	-0.509720
02001		9.434746	0.005783	-2.421715	0.060344	0.014171	0.025539	-0.677490	0.343750	0.301025	0.341300	-0.649516	-0.449540	-0.509468
02002		9.538575	0.047246	-2.408387	0.121265	0.007159	0.005447	-0.680664	0.336670	0.291016	0.342016	-0.649329	-0.449834	-0.508965
02003		9.638257	0.248137	-2.575806	0.084488	0.016123	-0.013171	-0.679932	0.342773	0.300293	0.342487	-0.649052	-0.450061	-0.508801
02004		9.564660	0.417732	-2.396729	0.076539	0.015184	0.004792	-0.675049	0.350098	0.301758	0.342992	-0.648919	-0.450196	-0.508512
02005		9.464869	0.456077	-2.430674	0.012464	0.022815	0.028021	-0.683838	0.333740	0.293213	0.343262	-0.649119	-0.449815	-0.508412
02006		9.414438	0.418898	-2.535611	-0.069545	0.015479	0.037355	-0.682373	0.342285	0.293701	0.343133	-0.649393	-0.449259	-0.508641
02007		9.475102	0.197532	-2.537583	-0.114240	0.016998	0.037636	-0.682373	0.342285	0.297607	0.342738	-0.649899	-0.448357	-0.509056
02008		9.583231	-0.199051	-2.399699	-0.096539	0.002984	0.029310	-0.682617	0.345703	0.301514	0.342357	-0.650374	-0.447662	-0.509317
02009		9.596891	-0.348934	-2.376437	-0.063013	0.010730	0.027625	-0.673096	0.342041	0.299561	0.342173	-0.650749	-0.447077	-0.509476
02010		9.659150	-0.151957	-2.172158	-0.042984	-0.004685	0.012021	-0.681641	0.349121	0.301270	0.341995	-0.651060	-0.446742	-0.509492
02011		9.534932	-0.004222	-2.335248	-0.092019	-0.000364	-0.014452	-0.676758	0.339355	0.296143	0.341416	-0.651454	-0.446217	-0.509836
02012		9.544527	0.024711	-2.203495	-0.022772	0.008702	-0.030258	-0.680420	0.343994	0.302246	0.341215	-0.651459	-0.446146	-0.510026
02013		9.559423	-0.098592	-2.122055	-0.008433	0.022810	-0.028498	-0.674072	0.335205	0.305908	0.341137	-0.651411	-0.446071	-0.510205
02014		9.585635	-0.068276	-2.317232	-0.005287	0.012587	-0.015971	-0.692383	0.343262	0.298340	0.341153	-0.651340	-0.446187	-0.510184
02015		9.627589	-0.084713	-2.226065	-0.009505	0.019900	0.002496	-0.683350	0.337646	0.295898	0.341167	-0.651391	-0.445906	-0.510355
02016		9.684399	-0.106243	-2.231500	-0.043675	0.018950	0.020465	-0.683838	0.338379	0.292969	0.341104	-0.651566	-0.445464	-0.510560
02017		9.615182	-0.059373	-2.232785	-0.068282	0.034987	0.051215	-0.682129	0.347168	0.296875	0.341088	-0.651870	-0.444654	-0.510889
02018		9.575133	-0.056185	-2.147324	-0.047681	0.039630	0.069901	-0.680176	0.344482	0.300049	0.341251	-0.652268	-0.443709	-0.511093
02019		9.491375	0.038728	-2.124929	-0.041242	0.025337	0.072344	-0.679443	0.345947	0.304443	0.341432	-0.652671	-0.442924	-0.511138
02020		9.575219	0.011255	-2.364540	-0.021316	0.018540	0.065325	-0.677002	0.343018	0.296631	0.341672	-0.653021	-0.442323	-0.511051
02021		9.549833	0.058622	-2.368588	-0.006441	0.027992	0.046793	-0.679688	0.346924	0.296875	0.341955	-0.653192	-0.441833	-0.511068
02022		9.575333	0.119266	-2.319608	-0.022086	0.034599	0.046724	-0.679443	0.350830	0.308594	0.342154	-0.653414	-0.441199	-0.511199
02023		9.490036	0.155161	-2.383701	-0.066726	0.036867	0.049105	-0.678711	0.336670	0.298828	0.342136	-0.653781	-0.440440	-0.511395
02024		9.413320	0.076128	-2.431231	-0.070532	0.022111	0.042693	-0.676025	0.345459	0.300049	0.342081	-0.654021	-0.439911	-0.511580
02025		9.464797	0.013233	-2.424617	-0.047278	-0.002474	0.025372	-0.671143	0.352295	0.296143	0.341943	-0.654359	-0.439485	-0.511608
02026		9.595456	-0.021308	-2.441050	-0.005899	0.001221	0.003960	-0.672852	0.350342	0.299316	0.341911	-0.654593	-0.439160	-0.511609
02027		9.599666	0.042910	-2.417283	-0.025618	0.001991	-0.014465	-0.673340	0.348145	0.301514	0.341710	-0.654773	-0.438928	-0.511711
02028		9.547112	0.154748	-2.347819	-0.076480	0.004042	-0.013224	-0.675537	0.346924	0.303223	0.341261	-0.655060	-0.438533	-0.511982
02029		9.563763	0.072798	-2.302645	-0.103746	0.005666	0.003856	-0.677734	0.345703	0.306152	0.340746	-0.655459	-0.437957	-0.512308
02030		9.548710	-0.103926	-2.413396	-0.127750	0.005244	0.020478	-0.675049	0.347656	0.301270	0.340176	-0.655965	-0.437234	-0.512656
02031		9.549500	-0.249933	-2.423860	-0.092992	-0.000622	0.024988	-0.678467	0.346680	0.302246	0.339770	-0.656462	-0.436537	-0.512884
02032		9.549006	-0.221130	-2.471255	-0.083310	-0.000649	0.013643	-0.670410	0.337402	0.308594	0.339368	-0.656867	-0.435966	-0.513117
02033		9.557050	-0.189542	-2.443320	-0.050586	0.011465	0.002833	-0.672852	0.343018	0.302979	0.339235	-0.656967	-0.435825	-0.513197
02034		9.582293	-0.178567	-2.304216	-0.011017	-0.004521	0.001903	-0.671631	0.354736	0.302490	0.339198	-0.657107	-0.435709	-0.513140
02035		9.572999	-0.204637	-2.351734	-0.002975	0.004843	0.006355	-0.673828	0.349365	0.302979	0.339184	-0.657360	-0.435338	-0.513140
02036		9.528312	-0.158356	-2.358854	0.040407	0.001757	-0.004568	-0.665039	0.349854	0.306885	0.339381	-0.657383	-0.435335	-0.512983
02037		9.539489	-0.057272	-2.411053	0.067076	0.004868	-0.011534	-0.680908	0.346436	0.303955	0.339728	-0.657308	-0.435523	-0.512690
02038		9.551942	0.034420	-2.357997	0.070244	0.017296	-0.009733	-0.673584	0.349121	0.307373	0.340138	-0.657091	-0.435722	-0.512528
02039		9.524225	0.041249	-2.309710	0.054839	0.008573	-0.003795	-0.668701	0.345947	0.301025	0.340463	-0.657017	-0.435850	-0.512298
02040		9.492490	0.038340	-2.361370	0.022511	-0.011824	-0.007575	-0.661133	0.345215	0.298584	0.340542	-0.657080	-0.435925	-0.512100
02041		9.551967	0.080113	-2.348623	0.033181	-0.020502	-0.008559	-0.679199	0.351318	0.298096	0.340660	-0.657153	-0.436072	-0.511802
02042		9.586051	0.154531	-2.380639	0.026225	-0.015777	-0.013312	-0.663086	0.346924	0.298828	0.340654	-0.657254	-0.436060	-0.511687
02043		9.556811	0.068941	-2.357165	0.005873	-0.014183	-0.008937	-0.675293	0.360107	0.306396	0.340632	-0.657388	-0.436051	-0.511538
02044		9.553696	-0.073266	-2.326497	0.003501	-0.018677	0.001316	-0.670898	0.349365	0.305176	0.340512	-0.657732	-0.435784	-0.511402
02045		9.551248	-0.116135	-2.360062	-0.008868	-0.021236	-0.003770	-0.669189	0.350342	0.301270	0.340384	-0.657958	-0.435720	-0.511252
02046		9.549715	-0.010848	-2.447270	-0.025313	-0.020612	-0.006153	-0.679443	0.345459	0.308838	0.340144	-0.658243	-0.435529	-0.511206
02047		9.541609	-0.067641	-2.430308	0.003997	-0.015422	-0.009021	-0.673584	0.353760	0.301514	0.340108	-0.658305	-0.435648	-0.511050
02048		9.541353	-0.062121	-2.516418	0.017761	-0.010910	-0.009615	-0.683105	0.355469	0.302734	0.340084	-0.658456	-0.435549	-0.510955
02049		9.509339	-0.092426	-2.523463	0.004623	-0.024169	0.000404	-0.669922	0.344971	0.309326	0.339946	-0.658744	-0.435343	-0.510852
02050		9.536619	-0.042345	-2.339554	0.016926	-0.041634	-0.010883	-0.671631	0.355225	0.304688	0.339907	-0.658875	-0.435632	-0.510462
02051		9.546683	0.036571	-2.435368	0.032401	-0.027177	-0.012990	-0.673584	0.352051	0.307373	0.339887	-0.659056	-0.435663	-0.510215
02052		9.536740	0.155127	-2.456655	-0.002350	-0.027857	-0.019878	-0.673340	0.352051	0.310791	0.339674	-0.659254	-0.435689	-0.510079
02053		9.522474	0.160979	-2.427065	-0.053934	-0.019607	-0.014551	-0.673828	0.349609	0.302734	0.339236	-0.659578	-0.435473	-0.510136
02054		9.508551	0.044329	-2.370734	-0.072929	-0.027101	-0.011106	-0.676758	0.352295	0.303711	0.338680	-0.659981	-0.435135	-0.510273
02055		9.496166	-0.024213	-2.369347	-0.089658	-0.033895	-0.012088	-0.667725	0.344482	0.312256	0.337965	-0.660499	-0.434676	-0.510468
02056		9.536241	-0.023885	-2.537386	-0.090533	-0.019633	-0.011735	-0.677246	0.343506	0.311523	0.337413	-0.660839	-0.434444	-0.510591
02057		9.601491	-0.084663	-2.549057	-0.064004	-0.013732	-0.013895	-0.671631	0.338623	0.305176	0.336996	-0.661053	-0.434300	-0.510712
02058		9.555151	-0.156556	-2.467846	-0.091747	0.000940	-0.006394	-0.667480	0.347412	0.309082	0.336553	-0.661261	-0.433994	-0.510995
02059		9.528396	-0.201037	-2.329241	-0.082804	-0.016955	-0.007272	-0.668457	0.346436	0.305908	0.336021	-0.661658	-0.433610	-0.511158
02060		9.607276	-0.165022	-2.436889	-0.054470	-0.008437	-0.005240	-0.665283	0.349609	0.309570	0.335680	-0.661940	-0.433285	-0.511291
02061		9.510359	-0.097430	-2.544257	-0.050768	-0.011103	-0.003425	-0.657959	0.346680	0.308594	0.335342	-0.662278	-0.432937	-0.511369
02062		9.538739	-0.130844	-2.545396	-0.051587	-0.004719	-0.006277	-0.664551	0.342285	0.308350	0.335056	-0.662548	-0.432648	-0.511452
02063		9.545178	-0.145304	-2.464563	-0.054103	0.009305	-0.013208	-0.676514	0.352051	0.309326	0.334795	-0.662669	-0.432424	-0.511655
02064		9.527080	-0.096710	-2.536282	-0.057016	0.018015	-0.016035	-0.666748	0.342285	0.312012	0.334414	-0.662886	-0.431941	-0.512033
02065		9.548496	-0.040382	-2.501059	-0.048783	0.029718	-0.014676	-0.664062	0.344238	0.315674	0.334246	-0.662900	-0.431707	-0.512321
02066		9.520524	-0.022683	-2.468723	-0.073623	0.045553	-0.023267	-0.676270	0.342041	0.303223	0.333955	-0.662915	-0.431362	-0.512781
02067		9.516352	-0.049866	-2.468157	-0.072798	0.056163	-0.031391	-0.666016	0.349365	0.315918	0.333630	-0.662833	-0.430930	-0.513461
02068		9.543694	-0.146267	-2.399083	-0.049874	0.068547	-0.037702	-0.673828	0.343506	0.317383	0.333433	-0.662719	-0.430571	-0.514038
02069		9.528634	-0.122607	-2.415583	-0.058663	0.066099	-0.039451	-0.669189	0.346191	0.309570	0.333199	-0.662547	-0.430305	-0.514634
02070		9.551245	-0.062305	-2.374208	-0.074263	0.055075	-0.037252	-0.673096	0.339355	0.314209	0.332823	-0.662532	-0.429864	-0.515263
02071		9.551251	0.039754	-2.280120	-0.072160	0.046921	-0.037699	-0.681396	0.343018	0.315674	0.332481	-0.662447	-0.429627	-0.515792
02072		9.575235	0.120119	-2.247101	-0.082774	0.042554	-0.041616	-0.675293	0.335449	0.304932	0.331984	-0.662451	-0.429276	-0.516399
02073		9.600144	-0.018497	-2.213459	-0.016428	0.033673	-0.041946	-0.671875	0.345215	0.311279	0.331884	-0.662227	-0.429302	-0.516728
02074		9.561215	-0.125370	-2.416212	0.007642	0.003783	-0.054851	-0.674316	0.334473	0.308838	0.331689	-0.662158	-0.429441	-0.516827
02075		9.413696	0.015567	-2.610369	-0.039935	-0.018347	-0.058392	-0.678223	0.341553	0.312500	0.331217	-0.662158	-0.429645	-0.516960
02076		9.518175	-0.008452	-2.545051	-0.039093	-0.035898	-0.047605	-0.677490	0.340088	0.311768	0.330656	-0.662374	-0.429696	-0.516999
02077		9.592685	-0.029249	-2.369229	-0.002819	-0.013397	-0.041301	-0.671875	0.334961	0.317627	0.330411	-0.662406	-0.429814	-0.517017
02078		9.616588	0.133501	-2.281852	-0.005004	-0.003879	-0.040051	-0.676270	0.343994	0.315186	0.330265	-0.662336	-0.430055	-0.517000
02079		9.510888	0.062421	-2.432511	-0.049808	-0.008662	-0.040830	-0.669189	0.344971	0.310791	0.329751	-0.662537	-0.429894	-0.517204
02080		9.522355	-0.056192	-2.625791	-0.008073	-0.016241	-0.045329	-0.683350	0.337891	0.312012	0.329426	-0.662668	-0.429908	-0.517232
02081		9.541490	-0.052638	-2.523564	0.059243	-0.016012	-0.040913	-0.675049	0.344238	0.315674	0.329497	-0.662535	-0.430284	-0.517045
02082		9.542106	-0.006560	-2.493840	0.064371	-0.005212	-0.036977	-0.677979	0.337402	0.312012	0.329632	-0.662441	-0.430559	-0.516850
02083		9.536667	0.051819	-2.459324	0.057705	0.001520	-0.034415	-0.677246	0.328369	0.309814	0.329813	-0.662250	-0.430880	-0.516712
02084		9.536127	0.239832	-2.393998	0.052705	0.006040	-0.039685	-0.669922	0.341309	0.315430	0.330047	-0.661904	-0.431378	-0.516590
02085		9.529141	0.375970	-2.394403	0.032216	-0.001357	-0.038076	-0.667725	0.337402	0.308350	0.330067	-0.661830	-0.431604	-0.516482
02086		9.504126	0.319040	-2.460883	-0.018126	-0.004445	-0.028433	-0.676758	0.332275	0.312500	0.329874	-0.661895	-0.431599	-0.516527
02087		9.482249	0.109750	-2.456913	-0.035574	-0.005183	-0.025446	-0.677246	0.333252	0.310303	0.329605	-0.661952	-0.431602	-0.516623
02088		9.545715	-0.017801	-2.408740	-0.017138	-0.007670	-0.033422	-0.677734	0.346680	0.323242	0.329376	-0.661963	-0.431684	-0.516687
02089		9.570368	0.057041	-2.427466	-0.021785	-0.002979	-0.041144	-0.671143	0.334717	0.312256	0.329011	-0.662108	-0.431612	-0.516794
02090		9.620733	0.081466	-2.459594	-0.018372	-0.001380	-0.037181	-0.675781	0.343262	0.318848	0.328794	-0.662105	-0.431688	-0.516872
02091		9.583971	-0.080875	-2.346076	0.000143	0.012485	-0.028773	-0.679932	0.333252	0.315674	0.328679	-0.662138	-0.431617	-0.516961
02092		9.603303	-0.217183	-2.228963	0.018233	0.015486	-0.027022	-0.678223	0.333984	0.315430	0.328745	-0.661987	-0.431758	-0.516996
02093		9.660593	-0.304375	-2.220516	0.009493	0.012325	-0.030874	-0.673584	0.325195	0.312744	0.328735	-0.661870	-0.431882	-0.517050
02094		9.601992	-0.269879	-2.248649	0.009225	0.026348	-0.040761	-0.669678	0.338867	0.316650	0.328822	-0.661541	-0.432189	-0.517158
02095		9.606272	-0.184638	-2.160632	0.064805	0.038724	-0.036964	-0.676025	0.337891	0.313232	0.329189	-0.661197	-0.432465	-0.517134
02096		9.601133	-0.283879	-2.166202	0.094015	0.044746	-0.027559	-0.672363	0.338135	0.304688	0.329754	-0.660775	-0.432766	-0.517061
02097		9.529940	-0.457328	-2.215142	0.106872	0.039707	-0.028165	-0.673096	0.330811	0.310303	0.330373	-0.660342	-0.433095	-0.516944
02098		9.527660	-0.399989	-2.237529	0.155086	0.035752	-0.042498	-0.675781	0.337646	0.311523	0.331255	-0.659632	-0.433919	-0.516595
02099		9.527655	-0.131447	-2.350366	0.203528	0.045581	-0.055445	-0.679688	0.334229	0.302979	0.332325	-0.658778	-0.434885	-0.516184
02100		9.548622	0.093302	-2.453629	0.235061	0.047994	-0.056694	-0.676025	0.334473	0.307373	0.333570	-0.657784	-0.435980	-0.515727
02101		9.498682	0.119068	-2.650362	0.210898	0.038741	-0.063269	-0.679443	0.339600	0.301270	0.334655	-0.656850	-0.437113	-0.515253
02102		9.504998	0.207033	-2.712101	0.220272	0.029739	-0.071286	-0.677002	0.339111	0.302002	0.335666	-0.655965	-0.438220	-0.514783
02103		9.527228	0.328201	-2.739303	0.248879	0.009516	-0.081072	-0.684570	0.338867	0.302002	0.336742	-0.655029	-0.439611	-0.514086
02104		9.463216	0.521067	-2.685703	0.238865	-0.000749	-0.094392	-0.681885	0.338867	0.301514	0.337640	-0.654111	-0.441047	-0.513435
02105		9.402191	0.574228	-2.663960	0.190847	-0.010385	-0.100740	-0.676025	0.329590	0.299072	0.338231	-0.653334	-0.442368	-0.512899
02106		9.454109	0.571367	-2.717070	0.155854	-0.027180	-0.103594	-0.682129	0.338379	0.302246	0.338649	-0.652596	-0.443778	-0.512344
02107		9.476635	0.435603	-2.628184	0.144843	-0.055325	-0.093869	-0.682617	0.342285	0.304932	0.338861	-0.652156	-0.445015	-0.511691
02108		9.497512	0.182706	-2.406419	0.163174	-0.077860	-0.093553	-0.682861	0.342041	0.300293	0.339068	-0.651801	-0.446352	-0.510840
02109		9.520272	0.160907	-2.375219	0.195643	-0.090481	-0.104573	-0.685791	0.331543	0.294922	0.339346	-0.651374	-0.447879	-0.509864
02110		9.610929	0.129972	-2.593691	0.261058	-0.073200	-0.110509	-0.688477	0.332031	0.298584	0.340052	-0.650556	-0.449768	-0.508773
02111		9.547991	0.114510	-2.581588	0.320757	-0.046710	-0.101653	-0.679443	0.344238	0.300293	0.341209	-0.649487	-0.451800	-0.507562
02112		9.464485	0.053346	-1.888407	0.341933	-0.064984	-0.073619	-0.680176	0.338379	0.292725	0.342518	-0.648645	-0.453718	-0.506044
02113		9.638613	-0.012598	-2.266759	0.391194	-0.126474	-0.063598	-0.681396	0.342041	0.293945	0.343918	-0.647891	-0.456002	-0.504004
02114		9.620287	-0.056091	-2.213536	0.388538	-0.067120	-0.062255	-0.678223	0.344971	0.293945	0.345514	-0.646918	-0.458065	-0.502288
02115		9.610055	0.329246	-2.174491	0.398834	-0.080841	-0.061198	-0.676758	0.346436	0.296631	0.347127	-0.645978	-0.460206	-0.500426
02116		9.580759	0.591922	-2.501556	0.237965	-0.044390	-0.038741	-0.684814	0.343262	0.296875	0.348121	-0.645420	-0.461488	-0.499274
02117		9.384508	0.667096	-2.409783	0.099726	-0.065835	0.002232	-0.680176	0.339355	0.293701	0.348438	-0.645475	-0.462059	-0.498452
02118		9.592626	0.575867	-2.514346	-0.077650	-0.057705	0.023741	-0.681152	0.339355	0.295654	0.347958	-0.646044	-0.461812	-0.498279
02119		9.539845	0.271952	-2.648061	-0.192961	-0.068706	0.034122	-0.682373	0.334473	0.297607	0.346848	-0.647036	-0.461056	-0.498466
02120		9.450471	0.036057	-2.874069	-0.202423	-0.047875	0.049336	-0.678467	0.340576	0.293701	0.345835	-0.647985	-0.460164	-0.498761
02121		9.435485	-0.093377	-2.849568	-0.164108	-0.066437	0.041090	-0.683838	0.349365	0.301758	0.344898	-0.648943	-0.459407	-0.498862
02122		9.539482	-0.186871	-3.104173	-0.120358	-0.040204	0.026284	-0.688232	0.350098	0.297119	0.344186	-0.649692	-0.458742	-0.498991
02123		9.517765	-0.033782	-2.923445	-0.029279	-0.000872	0.019260	-0.674316	0.341797	0.299316	0.344042	-0.650023	-0.458290	-0.499075
02124		9.414997	0.184819	-2.782754	-0.025779	0.016885	0.010639	-0.673340	0.347168	0.296875	0.344063	-0.650119	-0.458059	-0.499148
02125		9.417626	0.271409	-2.703878	-0.025590	0.008717	-0.002449	-0.676758	0.343018	0.303223	0.343978	-0.650254	-0.457838	-0.499233
02126		9.384959	0.180446	-2.744679	-0.010756	0.023172	-0.009152	-0.682129	0.341797	0.295166	0.344012	-0.650213	-0.457761	-0.499334
02127		9.380279	0.081140	-2.831884	-0.007110	0.007244	-0.019515	-0.677734	0.339600	0.310547	0.343919	-0.650205	-0.457720	-0.499446
02128		9.484008	-0.001301	-2.885757	0.037471	0.005334	-0.029264	-0.681641	0.346680	0.300781	0.344087	-0.649978	-0.458101	-0.499276
02129		9.431530	0.127186	-2.574545	0.091119	0.017833	-0.032350	-0.676025	0.336426	0.304688	0.344511	-0.649629	-0.458496	-0.499074
02130		9.660026	0.188818	-2.436282	0.051441	0.015749	-0.042165	-0.675049	0.341553	0.307617	0.344751	-0.649245	-0.458985	-0.498958
02131		9.466068	0.316569	-2.468888	0.017646	0.033987	-0.030511	-0.672119	0.347412	0.292480	0.344920	-0.648969	-0.459184	-0.499019
02132		9.462260	0.262046	-2.524918	-0.005262	0.032036	-0.010785	-0.676270	0.344482	0.300293	0.345006	-0.648918	-0.459018	-0.499179
02133		9.564424	0.008564	-2.494469	-0.020284	0.042476	-0.001520	-0.681641	0.348145	0.295410	0.345094	-0.648868	-0.458784	-0.499398
02134		9.491078	-0.090586	-2.359486	-0.015508	0.046831	0.002170	-0.674561	0.340820	0.296631	0.345189	-0.648852	-0.458429	-0.499678
02135		9.511517	-0.192601	-2.381903	-0.017000	0.028116	0.004774	-0.679688	0.339355	0.291260	0.345281	-0.648845	-0.458246	-0.499791
02136		9.489316	-0.041342	-2.446204	0.079084	0.024400	0.005946	-0.678223	0.346924	0.295898	0.345847	-0.648591	-0.458411	-0.499578
02137		9.480314	0.038985	-2.312216	0.158729	0.024677	0.009002	-0.684326	0.349609	0.290771	0.346858	-0.648162	-0.458866	-0.499017
02138		9.531156	0.137563	-2.201611	0.176169	0.028820	0.006423	-0.683350	0.345703	0.299072	0.347921	-0.647689	-0.459309	-0.498483
02139		9.648561	0.289296	-2.006040	0.122145	0.016235	0.011842	-0.677734	0.348877	0.296387	0.348705	-0.647382	-0.459667	-0.498004
02140		9.669830	0.445362	-1.992129	0.013115	0.017853	0.009744	-0.681396	0.351318	0.294434	0.348919	-0.647387	-0.459570	-0.497937
02141		9.714475	0.675443	-1.832520	-0.197349	0.010813	0.004433	-0.678467	0.347900	0.297607	0.347917	-0.648042	-0.458589	-0.498690
02142		9.522751	0.778798	-1.885103	-0.445836	-0.052884	0.008681	-0.677490	0.343262	0.297607	0.345371	-0.649661	-0.456792	-0.500001
02143		9.811783	0.818403	-2.079303	-0.477186	-0.076052	-0.001237	-0.674316	0.344482	0.312256	0.342523	-0.651401	-0.454986	-0.501340
02144		9.668534	0.484567	-2.128513	-0.544723	-0.024169	-0.002315	-0.681396	0.332520	0.311035	0.339523	-0.653105	-0.452804	-0.503137
02145		9.470603	-0.188926	-1.935823	-0.511524	0.024939	0.027503	-0.678955	0.342285	0.302734	0.336979	-0.654558	-0.450472	-0.505048
02146		9.726743	-0.887456	-1.732690	-0.443284	0.000978	0.038434	-0.677734	0.328125	0.313477	0.334720	-0.656060	-0.448234	-0.506591
02147		9.509958	-0.933112	-1.931296	-0.334629	-0.009913	0.031748	-0.672363	0.333496	0.312256	0.333033	-0.657161	-0.446706	-0.507624
02148		9.660975	-0.724583	-2.098576	-0.113022	0.000685	0.028327	-0.679199	0.337646	0.311035	0.332588	-0.657636	-0.446036	-0.507890
02149		9.714515	-0.551965	-2.340897	-0.025810	0.047084	0.021496	-0.679443	0.333740	0.316895	0.332713	-0.657696	-0.445545	-0.508161
02150		9.565491	-0.506675	-2.509426	0.036828	0.074442	0.019245	-0.685547	0.340576	0.316162	0.333292	-0.657419	-0.445335	-0.508323
02151		9.616559	-0.410929	-2.323496	0.128743	0.051927	0.010004	-0.677002	0.333008	0.316162	0.334208	-0.657006	-0.445533	-0.508083
02152		9.568715	0.003938	-2.132038	0.132291	0.042693	0.005166	-0.684570	0.332764	0.306641	0.335156	-0.656522	-0.445938	-0.507730
02153		9.531493	0.411061	-2.222553	0.061583	0.030664	-0.014180	-0.677490	0.336670	0.308594	0.335532	-0.656234	-0.446089	-0.507720
02154		9.407243	0.344712	-2.348549	-0.081257	0.019977	-0.015194	-0.670166	0.340332	0.308838	0.335122	-0.656395	-0.445696	-0.508128
02155		9.611686	-0.063618	-2.222372	-0.095119	0.008503	-0.007770	-0.677246	0.335693	0.316406	0.334657	-0.656685	-0.445241	-0.508459
02156		9.769582	-0.246196	-2.219943	-0.103125	-0.003363	-0.015752	-0.673340	0.333252	0.313232	0.334053	-0.656992	-0.444871	-0.508783
02157		9.420883	-0.312624	-2.671782	-0.167155	0.013478	-0.022016	-0.682373	0.333496	0.311279	0.333149	-0.657367	-0.444228	-0.509452
02158		9.469467	-0.488333	-2.583670	0.001134	0.018061	-0.022109	-0.669922	0.340332	0.310303	0.333126	-0.657286	-0.444204	-0.509593
02159		9.648053	-0.568030	-2.355947	0.143611	0.027378	-0.012698	-0.672852	0.338379	0.311768	0.334017	-0.656826	-0.444716	-0.509156
02160		9.735444	-0.399797	-2.374747	0.118182	0.046105	-0.014668	-0.676270	0.334473	0.317139	0.334823	-0.656334	-0.445100	-0.508926
02161		9.475922	-0.168980	-2.509324	0.137527	0.059015	-0.001705	-0.670654	0.339111	0.310547	0.335838	-0.655748	-0.445521	-0.508644
02162		9.470437	0.012499	-2.462049	0.204902	0.056057	0.025214	-0.670410	0.342041	0.293945	0.337340	-0.655105	-0.446053	-0.508012
02163		9.412026	0.140372	-2.538387	0.154599	0.049841	0.036465	-0.677490	0.335449	0.300049	0.338559	-0.654702	-0.446215	-0.507578
02164		9.356795	0.261041	-2.576115	0.126473	0.040030	0.035730	-0.676270	0.339600	0.297363	0.339568	-0.654369	-0.446362	-0.507204
02165		9.373103	0.331776	-2.524755	0.164669	0.038716	0.026884	-0.674072	0.341064	0.302979	0.340744	-0.653917	-0.446697	-0.506703
02166		9.456730	0.369768	-2.612931	0.131346	0.029607	0.016314	-0.670166	0.341553	0.297607	0.341685	-0.653544	-0.447031	-0.506255
02167		9.554998	0.336696	-2.632412	0.064272	0.024562	-0.003684	-0.680664	0.345947	0.299561	0.342170	-0.653304	-0.447202	-0.506087
02168		9.357382	0.304815	-2.431552	0.056565	-0.005506	-0.021478	-0.684082	0.345947	0.295898	0.342372	-0.653187	-0.447454	-0.505880
02169		9.524964	0.228159	-2.281331	0.103125	-0.013283	-0.055778	-0.680664	0.344238	0.300537	0.342628	-0.652851	-0.448070	-0.505593
02170		9.686512	0.287119	-2.349251	0.036067	0.004237	-0.085788	-0.677246	0.340088	0.301270	0.342488	-0.652496	-0.448582	-0.505692
02171		9.448524	0.297653	-2.761662	-0.095597	0.019967	-0.055359	-0.677979	0.340332	0.296875	0.341844	-0.652535	-0.448381	-0.506256
02172		9.521778	0.114259	-2.484673	-0.043245	-0.017814	-0.005618	-0.681885	0.345947	0.299316	0.341540	-0.652784	-0.448198	-0.506302
02173		9.683830	0.045420	-2.228148	-0.075050	-0.017657	-0.006403	-0.668701	0.331543	0.300293	0.341040	-0.653158	-0.447834	-0.506479
02174		9.493707	0.109193	-2.480005	-0.200496	-0.014433	-0.022217	-0.680420	0.343018	0.300049	0.339879	-0.653708	-0.447188	-0.507120
02175		9.454721	-0.003427	-2.553253	-0.179166	0.003441	-0.008064	-0.684082	0.345459	0.310791	0.338889	-0.654270	-0.446342	-0.507803
02176		9.418024	-0.097925	-2.717085	-0.140054	0.001027	0.018189	-0.683838	0.335938	0.309082	0.338209	-0.654842	-0.445538	-0.508225
02177		9.426784	-0.063423	-2.838238	-0.105301	0.003194	0.034136	-0.679688	0.338623	0.302490	0.337793	-0.655318	-0.444835	-0.508504
02178		9.525927	0.229738	-2.704599	-0.066930	-0.000821	0.020417	-0.681641	0.347168	0.310547	0.337520	-0.655667	-0.444342	-0.508665
02179		9.598711	0.413600	-2.451782	-0.073764	0.005930	0.009211	-0.682129	0.336426	0.308105	0.337186	-0.656008	-0.443838	-0.508889
02180		9.575864	0.273322	-2.263461	-0.068601	0.019126	0.009904	-0.677246	0.335693	0.304199	0.336928	-0.656225	-0.443366	-0.509189
02181		9.636043	-0.021524	-2.090213	-0.106353	0.021112	-0.001736	-0.680664	0.342773	0.308594	0.336440	-0.656489	-0.442799	-0.509665
02182		9.603050	-0.271986	-2.294276	-0.159706	0.022851	-0.022647	-0.675781	0.333496	0.306152	0.335562	-0.656861	-0.442066	-0.510400
02183		9.496719	-0.171827	-2.273882	-0.097879	0.037518	-0.026717	-0.686279	0.335449	0.305420	0.335084	-0.656930	-0.441642	-0.510992
02184		9.622484	-0.070138	-2.247863	-0.022842	0.034197	-0.015880	-0.680420	0.341309	0.311768	0.334995	-0.656878	-0.441408	-0.511320
02185		9.640296	0.096541	-2.179106	0.015578	0.028860	-0.020259	-0.681396	0.335205	0.310303	0.335115	-0.656742	-0.441403	-0.511421
02186		9.499390	0.289052	-2.358406	-0.026292	0.028761	-0.014077	-0.675781	0.334717	0.312744	0.335030	-0.656715	-0.441215	-0.511673
02187		9.450713	0.230400	-2.352476	-0.055309	0.020017	0.000743	-0.685059	0.340576	0.309326	0.334849	-0.656847	-0.440892	-0.511901
02188		9.521460	-0.024705	-2.470219	-0.040190	0.021539	0.009825	-0.672852	0.339600	0.308350	0.334741	-0.657014	-0.440473	-0.512117
02189		9.534155	-0.080576	-2.628180	-0.037285	0.015127	0.005319	-0.676514	0.343506	0.308105	0.334665	-0.657159	-0.440174	-0.512238
02190		9.503633	0.148017	-2.512822	-0.024185	0.017583	0.003519	-0.674316	0.337158	0.303467	0.334642	-0.657277	-0.439888	-0.512348
02191		9.480275	0.307143	-2.243058	0.034638	0.006670	0.001998	-0.672607	0.342041	0.305420	0.334901	-0.657238	-0.439921	-0.512200
02192		9.417229	0.382399	-2.283943	0.074014	0.021993	0.010872	-0.672607	0.335938	0.302246	0.335480	-0.657075	-0.440021	-0.511945
02193		9.420259	0.432219	-2.502229	0.015386	0.029920	0.034646	-0.675781	0.332275	0.308105	0.335866	-0.657095	-0.439749	-0.511899
02194		9.523648	0.284111	-2.598717	-0.041580	0.013587	0.052228	-0.672852	0.333740	0.296875	0.335949	-0.657387	-0.439224	-0.511920
02195		9.505924	-0.021023	-2.603994	-0.021718	0.000436	0.062253	-0.674805	0.335693	0.311035	0.336130	-0.657727	-0.438715	-0.511801
02196		9.529086	-0.215265	-2.494377	0.061933	0.006320	0.053784	-0.670654	0.341064	0.303955	0.336762	-0.657777	-0.438641	-0.511385
02197		9.646366	-0.096252	-2.411853	0.105360	0.007711	0.016341	-0.668457	0.341064	0.300049	0.337488	-0.657580	-0.438916	-0.510924
02198		9.508404	0.156159	-2.655023	0.064523	0.019826	-0.007711	-0.679688	0.344482	0.303955	0.337937	-0.657353	-0.439115	-0.510749
02199		9.514108	0.090535	-2.518902	0.099902	-0.005489	-0.008978	-0.682617	0.350586	0.300293	0.338433	-0.657159	-0.439489	-0.510348
02200		9.567143	-0.015621	-2.459502	0.087898	-0.001719	-0.020815	-0.673828	0.343750	0.307129	0.338809	-0.656971	-0.439808	-0.510066
02201		9.517292	0.038505	-2.509252	0.010394	-0.001976	-0.019711	-0.677979	0.343506	0.302002	0.338816	-0.656954	-0.439910	-0.509995
02202		9.631595	0.146894	-2.338203	0.002184	-0.002220	-0.016898	-0.668945	0.343994	0.299805	0.338760	-0.656981	-0.439917	-0.509990
02203		9.524160	0.126419	-2.271078	0.010873	0.006162	-0.011267	-0.671631	0.346680	0.300781	0.338851	-0.656956	-0.439941	-0.509941
02204		9.502273	-0.050849	-2.281970	0.002781	0.013986	-0.011141	-0.670654	0.341553	0.299072	0.338915	-0.656937	-0.439887	-0.509971
02205		9.556444	-0.098827	-2.376356	0.034684	0.035843	-0.025516	-0.672363	0.346924	0.296143	0.339173	-0.656658	-0.440008	-0.510053
02206		9.564138	0.116112	-2.390453	0.013753	0.066113	-0.022849	-0.673828	0.348389	0.303223	0.339433	-0.656347	-0.439897	-0.510378
02207		9.522107	0.183718	-2.111890	-0.001146	0.041962	-0.000981	-0.674561	0.343506	0.294434	0.339619	-0.656263	-0.439693	-0.510537
02208		9.595563	-0.022160	-2.079815	0.008948	0.000444	0.005904	-0.668945	0.341553	0.306152	0.339721	-0.656338	-0.439594	-0.510457
02209		9.712719	-0.065476	-2.423560	-0.030649	0.010639	-0.001234	-0.673340	0.340576	0.297852	0.339655	-0.656429	-0.439428	-0.510527
02210		9.395680	0.060905	-2.587833	-0.086020	0.003774	-0.014441	-0.672852	0.339111	0.298584	0.339170	-0.656668	-0.439060	-0.510860
02211		9.504378	0.235643	-2.550513	-0.084473	0.004204	-0.013934	-0.677734	0.343994	0.309570	0.338699	-0.656896	-0.438704	-0.511184
02212		9.593680	0.182811	-2.533625	-0.110650	0.026239	0.006727	-0.675293	0.340332	0.302490	0.338245	-0.657205	-0.438055	-0.511644
02213		9.451899	0.026472	-2.392978	-0.202523	0.025088	0.019651	-0.671387	0.340332	0.302490	0.337338	-0.657809	-0.436943	-0.512417
02214		9.542456	-0.095312	-1.810696	-0.172600	-0.027326	0.008802	-0.672363	0.346191	0.303711	0.336376	-0.658509	-0.436178	-0.512803
02215		9.714055	-0.127390	-2.396243	-0.069431	-0.019812	-0.017731	-0.675781	0.341553	0.304932	0.335895	-0.658815	-0.435944	-0.512923
02216		9.524823	-0.185844	-2.694543	-0.033244	0.005491	-0.010910	-0.675049	0.341309	0.304688	0.335711	-0.658928	-0.435756	-0.513059
02217		9.476778	-0.151993	-2.515548	0.012191	-0.014534	-0.007270	-0.668945	0.348389	0.306396	0.335722	-0.659011	-0.435801	-0.512906
02218		9.553464	-0.149015	-2.426855	-0.001942	-0.009296	-0.004239	-0.677490	0.346191	0.303955	0.335729	-0.659134	-0.435768	-0.512771
02219		9.591744	-0.109234	-2.431731	0.006445	0.012192	-0.007176	-0.668701	0.336426	0.311279	0.335797	-0.659141	-0.435678	-0.512794
02220		9.574852	0.051747	-2.353481	-0.031545	0.003792	-0.009805	-0.673340	0.338623	0.303467	0.335656	-0.659226	-0.435576	-0.512863
02221		9.509437	0.082287	-2.260179	-0.054067	-0.025465	-0.019885	-0.672363	0.337891	0.312500	0.335211	-0.659484	-0.435448	-0.512932
02222		9.530353	0.019271	-2.492596	0.005783	-0.030117	-0.028230	-0.670898	0.346191	0.306641	0.335055	-0.659558	-0.435673	-0.512748
02223		9.554753	-0.071137	-2.475923	0.029408	-0.023103	-0.022624	-0.675293	0.338135	0.309082	0.335092	-0.659583	-0.435906	-0.512493
02224		9.578241	-0.052356	-2.423919	0.016754	-0.012348	-0.017352	-0.678223	0.350342	0.308838	0.335087	-0.659599	-0.436034	-0.512368
02225		9.575724	0.217324	-2.410128	-0.026549	0.008826	0.000410	-0.677734	0.340820	0.305664	0.335002	-0.659753	-0.435768	-0.512451
02226		9.570133	0.268663	-2.354219	-0.056599	0.016408	0.022613	-0.675049	0.338867	0.311035	0.334855	-0.660010	-0.435246	-0.512659
02227		9.513974	0.079521	-2.272527	-0.097252	-0.011982	0.037429	-0.673828	0.341309	0.311035	0.334461	-0.660542	-0.434589	-0.512789
02228		9.581460	-0.015343	-2.436998	-0.069859	-0.011738	0.028231	-0.675537	0.347900	0.304932	0.334186	-0.660969	-0.434093	-0.512838
02229		9.491235	0.069959	-2.498084	-0.057814	-0.000685	0.012844	-0.676270	0.344971	0.318115	0.333944	-0.661285	-0.433647	-0.512965
02230		9.447941	0.227096	-2.599930	-0.077165	-0.007188	0.009066	-0.680420	0.336670	0.306152	0.333560	-0.661657	-0.433211	-0.513104
02231		9.505172	0.225612	-2.531519	-0.102655	-0.010520	0.011975	-0.676025	0.342285	0.311035	0.332986	-0.662113	-0.432607	-0.513398
02232		9.517301	0.083572	-2.406701	-0.138711	-0.017717	0.009597	-0.670166	0.341553	0.311035	0.332213	-0.662698	-0.431906	-0.513735
02233		9.538061	0.022364	-2.373197	-0.147552	-0.027594	-0.001051	-0.675293	0.334961	0.319336	0.331337	-0.663298	-0.431282	-0.514050
02234		9.558310	-0.028435	-2.444216	-0.101786	-0.018908	-0.005684	-0.675781	0.343018	0.314209	0.330696	-0.663708	-0.430867	-0.514281
02235		9.533003	-0.087126	-2.449042	-0.071579	-0.015464	-0.018055	-0.675049	0.340088	0.320068	0.330184	-0.664004	-0.430591	-0.514459
02236		9.578739	-0.139999	-2.521285	-0.074637	-0.011257	-0.020550	-0.677002	0.336914	0.315918	0.329664	-0.664271	-0.430333	-0.514664
02237		9.549299	-0.152290	-2.450490	-0.063925	-0.008846	-0.015938	-0.672852	0.337891	0.326416	0.329213	-0.664512	-0.430067	-0.514864
02238		9.530650	-0.100748	-2.344570	-0.045087	-0.014812	-0.017087	-0.665283	0.345703	0.316650	0.328873	-0.664716	-0.429960	-0.514908
02239		9.562160	-0.038487	-2.432548	-0.024219	-0.021501	-0.024313	-0.666260	0.335693	0.315430	0.328633	-0.664878	-0.429984	-0.514832
02240		9.521681	-0.067207	-2.451613	-0.037861	-0.021124	-0.032115	-0.676270	0.332520	0.317871	0.328264	-0.665021	-0.430005	-0.514865
02241		9.525387	-0.057815	-2.582743	-0.022866	-0.023106	-0.034337	-0.669189	0.343994	0.317139	0.327905	-0.665136	-0.430062	-0.514897
02242		9.561194	-0.130589	-2.477885	0.007997	-0.005829	-0.026660	-0.675049	0.336914	0.310059	0.327869	-0.665138	-0.430174	-0.514824
02243		9.569521	-0.144226	-2.461426	-0.002866	0.002400	-0.018809	-0.674072	0.337402	0.317627	0.327785	-0.665159	-0.430126	-0.514891
02244		9.524223	-0.100648	-2.447724	-0.014415	0.009826	-0.018314	-0.669189	0.343018	0.316406	0.327680	-0.665177	-0.430040	-0.515006
02245		9.509516	-0.011901	-2.350462	0.025637	0.011133	-0.021110	-0.669434	0.332031	0.321289	0.327825	-0.665077	-0.430150	-0.514952
02246		9.559367	0.051712	-2.349048	0.053482	0.009474	-0.025545	-0.667969	0.341553	0.316650	0.328085	-0.664859	-0.430448	-0.514817
02247		9.574172	0.034716	-2.438408	0.041142	0.007846	-0.023085	-0.669189	0.339600	0.316406	0.328302	-0.664714	-0.430660	-0.514689
02248		9.548854	0.049888	-2.538028	0.032559	0.016848	-0.019620	-0.666260	0.347168	0.312256	0.328508	-0.664564	-0.430789	-0.514644
02249		9.509248	0.059659	-2.519773	0.041433	0.018126	-0.021889	-0.677002	0.330322	0.320068	0.328785	-0.664388	-0.430958	-0.514553
02250		9.569101	0.076870	-2.454349	0.054785	0.012722	-0.023576	-0.680908	0.333984	0.312256	0.329027	-0.664171	-0.431199	-0.514476
02251		9.577957	0.110082	-2.488463	0.041503	0.013041	-0.023661	-0.671875	0.332031	0.312012	0.329174	-0.664010	-0.431325	-0.514485
02252		9.524376	0.145091	-2.464257	0.027759	0.013885	-0.019288	-0.676025	0.337402	0.308105	0.329314	-0.663871	-0.431429	-0.514487
02253		9.523989	0.164801	-2.404713	0.035585	0.013231	-0.011637	-0.671875	0.338379	0.314697	0.329513	-0.663763	-0.431482	-0.514454
02254		9.481698	0.171953	-2.323600	0.035704	0.011762	-0.008971	-0.679199	0.335938	0.315674	0.329750	-0.663662	-0.431573	-0.514357
02255		9.587097	0.196461	-2.323852	0.027939	0.016007	-0.012166	-0.673828	0.345459	0.315430	0.329901	-0.663562	-0.431598	-0.514367
02256		9.546854	0.239641	-2.436307	-0.009064	0.019204	-0.004106	-0.667969	0.335938	0.308838	0.329942	-0.663590	-0.431433	-0.514444
02257		9.527394	0.123994	-2.425841	-0.022719	0.018537	0.006282	-0.669434	0.337402	0.318359	0.329957	-0.663659	-0.431184	-0.514554
02258		9.492585	0.037301	-2.429359	-0.023550	0.014623	0.006672	-0.669434	0.334961	0.316650	0.329958	-0.663754	-0.430958	-0.514620
02259		9.564013	0.018918	-2.468627	-0.017705	0.010655	0.000364	-0.672852	0.337646	0.321533	0.329942	-0.663822	-0.430800	-0.514675
02260		9.588195	0.021688	-2.489143	0.004186	0.015276	-0.008421	-0.675049	0.335938	0.310059	0.330017	-0.663792	-0.430761	-0.514697
02261		9.540505	-0.031083	-2.570782	-0.037355	0.009365	-0.022853	-0.669189	0.328613	0.320801	0.329753	-0.663853	-0.430592	-0.514929
02262		9.444124	-0.017553	-2.604425	-0.080162	-0.005182	-0.024076	-0.674561	0.331787	0.317139	0.329219	-0.664061	-0.430360	-0.515197
02263		9.517033	0.017068	-2.498046	-0.024995	-0.011745	-0.019263	-0.671875	0.336670	0.312988	0.328963	-0.664183	-0.430307	-0.515247
02264		9.573936	0.041458	-2.457548	0.014403	-0.019976	-0.028788	-0.678223	0.340332	0.306641	0.328879	-0.664202	-0.430500	-0.515115
02265		9.502832	0.008359	-2.527797	-0.022597	-0.015940	-0.032164	-0.672607	0.335938	0.321533	0.328562	-0.664313	-0.430484	-0.515187
02266		9.545070	0.008112	-2.609271	-0.033406	-0.012681	-0.032898	-0.671143	0.327637	0.316895	0.328222	-0.664419	-0.430492	-0.515262
02267		9.482032	0.063886	-2.605282	-0.025580	-0.004546	-0.025759	-0.668945	0.330811	0.315674	0.327970	-0.664475	-0.430470	-0.515368
02268		9.504787	-0.033184	-2.439059	-0.004926	-0.004905	-0.016932	-0.668701	0.334473	0.320557	0.327889	-0.664510	-0.430497	-0.515352
02269		9.510324	-0.023833	-2.386401	-0.004452	-0.014146	-0.024265	-0.680420	0.330566	0.319092	0.327758	-0.664564	-0.430604	-0.515276
02270		9.434858	0.131026	-2.521014	-0.030694	-0.033665	-0.041763	-0.669922	0.336426	0.317383	0.327262	-0.664731	-0.430669	-0.515321
02271		9.490916	0.288127	-2.699475	-0.020863	-0.037674	-0.059435	-0.682861	0.332275	0.311523	0.326804	-0.664811	-0.430948	-0.515276
02272		9.471109	0.247961	-2.491154	-0.016149	-0.028816	-0.065991	-0.681641	0.333252	0.313965	0.326296	-0.664836	-0.431165	-0.515384
02273		9.525195	0.080556	-2.360284	-0.017453	-0.035831	-0.065573	-0.671143	0.332764	0.326416	0.325771	-0.664896	-0.431408	-0.515435
02274		9.582338	-0.116724	-2.428848	-0.020523	-0.031592	-0.071417	-0.674316	0.339600	0.322266	0.325276	-0.664908	-0.431747	-0.515449
02275		9.583112	-0.171275	-2.437430	0.021753	-0.015313	-0.083991	-0.668701	0.346924	0.324951	0.325025	-0.664705	-0.432268	-0.515432
02276		9.571455	-0.096138	-2.444384	0.076680	-0.001950	-0.077576	-0.671875	0.332764	0.312988	0.325207	-0.664320	-0.432997	-0.515203
02277		9.592416	0.000252	-2.404472	0.059999	0.005113	-0.068569	-0.672607	0.332764	0.325439	0.325303	-0.663962	-0.433536	-0.515149
02278		9.535679	0.001272	-2.368900	0.025729	0.003696	-0.055502	-0.679443	0.330811	0.323486	0.325265	-0.663755	-0.433887	-0.515144
02279		9.626773	0.034026	-2.337331	0.049029	0.008677	-0.047004	-0.673828	0.334961	0.317627	0.325368	-0.663507	-0.434229	-0.515110
02280		9.508171	0.023511	-2.403242	0.062892	0.022361	-0.033618	-0.678711	0.329346	0.319336	0.325697	-0.663203	-0.434545	-0.515028
02281		9.514202	0.041799	-2.449266	0.048241	0.027826	-0.019282	-0.674805	0.327637	0.322510	0.325984	-0.662971	-0.434675	-0.515036
02282		9.593851	0.081352	-2.548807	0.026510	0.030508	-0.018452	-0.675537	0.336670	0.311279	0.326183	-0.662776	-0.434734	-0.515110
02283		9.594425	-0.036977	-2.613117	0.019293	0.032648	-0.020062	-0.666016	0.331543	0.321289	0.326361	-0.662599	-0.434742	-0.515219
02284		9.505509	-0.071722	-2.535942	0.057036	0.013740	-0.021049	-0.676270	0.327881	0.321777	0.326718	-0.662366	-0.435055	-0.515028
02285		9.533637	-0.033833	-2.548678	0.108033	0.016668	-0.033287	-0.673340	0.331299	0.314209	0.327247	-0.661958	-0.435577	-0.514776
02286		9.504595	-0.017518	-2.603720	0.151537	0.020859	-0.046709	-0.681885	0.333740	0.310791	0.327995	-0.661360	-0.436353	-0.514411
02287		9.473331	-0.001297	-2.594415	0.182260	0.024667	-0.064620	-0.670410	0.333496	0.315430	0.328809	-0.660618	-0.437289	-0.514049
02288		9.517417	0.138908	-2.627138	0.196223	0.039163	-0.065869	-0.670654	0.331543	0.312256	0.329813	-0.659738	-0.438347	-0.513635
02289		9.518229	0.363030	-2.478257	0.204295	0.053215	-0.057221	-0.678467	0.330811	0.308594	0.330942	-0.658802	-0.439345	-0.513258
02290		9.534395	0.287379	-2.338876	0.150248	0.057366	-0.045220	-0.673828	0.335205	0.311523	0.331793	-0.658058	-0.439977	-0.513121
02291		9.530747	0.092893	-2.391530	0.124424	0.049194	-0.039645	-0.672852	0.336426	0.306396	0.332541	-0.657429	-0.440542	-0.512958
02292		9.535659	-0.027765	-2.514825	0.144904	0.045266	-0.046023	-0.674072	0.337402	0.307373	0.333366	-0.656733	-0.441240	-0.512714
02293		9.606377	0.030662	-2.649186	0.153914	0.050895	-0.055115	-0.673096	0.331787	0.303955	0.334222	-0.655956	-0.442012	-0.512487
02294		9.572454	0.034425	-2.668752	0.163754	0.061967	-0.042809	-0.679932	0.331055	0.300293	0.335208	-0.655141	-0.442719	-0.512276
02295		9.543407	0.008652	-2.417696	0.190426	0.064444	-0.019653	-0.682861	0.333740	0.303711	0.336405	-0.654342	-0.443353	-0.511964
02296		9.538514	0.031841	-2.326830	0.203683	0.072915	-0.006401	-0.683838	0.334229	0.301025	0.337758	-0.653523	-0.443948	-0.511602
02297		9.433844	-0.000825	-2.250148	0.223416	0.061310	-0.006364	-0.686523	0.338379	0.303467	0.339168	-0.652698	-0.444651	-0.511112
02298		9.535664	-0.058728	-2.216644	0.252118	0.032528	-0.020097	-0.671387	0.340088	0.300537	0.340568	-0.651870	-0.445631	-0.510384
02299		9.689505	-0.153122	-2.430092	0.291738	-0.006852	-0.031310	-0.680420	0.346436	0.294922	0.342072	-0.651011	-0.447047	-0.509236
02300		9.573009	-0.238308	-2.213919	0.340122	0.001643	-0.045575	-0.678955	0.336914	0.296631	0.343776	-0.649946	-0.448659	-0.508028
02301		9.540218	0.061510	-2.202298	0.400900	-0.002955	-0.052307	-0.687744	0.347412	0.292969	0.345729	-0.648686	-0.450572	-0.506618
02302		9.578820	0.428793	-2.324099	0.367198	0.018404	-0.050788	-0.682373	0.351318	0.283936	0.347570	-0.647460	-0.452227	-0.505452
02303		9.574914	0.471340	-2.317589	0.337010	0.000570	-0.053721	-0.682373	0.343506	0.290527	0.349202	-0.646367	-0.453840	-0.504278
02304		9.457450	0.346090	-2.477904	0.208522	-0.013877	-0.071538	-0.684082	0.345703	0.286865	0.349983	-0.645630	-0.455058	-0.503583
02305		9.359482	0.256168	-2.837681	0.135094	-0.059971	-0.074020	-0.682617	0.347900	0.290039	0.350180	-0.645296	-0.456101	-0.502930
02306		9.421538	0.231925	-2.855759	0.141920	-0.052782	-0.071815	-0.681396	0.339600	0.286133	0.350468	-0.644915	-0.457162	-0.502255
02307		9.468054	0.172737	-2.824355	0.175828	-0.048973	-0.089027	-0.681885	0.349365	0.291748	0.350855	-0.644343	-0.458434	-0.501559
02308		9.470033	0.212646	-2.807810	0.156643	-0.052514	-0.101928	-0.682617	0.350342	0.290283	0.351106	-0.643799	-0.459728	-0.500896
02309		9.502819	0.303581	-2.775654	0.151468	-0.037077	-0.094541	-0.681396	0.348389	0.285889	0.351421	-0.643234	-0.460913	-0.500313
02310		9.495587	0.196394	-2.439280	0.143268	-0.020105	-0.081223	-0.680908	0.343506	0.281738	0.351812	-0.642666	-0.461939	-0.499820
02311		9.540922	0.125886	-2.433379	0.152652	0.003965	-0.081497	-0.684570	0.344971	0.291016	0.352329	-0.641964	-0.462926	-0.499446
02312		9.575290	0.114395	-2.415991	0.157430	0.014084	-0.065171	-0.687744	0.344727	0.283936	0.352971	-0.641276	-0.463820	-0.499047
02313		9.529543	-0.027523	-2.333200	0.169331	0.024266	-0.047653	-0.685303	0.343018	0.284424	0.353770	-0.640584	-0.464610	-0.498635
02314		9.586103	-0.060810	-2.347986	0.236143	0.020566	-0.043722	-0.688965	0.344238	0.276855	0.354933	-0.639716	-0.465683	-0.497922
02315		9.526615	0.137826	-2.326338	0.280104	0.034074	-0.037998	-0.684814	0.348145	0.280518	0.356389	-0.638689	-0.466835	-0.497120
02316		9.506694	0.389816	-2.178754	0.302881	0.012645	-0.026266	-0.685303	0.350098	0.279297	0.357963	-0.637717	-0.468117	-0.496030
02317		9.664242	0.585560	-2.096253	0.237132	0.006878	-0.014362	-0.687012	0.341553	0.268799	0.359212	-0.637011	-0.469078	-0.495126
02318		9.558885	0.633732	-2.291935	0.069911	0.013940	-0.013582	-0.687256	0.348145	0.277832	0.359563	-0.636770	-0.469295	-0.494975
02319		9.353747	0.778444	-2.115671	-0.043265	-0.005088	0.000079	-0.680176	0.347168	0.278809	0.359316	-0.637008	-0.469048	-0.495083
02320		9.418890	0.673638	-1.945708	-0.086305	-0.034566	0.010497	-0.679443	0.342773	0.272949	0.358797	-0.637521	-0.468690	-0.495138
02321		9.489609	0.474961	-2.039124	-0.120123	-0.036417	-0.009142	-0.685059	0.346924	0.277588	0.357999	-0.638057	-0.468294	-0.495400
02322		9.509346	0.266304	-2.015375	-0.154018	-0.027465	-0.018127	-0.673584	0.345947	0.273926	0.357005	-0.638641	-0.467754	-0.495874
02323		9.602039	0.077300	-2.050206	-0.182188	-0.059719	-0.017720	-0.685059	0.342285	0.286865	0.355790	-0.639415	-0.467237	-0.496237
02324		9.609902	0.109034	-2.059368	-0.157922	-0.080312	-0.017103	-0.689941	0.347656	0.286133	0.354557	-0.640233	-0.466833	-0.496445
02325		9.696372	0.130908	-2.034812	-0.187378	-0.071903	-0.017992	-0.688965	0.340820	0.287842	0.353192	-0.641114	-0.466258	-0.496821
02326		9.829654	-0.103880	-2.053039	-0.212802	-0.056017	-0.026167	-0.676270	0.339111	0.285645	0.351704	-0.641962	-0.465577	-0.497420
02327		9.749288	-0.342021	-1.990207	-0.209496	-0.027831	-0.023931	-0.678955	0.343018	0.284912	0.350406	-0.642662	-0.464863	-0.498100
02328		9.750739	-0.295148	-1.905399	-0.154308	-0.003041	-0.014870	-0.688721	0.340088	0.292969	0.349540	-0.643142	-0.464239	-0.498670
02329		9.644691	-0.231911	-1.994583	-0.216463	0.013779	-0.008735	-0.686523	0.334961	0.285645	0.348377	-0.643778	-0.463235	-0.499596
02330		9.471454	-0.278021	-2.185230	-0.221225	0.016714	0.014285	-0.677246	0.337158	0.296387	0.347299	-0.644484	-0.462085	-0.500501
02331		9.599753	-0.368640	-2.206526	-0.100802	0.008374	0.044571	-0.682373	0.340332	0.293701	0.347000	-0.644991	-0.461334	-0.500749
02332		9.803411	-0.349419	-2.134530	-0.046733	0.011022	0.037200	-0.681396	0.339355	0.296143	0.346959	-0.645311	-0.460815	-0.500842
02333		9.730346	-0.064418	-2.317771	-0.115745	0.026652	-0.010056	-0.682373	0.333008	0.290771	0.346407	-0.645584	-0.460219	-0.501419
02334		9.658741	0.039770	-2.053280	-0.117615	0.022374	-0.008999	-0.683594	0.336426	0.299316	0.345818	-0.645870	-0.459621	-0.502006
02335		9.592344	-0.244403	-2.106968	-0.185021	0.015598	0.005229	-0.684326	0.337891	0.292725	0.344897	-0.646450	-0.458675	-0.502758
02336		9.352826	-0.201648	-2.250039	-0.155634	-0.000442	0.022220	-0.678223	0.332520	0.298584	0.344155	-0.647071	-0.457801	-0.503265
02337		9.534372	0.002098	-2.371803	-0.041473	-0.004724	0.007724	-0.684082	0.331787	0.295166	0.343954	-0.647318	-0.457518	-0.503341
02338		9.502390	-0.016455	-2.623568	-0.071676	0.017753	-0.026755	-0.683105	0.340332	0.302002	0.343511	-0.647427	-0.457211	-0.503782
02339		9.435888	-0.136062	-2.803675	-0.040537	0.001042	-0.028147	-0.684082	0.330811	0.290771	0.343187	-0.647534	-0.457083	-0.503982
02340		9.598960	-0.025990	-2.579379	0.090125	0.006296	-0.026583	-0.671875	0.340332	0.291748	0.343582	-0.647219	-0.457493	-0.503745
02341		9.404270	0.313690	-2.336449	0.073554	-0.010942	-0.033221	-0.685059	0.334717	0.295410	0.343862	-0.647001	-0.457949	-0.503420
02342		9.378199	0.684078	-2.410084	-0.018645	-0.020773	-0.072960	-0.682373	0.337158	0.303467	0.343371	-0.646949	-0.458220	-0.503574
02343		9.367271	0.635934	-2.568265	-0.057660	-0.020397	-0.087912	-0.674805	0.327393	0.291748	0.342618	-0.646965	-0.458408	-0.503896
02344		9.432575	0.158479	-2.428622	-0.013603	-0.026544	-0.072390	-0.682861	0.337646	0.298584	0.342166	-0.646895	-0.458759	-0.503974
02345		9.599222	-0.024255	-2.516346	-0.000030	-0.020720	-0.070784	-0.685547	0.329346	0.299561	0.341808	-0.646806	-0.459099	-0.504021
02346		9.616019	0.116635	-2.502758	0.003753	-0.029191	-0.073368	-0.682617	0.338379	0.295410	0.341397	-0.646724	-0.459493	-0.504046
02347		9.551736	0.308157	-2.475345	0.030761	-0.024516	-0.058732	-0.682617	0.336182	0.300537	0.341254	-0.646605	-0.459912	-0.503913
02348		9.498471	0.280112	-2.374505	-0.021047	-0.016694	-0.033353	-0.679688	0.337891	0.299316	0.340957	-0.646703	-0.459952	-0.503952
02349		9.444732	0.081229	-2.643843	-0.130125	-0.007952	-0.025316	-0.683105	0.336426	0.303223	0.340157	-0.647102	-0.459472	-0.504418
02350		9.507009	0.144648	-2.643027	-0.082945	-0.023397	-0.013055	-0.686523	0.326660	0.302979	0.339585	-0.647487	-0.459158	-0.504596
02351		9.474196	0.200943	-2.656142	-0.057152	-0.011743	0.000553	-0.677734	0.337402	0.296875	0.339220	-0.647787	-0.458847	-0.504739
02352		9.536757	0.219677	-2.723335	-0.049582	-0.009733	0.010906	-0.689697	0.330811	0.299561	0.339013	-0.648095	-0.458522	-0.504777
02353		9.664351	0.228973	-2.637231	-0.069209	0.015805	0.016844	-0.683838	0.333496	0.297363	0.338761	-0.648379	-0.457983	-0.505072
02354		9.409765	0.287368	-2.582190	-0.120192	0.027359	0.041897	-0.678711	0.338623	0.303223	0.338413	-0.648848	-0.457076	-0.505525
02355		9.514188	0.305169	-2.204934	-0.095112	0.013869	0.062379	-0.683594	0.331787	0.298584	0.338257	-0.649392	-0.456205	-0.505716
02356		9.676846	0.138813	-2.377197	-0.134685	0.018670	0.059620	-0.678955	0.325439	0.306152	0.337863	-0.650002	-0.455165	-0.506133
02357		9.503686	0.114618	-2.782233	-0.170311	0.040950	0.058519	-0.684082	0.327637	0.303711	0.337346	-0.650607	-0.453934	-0.506805
02358		9.505372	0.246952	-2.680247	-0.139330	0.030151	0.086222	-0.682373	0.328613	0.307861	0.337064	-0.651279	-0.452696	-0.507237
02359		9.455341	0.259515	-2.508513	-0.188716	0.040937	0.099095	-0.678955	0.332520	0.301758	0.336609	-0.652097	-0.451149	-0.507867
02360		9.606912	0.178898	-2.302347	-0.244689	0.063858	0.095519	-0.682861	0.332764	0.310059	0.335947	-0.652949	-0.449328	-0.508824
02361		9.571913	0.106981	-2.090035	-0.306453	0.055347	0.089125	-0.679688	0.330566	0.309082	0.334864	-0.654000	-0.447281	-0.509990
02362		9.592054	-0.154781	-2.361232	-0.214312	0.047034	0.080149	-0.677002	0.326660	0.309082	0.334220	-0.654783	-0.445706	-0.510786
02363		9.582306	-0.313249	-2.561792	-0.072232	0.029324	0.076188	-0.679443	0.337891	0.300537	0.334268	-0.655220	-0.444817	-0.510970
02364		9.463704	0.090871	-2.396882	-0.085706	0.050172	0.094624	-0.681641	0.340088	0.299316	0.334426	-0.655677	-0.443698	-0.511252
02365		9.489070	0.340648	-2.330763	-0.078784	0.058302	0.103166	-0.679688	0.343262	0.309082	0.334684	-0.656113	-0.442531	-0.511535
02366		9.520165	0.281734	-2.352219	-0.116793	0.063818	0.114489	-0.684326	0.341797	0.302734	0.334798	-0.656693	-0.441116	-0.511939
02367		9.522918	0.124738	-2.317666	-0.160879	0.044410	0.104895	-0.677734	0.341797	0.308350	0.334544	-0.657431	-0.439611	-0.512452
02368		9.385730	0.126959	-2.553697	-0.231924	0.030868	0.074116	-0.675781	0.329834	0.315186	0.333730	-0.658313	-0.438021	-0.513212
02369		9.396336	0.227248	-2.730817	-0.152918	0.024104	0.039343	-0.671631	0.340088	0.306152	0.333147	-0.658862	-0.436995	-0.513760
02370		9.482233	0.270834	-2.775230	-0.049718	0.040030	0.033824	-0.679199	0.339111	0.308594	0.333214	-0.659034	-0.436401	-0.514001
02371		9.496862	0.093325	-2.665644	-0.037608	0.051220	0.039721	-0.680664	0.338623	0.303711	0.333382	-0.659154	-0.435775	-0.514270
02372		9.490187	-0.015322	-2.457486	-0.075545	0.028836	0.030098	-0.675781	0.336182	0.299805	0.333217	-0.659431	-0.435101	-0.514591
02373		9.566718	-0.045810	-2.434830	-0.043619	-0.005021	0.014301	-0.677979	0.343018	0.306641	0.333054	-0.659692	-0.434767	-0.514645
02374		9.638474	-0.005367	-2.430390	0.036436	0.015251	0.002442	-0.680908	0.335205	0.309082	0.333351	-0.659625	-0.434764	-0.514541
02375		9.517770	0.100967	-2.451201	0.013671	0.016051	-0.000615	-0.675293	0.338867	0.312256	0.333481	-0.659601	-0.434677	-0.514561
02376		9.536504	0.179289	-2.508314	-0.047914	0.016959	-0.003666	-0.675293	0.342529	0.302002	0.333286	-0.659739	-0.434349	-0.514787
02377		9.509215	0.195168	-2.340847	-0.091913	0.031546	0.008887	-0.678711	0.343506	0.303711	0.332977	-0.659970	-0.433728	-0.515214
02378		9.546642	-0.011004	-2.107433	-0.104120	0.000572	0.013858	-0.680420	0.328125	0.308594	0.332498	-0.660394	-0.433100	-0.515509
02379		9.712337	-0.127051	-2.365914	-0.044493	-0.014152	0.005292	-0.674805	0.339111	0.307129	0.332213	-0.660667	-0.432824	-0.515574
02380		9.541417	-0.030650	-2.463283	0.012497	0.000321	0.000381	-0.675781	0.346436	0.310303	0.332318	-0.660713	-0.432785	-0.515480
02381		9.407907	0.219096	-2.456172	0.003180	0.000270	-0.004423	-0.671875	0.342773	0.310791	0.332359	-0.660787	-0.432718	-0.515416
02382		9.545475	0.185156	-2.407850	-0.055132	0.008808	0.011309	-0.681152	0.344971	0.315674	0.332181	-0.661032	-0.432307	-0.515562
02383		9.514446	-0.043628	-2.050337	-0.073697	-0.011723	0.028211	-0.673584	0.343750	0.319336	0.331865	-0.661497	-0.431744	-0.515640
02384		9.624206	-0.120007	-2.193383	-0.039161	-0.035132	0.024743	-0.671631	0.338623	0.310303	0.331660	-0.661951	-0.431434	-0.515449
02385		9.511320	0.171886	-2.384091	-0.007070	-0.023470	0.001959	-0.673828	0.347656	0.315186	0.331580	-0.662158	-0.431373	-0.515285
02386		9.437883	0.304409	-2.461501	0.014635	-0.023152	-0.010591	-0.672607	0.339355	0.313477	0.331573	-0.662282	-0.431453	-0.515063
02387		9.602536	0.065541	-2.504254	-0.008350	-0.012912	-0.008764	-0.677979	0.341064	0.314453	0.331472	-0.662415	-0.431410	-0.514994
02388		9.570526	-0.126543	-2.501751	-0.041593	-0.006672	-0.001282	-0.675049	0.341064	0.315918	0.331225	-0.662648	-0.431147	-0.515073
02389		9.544617	0.072178	-2.376403	-0.038387	-0.023221	0.000760	-0.672852	0.347412	0.319336	0.330954	-0.662950	-0.430940	-0.515032
02390		9.484674	0.356898	-2.327343	-0.025224	-0.024150	-0.008683	-0.672852	0.343262	0.307617	0.330729	-0.663198	-0.430842	-0.514938
02391		9.454985	0.418372	-2.422282	-0.066886	-0.018426	-0.009408	-0.670654	0.339111	0.314697	0.330292	-0.663511	-0.430560	-0.515051
02392		9.525816	0.202759	-2.486523	-0.136709	-0.013697	-0.002983	-0.680908	0.340576	0.314209	0.329509	-0.664017	-0.429942	-0.515417
02393		9.552414	-0.117758	-2.378964	-0.156129	-0.005380	0.012893	-0.672119	0.338379	0.312744	0.328682	-0.664610	-0.429091	-0.515890
02394		9.557977	-0.291245	-2.354658	-0.154337	0.004628	0.012594	-0.663330	0.331543	0.316895	0.327930	-0.665138	-0.428253	-0.516385
02395		9.593925	-0.232648	-2.281796	-0.121412	-0.002410	0.005419	-0.667236	0.339111	0.318604	0.327321	-0.665562	-0.427652	-0.516722
02396		9.625118	-0.138686	-2.296406	-0.034697	-0.006076	0.008630	-0.671387	0.347900	0.322998	0.327193	-0.665796	-0.427393	-0.516716
02397		9.572169	-0.115955	-2.437160	-0.026272	-0.000444	0.008596	-0.667969	0.339844	0.320068	0.327132	-0.666005	-0.427132	-0.516700
02398		9.479194	-0.077446	-2.464503	-0.034461	0.001990	0.017126	-0.668701	0.337891	0.311768	0.327068	-0.666237	-0.426801	-0.516717
02399		9.547913	-0.096672	-2.441273	-0.023144	-0.001696	0.016851	-0.670166	0.338379	0.318115	0.327049	-0.666441	-0.426526	-0.516692
02400		9.539874	-0.003195	-2.420026	-0.043245	-0.002997	0.011552	-0.670654	0.336914	0.322021	0.326882	-0.666696	-0.426193	-0.516744
02401		9.469356	0.018392	-2.264073	-0.044022	-0.029572	0.006787	-0.673584	0.341064	0.323730	0.326588	-0.667052	-0.425955	-0.516667
02402		9.504782	0.025914	-2.344294	0.000403	-0.030579	-0.005025	-0.675537	0.343018	0.318604	0.326483	-0.667260	-0.425962	-0.516458
02403		9.520210	0.076061	-2.497597	0.032610	-0.015787	-0.011167	-0.665771	0.335693	0.315430	0.326581	-0.667296	-0.426090	-0.516245
02404		9.508367	0.009214	-2.471853	0.009896	-0.017347	0.003314	-0.668457	0.344482	0.318359	0.326631	-0.667425	-0.426085	-0.516050
02405		9.532962	-0.119429	-2.462432	-0.010970	-0.016016	0.005215	-0.669189	0.333008	0.323242	0.326586	-0.667629	-0.425962	-0.515916
02406		9.547728	-0.067178	-2.432774	0.011565	-0.014623	0.004141	-0.669434	0.339600	0.318359	0.326633	-0.667753	-0.425940	-0.515744
02407		9.484425	0.066451	-2.295507	0.040869	-0.033752	0.001735	-0.669922	0.336182	0.320557	0.326781	-0.667875	-0.426104	-0.515357
02408		9.562340	0.104331	-2.403445	0.056914	-0.024878	-0.007327	-0.669189	0.343506	0.326416	0.326997	-0.667881	-0.426360	-0.515000
02409		9.547721	0.056466	-2.522108	0.025208	-0.008697	-0.007658	-0.660889	0.347412	0.321289	0.327110	-0.667915	-0.426442	-0.514816
02410		9.511542	-0.023019	-2.570515	0.015485	-0.011194	0.007365	-0.665771	0.340576	0.322998	0.327267	-0.668028	-0.426438	-0.514573
02411		9.545944	-0.033202	-2.459731	-0.017446	-0.010042	0.006582	-0.672607	0.347412	0.321533	0.327204	-0.668223	-0.426275	-0.514496
02412		9.552778	0.126941	-2.513314	-0.100187	-0.028470	-0.007383	-0.674072	0.342041	0.321289	0.326545	-0.668688	-0.425855	-0.514658
02413		9.440050	0.187862	-2.571862	-0.159062	-0.027586	-0.019511	-0.665771	0.343018	0.333252	0.325488	-0.669262	-0.425238	-0.515091
02414		9.479657	0.121561	-2.531937	-0.126288	-0.027404	-0.014622	-0.664062	0.336670	0.321533	0.324672	-0.669760	-0.424778	-0.515338
02415		9.541445	-0.008124	-2.477336	-0.124501	-0.042400	-0.002723	-0.670654	0.349365	0.329834	0.323857	-0.670342	-0.424294	-0.515493
02416		9.508629	-0.165545	-2.594486	-0.132024	-0.044911	-0.001624	-0.667725	0.333984	0.328857	0.323001	-0.670985	-0.423761	-0.515632
02417		9.553213	-0.219136	-2.606834	-0.059722	-0.025865	-0.006776	-0.666748	0.339600	0.332764	0.322567	-0.671313	-0.423517	-0.515677
02418		9.500970	-0.061949	-2.645239	-0.002026	-0.021047	-0.010568	-0.668945	0.338379	0.329346	0.322475	-0.671459	-0.423540	-0.515526
02419		9.492489	0.020310	-2.703478	0.010174	-0.018598	-0.007574	-0.666504	0.335449	0.334473	0.322459	-0.671572	-0.423576	-0.515359
02420		9.526898	-0.033352	-2.561227	-0.000040	-0.010175	-0.007923	-0.670166	0.341309	0.335938	0.322416	-0.671670	-0.423563	-0.515268
02421		9.498767	-0.044921	-2.574721	-0.002806	-0.013224	-0.011611	-0.669189	0.336670	0.324219	0.322332	-0.671788	-0.423556	-0.515173
02422		9.500960	0.003814	-2.673348	-0.015837	-0.018871	-0.015552	-0.663330	0.344238	0.327881	0.322126	-0.671941	-0.423514	-0.515136
02423		9.458104	0.120646	-2.668158	-0.040416	-0.022435	-0.017440	-0.664795	0.343506	0.329346	0.321808	-0.672166	-0.423427	-0.515113
02424		9.499488	0.228125	-2.575517	-0.025262	-0.018283	-0.014840	-0.663574	0.334473	0.341553	0.321594	-0.672344	-0.423374	-0.515059
02425		9.530024	0.210721	-2.500719	-0.034883	-0.023657	-0.012225	-0.663086	0.335449	0.341064	0.321302	-0.672574	-0.423293	-0.515007
02426		9.516596	0.095449	-2.542263	-0.080578	-0.023169	-0.010587	-0.660645	0.343262	0.337402	0.320768	-0.672929	-0.423007	-0.515111
02427		9.492761	0.015481	-2.542471	-0.070147	-0.018331	-0.009954	-0.666992	0.333008	0.324463	0.320344	-0.673237	-0.422767	-0.515170
02428		9.477357	-0.001078	-2.505955	-0.029607	-0.014700	-0.006736	-0.667236	0.343506	0.323486	0.320107	-0.673438	-0.422599	-0.515191
02429		9.503591	-0.005125	-2.490424	-0.019284	-0.011963	-0.013196	-0.662354	0.337891	0.326660	0.319941	-0.673582	-0.422521	-0.515171
02430		9.494008	-0.029478	-2.477185	-0.031289	-0.016640	-0.012216	-0.658691	0.339844	0.330078	0.319702	-0.673770	-0.422418	-0.515159
02431		9.494188	-0.063823	-2.531257	-0.013018	-0.012105	-0.014112	-0.658691	0.336914	0.335938	0.319597	-0.673876	-0.422421	-0.515081
02432		9.524797	-0.057572	-2.480543	0.012465	-0.001464	-0.020270	-0.670654	0.340332	0.334473	0.319641	-0.673847	-0.422546	-0.514991
02433		9.549984	-0.057666	-2.483048	0.013263	0.000799	-0.007950	-0.661133	0.334473	0.331787	0.319707	-0.673872	-0.422537	-0.514923
02434		9.515949	-0.082795	-2.464646	0.004636	0.004502	-0.002913	-0.667236	0.337402	0.337646	0.319780	-0.673904	-0.422487	-0.514878
02435		9.562303	-0.083686	-2.425725	0.027264	-0.002709	-0.007076	-0.671143	0.332520	0.341309	0.319923	-0.673903	-0.422560	-0.514730
02436		9.498754	0.016456	-2.536659	0.004608	-0.009318	-0.011939	-0.659180	0.330566	0.339600	0.319861	-0.673982	-0.422553	-0.514671
02437		9.516408	0.060346	-2.646404	0.010841	-0.001350	-0.015337	-0.666748	0.341064	0.335205	0.319893	-0.673974	-0.422628	-0.514600
02438		9.501622	-0.016085	-2.653498	0.027851	-0.004744	-0.005533	-0.663818	0.339355	0.329590	0.320050	-0.673986	-0.422706	-0.514423
02439		9.454034	-0.035656	-2.687815	0.024233	-0.015564	0.000098	-0.666748	0.340820	0.339844	0.320174	-0.674068	-0.422765	-0.514190
02440		9.462826	0.081106	-2.589547	0.031367	-0.030726	-0.008653	-0.664551	0.334473	0.335205	0.320246	-0.674169	-0.422953	-0.513857
02441		9.485836	0.206451	-2.609526	0.031400	-0.029819	-0.020000	-0.664062	0.337402	0.341797	0.320253	-0.674225	-0.423183	-0.513591
02442		9.517064	0.180955	-2.697406	0.036221	-0.020213	-0.016803	-0.667969	0.335938	0.334229	0.320353	-0.674234	-0.423415	-0.513324
02443		9.518094	-0.025693	-2.706546	0.007866	-0.010450	-0.013759	-0.665771	0.333984	0.339355	0.320309	-0.674299	-0.423437	-0.513248
02444		9.499083	-0.110429	-2.748247	-0.027463	-0.004364	-0.016128	-0.662842	0.330566	0.334717	0.320085	-0.674419	-0.423323	-0.513325
02445		9.459804	-0.048179	-2.668403	0.005504	-0.013339	-0.019829	-0.664795	0.342041	0.340820	0.319996	-0.674472	-0.423389	-0.513256
02446		9.454752	0.104156	-2.646425	0.017215	-0.023276	-0.032799	-0.667236	0.338623	0.339600	0.319921	-0.674490	-0.423645	-0.513068
02447		9.472258	0.183578	-2.686795	0.008203	-0.015177	-0.035636	-0.671143	0.335205	0.335205	0.319788	-0.674493	-0.423828	-0.512995
02448		9.525518	0.132315	-2.621635	-0.019750	-0.012591	-0.037140	-0.665283	0.333008	0.337891	0.319464	-0.674566	-0.423849	-0.513084
02449		9.437995	-0.012508	-2.706365	-0.062098	-0.022232	-0.030086	-0.662109	0.336426	0.331055	0.318922	-0.674804	-0.423709	-0.513224
02450		9.502415	-0.064955	-2.612683	-0.043727	-0.030222	-0.025938	-0.666016	0.332764	0.334717	0.318495	-0.675035	-0.423663	-0.513223
02451		9.488319	-0.039816	-2.589744	-0.003126	-0.022623	-0.031781	-0.667725	0.334229	0.345215	0.318270	-0.675115	-0.423773	-0.513166
02452		9.457135	-0.018271	-2.650355	0.018364	-0.014633	-0.042473	-0.657471	0.342529	0.344238	0.318156	-0.675068	-0.424030	-0.513088
02453		9.494576	-0.046612	-2.759532	0.035041	-0.006145	-0.045087	-0.670654	0.335449	0.339355	0.318233	-0.674904	-0.424442	-0.512914
02454		9.502114	-0.161885	-2.692930	0.046285	0.002005	-0.046898	-0.662109	0.336914	0.338867	0.318303	-0.674702	-0.424776	-0.512860
02455		9.501311	-0.227649	-2.572081	0.072999	-0.020740	-0.051968	-0.666992	0.336670	0.341309	0.318469	-0.674488	-0.425372	-0.512546
02456		9.450943	-0.134858	-2.614422	0.088437	-0.021383	-0.064567	-0.662598	0.334961	0.339600	0.318644	-0.674200	-0.426081	-0.512226
02457		9.461190	0.035325	-2.611129	0.126971	-0.004864	-0.073534	-0.665039	0.328125	0.345459	0.319068	-0.673698	-0.426979	-0.511874
02458		9.509515	0.170602	-2.714032	0.126681	0.001563	-0.070942	-0.666260	0.331299	0.333984	0.319493	-0.673185	-0.427816	-0.511585
02459		9.530300	0.079979	-2.704947	0.082450	0.011680	-0.052882	-0.664551	0.338867	0.342773	0.319780	-0.672815	-0.428317	-0.511474
02460		9.511601	-0.100318	-2.531502	0.073886	-0.007545	-0.036232	-0.667236	0.332275	0.338379	0.320071	-0.672595	-0.428807	-0.511171
02461		9.505390	-0.026004	-2.548194	0.084478	-0.010627	-0.043120	-0.664551	0.334961	0.334473	0.320335	-0.672348	-0.429332	-0.510889
02462		9.469445	0.182157	-2.596748	0.081476	-0.006370	-0.062243	-0.666016	0.340576	0.338135	0.320537	-0.672015	-0.429960	-0.510673
02463		9.464051	0.369341	-2.748209	0.048869	0.005585	-0.061977	-0.666016	0.333252	0.335693	0.320622	-0.671714	-0.430444	-0.510607
02464		9.490426	0.252571	-2.755331	0.034971	0.012613	-0.040862	-0.658447	0.332520	0.330811	0.320713	-0.671504	-0.430695	-0.510615
02465		9.505989	0.001147	-2.631016	0.043185	0.000503	-0.020878	-0.667725	0.329590	0.329346	0.320920	-0.671378	-0.430938	-0.510445
02466		9.550579	-0.075358	-2.567639	0.035875	-0.007086	-0.024906	-0.662842	0.335449	0.333496	0.320983	-0.671317	-0.431114	-0.510338
02467		9.493551	0.072476	-2.702147	0.018383	-0.002515	-0.048293	-0.662109	0.336914	0.329346	0.320919	-0.671178	-0.431405	-0.510315
02468		9.431171	0.243953	-2.734305	0.044707	0.010708	-0.052238	-0.671387	0.328857	0.343262	0.321040	-0.670896	-0.431800	-0.510276
02469		9.455660	0.188835	-2.715512	0.040831	0.019681	-0.040573	-0.672607	0.336426	0.334229	0.321159	-0.670652	-0.432024	-0.510331
02470		9.498002	-0.043095	-2.597932	0.035810	0.011324	-0.029620	-0.665039	0.328369	0.333496	0.321287	-0.670494	-0.432202	-0.510307
02471		9.536856	-0.164165	-2.573256	0.062565	0.010693	-0.034766	-0.672119	0.328857	0.334717	0.321540	-0.670240	-0.432530	-0.510204
02472		9.500333	-0.095358	-2.637640	0.105920	0.026674	-0.048384	-0.671143	0.331787	0.330566	0.322005	-0.669768	-0.433036	-0.510102
02473		9.446746	0.112466	-2.606177	0.147688	0.020678	-0.039979	-0.661621	0.340576	0.331055	0.322732	-0.669234	-0.433704	-0.509775
02474		9.454314	0.158902	-2.561109	0.119126	0.033912	-0.036079	-0.665771	0.340332	0.334717	0.323447	-0.668700	-0.434300	-0.509516
02475		9.577113	0.083434	-2.581508	0.080518	0.048981	-0.031822	-0.664795	0.324951	0.325928	0.324004	-0.668228	-0.434650	-0.509482
02476		9.523408	-0.073184	-2.717012	0.070448	0.062612	-0.008674	-0.668701	0.338623	0.330322	0.324578	-0.667830	-0.434698	-0.509597
02477		9.456542	-0.116240	-2.793011	0.118129	0.072664	0.007124	-0.664795	0.330322	0.331787	0.325571	-0.667306	-0.434894	-0.509483
02478		9.461051	-0.064833	-2.801062	0.160700	0.074976	0.005065	-0.664307	0.334961	0.321777	0.326780	-0.666648	-0.435259	-0.509259
02479		9.491023	0.004516	-2.819053	0.177414	0.064869	-0.006744	-0.668213	0.339600	0.324219	0.328006	-0.665940	-0.435793	-0.508940
02480		9.486976	0.049872	-2.820095	0.179284	0.054907	-0.023818	-0.672607	0.340576	0.326172	0.329137	-0.665208	-0.436462	-0.508594
02481		9.429700	0.166660	-2.879524	0.169093	0.043196	-0.034299	-0.674805	0.338379	0.311768	0.330110	-0.664522	-0.437161	-0.508260
02482		9.479610	0.263943	-2.868754	0.144568	0.041615	-0.032596	-0.675293	0.340576	0.323730	0.330912	-0.663929	-0.437696	-0.508053
02483		9.432552	0.318439	-2.774635	0.081285	0.039635	-0.040828	-0.670166	0.335693	0.322266	0.331342	-0.663481	-0.438050	-0.508053
02484		9.436501	0.275345	-2.715066	0.047098	0.029735	-0.042313	-0.668213	0.337891	0.313721	0.331542	-0.663156	-0.438301	-0.508129
02485		9.541572	0.110679	-2.688552	0.066099	0.013059	-0.050391	-0.670166	0.336426	0.315918	0.331766	-0.662814	-0.438735	-0.508055
02486		9.475345	-0.091913	-2.656033	0.077012	0.018709	-0.060065	-0.676025	0.343994	0.319092	0.332018	-0.662387	-0.439241	-0.508010
02487		9.515542	-0.208925	-2.625212	0.116792	0.026553	-0.069450	-0.673096	0.330566	0.315918	0.332492	-0.661784	-0.439959	-0.507865
02488		9.547747	-0.075539	-2.630140	0.158307	0.043070	-0.076679	-0.674561	0.343994	0.312256	0.333176	-0.660979	-0.440791	-0.507744
02489		9.493408	0.033580	-2.545956	0.207056	0.056374	-0.066153	-0.678223	0.347168	0.309814	0.334276	-0.660004	-0.441796	-0.507416
02490		9.521312	0.046721	-2.442653	0.253362	0.048778	-0.062044	-0.669434	0.346191	0.316162	0.335617	-0.658948	-0.442987	-0.506864
02491		9.491210	-0.017752	-2.483637	0.283907	0.070631	-0.053037	-0.674072	0.348145	0.307129	0.337281	-0.657724	-0.444253	-0.506241
02492		9.490653	-0.055185	-2.498133	0.300314	0.074103	-0.031140	-0.675293	0.342529	0.310547	0.339121	-0.656525	-0.445425	-0.505538
02493		9.607985	0.086905	-2.522187	0.338801	0.087312	-0.025811	-0.665039	0.344727	0.297363	0.341209	-0.655186	-0.446659	-0.504781
02494		9.579616	0.336954	-2.413716	0.332729	0.090843	-0.023605	-0.673340	0.342285	0.297119	0.343326	-0.653828	-0.447890	-0.504014
02495		9.530393	0.582231	-2.349340	0.312230	0.087181	-0.009087	-0.672119	0.347656	0.291748	0.345325	-0.652618	-0.448900	-0.503319
02496		9.537193	0.505530	-2.253995	0.203365	0.078644	0.012024	-0.673096	0.342529	0.293457	0.346809	-0.651823	-0.449388	-0.502893
02497		9.442343	0.345450	-2.321825	0.032124	0.059066	0.018423	-0.683350	0.346680	0.291748	0.347285	-0.651638	-0.449145	-0.503020
02498		9.480640	0.189075	-2.305929	-0.070990	0.049817	0.019829	-0.678955	0.345459	0.297852	0.347144	-0.651815	-0.448451	-0.503508
02499		9.575403	-0.075340	-2.258374	-0.092414	0.044169	0.017061	-0.672363	0.348145	0.298828	0.346871	-0.652056	-0.447725	-0.504029
02500		9.652853	-0.312522	-2.228099	-0.033778	0.038710	0.010677	-0.685303	0.349121	0.288574	0.346912	-0.652108	-0.447347	-0.504270
02501		9.592387	-0.511007	-2.131246	0.071550	0.030703	0.001473	-0.676758	0.347168	0.288574	0.347400	-0.651882	-0.447407	-0.504173
02502		9.558174	-0.476034	-2.169678	0.142846	0.035868	-0.006753	-0.680420	0.355713	0.295654	0.348287	-0.651380	-0.447833	-0.503832
02503		9.443267	-0.198996	-2.188679	0.170742	0.044287	-0.002231	-0.674072	0.347656	0.295410	0.349396	-0.650778	-0.448347	-0.503383
02504		9.500829	0.113324	-2.194348	0.186772	0.036292	0.001644	-0.677734	0.348877	0.290527	0.350567	-0.650172	-0.448925	-0.502837
02505		9.597210	0.287193	-2.285838	0.222959	0.038001	0.011831	-0.676514	0.353027	0.289307	0.351966	-0.649497	-0.449573	-0.502154
02506		9.485363	0.260782	-2.191333	0.172342	0.047277	0.012193	-0.680908	0.354980	0.288086	0.353144	-0.648924	-0.449997	-0.501686
02507		9.414924	0.189724	-2.074769	0.116229	0.026064	0.009417	-0.674072	0.349121	0.284668	0.353912	-0.648603	-0.450245	-0.501338
02508		9.583060	0.156438	-2.211556	0.102313	0.010960	0.003356	-0.676514	0.355469	0.284424	0.354524	-0.648353	-0.450518	-0.500983
02509		9.710200	0.072059	-2.289658	0.062663	0.022622	-0.008377	-0.684814	0.353027	0.279785	0.354929	-0.648128	-0.450665	-0.500856
02510		9.603032	-0.087088	-2.267463	0.031137	0.024742	-0.013453	-0.677490	0.343750	0.283691	0.355106	-0.647985	-0.450652	-0.500927
02511		9.538632	-0.124434	-2.066917	0.007117	0.007913	-0.004912	-0.678955	0.360352	0.284180	0.355121	-0.648007	-0.450547	-0.500982
02512		9.689137	-0.112977	-1.980572	0.022499	-0.008895	0.001246	-0.680908	0.357422	0.286377	0.355239	-0.648070	-0.450572	-0.500795
02513		9.543731	-0.039188	-1.921249	-0.033169	0.005964	-0.006031	-0.680664	0.363525	0.280518	0.355059	-0.648216	-0.450338	-0.500944
02514		9.598953	0.050961	-1.922175	-0.089453	0.019896	0.001701	-0.686279	0.355957	0.287109	0.354686	-0.648492	-0.449807	-0.501328
02515		9.758178	0.037966	-2.077002	-0.054188	0.014377	0.018108	-0.672852	0.355469	0.283203	0.354500	-0.648766	-0.449302	-0.501558
02516		9.731342	-0.161903	-1.701329	-0.111921	0.008932	0.001048	-0.677490	0.349854	0.286865	0.353961	-0.649141	-0.448720	-0.501973
02517		9.707777	-0.094072	-1.848097	-0.174019	0.005357	-0.023138	-0.673828	0.356445	0.290283	0.352934	-0.649636	-0.447982	-0.502715
02518		9.683028	0.148602	-1.876835	-0.152497	0.020006	-0.013341	-0.672607	0.356934	0.284424	0.352155	-0.650037	-0.447268	-0.503378
02519		9.614457	0.001820	-2.038700	-0.275242	-0.006794	-0.018247	-0.680176	0.359131	0.293457	0.350602	-0.650882	-0.446156	-0.504357
02520		9.476725	-0.060612	-2.398763	-0.394350	-0.010345	-0.014322	-0.683105	0.349609	0.293213	0.348383	-0.652117	-0.444500	-0.505758
02521		9.584666	-0.301322	-2.257008	-0.303470	-0.023559	-0.007780	-0.673096	0.341797	0.298340	0.346599	-0.653166	-0.443199	-0.506772
02522		9.572645	-0.643021	-2.199102	-0.248547	-0.020036	-0.012481	-0.672607	0.350830	0.302979	0.345119	-0.654009	-0.442163	-0.507600
02523		9.473720	-0.553045	-2.206620	-0.162675	-0.010634	-0.038410	-0.672852	0.356934	0.296387	0.344063	-0.654470	-0.441623	-0.508192
02524		9.575815	-0.407452	-2.289094	-0.051887	-0.010240	-0.057608	-0.677734	0.344482	0.299805	0.343557	-0.654533	-0.441677	-0.508407
02525		9.713968	-0.143802	-2.407328	0.016292	-0.016093	-0.067773	-0.671631	0.348145	0.302002	0.343303	-0.654397	-0.442046	-0.508432
02526		9.745395	0.051994	-2.424418	-0.092372	-0.004523	-0.077542	-0.677979	0.354492	0.300537	0.342491	-0.654481	-0.442004	-0.508908
02527		9.497444	0.084243	-2.576792	-0.332791	-0.017129	-0.070036	-0.675293	0.343018	0.301514	0.340356	-0.655335	-0.440932	-0.510169
02528		9.317841	-0.120830	-2.460352	-0.387328	-0.039286	-0.042605	-0.678467	0.340820	0.311279	0.337938	-0.656527	-0.439530	-0.511453
02529		9.608428	-0.318926	-2.302364	-0.245256	-0.042981	-0.045317	-0.673584	0.331543	0.306396	0.336255	-0.657330	-0.438740	-0.512208
02530		9.674685	-0.271315	-2.563967	-0.216666	-0.057457	-0.085014	-0.675049	0.336670	0.302734	0.334500	-0.657955	-0.438332	-0.512904
02531		9.334535	0.205050	-2.881188	-0.240129	-0.050913	-0.086582	-0.681396	0.344482	0.316895	0.332651	-0.658606	-0.437825	-0.513703
02532		9.513569	0.594241	-2.652890	-0.027126	-0.033953	-0.082892	-0.675537	0.331787	0.316895	0.332054	-0.658624	-0.438155	-0.513784
02533		9.514897	0.462139	-2.324036	0.004997	-0.009521	-0.070865	-0.678955	0.329346	0.313965	0.331759	-0.658483	-0.438488	-0.513872
02534		9.175833	0.023814	-2.595133	-0.092893	-0.010248	-0.029378	-0.675293	0.330322	0.311279	0.331086	-0.658768	-0.438162	-0.514218
02535		9.689093	-0.211285	-2.558462	-0.024358	0.009016	-0.015508	-0.672607	0.335693	0.305420	0.330937	-0.658825	-0.438019	-0.514364
02536		9.701829	-0.054353	-2.562251	0.017963	0.000085	-0.039424	-0.686035	0.328125	0.316406	0.330914	-0.658708	-0.438236	-0.514344
02537		9.306828	0.276860	-2.633993	0.030510	-0.005614	-0.024786	-0.680664	0.334961	0.310303	0.330930	-0.658659	-0.438377	-0.514275
02538		9.517661	0.659739	-2.451145	0.162648	0.021452	-0.009306	-0.675049	0.335205	0.309326	0.331879	-0.658175	-0.438961	-0.513786
02539		9.470549	0.788264	-2.230585	0.058384	0.036573	0.017745	-0.682129	0.331543	0.315430	0.332443	-0.658005	-0.438925	-0.513670
02540		9.482759	0.371916	-2.268906	-0.116088	0.022764	0.048798	-0.677734	0.338867	0.318848	0.332093	-0.658504	-0.437976	-0.514066
02541		9.602787	-0.096226	-2.306869	-0.205614	-0.002552	0.055322	-0.674561	0.336426	0.308838	0.331221	-0.659381	-0.436701	-0.514589
02542		9.624701	-0.257411	-2.170415	-0.147322	-0.008827	0.043493	-0.679932	0.334717	0.315186	0.330601	-0.660066	-0.435767	-0.514901
02543		9.659889	-0.128892	-2.326444	-0.009709	0.028826	0.023059	-0.671875	0.330078	0.313721	0.330762	-0.660146	-0.435408	-0.514999
02544		9.588384	0.137691	-2.390334	0.035446	0.058491	0.037194	-0.680664	0.328369	0.313965	0.331351	-0.660014	-0.435100	-0.515050
02545		9.334912	0.265707	-2.464621	-0.028644	0.070404	0.067755	-0.670166	0.335449	0.301270	0.331726	-0.660129	-0.434282	-0.515351
02546		9.348836	-0.015087	-2.411795	-0.024998	0.047600	0.080784	-0.685303	0.341064	0.312988	0.332150	-0.660357	-0.433522	-0.515425
02547		9.517991	-0.366869	-2.394194	0.101970	0.041858	0.070240	-0.676025	0.338379	0.307373	0.333167	-0.660249	-0.433334	-0.515067
02548		9.784370	-0.055260	-2.270248	0.205618	0.026533	0.022655	-0.675537	0.345947	0.308105	0.334511	-0.659730	-0.433917	-0.514368
02549		9.345493	0.607585	-2.718573	0.029782	0.021412	-0.016977	-0.674316	0.338379	0.315918	0.334718	-0.659583	-0.433987	-0.514364
02550		9.519613	1.074824	-2.768679	-0.021999	0.010217	-0.032050	-0.672363	0.334473	0.303955	0.334515	-0.659576	-0.433940	-0.514544
02551		9.453660	0.811882	-2.474454	-0.094044	0.001148	-0.007748	-0.686768	0.343750	0.310791	0.333989	-0.659882	-0.433484	-0.514878
02552		9.458241	0.120824	-2.298592	-0.208260	-0.031663	0.024851	-0.680420	0.336914	0.310059	0.332834	-0.660787	-0.432416	-0.515362
02553		9.515764	-0.409090	-2.292358	-0.226181	-0.034315	0.020255	-0.674316	0.339111	0.314453	0.331553	-0.661723	-0.431314	-0.515910
02554		9.526574	-0.293216	-2.425700	-0.137204	-0.021903	-0.018930	-0.674805	0.339111	0.315674	0.330663	-0.662216	-0.430794	-0.516284
02555		9.690823	-0.194196	-2.664704	-0.050621	-0.016042	-0.018094	-0.674561	0.338379	0.313232	0.330275	-0.662448	-0.430625	-0.516376
02556		9.679930	-0.425252	-2.458484	-0.017187	-0.011872	-0.008577	-0.675537	0.337646	0.309814	0.330128	-0.662601	-0.430537	-0.516347
02557		9.618618	-0.385702	-2.258353	-0.029288	-0.002763	-0.009003	-0.673584	0.346680	0.314209	0.329941	-0.662745	-0.430371	-0.516420
02558		9.552752	-0.048228	-2.271721	-0.008175	0.021301	-0.011029	-0.674072	0.340820	0.312012	0.329976	-0.662725	-0.430256	-0.516518
02559		9.520003	0.218036	-2.266863	-0.002078	0.028363	-0.020616	-0.674561	0.334229	0.312988	0.330013	-0.662620	-0.430193	-0.516682
02560		9.471285	0.024312	-2.394764	-0.035454	0.009573	-0.024319	-0.673828	0.329102	0.315918	0.329764	-0.662673	-0.430047	-0.516894
02561		9.583796	-0.271768	-2.470805	-0.020559	0.000651	-0.025876	-0.670410	0.335449	0.308594	0.329548	-0.662718	-0.429994	-0.517019
02562		9.580753	-0.169765	-2.440073	0.065059	0.006902	-0.035880	-0.676514	0.339355	0.317871	0.329814	-0.662457	-0.430370	-0.516870
02563		9.579025	0.300835	-2.314143	0.152554	0.022196	-0.025165	-0.677490	0.341553	0.306641	0.330652	-0.661944	-0.431005	-0.516464
02564		9.572546	0.644394	-2.201514	0.102194	0.030130	-0.015994	-0.676514	0.334717	0.313721	0.331284	-0.661560	-0.431352	-0.516259
02565		9.558663	0.664949	-2.172394	-0.063398	0.012974	0.001418	-0.676758	0.334473	0.311279	0.330999	-0.661772	-0.430930	-0.516523
02566		9.458360	0.314527	-2.243102	-0.192621	-0.002147	0.019512	-0.667969	0.336914	0.316650	0.330024	-0.662468	-0.429892	-0.517120
02567		9.555615	-0.088377	-2.371927	-0.175855	-0.014804	0.026432	-0.676270	0.349121	0.315186	0.329158	-0.663190	-0.428952	-0.517526
02568		9.554104	-0.210607	-2.453099	-0.120809	-0.024214	0.013144	-0.670654	0.336914	0.317627	0.328513	-0.663765	-0.428340	-0.517707
02569		9.456926	0.101323	-2.515998	-0.084375	-0.023710	0.002144	-0.672607	0.336670	0.321289	0.328008	-0.664189	-0.427944	-0.517810
02570		9.528848	0.600891	-2.305423	-0.029603	-0.005703	0.001921	-0.668945	0.337891	0.315674	0.327863	-0.664388	-0.427730	-0.517824
02571		9.552606	0.571263	-2.195639	-0.067413	0.008164	0.028541	-0.672363	0.327637	0.313232	0.327687	-0.664718	-0.427181	-0.517964
02572		9.500572	-0.007271	-2.320129	-0.159070	-0.003954	0.045701	-0.668457	0.345703	0.326172	0.326994	-0.665411	-0.426144	-0.518366
02573		9.418691	-0.344276	-2.482683	-0.144242	-0.024019	0.040052	-0.671631	0.331299	0.317383	0.326348	-0.666137	-0.425299	-0.518536
02574		9.506186	-0.126156	-2.414258	0.010247	-0.019171	0.010638	-0.664795	0.337891	0.321533	0.326399	-0.666311	-0.425235	-0.518332
02575		9.691654	0.269320	-2.366802	0.099812	-0.011630	-0.024198	-0.670166	0.333252	0.322754	0.326862	-0.666082	-0.425763	-0.517901
02576		9.600695	0.307109	-2.462619	-0.001668	-0.021473	-0.028825	-0.677734	0.333496	0.315918	0.326675	-0.666161	-0.425880	-0.517822
02577		9.490661	0.058171	-2.449763	-0.099088	-0.037936	-0.023797	-0.671875	0.341797	0.318604	0.325886	-0.666598	-0.425567	-0.518013
02578		9.517268	-0.072119	-2.475840	-0.105901	-0.038047	-0.017276	-0.672607	0.332520	0.321777	0.325132	-0.667073	-0.425224	-0.518158
02579		9.538331	0.049903	-2.457317	-0.052573	-0.019675	-0.011810	-0.670410	0.333252	0.324463	0.324734	-0.667343	-0.425012	-0.518232
02580		9.595963	0.039988	-2.467251	-0.040653	-0.021444	-0.009377	-0.667480	0.338867	0.320312	0.324417	-0.667597	-0.424853	-0.518236
02581		9.514103	-0.079452	-2.481360	-0.042605	-0.028007	-0.008895	-0.665527	0.332520	0.325195	0.324093	-0.667880	-0.424719	-0.518183
02582		9.543296	-0.153883	-2.387368	0.002762	-0.025654	-0.014638	-0.674561	0.342041	0.321533	0.323993	-0.668010	-0.424802	-0.518010
02583		9.558238	-0.047579	-2.336708	0.020250	-0.004910	-0.015540	-0.670166	0.344482	0.325684	0.324058	-0.668009	-0.424896	-0.517894
02584		9.535363	0.107064	-2.365623	0.014473	0.010139	-0.001024	-0.673096	0.330322	0.326172	0.324229	-0.668006	-0.424865	-0.517815
02585		9.552896	0.117002	-2.363892	0.000069	-0.003549	0.013136	-0.669922	0.336426	0.316162	0.324280	-0.668156	-0.424689	-0.517735
02586		9.546151	0.008802	-2.525262	-0.013465	-0.010465	0.008483	-0.674072	0.338867	0.323975	0.324234	-0.668349	-0.424517	-0.517656
02587		9.537285	-0.078204	-2.491358	0.016900	-0.005971	-0.003246	-0.672119	0.341309	0.326660	0.324319	-0.668406	-0.424523	-0.517524
02588		9.523947	0.118542	-2.522932	0.017528	0.005271	-0.004795	-0.672119	0.334473	0.330811	0.324453	-0.668405	-0.424523	-0.517440
02589		9.538959	0.305289	-2.514689	-0.007040	0.010174	0.010963	-0.674316	0.338379	0.323975	0.324517	-0.668507	-0.424305	-0.517449
02590		9.470141	0.337516	-2.544547	-0.054146	-0.002992	0.028325	-0.680908	0.339355	0.325195	0.324347	-0.668855	-0.423817	-0.517505
02591		9.528072	0.302579	-2.546659	-0.079117	-0.023388	0.029227	-0.669434	0.333740	0.319580	0.323949	-0.669371	-0.423249	-0.517553
02592		9.523102	0.295989	-2.603721	-0.119924	-0.018404	0.023709	-0.667480	0.336426	0.324219	0.323335	-0.669939	-0.422546	-0.517775
02593		9.507775	0.258252	-2.559790	-0.143752	-0.009028	0.023734	-0.662598	0.328613	0.325928	0.322636	-0.670529	-0.421730	-0.518113
02594		9.489487	0.190425	-2.543431	-0.160762	-0.014238	0.026280	-0.674316	0.338623	0.334961	0.321828	-0.671189	-0.420841	-0.518484
02595		9.460743	0.020875	-2.507682	-0.178341	-0.017471	0.027323	-0.663086	0.325195	0.332764	0.320908	-0.671929	-0.419862	-0.518888
02596		9.526600	-0.016664	-2.396737	-0.155674	-0.020778	0.017126	-0.674561	0.333252	0.340332	0.320056	-0.672571	-0.419056	-0.519234
02597		9.508966	0.035445	-2.419359	-0.146304	-0.015404	0.010495	-0.661621	0.336182	0.332520	0.319234	-0.673157	-0.418292	-0.519597
02598		9.571435	-0.016277	-2.460597	-0.137997	-0.019218	0.011369	-0.664551	0.327881	0.333252	0.318497	-0.673722	-0.417617	-0.519860
02599		9.604244	-0.216836	-2.492703	-0.129186	-0.021382	0.014841	-0.655029	0.327881	0.331787	0.317783	-0.674288	-0.416935	-0.520110
02600		9.577273	-0.456523	-2.402398	-0.097864	-0.018643	0.016368	-0.660156	0.329102	0.331543	0.317290	-0.674753	-0.416404	-0.520233
02601		9.606685	-0.410624	-2.364628	-0.062484	-0.007777	0.004297	-0.659424	0.334717	0.335205	0.316967	-0.675042	-0.416048	-0.520341
02602		9.518168	-0.189657	-2.392527	-0.017265	-0.003075	0.001931	-0.663574	0.326416	0.335693	0.316926	-0.675181	-0.415908	-0.520297
02603		9.489905	-0.025346	-2.277061	0.035244	-0.003927	0.000061	-0.672119	0.340820	0.337891	0.317128	-0.675187	-0.415968	-0.520118
02604		9.538130	0.041445	-2.339464	0.023757	-0.001272	-0.005905	-0.668945	0.333008	0.332764	0.317269	-0.675196	-0.416016	-0.519982
02605		9.585319	0.047691	-2.501039	-0.019106	0.008867	-0.012039	-0.665771	0.337646	0.339111	0.317157	-0.675252	-0.415869	-0.520096
02606		9.565497	-0.039110	-2.615101	-0.019434	0.012374	-0.000988	-0.670654	0.337402	0.337891	0.317133	-0.675327	-0.415681	-0.520163
02607		9.429511	-0.117123	-2.590247	0.008515	0.014010	-0.001429	-0.669434	0.338623	0.343750	0.317253	-0.675325	-0.415592	-0.520163
02608		9.474745	0.035258	-2.512237	0.046137	0.013193	-0.016131	-0.668457	0.327148	0.327393	0.317530	-0.675175	-0.415766	-0.520051
02609		9.488535	0.224717	-2.637236	0.067283	0.011001	-0.022008	-0.669189	0.328369	0.332031	0.317844	-0.674961	-0.416019	-0.519933
02610		9.427821	0.288692	-2.681624	0.050403	-0.000017	-0.027609	-0.664795	0.334229	0.331543	0.318007	-0.674820	-0.416268	-0.519818
02611		9.479073	0.244804	-2.654489	0.018827	-0.012519	-0.018391	-0.665039	0.334473	0.335693	0.318023	-0.674841	-0.416397	-0.519678
02612		9.556651	0.069158	-2.671765	-0.011401	-0.011269	-0.019242	-0.668213	0.327881	0.335205	0.317872	-0.674933	-0.416401	-0.519647
02613		9.539721	-0.003078	-2.636638	-0.013790	-0.009181	-0.012587	-0.665039	0.330811	0.331543	0.317710	-0.675053	-0.416318	-0.519657
02614		9.453938	-0.021833	-2.636923	-0.007870	-0.007876	-0.006082	-0.663330	0.334473	0.334961	0.317633	-0.675168	-0.416239	-0.519618
02615		9.449381	0.004523	-2.482493	0.027345	-0.007365	-0.009498	-0.656494	0.343506	0.334229	0.317760	-0.675172	-0.416352	-0.519444
02616		9.568237	0.072721	-2.507324	0.038834	0.002548	-0.016071	-0.662354	0.331299	0.335449	0.318011	-0.675066	-0.416580	-0.519245
02617		9.579767	0.024178	-2.561302	0.027950	0.010512	-0.010761	-0.673828	0.329346	0.333252	0.318190	-0.674988	-0.416647	-0.519184
02618		9.506350	-0.100104	-2.477552	-0.018982	0.008140	-0.014084	-0.656494	0.330322	0.329346	0.318033	-0.675050	-0.416480	-0.519333
02619		9.514901	-0.028297	-2.504425	-0.052095	-0.000452	-0.023052	-0.666992	0.339844	0.335693	0.317683	-0.675181	-0.416313	-0.519512
02620		9.526355	0.094637	-2.509755	-0.038285	-0.001529	-0.022617	-0.670654	0.333252	0.333984	0.317412	-0.675288	-0.416206	-0.519622
02621		9.513577	0.172506	-2.481162	-0.012042	-0.003423	-0.015966	-0.662842	0.333984	0.343506	0.317275	-0.675368	-0.416140	-0.519656
02622		9.469077	0.110486	-2.482954	-0.023898	0.000523	-0.014589	-0.661133	0.328369	0.335205	0.317126	-0.675455	-0.416050	-0.519706
02623		9.541278	-0.016834	-2.487614	-0.052566	-0.007301	-0.017518	-0.670166	0.339355	0.333496	0.316756	-0.675643	-0.415849	-0.519848
02624		9.563195	-0.042760	-2.519263	-0.052611	-0.010277	-0.016588	-0.666260	0.332764	0.331055	0.316389	-0.675850	-0.415656	-0.519956
02625		9.522765	-0.097494	-2.468385	-0.046536	-0.011086	-0.020392	-0.663330	0.329834	0.344727	0.316025	-0.676032	-0.415499	-0.520067
02626		9.546997	-0.084329	-2.373981	-0.061096	-0.008065	-0.029867	-0.666748	0.326660	0.337891	0.315557	-0.676204	-0.415342	-0.520253
02627		9.490993	-0.021768	-2.562495	-0.118604	-0.019399	-0.046723	-0.670166	0.333740	0.339600	0.314626	-0.676525	-0.415026	-0.520652
02628		9.452649	0.037297	-2.626380	-0.115782	-0.020693	-0.042786	-0.670898	0.329346	0.339111	0.313743	-0.676854	-0.414723	-0.520998
02629		9.482479	-0.132366	-2.505092	-0.023253	-0.027110	-0.040164	-0.661377	0.329346	0.339111	0.313354	-0.676982	-0.414805	-0.521000
02630		9.585491	-0.198066	-2.459662	0.047548	-0.027112	-0.043648	-0.665039	0.341553	0.338623	0.313383	-0.676900	-0.415255	-0.520732
02631		9.519741	-0.033164	-2.472879	0.043614	-0.015186	-0.053622	-0.667725	0.325195	0.344482	0.313423	-0.676735	-0.415747	-0.520530
02632		9.503639	0.247620	-2.641859	0.038659	-0.005201	-0.046368	-0.666016	0.326660	0.337891	0.313433	-0.676583	-0.416079	-0.520455
02633		9.502853	0.258196	-2.544453	0.079527	0.001055	-0.026078	-0.669922	0.323730	0.337646	0.313791	-0.676364	-0.416464	-0.520216
02634		9.458321	0.101467	-2.419607	0.062184	-0.008845	-0.017679	-0.671143	0.331543	0.342529	0.314026	-0.676271	-0.416722	-0.519989
02635		9.466047	0.144244	-2.540970	0.005972	-0.018401	-0.033289	-0.666748	0.328857	0.343018	0.313874	-0.676306	-0.416883	-0.519906
02636		9.501393	0.318829	-2.665831	0.019859	-0.011215	-0.045213	-0.663086	0.325684	0.330811	0.313779	-0.676227	-0.417161	-0.519842
02637		9.506771	0.323953	-2.592965	0.063862	-0.005963	-0.034290	-0.662109	0.337158	0.334229	0.313989	-0.676048	-0.417543	-0.519642
02638		9.463041	0.121401	-2.554676	0.042144	-0.013747	-0.018648	-0.668945	0.340088	0.345947	0.314169	-0.675999	-0.417823	-0.519372
02639		9.499303	0.053776	-2.608522	0.033091	-0.018437	-0.023119	-0.668213	0.332764	0.332275	0.314259	-0.675984	-0.418099	-0.519115
02640		9.501257	0.126138	-2.594594	0.097942	-0.010106	-0.044612	-0.665527	0.321045	0.336426	0.314611	-0.675697	-0.418704	-0.518787
02641		9.486921	0.262737	-2.585858	0.114359	-0.013155	-0.057407	-0.668213	0.326416	0.338379	0.314954	-0.675345	-0.419425	-0.518456
02642		9.459669	0.264672	-2.704360	0.065499	-0.013602	-0.056308	-0.668213	0.325195	0.334717	0.315040	-0.675122	-0.419946	-0.518271
02643		9.520076	0.256895	-2.576269	0.053966	-0.016255	-0.050819	-0.667725	0.334229	0.334717	0.315069	-0.674962	-0.420385	-0.518106
02644		9.432291	0.278143	-2.708300	-0.033690	-0.026097	-0.047989	-0.671143	0.317383	0.341553	0.314622	-0.675073	-0.420500	-0.518140
02645		9.476266	0.186110	-2.760875	-0.035427	-0.031165	-0.045870	-0.672119	0.325928	0.339844	0.314083	-0.675241	-0.420528	-0.518226
02646		9.518021	-0.020453	-2.616145	0.044288	-0.032970	-0.045922	-0.667236	0.319824	0.337646	0.314019	-0.675198	-0.420940	-0.517986
02647		9.401309	-0.015085	-2.579698	0.076739	-0.028773	-0.049579	-0.670898	0.333984	0.336426	0.314128	-0.675038	-0.421495	-0.517677
02648		9.493512	0.103187	-2.500819	0.091296	-0.015473	-0.058155	-0.666260	0.327393	0.337158	0.314371	-0.674742	-0.422172	-0.517364
02649		9.538634	0.235992	-2.583701	0.067472	-0.001847	-0.053939	-0.663330	0.330811	0.331787	0.314537	-0.674464	-0.422678	-0.517211
02650		9.488532	0.201506	-2.567247	0.069096	0.003936	-0.039882	-0.668213	0.333984	0.331543	0.314815	-0.674197	-0.423123	-0.517027
02651		9.491045	0.036743	-2.616164	0.080648	-0.008180	-0.029810	-0.673096	0.329346	0.340820	0.315154	-0.673991	-0.423585	-0.516710
02652		9.550855	-0.073241	-2.594279	0.107296	-0.012737	-0.035426	-0.667725	0.327881	0.336914	0.315571	-0.673729	-0.424170	-0.516318
02653		9.501654	0.086373	-2.686272	0.057426	-0.021929	-0.059694	-0.668701	0.326416	0.338379	0.315581	-0.673544	-0.424713	-0.516107
02654		9.461853	0.316715	-2.668953	0.057072	-0.015446	-0.063780	-0.670654	0.321289	0.340332	0.315586	-0.673321	-0.425252	-0.515951
02655		9.508798	0.226790	-2.600148	0.080491	-0.004759	-0.053596	-0.665771	0.318115	0.338379	0.315780	-0.673034	-0.425778	-0.515772
02656		9.464166	0.139974	-2.512290	0.057235	-0.019763	-0.046061	-0.666992	0.330078	0.344238	0.315828	-0.672895	-0.426209	-0.515569
02657		9.535407	0.238914	-2.671465	-0.000937	-0.019239	-0.044790	-0.664307	0.323730	0.338135	0.315602	-0.672901	-0.426434	-0.515514
02658		9.500653	0.298554	-2.679555	-0.021304	0.008152	-0.053800	-0.664551	0.322754	0.346680	0.315303	-0.672811	-0.426531	-0.515733
02659		9.520900	0.190536	-2.535141	-0.027698	0.007388	-0.045062	-0.667969	0.320557	0.341797	0.315006	-0.672774	-0.426559	-0.515940
02660		9.437045	-0.066314	-2.712494	-0.099212	0.005336	-0.030195	-0.676758	0.329834	0.339111	0.314344	-0.672993	-0.426174	-0.516376
02661		9.465846	-0.261676	-2.768951	-0.037904	0.008344	-0.019362	-0.665039	0.326416	0.339355	0.314091	-0.673078	-0.425990	-0.516571
02662		9.545735	-0.193010	-2.737239	0.065980	0.025180	-0.029166	-0.668945	0.327881	0.342041	0.314467	-0.672768	-0.426301	-0.516488
02663		9.561780	0.059645	-2.869852	0.057324	0.041936	-0.040515	-0.667725	0.330566	0.332031	0.314798	-0.672374	-0.426588	-0.516564
02664		9.490818	0.138705	-2.925602	0.055663	0.043623	-0.030732	-0.667969	0.321777	0.333496	0.315181	-0.672004	-0.426819	-0.516621
02665		9.427760	0.029064	-2.883989	0.082971	0.045468	-0.018901	-0.678955	0.318848	0.336670	0.315739	-0.671607	-0.427057	-0.516600
02666		9.453528	0.020485	-2.795222	0.130593	0.042793	-0.008467	-0.672119	0.333252	0.333984	0.316550	-0.671156	-0.427387	-0.516417
02667		9.591554	-0.035767	-2.787738	0.164682	0.059419	-0.015250	-0.675537	0.328125	0.332764	0.317659	-0.670488	-0.427954	-0.516133
02668		9.542566	0.056749	-3.006931	0.176601	0.077590	-0.022341	-0.666260	0.327393	0.331299	0.318835	-0.669697	-0.428521	-0.515965
02669		9.389771	0.208114	-2.832780	0.270000	0.085215	-0.020936	-0.664551	0.328613	0.333496	0.320592	-0.668612	-0.429498	-0.515470
02670		9.471722	0.227251	-2.577381	0.330932	0.079375	-0.023715	-0.667236	0.326416	0.325195	0.322662	-0.667372	-0.430778	-0.514716
02671		9.493475	0.178292	-2.428946	0.327026	0.054456	-0.031413	-0.677979	0.335449	0.325684	0.324560	-0.666225	-0.432115	-0.513888
02672		9.453214	0.159940	-2.420313	0.305323	0.054096	-0.046307	-0.672852	0.325439	0.323975	0.326265	-0.665088	-0.433430	-0.513173
02673		9.509368	0.238869	-2.369642	0.310484	0.056605	-0.063519	-0.672363	0.327637	0.326172	0.327906	-0.663866	-0.434826	-0.512530
02674		9.499817	0.357647	-2.518961	0.258254	0.058769	-0.074903	-0.673340	0.330078	0.321045	0.329225	-0.662729	-0.436066	-0.512102
02675		9.452735	0.409333	-2.487579	0.237242	0.066240	-0.062338	-0.673828	0.333984	0.317383	0.330512	-0.661658	-0.437130	-0.511750
02676		9.531521	0.356420	-2.239911	0.220287	0.071939	-0.059155	-0.679443	0.330566	0.313232	0.331752	-0.660613	-0.438101	-0.511467
02677		9.510514	0.370259	-2.195907	0.162255	0.052314	-0.046638	-0.675293	0.342285	0.309570	0.332620	-0.659869	-0.438768	-0.511291
02678		9.689572	0.361164	-2.319050	0.090877	0.041534	-0.030203	-0.674561	0.335938	0.306396	0.333184	-0.659407	-0.439139	-0.511203
02679		9.661412	0.302055	-2.625568	-0.069043	0.045149	-0.034077	-0.679688	0.337158	0.312012	0.332844	-0.659363	-0.438813	-0.511759
02680		9.334102	0.344661	-2.590844	-0.155073	0.030101	-0.012126	-0.674072	0.330566	0.308105	0.332061	-0.659710	-0.438032	-0.512491
02681		9.500087	0.219915	-2.535679	-0.080215	0.013496	-0.001463	-0.677246	0.344238	0.312988	0.331670	-0.659954	-0.437555	-0.512836
02682		9.603215	0.120223	-2.400029	-0.020452	0.007498	-0.000011	-0.670654	0.340332	0.318359	0.331636	-0.660055	-0.437390	-0.512870
02683		9.605691	0.009802	-2.375371	-0.034908	0.013475	-0.018656	-0.670654	0.329590	0.308594	0.331471	-0.660098	-0.437262	-0.513031
02684		9.585841	-0.021136	-2.683235	-0.081416	0.018777	-0.045407	-0.669189	0.335938	0.315674	0.330913	-0.660158	-0.437017	-0.513522
02685		9.421846	-0.005286	-2.740833	-0.054006	0.032874	-0.049190	-0.675781	0.340576	0.310303	0.330576	-0.660058	-0.436913	-0.513955
02686		9.430111	-0.140304	-2.645470	0.037907	0.022988	-0.046812	-0.680420	0.328369	0.320068	0.330718	-0.659758	-0.437212	-0.513994
02687		9.490834	-0.327554	-2.657863	0.082604	0.013975	-0.043310	-0.676025	0.329834	0.309814	0.331027	-0.659411	-0.437642	-0.513874
02688		9.472832	-0.315484	-2.683298	0.166959	0.016139	-0.041623	-0.677002	0.331543	0.309570	0.331835	-0.658815	-0.438439	-0.513439
02689		9.430255	0.108004	-2.511391	0.316308	0.026340	-0.047618	-0.676758	0.334473	0.304199	0.333474	-0.657738	-0.439880	-0.512525
02690		9.440840	0.664250	-2.282262	0.403700	0.040273	-0.044702	-0.679932	0.334961	0.307617	0.335662	-0.656359	-0.441644	-0.511346
02691		9.484835	0.748293	-2.130567	0.337414	0.062929	-0.024813	-0.681885	0.341553	0.300537	0.337638	-0.655143	-0.442936	-0.510486
02692		9.461582	0.289536	-2.052493	0.208990	0.056197	-0.008481	-0.687012	0.338623	0.301025	0.338971	-0.654369	-0.443622	-0.509999
02693		9.508115	-0.065387	-2.056567	0.195097	0.038859	-0.001683	-0.683105	0.342773	0.299561	0.340160	-0.653744	-0.444224	-0.509485
02694		9.690546	0.002159	-1.851052	0.288353	0.050095	-0.004732	-0.681152	0.337402	0.288818	0.341909	-0.652784	-0.445233	-0.508664
02695		9.788295	0.327395	-1.887046	0.254231	0.064548	-0.015559	-0.680664	0.342285	0.296631	0.343460	-0.651816	-0.446092	-0.508107
02696		9.600521	0.426851	-2.207428	0.119421	0.076401	-0.009293	-0.680420	0.339600	0.299805	0.344363	-0.651205	-0.446329	-0.508071
02697		9.527881	0.224978	-2.207997	0.064267	0.057103	0.019146	-0.683105	0.340332	0.300781	0.345004	-0.650945	-0.446222	-0.508064
02698		9.703346	-0.062729	-2.164499	0.049575	0.022021	0.026932	-0.686523	0.343506	0.296875	0.345458	-0.650909	-0.446102	-0.507906
02699		9.581798	-0.087336	-2.229686	-0.048893	0.023517	0.012419	-0.688965	0.344482	0.292480	0.345322	-0.651096	-0.445637	-0.508168
02700		9.563006	0.113663	-2.094873	-0.052470	0.018537	-0.000154	-0.680420	0.346436	0.288086	0.345092	-0.651267	-0.445234	-0.508457
02701		9.513073	0.272989	-2.059856	-0.044955	-0.005622	0.009747	-0.683350	0.343262	0.293945	0.344891	-0.651539	-0.444917	-0.508523
02702		9.577081	0.230690	-1.976920	-0.048806	-0.023914	0.023892	-0.685059	0.345947	0.300537	0.344638	-0.651962	-0.444536	-0.508485
02703		9.700252	0.077115	-2.058994	-0.075113	-0.010683	0.016449	-0.677979	0.338135	0.291260	0.344259	-0.652383	-0.444044	-0.508633
02704		9.641268	-0.052267	-2.072224	-0.134848	0.018937	0.010080	-0.679932	0.348389	0.298828	0.343638	-0.652812	-0.443253	-0.509192
