// Start Time: Unknown
// Update Rate: 60.0Hz
// Filter Profile: human (46.1)
// Firmware Version: 4.6.0
PacketCounter	SampleTimeFine	Acc_X	Acc_Y	Acc_Z	Gyr_X	Gyr_Y	Gyr_Z	Mag_X	Mag_Y	Mag_Z	Quat_q0	Quat_q1	Quat_q2	Quat_q3
61951		6.629800	-4.066213	5.963964	0.000743	0.004343	-0.000941	-0.264648	0.459473	-0.226807	0.677723	-0.421812	-0.133534	-0.587311
61952		6.631070	-4.052167	5.968638	-0.000314	0.004284	-0.000563	-0.268799	0.458496	-0.224121	0.677724	-0.421792	-0.133510	-0.587330
61953		6.615787	-4.073086	5.994026	0.002177	0.003630	-0.000889	-0.270020	0.459717	-0.226318	0.677727	-0.421765	-0.133507	-0.587348
61954		6.636290	-4.083931	5.971870	0.001187	0.004140	0.000258	-0.262939	0.460449	-0.228271	0.677737	-0.421738	-0.133488	-0.587359
61955		6.637896	-4.078140	5.952597	0.001187	0.004140	0.000258	-0.265381	0.458252	-0.226562	0.677747	-0.421711	-0.133469	-0.587371
61956		6.605681	-4.076277	5.961423	0.006847	0.006606	-0.002103	-0.259766	0.463135	-0.221924	0.677768	-0.421638	-0.133472	-0.587398
61957		6.623603	-4.083945	5.983689	0.005790	0.006547	-0.001725	-0.263916	0.452148	-0.220459	0.677788	-0.421572	-0.133468	-0.587424
61958		6.626579	-4.055287	5.992920	0.003783	0.003381	-0.003613	-0.268066	0.457275	-0.227295	0.677788	-0.421530	-0.133478	-0.587451
61959		6.621465	-4.096271	5.981161	0.006032	0.004637	-0.002831	-0.270020	0.462891	-0.226074	0.677802	-0.421469	-0.133489	-0.587477
61960		6.615490	-4.071284	5.956206	0.009713	0.008123	-0.002899	-0.262695	0.458252	-0.237061	0.677833	-0.421371	-0.133497	-0.587510
61961		6.614506	-4.061701	5.981745	0.009270	0.008325	-0.004099	-0.266846	0.463623	-0.227051	0.677856	-0.421274	-0.133505	-0.587550
61962		6.634579	-4.063358	5.984289	0.006034	0.004636	-0.002832	-0.266602	0.458008	-0.218994	0.677871	-0.421214	-0.133512	-0.587575
61963		6.632770	-4.076006	5.981188	0.009380	0.005276	-0.006742	-0.260498	0.460693	-0.226318	0.677879	-0.421127	-0.133547	-0.587620
61964		6.635836	-4.046554	5.990818	0.009958	0.006212	-0.004006	-0.267578	0.460205	-0.226807	0.677904	-0.421036	-0.133569	-0.587651
61965		6.613050	-4.048173	6.010446	0.005149	0.005039	-0.005232	-0.273926	0.462402	-0.221436	0.677905	-0.420975	-0.133579	-0.587692
61966		6.601659	-4.048680	6.020459	0.003786	0.003379	-0.003614	-0.273438	0.461914	-0.227051	0.677906	-0.420929	-0.133586	-0.587721
61967		6.611199	-4.060408	6.007674	0.003786	0.003379	-0.003614	-0.261719	0.457031	-0.227539	0.677911	-0.420878	-0.133592	-0.587751
61968		6.603558	-4.041733	6.001665	-0.002015	0.002716	-0.003695	-0.267822	0.457031	-0.228516	0.677896	-0.420861	-0.133570	-0.587785
61969		6.635387	-4.042694	5.993920	0.000412	0.001493	-0.004786	-0.268555	0.461182	-0.234619	0.677884	-0.420831	-0.133571	-0.587821
61970		6.620771	-4.071941	5.994993	-0.005433	0.004449	-0.001457	-0.266602	0.464600	-0.225342	0.677872	-0.420820	-0.133516	-0.587855
61971		6.611875	-4.076053	5.960505	-0.003582	0.002289	-0.005285	-0.267334	0.458740	-0.219971	0.677845	-0.420812	-0.133493	-0.587897
61972		6.610924	-4.059322	6.008710	-0.003452	0.006369	-0.004653	-0.268066	0.458496	-0.223633	0.677820	-0.420792	-0.133446	-0.587951
61973		6.609731	-4.081158	5.980811	-0.001155	0.001066	-0.006377	-0.267334	0.459961	-0.227295	0.677792	-0.420777	-0.133445	-0.587994
61974		6.631028	-4.091604	5.958147	-0.003098	0.001410	-0.008400	-0.267334	0.462402	-0.226318	0.677751	-0.420767	-0.133436	-0.588050
61975		6.613726	-4.051930	5.989229	-0.001291	0.002869	-0.008818	-0.260986	0.461426	-0.222168	0.677716	-0.420747	-0.133427	-0.588108
61976		6.602292	-4.044347	6.022676	-0.002725	0.003580	-0.008873	-0.270020	0.464600	-0.231445	0.677677	-0.420736	-0.133404	-0.588166
61977		6.633147	-4.067457	5.986587	-0.003952	0.000117	-0.004814	-0.259277	0.454346	-0.231201	0.677654	-0.420737	-0.133382	-0.588196
61978		6.621166	-4.090765	5.967397	-0.001591	-0.001674	-0.006674	-0.262207	0.468506	-0.228271	0.677630	-0.420728	-0.133389	-0.588229
61979		6.624551	-4.054050	5.999451	-0.003844	0.000009	-0.008360	-0.271484	0.456055	-0.226318	0.677596	-0.420738	-0.133369	-0.588265
61980		6.615851	-4.049272	5.988681	-0.004596	0.001550	-0.009224	-0.269043	0.463135	-0.224121	0.677537	-0.420740	-0.133363	-0.588333
61981		6.625464	-4.053104	5.999081	-0.004769	0.001088	-0.006446	-0.258545	0.449951	-0.229980	0.677495	-0.420757	-0.133339	-0.588374
61982		6.635415	-4.065444	5.985441	-0.003508	-0.000085	-0.003615	-0.263672	0.463379	-0.226074	0.677480	-0.420750	-0.133321	-0.588401
61983		6.624904	-4.075025	5.970438	-0.004392	0.000317	-0.006015	-0.260254	0.460693	-0.226562	0.677450	-0.420766	-0.133294	-0.588430
61984		6.594704	-4.051340	6.006209	-0.005892	0.000458	-0.006838	-0.269531	0.458984	-0.224121	0.677414	-0.420787	-0.133261	-0.588464
61985		6.645691	-4.069331	5.995070	-0.006066	-0.000005	-0.004061	-0.265625	0.461670	-0.231445	0.677372	-0.420819	-0.133236	-0.588495
61986		6.614402	-4.068042	6.002464	-0.006704	-0.001512	-0.007567	-0.273438	0.457031	-0.228760	0.677330	-0.420838	-0.133218	-0.588534
61987		6.628386	-4.060522	5.972915	-0.003087	-0.001533	-0.007499	-0.273438	0.461914	-0.220459	0.677277	-0.420841	-0.133240	-0.588588
61988		6.623781	-4.093698	5.983927	-0.006021	-0.000682	-0.008376	-0.271484	0.464600	-0.227295	0.677199	-0.420892	-0.133238	-0.588642
61989		6.640585	-4.049872	5.986768	-0.003593	-0.001901	-0.009469	-0.258301	0.463623	-0.226074	0.677144	-0.420914	-0.133249	-0.588687
61990		6.631584	-4.036988	5.999734	-0.005137	-0.001085	-0.005976	-0.270996	0.457031	-0.224121	0.677126	-0.420943	-0.133208	-0.588696
61991		6.638568	-4.077246	5.977443	-0.004318	-0.002057	-0.004345	-0.271240	0.456055	-0.226074	0.677076	-0.420976	-0.133216	-0.588728
61992		6.641241	-4.071257	5.957126	-0.002332	-0.003074	-0.006637	-0.267334	0.463623	-0.227539	0.677023	-0.420993	-0.133251	-0.588769
61993		6.630051	-4.063885	5.990202	-0.000469	0.001898	-0.007188	-0.266113	0.456787	-0.233643	0.677001	-0.420980	-0.133244	-0.588805
61994		6.641756	-4.061704	5.980946	-0.000085	-0.001815	-0.005854	-0.265869	0.458984	-0.223877	0.676994	-0.420944	-0.133270	-0.588833
61995		6.630957	-4.062632	5.990049	0.000045	-0.000676	-0.004316	-0.269043	0.456787	-0.228027	0.676974	-0.420953	-0.133274	-0.588848
61996		6.644465	-4.054863	5.961163	0.001161	0.002896	-0.004827	-0.264404	0.463623	-0.222900	0.676958	-0.420916	-0.133283	-0.588891
61997		6.633151	-4.055787	5.970841	0.001668	0.003265	-0.002858	-0.271240	0.465088	-0.225830	0.676964	-0.420914	-0.133251	-0.588894
61998		6.642227	-4.059651	5.981816	0.001428	0.002232	-0.000848	-0.268799	0.461670	-0.223145	0.676964	-0.420913	-0.133237	-0.588897
61999		6.620547	-4.078787	5.952585	0.001298	0.001093	-0.002386	-0.264160	0.463379	-0.218506	0.676949	-0.420924	-0.133235	-0.588907
62000		6.640283	-4.064423	6.002150	0.002908	0.000846	-0.005111	-0.265869	0.466553	-0.226562	0.676931	-0.420954	-0.133223	-0.588910
62001		6.630149	-4.081498	5.963767	0.004032	0.001477	-0.004719	-0.266846	0.458496	-0.226807	0.676943	-0.420935	-0.133215	-0.588911
62002		6.622062	-4.054086	5.982048	0.005148	0.005049	-0.005230	-0.273682	0.452881	-0.223633	0.676946	-0.420873	-0.133223	-0.588949
62003		6.621988	-4.053163	5.982755	0.004538	0.001845	-0.002750	-0.274658	0.463379	-0.232910	0.676909	-0.420846	-0.133283	-0.588998
62004		6.654141	-4.061714	5.951566	0.005149	0.005048	-0.005231	-0.266357	0.464355	-0.232178	0.676908	-0.420765	-0.133316	-0.589049
62005		6.631277	-4.063646	5.971119	0.006025	0.007588	-0.003733	-0.274658	0.460449	-0.224854	0.676956	-0.420669	-0.133292	-0.589069
62006		6.621032	-4.050366	5.985707	0.004349	0.007265	-0.001778	-0.274170	0.455811	-0.228271	0.676934	-0.420636	-0.133299	-0.589116
62007		6.617291	-4.077667	5.978401	0.002850	0.007405	-0.002602	-0.271484	0.464111	-0.229248	0.676912	-0.420571	-0.133320	-0.589182
62008		6.644364	-4.040510	5.949628	0.003662	0.009375	-0.001873	-0.266846	0.460449	-0.226562	0.676927	-0.420509	-0.133288	-0.589217
62009		6.617101	-4.054440	6.008689	0.001422	0.005173	-0.001753	-0.269775	0.464111	-0.225098	0.676936	-0.420484	-0.133256	-0.589231
62010		6.618757	-4.048429	5.989533	-0.000453	0.006082	-0.003009	-0.266113	0.458008	-0.229492	0.676917	-0.420490	-0.133211	-0.589259
62011		6.627548	-4.052321	6.000795	0.001047	0.005943	-0.002185	-0.265625	0.458740	-0.217529	0.676938	-0.420429	-0.133185	-0.589284
62012		6.624078	-4.079878	5.993030	0.000236	0.003972	-0.002914	-0.272949	0.457520	-0.227051	0.676898	-0.420482	-0.133141	-0.589302
62013		6.617747	-4.047334	5.991388	0.000166	0.006343	-0.004587	-0.261475	0.459473	-0.219727	0.676855	-0.420449	-0.133154	-0.589373
62014		6.594979	-4.049873	6.010378	-0.001703	0.004311	-0.004939	-0.267822	0.459229	-0.226074	0.676834	-0.420489	-0.133078	-0.589385
62015		6.606195	-4.048114	6.001399	-0.003885	0.003619	-0.004955	-0.268555	0.460449	-0.225830	0.676800	-0.420496	-0.133048	-0.589426
62016		6.617638	-4.046500	5.992072	-0.005442	0.000248	-0.005644	-0.265137	0.462646	-0.228760	0.676749	-0.420535	-0.133028	-0.589461
62017		6.636004	-4.085255	5.960581	-0.008567	-0.000613	-0.008830	-0.265137	0.459717	-0.230957	0.676713	-0.420566	-0.132983	-0.589490
62018		6.626918	-4.072196	5.973708	-0.001844	0.001925	-0.011563	-0.268555	0.459473	-0.232422	0.676699	-0.420512	-0.132986	-0.589545
62019		6.619179	-4.044920	5.991437	-0.004585	0.004481	-0.010136	-0.269287	0.459229	-0.225342	0.676670	-0.420453	-0.132982	-0.589621
62020		6.640029	-4.046982	5.992831	-0.002703	0.000631	-0.007976	-0.266113	0.461914	-0.237793	0.676608	-0.420476	-0.132991	-0.589674
62021		6.629778	-4.055949	5.978012	-0.002900	0.001863	-0.011187	-0.270996	0.465332	-0.231445	0.676633	-0.420367	-0.132997	-0.589722
62022		6.640051	-4.067436	5.964642	-0.003276	0.002632	-0.011620	-0.268066	0.456299	-0.234131	0.676589	-0.420345	-0.132999	-0.589788
62023		6.629243	-4.068030	5.973968	-0.003211	0.003201	-0.010851	-0.263428	0.457764	-0.231689	0.676569	-0.420249	-0.133029	-0.589872
62024		6.609078	-4.064551	5.972780	-0.002708	0.003571	-0.008881	-0.264893	0.456787	-0.221680	0.676587	-0.420175	-0.133007	-0.589909
62025		6.640624	-4.056652	5.989159	-0.002088	0.003832	-0.010459	-0.277344	0.457520	-0.227295	0.676524	-0.420204	-0.132981	-0.589966
62026		6.612369	-4.026542	6.005625	-0.000339	0.001785	-0.010741	-0.266113	0.456055	-0.218994	0.676397	-0.420198	-0.133073	-0.590095
62027		6.652788	-4.053306	5.980194	-0.003695	0.001137	-0.006832	-0.269287	0.453613	-0.229736	0.676314	-0.420284	-0.133043	-0.590135
62028		6.634140	-4.036210	5.982996	-0.003388	0.002738	-0.008073	-0.270752	0.461670	-0.229004	0.676270	-0.420228	-0.133079	-0.590218
62029		6.620167	-4.064982	5.983853	-0.001639	0.000691	-0.008355	-0.272949	0.462402	-0.222412	0.676229	-0.420221	-0.133097	-0.590266
62030		6.643681	-4.030752	6.017591	-0.002015	0.001460	-0.008787	-0.259033	0.454102	-0.223145	0.676119	-0.420301	-0.133101	-0.590334
62031		6.640212	-4.079996	5.980919	-0.001387	-0.001218	-0.009462	-0.274414	0.453369	-0.230225	0.676123	-0.420307	-0.133072	-0.590331
62032		6.612103	-4.049747	5.997312	0.002527	0.003311	-0.011534	-0.265625	0.465332	-0.229736	0.676042	-0.420210	-0.133190	-0.590467
62033		6.622417	-4.060715	5.984262	0.000662	0.001277	-0.011888	-0.268066	0.460938	-0.233154	0.676059	-0.420180	-0.133164	-0.590474
62034		6.645272	-4.047989	5.989865	-0.000583	-0.000496	-0.013821	-0.264404	0.464355	-0.230469	0.676053	-0.420103	-0.133206	-0.590526
62035		6.623785	-4.049665	6.008062	-0.002824	-0.001762	-0.014607	-0.273926	0.458252	-0.218750	0.676060	-0.420088	-0.133187	-0.590534
62036		6.649900	-4.047760	5.945655	-0.000457	0.000643	-0.012283	-0.260498	0.459717	-0.224365	0.675889	-0.420195	-0.133233	-0.590643
62037		6.649739	-4.029945	5.993546	-0.001700	-0.001130	-0.014215	-0.265381	0.460938	-0.228516	0.675886	-0.420217	-0.133188	-0.590641
62038		6.626761	-4.045797	6.007387	-0.002248	-0.003763	-0.010964	-0.265381	0.456787	-0.224121	0.675881	-0.420220	-0.133190	-0.590645
62039		6.659664	-4.046218	5.998733	-0.007604	-0.004650	-0.009851	-0.263672	0.465576	-0.233643	0.675817	-0.420296	-0.133179	-0.590666
62040		6.621311	-4.026735	5.999123	-0.006411	-0.006387	-0.007785	-0.266113	0.455566	-0.224365	0.675883	-0.420287	-0.133133	-0.590607
62041		6.635577	-4.019560	5.968979	-0.009778	-0.004099	-0.004779	-0.266602	0.465820	-0.221436	0.675828	-0.420368	-0.133106	-0.590618
62042		6.659671	-4.074239	5.986901	-0.010401	-0.005610	-0.008290	-0.276367	0.463623	-0.224365	0.675760	-0.420552	-0.133026	-0.590583
62043		6.623069	-4.049523	5.967488	-0.007159	-0.003602	-0.003561	-0.270752	0.463379	-0.229492	0.675642	-0.420683	-0.133043	-0.590620
62044		6.635061	-4.047925	5.957490	-0.005298	-0.002813	-0.008297	-0.273438	0.459961	-0.229004	0.675605	-0.420705	-0.133047	-0.590646
62045		6.643144	-4.057471	5.987135	-0.004544	-0.004352	-0.007433	-0.265137	0.458252	-0.225342	0.675533	-0.420726	-0.133107	-0.590701
62046		6.627092	-4.034936	5.969325	-0.006660	-0.004480	-0.006680	-0.268555	0.468750	-0.230957	0.675513	-0.420781	-0.133078	-0.590692
62047		6.635658	-4.052930	5.974864	-0.004043	-0.003982	-0.005462	-0.276123	0.463867	-0.229736	0.675546	-0.420805	-0.133030	-0.590647
62048		6.669547	-4.040037	5.970498	-0.006414	-0.002201	-0.003600	-0.261963	0.463135	-0.231934	0.675479	-0.420846	-0.133055	-0.590688
62049		6.638159	-4.039048	5.977912	-0.003932	0.000099	-0.004824	-0.265869	0.460693	-0.215332	0.675579	-0.420787	-0.132961	-0.590637
62050		6.640351	-4.033195	5.958002	-0.002690	0.001872	-0.002890	-0.266846	0.460938	-0.224365	0.675528	-0.420950	-0.132869	-0.590600
62051		6.657297	-4.055398	5.975047	0.000304	0.001602	-0.001240	-0.280029	0.461914	-0.227295	0.675550	-0.420971	-0.132819	-0.590572
62052		6.657202	-4.055377	5.975167	-0.001813	0.001474	-0.000487	-0.264648	0.462646	-0.221436	0.675454	-0.421002	-0.132886	-0.590644
62053		6.638642	-4.046921	5.954182	0.001362	0.001667	-0.001617	-0.269531	0.461182	-0.227539	0.675485	-0.421063	-0.132798	-0.590585
62054		6.658444	-4.041120	5.979867	-0.000389	0.003710	-0.001334	-0.269287	0.467285	-0.225586	0.675501	-0.421038	-0.132765	-0.590592
62055		6.636131	-4.052402	5.974696	0.000049	0.003511	-0.000132	-0.262207	0.462158	-0.229736	0.675531	-0.421077	-0.132680	-0.590549
62056		6.635838	-4.052392	5.975028	0.000803	0.001973	0.000732	-0.267334	0.454834	-0.237793	0.675650	-0.421010	-0.132580	-0.590483
62057		6.657604	-4.041353	5.980645	-0.002676	0.000177	0.003102	-0.277344	0.464355	-0.218262	0.675740	-0.420828	-0.132586	-0.590508
62058		6.636336	-4.031316	6.003032	-0.004416	-0.000720	0.004287	-0.261230	0.461670	-0.221436	0.675627	-0.421033	-0.132579	-0.590493
62059		6.646475	-4.052855	5.965128	-0.007409	-0.000450	0.002636	-0.264404	0.462891	-0.231201	0.675676	-0.421145	-0.132421	-0.590393
62060		6.650711	-4.012240	5.977222	-0.007529	-0.000344	0.006186	-0.268555	0.453857	-0.222412	0.675777	-0.421128	-0.132298	-0.590316
62061		6.645875	-4.055379	5.964081	-0.005035	-0.000985	0.005865	-0.262939	0.461182	-0.226318	0.675750	-0.421190	-0.132282	-0.590307
62062		6.645303	-4.056750	5.963786	-0.006602	0.002767	0.008459	-0.270508	0.471436	-0.219971	0.675847	-0.421212	-0.132128	-0.590215
62063		6.633162	-4.059889	5.972911	-0.005105	0.002631	0.009284	-0.269775	0.465576	-0.226074	0.675865	-0.421403	-0.131975	-0.590091
62064		6.655896	-4.036451	5.982323	-0.009764	-0.000368	0.010488	-0.265137	0.464355	-0.221436	0.675895	-0.421506	-0.131860	-0.590010
62065		6.663222	-4.065030	5.964168	-0.008397	0.002542	0.013963	-0.263672	0.452881	-0.225098	0.675963	-0.421638	-0.131676	-0.589879
62066		6.645631	-4.102486	5.984610	-0.007409	0.004978	0.011915	-0.266846	0.461670	-0.219971	0.676023	-0.421621	-0.131568	-0.589846
62067		6.617011	-4.099817	5.929300	-0.000813	0.007639	0.012738	-0.264160	0.451904	-0.222168	0.676077	-0.421694	-0.131436	-0.589762
62068		6.636426	-4.073501	5.983699	-0.000254	0.007333	0.010389	-0.263916	0.461914	-0.233887	0.676128	-0.421663	-0.131366	-0.589741
62069		6.646346	-4.073076	5.975214	0.000061	0.005995	0.010050	-0.265869	0.461670	-0.222900	0.676291	-0.421517	-0.131257	-0.589683
62070		6.635057	-4.062006	5.989461	0.000749	0.008069	0.014332	-0.271240	0.464355	-0.224365	0.676381	-0.421536	-0.131126	-0.589594
62071		6.643069	-4.076055	5.976827	-0.000613	0.006402	0.015946	-0.270508	0.464111	-0.225098	0.676432	-0.421581	-0.131036	-0.589524
62072		6.629057	-4.101522	5.958508	0.000885	0.006264	0.016771	-0.261719	0.455811	-0.224121	0.676503	-0.421604	-0.130949	-0.589446
62073		6.614354	-4.118054	5.964883	0.008897	0.012855	0.010762	-0.262207	0.458984	-0.220703	0.676637	-0.421484	-0.130851	-0.589400
62074		6.604764	-4.099612	5.960836	0.008623	0.018160	-0.000110	-0.263428	0.461670	-0.226807	0.676701	-0.421403	-0.130736	-0.589409
62075		6.587266	-4.053917	5.974698	0.011989	0.015873	-0.003116	-0.265625	0.467529	-0.229492	0.676796	-0.421239	-0.130669	-0.589433
62076		6.623239	-4.077526	5.995557	0.011371	0.015608	-0.001540	-0.270752	0.459229	-0.223145	0.676907	-0.421085	-0.130582	-0.589435
62077		6.570735	-4.088594	5.956495	0.012990	0.015365	-0.004263	-0.266846	0.461670	-0.220703	0.676882	-0.420983	-0.130617	-0.589528
62078		6.601384	-4.049454	6.027150	0.010257	0.010790	-0.006123	-0.266357	0.462646	-0.219971	0.676866	-0.420962	-0.130603	-0.589564
62079		6.629735	-4.115480	5.936403	0.007395	0.009262	-0.005335	-0.269531	0.465820	-0.227783	0.676846	-0.420981	-0.130566	-0.589582
62080		6.642372	-4.068169	5.985248	0.009514	0.009388	-0.006086	-0.262939	0.465088	-0.219727	0.676858	-0.420896	-0.130570	-0.589628
62081		6.569702	-4.038253	6.020238	0.008766	0.012170	-0.001863	-0.268311	0.460693	-0.225830	0.676903	-0.420908	-0.130454	-0.589594
62082		6.608513	-4.056939	6.019961	0.002679	0.001065	0.001991	-0.262939	0.454102	-0.230957	0.676905	-0.420907	-0.130466	-0.589589
62083		6.608365	-4.095402	5.944272	0.001924	0.005543	0.000222	-0.276123	0.462646	-0.225830	0.676973	-0.420753	-0.130459	-0.589623
62084		6.612934	-4.110492	5.995320	0.005224	0.005625	-0.004452	-0.266846	0.463135	-0.229736	0.676880	-0.420744	-0.130550	-0.589716
62085		6.607892	-4.063307	5.998542	0.005904	0.009396	-0.006164	-0.266357	0.460693	-0.220947	0.676910	-0.420630	-0.130532	-0.589766
62086		6.607894	-4.070285	5.976041	0.005592	0.010734	-0.005828	-0.266602	0.463623	-0.227295	0.676879	-0.420632	-0.130494	-0.589809
62087		6.607244	-4.069091	5.977573	0.005968	0.009965	-0.005395	-0.269531	0.461182	-0.236816	0.676900	-0.420557	-0.130457	-0.589847
62088		6.613749	-4.077736	6.009472	0.005096	0.010363	-0.007801	-0.268066	0.466309	-0.227295	0.676934	-0.420333	-0.130496	-0.589958
62089		6.616323	-4.048831	6.019032	0.003545	0.005298	-0.002501	-0.253418	0.459229	-0.225830	0.676946	-0.420324	-0.130457	-0.589960
62090		6.600857	-4.099464	5.992574	0.005040	0.006854	-0.007666	-0.262695	0.456543	-0.225830	0.677063	-0.420234	-0.130328	-0.589919
62091		6.600941	-4.097941	5.993523	0.007041	0.002902	-0.009050	-0.269775	0.460693	-0.229492	0.677069	-0.420160	-0.130357	-0.589958
62092		6.617594	-4.060937	5.973947	0.008098	0.005903	-0.010330	-0.267578	0.458984	-0.225342	0.677038	-0.420054	-0.130432	-0.590052
62093		6.619052	-4.044856	5.979630	0.012147	0.008633	-0.009955	-0.264893	0.462891	-0.223145	0.677016	-0.419962	-0.130488	-0.590131
62094		6.584155	-4.039229	6.032882	0.010962	0.008678	-0.006031	-0.272461	0.458496	-0.226318	0.677033	-0.419931	-0.130458	-0.590140
62095		6.604063	-4.070592	5.983706	0.008721	0.007412	-0.006821	-0.259766	0.464355	-0.228027	0.676968	-0.419864	-0.130550	-0.590242
62096		6.615867	-4.045462	6.004045	0.007474	0.006888	-0.003666	-0.267578	0.459961	-0.230957	0.677073	-0.419789	-0.130450	-0.590197
62097		6.624420	-4.048589	6.016064	0.007282	0.009366	-0.001793	-0.271240	0.462402	-0.233643	0.677115	-0.419656	-0.130454	-0.590243
62098		6.593170	-4.032859	6.029450	0.005658	0.009611	0.000928	-0.268799	0.460938	-0.228027	0.677150	-0.419521	-0.130466	-0.590296
62099		6.578619	-4.070153	6.007538	0.005662	0.006673	0.001835	-0.266846	0.466553	-0.226562	0.677169	-0.419471	-0.130461	-0.590310
62100		6.612854	-4.043022	6.009006	0.002988	0.002667	0.000750	-0.262695	0.463623	-0.233398	0.677192	-0.419507	-0.130403	-0.590270
62101		6.622451	-4.024915	6.048297	0.002424	0.002976	0.003096	-0.257080	0.460449	-0.230469	0.677305	-0.419418	-0.130329	-0.590221
62102		6.587852	-4.060138	6.024070	0.001303	0.002343	0.002702	-0.263428	0.458984	-0.232910	0.677441	-0.419349	-0.130215	-0.590140
62103		6.607891	-4.063045	6.025844	0.000679	0.002082	0.004279	-0.265381	0.457031	-0.232910	0.677525	-0.419259	-0.130178	-0.590115
62104		6.577950	-4.056604	6.013807	-0.002121	-0.000126	0.000749	-0.264893	0.457520	-0.227539	0.677551	-0.419188	-0.130186	-0.590133
62105		6.618529	-4.092270	5.964884	0.002925	0.005034	-0.000927	-0.268799	0.464111	-0.231201	0.677565	-0.419143	-0.130175	-0.590152
62106		6.569025	-4.029550	6.032427	0.004550	0.004788	-0.003648	-0.252930	0.471191	-0.227783	0.677572	-0.419083	-0.130185	-0.590185
62107		6.609112	-4.056668	6.007514	-0.000311	-0.001599	0.001243	-0.267090	0.465820	-0.221924	0.677745	-0.419136	-0.129974	-0.589994
62108		6.600227	-4.052741	5.996403	-0.003361	-0.004836	-0.000276	-0.263184	0.460449	-0.225830	0.677697	-0.419310	-0.129945	-0.589933
62109		6.621654	-4.063801	5.973463	-0.001496	0.000135	-0.000829	-0.266113	0.466309	-0.226074	0.677703	-0.419349	-0.129903	-0.589907
62110		6.578368	-4.064253	5.990496	0.001928	0.002604	0.001124	-0.268799	0.456787	-0.232666	0.677724	-0.419395	-0.129848	-0.589862
62111		6.587470	-4.038101	6.053440	-0.002060	0.000444	0.001518	-0.266846	0.462646	-0.226807	0.677712	-0.419333	-0.129891	-0.589911
62112		6.617072	-4.075732	6.013027	-0.003675	-0.003498	0.000058	-0.273193	0.456299	-0.232422	0.677686	-0.419410	-0.129881	-0.589888
62113		6.616313	-4.098160	5.984634	-0.000689	0.002106	-0.000099	-0.264404	0.468262	-0.230713	0.677627	-0.419342	-0.129974	-0.589983
62114		6.575955	-4.070507	6.010214	-0.000562	0.004933	-0.004557	-0.268555	0.463623	-0.231934	0.677662	-0.419326	-0.129891	-0.589973
62115		6.585082	-4.074308	6.021146	-0.002055	0.002131	-0.004478	-0.264404	0.462402	-0.226562	0.677642	-0.419299	-0.129893	-0.590015
62116		6.575960	-4.069396	6.010961	0.002810	0.005582	-0.008460	-0.260498	0.463135	-0.232178	0.677628	-0.419282	-0.129870	-0.590048
62117		6.588024	-4.074654	5.978718	0.003687	0.006872	-0.012049	-0.263184	0.459473	-0.223389	0.677674	-0.419167	-0.129822	-0.590087
62118		6.585383	-4.070224	6.023578	0.005374	0.007195	-0.014002	-0.263672	0.464844	-0.224609	0.677630	-0.419148	-0.129823	-0.590152
62119		6.589279	-4.048340	6.009165	0.007872	0.006553	-0.014316	-0.269043	0.451904	-0.229248	0.677609	-0.419132	-0.129811	-0.590189
62120		6.598155	-4.041862	6.044959	0.006318	0.006116	-0.015915	-0.267822	0.458740	-0.228760	0.677513	-0.419003	-0.129948	-0.590361
62121		6.599348	-4.047924	6.021897	0.003452	0.004588	-0.015128	-0.271484	0.460449	-0.224365	0.677439	-0.418942	-0.130015	-0.590475
62122		6.557296	-4.055092	6.015384	-0.002541	0.006375	-0.013359	-0.265137	0.460205	-0.227783	0.677298	-0.418987	-0.130048	-0.590597
62123		6.591751	-4.018986	6.040254	-0.007648	0.003578	-0.013362	-0.260742	0.459229	-0.232666	0.677220	-0.419011	-0.130017	-0.590677
62124		6.591719	-4.040368	6.011854	-0.010128	0.002965	-0.018138	-0.267334	0.465088	-0.230469	0.677181	-0.418962	-0.129971	-0.590766
62125		6.591977	-4.061721	5.983158	-0.011558	0.000731	-0.017291	-0.270508	0.457520	-0.232422	0.677075	-0.419012	-0.129944	-0.590858
62126		6.584063	-4.026554	6.023717	-0.011429	-0.004003	-0.013937	-0.275146	0.462158	-0.227539	0.676944	-0.419027	-0.130018	-0.590981
62127		6.602365	-4.048583	6.039430	-0.012424	-0.006435	-0.011887	-0.262207	0.464600	-0.229980	0.676757	-0.419163	-0.130093	-0.591083
62128		6.605201	-4.065120	5.989843	-0.012674	-0.007465	-0.009875	-0.262695	0.458984	-0.225098	0.676726	-0.419255	-0.130030	-0.591067
62129		6.614993	-4.061265	6.022865	-0.015232	-0.004461	-0.011240	-0.264404	0.457031	-0.226074	0.676636	-0.419379	-0.129975	-0.591093
62130		6.604227	-4.085244	6.002271	-0.015722	-0.004835	-0.013214	-0.263428	0.462891	-0.235352	0.676521	-0.419484	-0.129959	-0.591155
62131		6.606208	-4.063106	6.029071	-0.014232	-0.002031	-0.013292	-0.260254	0.456299	-0.224121	0.676494	-0.419469	-0.129908	-0.591207
62132		6.581155	-4.036718	6.000205	-0.013796	-0.002229	-0.012089	-0.264404	0.461182	-0.230957	0.676423	-0.419561	-0.129844	-0.591236
62133		6.571411	-4.046699	5.984293	-0.013619	-0.000521	-0.009780	-0.270508	0.461914	-0.216553	0.676380	-0.419589	-0.129786	-0.591279
62134		6.613731	-4.029962	6.014579	-0.012007	0.000486	-0.007411	-0.269531	0.460449	-0.229492	0.676210	-0.419813	-0.129737	-0.591325
62135		6.621296	-4.070774	5.991822	-0.012626	-0.002715	-0.004928	-0.267334	0.458984	-0.234131	0.676134	-0.419874	-0.129727	-0.591371
62136		6.619074	-4.068836	6.034601	-0.009820	-0.001751	-0.006484	-0.270264	0.454834	-0.226074	0.676108	-0.419838	-0.129732	-0.591426
62137		6.624526	-4.065763	5.970308	-0.009018	0.000222	-0.005751	-0.260742	0.464600	-0.220703	0.676002	-0.419880	-0.129759	-0.591511
62138		6.603127	-4.046901	6.016248	-0.006638	-0.001553	-0.007606	-0.265625	0.455566	-0.225830	0.675978	-0.420013	-0.129652	-0.591467
62139		6.624860	-4.057641	5.993119	-0.007148	-0.000678	-0.004488	-0.265137	0.464844	-0.228516	0.675932	-0.420043	-0.129644	-0.591500
62140		6.635107	-4.070163	5.979220	-0.005655	-0.000810	-0.003658	-0.265381	0.459229	-0.230713	0.675939	-0.420078	-0.129582	-0.591480
62141		6.612819	-4.073444	5.997129	-0.005403	0.000221	-0.005669	-0.271484	0.456787	-0.227783	0.675937	-0.420046	-0.129569	-0.591509
62142		6.618043	-4.039681	5.985569	-0.004227	0.001426	-0.004502	-0.258789	0.461426	-0.232178	0.675860	-0.420043	-0.129610	-0.591589
62143		6.616796	-4.053485	5.981252	-0.003167	0.001493	-0.004876	-0.270264	0.463135	-0.230957	0.675953	-0.419971	-0.129533	-0.591551
62144		6.603480	-4.060711	6.010172	-0.003109	0.002062	-0.004106	-0.266113	0.450195	-0.224365	0.675930	-0.419949	-0.129532	-0.591594
62145		6.613268	-4.072984	5.996945	-0.001443	0.003639	-0.000964	-0.260742	0.461914	-0.236328	0.675897	-0.419923	-0.129548	-0.591646
62146		6.592627	-4.070178	5.995815	-0.000679	0.003796	-0.006094	-0.265381	0.467285	-0.222656	0.676005	-0.419779	-0.129503	-0.591635
62147		6.601802	-4.073542	6.006991	0.002183	0.005332	-0.006878	-0.266846	0.466309	-0.223389	0.675999	-0.419826	-0.129433	-0.591624
62148		6.623617	-4.061427	6.013270	-0.002056	0.005066	-0.005384	-0.267822	0.456787	-0.232910	0.675973	-0.419887	-0.129359	-0.591627
62149		6.633331	-4.073398	6.000339	-0.001998	0.005635	-0.004613	-0.250488	0.457031	-0.223633	0.675972	-0.419780	-0.129369	-0.591701
62150		6.593477	-4.054030	6.002149	-0.000938	0.005702	-0.004987	-0.265625	0.456787	-0.227539	0.676096	-0.419746	-0.129225	-0.591615
62151		6.605903	-4.038127	5.997775	0.000735	0.004341	-0.000941	-0.270264	0.466309	-0.225830	0.676108	-0.419699	-0.129212	-0.591637
62152		6.615375	-4.050455	5.984875	-0.001328	0.004777	0.000577	-0.267822	0.461182	-0.226807	0.676092	-0.419742	-0.129158	-0.591638
62153		6.624184	-4.054879	5.995735	-0.002812	0.001970	0.000650	-0.264893	0.455078	-0.222656	0.676083	-0.419764	-0.129126	-0.591639
62154		6.599825	-4.072391	6.009943	-0.000203	0.002475	0.001878	-0.270020	0.457764	-0.221680	0.676077	-0.419785	-0.129102	-0.591636
62155		6.609289	-4.085349	5.996625	-0.005070	0.001944	0.004949	-0.263428	0.458984	-0.222656	0.676017	-0.419876	-0.129066	-0.591647
62156		6.593114	-4.049922	5.983987	-0.001897	0.005082	0.002925	-0.260742	0.462891	-0.228271	0.676039	-0.419909	-0.128982	-0.591618
62157		6.609448	-4.072656	6.001378	-0.001580	0.003745	0.002588	-0.265381	0.461426	-0.231934	0.676129	-0.419889	-0.128882	-0.591551
62158		6.609633	-4.081263	5.977672	-0.001580	0.003745	0.002588	-0.260498	0.466309	-0.225830	0.676190	-0.419828	-0.128836	-0.591534
62159		6.594809	-4.080925	6.031011	-0.000837	0.005148	0.002552	-0.259033	0.458008	-0.231934	0.676279	-0.419843	-0.128707	-0.591450
62160		6.607664	-4.073681	6.002647	0.001226	0.004712	0.001035	-0.262939	0.465820	-0.232178	0.676393	-0.419731	-0.128650	-0.591412
62161		6.608640	-4.060020	6.007162	-0.003439	0.001706	0.002227	-0.270752	0.461426	-0.228760	0.676476	-0.419705	-0.128568	-0.591353
62162		6.607043	-4.074487	6.002783	-0.003180	-0.000200	0.001119	-0.267090	0.459229	-0.227783	0.676439	-0.419726	-0.128576	-0.591379
62163		6.606911	-4.074760	6.002743	-0.002558	0.003002	-0.001362	-0.264404	0.461426	-0.231689	0.676421	-0.419717	-0.128561	-0.591409
62164		6.608002	-4.060995	6.007205	-0.002443	0.004141	0.000179	-0.265625	0.455566	-0.225342	0.676467	-0.419661	-0.128513	-0.591406
62165		6.574455	-4.074321	6.010771	-0.003243	0.002168	-0.000555	-0.269287	0.459961	-0.225342	0.676439	-0.419671	-0.128499	-0.591434
62166		6.607632	-4.061797	6.007069	-0.006042	-0.001737	0.001901	-0.271729	0.451660	-0.229004	0.676384	-0.419747	-0.128487	-0.591446
62167		6.613970	-4.094632	6.008719	-0.005299	-0.000334	0.001865	-0.258545	0.463867	-0.225342	0.676307	-0.419735	-0.128541	-0.591531
62168		6.628421	-4.074168	5.983907	-0.006135	0.004814	0.004417	-0.270996	0.457275	-0.225098	0.676394	-0.419774	-0.128389	-0.591437
62169		6.603779	-4.092205	5.998021	-0.001947	0.001574	0.003058	-0.260742	0.461670	-0.231689	0.676335	-0.419804	-0.128399	-0.591480
62170		6.593232	-4.080723	6.011528	-0.004210	0.004483	0.006452	-0.265869	0.456787	-0.224609	0.676448	-0.419755	-0.128298	-0.591407
62171		6.623186	-4.096351	5.999621	-0.003179	-0.000200	0.001118	-0.267822	0.457520	-0.225342	0.676421	-0.419791	-0.128287	-0.591415
62172		6.592674	-4.112070	5.959195	-0.002125	0.002804	-0.000158	-0.257812	0.469971	-0.218750	0.676380	-0.419804	-0.128280	-0.591454
62173		6.577530	-4.133302	5.984233	0.000934	0.004805	-0.003720	-0.269531	0.463867	-0.219971	0.676428	-0.419896	-0.128136	-0.591365
62174		6.589906	-4.086633	6.032504	0.005542	0.007242	-0.005681	-0.264160	0.457031	-0.227051	0.676359	-0.419931	-0.128124	-0.591423
62175		6.593913	-4.074012	5.993998	0.004171	0.005573	-0.004068	-0.262207	0.456299	-0.230469	0.676373	-0.419858	-0.128132	-0.591456
62176		6.592897	-4.065228	6.018731	0.001740	0.003838	-0.002083	-0.258301	0.458252	-0.226318	0.676427	-0.419764	-0.128133	-0.591462
62177		6.589844	-4.092521	6.010917	0.002680	0.005705	-0.004900	-0.262939	0.461182	-0.220703	0.676489	-0.419701	-0.128090	-0.591444
62178		6.600359	-4.111892	5.974466	0.007295	0.005204	-0.005957	-0.257080	0.462402	-0.222412	0.676484	-0.419703	-0.128072	-0.591453
62179		6.581085	-4.063864	6.030410	0.002821	0.005598	-0.008453	-0.264404	0.467773	-0.229736	0.676525	-0.419697	-0.128000	-0.591425
62180		6.578382	-4.090649	6.022575	0.003258	0.002462	-0.006345	-0.264160	0.464844	-0.229492	0.676557	-0.419664	-0.127981	-0.591416
62181		6.581691	-4.091677	5.979289	0.004403	0.001853	-0.011041	-0.266602	0.463135	-0.222168	0.676563	-0.419613	-0.128000	-0.591442
62182		6.603974	-4.048454	6.037756	0.001909	0.002486	-0.010730	-0.263916	0.458008	-0.229980	0.676491	-0.419653	-0.128007	-0.591494
62183		6.594068	-4.056997	6.023000	-0.000693	-0.000957	-0.011057	-0.262695	0.463623	-0.230469	0.676465	-0.419608	-0.128052	-0.591546
62184		6.604768	-4.068469	6.009366	-0.003011	-0.001554	-0.007530	-0.268066	0.453857	-0.229980	0.676477	-0.419600	-0.128041	-0.591540
62185		6.601794	-4.087820	6.024530	-0.006254	0.000612	-0.008087	-0.268311	0.457520	-0.227783	0.676396	-0.419575	-0.128085	-0.591642
62186		6.606030	-4.067598	6.008568	-0.003123	-0.002692	-0.009072	-0.261963	0.452881	-0.219971	0.676313	-0.419587	-0.128142	-0.591715
62187		6.613933	-4.107055	5.986420	-0.003878	0.001778	-0.010844	-0.270996	0.454346	-0.225342	0.676229	-0.419633	-0.128139	-0.591779
62188		6.587442	-4.071782	5.982786	-0.004138	0.003683	-0.009737	-0.270020	0.459717	-0.237549	0.676099	-0.419637	-0.128180	-0.591917
62189		6.588737	-4.078915	5.958896	-0.003422	0.003272	-0.015639	-0.269531	0.457764	-0.228271	0.676045	-0.419519	-0.128255	-0.592045
62190		6.597240	-4.065314	6.017568	-0.002783	0.000599	-0.016313	-0.262695	0.457031	-0.229004	0.675927	-0.419504	-0.128324	-0.592175
62191		6.598463	-4.063759	6.017277	-0.003635	-0.001944	-0.017820	-0.266602	0.464844	-0.224609	0.675874	-0.419479	-0.128378	-0.592243
62192		6.581668	-4.084120	5.943318	-0.004382	-0.000411	-0.018690	-0.266113	0.462158	-0.224365	0.675762	-0.419540	-0.128384	-0.592326
62193		6.589648	-4.084063	5.997093	-0.005885	-0.005036	-0.024487	-0.261475	0.462402	-0.228027	0.675610	-0.419615	-0.128439	-0.592434
62194		6.603256	-4.080225	5.986928	-0.007856	-0.005281	-0.027298	-0.261230	0.460938	-0.228516	0.675513	-0.419648	-0.128482	-0.592511
62195		6.620993	-4.034836	5.989211	-0.008243	-0.009145	-0.020830	-0.267578	0.458252	-0.230469	0.675448	-0.419697	-0.128531	-0.592541
62196		6.618391	-4.066990	5.999065	-0.008679	-0.006013	-0.022940	-0.263672	0.455566	-0.231201	0.675316	-0.419712	-0.128620	-0.592661
62197		6.623884	-4.045652	5.982387	-0.006271	-0.005966	-0.018927	-0.266602	0.460205	-0.229004	0.675255	-0.419689	-0.128701	-0.592729
62198		6.624299	-4.058293	5.977076	-0.007219	-0.004898	-0.017012	-0.265137	0.458740	-0.223389	0.675168	-0.419717	-0.128749	-0.592797
62199		6.628404	-4.029468	5.984627	-0.007684	-0.003456	-0.013120	-0.267090	0.462646	-0.226807	0.675078	-0.419796	-0.128752	-0.592844
62200		6.614294	-4.072472	5.980019	-0.007938	-0.004489	-0.011108	-0.270508	0.456787	-0.229980	0.675008	-0.419866	-0.128756	-0.592874
62201		6.591822	-4.089018	5.992935	-0.006893	-0.006235	-0.017353	-0.260986	0.461914	-0.223389	0.674881	-0.419880	-0.128852	-0.592987
62202		6.617955	-4.069905	5.977715	-0.004840	-0.008480	-0.024743	-0.267822	0.458984	-0.230225	0.674794	-0.419956	-0.128902	-0.593021
62203		6.612643	-4.049773	5.969909	-0.007694	-0.010028	-0.023964	-0.269043	0.456543	-0.226562	0.674667	-0.419986	-0.129014	-0.593121
62204		6.622251	-4.057936	5.998736	-0.007582	-0.008891	-0.022422	-0.270264	0.465332	-0.216064	0.674509	-0.420042	-0.129119	-0.593238
62205		6.634687	-4.068217	5.983952	-0.004399	-0.008680	-0.023543	-0.262939	0.462402	-0.221436	0.674300	-0.420224	-0.129167	-0.593336
62206		6.637143	-4.065899	5.982803	-0.002652	-0.007774	-0.024725	-0.266602	0.458984	-0.228271	0.674199	-0.420305	-0.129221	-0.593381
62207		6.629631	-4.051050	5.995238	-0.002823	-0.006547	-0.027945	-0.269043	0.456787	-0.225342	0.674084	-0.420299	-0.129336	-0.593491
62208		6.634287	-4.042548	5.974423	-0.004185	-0.008223	-0.026333	-0.270020	0.465576	-0.229736	0.673924	-0.420337	-0.129459	-0.593619
62209		6.666411	-4.046505	5.985557	-0.002227	-0.005038	-0.024426	-0.271729	0.462646	-0.223633	0.673825	-0.420341	-0.129542	-0.593710
62210		6.662968	-3.998601	5.986918	-0.002022	-0.007389	-0.014432	-0.267334	0.462402	-0.224121	0.673713	-0.420421	-0.129606	-0.593767
62211		6.632284	-3.967521	6.045572	-0.011531	-0.009159	-0.004294	-0.270020	0.460449	-0.224365	0.673665	-0.420558	-0.129578	-0.593730
62212		6.648438	-4.048454	5.999768	-0.009970	-0.011652	-0.001789	-0.269043	0.461914	-0.222900	0.673604	-0.420694	-0.129588	-0.593701
62213		6.629518	-4.077076	5.943929	-0.011080	-0.012294	-0.002189	-0.262451	0.464600	-0.222412	0.673541	-0.420856	-0.129581	-0.593660
62214		6.643164	-4.031941	5.989432	-0.009714	-0.010619	-0.003803	-0.267578	0.465820	-0.224365	0.673544	-0.421001	-0.129531	-0.593564
62215		6.655170	-4.053109	5.949990	-0.011225	-0.012190	0.001368	-0.258057	0.459473	-0.227783	0.673531	-0.421161	-0.129491	-0.593474
62216		6.646706	-4.020484	5.989532	-0.013541	-0.012800	0.004900	-0.268066	0.451416	-0.221191	0.673624	-0.421261	-0.129427	-0.593312
62217		6.645028	-4.050090	5.978818	-0.010687	-0.011248	0.004118	-0.263428	0.469238	-0.223145	0.673574	-0.421389	-0.129438	-0.593276
62218		6.635366	-4.061627	5.961816	-0.013914	-0.012036	0.004466	-0.268555	0.462158	-0.220703	0.673610	-0.421578	-0.129339	-0.593122
62219		6.653545	-4.085569	5.976412	-0.012529	-0.013299	0.003750	-0.274414	0.459717	-0.223389	0.673568	-0.421769	-0.129309	-0.593040
62220		6.666225	-4.085041	5.964840	-0.009237	-0.016695	-0.000806	-0.271973	0.460449	-0.226318	0.673466	-0.421926	-0.129378	-0.593028
62221		6.650618	-4.063617	5.945657	-0.007390	-0.014646	-0.000442	-0.269287	0.465576	-0.225830	0.673418	-0.422031	-0.129436	-0.592997
62222		6.653003	-4.050154	5.948402	-0.004476	-0.006076	-0.001472	-0.275146	0.455322	-0.219727	0.673417	-0.422094	-0.129427	-0.592954
62223		6.664184	-4.040572	5.962407	-0.003742	-0.004668	-0.001505	-0.272461	0.461426	-0.226074	0.673313	-0.422176	-0.129471	-0.593005
62224		6.652890	-4.064669	5.942396	-0.003992	-0.005704	0.000507	-0.270020	0.465576	-0.220215	0.673289	-0.422223	-0.129490	-0.592994
62225		6.658037	-4.031310	5.930347	-0.002125	-0.006595	0.001769	-0.269043	0.458496	-0.217041	0.673275	-0.422332	-0.129471	-0.592936
62226		6.664357	-4.055904	5.955525	-0.004513	-0.004836	0.003633	-0.276855	0.458252	-0.223633	0.673244	-0.422449	-0.129444	-0.592895
62227		6.641439	-4.082271	5.944726	-0.003024	-0.004960	0.004463	-0.270508	0.466553	-0.222168	0.673189	-0.422507	-0.129481	-0.592908
62228		6.665182	-4.065608	5.930223	-0.001398	-0.000437	0.006717	-0.272705	0.458740	-0.223877	0.673216	-0.422570	-0.129416	-0.592847
62229		6.662529	-4.072579	5.949954	-0.003052	0.002730	0.008548	-0.264404	0.465332	-0.217773	0.673229	-0.422585	-0.129375	-0.592829
62230		6.663574	-4.067777	5.930542	-0.000527	0.005617	0.008108	-0.267822	0.462891	-0.221680	0.673297	-0.422640	-0.129240	-0.592742
62231		6.648866	-4.076582	5.960268	0.001229	0.008337	0.012804	-0.267334	0.461670	-0.223389	0.673386	-0.422636	-0.129124	-0.592669
62232		6.640524	-4.045735	5.959392	0.001103	0.010139	0.010361	-0.270264	0.462891	-0.229736	0.673476	-0.422599	-0.129017	-0.592617
62233		6.646256	-4.086792	5.938453	0.001428	0.008803	0.010019	-0.266113	0.454346	-0.221191	0.673572	-0.422518	-0.128947	-0.592580
62234		6.658429	-4.058174	5.939113	0.000404	0.012239	0.010269	-0.270264	0.468506	-0.222168	0.673648	-0.422467	-0.128851	-0.592552
62235		6.643199	-4.067023	5.969349	0.004265	0.008653	0.015237	-0.257812	0.461670	-0.223633	0.673742	-0.422469	-0.128729	-0.592470
62236		6.627718	-4.097842	5.970854	0.002205	0.004329	0.011778	-0.275635	0.453857	-0.215820	0.673911	-0.422441	-0.128615	-0.592322
62237		6.640564	-4.069611	5.970517	-0.003550	0.000658	0.012566	-0.266113	0.460693	-0.223877	0.673855	-0.422536	-0.128590	-0.592324
62238		6.639108	-4.093145	5.942072	-0.001864	0.000999	0.010613	-0.267090	0.465576	-0.226562	0.673929	-0.422553	-0.128525	-0.592242
62239		6.635137	-4.143928	5.905309	0.000323	0.003412	0.004638	-0.270020	0.460449	-0.213867	0.673993	-0.422535	-0.128467	-0.592194
62240		6.619344	-4.085678	5.921776	0.004627	0.005969	-0.002084	-0.265869	0.466797	-0.219971	0.673942	-0.422575	-0.128441	-0.592229
62241		6.638951	-4.057739	5.976668	0.003211	0.008471	0.003734	-0.270508	0.468506	-0.223633	0.673991	-0.422577	-0.128340	-0.592194
62242		6.638864	-4.065879	5.953470	0.002009	0.003753	0.002685	-0.261230	0.457275	-0.226807	0.674008	-0.422589	-0.128289	-0.592176
62243		6.645194	-4.076135	5.984601	0.002961	0.007435	0.005744	-0.269287	0.464844	-0.222168	0.674131	-0.422495	-0.128235	-0.592116
62244		6.637002	-4.066562	5.955079	0.001921	0.004423	0.007015	-0.262695	0.464111	-0.216064	0.674168	-0.422507	-0.128174	-0.592078
62245		6.645824	-4.079667	5.942281	-0.001845	0.007448	0.009590	-0.270508	0.463623	-0.227295	0.674226	-0.422570	-0.128024	-0.592000
62246		6.663354	-4.067345	5.992560	-0.000929	0.007620	0.012772	-0.262207	0.464600	-0.225830	0.674299	-0.422539	-0.127941	-0.591957
62247		6.630907	-4.084807	5.953147	-0.002179	0.011828	0.020906	-0.265137	0.460938	-0.221436	0.674469	-0.422508	-0.127751	-0.591827
62248		6.604475	-4.134302	5.916314	0.004159	0.015192	0.017767	-0.260498	0.456787	-0.217529	0.674599	-0.422451	-0.127606	-0.591751
62249		6.624309	-4.102029	5.952453	0.006852	0.015034	0.014668	-0.264404	0.477539	-0.231445	0.674733	-0.422389	-0.127476	-0.591669
62250		6.636013	-4.073043	5.954004	0.008378	0.013667	0.010398	-0.273438	0.460449	-0.215088	0.674904	-0.422282	-0.127331	-0.591582
62251		6.608590	-4.104968	5.965668	0.005634	0.013256	0.012721	-0.265137	0.465088	-0.233154	0.674912	-0.422289	-0.127252	-0.591586
62252		6.617934	-4.103921	5.958237	0.005418	0.010981	0.009630	-0.262451	0.462891	-0.220703	0.675053	-0.422154	-0.127181	-0.591536
62253		6.635952	-4.098893	5.985264	0.004736	0.010143	0.010435	-0.262695	0.454834	-0.224121	0.675153	-0.422124	-0.127075	-0.591466
62254		6.615183	-4.113026	5.937386	0.006412	0.013421	0.007585	-0.260498	0.472900	-0.233643	0.675255	-0.422008	-0.127019	-0.591444
62255		6.592212	-4.102558	5.961796	0.005444	0.012680	0.003630	-0.265381	0.463379	-0.229248	0.675407	-0.421880	-0.126905	-0.591386
62256		6.597850	-4.112258	5.993977	0.007508	0.012251	0.002112	-0.261719	0.461914	-0.229248	0.675490	-0.421752	-0.126866	-0.591391
62257		6.598674	-4.106132	5.975835	0.003969	0.009869	0.003695	-0.266602	0.460693	-0.221924	0.675592	-0.421648	-0.126808	-0.591361
62258		6.600778	-4.086231	5.961947	0.007311	0.011784	0.004894	-0.263672	0.469727	-0.228027	0.675640	-0.421583	-0.126760	-0.591363
62259		6.586602	-4.101699	5.968583	0.007312	0.011783	0.004893	-0.271729	0.465576	-0.228516	0.675746	-0.421496	-0.126674	-0.591322
62260		6.583841	-4.115143	5.966204	0.009632	0.012388	0.001366	-0.264404	0.465576	-0.226562	0.675779	-0.421381	-0.126664	-0.591369
62261		6.605259	-4.110677	5.950047	0.010894	0.012923	-0.001790	-0.256104	0.459961	-0.224609	0.675847	-0.421262	-0.126631	-0.591383
62262		6.591520	-4.124543	5.957305	0.014156	0.015398	-0.008135	-0.265625	0.470703	-0.219971	0.675946	-0.421092	-0.126608	-0.591396
62263		6.603096	-4.076336	6.007370	0.013995	0.013690	-0.010451	-0.261719	0.465820	-0.231934	0.675950	-0.421019	-0.126584	-0.591448
62264		6.579058	-4.069557	6.051661	0.007593	0.009765	-0.008091	-0.260010	0.462158	-0.220459	0.676011	-0.420884	-0.126574	-0.591476
62265		6.580495	-4.084300	6.004811	0.004689	0.004714	-0.007184	-0.268066	0.466797	-0.220215	0.676023	-0.420872	-0.126558	-0.591475
62266		6.602117	-4.123833	5.930804	0.003684	0.005213	-0.006041	-0.257324	0.459961	-0.231201	0.675983	-0.420892	-0.126544	-0.591509
62267		6.601934	-4.092069	5.984083	0.007591	0.005015	-0.013061	-0.264404	0.463623	-0.225342	0.676036	-0.420758	-0.126583	-0.591536
62268		6.612707	-4.080033	6.000215	0.010249	0.006095	-0.011056	-0.260742	0.459961	-0.237549	0.676039	-0.420676	-0.126623	-0.591583
62269		6.588953	-4.095312	6.015328	0.007336	0.003981	-0.011050	-0.267822	0.469238	-0.226562	0.676097	-0.420508	-0.126687	-0.591622
62270		6.570394	-4.077109	6.018617	0.003576	-0.000677	-0.012554	-0.261719	0.461426	-0.230225	0.676049	-0.420511	-0.126730	-0.591665
62271		6.637831	-4.049084	6.011808	0.000727	-0.005159	-0.010873	-0.270020	0.458984	-0.228027	0.676042	-0.420491	-0.126793	-0.591673
62272		6.616277	-4.051878	6.029234	-0.003172	-0.007897	-0.002949	-0.263184	0.458740	-0.222656	0.675985	-0.420536	-0.126862	-0.591692
62273		6.615932	-4.066197	6.023654	-0.008098	-0.009014	-0.000655	-0.259277	0.460693	-0.224854	0.675952	-0.420648	-0.126868	-0.591649
62274		6.608425	-4.071153	5.987401	-0.009735	-0.008782	0.002066	-0.264648	0.458740	-0.229492	0.675969	-0.420754	-0.126837	-0.591561
62275		6.592929	-4.107771	6.006268	-0.009744	-0.005846	0.001163	-0.266846	0.459961	-0.227783	0.675958	-0.420808	-0.126833	-0.591535
62276		6.587228	-4.106570	5.950820	-0.005997	-0.003000	-0.003205	-0.266113	0.468262	-0.232178	0.675921	-0.420842	-0.126846	-0.591551
62277		6.596649	-4.080379	6.013277	-0.001501	-0.001686	-0.006705	-0.263184	0.468018	-0.223145	0.675919	-0.420832	-0.126860	-0.591558
62278		6.600195	-4.082229	5.969126	-0.003192	-0.002023	-0.004756	-0.257324	0.463135	-0.223145	0.675907	-0.420901	-0.126831	-0.591528
62279		6.601791	-4.068431	5.972989	-0.004293	-0.000851	0.000716	-0.262207	0.456787	-0.228027	0.675957	-0.420953	-0.126769	-0.591448
62280		6.610027	-4.065066	6.007385	-0.002269	-0.000036	0.004300	-0.258301	0.460693	-0.229004	0.676004	-0.420940	-0.126754	-0.591406
62281		6.614847	-4.112169	6.004883	-0.005222	-0.000909	0.009406	-0.259277	0.462646	-0.233887	0.676105	-0.420954	-0.126687	-0.591295
62282		6.616645	-4.107432	5.984742	-0.003810	-0.000479	0.002694	-0.253662	0.463867	-0.224609	0.676191	-0.420921	-0.126655	-0.591227
62283		6.604668	-4.131394	5.965581	0.003287	0.001349	0.000428	-0.270996	0.464844	-0.233398	0.676306	-0.420904	-0.126614	-0.591117
62284		6.617259	-4.115233	5.961142	0.003061	0.002011	-0.003562	-0.270752	0.459717	-0.233643	0.676293	-0.420840	-0.126653	-0.591168
62285		6.604473	-4.099650	6.018877	0.006390	0.002117	-0.008234	-0.267578	0.455322	-0.224365	0.676262	-0.420735	-0.126741	-0.591259
62286		6.617524	-4.082411	6.014654	0.004474	0.002440	-0.010274	-0.266113	0.455078	-0.230225	0.676199	-0.420690	-0.126810	-0.591349
62287		6.597472	-4.078513	6.013641	0.003789	0.001604	-0.009468	-0.267334	0.467529	-0.228516	0.676172	-0.420608	-0.126888	-0.591422
62288		6.566552	-4.106419	5.969347	0.004368	0.001301	-0.011818	-0.259766	0.463623	-0.223877	0.676142	-0.420575	-0.126932	-0.591470
62289		6.599579	-4.083325	5.990445	0.002881	0.001427	-0.012653	-0.270752	0.461182	-0.226074	0.676140	-0.420562	-0.126953	-0.591477
62290		6.588576	-4.105043	5.971798	0.005891	0.002868	-0.016988	-0.267090	0.460693	-0.219727	0.676043	-0.420511	-0.127040	-0.591605
62291		6.581804	-4.062805	5.994454	0.002496	0.005128	-0.013990	-0.268066	0.458496	-0.227783	0.675956	-0.420512	-0.127061	-0.591699
62292		6.614254	-4.061361	5.987615	0.005948	0.003436	-0.016217	-0.263672	0.472900	-0.228516	0.675891	-0.420435	-0.127148	-0.591810
62293		6.582528	-4.080679	5.967713	0.003987	0.005001	-0.013158	-0.266357	0.461670	-0.220703	0.675897	-0.420398	-0.127141	-0.591831
62294		6.591331	-4.074896	6.003085	0.001387	0.004485	-0.014393	-0.273926	0.459961	-0.227783	0.675818	-0.420404	-0.127157	-0.591914
62295		6.612481	-4.075753	6.004944	-0.002583	0.002296	-0.014015	-0.260986	0.460449	-0.225098	0.675691	-0.420395	-0.127212	-0.592053
62296		6.614507	-4.060720	6.009126	-0.003149	-0.000339	-0.010761	-0.267090	0.465332	-0.228027	0.675669	-0.420411	-0.127220	-0.592065
62297		6.625272	-4.072245	5.995414	-0.004842	-0.000677	-0.008811	-0.257812	0.465088	-0.226074	0.675621	-0.420441	-0.127221	-0.592098
62298		6.623626	-4.077801	6.014828	-0.005745	0.000959	-0.006123	-0.264404	0.465576	-0.228516	0.675651	-0.420473	-0.127169	-0.592053
62299		6.605504	-4.069943	5.993021	-0.012107	0.000530	-0.003891	-0.266602	0.461670	-0.225586	0.675627	-0.420537	-0.127105	-0.592049
62300		6.591184	-4.091981	6.016828	-0.010569	-0.000840	-0.008159	-0.263428	0.458496	-0.223877	0.675552	-0.420605	-0.127084	-0.592090
62301		6.623778	-4.092566	6.008429	-0.009987	-0.001142	-0.010510	-0.262939	0.469971	-0.228760	0.675481	-0.420667	-0.127074	-0.592129
62302		6.624580	-4.092248	6.007761	-0.008615	0.000532	-0.012123	-0.276855	0.461426	-0.221436	0.675449	-0.420710	-0.127037	-0.592143
62303		6.609209	-4.077772	5.966027	-0.010463	-0.001517	-0.012491	-0.270508	0.463135	-0.229980	0.675259	-0.420815	-0.127055	-0.592281
62304		6.617027	-4.087413	5.995809	-0.008885	0.002434	-0.011013	-0.260742	0.460693	-0.219238	0.675173	-0.420829	-0.127052	-0.592370
62305		6.596968	-4.084677	5.994047	-0.008574	0.004036	-0.012254	-0.255371	0.464111	-0.229736	0.675113	-0.420889	-0.126997	-0.592408
62306		6.606620	-4.088292	6.004515	-0.008198	0.003271	-0.011820	-0.266113	0.462891	-0.227051	0.675143	-0.420881	-0.126950	-0.592390
62307		6.611582	-4.075885	5.964687	-0.008401	0.000993	-0.014912	-0.271240	0.463135	-0.220703	0.675060	-0.420910	-0.126951	-0.592463
62308		6.620772	-4.071057	5.998991	-0.005427	0.000747	-0.013242	-0.260254	0.462891	-0.224121	0.674934	-0.420974	-0.126960	-0.592559
62309		6.613222	-4.074141	5.964061	-0.005375	0.001315	-0.012470	-0.267090	0.464600	-0.229980	0.674909	-0.420999	-0.126942	-0.592573
62310		6.622385	-4.069489	5.998274	-0.007904	-0.001572	-0.012033	-0.260010	0.463867	-0.225830	0.674849	-0.421025	-0.126955	-0.592621
62311		6.623342	-4.069075	5.997498	-0.008161	-0.002607	-0.010021	-0.263428	0.459229	-0.225586	0.674833	-0.421078	-0.126938	-0.592604
62312		6.622530	-4.104578	5.964290	-0.006006	0.001046	-0.010892	-0.268311	0.459961	-0.223145	0.674793	-0.421091	-0.126940	-0.592641
62313		6.622318	-4.095832	5.988065	-0.002708	-0.000533	-0.009561	-0.270508	0.459717	-0.223389	0.674723	-0.421119	-0.126966	-0.592695
62314		6.595966	-4.039164	6.012502	-0.008707	0.001197	-0.007798	-0.266846	0.469238	-0.217773	0.674628	-0.421173	-0.126953	-0.592767
62315		6.634845	-4.072010	6.006381	-0.010608	0.000389	-0.003062	-0.264160	0.461426	-0.224365	0.674569	-0.421309	-0.126859	-0.592759
62316		6.624569	-4.082429	5.990875	-0.008863	0.001301	-0.004239	-0.273193	0.465820	-0.224121	0.674546	-0.421357	-0.126814	-0.592760
62317		6.613262	-4.084557	5.999743	-0.005533	0.003229	-0.003034	-0.263428	0.460205	-0.229492	0.674481	-0.421401	-0.126777	-0.592810
62318		6.647139	-4.079469	5.972304	-0.005415	0.001430	-0.000588	-0.260498	0.459961	-0.227539	0.674513	-0.421393	-0.126752	-0.592784
62319		6.604678	-4.089203	5.964876	-0.003621	0.002911	-0.000992	-0.266357	0.462402	-0.228760	0.674565	-0.421377	-0.126718	-0.592744
62320		6.617018	-4.073695	5.960154	-0.003621	0.002911	-0.000992	-0.263916	0.467041	-0.220459	0.674580	-0.421366	-0.126693	-0.592741
62321		6.603358	-4.081927	5.988881	-0.007910	0.002046	-0.000280	-0.265137	0.469238	-0.231934	0.674575	-0.421450	-0.126605	-0.592705
62322		6.626834	-4.086805	5.946377	-0.002545	0.000048	-0.000464	-0.264648	0.462402	-0.231934	0.674622	-0.421445	-0.126581	-0.592661
62323		6.595471	-4.064687	5.981921	-0.007735	-0.000994	-0.002940	-0.264404	0.468018	-0.230225	0.674630	-0.421451	-0.126569	-0.592649
62324		6.634359	-4.097492	5.975792	-0.005190	-0.001042	-0.002476	-0.264404	0.457520	-0.229736	0.674654	-0.421471	-0.126544	-0.592613
62325		6.603517	-4.105309	5.958998	-0.006641	0.002586	-0.003437	-0.261719	0.466553	-0.225342	0.674654	-0.421454	-0.126530	-0.592629
62326		6.603940	-4.083325	5.987286	-0.003938	0.002436	-0.006532	-0.265869	0.457520	-0.231445	0.674668	-0.421470	-0.126495	-0.592609
62327		6.616792	-4.067276	5.982370	-0.004296	0.000263	-0.006067	-0.263428	0.459717	-0.225830	0.674654	-0.421439	-0.126521	-0.592641
62328		6.626363	-4.071286	5.992659	-0.006415	0.000114	-0.005324	-0.264160	0.458252	-0.229736	0.674640	-0.421462	-0.126510	-0.592643
62329		6.625185	-4.106886	5.959751	-0.003352	0.002138	-0.008884	-0.270264	0.470947	-0.225098	0.674627	-0.421425	-0.126531	-0.592680
62330		6.604115	-4.095774	5.982440	-0.000124	0.002930	-0.009224	-0.265381	0.458984	-0.227783	0.674585	-0.421436	-0.126526	-0.592721
62331		6.628418	-4.077104	5.968821	-0.002458	0.003443	-0.012475	-0.269775	0.465576	-0.226074	0.674544	-0.421400	-0.126552	-0.592787
62332		6.608403	-4.073760	5.967449	-0.001281	0.001717	-0.010401	-0.271484	0.468994	-0.223145	0.674489	-0.421401	-0.126569	-0.592846
62333		6.619249	-4.062977	5.982573	-0.001181	0.002855	-0.008854	-0.273193	0.464111	-0.224121	0.674426	-0.421428	-0.126561	-0.592900
62334		6.627471	-4.080245	5.989153	-0.000707	0.003227	-0.006873	-0.263672	0.459961	-0.226074	0.674358	-0.421433	-0.126566	-0.592972
62335		6.616044	-4.103328	5.970132	-0.002615	0.003544	-0.008917	-0.265625	0.456543	-0.224854	0.674347	-0.421413	-0.126568	-0.592999
62336		6.607100	-4.098307	5.959846	-0.001671	0.005418	-0.011734	-0.270264	0.463379	-0.227051	0.674303	-0.421376	-0.126585	-0.593072
62337		6.625040	-4.097202	6.005556	0.002277	0.001177	-0.011082	-0.266602	0.473633	-0.228760	0.674254	-0.421348	-0.126635	-0.593136
62338		6.631148	-4.069809	5.970766	0.002537	0.002212	-0.013095	-0.269531	0.461914	-0.225586	0.674247	-0.421325	-0.126652	-0.593157
62339		6.640850	-4.072370	5.981891	0.003485	0.002958	-0.009132	-0.265381	0.458740	-0.220215	0.674214	-0.421288	-0.126690	-0.593213
62340		6.632025	-4.066862	5.971801	0.005296	0.001505	-0.008636	-0.265625	0.465088	-0.228027	0.674197	-0.421270	-0.126732	-0.593237
62341		6.642519	-4.077512	5.958969	0.004970	0.002838	-0.008297	-0.264160	0.458984	-0.224365	0.674216	-0.421216	-0.126764	-0.593246
62342		6.621331	-4.065853	5.982136	0.004971	0.002837	-0.008297	-0.264648	0.455566	-0.221924	0.674224	-0.421168	-0.126804	-0.593262
62343		6.609119	-4.080193	5.987559	0.004547	0.003032	-0.009505	-0.263428	0.464600	-0.218994	0.674209	-0.421127	-0.126849	-0.593299
62344		6.649744	-4.074979	6.015286	0.005887	0.001205	-0.010990	-0.279541	0.459717	-0.228516	0.674201	-0.421127	-0.126877	-0.593302
62345		6.622512	-4.061252	5.983953	0.003961	0.003330	-0.007153	-0.260742	0.456055	-0.226074	0.674113	-0.421075	-0.126938	-0.593426
62346		6.621613	-4.073940	5.980177	0.004241	0.001428	-0.008266	-0.265869	0.460938	-0.224365	0.674148	-0.421017	-0.126990	-0.593415
62347		6.611315	-4.082723	5.965864	0.004530	0.004842	-0.003624	-0.269775	0.457764	-0.221680	0.674172	-0.420975	-0.126995	-0.593417
62348		6.613302	-4.075790	5.946973	0.005119	0.004543	-0.005977	-0.263428	0.461182	-0.223389	0.674141	-0.420941	-0.127020	-0.593472
62349		6.622583	-4.056820	5.986880	0.003356	0.006564	-0.005701	-0.266602	0.464600	-0.223145	0.674167	-0.420900	-0.127008	-0.593474
62350		6.613186	-4.051754	5.977124	0.003684	0.005231	-0.006040	-0.268799	0.460449	-0.220703	0.674170	-0.420877	-0.127000	-0.593488
62351		6.621111	-4.068663	5.984323	0.004745	0.005307	-0.006412	-0.273193	0.470215	-0.218506	0.674143	-0.420854	-0.127006	-0.593534
62352		6.600576	-4.065470	5.983434	0.002643	0.002219	-0.004769	-0.262695	0.464111	-0.229248	0.674084	-0.420902	-0.126982	-0.593572
62353		6.619024	-4.072719	6.005279	0.002577	0.004585	-0.006444	-0.273438	0.458984	-0.222168	0.674131	-0.420847	-0.126986	-0.593556
62354		6.621228	-4.065874	5.986090	0.002220	0.002413	-0.005978	-0.264160	0.464355	-0.228271	0.674066	-0.420843	-0.127012	-0.593627
62355		6.630413	-4.091065	5.968753	0.000737	0.002531	-0.006815	-0.269043	0.456055	-0.219971	0.674089	-0.420817	-0.127018	-0.593619
62356		6.622808	-4.050097	5.991182	0.002858	0.002683	-0.007557	-0.267578	0.464600	-0.222168	0.674040	-0.420808	-0.127047	-0.593675
62357		6.611586	-4.072862	5.972301	0.002126	0.001274	-0.007526	-0.264893	0.469971	-0.232910	0.674014	-0.420820	-0.127055	-0.593694
62358		6.631524	-4.066127	5.998113	0.000005	0.001122	-0.006784	-0.272461	0.466064	-0.226074	0.674049	-0.420793	-0.127060	-0.593672
62359		6.603373	-4.045093	5.990299	-0.000465	0.000746	-0.008766	-0.269043	0.465088	-0.227295	0.673990	-0.420805	-0.127078	-0.593727
62360		6.632482	-4.064521	5.998142	-0.002210	-0.000170	-0.007590	-0.266846	0.456787	-0.228027	0.673958	-0.420820	-0.127089	-0.593751
62361		6.644481	-4.061960	5.988789	-0.001928	-0.002072	-0.008703	-0.271240	0.468506	-0.233154	0.673931	-0.420813	-0.127144	-0.593774
62362		6.625679	-4.045367	5.991202	-0.003484	-0.000710	-0.004431	-0.265137	0.459717	-0.234863	0.673919	-0.420817	-0.127151	-0.593783
62363		6.614548	-4.068975	5.971670	-0.005081	0.001204	-0.007718	-0.272217	0.460693	-0.228271	0.673930	-0.420780	-0.127176	-0.593791
62364		6.623180	-4.086417	5.977750	-0.002302	-0.001309	-0.009138	-0.261963	0.456299	-0.224609	0.673867	-0.420784	-0.127221	-0.593851
62365		6.606795	-4.041596	5.988886	-0.003054	0.000217	-0.010008	-0.273926	0.471436	-0.223389	0.673856	-0.420786	-0.127247	-0.593856
62366		6.616563	-4.066790	5.970927	-0.002724	-0.001116	-0.010347	-0.260986	0.468018	-0.222168	0.673766	-0.420849	-0.127244	-0.593915
62367		6.608213	-4.061702	5.960034	-0.002884	0.000111	-0.013570	-0.260742	0.460938	-0.230957	0.673745	-0.420891	-0.127234	-0.593911
62368		6.605900	-4.080031	5.975459	0.000561	0.001375	-0.016698	-0.264648	0.463379	-0.226807	0.673751	-0.420834	-0.127295	-0.593931
62369		6.629900	-4.074027	5.957329	0.003204	-0.002846	-0.020442	-0.263916	0.462891	-0.226074	0.673703	-0.420813	-0.127391	-0.593980
62370		6.649745	-4.079381	5.978908	0.006506	0.002028	-0.020135	-0.266113	0.455566	-0.218262	0.673677	-0.420752	-0.127474	-0.594035
62371		6.632339	-4.068225	5.958579	0.007856	0.006643	-0.022649	-0.260498	0.456787	-0.228027	0.673599	-0.420685	-0.127550	-0.594155
62372		6.634150	-4.051058	5.964313	0.011339	0.007357	-0.018218	-0.269531	0.463623	-0.220215	0.673631	-0.420544	-0.127640	-0.594198
62373		6.632774	-4.031617	6.013995	0.013373	0.006370	-0.020510	-0.268066	0.459717	-0.236572	0.673575	-0.420464	-0.127720	-0.594302
62374		6.645895	-4.034409	5.982247	0.009463	0.004726	-0.019366	-0.268066	0.448730	-0.229248	0.673570	-0.420313	-0.127842	-0.594388
62375		6.665152	-4.039780	6.004432	0.005711	0.001858	-0.014997	-0.267822	0.460693	-0.224854	0.673532	-0.420216	-0.127957	-0.594475
62376		6.645381	-4.035400	6.003525	0.006819	0.002505	-0.014595	-0.265625	0.460449	-0.224365	0.673504	-0.420165	-0.128024	-0.594528
62377		6.648015	-4.049446	5.956152	0.002928	0.004366	-0.013579	-0.267334	0.466309	-0.233154	0.673484	-0.420129	-0.128054	-0.594570
62378		6.637040	-4.027993	5.994183	0.001475	0.003935	-0.006854	-0.270752	0.467285	-0.230713	0.673517	-0.420079	-0.128066	-0.594565
62379		6.636125	-4.041142	5.990229	-0.002219	0.002753	-0.008499	-0.265869	0.464355	-0.223145	0.673495	-0.420072	-0.128065	-0.594595
62380		6.636416	-4.040271	5.990494	-0.000472	0.003670	-0.009676	-0.273193	0.459961	-0.225830	0.673482	-0.420080	-0.128054	-0.594606
62381		6.656325	-4.033490	6.016243	-0.002571	0.000580	-0.008031	-0.268066	0.465088	-0.224854	0.673416	-0.420097	-0.128072	-0.594666
62382		6.649577	-4.045261	5.957252	-0.004537	-0.000800	-0.004064	-0.271729	0.465332	-0.222412	0.673402	-0.420150	-0.128051	-0.594648
62383		6.631468	-4.015186	5.964031	-0.002325	0.000497	-0.003258	-0.269775	0.469971	-0.228516	0.673368	-0.420201	-0.128028	-0.594656
62384		6.636645	-4.053015	5.985551	-0.003739	-0.001754	-0.002419	-0.265625	0.469238	-0.228027	0.673370	-0.420249	-0.128009	-0.594624
62385		6.636989	-4.031388	6.013334	-0.006501	-0.002180	-0.000097	-0.268555	0.454102	-0.226074	0.673400	-0.420314	-0.127966	-0.594553
62386		6.647689	-4.044191	5.998931	-0.008312	-0.007174	0.000435	-0.264160	0.457764	-0.225342	0.673376	-0.420389	-0.127984	-0.594523
62387		6.659919	-4.042858	5.988455	-0.008602	-0.007661	-0.005114	-0.280518	0.457275	-0.226074	0.673356	-0.420472	-0.128006	-0.594482
62388		6.619832	-4.039136	5.983887	-0.009197	-0.007362	-0.002759	-0.272705	0.456055	-0.228516	0.673233	-0.420565	-0.128035	-0.594550
62389		6.631031	-4.051664	5.969095	-0.008556	-0.007092	-0.004340	-0.266602	0.460449	-0.223633	0.673168	-0.420629	-0.128074	-0.594570
62390		6.651420	-4.046095	5.993509	-0.008159	-0.004349	-0.004033	-0.276367	0.465088	-0.232178	0.673141	-0.420710	-0.128066	-0.594545
62391		6.643822	-4.050428	5.957911	-0.007807	-0.002176	-0.004499	-0.271973	0.460693	-0.225098	0.673080	-0.420750	-0.128070	-0.594585
62392		6.644547	-4.028635	5.985429	-0.005659	-0.004954	-0.004341	-0.263672	0.465088	-0.220947	0.673028	-0.420815	-0.128088	-0.594593
62393		6.643995	-4.064709	5.951968	-0.006701	-0.001528	-0.004096	-0.270020	0.452637	-0.221924	0.673027	-0.420896	-0.128048	-0.594547
62394		6.634138	-4.052865	5.964825	-0.005595	-0.000879	-0.003693	-0.270508	0.457520	-0.228271	0.672979	-0.420935	-0.128055	-0.594571
62395		6.624366	-4.040938	5.977649	-0.007165	-0.001906	-0.006081	-0.262939	0.463867	-0.224854	0.672936	-0.420965	-0.128074	-0.594595
62396		6.645388	-4.042907	5.978757	-0.004648	0.000995	-0.006515	-0.268311	0.460693	-0.223389	0.672951	-0.420994	-0.128054	-0.594561
62397		6.646927	-4.050739	5.954235	-0.005350	-0.003352	-0.005583	-0.265137	0.461670	-0.228271	0.672918	-0.421053	-0.128061	-0.594556
62398		6.654730	-4.060380	5.984087	-0.003298	-0.000828	-0.008001	-0.268555	0.455811	-0.227539	0.672923	-0.421059	-0.128083	-0.594541
62399		6.646186	-4.055718	5.973122	-0.004140	-0.000444	-0.010420	-0.268311	0.454102	-0.220703	0.672880	-0.421058	-0.128125	-0.594581
62400		6.626391	-4.052634	5.971414	-0.002132	0.001510	-0.013613	-0.269287	0.465332	-0.229248	0.672808	-0.421063	-0.128160	-0.594651
62401		6.646914	-4.045242	5.996917	-0.002305	-0.000770	-0.016713	-0.274170	0.469727	-0.221436	0.672753	-0.421061	-0.128213	-0.594704
62402		6.609099	-4.055090	5.945679	0.002202	0.000581	-0.020214	-0.269775	0.455811	-0.224609	0.672642	-0.421078	-0.128259	-0.594808
62403		6.651576	-4.056515	5.949091	0.001250	0.002759	-0.025085	-0.262939	0.465332	-0.225342	0.672534	-0.421030	-0.128353	-0.594943
62404		6.653024	-4.053390	5.949602	0.004436	0.002997	-0.026201	-0.271729	0.463623	-0.227051	0.672494	-0.420978	-0.128434	-0.595007
62405		6.664723	-4.039764	5.965482	0.007175	0.006362	-0.029427	-0.268066	0.458008	-0.220459	0.672394	-0.420884	-0.128537	-0.595165
62406		6.645406	-4.033643	5.965312	0.008214	0.009375	-0.030702	-0.267822	0.455322	-0.233887	0.672294	-0.420786	-0.128626	-0.595329
62407		6.667267	-4.031256	5.968394	0.007297	0.008613	-0.034676	-0.279053	0.466797	-0.215820	0.672215	-0.420617	-0.128775	-0.595505
62408		6.657424	-4.006545	6.007345	0.009805	0.008010	-0.034987	-0.268799	0.458008	-0.237061	0.672015	-0.420566	-0.128861	-0.595747
62409		6.640419	-4.015805	5.959283	0.009896	0.009148	-0.033441	-0.269287	0.455078	-0.222900	0.671962	-0.420374	-0.129017	-0.595909
62410		6.640662	-4.025300	5.956585	0.010476	0.007733	-0.029005	-0.273438	0.457031	-0.232178	0.671878	-0.420257	-0.129133	-0.596061
62411		6.673846	-3.998564	5.979087	0.013811	0.007294	-0.034465	-0.274902	0.461426	-0.236328	0.671782	-0.420079	-0.129311	-0.596255
62412		6.654859	-3.991537	5.979142	0.013931	0.005499	-0.032015	-0.270264	0.452148	-0.220459	0.671707	-0.419904	-0.129490	-0.596425
62413		6.664763	-4.004385	5.987041	0.014961	0.005006	-0.033165	-0.270020	0.447510	-0.226318	0.671599	-0.419781	-0.129656	-0.596597
62414		6.677700	-3.997611	5.979351	0.009697	0.005165	-0.030537	-0.269531	0.460449	-0.239258	0.671505	-0.419649	-0.129816	-0.596761
62415		6.678176	-3.985071	6.004631	0.012584	0.003807	-0.030410	-0.271729	0.456787	-0.223389	0.671486	-0.419473	-0.130002	-0.596865
62416		6.702337	-3.976761	5.987628	0.010656	0.002994	-0.025664	-0.272217	0.460938	-0.229248	0.671406	-0.419393	-0.130124	-0.596986
62417		6.673629	-3.967000	5.976758	0.013288	0.007616	-0.023778	-0.270020	0.455078	-0.225830	0.671373	-0.419257	-0.130235	-0.597094
62418		6.684397	-3.953574	5.993307	0.007450	0.008647	-0.018014	-0.274658	0.457031	-0.228760	0.671346	-0.419159	-0.130294	-0.597179
62419		6.661150	-3.969099	6.008427	0.007674	0.005070	-0.013102	-0.265869	0.454102	-0.239258	0.671320	-0.419076	-0.130361	-0.597253
62420		6.673127	-3.987008	5.971901	0.006647	0.002054	-0.011825	-0.270020	0.462158	-0.230957	0.671395	-0.418950	-0.130476	-0.597232
62421		6.661238	-4.001141	5.977516	0.006006	0.005288	-0.010374	-0.269531	0.458984	-0.235107	0.671428	-0.418877	-0.130517	-0.597237
62422		6.694247	-3.985135	5.975384	0.006275	0.006316	-0.012395	-0.277588	0.462891	-0.236816	0.671465	-0.418768	-0.130581	-0.597258
62423		6.675621	-3.953465	5.983498	0.005290	0.007377	-0.010474	-0.273926	0.452637	-0.224609	0.671458	-0.418668	-0.130621	-0.597327
62424		6.682591	-3.983602	5.987197	0.009432	0.012472	-0.006971	-0.279785	0.457031	-0.223877	0.671459	-0.418559	-0.130628	-0.597401
62425		6.677763	-3.993774	6.028528	0.007610	0.010403	-0.007342	-0.273438	0.459229	-0.221191	0.671408	-0.418489	-0.130624	-0.597508
62426		6.640017	-3.954489	6.015841	0.007880	0.011430	-0.009364	-0.280273	0.454834	-0.229736	0.671392	-0.418424	-0.130610	-0.597574
62427		6.668337	-3.972494	6.025613	0.007234	0.011160	-0.007781	-0.277832	0.457031	-0.226807	0.671354	-0.418318	-0.130626	-0.597688
62428		6.701890	-3.965036	5.999815	0.006277	0.005787	-0.004818	-0.271240	0.452881	-0.228027	0.671332	-0.418267	-0.130641	-0.597745
62429		6.648983	-3.962243	6.006857	0.007076	0.008346	-0.003303	-0.275879	0.454590	-0.227783	0.671375	-0.418179	-0.130657	-0.597755
62430		6.665603	-3.960744	6.053775	0.007006	0.010704	-0.004987	-0.269531	0.460693	-0.224609	0.671376	-0.418088	-0.130659	-0.597817
62431		6.668177	-3.961681	6.011599	0.007763	0.009187	-0.004112	-0.266846	0.459961	-0.230225	0.671425	-0.418027	-0.130643	-0.597808
62432		6.667853	-3.982475	5.984809	0.007727	0.008614	-0.004887	-0.275391	0.451904	-0.230225	0.671510	-0.417937	-0.130654	-0.597773
62433		6.656786	-3.969285	5.999669	0.007802	0.009758	-0.003338	-0.274902	0.457275	-0.232910	0.671529	-0.417831	-0.130673	-0.597822
62434		6.654815	-3.960036	6.025314	0.007425	0.010516	-0.003777	-0.271729	0.451904	-0.225586	0.671565	-0.417722	-0.130682	-0.597855
62435		6.676800	-3.954872	6.008705	0.007459	0.007586	-0.002867	-0.271484	0.458984	-0.239990	0.671592	-0.417651	-0.130694	-0.597872
62436		6.676967	-3.940019	6.014365	0.006507	0.009221	-0.000173	-0.279785	0.457520	-0.227051	0.671696	-0.417526	-0.130713	-0.597838
62437		6.695823	-3.955294	6.013005	0.005476	0.006208	0.001109	-0.269775	0.463623	-0.230713	0.671683	-0.417490	-0.130695	-0.597882
62438		6.655936	-3.945507	5.991060	0.004523	0.007843	0.003803	-0.274902	0.450928	-0.235596	0.671779	-0.417444	-0.130654	-0.597816
62439		6.653225	-3.973502	5.983514	0.004933	0.004155	0.005152	-0.271729	0.452393	-0.231201	0.671844	-0.417365	-0.130679	-0.597792
62440		6.639980	-3.967376	6.017366	0.005961	0.003665	0.004007	-0.278320	0.452881	-0.231201	0.671915	-0.417306	-0.130698	-0.597750
62441		6.660846	-3.955334	6.023892	0.001666	0.002762	0.004714	-0.273926	0.457275	-0.234375	0.671921	-0.417282	-0.130693	-0.597760
62442		6.647893	-3.971796	6.029148	-0.000117	0.004768	0.004982	-0.276123	0.455811	-0.228027	0.671977	-0.417250	-0.130669	-0.597725
62443		6.651426	-3.960630	5.990047	0.001395	0.001735	0.006736	-0.264648	0.454346	-0.227051	0.671998	-0.417256	-0.130644	-0.597702
62444		6.657596	-3.948768	6.049141	-0.000568	0.004380	0.002995	-0.281006	0.462891	-0.218994	0.672082	-0.417249	-0.130615	-0.597620
62445		6.658070	-3.957276	6.025685	0.000571	0.005608	0.004173	-0.276611	0.455811	-0.226807	0.672022	-0.417301	-0.130519	-0.597671
62446		6.647215	-3.967876	6.011203	-0.001255	0.003540	0.003803	-0.266357	0.454590	-0.232666	0.672013	-0.417316	-0.130477	-0.597680
62447		6.625191	-3.980463	6.005579	-0.002085	0.003910	0.001378	-0.274414	0.453125	-0.226807	0.672092	-0.417292	-0.130467	-0.597611
62448		6.663792	-3.990319	6.028923	-0.002537	0.003523	-0.000610	-0.272705	0.452393	-0.230957	0.672070	-0.417301	-0.130443	-0.597634
62449		6.649054	-3.948735	5.996572	-0.000822	0.003873	-0.002563	-0.269775	0.456543	-0.235596	0.672075	-0.417274	-0.130451	-0.597646
62450		6.643656	-3.974250	6.032201	0.001034	0.003012	-0.001282	-0.273926	0.459229	-0.228027	0.672137	-0.417227	-0.130475	-0.597603
62451		6.632133	-3.976073	6.041555	-0.001924	0.003218	-0.002967	-0.273682	0.465332	-0.228760	0.672117	-0.417241	-0.130450	-0.597621
62452		6.653834	-3.985981	6.019347	-0.002234	0.001619	-0.001720	-0.273682	0.457031	-0.229004	0.672110	-0.417275	-0.130414	-0.597613
62453		6.655553	-3.957879	6.028069	-0.001237	0.004058	-0.003776	-0.267578	0.455811	-0.227295	0.672094	-0.417269	-0.130402	-0.597638
62454		6.646227	-3.953754	6.017653	-0.002338	0.003403	-0.004181	-0.272705	0.458496	-0.227783	0.672111	-0.417273	-0.130389	-0.597619
62455		6.655352	-3.957361	6.028631	-0.000859	0.003300	-0.003338	-0.268311	0.461670	-0.225342	0.672101	-0.417278	-0.130373	-0.597630
62456		6.644864	-3.967279	6.014196	-0.000400	0.007189	-0.001488	-0.269775	0.455078	-0.240479	0.672131	-0.417279	-0.130314	-0.597609
62457		6.645484	-3.975369	5.990873	0.001561	0.004544	0.002254	-0.271240	0.449463	-0.231445	0.672231	-0.417199	-0.130341	-0.597546
62458		6.672452	-3.987167	6.023618	0.000533	0.005034	0.003399	-0.272461	0.454834	-0.227783	0.672281	-0.417156	-0.130338	-0.597521
62459		6.641938	-3.981648	6.011909	0.000430	0.006818	0.000938	-0.267334	0.457031	-0.229492	0.672298	-0.417133	-0.130303	-0.597526
62460		6.652122	-3.957991	6.031782	-0.003000	0.006117	0.004843	-0.278809	0.454346	-0.224365	0.672370	-0.417130	-0.130246	-0.597459
62461		6.640879	-3.946937	6.045351	-0.004450	0.003291	0.004912	-0.269043	0.458496	-0.225586	0.672320	-0.417176	-0.130177	-0.597498
62462		6.651441	-3.946292	6.036301	-0.008634	0.004106	0.007939	-0.267334	0.453613	-0.229248	0.672355	-0.417241	-0.130072	-0.597436
62463		6.649541	-3.962270	6.031819	-0.009557	0.002811	0.011542	-0.271729	0.451904	-0.232422	0.672430	-0.417291	-0.129986	-0.597336
62464		6.669013	-3.966749	6.032990	-0.010376	-0.000269	0.017605	-0.273438	0.450684	-0.230225	0.672506	-0.417352	-0.129907	-0.597225
62465		6.649354	-3.984412	5.982805	-0.011928	0.005170	0.022517	-0.264648	0.453369	-0.230713	0.672582	-0.417408	-0.129767	-0.597131
62466		6.645103	-3.971589	6.030580	-0.008091	0.002182	0.019961	-0.268066	0.462891	-0.234131	0.672728	-0.417451	-0.129673	-0.596956
62467		6.630309	-4.004873	6.030598	-0.012345	0.001852	0.021437	-0.266357	0.461426	-0.226807	0.672858	-0.417529	-0.129540	-0.596783
62468		6.643234	-3.986339	6.005581	-0.009187	0.001525	0.019553	-0.269287	0.453125	-0.229980	0.672969	-0.417619	-0.129409	-0.596624
62469		6.641542	-3.989377	6.005436	-0.008446	0.006438	0.019383	-0.270508	0.456787	-0.231934	0.673069	-0.417648	-0.129286	-0.596518
62470		6.639756	-3.992165	6.005557	-0.007871	0.005563	0.016252	-0.271973	0.458740	-0.233643	0.673155	-0.417675	-0.129179	-0.596425
62471		6.613440	-4.026512	6.015302	-0.005014	0.007137	0.015480	-0.270020	0.455566	-0.224121	0.673244	-0.417674	-0.129080	-0.596346
62472		6.613130	-4.036496	5.991693	-0.005270	0.006638	0.009924	-0.260498	0.452148	-0.223389	0.673275	-0.417707	-0.128976	-0.596311
62473		6.611555	-4.015728	6.020567	-0.001803	0.007910	0.006797	-0.266846	0.459961	-0.229248	0.673373	-0.417699	-0.128908	-0.596220
62474		6.628871	-4.024316	6.042654	-0.002333	0.006383	0.003261	-0.270264	0.459473	-0.229736	0.673431	-0.417693	-0.128855	-0.596171
62475		6.632350	-4.012763	6.003996	0.002650	0.008121	0.001754	-0.264404	0.467285	-0.232178	0.673473	-0.417648	-0.128822	-0.596162
62476		6.609878	-4.002647	6.027141	0.000328	0.005101	-0.001380	-0.273682	0.456299	-0.227295	0.673553	-0.417629	-0.128801	-0.596090
62477		6.628016	-4.032361	6.020950	-0.000383	0.007190	-0.001483	-0.270508	0.461670	-0.224854	0.673525	-0.417610	-0.128764	-0.596143
62478		6.599607	-3.998413	6.017827	-0.000422	0.006619	-0.002258	-0.272217	0.462158	-0.228516	0.673513	-0.417613	-0.128713	-0.596165
62479		6.617381	-4.006017	6.040063	-0.001548	0.008895	-0.003573	-0.268066	0.464355	-0.234619	0.673495	-0.417595	-0.128660	-0.596209
62480		6.617872	-3.991766	6.045033	-0.001977	0.005581	-0.004651	-0.265625	0.460449	-0.224365	0.673527	-0.417569	-0.128647	-0.596194
62481		6.609589	-3.995935	6.010671	-0.006569	0.006585	-0.002842	-0.262451	0.461182	-0.228760	0.673525	-0.417602	-0.128575	-0.596189
62482		6.628725	-4.012016	6.008498	-0.004816	0.007507	-0.004017	-0.267822	0.465332	-0.229492	0.673568	-0.417599	-0.128527	-0.596153
62483		6.618040	-4.022267	5.993977	-0.009921	0.010484	-0.005881	-0.265381	0.459473	-0.228516	0.673553	-0.417616	-0.128432	-0.596178
62484		6.606973	-4.010798	6.007627	-0.011298	0.008802	-0.004268	-0.261719	0.461182	-0.230713	0.673548	-0.417642	-0.128346	-0.596184
62485		6.602751	-4.009276	6.051786	-0.011694	0.012490	-0.005617	-0.265381	0.459961	-0.226562	0.673577	-0.417641	-0.128251	-0.596173
62486		6.603689	-4.039732	5.999919	-0.012220	0.010964	-0.009154	-0.263428	0.454834	-0.224609	0.673540	-0.417665	-0.128159	-0.596218
62487		6.623518	-4.019759	6.030309	-0.012294	0.009821	-0.010704	-0.267090	0.454590	-0.227295	0.673495	-0.417690	-0.128085	-0.596267
62488		6.594414	-4.000142	6.022369	-0.012943	0.009550	-0.009124	-0.274658	0.460449	-0.224854	0.673437	-0.417711	-0.128011	-0.596333
62489		6.616094	-4.010302	6.000113	-0.011893	0.006131	-0.009359	-0.272461	0.456299	-0.233887	0.673317	-0.417771	-0.127934	-0.596443
62490		6.614089	-4.015912	6.019817	-0.006685	0.004831	-0.013521	-0.268555	0.458740	-0.222900	0.673241	-0.417754	-0.127947	-0.596538
62491		6.614509	-4.015092	6.019902	-0.006683	0.004831	-0.013521	-0.262451	0.450684	-0.226562	0.673156	-0.417787	-0.127920	-0.596617
62492		6.623478	-4.031981	6.026196	-0.008345	0.002081	-0.018243	-0.270020	0.456543	-0.233398	0.673093	-0.417801	-0.127954	-0.596671
62493		6.635554	-4.006596	6.045283	-0.006252	0.001676	-0.019753	-0.271973	0.456055	-0.230225	0.673004	-0.417791	-0.128010	-0.596766
62494		6.616632	-4.025340	6.014734	-0.008729	-0.000663	-0.018551	-0.271240	0.467041	-0.226807	0.672883	-0.417821	-0.128050	-0.596873
62495		6.618711	-4.010299	6.018478	-0.010877	0.002099	-0.018726	-0.269775	0.459717	-0.221924	0.672762	-0.417887	-0.128028	-0.596968
62496		6.638859	-4.003053	6.044001	-0.010208	0.005869	-0.020440	-0.268311	0.452393	-0.238525	0.672624	-0.417933	-0.127996	-0.597098
62497		6.621885	-4.015841	5.994039	-0.010314	0.004156	-0.022768	-0.268066	0.458496	-0.225830	0.672544	-0.417897	-0.128060	-0.597199
62498		6.642621	-4.030138	5.991301	-0.009210	0.004809	-0.022361	-0.259766	0.451416	-0.228760	0.672429	-0.417919	-0.128064	-0.597312
62499		6.611866	-3.992720	6.031544	-0.004083	0.008841	-0.020758	-0.273926	0.467529	-0.226074	0.672415	-0.417862	-0.128102	-0.597360
62500		6.622964	-4.003006	6.018655	-0.007247	0.005656	-0.018752	-0.270020	0.457520	-0.232422	0.672294	-0.417894	-0.128074	-0.597480
62501		6.644286	-4.003453	6.020490	-0.006905	0.004327	-0.019090	-0.264648	0.459229	-0.230713	0.672215	-0.417880	-0.128106	-0.597572
62502		6.635742	-3.998426	6.009811	-0.006665	0.004820	-0.013530	-0.263672	0.457764	-0.219727	0.672204	-0.417875	-0.128113	-0.597586
62503		6.636223	-3.997483	6.009907	-0.005635	0.004334	-0.014673	-0.274658	0.457031	-0.229248	0.672154	-0.417910	-0.128097	-0.597622
62504		6.623265	-4.004469	6.038601	-0.004919	0.002247	-0.014573	-0.271484	0.453369	-0.230469	0.672054	-0.417916	-0.128118	-0.597725
62505		6.639866	-3.989390	5.990020	-0.007080	0.001505	-0.014616	-0.268799	0.460449	-0.229492	0.671973	-0.417923	-0.128149	-0.597806
62506		6.636818	-3.986884	6.033542	-0.006399	0.002382	-0.007064	-0.264160	0.458008	-0.225586	0.671959	-0.417945	-0.128137	-0.597807
62507		6.617044	-4.006889	6.003167	-0.005649	0.000866	-0.006187	-0.269775	0.456543	-0.234131	0.671969	-0.417981	-0.128132	-0.597772
62508		6.651044	-3.978508	6.004363	-0.001577	-0.001610	-0.003176	-0.263184	0.454102	-0.228760	0.671993	-0.417974	-0.128177	-0.597740
62509		6.625112	-4.038443	6.004740	-0.001883	0.000289	-0.002062	-0.271729	0.456299	-0.225098	0.672052	-0.417974	-0.128200	-0.597669
62510		6.626912	-4.010551	6.013296	-0.002947	0.000203	-0.001696	-0.271240	0.458252	-0.228760	0.672028	-0.418007	-0.128188	-0.597676
62511		6.617408	-3.984854	6.030668	-0.001447	-0.002828	0.000058	-0.273193	0.455322	-0.225342	0.672037	-0.418036	-0.128205	-0.597642
62512		6.609103	-4.003000	5.991069	-0.001107	-0.004156	-0.000280	-0.267578	0.463379	-0.224854	0.672010	-0.418080	-0.128222	-0.597638
62513		6.646213	-4.018946	6.033315	-0.003513	-0.005359	0.002473	-0.263428	0.456299	-0.227051	0.672042	-0.418159	-0.128215	-0.597548
62514		6.628106	-4.011530	6.011325	0.001910	-0.003218	0.002968	-0.265381	0.461914	-0.226807	0.672130	-0.418171	-0.128250	-0.597433
62515		6.628277	-4.011677	6.011039	0.002660	-0.004734	0.003845	-0.275879	0.464355	-0.229736	0.672214	-0.418201	-0.128280	-0.597311
62516		6.647094	-4.019475	6.031992	0.002896	-0.007774	0.001179	-0.272461	0.456299	-0.227295	0.672214	-0.418242	-0.128329	-0.597272
62517		6.640012	-4.023414	5.996473	0.001798	-0.008430	0.000769	-0.266846	0.462891	-0.228760	0.672212	-0.418284	-0.128388	-0.597232
62518		6.649329	-4.005228	6.035003	0.001021	-0.003985	-0.001013	-0.273926	0.454590	-0.227051	0.672264	-0.418308	-0.128426	-0.597148
62519		6.648779	-4.019144	6.030355	-0.002572	-0.000555	-0.001257	-0.266602	0.462158	-0.224365	0.672231	-0.418332	-0.128426	-0.597169
62520		6.618658	-3.991608	6.046087	-0.001098	-0.000656	-0.000409	-0.262207	0.458496	-0.227539	0.672266	-0.418369	-0.128419	-0.597105
62521		6.631431	-3.997777	6.012805	-0.006513	0.000704	-0.001032	-0.271484	0.461670	-0.231934	0.672322	-0.418406	-0.128403	-0.597020
62522		6.639742	-4.016304	6.018762	-0.006791	-0.000327	0.000987	-0.270752	0.456543	-0.226318	0.672333	-0.418446	-0.128382	-0.596984
62523		6.631951	-4.020911	5.983566	-0.005484	0.000219	-0.002176	-0.270752	0.460693	-0.222900	0.672311	-0.418485	-0.128366	-0.596985
62524		6.649876	-4.007044	6.033194	-0.002912	0.000774	-0.000919	-0.276367	0.449219	-0.228516	0.672299	-0.418529	-0.128336	-0.596974
62525		6.639833	-4.017242	6.018035	-0.003697	0.001719	-0.002571	-0.270508	0.457764	-0.225342	0.672236	-0.418531	-0.128335	-0.597044
62526		6.642095	-4.011186	5.998296	-0.000820	0.000375	-0.002429	-0.267090	0.460205	-0.227783	0.672229	-0.418549	-0.128337	-0.597038
62527		6.649257	-4.021093	6.028529	-0.003670	-0.001211	-0.001666	-0.277588	0.463867	-0.221680	0.672254	-0.418583	-0.128341	-0.596985
62528		6.640168	-4.017298	6.017629	-0.002224	0.001617	-0.001724	-0.270996	0.459229	-0.228271	0.672187	-0.418634	-0.128292	-0.597036
62529		6.608207	-4.017571	6.024900	-0.000785	0.000945	-0.001653	-0.263916	0.457520	-0.222656	0.672195	-0.418639	-0.128297	-0.597022
62530		6.631921	-3.999207	6.011313	-0.001229	0.000563	-0.003643	-0.271484	0.458740	-0.228027	0.672221	-0.418663	-0.128300	-0.596975
62531		6.630324	-4.026958	6.002609	-0.002633	0.001805	-0.002938	-0.269287	0.457764	-0.227295	0.672212	-0.418673	-0.128294	-0.596979
62532		6.649710	-4.020465	6.028448	-0.000985	0.001024	-0.006439	-0.266602	0.460693	-0.223389	0.672203	-0.418674	-0.128315	-0.596984
62533		6.642961	-4.010099	5.998063	-0.001604	0.001320	-0.004082	-0.280029	0.464355	-0.233154	0.672213	-0.418700	-0.128307	-0.596957
62534		6.643017	-4.009691	5.998275	-0.000193	0.003579	-0.004915	-0.268799	0.461670	-0.240234	0.672167	-0.418681	-0.128307	-0.597022
62535		6.629895	-4.039194	5.998954	-0.000568	0.004336	-0.005353	-0.266602	0.459961	-0.229248	0.672227	-0.418619	-0.128348	-0.596988
62536		6.633885	-4.004680	5.988235	-0.001359	0.001781	-0.006878	-0.264404	0.449463	-0.229736	0.672247	-0.418614	-0.128371	-0.596966
62537		6.643194	-4.007778	5.999357	0.002623	0.004595	-0.006454	-0.277100	0.466309	-0.227783	0.672290	-0.418549	-0.128422	-0.596951
62538		6.619645	-4.025357	6.013297	-0.003451	0.002178	-0.005368	-0.270020	0.466064	-0.226807	0.672233	-0.418579	-0.128395	-0.597000
62539		6.650246	-4.016604	6.030430	0.000121	0.005180	-0.006159	-0.270508	0.455566	-0.222656	0.672237	-0.418572	-0.128379	-0.597004
62540		6.642511	-4.020047	5.995963	-0.000573	0.000836	-0.005225	-0.276123	0.462402	-0.224365	0.672206	-0.418589	-0.128385	-0.597026
62541		6.630452	-4.035505	6.000821	-0.001385	0.004710	-0.007784	-0.270996	0.460449	-0.232666	0.672136	-0.418598	-0.128359	-0.597103
62542		6.632261	-4.006883	6.009842	0.000116	0.001680	-0.006030	-0.275146	0.465332	-0.231201	0.672146	-0.418576	-0.128393	-0.597101
62543		6.633046	-4.028060	5.981650	-0.000668	0.002624	-0.007684	-0.273438	0.459473	-0.229248	0.672114	-0.418569	-0.128402	-0.597139
62544		6.634910	-3.999322	5.990680	0.000430	0.003281	-0.007274	-0.269531	0.461670	-0.225830	0.672089	-0.418549	-0.128419	-0.597178
62545		6.643515	-4.016392	5.997300	-0.001765	0.001967	-0.008094	-0.266113	0.461182	-0.231445	0.672068	-0.418562	-0.128423	-0.597192
62546		6.632499	-4.017804	6.006340	-0.001389	0.001209	-0.007656	-0.266357	0.457031	-0.224121	0.672096	-0.418552	-0.128458	-0.597159
62547		6.620110	-4.011429	6.039325	-0.003516	0.001035	-0.006923	-0.274658	0.456299	-0.227783	0.672087	-0.418578	-0.128462	-0.597151
62548		6.633266	-4.016762	6.006190	-0.002077	0.000364	-0.006851	-0.274658	0.461670	-0.229004	0.672034	-0.418587	-0.128481	-0.597199
62549		6.637505	-3.982265	5.995137	-0.002452	0.001122	-0.007290	-0.273682	0.454102	-0.239014	0.671990	-0.418599	-0.128490	-0.597239
62550		6.637051	-3.995738	5.990700	-0.003515	0.001034	-0.006924	-0.276123	0.462158	-0.229736	0.671983	-0.418565	-0.128545	-0.597260
62551		6.645916	-4.013020	5.996897	-0.002142	-0.000777	-0.008405	-0.271729	0.460449	-0.232178	0.671925	-0.418583	-0.128569	-0.597307
62552		6.617402	-3.992872	5.988665	-0.002009	0.001505	-0.005299	-0.270264	0.452881	-0.215088	0.671926	-0.418577	-0.128588	-0.597306
62553		6.626966	-3.996534	5.999125	-0.003765	-0.002927	-0.003999	-0.272949	0.450439	-0.223145	0.671859	-0.418656	-0.128573	-0.597329
62554		6.614527	-4.026230	5.998987	0.000114	-0.001820	-0.005903	-0.269775	0.464355	-0.228760	0.671809	-0.418670	-0.128611	-0.597367
62555		6.647842	-4.011226	5.995962	-0.002108	-0.000207	-0.007629	-0.267822	0.457520	-0.222656	0.671801	-0.418690	-0.128628	-0.597358
62556		6.627797	-4.008902	5.994012	-0.001324	-0.001151	-0.005975	-0.274414	0.447510	-0.225098	0.671788	-0.418722	-0.128644	-0.597347
62557		6.658143	-4.013962	6.006223	-0.000982	-0.002478	-0.006314	-0.264404	0.454346	-0.225830	0.671728	-0.418733	-0.128694	-0.597396
62558		6.627780	-3.999724	6.017390	-0.001047	-0.003619	-0.007868	-0.273438	0.453613	-0.230957	0.671741	-0.418752	-0.128757	-0.597354
62559		6.619331	-3.995077	6.006356	-0.000668	-0.000877	-0.007557	-0.270020	0.464844	-0.225830	0.671715	-0.418740	-0.128814	-0.597380
62560		6.636788	-4.029809	6.018965	0.001802	-0.002029	-0.008629	-0.272217	0.464355	-0.233643	0.671702	-0.418759	-0.128853	-0.597373
62561		6.622119	-4.001020	5.982076	0.002619	-0.002402	-0.006199	-0.258545	0.456543	-0.233643	0.671720	-0.418746	-0.128918	-0.597347
62562		6.621256	-4.027868	5.973257	0.005873	-0.004498	-0.005617	-0.269775	0.466064	-0.226562	0.671846	-0.418705	-0.129047	-0.597207
62563		6.643103	-3.992347	6.007541	0.007966	-0.008393	-0.007000	-0.270508	0.462158	-0.228760	0.671865	-0.418721	-0.129148	-0.597152
62564		6.652946	-4.008684	6.013305	0.006526	-0.011225	-0.006943	-0.267090	0.464844	-0.226807	0.671875	-0.418745	-0.129274	-0.597097
62565		6.649003	-4.005023	5.958084	0.007430	-0.010491	-0.011323	-0.268555	0.457520	-0.227539	0.671889	-0.418765	-0.129407	-0.597038
62566		6.655019	-3.997111	6.035961	0.003767	-0.008210	-0.013120	-0.264648	0.460693	-0.221924	0.671868	-0.418778	-0.129531	-0.597026
62567		6.657218	-4.017091	6.007049	0.003328	-0.005096	-0.015242	-0.274170	0.458252	-0.226562	0.671851	-0.418800	-0.129623	-0.597010
62568		6.638949	-3.999340	6.009374	0.002169	-0.003397	-0.017334	-0.276367	0.459229	-0.227539	0.671766	-0.418801	-0.129714	-0.597085
62569		6.651090	-4.008873	5.995831	0.005051	-0.004734	-0.017193	-0.274170	0.463135	-0.228027	0.671681	-0.418791	-0.129824	-0.597163
62570		6.655621	-3.986342	5.980414	0.004579	-0.002191	-0.020092	-0.268799	0.456299	-0.226074	0.671606	-0.418773	-0.129926	-0.597239
62571		6.655513	-4.011672	5.971842	0.004645	-0.001050	-0.018539	-0.271484	0.457031	-0.221680	0.671565	-0.418743	-0.130030	-0.597283
62572		6.666964	-3.998576	5.987272	0.009528	-0.000994	-0.022370	-0.270508	0.458252	-0.229004	0.671488	-0.418700	-0.130150	-0.597374
62573		6.647289	-3.971735	6.014409	0.007435	-0.000601	-0.020860	-0.260742	0.455078	-0.225098	0.671448	-0.418644	-0.130278	-0.597430
62574		6.682725	-3.962297	5.987888	0.008661	-0.001157	-0.017214	-0.275635	0.455566	-0.227783	0.671483	-0.418591	-0.130407	-0.597399
62575		6.689943	-3.983703	6.014552	0.008571	0.001241	-0.010531	-0.271484	0.460693	-0.226807	0.671457	-0.418533	-0.130487	-0.597451
62576		6.651296	-3.972522	5.992204	0.008696	0.003527	-0.007424	-0.276123	0.457031	-0.229492	0.671483	-0.418478	-0.130536	-0.597451
62577		6.667994	-3.984434	6.034057	0.006790	-0.000265	-0.010135	-0.273193	0.456787	-0.227051	0.671456	-0.418435	-0.130616	-0.597493
62578		6.650311	-3.975418	6.012683	0.003762	-0.004675	-0.004887	-0.275146	0.447021	-0.230713	0.671452	-0.418444	-0.130683	-0.597476
62579		6.663895	-3.980172	5.979417	0.004419	-0.004402	-0.006470	-0.268066	0.458740	-0.233398	0.671433	-0.418417	-0.130786	-0.597495
62580		6.683074	-3.986661	6.000805	0.005168	-0.002413	-0.005723	-0.276855	0.456055	-0.227051	0.671497	-0.418383	-0.130878	-0.597427
62581		6.643305	-3.968328	6.001672	0.004482	-0.003259	-0.004917	-0.269775	0.454346	-0.226074	0.671469	-0.418383	-0.130936	-0.597445
62582		6.643809	-3.967560	6.001622	0.002037	-0.001537	-0.003066	-0.272949	0.462646	-0.227295	0.671491	-0.418386	-0.130976	-0.597409
62583		6.685361	-3.970402	6.004942	-0.000123	-0.002288	-0.003107	-0.270508	0.457031	-0.228027	0.671495	-0.418417	-0.130994	-0.597379
62584		6.665023	-3.968396	6.003183	0.001344	0.001118	-0.002391	-0.272217	0.454102	-0.218994	0.671526	-0.418410	-0.131014	-0.597345
62585		6.658790	-3.944393	5.977108	-0.001503	-0.000477	-0.001625	-0.269287	0.464844	-0.226807	0.671499	-0.418456	-0.130997	-0.597347
62586		6.665294	-3.968025	6.003127	-0.001224	0.000552	-0.003647	-0.275635	0.461426	-0.235840	0.671526	-0.418483	-0.130994	-0.597299
62587		6.665310	-3.967961	6.003152	-0.004046	0.003029	-0.002236	-0.267822	0.457520	-0.230225	0.671538	-0.418478	-0.130989	-0.597290
62588		6.665318	-3.967951	6.003150	-0.000438	-0.000388	-0.001993	-0.273682	0.450195	-0.225586	0.671590	-0.418479	-0.131019	-0.597224
62589		6.656152	-3.964134	5.992366	-0.003291	0.001517	-0.001358	-0.274170	0.453369	-0.219482	0.671570	-0.418496	-0.131009	-0.597237
62590		6.678645	-3.995824	5.941727	-0.002574	0.002934	-0.001388	-0.275146	0.458008	-0.224121	0.671531	-0.418529	-0.130967	-0.597266
62591		6.664263	-3.981989	5.999117	0.000650	0.003774	-0.001714	-0.270508	0.455322	-0.228516	0.671519	-0.418531	-0.130945	-0.597284
62592		6.662578	-3.973984	6.023505	-0.002543	0.003506	-0.000611	-0.265137	0.457275	-0.228516	0.671547	-0.418530	-0.130932	-0.597255
62593		6.670648	-3.991691	6.030398	0.000613	0.006702	-0.002622	-0.270508	0.461670	-0.233643	0.671620	-0.418494	-0.130928	-0.597199
62594		6.663256	-3.981905	6.000292	-0.003948	0.001243	0.000225	-0.270996	0.458252	-0.229004	0.671670	-0.418506	-0.130925	-0.597135
62595		6.666026	-3.962333	5.984778	-0.001721	-0.000363	0.001951	-0.276855	0.455811	-0.227295	0.671710	-0.418527	-0.130924	-0.597076
62596		6.653088	-3.992872	5.984921	-0.003570	0.000487	0.000664	-0.266602	0.451904	-0.222412	0.671687	-0.418557	-0.130903	-0.597086
62597		6.650951	-3.999050	6.004506	-0.000030	-0.000572	-0.000777	-0.261475	0.457031	-0.235352	0.671719	-0.418576	-0.130916	-0.597033
62598		6.652707	-3.970899	6.013018	-0.000121	-0.002287	-0.003108	-0.276855	0.456787	-0.221924	0.671828	-0.418561	-0.130992	-0.596904
62599		6.650937	-3.976709	6.032445	-0.003005	-0.000955	-0.003250	-0.272949	0.462891	-0.220215	0.671766	-0.418612	-0.130975	-0.596942
62600		6.666909	-3.962528	5.983666	-0.003692	-0.001800	-0.002444	-0.270752	0.456543	-0.231445	0.671734	-0.418687	-0.130946	-0.596932
62601		6.663683	-3.996307	5.994370	-0.000906	-0.001347	-0.004763	-0.274658	0.455322	-0.230469	0.671751	-0.418688	-0.130991	-0.596903
62602		6.664711	-3.981817	5.998734	0.000152	0.002243	-0.005261	-0.272705	0.455078	-0.228271	0.671740	-0.418668	-0.131015	-0.596923
62603		6.655119	-3.991190	5.983783	0.002257	-0.001650	-0.006643	-0.267822	0.454834	-0.231934	0.671732	-0.418660	-0.131072	-0.596926
62604		6.655502	-3.990283	5.983963	0.000432	0.003272	-0.007284	-0.273193	0.458252	-0.226562	0.671767	-0.418622	-0.131116	-0.596903
62605		6.652940	-3.973342	6.032456	0.001059	0.002973	-0.009645	-0.273926	0.456543	-0.228271	0.671739	-0.418607	-0.131139	-0.596940
62606		6.653623	-3.972180	6.032468	0.001075	-0.004028	-0.009384	-0.274414	0.458008	-0.226807	0.671703	-0.418619	-0.131208	-0.596957
62607		6.655909	-3.979220	6.008058	-0.001371	-0.002308	-0.007534	-0.273193	0.454590	-0.219727	0.671663	-0.418646	-0.131240	-0.596976
62608		6.680763	-3.982088	5.965691	-0.001371	-0.002308	-0.007534	-0.266602	0.464844	-0.229492	0.671601	-0.418692	-0.131255	-0.597011
62609		6.680023	-3.973312	5.989535	0.000411	-0.000801	-0.007932	-0.274170	0.458740	-0.228027	0.671640	-0.418698	-0.131299	-0.596952
62610		6.667153	-3.980473	6.018235	0.000691	0.000228	-0.009955	-0.265137	0.461670	-0.227783	0.671607	-0.418695	-0.131340	-0.596983
62611		6.680297	-3.949558	6.018055	-0.000505	0.001968	-0.003678	-0.268311	0.458252	-0.225586	0.671669	-0.418698	-0.131352	-0.596909
62612		6.680411	-3.984870	5.985559	0.001188	0.001760	-0.006407	-0.278320	0.452637	-0.225586	0.671688	-0.418693	-0.131376	-0.596885
62613		6.689528	-3.988183	5.996731	-0.001926	0.006705	-0.003103	-0.263672	0.450439	-0.223877	0.671641	-0.418680	-0.131339	-0.596955
62614		6.669202	-3.972436	5.999961	-0.000077	0.005857	-0.001815	-0.275391	0.458984	-0.224365	0.671702	-0.418657	-0.131333	-0.596905
62615		6.666521	-3.978289	6.020379	-0.000425	0.007184	-0.001477	-0.273438	0.449707	-0.230225	0.671692	-0.418648	-0.131284	-0.596932
62616		6.667477	-3.986078	5.996962	-0.001577	0.005378	-0.003441	-0.274170	0.463135	-0.239990	0.671691	-0.418616	-0.131286	-0.596955
62617		6.656632	-3.974415	6.010437	-0.003571	0.000484	0.000664	-0.272705	0.455566	-0.224121	0.671744	-0.418612	-0.131302	-0.596894
62618		6.669272	-3.944811	6.009949	-0.004606	0.000966	0.001808	-0.272217	0.454102	-0.232422	0.671743	-0.418656	-0.131265	-0.596874
62619		6.656284	-3.975608	6.010033	-0.002380	-0.000638	0.003535	-0.271240	0.454102	-0.224609	0.671788	-0.418664	-0.131274	-0.596814
62620		6.667992	-3.960533	6.005079	-0.005766	-0.000223	0.008992	-0.270264	0.460938	-0.225586	0.671827	-0.418723	-0.131219	-0.596742
62621		6.668121	-3.984034	5.976278	-0.005765	-0.000223	0.008992	-0.274170	0.457275	-0.232422	0.671884	-0.418789	-0.131159	-0.596645
62622		6.677534	-3.975256	5.991020	-0.004042	0.000141	0.007041	-0.274902	0.457031	-0.228760	0.671930	-0.418812	-0.131135	-0.596581
62623		6.657021	-3.996957	5.960650	-0.004640	0.001010	0.010179	-0.273193	0.455811	-0.231445	0.671971	-0.418851	-0.131079	-0.596520
62624		6.676115	-3.978164	5.990671	-0.003952	0.001855	0.009372	-0.269287	0.461182	-0.228516	0.672032	-0.418869	-0.131039	-0.596448
62625		6.653102	-3.970334	6.012955	-0.003735	0.002356	0.014942	-0.274658	0.459229	-0.225586	0.672144	-0.418906	-0.130966	-0.596312
62626		6.681638	-3.978087	6.025298	-0.006142	0.001145	0.017698	-0.269531	0.454590	-0.230713	0.672208	-0.418975	-0.130860	-0.596215
62627		6.690099	-4.006339	6.007544	-0.004706	0.003979	0.017639	-0.270020	0.458740	-0.234619	0.672328	-0.418994	-0.130782	-0.596083
62628		6.679227	-4.005055	5.996969	-0.006114	0.005215	0.018344	-0.271484	0.460449	-0.224854	0.672464	-0.419008	-0.130694	-0.595940
62629		6.655338	-4.034054	5.986728	-0.008306	0.007392	0.017394	-0.269287	0.452881	-0.229248	0.672542	-0.419061	-0.130545	-0.595847
62630		6.665684	-3.984746	6.015108	-0.008334	0.006820	0.016615	-0.271729	0.460693	-0.238770	0.672638	-0.419086	-0.130433	-0.595745
62631		6.643195	-4.021756	5.980744	-0.008988	0.006545	0.018197	-0.269043	0.459961	-0.225830	0.672765	-0.419099	-0.130332	-0.595615
62632		6.653344	-4.008395	5.976459	-0.007956	0.009562	0.016923	-0.273926	0.465576	-0.231689	0.672861	-0.419132	-0.130183	-0.595515
62633		6.617150	-4.017692	6.003820	-0.008641	0.008715	0.017727	-0.272705	0.462646	-0.224609	0.672950	-0.419166	-0.130036	-0.595423
62634		6.639949	-4.009922	5.966787	-0.006167	0.011065	0.016526	-0.266113	0.468506	-0.226807	0.673022	-0.419191	-0.129874	-0.595359
62635		6.611300	-4.050391	5.996653	-0.001909	0.011421	0.015060	-0.269287	0.460205	-0.220947	0.673163	-0.419187	-0.129747	-0.595231
62636		6.600869	-4.033990	5.991537	0.001502	0.011577	0.010385	-0.273438	0.455811	-0.223877	0.673237	-0.419166	-0.129638	-0.595185
62637		6.619010	-4.014674	6.023093	0.002912	0.010339	0.009680	-0.265381	0.451172	-0.229980	0.673286	-0.419128	-0.129555	-0.595174
62638		6.630974	-4.042896	5.962931	0.003883	0.008715	0.006982	-0.266846	0.457520	-0.229980	0.673396	-0.419058	-0.129538	-0.595104
62639		6.629006	-4.021343	5.992574	0.003477	0.008901	0.005766	-0.265137	0.457275	-0.228516	0.673494	-0.418999	-0.129509	-0.595040
62640		6.635378	-4.053369	5.995832	0.002695	0.009843	0.004111	-0.271484	0.466064	-0.233154	0.673588	-0.418942	-0.129475	-0.594982
62641		6.622993	-4.055363	6.006003	0.004291	0.007923	-0.000945	-0.269775	0.463867	-0.223633	0.673642	-0.418882	-0.129468	-0.594965
62642		6.614112	-4.037149	6.000404	0.001034	0.003017	-0.001272	-0.272217	0.458496	-0.223877	0.673652	-0.418892	-0.129446	-0.594951
62643		6.644405	-4.028366	6.017801	0.000942	0.004804	-0.003732	-0.267334	0.461182	-0.228760	0.673628	-0.418883	-0.129427	-0.594988
62644		6.614545	-4.022128	6.005847	0.003789	0.002898	-0.004362	-0.261230	0.470215	-0.235107	0.673664	-0.418852	-0.129456	-0.594963
62645		6.645718	-4.034747	5.994936	0.003415	0.003654	-0.004801	-0.267822	0.452393	-0.231934	0.673772	-0.418810	-0.129500	-0.594860
62646		6.613628	-4.034443	6.002757	0.003852	0.004039	-0.002809	-0.270508	0.457520	-0.230225	0.673812	-0.418752	-0.129539	-0.594848
62647		6.625594	-4.017641	5.998828	0.002382	0.004136	-0.003659	-0.268555	0.458984	-0.227783	0.673824	-0.418715	-0.129556	-0.594856
62648		6.625394	-4.017067	5.999433	0.000943	0.004804	-0.003733	-0.266357	0.455078	-0.223877	0.673839	-0.418693	-0.129555	-0.594855
62649		6.645616	-4.018176	6.002004	0.002759	0.006879	-0.003350	-0.272217	0.461426	-0.236084	0.673861	-0.418656	-0.129546	-0.594858
62650		6.613118	-4.018408	6.009907	-0.000311	0.005397	0.000984	-0.271973	0.449219	-0.236816	0.673902	-0.418622	-0.129537	-0.594838
62651		6.623805	-4.016591	6.001506	-0.000157	0.004751	0.004998	-0.266602	0.467529	-0.222900	0.673949	-0.418573	-0.129538	-0.594819
62652		6.641299	-4.024808	6.023608	-0.001687	0.007205	0.002464	-0.263428	0.460693	-0.222900	0.673995	-0.418589	-0.129463	-0.594771
62653		6.623452	-4.025563	5.978769	-0.001250	0.007590	0.004456	-0.277832	0.455322	-0.231689	0.674065	-0.418591	-0.129397	-0.594705
62654		6.627101	-4.042089	6.029665	-0.001249	0.007590	0.004456	-0.269531	0.453125	-0.228760	0.674057	-0.418562	-0.129340	-0.594747
62655		6.617674	-4.024968	6.023925	-0.001564	0.005989	0.005700	-0.270996	0.460693	-0.228027	0.674096	-0.418547	-0.129296	-0.594722
62656		6.628739	-4.009780	6.019927	-0.002565	0.007041	0.007619	-0.268311	0.459717	-0.230713	0.674140	-0.418550	-0.129218	-0.594689
62657		6.648820	-4.034686	5.993774	-0.003165	0.004409	0.010883	-0.267090	0.463623	-0.233154	0.674221	-0.418560	-0.129156	-0.594603
62658		6.634557	-4.030712	6.027089	-0.001103	0.004050	0.017740	-0.262939	0.456543	-0.228271	0.674364	-0.418566	-0.129088	-0.594451
62659		6.613779	-4.039572	6.001304	-0.008146	0.003245	0.021511	-0.262695	0.463867	-0.225586	0.674501	-0.418623	-0.128977	-0.594279
62660		6.601272	-4.066372	5.981944	-0.004724	0.006897	0.016711	-0.265137	0.458740	-0.228760	0.674631	-0.418657	-0.128861	-0.594133
62661		6.609562	-4.058195	5.997586	-0.002779	0.007149	0.011190	-0.268311	0.457764	-0.227295	0.674726	-0.418655	-0.128784	-0.594043
62662		6.610570	-4.017746	6.011188	-0.002468	0.005252	0.010076	-0.268311	0.465332	-0.229492	0.674785	-0.418664	-0.128713	-0.593985
62663		6.616324	-4.029352	6.041757	-0.007072	0.002728	0.012002	-0.260010	0.462402	-0.225098	0.674851	-0.418719	-0.128625	-0.593891
62664		6.596949	-4.023752	6.019969	-0.006982	0.000940	0.014461	-0.263184	0.456299	-0.232666	0.674966	-0.418790	-0.128544	-0.593727
62665		6.612047	-4.040279	6.060387	-0.011529	-0.003942	0.018068	-0.262939	0.465088	-0.232666	0.675072	-0.418882	-0.128483	-0.593555
62666		6.614786	-4.081157	5.982666	-0.014117	-0.001573	0.015897	-0.262451	0.465088	-0.227783	0.675175	-0.418988	-0.128393	-0.593383
62667		6.613424	-4.061963	6.010049	-0.008519	-0.003602	0.012183	-0.266357	0.470215	-0.228027	0.675263	-0.419083	-0.128341	-0.593227
62668		6.601393	-4.066397	6.018112	-0.011043	-0.000092	0.011567	-0.263428	0.460449	-0.230713	0.675324	-0.419181	-0.128246	-0.593108
62669		6.612820	-4.052599	6.012875	-0.010351	0.000752	0.010763	-0.270996	0.463135	-0.230713	0.675396	-0.419247	-0.128178	-0.592994
62670		6.602986	-4.051188	6.001193	-0.013144	-0.003197	0.013199	-0.257324	0.458008	-0.233887	0.675417	-0.419358	-0.128091	-0.592911
62671		6.579469	-4.094077	5.984897	-0.014238	-0.003855	0.012785	-0.259033	0.457764	-0.226318	0.675528	-0.419454	-0.128049	-0.592726
62672		6.579138	-4.096604	5.983533	-0.010739	-0.005489	0.010577	-0.262207	0.466553	-0.226807	0.675601	-0.419560	-0.128012	-0.592576
62673		6.580512	-4.070838	5.991138	-0.011167	-0.002372	0.008457	-0.266846	0.462158	-0.228516	0.675661	-0.419661	-0.127952	-0.592448
62674		6.611268	-4.086131	5.978909	-0.006563	0.000149	0.006535	-0.262207	0.459229	-0.224609	0.675693	-0.419713	-0.127905	-0.592385
62675		6.588146	-4.091893	5.996088	-0.009479	-0.002578	0.005735	-0.261475	0.458496	-0.235352	0.675723	-0.419800	-0.127862	-0.592299
62676		6.587162	-4.107261	5.990900	-0.008098	-0.000888	0.004129	-0.265137	0.460449	-0.221924	0.675787	-0.419834	-0.127859	-0.592202
62677		6.620929	-4.079895	5.991807	-0.008015	-0.003268	-0.002551	-0.261719	0.467285	-0.226074	0.675753	-0.419918	-0.127840	-0.592186
62678		6.609034	-4.096427	5.995664	-0.006941	0.000318	-0.003040	-0.270752	0.460449	-0.224609	0.675776	-0.419971	-0.127826	-0.592124
62679		6.601788	-4.064853	5.993265	-0.005538	-0.000921	-0.003743	-0.268799	0.465332	-0.232666	0.675715	-0.420022	-0.127806	-0.592163
62680		6.599665	-4.107111	5.979398	-0.007574	-0.002889	-0.000559	-0.265137	0.461182	-0.213623	0.675710	-0.420078	-0.127805	-0.592129
62681		6.599937	-4.107600	5.978763	-0.002882	-0.002159	-0.000023	-0.265869	0.463623	-0.215332	0.675684	-0.420154	-0.127770	-0.592112
62682		6.590966	-4.104093	5.967532	-0.005381	-0.001576	0.000267	-0.261963	0.467041	-0.222900	0.675656	-0.420240	-0.127720	-0.592093
62683		6.588806	-4.110413	5.986930	-0.000407	0.000189	-0.001215	-0.270020	0.461182	-0.219238	0.675697	-0.420267	-0.127720	-0.592027
62684		6.609722	-4.111770	5.988640	-0.000290	-0.001620	-0.007119	-0.268066	0.460449	-0.228027	0.675630	-0.420303	-0.127728	-0.592077
62685		6.601288	-4.071538	6.010593	-0.000507	-0.001517	-0.003547	-0.261230	0.459229	-0.224121	0.675619	-0.420315	-0.127756	-0.592075
62686		6.600101	-4.099049	6.001544	-0.000540	-0.002086	-0.004324	-0.271973	0.462891	-0.228271	0.675635	-0.420337	-0.127791	-0.592033
62687		6.612907	-4.082716	5.996540	-0.003015	-0.004434	-0.003133	-0.262939	0.459717	-0.223877	0.675593	-0.420382	-0.127813	-0.592045
62688		6.591325	-4.108777	5.985279	-0.003761	-0.002919	-0.004009	-0.261475	0.461670	-0.219727	0.675588	-0.420428	-0.127831	-0.592014
62689		6.593677	-4.080750	5.993397	-0.003081	-0.005572	-0.004687	-0.256104	0.468018	-0.223389	0.675579	-0.420497	-0.127857	-0.591969
62690		6.603670	-4.084164	6.003565	0.000050	-0.002947	-0.007459	-0.265381	0.467041	-0.234131	0.675629	-0.420528	-0.127910	-0.591879
62691		6.616683	-4.067552	5.998511	-0.005669	-0.003198	-0.006853	-0.262695	0.460205	-0.226074	0.675632	-0.420563	-0.127954	-0.591842
62692		6.618832	-4.075607	5.973505	-0.008733	-0.004687	-0.002527	-0.254150	0.458008	-0.238281	0.675624	-0.420641	-0.127961	-0.591793
62693		6.614954	-4.088383	6.011765	-0.009106	-0.003930	-0.002965	-0.259521	0.467285	-0.227051	0.675705	-0.420675	-0.128022	-0.591664
62694		6.628333	-4.094709	5.977707	-0.010915	-0.002503	-0.003476	-0.264648	0.463867	-0.230469	0.675728	-0.420758	-0.128015	-0.591580
62695		6.598275	-4.103353	5.959958	-0.007411	-0.000634	-0.005810	-0.261475	0.468018	-0.224854	0.675720	-0.420797	-0.128025	-0.591558
62696		6.606642	-4.099298	5.994172	-0.007227	-0.001304	-0.010161	-0.260742	0.470703	-0.235352	0.675708	-0.420854	-0.128044	-0.591529
62697		6.603076	-4.082604	5.943250	-0.006237	-0.005852	-0.011959	-0.261963	0.465576	-0.223145	0.675725	-0.420899	-0.128131	-0.591458
62698		6.611198	-4.092119	5.972681	-0.005731	-0.004336	-0.008411	-0.260010	0.461426	-0.219238	0.675712	-0.420965	-0.128164	-0.591419
62699		6.609961	-4.097744	5.991575	-0.005822	-0.002543	-0.010866	-0.265137	0.456787	-0.227295	0.675681	-0.421025	-0.128190	-0.591405
62700		6.623038	-4.081139	5.986425	-0.004975	-0.002353	-0.007658	-0.260254	0.458252	-0.224854	0.675643	-0.421057	-0.128221	-0.591420
62701		6.612805	-4.104754	5.966487	-0.003094	0.000857	-0.005713	-0.269287	0.473145	-0.226807	0.675656	-0.421071	-0.128239	-0.591391
62702		6.610941	-4.110456	5.986028	-0.003906	0.001235	-0.008144	-0.260254	0.459229	-0.225586	0.675637	-0.421100	-0.128244	-0.591390
62703		6.614326	-4.089679	5.970889	0.000408	0.002729	-0.008046	-0.266357	0.461914	-0.220703	0.675658	-0.421082	-0.128280	-0.591372
62704		6.612980	-4.116549	5.962462	0.000723	0.004333	-0.009286	-0.256348	0.462646	-0.220947	0.675628	-0.421071	-0.128284	-0.591412
62705		6.614136	-4.065814	6.000334	0.001098	0.003575	-0.008848	-0.265625	0.467285	-0.219238	0.675673	-0.421060	-0.128317	-0.591362
62706		6.592330	-4.090921	5.990021	0.000751	0.001402	-0.008387	-0.262695	0.461182	-0.221436	0.675663	-0.421074	-0.128332	-0.591360
62707		6.635243	-4.101593	5.969570	-0.002686	0.000666	-0.004498	-0.267334	0.460938	-0.229980	0.675667	-0.421102	-0.128335	-0.591336
62708		6.614909	-4.099127	5.968022	0.001787	0.004422	-0.009651	-0.265625	0.464600	-0.229492	0.675652	-0.421058	-0.128369	-0.591376
62709		6.606580	-4.080145	5.962424	0.001884	0.006128	-0.007317	-0.260010	0.468506	-0.215820	0.675673	-0.421013	-0.128389	-0.591380
62710		6.615703	-4.083110	5.973858	0.001164	0.004712	-0.007293	-0.261719	0.453369	-0.226807	0.675708	-0.421019	-0.128387	-0.591337
62711		6.623382	-4.078328	6.009315	0.001196	0.005280	-0.006516	-0.270508	0.464600	-0.231201	0.675716	-0.420976	-0.128406	-0.591354
62712		6.625509	-4.071569	5.990206	-0.000149	0.004155	-0.004134	-0.267822	0.466309	-0.228516	0.675713	-0.420953	-0.128409	-0.591372
62713		6.615290	-4.080946	5.975793	0.001201	0.008779	-0.006638	-0.270508	0.474365	-0.227295	0.675725	-0.420905	-0.128400	-0.591395
62714		6.604094	-4.104136	5.957276	0.003854	0.007545	-0.002916	-0.267822	0.467773	-0.227051	0.675766	-0.420865	-0.128389	-0.591379
62715		6.613421	-4.093671	5.973414	0.001072	0.007087	-0.000608	-0.266602	0.462646	-0.220947	0.675806	-0.420838	-0.128364	-0.591357
62716		6.601619	-4.095341	5.983142	0.002667	0.005181	-0.005665	-0.256836	0.462891	-0.226807	0.675805	-0.420817	-0.128361	-0.591375
62717		6.624168	-4.090123	5.966140	0.002356	0.007075	-0.004547	-0.268555	0.460693	-0.225586	0.675887	-0.420771	-0.128377	-0.591310
62718		6.601892	-4.079930	5.989118	0.001289	0.003486	-0.004061	-0.267822	0.459961	-0.225098	0.675878	-0.420754	-0.128379	-0.591333
62719		6.591903	-4.089313	5.974464	0.002352	0.003576	-0.004425	-0.267090	0.469727	-0.228516	0.675872	-0.420730	-0.128387	-0.591354
62720		6.622392	-4.080246	5.991957	0.000480	0.003863	-0.006493	-0.269043	0.463379	-0.232910	0.675890	-0.420715	-0.128402	-0.591341
62721		6.611072	-4.081619	6.001349	0.001917	0.003196	-0.006419	-0.263916	0.464111	-0.226318	0.675892	-0.420677	-0.128436	-0.591359
62722		6.603566	-4.084673	5.966926	0.000823	0.002537	-0.006833	-0.264404	0.466064	-0.224609	0.675908	-0.420665	-0.128462	-0.591343
62723		6.593209	-4.072312	5.980375	-0.003490	0.001039	-0.006934	-0.265869	0.465820	-0.224121	0.675906	-0.420692	-0.128470	-0.591325
62724		6.613501	-4.087383	5.977629	-0.002489	-0.000009	-0.008854	-0.262939	0.462158	-0.227295	0.675886	-0.420717	-0.128492	-0.591325
62725		6.592032	-4.077057	5.999793	-0.001799	0.000838	-0.009656	-0.261230	0.456787	-0.226807	0.675880	-0.420720	-0.128529	-0.591321
62726		6.614610	-4.085732	5.977531	-0.001768	0.001407	-0.008878	-0.266846	0.466553	-0.221680	0.675874	-0.420716	-0.128563	-0.591324
62727		6.605837	-4.081062	5.966883	-0.002110	0.002732	-0.008539	-0.265381	0.464111	-0.226807	0.675852	-0.420733	-0.128562	-0.591338
62728		6.613144	-4.090246	5.997428	-0.000704	0.001497	-0.009243	-0.270020	0.466309	-0.224121	0.675843	-0.420731	-0.128593	-0.591343
62729		6.584009	-4.083653	5.984893	-0.002605	0.001213	-0.012090	-0.267090	0.461914	-0.223633	0.675784	-0.420748	-0.128611	-0.591394
62730		6.606733	-4.092053	5.962660	-0.001511	0.001872	-0.011676	-0.265381	0.463379	-0.218994	0.675737	-0.420752	-0.128634	-0.591439
62731		6.606681	-4.068898	5.991342	0.002023	0.000818	-0.013108	-0.269287	0.468994	-0.225830	0.675700	-0.420753	-0.128676	-0.591471
62732		6.615081	-4.099219	5.993440	-0.000446	0.001962	-0.012041	-0.261963	0.459717	-0.227539	0.675668	-0.420753	-0.128706	-0.591502
62733		6.628019	-4.081543	5.989095	0.002368	-0.000508	-0.013449	-0.261230	0.458496	-0.224609	0.675659	-0.420731	-0.128788	-0.591510
62734		6.599230	-4.074265	5.976655	0.001996	0.000248	-0.013888	-0.271973	0.460693	-0.225830	0.675643	-0.420714	-0.128859	-0.591525
62735		6.642879	-4.083449	5.956446	0.001475	0.001658	-0.018341	-0.263428	0.457520	-0.230713	0.675546	-0.420690	-0.128917	-0.591640
62736		6.609919	-4.087971	5.983305	0.003318	-0.002694	-0.016928	-0.274658	0.464355	-0.224609	0.675515	-0.420660	-0.129034	-0.591671
62737		6.611818	-4.071990	5.987816	0.003063	0.000338	-0.014254	-0.261475	0.462402	-0.221924	0.675436	-0.420645	-0.129085	-0.591761
62738		6.615113	-4.063783	5.968399	0.003292	0.000234	-0.017831	-0.259521	0.455078	-0.228027	0.675411	-0.420628	-0.129169	-0.591783
62739		6.634072	-4.082984	5.985691	0.003895	-0.000627	-0.020969	-0.266602	0.472168	-0.231201	0.675379	-0.420584	-0.129293	-0.591824
62740		6.627641	-4.048860	5.983929	0.001169	0.000049	-0.017104	-0.265625	0.464600	-0.230469	0.675367	-0.420569	-0.129380	-0.591829
62741		6.628008	-4.060817	5.979668	0.002666	0.000523	-0.015474	-0.267334	0.456299	-0.222412	0.675354	-0.420538	-0.129467	-0.591847
62742		6.615399	-4.067244	6.008445	0.001201	0.000617	-0.016328	-0.266846	0.469482	-0.224609	0.675280	-0.420526	-0.129523	-0.591928
62743		6.627999	-4.062993	5.999554	0.001895	-0.002034	-0.017008	-0.268799	0.457764	-0.229248	0.675249	-0.420531	-0.129608	-0.591941
62744		6.631475	-4.055038	5.979745	0.000201	-0.001836	-0.014285	-0.262695	0.458984	-0.222168	0.675190	-0.420524	-0.129682	-0.591997
62745		6.644632	-4.037243	5.975134	0.001696	-0.001361	-0.012653	-0.264404	0.454834	-0.225586	0.675173	-0.420525	-0.129748	-0.592001
62746		6.630651	-4.071963	5.994814	0.002072	-0.002117	-0.012215	-0.261475	0.455811	-0.222168	0.675143	-0.420516	-0.129825	-0.592025
62747		6.645199	-4.062141	5.966169	-0.001553	0.000720	-0.013242	-0.269531	0.462158	-0.229004	0.675113	-0.420522	-0.129868	-0.592046
62748		6.643711	-4.067094	5.985819	-0.000344	0.000162	-0.009590	-0.261719	0.457031	-0.227783	0.675088	-0.420518	-0.129910	-0.592068
62749		6.636478	-4.034305	5.983966	-0.001093	0.001672	-0.010468	-0.262207	0.462158	-0.227051	0.675089	-0.420507	-0.129956	-0.592065
62750		6.637014	-4.033460	5.983940	-0.002068	-0.000210	-0.007645	-0.269043	0.462158	-0.225830	0.675110	-0.420520	-0.129995	-0.592023
62751		6.626925	-4.056806	5.964337	0.000115	0.001115	-0.006816	-0.260254	0.462646	-0.218262	0.675098	-0.420520	-0.130018	-0.592031
62752		6.613712	-4.064475	5.992978	-0.000976	0.000452	-0.007231	-0.269775	0.472168	-0.222656	0.675121	-0.420546	-0.130038	-0.591982
62753		6.628346	-4.041400	5.968916	-0.002475	0.003473	-0.008986	-0.269775	0.464600	-0.225830	0.675112	-0.420564	-0.130035	-0.591980
62754		6.646895	-4.048290	5.990745	0.000082	0.004043	-0.007719	-0.261475	0.456787	-0.226807	0.675103	-0.420551	-0.130043	-0.591997
62755		6.624337	-4.052038	6.008871	0.000116	0.001114	-0.006817	-0.262695	0.459961	-0.242188	0.675124	-0.420542	-0.130082	-0.591972
62756		6.626238	-4.058912	5.985037	-0.000748	0.003844	-0.010933	-0.271729	0.455322	-0.225342	0.675157	-0.420486	-0.130153	-0.591959
62757		6.625146	-4.085457	5.976856	0.002811	0.006867	-0.011710	-0.265381	0.462646	-0.230713	0.675098	-0.420432	-0.130164	-0.592062
62758		6.628237	-4.063572	5.962608	0.004511	0.006669	-0.014436	-0.271484	0.463379	-0.228760	0.675105	-0.420360	-0.130224	-0.592091
62759		6.648196	-4.041296	5.994022	0.004138	0.007423	-0.014876	-0.272217	0.456543	-0.231689	0.675071	-0.420293	-0.130262	-0.592170
62760		6.629457	-4.045464	5.969224	0.003363	0.008362	-0.016534	-0.262939	0.464355	-0.229980	0.675007	-0.420210	-0.130301	-0.592293
62761		6.648890	-4.037239	5.995986	0.000182	0.004583	-0.015319	-0.271240	0.455566	-0.220459	0.675014	-0.420175	-0.130358	-0.592298
62762		6.628723	-4.033912	5.994895	0.001239	0.008174	-0.015807	-0.276367	0.464844	-0.225830	0.674927	-0.420132	-0.130357	-0.592426
62763		6.629087	-4.032131	5.995690	-0.002404	0.006936	-0.017493	-0.268066	0.461670	-0.235107	0.674827	-0.420111	-0.130357	-0.592555
62764		6.629069	-4.044312	5.991782	-0.002079	0.005041	-0.018612	-0.263672	0.450928	-0.220947	0.674783	-0.420070	-0.130415	-0.592623
62765		6.638380	-4.060183	5.998562	-0.002852	0.005979	-0.020271	-0.270508	0.456787	-0.220459	0.674694	-0.420049	-0.130438	-0.592734
62766		6.641218	-4.052166	5.979491	-0.003548	0.008627	-0.019593	-0.266602	0.464844	-0.222900	0.674584	-0.420027	-0.130427	-0.592876
62767		6.620228	-4.027019	6.006775	-0.005435	0.008330	-0.022447	-0.276367	0.462158	-0.227051	0.674506	-0.420017	-0.130433	-0.592971
62768		6.610067	-4.063079	5.983133	-0.006196	0.005770	-0.023983	-0.265625	0.462891	-0.236328	0.674358	-0.420010	-0.130448	-0.593140
62769		6.641566	-4.052083	6.000513	-0.003799	0.006421	-0.027513	-0.277832	0.463135	-0.231201	0.674291	-0.419960	-0.130531	-0.593235
62770		6.626183	-4.000181	5.992602	-0.002535	0.003510	-0.022176	-0.269775	0.463867	-0.220459	0.674168	-0.419937	-0.130579	-0.593380
62771		6.635031	-3.994450	6.027176	-0.003704	-0.004692	-0.014744	-0.264893	0.467285	-0.226074	0.674096	-0.419995	-0.130628	-0.593410
62772		6.634879	-4.035256	6.012799	-0.004668	-0.010073	-0.011795	-0.268066	0.460938	-0.222412	0.674082	-0.420077	-0.130717	-0.593349
62773		6.627583	-4.030752	6.000426	-0.007907	-0.011500	-0.012264	-0.278320	0.455566	-0.230469	0.674009	-0.420186	-0.130784	-0.593339
62774		6.653811	-4.033293	5.956893	-0.007543	-0.008757	-0.011948	-0.272705	0.454102	-0.222168	0.673884	-0.420257	-0.130839	-0.593419
62775		6.621804	-4.025572	5.986828	-0.006227	-0.004701	-0.015238	-0.271484	0.457520	-0.227295	0.673764	-0.420314	-0.130878	-0.593506
62776		6.652630	-4.043576	5.993991	-0.006672	-0.005658	-0.018017	-0.270508	0.463379	-0.221680	0.673658	-0.420365	-0.130948	-0.593575
62777		6.657148	-4.021959	5.977847	-0.003454	-0.004800	-0.018330	-0.269531	0.460693	-0.230225	0.673570	-0.420414	-0.131014	-0.593625
62778		6.659732	-4.042339	5.948515	-0.004359	-0.004974	-0.013166	-0.269531	0.467773	-0.226807	0.673525	-0.420450	-0.131087	-0.593634
62779		6.649575	-4.043338	5.956975	-0.003109	0.001441	-0.018137	-0.267334	0.456543	-0.223633	0.673478	-0.420458	-0.131136	-0.593672
62780		6.670159	-4.021485	5.987220	-0.000782	-0.001371	-0.013162	-0.270264	0.453857	-0.228027	0.673437	-0.420467	-0.131192	-0.593699
62781		6.659033	-4.036390	5.991724	0.000664	0.002039	-0.012429	-0.264404	0.462646	-0.220215	0.673396	-0.420440	-0.131241	-0.593754
62782		6.653336	-4.011036	5.965889	-0.000069	0.000048	-0.013186	-0.275391	0.455078	-0.220215	0.673385	-0.420453	-0.131288	-0.593748
62783		6.662437	-4.041115	5.967715	0.001327	-0.001749	-0.014672	-0.267090	0.457764	-0.232178	0.673287	-0.420458	-0.131338	-0.593843
62784		6.653418	-4.013876	5.985257	0.000994	-0.003923	-0.014209	-0.265137	0.458008	-0.222168	0.673271	-0.420451	-0.131446	-0.593842
62785		6.647266	-3.966712	5.987291	0.001834	-0.007218	-0.010869	-0.275146	0.460205	-0.237061	0.673261	-0.420482	-0.131540	-0.593812
62786		6.664543	-4.028948	5.990607	-0.000621	-0.001451	-0.008362	-0.268799	0.458252	-0.225098	0.673243	-0.420469	-0.131605	-0.593826
62787		6.677654	-4.046837	5.953427	0.004171	0.003934	-0.014768	-0.262939	0.453613	-0.220215	0.673221	-0.420421	-0.131664	-0.593872
62788		6.654506	-4.027376	6.000682	0.000189	0.009830	-0.026307	-0.272705	0.455078	-0.226318	0.673145	-0.420361	-0.131707	-0.593991
62789		6.645035	-3.998930	6.019498	-0.003505	0.010934	-0.029679	-0.269531	0.452148	-0.219727	0.673003	-0.420300	-0.131738	-0.594189
62790		6.666102	-4.011532	6.017602	-0.007047	0.007893	-0.028907	-0.266113	0.466797	-0.222656	0.672845	-0.420287	-0.131752	-0.594373
62791		6.682809	-3.994384	5.969907	-0.005139	0.008765	-0.025273	-0.268066	0.457031	-0.221680	0.672778	-0.420271	-0.131771	-0.594457
62792		6.661796	-4.018635	5.960036	-0.001084	0.010405	-0.021585	-0.271240	0.463867	-0.225830	0.672708	-0.420220	-0.131783	-0.594569
62793		6.674081	-3.999656	5.956897	0.004262	0.011468	-0.022626	-0.266846	0.455566	-0.233643	0.672663	-0.420131	-0.131826	-0.594674
62794		6.650705	-4.029144	5.967554	0.010362	0.011026	-0.022787	-0.277100	0.458984	-0.221191	0.672660	-0.419983	-0.131932	-0.594758
62795		6.644256	-3.952430	5.980828	0.007610	0.011686	-0.018916	-0.280029	0.450684	-0.221924	0.672589	-0.419885	-0.131953	-0.594902
62796		6.664361	-3.964979	5.980055	0.011017	0.009553	-0.013519	-0.272461	0.453125	-0.225830	0.672519	-0.419776	-0.131981	-0.595052
62797		6.674414	-3.938568	6.001312	0.011604	0.006372	-0.006589	-0.275879	0.449463	-0.222900	0.672542	-0.419679	-0.132031	-0.595084
62798		6.649093	-4.011356	5.998281	0.009436	0.005032	-0.007423	-0.264404	0.457031	-0.221924	0.672516	-0.419603	-0.132067	-0.595158
62799		6.658947	-3.999415	6.014440	0.005786	0.003203	-0.009894	-0.272461	0.453613	-0.226074	0.672543	-0.419564	-0.132117	-0.595145
62800		6.670984	-3.981351	6.010909	0.005762	0.006699	-0.010019	-0.262451	0.450195	-0.226562	0.672531	-0.419495	-0.132149	-0.595200
62801		6.661662	-3.989717	5.996549	0.005333	0.001670	-0.013456	-0.278320	0.463135	-0.222412	0.672545	-0.419444	-0.132239	-0.595200
62802		6.672885	-3.949945	6.021014	-0.000725	0.003248	-0.011739	-0.268066	0.449707	-0.228760	0.672477	-0.419446	-0.132238	-0.595275
62803		6.663251	-3.972897	6.001637	0.002243	0.000159	-0.009120	-0.274170	0.452881	-0.220703	0.672475	-0.419419	-0.132303	-0.595282
62804		6.683819	-3.987082	5.999302	-0.000998	0.002786	-0.008935	-0.268066	0.463135	-0.223877	0.672415	-0.419422	-0.132298	-0.595349
62805		6.674329	-3.996480	5.984461	0.000502	0.003847	-0.006517	-0.270508	0.456055	-0.223633	0.672439	-0.419416	-0.132304	-0.595325
62806		6.675290	-3.967765	5.993811	0.001964	0.003766	-0.005660	-0.272705	0.455811	-0.223145	0.672443	-0.419396	-0.132312	-0.595333
62807		6.695304	-3.982287	5.991875	0.000165	0.005741	-0.005397	-0.274170	0.463867	-0.220947	0.672430	-0.419378	-0.132294	-0.595364
62808		6.667215	-3.970721	5.960367	0.000260	0.008596	-0.001496	-0.273682	0.460205	-0.236084	0.672442	-0.419364	-0.132234	-0.595373
62809		6.672772	-3.944863	6.024470	0.000012	0.004639	0.001435	-0.270020	0.448242	-0.224609	0.672501	-0.419334	-0.132235	-0.595328
62810		6.651664	-3.944048	6.022843	-0.003120	0.001985	0.004211	-0.273682	0.458008	-0.229980	0.672523	-0.419352	-0.132201	-0.595298
62811		6.661168	-3.984411	6.000625	-0.005250	0.001786	0.004938	-0.272705	0.459717	-0.225342	0.672556	-0.419381	-0.132161	-0.595249
62812		6.680745	-4.000644	5.998043	-0.004937	0.003389	0.003693	-0.269043	0.459717	-0.220703	0.672580	-0.419413	-0.132104	-0.595212
62813		6.668292	-4.017787	6.002657	-0.003183	0.004339	0.002525	-0.268799	0.454102	-0.234131	0.672612	-0.419439	-0.132045	-0.595171
62814		6.670835	-3.984373	5.992068	-0.002035	0.002655	0.004628	-0.274414	0.461670	-0.229980	0.672685	-0.419431	-0.132041	-0.595095
62815		6.647835	-3.976088	6.014478	-0.001996	0.003797	0.006188	-0.276367	0.448975	-0.227051	0.672739	-0.419437	-0.131998	-0.595039
62816		6.637418	-3.987060	5.999614	0.000511	0.003244	0.005903	-0.276855	0.458008	-0.230225	0.672755	-0.419425	-0.131965	-0.595037
62817		6.657298	-3.989112	6.001796	-0.001244	0.002293	0.007070	-0.282227	0.451904	-0.223633	0.672794	-0.419432	-0.131930	-0.594996
62818		6.655585	-4.017914	5.993200	-0.002371	0.004549	0.005747	-0.261719	0.461426	-0.234375	0.672764	-0.419441	-0.131854	-0.595039
62819		6.665653	-4.030009	5.980465	0.001138	0.006450	0.003413	-0.266113	0.451416	-0.221924	0.672897	-0.419402	-0.131857	-0.594916
62820		6.655914	-3.963027	6.012022	-0.001740	0.003687	0.002602	-0.270264	0.448975	-0.223389	0.672934	-0.419411	-0.131821	-0.594876
62821		6.675215	-3.978980	6.009941	-0.003479	0.007374	0.005204	-0.268311	0.451660	-0.228271	0.672958	-0.419408	-0.131746	-0.594867
62822		6.661614	-4.010465	6.010585	-0.006321	0.009820	0.006608	-0.273193	0.459961	-0.226807	0.673013	-0.419402	-0.131656	-0.594830
62823		6.689169	-3.981408	6.056742	-0.009140	0.008770	0.008137	-0.265137	0.456299	-0.235840	0.673046	-0.419431	-0.131534	-0.594799
62824		6.663947	-3.974235	5.980868	-0.012865	0.008118	0.015614	-0.266357	0.451904	-0.217041	0.673168	-0.419466	-0.131419	-0.594661
62825		6.658652	-4.011053	5.992170	-0.009729	0.014836	0.013495	-0.268311	0.461182	-0.225586	0.673223	-0.419488	-0.131224	-0.594626
62826		6.621026	-4.048990	6.010737	-0.014362	0.015190	0.014502	-0.269287	0.458252	-0.227783	0.673299	-0.419526	-0.131022	-0.594559
62827		6.640982	-4.010865	6.026666	-0.011007	0.012528	0.005929	-0.271240	0.453613	-0.226074	0.673336	-0.419539	-0.130888	-0.594537
62828		6.652902	-4.004373	5.998669	-0.017079	0.013536	0.006856	-0.267822	0.456299	-0.226562	0.673332	-0.419582	-0.130708	-0.594551
62829		6.662851	-3.990597	5.994695	-0.016641	0.014492	0.009636	-0.279297	0.460205	-0.222900	0.673369	-0.419622	-0.130522	-0.594521
62830		6.619747	-4.040167	5.954092	-0.015592	0.018086	0.009149	-0.275879	0.458252	-0.216064	0.673343	-0.419651	-0.130287	-0.594582
62831		6.624938	-4.038353	5.989949	-0.012847	0.016856	0.004501	-0.268066	0.459473	-0.218750	0.673294	-0.419680	-0.130072	-0.594663
62832		6.611606	-4.042527	5.999725	-0.012491	0.015533	0.004160	-0.258301	0.456787	-0.230957	0.673296	-0.419707	-0.129889	-0.594683
62833		6.633605	-4.024937	5.987165	-0.007938	0.008834	-0.000623	-0.267090	0.462646	-0.238525	0.673370	-0.419703	-0.129845	-0.594611
62834		6.634335	-4.033544	5.963655	-0.006026	0.010276	0.003800	-0.268066	0.463379	-0.221924	0.673460	-0.419675	-0.129795	-0.594540
62835		6.617596	-4.035351	6.016989	-0.005353	0.010558	0.002217	-0.265625	0.462158	-0.227295	0.673487	-0.419680	-0.129691	-0.594528
62836		6.627810	-4.033548	6.009072	-0.003597	0.011508	0.001054	-0.264160	0.465088	-0.228271	0.673543	-0.419656	-0.129618	-0.594498
62837		6.638112	-4.031428	6.001278	-0.002944	0.011221	-0.001309	-0.275391	0.463867	-0.225098	0.673605	-0.419627	-0.129562	-0.594461
62838		6.606640	-3.990836	6.022448	-0.003674	0.009231	-0.002068	-0.261719	0.456543	-0.230957	0.673586	-0.419619	-0.129487	-0.594504
62839		6.634569	-4.024105	6.027022	-0.004345	0.008948	-0.000487	-0.266602	0.466064	-0.226807	0.673650	-0.419595	-0.129453	-0.594456
62840		6.617190	-4.024510	5.982158	0.001466	0.008044	0.002178	-0.262451	0.462646	-0.222412	0.673724	-0.419566	-0.129414	-0.594402
62841		6.602597	-4.033408	6.011390	-0.003598	0.007443	0.000394	-0.265137	0.454346	-0.225830	0.673772	-0.419572	-0.129355	-0.594354
62842		6.622637	-4.034862	6.013892	-0.003377	0.006202	-0.004750	-0.266113	0.457031	-0.219238	0.673776	-0.419561	-0.129332	-0.594363
62843		6.590780	-4.021935	6.025603	-0.001845	0.004330	-0.001425	-0.265137	0.452393	-0.229004	0.673779	-0.419573	-0.129291	-0.594360
62844		6.624752	-4.014726	5.999456	-0.002910	0.004231	-0.001065	-0.267578	0.458008	-0.229248	0.673806	-0.419564	-0.129281	-0.594338
62845		6.609702	-4.051662	6.019072	-0.005732	0.003180	0.000456	-0.269775	0.460693	-0.235107	0.673827	-0.419583	-0.129251	-0.594307
62846		6.621900	-4.022215	6.018838	-0.010741	0.000223	0.000355	-0.268555	0.468994	-0.229004	0.673838	-0.419634	-0.129227	-0.594264
62847		6.623680	-4.031044	5.994040	-0.010740	0.000223	0.000354	-0.270264	0.458740	-0.231934	0.673851	-0.419708	-0.129181	-0.594207
62848		6.621753	-4.024489	6.017479	-0.010720	0.000791	0.001135	-0.260010	0.459473	-0.228516	0.673850	-0.419762	-0.129141	-0.594179
62849		6.603099	-4.018332	5.995338	-0.009876	0.002130	0.005920	-0.270020	0.461182	-0.226562	0.673923	-0.419818	-0.129088	-0.594069
62850		6.602604	-4.019998	5.994766	-0.008012	-0.001632	0.008124	-0.269043	0.451904	-0.219971	0.673952	-0.419890	-0.129033	-0.593995
62851		6.620531	-4.029573	6.015421	-0.009321	-0.005125	0.012187	-0.267334	0.462158	-0.229492	0.673961	-0.419998	-0.128960	-0.593926
62852		6.622082	-4.039406	5.990175	-0.006818	-0.005679	0.011908	-0.262695	0.472900	-0.225586	0.674033	-0.420081	-0.128934	-0.593790
62853		6.631363	-4.031353	6.004445	-0.006777	-0.004543	0.013469	-0.264404	0.462891	-0.220947	0.674147	-0.420181	-0.128888	-0.593601
62854		6.628076	-4.053612	6.018713	-0.006456	-0.002938	0.012227	-0.266113	0.459717	-0.237793	0.674216	-0.420269	-0.128825	-0.593473
62855		6.620272	-4.059429	5.983025	-0.004646	-0.004345	0.012748	-0.273926	0.463379	-0.224365	0.674324	-0.420312	-0.128828	-0.593319
62856		6.611304	-4.043505	5.975853	-0.002090	-0.007258	0.014150	-0.270508	0.458984	-0.223145	0.674373	-0.420392	-0.128799	-0.593214
62857		6.579968	-4.081366	5.948877	0.008308	-0.009661	0.014254	-0.267822	0.459717	-0.225342	0.674461	-0.420423	-0.128837	-0.593084
62858		6.590375	-4.057652	5.968138	0.020254	-0.017437	0.017799	-0.266602	0.452881	-0.225830	0.674621	-0.420425	-0.128977	-0.592870
62859		6.637203	-4.063054	6.025725	0.016037	-0.020761	0.020136	-0.270752	0.461182	-0.224121	0.674769	-0.420461	-0.129113	-0.592646
