// Start Time: Unknown
// Update Rate: 60.0Hz
// Filter Profile: human (46.1)
// Firmware Version: 4.6.0
PacketCounter	SampleTimeFine	Acc_X	Acc_Y	Acc_Z	Gyr_X	Gyr_Y	Gyr_Z	Mag_X	Mag_Y	Mag_Z	Quat_q0	Quat_q1	Quat_q2	Quat_q3
28000		4.722203	-2.178834	8.631860	0.016067	0.058123	0.048386	-0.781250	0.832520	-0.482910	0.458100	-0.267509	-0.017084	-0.847520
28001		4.740593	-2.088624	8.689268	0.000462	0.069987	0.053239	-0.781738	0.833252	-0.485840	0.458487	-0.267021	-0.016702	-0.847473
28002		4.834007	-2.041679	8.759174	-0.021429	0.087005	0.051603	-0.781494	0.829102	-0.492188	0.458815	-0.266494	-0.016105	-0.847473
28003		4.803614	-2.222572	8.697349	-0.010779	0.116359	0.067885	-0.778076	0.830811	-0.484375	0.459285	-0.265722	-0.015436	-0.847473
28004		4.756584	-2.123984	8.582840	0.018831	0.139211	0.077854	-0.775391	0.841064	-0.495117	0.459893	-0.264677	-0.014867	-0.847480
28005		4.736682	-1.983662	8.491284	0.011663	0.153607	0.092821	-0.779297	0.829834	-0.499268	0.460591	-0.263563	-0.014162	-0.847461
28006		4.806254	-1.987299	8.478634	0.000557	0.162111	0.087863	-0.773682	0.842285	-0.504150	0.461226	-0.262432	-0.013368	-0.847479
28007		4.837064	-2.016168	8.473582	-0.002235	0.191835	0.088671	-0.769043	0.843018	-0.502686	0.461859	-0.261110	-0.012453	-0.847557
28008		4.703299	-1.995653	8.416133	0.008317	0.222986	0.105648	-0.762695	0.848145	-0.503174	0.462630	-0.259541	-0.011474	-0.847632
28009		4.586229	-1.876102	8.327623	0.021922	0.226740	0.109839	-0.758301	0.843506	-0.508545	0.463454	-0.257902	-0.010584	-0.847694
28010		4.606396	-1.819016	8.352721	0.023780	0.221824	0.099806	-0.754395	0.853516	-0.510010	0.464202	-0.256296	-0.009773	-0.847782
28011		4.637095	-1.866071	8.469733	0.012290	0.240104	0.088414	-0.750732	0.848145	-0.520996	0.464836	-0.254612	-0.008867	-0.847952
28012		4.584466	-1.887714	8.606640	0.006353	0.267744	0.088771	-0.744385	0.844482	-0.519287	0.465451	-0.252764	-0.007844	-0.848177
28013		4.473124	-1.915730	8.624168	0.010265	0.297526	0.086152	-0.742920	0.851807	-0.524902	0.466050	-0.250692	-0.006769	-0.848472
28014		4.293069	-1.849104	8.692542	0.009135	0.307064	0.078429	-0.749756	0.856201	-0.528809	0.466580	-0.248556	-0.005694	-0.848817
28015		4.272002	-1.978803	8.745407	0.004458	0.317656	0.066958	-0.734375	0.851562	-0.527832	0.467002	-0.246350	-0.004598	-0.849235
28016		4.171082	-2.015978	8.839779	0.021077	0.336649	0.063880	-0.739014	0.852051	-0.547607	0.467468	-0.243923	-0.003541	-0.849684
28017		4.045058	-1.936925	9.039435	0.011726	0.358558	0.060828	-0.734375	0.856445	-0.546875	0.467849	-0.241375	-0.002407	-0.850206
28018		4.139110	-1.993432	9.246258	-0.021138	0.391184	0.042537	-0.726562	0.852051	-0.548584	0.468038	-0.238675	-0.000936	-0.850866
28019		3.967720	-2.247286	9.309267	-0.037390	0.435190	0.037352	-0.720703	0.861816	-0.564453	0.468194	-0.235701	0.000837	-0.851609
28020		3.708832	-2.454554	9.269356	-0.025615	0.464619	0.058021	-0.706543	0.853516	-0.568604	0.468480	-0.232416	0.002591	-0.852351
28021		3.574639	-2.534849	9.294014	-0.002819	0.483803	0.085480	-0.697266	0.857422	-0.577881	0.469114	-0.228908	0.004425	-0.852944
28022		3.626472	-2.437896	9.413894	-0.002798	0.511585	0.099658	-0.701416	0.867188	-0.588379	0.469851	-0.225151	0.006414	-0.853526
28023		3.727310	-2.461881	9.444059	-0.039868	0.545207	0.112141	-0.681396	0.866943	-0.593262	0.470502	-0.221205	0.008791	-0.854177
28024		3.702147	-2.687380	9.376019	-0.045659	0.575053	0.150737	-0.680420	0.858398	-0.611328	0.471530	-0.217108	0.011479	-0.854629
28025		3.558194	-2.665545	9.297451	-0.007251	0.583754	0.198221	-0.670166	0.869385	-0.597900	0.472868	-0.212816	0.014079	-0.854931
28026		3.413417	-2.545635	9.426175	0.014071	0.590469	0.247700	-0.659424	0.864746	-0.606445	0.474627	-0.208427	0.016794	-0.854989
28027		3.233983	-2.393821	9.596468	0.016425	0.612018	0.279145	-0.644531	0.876221	-0.624023	0.476579	-0.203878	0.019654	-0.854939
28028		3.060765	-2.246736	9.732813	0.015527	0.649338	0.300820	-0.626709	0.875000	-0.627441	0.478686	-0.198995	0.022683	-0.854837
28029		2.969654	-2.125120	9.871591	0.018833	0.692375	0.287991	-0.611328	0.878662	-0.642334	0.480671	-0.193782	0.025854	-0.854831
28030		2.952440	-2.028388	9.919885	-0.003659	0.745413	0.274839	-0.603760	0.872559	-0.651611	0.482493	-0.188225	0.029358	-0.854933
28031		2.713127	-2.222592	9.910288	-0.008268	0.791172	0.260309	-0.589600	0.882080	-0.661865	0.484156	-0.182329	0.033023	-0.855137
28032		2.612721	-2.247338	10.048851	0.001417	0.837762	0.246539	-0.566406	0.880371	-0.676025	0.485708	-0.176032	0.036777	-0.855423
28033		2.603358	-2.214808	10.069002	-0.007242	0.896669	0.229660	-0.555664	0.881104	-0.684814	0.487081	-0.169328	0.040797	-0.855813
28034		2.370867	-2.286582	9.944940	-0.051233	0.945636	0.202246	-0.527588	0.881348	-0.698730	0.488146	-0.162445	0.045270	-0.856315
28035		2.317904	-2.515682	9.854219	-0.067290	0.961633	0.189979	-0.520264	0.890137	-0.702881	0.489065	-0.155505	0.049896	-0.856822
28036		2.444413	-2.601722	9.915435	-0.065969	0.982975	0.184732	-0.499512	0.869385	-0.713379	0.489905	-0.148419	0.054596	-0.857312
28037		2.478427	-2.467276	9.876073	-0.119936	1.017753	0.171065	-0.475342	0.885010	-0.714111	0.490523	-0.141343	0.059801	-0.857807
28038		2.273894	-2.833544	9.626230	-0.172776	1.024322	0.172041	-0.461426	0.883545	-0.721436	0.491039	-0.134475	0.065385	-0.858208
28039		2.108454	-3.120736	9.495589	-0.169947	1.005910	0.195272	-0.447510	0.876953	-0.736816	0.491691	-0.127769	0.070903	-0.858422
28040		1.958441	-3.223420	9.501474	-0.154493	0.983435	0.240502	-0.419922	0.883301	-0.737793	0.492653	-0.121194	0.076290	-0.858362
28041		1.800771	-3.233568	9.547645	-0.169443	0.956864	0.294364	-0.401367	0.877686	-0.737549	0.493961	-0.114897	0.081752	-0.857973
28042		1.551928	-3.300725	9.411848	-0.179073	0.907734	0.366732	-0.380859	0.881836	-0.744385	0.495768	-0.108992	0.087169	-0.857168
28043		1.197626	-3.011611	9.272880	-0.167611	0.814939	0.435131	-0.363525	0.881836	-0.744141	0.498102	-0.103698	0.092205	-0.855943
28044		0.939266	-2.525491	9.261026	-0.230815	0.681192	0.495731	-0.343994	0.879150	-0.743408	0.500885	-0.099591	0.097200	-0.854253
28045		0.884449	-2.696828	9.084390	-0.322027	0.528529	0.502839	-0.321045	0.876465	-0.734619	0.503739	-0.096936	0.102194	-0.852295
28046		1.055377	-2.950524	9.064289	-0.367739	0.389419	0.485098	-0.308350	0.888184	-0.735596	0.506526	-0.095477	0.106905	-0.850227
28047		1.310350	-3.371129	9.304984	-0.359699	0.312403	0.498200	-0.294922	0.885498	-0.728516	0.509458	-0.094540	0.111239	-0.848021
28048		1.455504	-3.433143	9.420665	-0.308633	0.291761	0.538174	-0.288818	0.889893	-0.719971	0.512706	-0.093540	0.115155	-0.845649
28049		1.466361	-3.266430	9.442523	-0.309541	0.299145	0.591041	-0.268555	0.891846	-0.720947	0.516291	-0.092492	0.119141	-0.843027
28050		1.359793	-3.324620	9.412019	-0.328626	0.311333	0.632287	-0.250000	0.880859	-0.719238	0.520110	-0.091439	0.123321	-0.840188
28051		1.149288	-3.550262	9.444217	-0.310215	0.326481	0.682155	-0.238037	0.892822	-0.698975	0.524244	-0.090183	0.127455	-0.837132
28052		0.979063	-3.549479	9.556156	-0.220060	0.345921	0.704226	-0.225098	0.898926	-0.707764	0.528549	-0.088400	0.131053	-0.834054
28053		0.947271	-3.201003	9.698680	-0.188651	0.377680	0.707957	-0.208740	0.898926	-0.701660	0.532838	-0.086269	0.134567	-0.830983
28054		0.857421	-3.056345	9.732158	-0.223239	0.412874	0.690789	-0.193848	0.900635	-0.695801	0.536915	-0.084072	0.138434	-0.827943
28055		0.852476	-3.016593	9.739759	-0.234376	0.444178	0.655364	-0.167236	0.895264	-0.697510	0.540677	-0.081746	0.142458	-0.825040
28056		0.747348	-2.880665	9.795975	-0.265278	0.489637	0.637609	-0.160156	0.900391	-0.684814	0.544214	-0.079267	0.146848	-0.822182
28057		0.644107	-2.913417	9.815712	-0.298580	0.534869	0.611327	-0.142822	0.897705	-0.683594	0.547466	-0.076654	0.151609	-0.819402
28058		0.473948	-3.000156	9.716208	-0.314394	0.576481	0.562780	-0.126953	0.888916	-0.685791	0.550295	-0.073881	0.156595	-0.816820
28059		0.249995	-3.133105	9.637127	-0.314233	0.585988	0.546123	-0.108154	0.895264	-0.668945	0.552972	-0.071056	0.161578	-0.814288
28060		0.001806	-3.211635	9.663067	-0.336768	0.568611	0.534952	-0.102295	0.891357	-0.667236	0.555557	-0.068457	0.166602	-0.811735
28061		0.002116	-3.222032	9.720502	-0.362109	0.572196	0.492379	-0.081787	0.888916	-0.666504	0.557809	-0.065995	0.171769	-0.809314
28062		-0.300412	-3.417426	9.789128	-0.382717	0.574164	0.429010	-0.067871	0.894775	-0.665527	0.559596	-0.063695	0.177025	-0.807129
28063		-0.350400	-3.549838	9.905772	-0.404697	0.570452	0.390875	-0.060303	0.893311	-0.653320	0.561097	-0.061564	0.182378	-0.805058
28064		-0.281991	-3.590167	9.960343	-0.414555	0.600965	0.387374	-0.039307	0.895264	-0.643799	0.562499	-0.059268	0.187921	-0.802974
28065		-0.568440	-3.778540	9.922676	-0.406543	0.635167	0.425264	-0.031738	0.894531	-0.643066	0.564079	-0.056640	0.193570	-0.800711
28066		-0.762460	-3.888569	9.957284	-0.357379	0.651926	0.467575	-0.021240	0.890381	-0.637207	0.565910	-0.053592	0.198976	-0.798300
28067		-0.679346	-3.725662	9.894140	-0.307794	0.688047	0.477054	-0.010742	0.891602	-0.627197	0.567738	-0.050044	0.204216	-0.795905
28068		-0.734229	-3.484334	9.628955	-0.253887	0.740029	0.483084	0.006836	0.886230	-0.626709	0.569512	-0.045879	0.209327	-0.793558
28069		-1.415578	-3.586460	9.469904	-0.197551	0.747899	0.497132	0.020264	0.884033	-0.622803	0.571358	-0.041361	0.214082	-0.791207
28070		-1.671907	-3.602792	9.431767	-0.145787	0.711902	0.478110	0.030762	0.893311	-0.626709	0.573136	-0.036845	0.218309	-0.788986
28071		-1.571958	-3.484655	9.528951	-0.103065	0.691829	0.455128	0.057617	0.879639	-0.626221	0.574791	-0.032277	0.222145	-0.786908
28072		-1.288974	-3.249871	9.543646	-0.114262	0.727638	0.466917	0.060791	0.876221	-0.622559	0.576432	-0.027488	0.226215	-0.784728
28073		-1.475435	-3.397297	9.435987	-0.172918	0.787787	0.514570	0.075684	0.877686	-0.617676	0.578232	-0.022488	0.230938	-0.782183
28074		-1.398666	-3.673609	9.245492	-0.182254	0.837737	0.526073	0.098389	0.882324	-0.618652	0.579977	-0.017177	0.235941	-0.779528
28075		-1.184688	-3.591511	8.947038	-0.146962	0.901706	0.499539	0.106201	0.867676	-0.614990	0.581391	-0.011334	0.240998	-0.777030
28076		-1.400431	-3.382293	8.551188	-0.113503	0.962112	0.476320	0.122559	0.867676	-0.602295	0.582496	-0.004994	0.246104	-0.774666
28077		-1.687756	-3.432746	8.193503	-0.108610	0.964549	0.447506	0.139648	0.862549	-0.605469	0.583368	0.001322	0.251164	-0.772397
28078		-1.840328	-3.306252	7.905795	-0.122757	0.940486	0.397669	0.153076	0.858643	-0.605469	0.583931	0.007308	0.256182	-0.770287
28079		-1.934341	-3.395057	7.502142	-0.121312	0.891961	0.353609	0.165527	0.857910	-0.604248	0.584278	0.012896	0.260944	-0.768350
28080		-2.021982	-3.530073	7.214654	-0.112189	0.832149	0.345681	0.181885	0.856689	-0.603760	0.584671	0.018128	0.265351	-0.766433
28081		-2.178577	-3.932239	7.021809	-0.050361	0.748737	0.337415	0.189697	0.858398	-0.603027	0.585157	0.023105	0.268959	-0.764669
28082		-2.348012	-3.957346	6.909222	0.044571	0.663276	0.314562	0.203125	0.847656	-0.593018	0.585645	0.027942	0.271560	-0.763213
28083		-2.537111	-3.810359	6.921621	0.115539	0.583014	0.304805	0.215088	0.842529	-0.596436	0.586214	0.032585	0.273335	-0.761957
28084		-2.710097	-3.644573	6.982089	0.105125	0.512050	0.308586	0.223389	0.839355	-0.607666	0.586954	0.036733	0.274842	-0.760656
28085		-2.864262	-3.797464	7.141824	0.084448	0.439249	0.327497	0.230957	0.840576	-0.594238	0.587974	0.040363	0.276130	-0.759217
28086		-3.049104	-3.954050	7.381794	0.156735	0.381476	0.326920	0.230957	0.837158	-0.602295	0.589086	0.043980	0.276689	-0.757949
28087		-3.401548	-3.844945	7.787592	0.289592	0.331598	0.310824	0.238525	0.824707	-0.607178	0.590151	0.047896	0.276184	-0.757067
28088		-3.630425	-3.458469	8.237159	0.358189	0.324274	0.272404	0.246094	0.819336	-0.614746	0.590952	0.052020	0.275233	-0.756516
28089		-3.967155	-3.113183	8.799678	0.218023	0.374526	0.224861	0.260986	0.817383	-0.616211	0.591392	0.055671	0.275434	-0.755839
28090		-4.228274	-3.367970	9.051294	-0.039810	0.410283	0.237269	0.259521	0.813477	-0.604248	0.591943	0.058322	0.277424	-0.754478
28091		-4.080518	-4.098915	9.077366	-0.125603	0.443538	0.302541	0.262451	0.815674	-0.602295	0.592863	0.060924	0.280081	-0.752566
28092		-3.931165	-4.328759	9.065426	0.002520	0.522836	0.356793	0.278076	0.818604	-0.602539	0.593858	0.064784	0.282302	-0.750627
28093		-4.017624	-3.804027	9.008319	0.081305	0.617072	0.390262	0.288086	0.799805	-0.599854	0.594779	0.069695	0.284478	-0.748634
28094		-4.212604	-3.478948	8.728140	0.010049	0.691134	0.436756	0.305176	0.802490	-0.601318	0.595834	0.074824	0.287429	-0.746169
28095		-4.443432	-3.721747	8.287489	-0.040171	0.708903	0.483153	0.313721	0.802002	-0.597900	0.597139	0.079929	0.290741	-0.743307
28096		-4.402876	-3.812038	7.963849	0.036527	0.683806	0.515428	0.328613	0.791992	-0.589844	0.598626	0.085339	0.293426	-0.740449
28097		-4.055018	-3.348399	7.927431	0.039300	0.700935	0.552275	0.339111	0.795654	-0.589111	0.600264	0.090958	0.296151	-0.737363
28098		-3.888404	-3.199229	7.512060	-0.041524	0.747327	0.580326	0.354004	0.779541	-0.586182	0.601989	0.096522	0.299570	-0.733860
28099		-4.148345	-3.134138	6.751140	-0.051756	0.752814	0.572282	0.375488	0.783447	-0.579102	0.603623	0.102043	0.303070	-0.730326
28100		-4.800970	-3.182740	6.210596	0.071958	0.639383	0.530124	0.385010	0.783203	-0.576904	0.605149	0.107388	0.305276	-0.727371
28101		-4.814913	-2.483837	6.291026	0.135238	0.497086	0.441339	0.390625	0.774902	-0.569824	0.606418	0.111972	0.306467	-0.725119
28102		-4.652047	-2.144130	6.459234	0.019835	0.392773	0.405334	0.404541	0.766357	-0.575439	0.607829	0.115263	0.307864	-0.722827
28103		-4.202381	-1.968739	6.481462	-0.116549	0.346107	0.443840	0.416504	0.770996	-0.575439	0.609711	0.117694	0.309805	-0.720015
28104		-3.803902	-1.979318	6.155048	-0.143482	0.358872	0.477576	0.414062	0.768799	-0.571533	0.611778	0.120159	0.311928	-0.716931
28105		-4.367350	-1.733844	5.675302	-0.052660	0.337998	0.360329	0.428223	0.764893	-0.566895	0.613098	0.122662	0.313510	-0.714686
28106		-5.258961	-1.502881	5.509134	0.050240	0.180921	0.156760	0.430420	0.761719	-0.562012	0.613506	0.124237	0.313884	-0.713900
28107		-5.255914	-1.226108	6.104073	0.002155	-0.019235	-0.022013	0.421875	0.764404	-0.563721	0.613424	0.123933	0.313711	-0.714099
28108		-4.273758	-0.927379	6.765823	-0.248760	-0.059712	-0.079792	0.428955	0.761963	-0.560303	0.613366	0.121978	0.314881	-0.713970
28109		-3.564971	-1.339579	6.173788	-0.486176	0.020513	-0.003649	0.427246	0.766113	-0.562256	0.613791	0.119500	0.317777	-0.712740
28110		-3.734188	-2.666513	5.359117	-0.361650	0.013058	0.094832	0.439697	0.772461	-0.555176	0.614692	0.117881	0.319782	-0.711335
28111		-4.459157	-2.039239	5.169707	0.161011	-0.076844	-0.095055	0.424316	0.771729	-0.555664	0.614187	0.117896	0.318420	-0.712379
28112		-4.783693	-0.131752	5.727605	0.193594	-0.201618	-0.277431	0.424561	0.770264	-0.551758	0.612893	0.116863	0.316411	-0.714555
28113		-4.401171	-0.462334	5.936218	-0.258438	-0.276707	-0.337681	0.415771	0.771484	-0.555176	0.611876	0.112943	0.316752	-0.715905
28114		-3.921435	-1.727432	5.556888	-0.635940	-0.301230	-0.360179	0.411133	0.784424	-0.554443	0.611131	0.106910	0.319221	-0.716371
28115		-3.473531	-3.328677	5.208319	-0.560797	-0.336279	-0.366561	0.405029	0.793213	-0.546631	0.610349	0.101036	0.321055	-0.717070
28116		-3.641357	-3.026995	5.021231	-0.107836	-0.367127	-0.493987	0.393311	0.799561	-0.543945	0.608480	0.096929	0.320134	-0.719633
28117		-4.494716	-2.218470	5.149713	0.070029	-0.472703	-0.611535	0.385742	0.806885	-0.544922	0.606019	0.092770	0.317705	-0.723324
28118		-4.467741	-2.281044	5.394905	-0.171947	-0.663624	-0.677103	0.367432	0.809082	-0.555176	0.603822	0.086071	0.315813	-0.726810
28119		-3.837353	-3.503590	5.597696	-0.430321	-0.827871	-0.650995	0.357910	0.816406	-0.548096	0.602352	0.077150	0.314622	-0.729543
28120		-3.313634	-4.171606	5.774415	-0.310119	-0.928363	-0.603299	0.330322	0.831299	-0.551270	0.601300	0.068335	0.312148	-0.732347
28121		-3.356819	-4.362816	6.282277	-0.012170	-1.018733	-0.548202	0.316406	0.832031	-0.557861	0.600587	0.060587	0.307354	-0.735634
28122		-3.643856	-3.712599	6.908003	0.235672	-1.106190	-0.632077	0.308350	0.829834	-0.557129	0.599391	0.053311	0.300623	-0.739941
28123		-3.749957	-3.071060	7.589269	0.196980	-1.180871	-0.741059	0.282959	0.835449	-0.567627	0.597650	0.045097	0.293771	-0.744634
28124		-3.481704	-3.250241	8.186361	-0.079130	-1.230632	-0.723217	0.259521	0.847168	-0.570801	0.596161	0.035241	0.288333	-0.748475
28125		-2.871382	-4.096122	8.538162	-0.314548	-1.244239	-0.626308	0.240234	0.854736	-0.570801	0.595293	0.024360	0.284220	-0.751167
28126		-2.612088	-4.954360	8.717805	-0.249391	-1.177935	-0.609972	0.229248	0.861572	-0.569092	0.594275	0.014245	0.279983	-0.753820
28127		-3.155854	-4.890798	8.719918	0.030521	-1.106934	-0.748261	0.201660	0.871826	-0.573242	0.592111	0.005625	0.274320	-0.757708
28128		-3.627898	-4.292590	8.971909	0.153077	-1.131812	-0.839821	0.180664	0.869141	-0.577148	0.589340	-0.002763	0.267732	-0.762227
28129		-3.096447	-4.264156	9.529263	-0.047776	-1.142679	-0.783794	0.159668	0.870850	-0.579834	0.586862	-0.012076	0.262334	-0.765916
28130		-2.398720	-4.618988	9.738821	-0.303319	-1.031656	-0.762357	0.135254	0.886963	-0.575928	0.584178	-0.021880	0.259075	-0.768854
28131		-2.336754	-5.125349	9.410304	-0.429613	-0.886363	-0.742282	0.122070	0.891846	-0.568359	0.581218	-0.031324	0.257303	-0.771362
28132		-2.255051	-5.665554	9.101757	-0.324866	-0.839824	-0.620572	0.105957	0.900635	-0.572998	0.578910	-0.039702	0.255093	-0.773443
28133		-2.008442	-5.484835	8.955878	-0.068090	-0.800183	-0.508542	0.091309	0.900391	-0.562012	0.577280	-0.046350	0.251443	-0.775484
28134		-1.522540	-4.741947	8.563010	0.099205	-0.741275	-0.534700	0.072754	0.897705	-0.570801	0.575386	-0.051871	0.246976	-0.777974
28135		-1.432734	-4.055492	7.977772	0.065200	-0.719632	-0.616958	0.057129	0.912109	-0.576904	0.572863	-0.057584	0.242782	-0.780749
28136		-1.535332	-3.885946	7.529851	-0.053226	-0.815380	-0.619567	0.045654	0.912354	-0.569824	0.570420	-0.064486	0.238882	-0.783197
28137		-1.203829	-4.463164	7.538270	-0.099347	-0.993488	-0.457234	0.031738	0.917725	-0.559814	0.569321	-0.072440	0.234507	-0.784623
28138		-0.281694	-5.052676	7.548290	0.119716	-1.109178	-0.382750	0.014648	0.916016	-0.568359	0.569015	-0.079961	0.228177	-0.785980
28139		0.108396	-4.281504	7.565130	0.312919	-1.116004	-0.447925	0.001709	0.916992	-0.569580	0.568363	-0.086737	0.220486	-0.787925
28140		0.112212	-3.572688	7.594608	0.314190	-1.171418	-0.488186	-0.022461	0.925781	-0.579346	0.567484	-0.093943	0.212468	-0.789933
28141		0.508997	-3.419674	7.792324	0.180883	-1.231085	-0.407947	-0.036621	0.921875	-0.585449	0.567066	-0.102022	0.205076	-0.791184
28142		0.634366	-3.903754	7.890059	0.094579	-1.268175	-0.330057	-0.056885	0.926514	-0.582275	0.567081	-0.110611	0.198112	-0.791792
28143		0.693014	-4.128383	7.793540	0.249500	-1.327522	-0.430186	-0.064697	0.923096	-0.580566	0.566601	-0.119017	0.189723	-0.792971
28144		1.020584	-3.591241	8.029618	0.373036	-1.380950	-0.552545	-0.096924	0.929443	-0.576172	0.565432	-0.127373	0.180113	-0.794746
28145		1.301867	-3.227713	8.387147	0.288379	-1.401001	-0.608323	-0.117188	0.936523	-0.578613	0.563738	-0.136326	0.170874	-0.796502
28146		1.467037	-3.562633	8.584076	0.113055	-1.409990	-0.633150	-0.135742	0.941162	-0.571533	0.561597	-0.146177	0.162690	-0.797981
28147		1.624797	-3.953057	8.561072	0.021241	-1.431438	-0.689245	-0.161133	0.946777	-0.571777	0.558900	-0.156652	0.154913	-0.799433
28148		1.702071	-4.122182	8.639226	-0.013171	-1.454907	-0.762176	-0.180420	0.943115	-0.573242	0.555599	-0.167512	0.147128	-0.801001
28149		1.663615	-4.264116	8.948242	-0.064859	-1.484890	-0.772455	-0.215332	0.959717	-0.564697	0.552084	-0.178793	0.139504	-0.802356
28150		1.803313	-4.651814	9.287040	-0.099430	-1.507470	-0.741238	-0.234863	0.954346	-0.561523	0.548643	-0.190312	0.132026	-0.803331
28151		2.235193	-4.726981	9.461266	-0.122822	-1.484083	-0.716602	-0.263184	0.969727	-0.544678	0.545196	-0.201717	0.124827	-0.804046
28152		2.444973	-4.694652	9.546717	-0.161517	-1.439141	-0.685978	-0.292969	0.973145	-0.535645	0.541739	-0.212926	0.118121	-0.804505
28153		2.683229	-4.735794	9.649113	-0.229099	-1.385704	-0.638516	-0.318848	0.984131	-0.523682	0.538334	-0.223997	0.112173	-0.804636
28154		2.718333	-5.038103	9.618697	-0.254613	-1.349884	-0.580882	-0.343750	0.992188	-0.514893	0.535145	-0.234850	0.106649	-0.804420
28155		3.146711	-5.153647	9.532346	-0.187341	-1.313734	-0.537900	-0.368164	0.999756	-0.505127	0.532265	-0.245084	0.100906	-0.804019
28156		3.535818	-5.117514	9.441555	-0.090020	-1.262618	-0.497709	-0.379395	1.004150	-0.494385	0.529736	-0.254476	0.094810	-0.803513
28157		3.748239	-4.887954	9.240363	0.010578	-1.200213	-0.507284	-0.400635	1.013428	-0.483887	0.527241	-0.262982	0.088287	-0.803158
28158		3.702911	-4.587251	9.126844	0.054140	-1.142421	-0.529528	-0.421387	1.008545	-0.482422	0.524590	-0.270894	0.081669	-0.802964
28159		3.501585	-4.501213	9.179709	0.035299	-1.118583	-0.545192	-0.451660	1.006592	-0.474365	0.521717	-0.278708	0.075238	-0.802790
28160		3.649671	-4.499754	9.308877	-0.032874	-1.096023	-0.525486	-0.462402	1.028809	-0.458740	0.518750	-0.286619	0.069402	-0.802453
28161		3.893526	-4.760122	9.330365	-0.079061	-1.047690	-0.488897	-0.479492	1.023682	-0.444092	0.515839	-0.294351	0.064167	-0.801966
28162		4.119429	-4.832269	9.306659	-0.065407	-0.983916	-0.469019	-0.506592	1.031982	-0.447021	0.513016	-0.301556	0.059161	-0.801485
28163		4.252983	-4.866438	9.131843	-0.036701	-0.907099	-0.447192	-0.515869	1.032227	-0.422852	0.510335	-0.308086	0.054347	-0.801054
28164		4.295347	-4.863451	8.776865	0.017508	-0.854556	-0.402163	-0.539551	1.040283	-0.426758	0.508038	-0.313988	0.049512	-0.800536
28165		4.392711	-4.673088	8.485926	0.088776	-0.831897	-0.367142	-0.553711	1.042236	-0.405273	0.506123	-0.319401	0.044390	-0.799908
28166		4.537889	-4.384159	8.387611	0.107282	-0.820899	-0.359354	-0.565186	1.031982	-0.402588	0.504278	-0.324638	0.039215	-0.799235
28167		4.650631	-4.194870	8.271079	0.058207	-0.820906	-0.363166	-0.585693	1.040039	-0.399658	0.502248	-0.330060	0.034358	-0.798516
28168		4.838947	-4.208427	8.213949	0.004442	-0.819847	-0.371482	-0.591064	1.045410	-0.387695	0.499987	-0.335680	0.029840	-0.797773
28169		5.075437	-4.343789	8.260035	-0.047768	-0.810217	-0.357961	-0.612793	1.038818	-0.373047	0.497641	-0.341428	0.025748	-0.796942
28170		5.372775	-4.422049	8.181696	-0.063457	-0.785936	-0.320945	-0.622314	1.044189	-0.354492	0.495467	-0.347051	0.021968	-0.795981
28171		5.474956	-4.371238	8.011764	-0.045781	-0.765492	-0.291414	-0.646240	1.043701	-0.357422	0.493512	-0.352441	0.018242	-0.794920
28172		5.514286	-4.198753	7.929255	-0.017519	-0.766696	-0.281433	-0.657715	1.040039	-0.338867	0.491685	-0.357702	0.014355	-0.793781
28173		5.678219	-4.101778	7.896141	-0.007202	-0.790748	-0.262146	-0.671143	1.039551	-0.330566	0.489998	-0.363059	0.010361	-0.792454
28174		5.895450	-3.976156	7.912831	-0.001383	-0.804691	-0.251036	-0.678467	1.045410	-0.319092	0.488379	-0.368463	0.006305	-0.791000
28175		6.220552	-3.868459	7.943269	-0.019596	-0.780028	-0.242659	-0.685059	1.043945	-0.298340	0.486735	-0.373758	0.002497	-0.789549
28176		6.312270	-3.801847	7.841412	-0.047604	-0.722652	-0.256383	-0.693604	1.043213	-0.294434	0.484892	-0.378771	-0.000938	-0.788297
28177		6.142102	-3.835525	7.694709	-0.067605	-0.668950	-0.276451	-0.711426	1.034424	-0.277100	0.482835	-0.383494	-0.004088	-0.787265
28178		5.884209	-3.774254	7.548345	-0.070678	-0.654217	-0.308677	-0.724365	1.030029	-0.271240	0.480540	-0.388114	-0.007262	-0.786382
28179		5.789104	-3.708366	7.532838	-0.114817	-0.628395	-0.321400	-0.735596	1.032715	-0.262451	0.478004	-0.392723	-0.010081	-0.785607
28180		5.914825	-3.714342	7.471996	-0.196086	-0.583006	-0.331255	-0.742432	1.024902	-0.245361	0.475127	-0.397340	-0.012218	-0.785001
28181		5.932174	-4.088365	7.224455	-0.233348	-0.530200	-0.307846	-0.751465	1.017822	-0.224609	0.472271	-0.401744	-0.013823	-0.784456
28182		5.722210	-4.328953	7.049891	-0.153714	-0.516101	-0.258764	-0.757812	1.020020	-0.208740	0.469993	-0.405733	-0.015724	-0.783734
28183		5.664123	-4.304558	6.971961	-0.005164	-0.550820	-0.195095	-0.767090	1.009521	-0.205811	0.468621	-0.409363	-0.018511	-0.782607
28184		5.858915	-3.817646	7.129080	0.065350	-0.578520	-0.142999	-0.767578	1.012695	-0.196289	0.467816	-0.412893	-0.021681	-0.781151
28185		6.010283	-3.407852	7.317658	0.001594	-0.579960	-0.116705	-0.772217	1.009277	-0.181152	0.466954	-0.416671	-0.024348	-0.779581
28186		6.068268	-3.441413	7.377480	-0.096495	-0.558682	-0.126372	-0.784912	1.001953	-0.179932	0.465684	-0.420674	-0.026327	-0.778125
28187		6.067775	-3.604565	7.365112	-0.140543	-0.521854	-0.143104	-0.779785	1.000000	-0.166992	0.464150	-0.424590	-0.027933	-0.776858
28188		5.998978	-3.863808	7.412452	-0.102410	-0.470639	-0.144205	-0.784668	1.007568	-0.151611	0.462748	-0.428011	-0.029589	-0.775754
28189		6.145968	-3.910238	7.480640	-0.012302	-0.427671	-0.139596	-0.784912	0.992432	-0.143066	0.461705	-0.430796	-0.031642	-0.774753
28190		6.394844	-3.718337	7.560078	0.025924	-0.338357	-0.118270	-0.801270	1.001221	-0.135742	0.460958	-0.432850	-0.033516	-0.773973
28191		6.298952	-3.693870	7.482323	0.022253	-0.247889	-0.105034	-0.792236	0.999756	-0.126953	0.460308	-0.434330	-0.034969	-0.773467
28192		6.268302	-3.489078	7.546945	-0.005417	-0.181826	-0.119214	-0.794434	0.988281	-0.131836	0.459486	-0.435477	-0.036038	-0.773262
28193		6.321681	-3.525097	7.509013	-0.072986	-0.131078	-0.124171	-0.802979	0.990967	-0.123779	0.458403	-0.436546	-0.036493	-0.773281
28194		6.226975	-3.767900	7.391155	-0.097756	-0.067870	-0.123362	-0.807861	0.980713	-0.127930	0.457256	-0.437294	-0.036542	-0.773534
28195		6.093304	-3.986664	7.358917	-0.053117	-0.019157	-0.122372	-0.803467	0.990723	-0.123535	0.456295	-0.437552	-0.036685	-0.773949
28196		6.198077	-3.820515	7.478338	-0.025784	0.034692	-0.122933	-0.804199	0.974609	-0.128418	0.455450	-0.437351	-0.036797	-0.774555
28197		6.268440	-3.964657	7.412735	-0.045421	0.094441	-0.097720	-0.807373	0.984619	-0.124023	0.454716	-0.436841	-0.036459	-0.775290
28198		6.118550	-3.984401	7.304031	-0.035571	0.155257	-0.088657	-0.808350	0.981201	-0.129150	0.454098	-0.435896	-0.035917	-0.776209
28199		6.169253	-3.901679	7.293356	-0.041514	0.207452	-0.085202	-0.808350	0.973145	-0.126953	0.453498	-0.434631	-0.035122	-0.777305
28200		6.301716	-3.795127	7.295703	-0.109420	0.279599	-0.095955	-0.817139	0.983398	-0.135742	0.452604	-0.433144	-0.033649	-0.778719
28201		6.287305	-4.004030	7.161588	-0.192303	0.357782	-0.092296	-0.820557	0.972900	-0.134277	0.451454	-0.431455	-0.031326	-0.780419
28202		6.340206	-4.247102	6.901935	-0.174958	0.392491	-0.092609	-0.822266	0.972412	-0.145752	0.450370	-0.429467	-0.028982	-0.782231
28203		6.442297	-4.241115	6.780463	-0.137457	0.408686	-0.056842	-0.807861	0.972900	-0.148193	0.449654	-0.427232	-0.026689	-0.783946
28204		6.534712	-4.227338	6.568651	-0.088274	0.399492	0.008955	-0.812744	0.968994	-0.142090	0.449537	-0.424883	-0.024512	-0.785360
28205		6.507951	-4.166457	6.404377	-0.016954	0.370366	0.074318	-0.815186	0.979980	-0.153809	0.450091	-0.422465	-0.022677	-0.786401
28206		6.534160	-4.008285	6.362507	0.057497	0.332384	0.108888	-0.811279	0.981689	-0.170410	0.451122	-0.420021	-0.021347	-0.787156
28207		6.349726	-4.055642	6.191622	0.140652	0.268862	0.167157	-0.809814	0.990479	-0.171387	0.452812	-0.417689	-0.020595	-0.787447
28208		6.283719	-3.904288	6.088561	0.282156	0.197904	0.227734	-0.796631	0.981689	-0.179443	0.455376	-0.415296	-0.020827	-0.787228
28209		6.291239	-3.435489	6.272714	0.338024	0.133338	0.261887	-0.796387	0.993408	-0.181641	0.458340	-0.413116	-0.021550	-0.786636
28210		6.574117	-3.096932	6.378299	0.294315	0.103094	0.277849	-0.784180	0.993652	-0.186523	0.461245	-0.411299	-0.022048	-0.785875
28211		6.644437	-2.914327	6.410138	0.209940	0.122673	0.250410	-0.779785	0.991211	-0.191162	0.463679	-0.409669	-0.022014	-0.785295
28212		6.409473	-2.684838	6.531893	0.100774	0.184120	0.154978	-0.774170	0.994873	-0.203857	0.465122	-0.408038	-0.021358	-0.785309
28213		6.311564	-2.663944	6.631999	-0.042375	0.237835	0.047219	-0.772217	0.992676	-0.209961	0.465378	-0.406590	-0.019926	-0.785946
28214		6.327208	-2.844071	6.585487	-0.166777	0.297597	-0.037031	-0.767578	0.994873	-0.212646	0.464666	-0.405215	-0.017737	-0.787129
28215		6.075682	-3.093385	6.525028	-0.265897	0.337325	-0.098355	-0.773438	0.997070	-0.204102	0.463216	-0.403949	-0.014952	-0.788690
28216		5.878402	-3.337321	6.681558	-0.334167	0.352305	-0.123701	-0.774414	1.003174	-0.208252	0.461364	-0.402839	-0.011747	-0.790396
28217		5.701093	-4.032525	6.852924	-0.303004	0.330977	-0.060410	-0.770996	1.000000	-0.211670	0.460024	-0.401750	-0.008617	-0.791771
28218		5.724587	-4.400238	7.059948	-0.114551	0.328569	0.026262	-0.774902	1.000732	-0.213623	0.459883	-0.399954	-0.006446	-0.792782
28219		5.403507	-4.416029	7.311447	0.128682	0.332151	0.131115	-0.770264	0.996582	-0.222168	0.461243	-0.397203	-0.005514	-0.793381
28220		5.207897	-4.033253	7.747617	0.336875	0.306470	0.193538	-0.758057	1.003906	-0.225342	0.463699	-0.393817	-0.005846	-0.793635
28221		5.119984	-3.551144	8.186781	0.405575	0.296787	0.209633	-0.761230	1.008301	-0.241699	0.466480	-0.390217	-0.006613	-0.793778
28222		4.723665	-3.734886	8.663678	0.413294	0.285495	0.218131	-0.755859	1.009766	-0.259766	0.469333	-0.386647	-0.007446	-0.793836
28223		4.787397	-4.178468	9.297861	0.443149	0.317310	0.219698	-0.755859	1.009521	-0.268555	0.472286	-0.382732	-0.008343	-0.793973
28224		5.359868	-4.375191	9.823449	0.457717	0.475099	0.265734	-0.745361	1.012695	-0.286133	0.475589	-0.377697	-0.008563	-0.794410
28225		5.302910	-4.291905	9.827857	0.466167	0.674970	0.318779	-0.739990	1.010010	-0.311768	0.479266	-0.371282	-0.007874	-0.795231
28226		5.133731	-3.809115	9.649084	0.446410	0.827713	0.281768	-0.725098	1.014160	-0.328857	0.482619	-0.363900	-0.006554	-0.796626
28227		5.056855	-3.412849	9.422550	0.330859	0.936069	0.236075	-0.714844	1.016602	-0.346191	0.485290	-0.356226	-0.004167	-0.798485
28228		4.843092	-3.535805	9.162080	0.191696	0.998204	0.219913	-0.686279	1.021484	-0.368652	0.487406	-0.348667	-0.000648	-0.800541
28229		4.741946	-3.998561	9.140803	0.125847	1.032146	0.206055	-0.681885	1.017090	-0.378906	0.489202	-0.341116	0.003410	-0.802689
28230		4.880175	-4.288171	9.237927	0.129838	1.074464	0.207862	-0.666748	1.020996	-0.401123	0.490979	-0.333232	0.007623	-0.804884
28231		4.825355	-4.627400	9.252925	0.166143	1.134275	0.256257	-0.652588	1.013184	-0.418701	0.493134	-0.324761	0.011974	-0.806973
28232		4.646145	-4.778448	9.215687	0.247609	1.180507	0.328982	-0.640381	1.017578	-0.453125	0.495942	-0.315602	0.016168	-0.808811
28233		4.549265	-4.655716	9.236930	0.321606	1.207903	0.396142	-0.614014	1.006836	-0.467041	0.499336	-0.305904	0.020156	-0.810358
28234		4.627496	-4.442670	9.214045	0.342877	1.229998	0.455485	-0.590820	1.004639	-0.481934	0.503119	-0.295920	0.024246	-0.811613
28235		4.603353	-4.371598	9.239028	0.318651	1.261518	0.506498	-0.573975	1.001709	-0.498535	0.507111	-0.285774	0.028757	-0.812616
28236		4.484062	-4.560700	9.209315	0.326324	1.275370	0.556156	-0.541992	0.986328	-0.522949	0.511382	-0.275450	0.033390	-0.813327
28237		4.310550	-4.615931	9.168567	0.401425	1.269150	0.593831	-0.504150	0.992920	-0.547119	0.516004	-0.264798	0.037571	-0.813763
28238		4.208085	-4.374185	9.280057	0.473546	1.254960	0.623082	-0.480957	0.977051	-0.565430	0.520908	-0.253886	0.041264	-0.813938
28239		4.141980	-3.929430	9.365689	0.464528	1.265766	0.653145	-0.455566	0.974609	-0.581787	0.525908	-0.242891	0.045122	-0.813872
28240		4.037122	-3.731820	9.353219	0.397957	1.289097	0.673371	-0.431885	0.967041	-0.600830	0.530815	-0.231986	0.049567	-0.813610
28241		3.830541	-3.657165	9.259393	0.356034	1.303660	0.667047	-0.398193	0.951660	-0.613281	0.535504	-0.221136	0.054339	-0.813254
28242		3.812119	-3.539272	9.150720	0.331726	1.313327	0.646000	-0.373535	0.952393	-0.621094	0.539912	-0.210306	0.059269	-0.812868
28243		3.699601	-3.474020	9.059029	0.312428	1.316156	0.630329	-0.342529	0.941650	-0.627686	0.544089	-0.199522	0.064302	-0.812418
28244		3.428505	-3.568060	8.976946	0.323571	1.308224	0.628440	-0.317627	0.926025	-0.645752	0.548188	-0.188717	0.069208	-0.811841
28245		3.260714	-3.359968	8.974836	0.342128	1.302029	0.608329	-0.296875	0.927734	-0.651611	0.552095	-0.177856	0.073915	-0.811231
28246		2.966406	-3.009854	8.976889	0.298567	1.310883	0.566500	-0.271484	0.919922	-0.671631	0.555561	-0.167140	0.078880	-0.810675
28247		2.669827	-2.817527	8.866051	0.194823	1.305971	0.528610	-0.245361	0.906006	-0.666504	0.558546	-0.156943	0.084455	-0.810101
28248		2.482330	-2.661961	8.744345	0.060625	1.279773	0.503890	-0.227539	0.903320	-0.678223	0.561126	-0.147548	0.090765	-0.809400
28249		2.474785	-2.845091	8.519897	-0.019576	1.232698	0.490838	-0.200439	0.895508	-0.688965	0.563481	-0.138840	0.097364	-0.808538
28250		2.412844	-2.995755	8.271510	0.003921	1.178104	0.476114	-0.176025	0.888428	-0.682373	0.565738	-0.130391	0.103514	-0.807604
28251		2.085492	-3.022889	8.218806	0.086817	1.115791	0.448014	-0.164551	0.889160	-0.683594	0.567885	-0.121988	0.108767	-0.806719
28252		1.564553	-2.936065	8.436794	0.165138	1.049482	0.415043	-0.151123	0.874268	-0.689941	0.569893	-0.113685	0.113132	-0.805915
28253		1.291863	-2.616026	8.871698	0.136667	1.027878	0.396655	-0.133301	0.869141	-0.702637	0.571718	-0.105674	0.117555	-0.805079
28254		0.869901	-2.726235	9.133888	0.049203	1.037740	0.390909	-0.106201	0.869141	-0.694336	0.573366	-0.098013	0.122592	-0.804124
28255		0.668500	-2.936818	9.208730	0.020913	1.054773	0.359512	-0.087158	0.863037	-0.701660	0.574712	-0.090399	0.127860	-0.803235
28256		0.469606	-2.847536	9.263223	-0.000148	1.082582	0.312796	-0.074463	0.858398	-0.701172	0.575647	-0.082745	0.133354	-0.802496
28257		0.111323	-2.910580	9.206039	-0.067427	1.084742	0.291806	-0.056152	0.856445	-0.700928	0.576341	-0.075417	0.139279	-0.801714
28258		-0.214276	-3.171043	9.279306	-0.116095	1.068169	0.299684	-0.039062	0.845947	-0.698975	0.577024	-0.068420	0.145440	-0.800756
28259		-0.368497	-3.491377	9.424743	-0.085307	1.049042	0.314220	-0.022217	0.842285	-0.699219	0.577793	-0.061381	0.151299	-0.799685
28260		-0.562174	-3.825532	9.409584	0.023881	1.028027	0.343662	-0.005859	0.838379	-0.700439	0.578792	-0.053917	0.156331	-0.798532
28261		-0.580418	-3.798626	9.512071	0.153229	1.023319	0.368997	0.014160	0.839111	-0.702393	0.579975	-0.045826	0.160479	-0.797356
28262		-0.582786	-3.294891	9.626673	0.157108	1.064039	0.382742	0.022217	0.832031	-0.703369	0.581143	-0.037427	0.164789	-0.796063
28263		-0.931373	-3.202338	9.598366	0.039202	1.119283	0.406729	0.039551	0.830566	-0.699707	0.582300	-0.029200	0.170139	-0.794435
28264		-1.410570	-3.643087	9.457011	0.008404	1.133068	0.437739	0.065186	0.825195	-0.706299	0.583576	-0.020986	0.175748	-0.792535
28265		-1.756552	-3.920424	9.421838	0.128887	1.099505	0.439399	0.081299	0.818115	-0.703125	0.584872	-0.012406	0.180382	-0.790717
28266		-1.742368	-3.395109	9.673387	0.200650	1.082577	0.405410	0.095703	0.811035	-0.701172	0.585919	-0.003641	0.184441	-0.789093
28267		-1.815463	-2.963053	9.732477	0.056917	1.104059	0.372047	0.108154	0.794678	-0.702637	0.586652	0.004510	0.189531	-0.787336
28268		-1.925877	-3.016753	9.458159	-0.153318	1.130285	0.354289	0.130127	0.805176	-0.702393	0.587176	0.011776	0.196108	-0.785256
28269		-2.264582	-3.409656	9.156277	-0.288905	1.125093	0.398097	0.150391	0.797607	-0.691406	0.587947	0.018412	0.203521	-0.782661
28270		-2.467457	-4.116879	8.996113	-0.160578	1.064029	0.494620	0.165527	0.798340	-0.683105	0.589371	0.025438	0.209763	-0.779740
28271		-2.296022	-3.890745	9.037424	0.108103	1.039778	0.516884	0.179199	0.801025	-0.684326	0.590866	0.033658	0.214117	-0.777109
28272		-2.269541	-3.055011	9.197313	0.223804	1.086017	0.477516	0.199707	0.786377	-0.678223	0.591932	0.042669	0.217940	-0.774789
28273		-2.622058	-2.491537	9.106445	0.106482	1.137122	0.434258	0.218994	0.782959	-0.689453	0.592605	0.051345	0.222762	-0.772373
28274		-3.001619	-2.501690	8.843219	-0.083954	1.140861	0.440073	0.231201	0.778809	-0.677979	0.593327	0.059108	0.228800	-0.769493
28275		-3.163861	-3.231209	8.507563	-0.109838	1.084156	0.481384	0.245850	0.775391	-0.672363	0.594374	0.066451	0.234677	-0.766310
28276		-3.003125	-3.174513	8.445426	0.047556	1.045138	0.467530	0.273682	0.770264	-0.678467	0.595263	0.074288	0.239341	-0.763452
28277		-2.817113	-2.525013	8.321334	0.081305	1.068254	0.448673	0.277832	0.756348	-0.672119	0.595909	0.082392	0.243894	-0.760671
28278		-2.989691	-2.159161	7.905484	0.000107	1.093400	0.436033	0.304199	0.754883	-0.663086	0.596422	0.090215	0.249068	-0.757699
28279		-3.269078	-1.974716	7.377846	-0.103874	1.069099	0.431000	0.319824	0.755859	-0.656738	0.596974	0.097347	0.254755	-0.754484
28280		-3.588600	-2.061572	6.906329	-0.141115	0.969636	0.437539	0.322998	0.755127	-0.652832	0.597756	0.103673	0.260150	-0.751173
28281		-3.592576	-2.216750	6.806503	-0.099404	0.863823	0.425754	0.340332	0.750977	-0.649170	0.598614	0.109512	0.264748	-0.748049
28282		-3.652762	-2.138249	6.698715	-0.016343	0.792680	0.400537	0.362549	0.749512	-0.644287	0.599359	0.115258	0.268480	-0.745254
28283		-3.713754	-1.656214	6.604325	0.024540	0.731177	0.360403	0.365479	0.738281	-0.641846	0.599922	0.120730	0.271674	-0.742772
28284		-3.557162	-0.730210	6.541465	-0.135572	0.725396	0.326502	0.375000	0.739502	-0.638428	0.600423	0.125285	0.275850	-0.740070
28285		-4.108955	-0.706332	6.302875	-0.408330	0.700162	0.303821	0.389648	0.737061	-0.620361	0.601097	0.128263	0.281587	-0.736844
28286		-4.693689	-1.666644	6.106002	-0.439978	0.580728	0.233767	0.394287	0.745850	-0.610107	0.601628	0.130183	0.286978	-0.733989
28287		-4.479766	-1.605973	6.326519	-0.294459	0.479518	0.062061	0.397217	0.751709	-0.608643	0.601174	0.131801	0.291149	-0.732428
28288		-4.329157	-1.317353	6.718613	-0.321894	0.479293	-0.084212	0.406250	0.743408	-0.599365	0.599844	0.132925	0.295639	-0.731516
28289		-4.409358	-1.536160	6.568888	-0.487737	0.513152	-0.161603	0.410156	0.759521	-0.590820	0.598125	0.133234	0.301382	-0.730523
28290		-4.662555	-2.189475	6.135619	-0.545546	0.501139	-0.192004	0.413330	0.760498	-0.589600	0.596293	0.133101	0.307436	-0.729521
28291		-5.055107	-2.745814	5.967798	-0.487846	0.429838	-0.213020	0.412598	0.768311	-0.576172	0.594431	0.132763	0.312798	-0.728823
28292		-5.402250	-3.277536	5.982283	-0.318022	0.312643	-0.243703	0.405518	0.777832	-0.572998	0.592483	0.132472	0.316576	-0.728831
28293		-5.204527	-3.416555	5.911952	-0.187004	0.181411	-0.180729	0.418945	0.774170	-0.571777	0.591112	0.132196	0.318841	-0.729007
28294		-4.185717	-2.958493	5.534774	-0.107702	0.112360	-0.025037	0.416016	0.779053	-0.564453	0.590780	0.132302	0.320116	-0.728698
28295		-3.834591	-2.230095	4.875945	-0.135400	0.127993	0.114257	0.416992	0.773438	-0.561035	0.591280	0.132737	0.321482	-0.727611
28296		-4.718333	-2.099378	4.064975	-0.007935	-0.010608	0.089566	0.419189	0.781982	-0.563721	0.591859	0.132892	0.321420	-0.727139
28297		-4.735062	-1.408746	4.098660	0.205090	-0.253530	-0.105589	0.411865	0.765381	-0.565674	0.591668	0.132107	0.319088	-0.728464
28298		-3.692409	-0.369439	4.868200	0.094982	-0.364066	-0.316798	0.408203	0.781006	-0.566162	0.590604	0.129549	0.317110	-0.730647
28299		-3.805234	-0.688083	4.961119	-0.283062	-0.375594	-0.463233	0.397461	0.777344	-0.567383	0.589074	0.124676	0.317524	-0.732548
28300		-3.983041	-2.201078	4.545728	-0.424153	-0.493088	-0.543378	0.391846	0.804688	-0.566162	0.587491	0.118179	0.318289	-0.734562
28301		-3.577033	-2.892373	4.541259	-0.264329	-0.633353	-0.579341	0.372803	0.797852	-0.563965	0.585871	0.111506	0.317410	-0.737274
28302		-3.870518	-3.079519	4.755260	-0.075118	-0.774301	-0.612055	0.361572	0.807617	-0.575439	0.584212	0.104795	0.314694	-0.740731
28303		-4.199332	-3.585012	5.042369	0.170567	-0.995798	-0.649355	0.341553	0.809326	-0.570557	0.582639	0.097806	0.309393	-0.745145
28304		-3.635893	-3.413068	5.731555	0.384331	-1.189945	-0.653304	0.330322	0.811279	-0.586182	0.581299	0.090625	0.301794	-0.750199
28305		-3.302750	-2.951745	6.548207	0.344033	-1.281953	-0.577184	0.308838	0.806885	-0.597168	0.580615	0.082851	0.293903	-0.754747
28306		-3.343265	-3.243853	7.103146	0.215019	-1.346261	-0.471565	0.290039	0.817871	-0.601074	0.580759	0.074292	0.286397	-0.758404
28307		-3.336881	-3.284770	7.516420	0.154474	-1.415024	-0.431894	0.271973	0.818115	-0.608887	0.581270	0.065086	0.278872	-0.761656
28308		-2.934078	-3.139520	8.106165	0.093107	-1.432492	-0.433640	0.244141	0.816162	-0.619873	0.581754	0.055456	0.271609	-0.764667
28309		-2.892481	-3.019256	8.798706	-0.015601	-1.379029	-0.511518	0.228271	0.824463	-0.624023	0.581583	0.045453	0.265290	-0.767670
28310		-3.128248	-3.098992	9.173849	-0.179466	-1.325005	-0.626732	0.211914	0.832764	-0.617676	0.580531	0.034736	0.260280	-0.770734
28311		-3.164928	-3.892750	9.360158	-0.276838	-1.315610	-0.644637	0.192139	0.844971	-0.619873	0.579285	0.023565	0.255902	-0.773556
28312		-3.134025	-4.505423	9.694300	-0.237622	-1.304854	-0.629248	0.166016	0.848145	-0.623291	0.578019	0.012679	0.251280	-0.776268
28313		-2.962620	-4.865153	9.948412	-0.168953	-1.265058	-0.643961	0.143555	0.847900	-0.625488	0.576484	0.002347	0.246371	-0.779078
28314		-2.162244	-4.366523	10.035843	-0.155987	-1.146673	-0.648622	0.125244	0.860352	-0.617188	0.574600	-0.007168	0.241914	-0.781832
28315		-2.375526	-4.773186	9.799319	-0.210575	-1.041167	-0.563325	0.104980	0.872559	-0.616943	0.572991	-0.016087	0.238293	-0.783989
28316		-2.487177	-5.372923	9.503589	-0.071177	-1.036869	-0.472605	0.089600	0.876953	-0.620117	0.571931	-0.024134	0.233772	-0.785915
28317		-1.790632	-4.611646	9.536616	0.036336	-0.996718	-0.403457	0.075928	0.882812	-0.620605	0.571219	-0.031272	0.228735	-0.787662
28318		-1.865744	-4.507344	9.240579	0.023309	-0.964491	-0.335042	0.065186	0.877930	-0.617432	0.570847	-0.038130	0.223937	-0.789007
28319		-1.578962	-4.199038	9.136186	0.052007	-0.951733	-0.344953	0.049316	0.878906	-0.619629	0.570355	-0.044785	0.218991	-0.790400
28320		-1.247615	-3.925714	9.080854	0.025124	-0.948103	-0.345534	0.036865	0.888428	-0.617920	0.569802	-0.051543	0.214224	-0.791692
28321		-0.940958	-3.986987	8.920165	-0.008230	-0.952541	-0.312245	0.017822	0.889160	-0.624512	0.569423	-0.058427	0.209654	-0.792710
28322		-0.501934	-3.841511	8.819514	0.013890	-0.928538	-0.313753	-0.000244	0.894287	-0.621094	0.568963	-0.065049	0.205035	-0.793732
28323		-0.435024	-3.649858	8.536943	0.028609	-0.908706	-0.377554	-0.008057	0.903809	-0.617920	0.568018	-0.071576	0.200362	-0.795039
28324		-0.341842	-3.635357	8.269762	0.041127	-0.931514	-0.448112	-0.019287	0.901855	-0.619873	0.566610	-0.078311	0.195440	-0.796633
28325		0.110133	-3.657692	8.104153	0.047153	-0.992066	-0.458427	-0.044189	0.905762	-0.614502	0.565192	-0.085431	0.190168	-0.798183
28326		0.523345	-3.716798	8.004589	0.061924	-1.034466	-0.478597	-0.061523	0.910889	-0.618408	0.563668	-0.092792	0.184566	-0.799752
28327		0.722714	-3.669074	7.989099	0.066330	-1.095027	-0.524497	-0.071045	0.909424	-0.616455	0.561880	-0.100601	0.178594	-0.801420
28328		0.949960	-3.551778	7.998165	0.013594	-1.177337	-0.553852	-0.098389	0.917969	-0.619873	0.559912	-0.109243	0.172542	-0.802991
28329		1.234989	-3.605082	8.071601	-0.078877	-1.250502	-0.541581	-0.114502	0.921631	-0.612305	0.557977	-0.118779	0.166755	-0.804205
28330		1.332259	-3.903205	8.084519	-0.104490	-1.315045	-0.547385	-0.136230	0.925781	-0.609619	0.555991	-0.128863	0.160809	-0.805239
28331		1.659034	-3.848246	8.174327	-0.092333	-1.359967	-0.588649	-0.160645	0.928223	-0.600586	0.553718	-0.139233	0.154502	-0.806312
28332		1.894175	-3.856580	8.223276	-0.100111	-1.398243	-0.598098	-0.193115	0.938477	-0.600342	0.551335	-0.149891	0.148034	-0.807248
28333		2.337143	-3.522366	8.338432	-0.171938	-1.382460	-0.598650	-0.213135	0.956299	-0.584961	0.548748	-0.160753	0.142094	-0.807987
28334		2.003409	-3.948267	8.098538	-0.228234	-1.415554	-0.626379	-0.236328	0.958740	-0.582031	0.545847	-0.172106	0.136317	-0.808609
28335		2.245795	-4.092069	8.108248	-0.201043	-1.470201	-0.677782	-0.256104	0.971191	-0.565186	0.542603	-0.183734	0.130009	-0.809272
28336		2.577217	-4.273497	8.307375	-0.174298	-1.520755	-0.678016	-0.284668	0.969238	-0.557129	0.539349	-0.195550	0.123265	-0.809734
28337		2.883571	-4.311552	8.465430	-0.154416	-1.536773	-0.661430	-0.313721	0.979980	-0.550537	0.536149	-0.207334	0.116318	-0.809955
28338		3.124434	-4.363808	8.599854	-0.143563	-1.531812	-0.625809	-0.337402	0.991943	-0.539551	0.533099	-0.218964	0.109357	-0.809878
28339		3.220805	-4.426672	8.628289	-0.119605	-1.530846	-0.608715	-0.359619	0.992676	-0.524414	0.530104	-0.230426	0.102248	-0.809592
28340		3.277370	-4.407806	8.765197	-0.097378	-1.538511	-0.607409	-0.389648	1.005615	-0.516113	0.527065	-0.241799	0.094937	-0.809149
28341		3.465723	-4.436872	8.970269	-0.091323	-1.554926	-0.598536	-0.419678	1.015381	-0.507812	0.524010	-0.253204	0.087513	-0.808482
28342		3.759374	-4.581496	9.282610	-0.088524	-1.561475	-0.551605	-0.447266	1.015625	-0.485107	0.521181	-0.264557	0.080124	-0.807440
28343		4.105350	-4.704575	9.422244	-0.038171	-1.549607	-0.495830	-0.463379	1.027344	-0.469727	0.518732	-0.275526	0.072555	-0.806064
28344		4.454789	-4.477524	9.609621	-0.001940	-1.473386	-0.466705	-0.496826	1.028564	-0.466064	0.516425	-0.285759	0.065128	-0.804615
28345		4.644141	-4.322823	9.591035	0.001108	-1.398472	-0.489831	-0.520264	1.038574	-0.450928	0.513848	-0.295443	0.057936	-0.803316
28346		4.861131	-4.213387	9.574561	-0.013985	-1.331402	-0.521399	-0.541016	1.037598	-0.429932	0.510914	-0.304713	0.051045	-0.802192
28347		5.060933	-4.178987	9.496890	-0.058033	-1.268344	-0.544997	-0.564697	1.040039	-0.422363	0.507613	-0.313715	0.044650	-0.801198
28348		5.271891	-4.319697	9.344131	-0.076546	-1.214685	-0.565297	-0.597412	1.041504	-0.408447	0.504043	-0.322401	0.038545	-0.800320
28349		5.449231	-4.357291	9.250398	-0.081248	-1.145698	-0.600879	-0.614746	1.052734	-0.388672	0.500141	-0.330618	0.032662	-0.799677
28350		5.423218	-4.461860	9.108494	-0.110087	-1.074888	-0.613922	-0.639893	1.056641	-0.381836	0.495996	-0.338448	0.027225	-0.799186
28351		5.313342	-4.724459	8.961680	-0.119552	-1.019512	-0.591276	-0.658447	1.043457	-0.365234	0.491914	-0.345907	0.022143	-0.798673
28352		5.232459	-4.973088	8.740728	-0.072135	-0.984644	-0.543284	-0.680908	1.047119	-0.349121	0.488236	-0.352895	0.017027	-0.797998
28353		5.549795	-4.935774	8.601906	-0.003291	-0.963569	-0.498292	-0.700195	1.042480	-0.319336	0.485018	-0.359424	0.011673	-0.797142
28354		5.867651	-4.716409	8.423973	0.018373	-0.922187	-0.440693	-0.724121	1.041748	-0.318604	0.482208	-0.365556	0.006518	-0.796117
28355		6.149101	-4.305141	8.194859	-0.005170	-0.881577	-0.377468	-0.732422	1.032715	-0.293701	0.479712	-0.371483	0.001876	-0.794905
28356		5.823102	-4.476738	8.186996	-0.073209	-0.865797	-0.289700	-0.746582	1.028564	-0.278320	0.477558	-0.377552	-0.001978	-0.793341
28357		5.870160	-4.645784	8.111061	-0.010623	-0.927895	-0.234383	-0.753662	1.028076	-0.261963	0.475938	-0.383757	-0.006316	-0.791311
28358		6.356359	-4.192579	8.252241	0.059768	-0.927927	-0.212628	-0.763672	1.030518	-0.250977	0.474659	-0.389659	-0.011045	-0.789140
28359		6.310817	-4.015077	8.275424	0.050568	-0.875743	-0.200069	-0.777832	1.024902	-0.238525	0.473411	-0.395229	-0.015463	-0.787043
28360		6.145063	-3.991675	8.366723	0.038466	-0.826769	-0.199644	-0.778320	1.019775	-0.230957	0.472108	-0.400501	-0.019606	-0.785066
28361		6.285592	-3.864352	8.510777	-0.000282	-0.767580	-0.185112	-0.787109	1.014893	-0.206787	0.470760	-0.405517	-0.023210	-0.783200
28362		6.458689	-3.897727	8.415793	-0.054313	-0.672876	-0.168890	-0.796875	1.001465	-0.196777	0.469339	-0.410110	-0.026033	-0.781571
28363		6.307719	-3.918073	8.078270	-0.055854	-0.591821	-0.186203	-0.798096	0.997559	-0.192383	0.467804	-0.414160	-0.028585	-0.780265
28364		6.209529	-3.684790	7.882919	-0.051291	-0.546820	-0.228477	-0.803223	0.995361	-0.180908	0.466011	-0.417874	-0.031135	-0.779259
28365		6.182251	-3.558741	7.907012	-0.151020	-0.506143	-0.208995	-0.807861	0.982178	-0.159180	0.464000	-0.421702	-0.032808	-0.778329
28366		6.092348	-3.948261	7.755932	-0.210820	-0.469458	-0.152761	-0.805176	0.986084	-0.153809	0.462145	-0.425525	-0.033752	-0.777311
28367		6.276652	-4.021005	7.730025	-0.191700	-0.386705	-0.121938	-0.814453	0.982666	-0.144043	0.460575	-0.428735	-0.034388	-0.776450
28368		6.049458	-4.083499	7.519086	-0.131577	-0.284897	-0.104881	-0.824463	0.972656	-0.135986	0.459358	-0.431051	-0.034958	-0.775863
28369		5.609269	-3.973789	7.226474	-0.048793	-0.206240	-0.097303	-0.816162	0.968262	-0.131836	0.458510	-0.432537	-0.035732	-0.775502
28370		5.377112	-3.856740	7.198279	-0.000825	-0.158363	-0.063619	-0.818359	0.967529	-0.137695	0.458068	-0.433535	-0.036507	-0.775170
28371		5.572745	-3.534698	7.381671	-0.049729	-0.105101	-0.035982	-0.823242	0.962646	-0.124512	0.457647	-0.434378	-0.036659	-0.774940
28372		5.783670	-3.504314	7.242804	-0.154478	-0.030902	-0.024221	-0.813965	0.960938	-0.123535	0.456948	-0.435138	-0.035806	-0.774965
28373		5.825132	-3.635014	6.990992	-0.191007	0.035185	-0.050618	-0.826416	0.960449	-0.129883	0.455966	-0.435597	-0.034559	-0.775342
28374		5.689275	-3.840965	6.760122	-0.166680	0.083979	-0.041745	-0.816162	0.966553	-0.124756	0.455145	-0.435646	-0.033250	-0.775854
28375		5.662133	-3.945325	6.624657	-0.084373	0.119055	-0.011252	-0.827393	0.968262	-0.120605	0.454831	-0.435161	-0.032225	-0.776354
28376		5.900417	-3.819453	6.680184	-0.000354	0.144269	0.017559	-0.823975	0.966797	-0.127686	0.455016	-0.434198	-0.031540	-0.776813
28377		6.192698	-3.722795	6.680332	0.030130	0.179235	0.040252	-0.818604	0.961426	-0.127197	0.455468	-0.432895	-0.030836	-0.777303
28378		6.146580	-3.801147	6.453447	0.071147	0.221090	0.053995	-0.816650	0.952637	-0.133789	0.456167	-0.431165	-0.030187	-0.777879
28379		6.021535	-3.810035	6.291278	0.153658	0.243337	0.060423	-0.815186	0.960205	-0.139648	0.457209	-0.428976	-0.029963	-0.778487
28380		6.203399	-3.552937	6.371329	0.198664	0.248928	0.062626	-0.815186	0.958252	-0.146240	0.458425	-0.426575	-0.029999	-0.779089
28381		6.577984	-3.355754	6.498745	0.153582	0.254838	0.058871	-0.807617	0.966797	-0.150879	0.459455	-0.424303	-0.029733	-0.779733
28382		6.776322	-3.346283	6.477463	0.071330	0.262092	0.034725	-0.821289	0.960205	-0.164551	0.460036	-0.422290	-0.028989	-0.780512
28383		6.730532	-3.628393	6.309272	0.033524	0.264224	0.005340	-0.810547	0.967041	-0.176025	0.460290	-0.420398	-0.028095	-0.781415
28384		6.615228	-3.804329	6.212920	0.060576	0.246958	0.003182	-0.820068	0.965332	-0.176025	0.460618	-0.418513	-0.027450	-0.782256
28385		6.762950	-3.852561	6.300782	0.099632	0.230244	0.021207	-0.811279	0.975586	-0.184570	0.461194	-0.416590	-0.027061	-0.782957
28386		6.888409	-3.790366	6.377748	0.108055	0.229104	0.036344	-0.808350	0.969238	-0.188721	0.461895	-0.414645	-0.026677	-0.783589
28387		6.973987	-3.662562	6.417983	0.064946	0.224867	0.035287	-0.808594	0.969971	-0.189697	0.462436	-0.412893	-0.026031	-0.784216
28388		6.844086	-3.624400	6.231059	-0.010916	0.226414	0.050313	-0.809814	0.969727	-0.196777	0.462813	-0.411426	-0.024831	-0.784804
28389		6.399144	-3.774870	6.031813	-0.024427	0.199831	0.090504	-0.802490	0.974609	-0.194336	0.463398	-0.410194	-0.023509	-0.785144
28390		6.315112	-3.738009	6.067610	0.029624	0.139119	0.110269	-0.804199	0.965576	-0.201416	0.464283	-0.409154	-0.022705	-0.785187
28391		6.614386	-3.491469	6.252066	0.052727	0.102466	0.122336	-0.793945	0.970459	-0.202881	0.465318	-0.408267	-0.022153	-0.785052
28392		6.692823	-3.348002	6.269538	0.027144	0.105236	0.130592	-0.796143	0.987549	-0.204102	0.466319	-0.407463	-0.021395	-0.784897
28393		6.532626	-3.333446	6.234238	0.010938	0.110684	0.121282	-0.794678	0.985107	-0.210449	0.467203	-0.406686	-0.020543	-0.784797
28394		6.304663	-3.172323	6.249007	-0.001707	0.104276	0.107898	-0.785889	0.983643	-0.207764	0.467953	-0.405997	-0.019678	-0.784728
28395		6.100594	-3.153244	6.346997	-0.026566	0.092573	0.109240	-0.787842	0.980225	-0.209961	0.468625	-0.405482	-0.018694	-0.784618
28396		5.821255	-3.217818	6.556455	-0.028284	0.072309	0.098105	-0.784912	0.993408	-0.208496	0.469215	-0.405104	-0.017815	-0.784482
28397		5.682943	-3.154130	7.037428	-0.036232	0.054136	0.075346	-0.787109	0.997070	-0.211670	0.469625	-0.404870	-0.017033	-0.784374
28398		5.817750	-3.275994	7.515805	-0.090576	0.087710	0.076508	-0.778809	0.998291	-0.208008	0.469865	-0.404627	-0.015760	-0.784382
28399		5.713690	-3.613376	7.901950	-0.112810	0.167089	0.073879	-0.781250	0.991455	-0.210449	0.470022	-0.403948	-0.014040	-0.784671
28400		5.497015	-3.873642	8.148412	-0.074435	0.235497	0.062264	-0.778320	1.000244	-0.215576	0.470241	-0.402664	-0.012341	-0.785228
28401		5.478297	-4.060082	8.291300	-0.010235	0.292778	0.071616	-0.780029	0.994141	-0.225342	0.470740	-0.400747	-0.010804	-0.785931
28402		5.575019	-4.217335	8.279220	0.066445	0.347055	0.083425	-0.778320	1.001709	-0.228760	0.471576	-0.398168	-0.009515	-0.786757
28403		5.807061	-4.008413	8.292343	0.118284	0.432859	0.090867	-0.768311	0.995605	-0.233643	0.472636	-0.394814	-0.008200	-0.787826
28404		5.790200	-3.869031	8.340701	0.072181	0.553998	0.097855	-0.762939	1.000977	-0.239746	0.473590	-0.390836	-0.006081	-0.789254
28405		5.460801	-4.023199	8.277291	-0.004890	0.651035	0.099516	-0.761963	1.011719	-0.255127	0.474298	-0.386510	-0.003065	-0.790975
28406		5.031084	-4.372553	8.225493	-0.026058	0.686372	0.089517	-0.760010	1.012695	-0.271973	0.474857	-0.382019	0.000200	-0.792825
28407		4.860039	-4.583404	8.314801	-0.008996	0.687270	0.093620	-0.749756	1.004883	-0.278564	0.475484	-0.377437	0.003372	-0.794635
28408		4.977225	-4.736622	8.468488	-0.012633	0.717276	0.148547	-0.737061	1.025879	-0.294922	0.476446	-0.372653	0.006864	-0.796292
28409		4.972108	-5.042268	8.478442	0.001969	0.788395	0.226978	-0.731689	1.012695	-0.300537	0.477951	-0.367316	0.010789	-0.797826
28410		4.893525	-5.049983	8.560204	0.059391	0.845394	0.313689	-0.722168	1.021729	-0.319092	0.480179	-0.361341	0.014829	-0.799150
28411		4.649028	-4.924425	8.689402	0.114232	0.876146	0.384279	-0.690918	1.026611	-0.341553	0.483011	-0.354908	0.018842	-0.800241
28412		4.526190	-4.760298	8.884446	0.155561	0.890478	0.415350	-0.685059	1.023438	-0.352051	0.486137	-0.348181	0.022732	-0.801202
28413		4.745809	-4.544868	9.047548	0.137558	0.917223	0.428755	-0.665283	1.026367	-0.376221	0.489261	-0.341318	0.026892	-0.802124
28414		5.006250	-4.526121	9.129950	0.072571	0.988656	0.456251	-0.643066	1.037354	-0.383789	0.492330	-0.334206	0.031855	-0.803058
28415		5.039263	-4.824058	9.086699	0.054674	1.078408	0.485116	-0.625488	1.031494	-0.398926	0.495473	-0.326527	0.037385	-0.804045
28416		5.023366	-4.986562	9.046236	0.112434	1.154452	0.513368	-0.601318	1.022705	-0.418213	0.498885	-0.318055	0.042916	-0.805054
28417		5.109114	-4.863398	8.981551	0.179520	1.224733	0.538348	-0.579346	1.032715	-0.427979	0.502556	-0.308786	0.048352	-0.806071
28418		5.026007	-4.716278	8.786902	0.215577	1.277954	0.562209	-0.555176	1.025635	-0.449951	0.506389	-0.298958	0.053825	-0.807030
28419		4.781815	-4.664676	8.551034	0.249359	1.291366	0.574599	-0.523682	1.022705	-0.471436	0.510309	-0.288850	0.059150	-0.807869
28420		4.557153	-4.565523	8.417033	0.273814	1.276876	0.574872	-0.507080	1.015625	-0.485352	0.514220	-0.278696	0.064242	-0.808566
28421		4.513427	-4.425966	8.439757	0.253409	1.248800	0.586102	-0.474365	1.020264	-0.503662	0.518100	-0.268776	0.069367	-0.809024
28422		4.469145	-4.425360	8.466311	0.203463	1.220037	0.620195	-0.451172	1.019287	-0.512939	0.522041	-0.259211	0.074771	-0.809130
28423		4.297766	-4.452235	8.477385	0.182067	1.192674	0.651733	-0.426025	1.001709	-0.518066	0.526094	-0.249873	0.080258	-0.808918
28424		4.160949	-4.349895	8.497375	0.196000	1.166488	0.655997	-0.409424	1.002930	-0.536377	0.530150	-0.240619	0.085533	-0.808535
28425		4.045933	-3.988514	8.567591	0.181161	1.158791	0.648719	-0.375488	0.995361	-0.542480	0.534062	-0.231459	0.090846	-0.808054
28426		3.860655	-3.752755	8.461459	0.117620	1.157109	0.643668	-0.358154	0.991943	-0.554688	0.537749	-0.222572	0.096556	-0.807443
28427		3.483630	-3.813300	8.281419	0.084629	1.137040	0.637644	-0.326904	0.984375	-0.556152	0.541282	-0.213949	0.102372	-0.806697
28428		3.176820	-3.855305	8.195214	0.128675	1.097796	0.617658	-0.315186	0.967041	-0.570068	0.544727	-0.205387	0.107665	-0.805914
28429		2.800252	-3.771688	8.270110	0.190215	1.053477	0.593219	-0.287842	0.972168	-0.567383	0.548092	-0.196845	0.112288	-0.805133
28430		2.512281	-3.625728	8.349554	0.231478	0.999052	0.584241	-0.270508	0.968506	-0.577148	0.551457	-0.188471	0.116356	-0.804261
28431		2.355707	-3.233934	8.579332	0.180851	0.963790	0.598940	-0.251953	0.964355	-0.582275	0.554820	-0.180536	0.120612	-0.803140
28432		1.955478	-3.468210	8.633994	0.111745	0.913641	0.603751	-0.227539	0.949951	-0.591309	0.558111	-0.173237	0.125092	-0.801781
28433		2.025045	-3.625443	8.744223	0.151774	0.889650	0.566037	-0.204102	0.951904	-0.600098	0.561186	-0.165937	0.129125	-0.800539
28434		2.006657	-3.584059	8.934262	0.192648	0.922327	0.542290	-0.189697	0.945068	-0.601807	0.564076	-0.158242	0.132993	-0.799431
28435		1.742967	-3.694042	8.923401	0.242410	0.951527	0.529715	-0.175537	0.935791	-0.605225	0.566866	-0.150122	0.136635	-0.798409
28436		1.644056	-3.435864	8.882039	0.272592	0.979137	0.475464	-0.150146	0.932617	-0.618408	0.569250	-0.141726	0.140126	-0.797642
28437		1.438661	-3.123283	8.928033	0.190463	1.023937	0.406822	-0.136475	0.921143	-0.624512	0.570976	-0.133491	0.144278	-0.797089
28438		1.002130	-3.292910	8.928914	0.030450	1.051465	0.362039	-0.128418	0.917969	-0.624268	0.572143	-0.125878	0.149558	-0.796517
28439		0.606446	-3.859102	8.890519	-0.075149	1.044065	0.328317	-0.106689	0.916992	-0.629883	0.572934	-0.118851	0.155453	-0.795899
28440		0.279375	-4.345762	8.956959	-0.080261	1.002528	0.323763	-0.101562	0.906738	-0.625000	0.573697	-0.112121	0.161166	-0.795189
28441		0.020327	-4.877113	9.141377	-0.007139	0.942390	0.382860	-0.079590	0.909424	-0.627930	0.574955	-0.105354	0.166151	-0.794179
28442		-0.015529	-4.979992	9.378747	0.140646	0.908551	0.430637	-0.070801	0.906738	-0.630859	0.576664	-0.098032	0.170027	-0.793057
28443		-0.106033	-4.648377	9.603147	0.203438	0.922231	0.466102	-0.043701	0.904541	-0.627930	0.578594	-0.090263	0.173571	-0.791805
28444		-0.431280	-4.493686	9.705910	0.168236	0.944298	0.524622	-0.027344	0.893555	-0.640137	0.580804	-0.082428	0.177484	-0.790172
28445		-0.574675	-4.496744	9.617925	0.131179	0.962213	0.587859	-0.016846	0.885498	-0.625977	0.583327	-0.074555	0.181756	-0.788122
28446		-0.703794	-4.397159	9.528795	0.139333	0.980020	0.627151	0.006592	0.880859	-0.630127	0.586030	-0.066461	0.186069	-0.785831
28447		-0.769778	-4.292310	9.430218	0.181758	0.988398	0.657910	0.022461	0.871094	-0.638672	0.588886	-0.058052	0.190143	-0.783383
28448		-0.873478	-4.041353	9.411456	0.239456	1.002410	0.648161	0.045166	0.868164	-0.643311	0.591623	-0.049280	0.193885	-0.781001
28449		-0.898342	-3.526036	9.482547	0.228051	1.027158	0.617228	0.055908	0.860352	-0.651611	0.594051	-0.040450	0.197790	-0.778682
28450		-1.125104	-3.260694	9.365301	0.113977	1.050458	0.617573	0.082275	0.850098	-0.639404	0.596342	-0.032030	0.202528	-0.776101
28451		-1.290511	-3.489187	9.021325	0.074370	1.039879	0.617201	0.095703	0.847900	-0.645752	0.598574	-0.023874	0.207446	-0.773372
28452		-1.419799	-3.561094	8.822069	0.152659	1.020470	0.598319	0.114014	0.846924	-0.647705	0.600673	-0.015484	0.211736	-0.770792
28453		-1.373592	-3.319300	8.760172	0.235629	1.022218	0.560159	0.134033	0.838623	-0.650879	0.602473	-0.006735	0.215475	-0.768473
28454		-1.680916	-3.109068	8.766322	0.231307	1.036079	0.523164	0.151611	0.828857	-0.644775	0.603952	0.002013	0.219286	-0.766259
28455		-2.156898	-2.972729	8.768125	0.162090	1.023877	0.485504	0.171631	0.812988	-0.652344	0.605155	0.010264	0.223455	-0.764036
28456		-2.469742	-3.272228	8.665720	0.115392	0.960191	0.475178	0.185059	0.817383	-0.649414	0.606362	0.017853	0.227580	-0.761718
28457		-2.489621	-3.322812	8.819881	0.123811	0.923439	0.459492	0.194580	0.809814	-0.649170	0.607490	0.025220	0.231450	-0.759441
28458		-2.726812	-3.298434	9.039920	0.090752	0.928006	0.440653	0.207764	0.799072	-0.646484	0.608451	0.032408	0.235538	-0.757139
28459		-2.724159	-3.235742	9.031889	0.023191	0.944157	0.442460	0.234619	0.806152	-0.635498	0.609363	0.039356	0.240114	-0.754634
28460		-2.554366	-3.023583	8.828381	-0.082632	0.987172	0.477134	0.244141	0.798096	-0.641357	0.610392	0.046101	0.245542	-0.751668
28461		-2.931689	-3.224012	8.255761	-0.106741	0.989474	0.537829	0.263916	0.796143	-0.644531	0.611753	0.052857	0.251086	-0.748278
28462		-3.116239	-3.169135	7.929085	0.017134	0.952269	0.503307	0.277344	0.793701	-0.620117	0.612868	0.059934	0.255661	-0.745277
28463		-3.075171	-2.766846	7.791753	0.075926	0.924604	0.455858	0.291992	0.786621	-0.621338	0.613670	0.067031	0.259733	-0.742600
28464		-3.092575	-2.733580	7.512984	0.030916	0.916658	0.451843	0.301758	0.778076	-0.629150	0.614444	0.073835	0.264025	-0.739796
28465		-3.154483	-2.756923	7.057414	0.008361	0.896966	0.454509	0.313232	0.776367	-0.621582	0.615247	0.080401	0.268333	-0.736888
28466		-3.588395	-2.771991	6.571521	0.049482	0.815976	0.470260	0.326904	0.766602	-0.618652	0.616259	0.086710	0.271944	-0.733998
28467		-3.726680	-2.527107	6.154029	0.152115	0.672732	0.462908	0.348145	0.763672	-0.617432	0.617442	0.092647	0.274183	-0.731441
28468		-3.531186	-1.768084	6.101283	0.159012	0.573154	0.427301	0.351318	0.763184	-0.621582	0.618603	0.097927	0.275885	-0.729128
28469		-3.706587	-1.354126	6.020386	0.019052	0.507678	0.394510	0.367188	0.757080	-0.613770	0.619809	0.102011	0.278116	-0.726692
28470		-4.066382	-1.670922	5.763129	-0.051398	0.371309	0.369886	0.370850	0.759766	-0.610352	0.621228	0.104847	0.280082	-0.724319
28471		-3.661819	-1.688698	5.672969	0.049773	0.235674	0.308333	0.380127	0.748779	-0.610840	0.622493	0.107245	0.280785	-0.722606
28472		-3.679349	-1.046874	5.804629	0.081156	0.185048	0.206725	0.390137	0.754883	-0.615967	0.623233	0.109263	0.281125	-0.721534
28473		-4.160612	-0.879368	5.858892	0.011449	0.090737	0.084289	0.390869	0.752197	-0.606934	0.623519	0.110067	0.281503	-0.721017
28474		-4.046422	-1.070497	6.087818	-0.083456	-0.009524	-0.019539	0.384277	0.755371	-0.604736	0.623504	0.109535	0.282024	-0.720908
28475		-3.714636	-1.402645	6.349817	-0.183513	-0.041781	-0.055952	0.375488	0.747314	-0.606689	0.623437	0.108205	0.283009	-0.720780
28476		-3.742804	-1.822304	6.150538	-0.160532	-0.065714	-0.044055	0.386719	0.758789	-0.610840	0.623476	0.106880	0.283719	-0.720665
28477		-3.806560	-1.721253	6.092096	-0.028899	-0.135437	-0.081606	0.388428	0.752686	-0.601318	0.623336	0.105732	0.283308	-0.721117
28478		-3.534781	-1.191525	6.075507	0.007231	-0.180426	-0.151554	0.379150	0.755615	-0.607178	0.622849	0.104336	0.282507	-0.722055
28479		-3.358284	-0.996324	5.809092	-0.064652	-0.205345	-0.241819	0.367188	0.761963	-0.604248	0.621937	0.102206	0.282084	-0.723310
28480		-3.152715	-0.873797	5.447123	-0.197246	-0.233801	-0.347711	0.362061	0.760254	-0.611816	0.620560	0.098968	0.282397	-0.724819
28481		-3.407123	-1.313195	5.232947	-0.341409	-0.291691	-0.407886	0.352295	0.769287	-0.598877	0.619064	0.094493	0.283324	-0.726332
28482		-3.826069	-2.543492	5.137348	-0.267459	-0.459570	-0.425935	0.349365	0.776367	-0.603760	0.617779	0.089340	0.282943	-0.728225
28483		-3.812678	-2.917799	5.428322	-0.000217	-0.666389	-0.478616	0.334473	0.786865	-0.600586	0.616439	0.084179	0.279905	-0.731143
28484		-3.418803	-2.456799	5.955525	0.125292	-0.819027	-0.541905	0.315186	0.793945	-0.603760	0.614945	0.078581	0.275350	-0.734744
28485		-3.195577	-2.223875	6.335636	-0.006089	-0.917469	-0.540299	0.301270	0.791504	-0.618408	0.613729	0.071704	0.271074	-0.738047
28486		-3.280604	-2.942489	6.493593	-0.112159	-1.050481	-0.467970	0.292969	0.797607	-0.614014	0.613270	0.063624	0.266704	-0.740757
28487		-3.123172	-3.217088	6.878311	-0.042027	-1.196682	-0.442834	0.274414	0.802002	-0.621582	0.613191	0.055048	0.261114	-0.743496
28488		-2.800109	-3.096624	7.471507	0.051532	-1.301919	-0.475500	0.253418	0.800537	-0.633545	0.613020	0.046219	0.254390	-0.746563
28489		-2.620437	-2.860984	8.128811	0.039504	-1.360212	-0.554259	0.235596	0.806641	-0.629883	0.612401	0.036791	0.247437	-0.749924
28490		-2.262054	-2.691725	8.628178	-0.098529	-1.375842	-0.633976	0.212646	0.818115	-0.635498	0.611264	0.026389	0.241251	-0.753298
28491		-1.962797	-3.005730	8.851582	-0.288888	-1.368440	-0.668751	0.187256	0.819824	-0.630615	0.609837	0.014988	0.236264	-0.756342
28492		-1.644726	-3.321397	8.935107	-0.423708	-1.337071	-0.684320	0.163330	0.829590	-0.621826	0.608165	0.003065	0.232246	-0.759070
28493		-1.521535	-3.697374	8.939585	-0.446019	-1.309234	-0.703619	0.141602	0.843262	-0.623535	0.606215	-0.008836	0.228470	-0.761726
28494		-1.553908	-4.144649	8.870418	-0.355469	-1.313945	-0.730718	0.125732	0.855469	-0.617188	0.604008	-0.020362	0.224053	-0.764565
28495		-1.395341	-4.379896	9.027831	-0.194153	-1.339437	-0.762876	0.094971	0.857910	-0.620361	0.601570	-0.031298	0.218437	-0.767737
28496		-0.982566	-4.232701	9.278829	-0.119960	-1.307947	-0.785877	0.073730	0.865479	-0.614990	0.598847	-0.041700	0.212462	-0.771040
28497		-0.895179	-4.289631	9.375253	-0.156307	-1.255386	-0.783828	0.048828	0.870605	-0.618164	0.595937	-0.051939	0.206949	-0.774166
28498		-0.918332	-4.540405	9.205757	-0.186741	-1.245355	-0.731815	0.032471	0.877686	-0.622803	0.593243	-0.062169	0.201672	-0.776870
28499		-0.593123	-4.666635	8.990528	-0.147574	-1.263862	-0.612192	0.012939	0.890625	-0.610596	0.591289	-0.072117	0.196084	-0.778927
28500		-0.123409	-4.406317	8.968911	-0.081451	-1.241359	-0.502601	-0.008789	0.887207	-0.617676	0.589971	-0.081408	0.190218	-0.780464
28501		0.018657	-4.105748	8.905737	-0.032891	-1.187616	-0.496419	-0.019531	0.900146	-0.604004	0.588571	-0.090093	0.184281	-0.781990
28502		0.033039	-3.686221	8.830598	-0.045294	-1.169453	-0.546321	-0.045410	0.901367	-0.604492	0.586740	-0.098789	0.178455	-0.783665
28503		0.095858	-3.709320	8.975840	-0.163282	-1.164633	-0.547727	-0.059814	0.910400	-0.605469	0.584727	-0.108022	0.173400	-0.785085
28504		0.299349	-4.125419	9.135828	-0.257738	-1.166391	-0.547097	-0.077637	0.920166	-0.586914	0.582566	-0.117714	0.168933	-0.786271
28505		0.600642	-4.622478	9.013403	-0.201685	-1.180305	-0.580654	-0.100342	0.916748	-0.590576	0.580190	-0.127259	0.163977	-0.787589
28506		1.086576	-4.438675	9.108333	-0.132547	-1.157113	-0.593462	-0.119141	0.926025	-0.583252	0.577700	-0.136321	0.158646	-0.788993
28507		1.142962	-4.471371	9.206703	-0.139678	-1.153830	-0.550136	-0.144531	0.931396	-0.580811	0.575415	-0.145325	0.153408	-0.790091
28508		1.367778	-4.519421	9.076975	-0.118462	-1.187761	-0.501483	-0.165771	0.942383	-0.576660	0.573453	-0.154373	0.147908	-0.790850
28509		1.673260	-4.468939	8.935400	-0.040807	-1.225496	-0.502438	-0.178711	0.948242	-0.574951	0.571563	-0.163284	0.141698	-0.791566
28510		2.050091	-4.074583	9.004608	0.002846	-1.226610	-0.544808	-0.191650	0.946777	-0.570801	0.569383	-0.172025	0.135118	-0.792436
28511		2.005388	-4.103943	9.096865	-0.038209	-1.240444	-0.555157	-0.225098	0.960449	-0.567871	0.567018	-0.181044	0.128710	-0.793188
28512		2.237705	-4.326514	9.155405	-0.054045	-1.285326	-0.541781	-0.240479	0.961914	-0.553955	0.564692	-0.190398	0.122197	-0.793687
28513		2.779431	-4.245429	9.368379	-0.062848	-1.293874	-0.550912	-0.258545	0.966797	-0.554199	0.562222	-0.199834	0.115670	-0.794099
28514		3.217137	-4.000302	9.533072	-0.148000	-1.244466	-0.584496	-0.286133	0.975830	-0.543701	0.559265	-0.209348	0.109865	-0.794560
28515		3.255865	-4.045236	9.423536	-0.277889	-1.196447	-0.617621	-0.310303	0.978760	-0.531494	0.555743	-0.219154	0.105070	-0.795036
28516		3.278855	-4.377350	9.163274	-0.341480	-1.189788	-0.636563	-0.328613	0.995361	-0.521729	0.551898	-0.229199	0.100676	-0.795450
28517		3.716138	-4.457349	8.968437	-0.318681	-1.187279	-0.653715	-0.353027	0.989502	-0.501709	0.547907	-0.239106	0.096095	-0.795859
28518		3.903144	-4.471074	8.844700	-0.301926	-1.159959	-0.681792	-0.372803	1.006836	-0.492920	0.543667	-0.248748	0.091458	-0.796358
28519		3.917090	-4.384787	8.836159	-0.322554	-1.130315	-0.704636	-0.396729	1.008057	-0.472412	0.539138	-0.258273	0.087031	-0.796901
28520		3.945519	-4.478848	8.736460	-0.399175	-1.098003	-0.691962	-0.420410	1.008545	-0.470215	0.534434	-0.267885	0.083274	-0.797298
28521		3.912892	-4.803461	8.425497	-0.408440	-1.103293	-0.645231	-0.436523	1.012207	-0.441406	0.529955	-0.277508	0.079648	-0.797366
28522		4.083045	-4.894386	8.178941	-0.313224	-1.126281	-0.583766	-0.465332	1.019775	-0.425049	0.526056	-0.286790	0.075421	-0.797075
28523		4.366084	-4.549342	8.197542	-0.200680	-1.126222	-0.549327	-0.478516	1.024902	-0.417480	0.522593	-0.295523	0.070521	-0.796611
28524		4.465196	-4.217373	8.204589	-0.172551	-1.102453	-0.551675	-0.502686	1.026367	-0.413086	0.519112	-0.303946	0.065524	-0.796144
28525		4.562428	-3.985037	8.182972	-0.210328	-1.080476	-0.571940	-0.529297	1.034424	-0.389893	0.515333	-0.312365	0.060814	-0.795714
28526		4.645447	-4.164456	8.263854	-0.303042	-1.044152	-0.576332	-0.545166	1.035889	-0.372314	0.511210	-0.320910	0.056856	-0.795266
28527		4.856781	-4.506118	8.040378	-0.320470	-1.033757	-0.559897	-0.562012	1.037598	-0.360596	0.507092	-0.329418	0.053095	-0.794684
28528		4.918285	-4.660806	7.897951	-0.229775	-1.028197	-0.535004	-0.586182	1.036865	-0.346924	0.503333	-0.337462	0.048821	-0.793972
28529		4.871523	-4.755985	7.764616	-0.074252	-1.040545	-0.490535	-0.606201	1.036865	-0.325439	0.500264	-0.344884	0.043587	-0.793026
28530		4.867376	-4.570635	7.789411	0.096230	-1.063748	-0.464115	-0.623535	1.031982	-0.316895	0.497822	-0.351707	0.037203	-0.791891
28531		5.176313	-4.168991	7.978387	0.178293	-1.063114	-0.431572	-0.634277	1.036621	-0.307129	0.495789	-0.358142	0.030374	-0.790572
28532		5.407444	-3.976356	8.011975	0.154027	-1.021507	-0.391867	-0.651855	1.032471	-0.295166	0.493892	-0.364360	0.023992	-0.789137
28533		5.459447	-4.105990	8.012857	0.141398	-0.989361	-0.386710	-0.667236	1.022217	-0.286621	0.491943	-0.370385	0.017840	-0.787711
28534		5.716821	-3.958922	8.106270	0.125660	-0.959591	-0.407487	-0.677002	1.027588	-0.267578	0.489767	-0.376252	0.011848	-0.786398
28535		6.031578	-3.819739	8.174554	0.037805	-0.897685	-0.401438	-0.705811	1.028809	-0.248779	0.487315	-0.382043	0.006702	-0.785189
28536		6.027724	-4.045266	7.952805	-0.031343	-0.835847	-0.386669	-0.717285	1.021240	-0.238525	0.484706	-0.387683	0.002307	-0.784064
28537		5.997433	-4.288184	7.807776	-0.005292	-0.805078	-0.382282	-0.718506	1.022705	-0.227783	0.482182	-0.392993	-0.002120	-0.782977
28538		5.961018	-4.328326	7.816604	0.048355	-0.781102	-0.366354	-0.737305	1.014404	-0.213623	0.479913	-0.397908	-0.006747	-0.781861
28539		5.954043	-4.371050	7.834063	0.087063	-0.762336	-0.319446	-0.748047	1.013184	-0.204590	0.478057	-0.402528	-0.011394	-0.780579
28540		6.056320	-4.250282	7.753070	0.115719	-0.727893	-0.284468	-0.763672	1.004639	-0.198242	0.476507	-0.406792	-0.015970	-0.779234
28541		6.048329	-4.144434	7.618218	0.137377	-0.686928	-0.270607	-0.768066	1.003662	-0.190186	0.475108	-0.410687	-0.020475	-0.777939
28542		6.072762	-4.000143	7.648086	0.126567	-0.654434	-0.255578	-0.776855	1.000977	-0.174561	0.473759	-0.414400	-0.024727	-0.776668
28543		6.138547	-4.015712	7.640927	0.086924	-0.614910	-0.233280	-0.779297	0.991455	-0.170410	0.472411	-0.418002	-0.028488	-0.775429
28544		6.217930	-4.063227	7.552445	0.061120	-0.556434	-0.229826	-0.788330	0.989990	-0.152344	0.470998	-0.421315	-0.031837	-0.774365
28545		6.312145	-3.972395	7.492532	0.040076	-0.494112	-0.234796	-0.798340	0.977051	-0.155273	0.469486	-0.424294	-0.034820	-0.773527
28546		6.464706	-3.959734	7.399317	-0.011381	-0.406584	-0.211776	-0.805908	0.980713	-0.148193	0.467959	-0.426908	-0.037046	-0.772911
28547		6.377478	-3.978070	7.296090	-0.059702	-0.328719	-0.202427	-0.803711	0.981934	-0.129883	0.466340	-0.429204	-0.038621	-0.772541
28548		6.278969	-4.108467	7.112134	-0.062125	-0.291069	-0.201452	-0.811279	0.974121	-0.134766	0.464728	-0.431261	-0.040030	-0.772295
28549		6.187405	-4.171050	7.007696	-0.044727	-0.271607	-0.175513	-0.816895	0.962158	-0.125000	0.463349	-0.433129	-0.041379	-0.772007
28550		5.946692	-4.288941	6.981141	0.006625	-0.267406	-0.116399	-0.818115	0.971436	-0.123047	0.462536	-0.434788	-0.042826	-0.771483
28551		6.039406	-4.119127	7.282481	0.046103	-0.283641	-0.060098	-0.812744	0.962891	-0.115479	0.462222	-0.436414	-0.044383	-0.770665
28552		6.287852	-4.007861	7.553762	0.034171	-0.260860	-0.003319	-0.822021	0.968750	-0.105713	0.462236	-0.437955	-0.045566	-0.769712
28553		6.588758	-4.122327	7.684989	0.030378	-0.180886	0.032056	-0.824219	0.956055	-0.113037	0.462495	-0.439008	-0.046285	-0.768914
28554		6.756252	-3.899230	7.778197	0.013014	-0.047062	0.042472	-0.825195	0.965576	-0.109863	0.462809	-0.439270	-0.046337	-0.768572
28555		6.702318	-3.770092	7.552099	-0.015032	0.082673	0.056562	-0.821777	0.962891	-0.106934	0.463162	-0.438812	-0.045656	-0.768661
28556		6.532525	-3.767384	7.272452	-0.007875	0.163976	0.045589	-0.809570	0.964111	-0.116699	0.463503	-0.437798	-0.044746	-0.769087
28557		6.536934	-3.658798	7.124266	0.018342	0.199926	0.024011	-0.813721	0.965820	-0.115967	0.463814	-0.436441	-0.043942	-0.769717
28558		6.649038	-3.409649	7.109514	-0.029626	0.232705	0.017463	-0.818604	0.965820	-0.123047	0.463921	-0.435054	-0.042726	-0.770507
28559		6.521851	-3.600283	6.889205	-0.089073	0.271448	0.036559	-0.819336	0.969727	-0.125244	0.463946	-0.433650	-0.040909	-0.771381
28560		6.318904	-3.892460	6.690623	-0.045813	0.287244	0.039737	-0.806152	0.966309	-0.130859	0.464152	-0.431974	-0.039296	-0.772281
28561		6.495339	-3.723124	6.771349	0.014473	0.288252	0.050884	-0.804932	0.968262	-0.129639	0.464645	-0.430058	-0.038025	-0.773117
28562		6.677600	-3.588201	6.755986	-0.001333	0.328268	0.085852	-0.804443	0.961670	-0.143799	0.465316	-0.427953	-0.036371	-0.773960
28563		6.483736	-3.730807	6.603333	-0.001530	0.360275	0.100071	-0.802002	0.975830	-0.146484	0.466084	-0.425641	-0.034540	-0.774856
28564		6.339578	-3.726307	6.523177	0.038645	0.372560	0.103187	-0.802246	0.977539	-0.153076	0.467014	-0.423090	-0.032909	-0.775764
28565		6.377059	-3.599240	6.551452	0.053314	0.379383	0.115888	-0.796875	0.974854	-0.163330	0.468075	-0.420436	-0.031300	-0.776634
28566		6.338241	-3.548898	6.550459	0.033426	0.387067	0.141898	-0.794189	0.975098	-0.165527	0.469231	-0.417811	-0.029439	-0.777425
28567		6.063405	-3.651662	6.465703	0.041911	0.364965	0.155874	-0.797119	0.981445	-0.171143	0.470496	-0.415294	-0.027671	-0.778074
28568		5.889468	-3.537900	6.665255	0.060927	0.323878	0.161529	-0.784668	0.985352	-0.170166	0.471850	-0.412966	-0.026167	-0.778545
28569		6.024060	-3.478132	6.978761	0.028313	0.301358	0.166249	-0.789062	0.994141	-0.186523	0.473113	-0.410908	-0.024522	-0.778921
28570		6.106167	-3.662572	7.162842	-0.006462	0.322143	0.183860	-0.787598	0.991699	-0.192627	0.474372	-0.408851	-0.022509	-0.779298
28571		6.090718	-3.890970	7.311259	0.023791	0.348429	0.190305	-0.777344	0.992188	-0.197021	0.475776	-0.406499	-0.020565	-0.779726
28572		6.086692	-3.909664	7.488123	0.061800	0.380672	0.196152	-0.773682	0.994629	-0.204102	0.477347	-0.403782	-0.018720	-0.780224
28573		6.094510	-3.875435	7.579246	0.081504	0.419910	0.227310	-0.760010	1.001709	-0.213379	0.479186	-0.400729	-0.016741	-0.780715
28574		6.019029	-3.749467	7.679431	0.078945	0.492761	0.244027	-0.757324	1.007080	-0.231445	0.481127	-0.397205	-0.014397	-0.781369
28575		5.739421	-3.812888	7.681633	0.076310	0.549484	0.252528	-0.743896	1.012695	-0.239014	0.483110	-0.393312	-0.011779	-0.782158
28576		5.644729	-3.775469	7.674293	0.099639	0.607401	0.241684	-0.736816	1.002441	-0.247803	0.485092	-0.388934	-0.009115	-0.783156
28577		5.438102	-3.772962	7.729165	0.093078	0.655119	0.239440	-0.735352	1.015625	-0.265137	0.487025	-0.384257	-0.006222	-0.784292
28578		5.171369	-3.864762	7.808753	0.074827	0.684770	0.245361	-0.718750	1.028809	-0.269775	0.488923	-0.379444	-0.003069	-0.785472
28579		4.996250	-4.047050	7.936054	0.077917	0.695095	0.244046	-0.714844	1.020020	-0.291504	0.490804	-0.374535	0.000103	-0.786661
28580		5.007923	-4.151094	8.125710	0.074316	0.718387	0.262876	-0.699463	1.026367	-0.298584	0.492778	-0.369471	0.003455	-0.787813
28581		5.292133	-4.249022	8.287136	0.058414	0.762178	0.305521	-0.692383	1.031494	-0.308838	0.494961	-0.364165	0.007223	-0.788889
28582		5.371158	-4.415541	8.326708	0.052824	0.828362	0.362320	-0.680664	1.032227	-0.325195	0.497470	-0.358423	0.011474	-0.789889
28583		5.189653	-4.627517	8.311362	0.112484	0.873937	0.400914	-0.663574	1.040039	-0.339600	0.500377	-0.352107	0.015637	-0.790822
28584		4.939645	-4.563270	8.407756	0.213247	0.891085	0.438047	-0.652832	1.039551	-0.359131	0.503787	-0.345228	0.019317	-0.791608
28585		4.710464	-4.601548	8.558081	0.294939	0.879451	0.486835	-0.626465	1.045654	-0.377441	0.507718	-0.338047	0.022549	-0.792110
28586		4.894295	-4.445482	8.802290	0.352450	0.880331	0.525521	-0.604248	1.039307	-0.395508	0.512026	-0.330583	0.025515	-0.792397
28587		5.059650	-4.441189	9.053772	0.357961	0.918204	0.556809	-0.582275	1.041016	-0.409912	0.516504	-0.322808	0.028690	-0.792588
28588		4.989930	-4.540245	9.151613	0.369504	0.968951	0.565589	-0.562500	1.041260	-0.432617	0.521009	-0.314615	0.032029	-0.792806
28589		5.088762	-4.447846	9.245014	0.366492	1.042700	0.567608	-0.539551	1.034424	-0.442139	0.525446	-0.305915	0.035711	-0.793125
28590		5.074081	-4.406079	9.264555	0.326507	1.131660	0.591881	-0.520020	1.037842	-0.461426	0.529854	-0.296759	0.040104	-0.793461
28591		4.968547	-4.587450	9.184905	0.329116	1.192985	0.602719	-0.495361	1.023926	-0.482422	0.534250	-0.287145	0.044772	-0.793801
28592		4.885725	-4.510503	9.121261	0.364998	1.219193	0.575650	-0.470215	1.020752	-0.497559	0.538471	-0.277170	0.049249	-0.794230
28593		4.772100	-4.226288	9.055449	0.335254	1.227148	0.556293	-0.446777	1.016602	-0.508545	0.542416	-0.267248	0.053906	-0.794643
28594		4.515884	-4.094394	9.025242	0.231746	1.232670	0.572312	-0.416748	1.015869	-0.527100	0.546161	-0.257715	0.059302	-0.794842
28595		4.247881	-4.170615	8.934417	0.158875	1.228941	0.592872	-0.399658	1.000488	-0.533691	0.549813	-0.248496	0.065198	-0.794798
28596		4.135174	-4.222458	8.824241	0.160534	1.217044	0.601206	-0.376709	1.001465	-0.539551	0.553456	-0.239313	0.071037	-0.794587
28597		4.016456	-4.177873	8.709297	0.212194	1.205901	0.605206	-0.351074	0.987549	-0.562500	0.557162	-0.229933	0.076480	-0.794262
28598		3.808166	-3.962788	8.635953	0.263203	1.196304	0.601012	-0.326416	0.977051	-0.564941	0.560870	-0.220355	0.081522	-0.793866
28599		3.559533	-3.726356	8.567337	0.275881	1.181682	0.589929	-0.304932	0.970215	-0.578857	0.564463	-0.210796	0.086380	-0.793401
28600		3.386402	-3.496349	8.511212	0.247499	1.161281	0.578590	-0.282959	0.967773	-0.586914	0.567874	-0.201490	0.091297	-0.792834
28601		3.259165	-3.306710	8.416184	0.194245	1.146669	0.550287	-0.272705	0.965576	-0.585449	0.570951	-0.192531	0.096436	-0.792241
28602		2.861492	-3.318445	8.315775	0.151629	1.119938	0.522834	-0.240723	0.950684	-0.591309	0.573734	-0.183955	0.101673	-0.791614
28603		2.459160	-3.476931	8.339544	0.148904	1.069292	0.511483	-0.219238	0.944336	-0.608887	0.576420	-0.175718	0.106655	-0.790878
28604		2.355634	-3.542355	8.387290	0.189300	1.018923	0.504404	-0.200684	0.937256	-0.601318	0.579107	-0.167610	0.111107	-0.790062
28605		2.261949	-3.548030	8.434375	0.241489	0.996938	0.488835	-0.181641	0.936279	-0.625732	0.581729	-0.159396	0.115076	-0.789266
28606		2.002969	-3.367510	8.486987	0.253503	0.991918	0.456095	-0.163574	0.923828	-0.627197	0.584105	-0.151176	0.118887	-0.788564
28607		1.790263	-3.195990	8.536537	0.191677	0.996685	0.420763	-0.150391	0.921387	-0.629395	0.586114	-0.143249	0.123071	-0.787911
28608		1.388142	-3.330633	8.461162	0.099604	0.979969	0.399837	-0.133545	0.917480	-0.637695	0.587844	-0.135893	0.127741	-0.787181
28609		1.014700	-3.646503	8.540402	0.075602	0.937407	0.379877	-0.120117	0.905273	-0.632812	0.589416	-0.128946	0.132327	-0.786417
28610		0.824511	-3.876572	8.673871	0.100111	0.888694	0.372923	-0.104980	0.899170	-0.640625	0.590982	-0.122199	0.136496	-0.785606
28611		0.559613	-4.004259	8.891063	0.119727	0.846135	0.396021	-0.096680	0.895508	-0.644043	0.592728	-0.115600	0.140342	-0.784611
28612		0.428586	-4.102203	9.093666	0.162442	0.795706	0.437798	-0.073242	0.889648	-0.637939	0.594811	-0.109066	0.143691	-0.783363
28613		0.415443	-3.985067	9.273450	0.184276	0.789074	0.474792	-0.072998	0.892090	-0.649902	0.597127	-0.102417	0.146890	-0.781903
28614		0.284982	-3.804981	9.319832	0.192141	0.804667	0.492889	-0.050781	0.884277	-0.652344	0.599510	-0.095600	0.150122	-0.780328
28615		0.115073	-3.651760	9.315476	0.183682	0.821384	0.516352	-0.033447	0.875244	-0.654297	0.601978	-0.088683	0.153501	-0.778586
28616		-0.146309	-3.659933	9.311880	0.204836	0.820198	0.548916	-0.024414	0.861084	-0.657227	0.604631	-0.081620	0.156750	-0.776652
28617		-0.216557	-3.675433	9.341036	0.287067	0.800535	0.559422	0.001221	0.853760	-0.667236	0.607390	-0.074251	0.159362	-0.774705
28618		-0.152297	-3.334418	9.446694	0.365409	0.810581	0.523432	0.012939	0.849854	-0.664795	0.609907	-0.066465	0.161486	-0.772993
28619		-0.136544	-2.896283	9.566006	0.327754	0.858970	0.503706	0.033691	0.848389	-0.671875	0.612164	-0.058580	0.164074	-0.771300
28620		-0.318708	-2.761225	9.428347	0.226420	0.913202	0.483830	0.041748	0.834717	-0.674316	0.614122	-0.050888	0.167565	-0.769536
28621		-0.742450	-2.899527	9.196213	0.174166	0.929410	0.453471	0.051025	0.829590	-0.673340	0.615792	-0.043398	0.171447	-0.767804
28622		-0.863811	-2.860069	9.207395	0.174537	0.920068	0.386233	0.069580	0.829102	-0.679688	0.617000	-0.036060	0.175240	-0.766356
28623		-0.823534	-2.571639	9.293786	0.095047	0.948975	0.306113	0.091064	0.819824	-0.677490	0.617585	-0.029060	0.179651	-0.765160
28624		-1.107117	-2.668406	9.240783	-0.066685	0.984318	0.256558	0.092285	0.820557	-0.672363	0.617718	-0.022741	0.185249	-0.763930
28625		-1.363857	-3.075772	9.067770	-0.188237	0.996936	0.248604	0.122559	0.822510	-0.664062	0.617712	-0.016978	0.191668	-0.762501
28626		-1.407292	-3.269432	8.842716	-0.205492	0.992715	0.248259	0.136719	0.821533	-0.666016	0.617660	-0.011331	0.198160	-0.760987
28627		-1.573342	-3.331893	8.560542	-0.172791	0.987234	0.256440	0.140625	0.810547	-0.660156	0.617625	-0.005537	0.204402	-0.759427
28628		-1.981869	-3.322764	8.358747	-0.108593	0.959763	0.258041	0.160889	0.813232	-0.656494	0.617605	0.000415	0.210080	-0.757912
28629		-2.302567	-3.440599	8.303246	-0.036170	0.885964	0.260266	0.172363	0.801758	-0.655518	0.617687	0.006277	0.214908	-0.756464
28630		-2.360259	-3.423643	8.386392	0.023217	0.819242	0.289375	0.186035	0.811035	-0.651611	0.618034	0.012074	0.219006	-0.754934
28631		-2.200028	-3.372945	8.512344	0.051002	0.807639	0.314212	0.192383	0.808350	-0.653320	0.618523	0.017985	0.222855	-0.753287
28632		-2.326333	-3.107115	8.501219	0.013729	0.825391	0.350550	0.206543	0.800049	-0.655029	0.619178	0.023881	0.227011	-0.751341
28633		-2.752805	-3.276888	8.308390	0.010813	0.804548	0.391760	0.228271	0.797852	-0.647217	0.620097	0.029707	0.231057	-0.749139
28634		-3.088177	-3.486002	8.283791	0.102655	0.746139	0.420047	0.237305	0.797363	-0.648193	0.621248	0.035695	0.234209	-0.746943
28635		-3.070847	-3.519734	8.580214	0.223166	0.716072	0.412274	0.239746	0.787842	-0.649658	0.622341	0.042102	0.236446	-0.744992
28636		-3.035936	-3.279091	8.779610	0.247725	0.738383	0.392578	0.256348	0.787598	-0.654053	0.623227	0.048732	0.238641	-0.743145
28637		-2.971626	-3.077482	8.729660	0.166417	0.782788	0.399351	0.262939	0.782227	-0.653076	0.624065	0.055225	0.241554	-0.741043
28638		-3.061260	-3.006769	8.318150	0.062526	0.825673	0.455360	0.288818	0.770020	-0.647705	0.625173	0.061551	0.245291	-0.738378
28639		-3.435724	-2.845513	7.905038	0.027326	0.810981	0.499272	0.299561	0.765869	-0.641602	0.626560	0.067688	0.249130	-0.735374
28640		-3.491524	-2.659425	7.582900	0.068815	0.746120	0.513476	0.301025	0.762939	-0.640381	0.628107	0.073668	0.252353	-0.732374
28641		-3.284186	-2.051402	7.313185	0.110250	0.694131	0.480674	0.324219	0.762451	-0.645264	0.629504	0.079475	0.255057	-0.729626
28642		-3.286068	-1.463066	6.895798	0.078204	0.652891	0.433828	0.329102	0.749512	-0.636719	0.630695	0.084761	0.257759	-0.727048
28643		-3.569743	-1.139718	6.416031	0.022072	0.567106	0.382542	0.345703	0.753906	-0.630615	0.631776	0.089118	0.260374	-0.724653
28644		-3.756541	-1.021035	6.196603	-0.008323	0.451176	0.268961	0.344238	0.752197	-0.635986	0.632428	0.092369	0.262639	-0.722857
28645		-3.780815	-0.856328	6.312575	-0.083191	0.363970	0.136078	0.364258	0.752441	-0.632324	0.632520	0.094410	0.264993	-0.721654
28646		-3.976296	-1.097679	6.284335	-0.192824	0.260745	0.033131	0.366455	0.753662	-0.623047	0.632300	0.095026	0.267540	-0.720825
28647		-4.310931	-2.090404	6.110422	-0.141363	0.104787	-0.046868	0.352295	0.749268	-0.623291	0.631905	0.094800	0.269017	-0.720652
28648		-4.026296	-2.230388	6.679697	-0.010135	-0.012348	-0.128555	0.365479	0.747314	-0.628174	0.631176	0.094379	0.269154	-0.721294
28649		-3.955213	-2.145556	7.257583	-0.059063	-0.027559	-0.111413	0.366699	0.750244	-0.619141	0.630623	0.093649	0.269491	-0.721747
28650		-4.236333	-2.543128	7.435978	-0.148263	-0.050863	-0.046384	0.362061	0.751221	-0.613770	0.630582	0.092455	0.270191	-0.721675
28651		-3.852858	-2.722699	7.351431	-0.120470	-0.060742	-0.004092	0.355713	0.758057	-0.619141	0.630795	0.091443	0.270640	-0.721450
28652		-3.770962	-2.351925	7.025516	-0.032444	-0.065371	0.033182	0.353516	0.748047	-0.621582	0.631174	0.090949	0.270506	-0.721231
28653		-3.875570	-2.261765	6.752776	0.111246	-0.108240	0.014287	0.351318	0.763428	-0.626465	0.631428	0.090910	0.269296	-0.721467
28654		-3.531149	-1.637504	6.953768	0.161553	-0.115383	-0.071418	0.349121	0.756104	-0.628906	0.631142	0.090900	0.267811	-0.722270
28655		-3.465145	-1.272647	6.795633	0.013509	-0.082391	-0.124679	0.353516	0.758789	-0.621094	0.630573	0.090192	0.267430	-0.722997
28656		-3.409209	-1.420191	6.136662	-0.150809	-0.090441	-0.127292	0.343018	0.758057	-0.628906	0.630129	0.088568	0.267995	-0.723375
28657		-3.760525	-2.082398	5.556626	-0.120030	-0.205945	-0.150626	0.341309	0.766357	-0.620361	0.629777	0.086356	0.267784	-0.724027
28658		-4.098663	-2.353713	5.686441	0.083772	-0.369845	-0.276029	0.332031	0.765381	-0.622314	0.628881	0.083946	0.265571	-0.725902
28659		-4.043757	-2.508670	6.360267	0.182539	-0.547396	-0.341223	0.325928	0.760498	-0.636719	0.627900	0.080834	0.261872	-0.728444
28660		-3.668530	-2.629167	6.781368	0.127906	-0.660296	-0.276672	0.317627	0.767334	-0.639160	0.627573	0.076889	0.257863	-0.730580
28661		-3.627619	-2.830524	6.951437	0.068112	-0.741566	-0.178704	0.311279	0.764648	-0.638672	0.628031	0.072344	0.253721	-0.732099
28662		-3.631121	-2.652980	7.117286	0.071479	-0.841460	-0.157662	0.297119	0.764404	-0.635010	0.628798	0.067247	0.249012	-0.733542
28663		-3.576437	-2.591121	7.410469	0.114582	-0.955161	-0.198947	0.294678	0.763184	-0.643311	0.629488	0.061592	0.243453	-0.735311
28664		-3.145947	-2.391820	7.856677	0.136064	-1.026841	-0.263426	0.281738	0.777832	-0.654785	0.629871	0.055475	0.237402	-0.737445
28665		-2.975543	-2.305317	8.481400	0.056808	-1.023055	-0.322795	0.262207	0.774414	-0.652588	0.629869	0.048843	0.231866	-0.739674
28666		-2.947996	-2.329379	8.884207	-0.109704	-1.026466	-0.355829	0.233398	0.779297	-0.656494	0.629687	0.041248	0.227332	-0.741696
28667		-2.478293	-2.591000	8.832168	-0.226465	-1.037886	-0.387930	0.231934	0.783691	-0.659424	0.629315	0.032905	0.223450	-0.743606
28668		-2.131071	-2.560740	8.751579	-0.281848	-1.019370	-0.430812	0.208496	0.789307	-0.658691	0.628602	0.024303	0.219998	-0.745567
28669		-2.171848	-2.788374	8.753019	-0.301587	-1.027497	-0.463409	0.196533	0.805420	-0.659912	0.627646	0.015484	0.216612	-0.747596
28670		-2.141321	-3.092652	8.857379	-0.260423	-1.079586	-0.506178	0.185791	0.812500	-0.656006	0.626451	0.006476	0.212679	-0.749856
28671		-1.703926	-3.142233	9.055235	-0.224369	-1.110576	-0.557274	0.154541	0.809082	-0.653076	0.624923	-0.002629	0.208339	-0.752369
28672		-1.260409	-3.018951	9.178259	-0.275963	-1.088370	-0.585714	0.147461	0.817383	-0.647705	0.623107	-0.011915	0.204413	-0.754858
28673		-1.015452	-3.028895	9.092569	-0.378016	-1.053789	-0.613782	0.122559	0.825684	-0.643555	0.620976	-0.021560	0.201281	-0.757238
28674		-0.962532	-3.030139	8.907036	-0.500584	-1.026020	-0.624743	0.103271	0.831787	-0.643066	0.618635	-0.031682	0.199039	-0.759388
28675		-1.180818	-3.529316	8.709229	-0.540711	-1.066654	-0.602948	0.084229	0.848877	-0.638184	0.616413	-0.042229	0.196822	-0.761257
28676		-0.846512	-3.932118	8.692234	-0.423183	-1.129344	-0.613129	0.065674	0.849854	-0.631348	0.614194	-0.052583	0.193509	-0.763253
28677		-0.239380	-3.745805	8.793534	-0.304649	-1.106258	-0.648237	0.041748	0.860107	-0.623047	0.611689	-0.062235	0.189520	-0.765536
28678		-0.199558	-3.475643	8.814980	-0.323153	-1.030367	-0.679467	0.026367	0.870361	-0.622314	0.608783	-0.071541	0.185997	-0.767900
28679		-0.640557	-3.501629	8.765728	-0.429617	-1.012996	-0.659562	0.008057	0.886475	-0.619873	0.605845	-0.081239	0.183233	-0.769920
28680		-0.720656	-4.050324	8.729543	-0.462743	-1.080311	-0.592074	-0.007568	0.886963	-0.615723	0.603350	-0.091423	0.180365	-0.771414
28681		-0.266957	-4.389382	8.882553	-0.355215	-1.122210	-0.542882	-0.023193	0.896240	-0.607666	0.601243	-0.101251	0.176612	-0.772699
28682		0.172264	-4.349018	9.115272	-0.212900	-1.092026	-0.529948	-0.042236	0.905029	-0.601318	0.599229	-0.110143	0.172085	-0.774067
28683		0.297592	-4.183725	9.278498	-0.147082	-1.026148	-0.532497	-0.063232	0.897461	-0.591309	0.597104	-0.118276	0.167444	-0.775526
28684		0.265898	-4.104058	9.299507	-0.179314	-0.979027	-0.497454	-0.082275	0.916260	-0.595215	0.595053	-0.126205	0.163264	-0.776742
28685		0.507483	-4.126338	9.056293	-0.197464	-0.969363	-0.434099	-0.091309	0.916260	-0.583496	0.593331	-0.134066	0.159302	-0.777565
28686		0.786727	-4.046311	8.961958	-0.157174	-0.944504	-0.406159	-0.107422	0.917236	-0.582275	0.591756	-0.141519	0.155221	-0.778269
28687		0.921379	-4.218027	8.806047	-0.054802	-0.969278	-0.422339	-0.123047	0.930664	-0.582764	0.590183	-0.148639	0.150322	-0.779098
28688		1.420771	-3.919321	8.831040	0.042539	-0.971800	-0.479398	-0.142334	0.939209	-0.579590	0.588316	-0.155357	0.144696	-0.780264
28689		1.648745	-3.628564	8.870526	0.000284	-0.977748	-0.488273	-0.158691	0.934082	-0.572510	0.586295	-0.162319	0.139291	-0.781350
28690		1.844180	-3.506685	8.743789	-0.112571	-0.984316	-0.481839	-0.171387	0.944336	-0.565186	0.584122	-0.169856	0.134584	-0.782201
28691		1.981642	-3.745525	8.634000	-0.190405	-0.991756	-0.519385	-0.193115	0.945557	-0.565674	0.581551	-0.177847	0.130282	-0.783068
28692		2.180790	-3.977469	8.625141	-0.196756	-1.017570	-0.589434	-0.205322	0.954102	-0.550537	0.578486	-0.186098	0.125780	-0.784156
28693		2.457339	-4.168298	8.749257	-0.199528	-1.036191	-0.639678	-0.230957	0.961914	-0.549316	0.575049	-0.194519	0.121113	-0.785374
28694		2.763152	-4.250379	8.839553	-0.256137	-1.037548	-0.658767	-0.242920	0.967529	-0.537109	0.571333	-0.203219	0.116766	-0.786540
28695		3.041009	-4.338774	8.751076	-0.340784	-1.011229	-0.653411	-0.274170	0.969482	-0.532227	0.567421	-0.212124	0.113095	-0.787557
28696		3.207332	-4.451051	8.510576	-0.388239	-0.987445	-0.653527	-0.286621	0.978516	-0.524414	0.563340	-0.221076	0.109834	-0.788486
28697		2.998569	-4.660448	8.303262	-0.363598	-1.003154	-0.668108	-0.307373	0.988281	-0.513916	0.559160	-0.230005	0.106298	-0.789391
28698		2.981024	-4.729212	8.322417	-0.315876	-1.054624	-0.677918	-0.330322	0.993164	-0.500977	0.554989	-0.239036	0.102177	-0.790196
28699		3.273190	-4.803775	8.437657	-0.298742	-1.095883	-0.649898	-0.349365	0.991211	-0.494629	0.551006	-0.248207	0.097797	-0.790710
28700		3.535886	-4.898308	8.413154	-0.276131	-1.120450	-0.590125	-0.370850	1.011230	-0.482910	0.547418	-0.257360	0.093267	-0.790823
28701		3.723443	-4.928253	8.360726	-0.223946	-1.114988	-0.544394	-0.394287	1.010742	-0.465820	0.544177	-0.266174	0.088507	-0.790689
28702		3.832303	-4.655125	8.431402	-0.184079	-1.089652	-0.522500	-0.416260	1.006104	-0.453613	0.541091	-0.274598	0.083638	-0.790457
28703		3.981275	-4.431976	8.404337	-0.206925	-1.065929	-0.489963	-0.419678	1.029053	-0.442139	0.538095	-0.282918	0.079092	-0.790035
28704		4.052191	-4.341891	8.180173	-0.216463	-1.063110	-0.455415	-0.443604	1.022949	-0.433105	0.535250	-0.291212	0.074696	-0.789381
28705		4.188023	-4.260657	7.959973	-0.153792	-1.075286	-0.442036	-0.463379	1.032227	-0.411621	0.532602	-0.299271	0.069858	-0.788601
28706		4.495046	-4.015745	7.997710	-0.076181	-1.061325	-0.470922	-0.481201	1.035156	-0.403076	0.529898	-0.306882	0.064494	-0.787955
28707		4.393008	-3.925557	8.088276	-0.074556	-1.037781	-0.527705	-0.513916	1.037842	-0.403564	0.526762	-0.314333	0.059070	-0.787545
28708		4.550257	-3.958306	8.078656	-0.109188	-1.023200	-0.572589	-0.527588	1.041016	-0.385986	0.523184	-0.321832	0.053815	-0.787278
28709		4.733360	-4.121457	8.027730	-0.171428	-0.984532	-0.582290	-0.544678	1.047852	-0.369385	0.519308	-0.329321	0.049104	-0.787055
28710		4.798910	-4.438807	7.935940	-0.195207	-0.949402	-0.561702	-0.567383	1.053467	-0.351807	0.515440	-0.336644	0.044754	-0.786759
28711		4.787637	-4.631559	7.852876	-0.146478	-0.942970	-0.513505	-0.593506	1.043213	-0.340576	0.511980	-0.343669	0.040243	-0.786224
28712		4.855515	-4.721396	7.784256	-0.034937	-0.970135	-0.449692	-0.604492	1.048096	-0.328369	0.509225	-0.350347	0.035066	-0.785314
28713		5.192522	-4.473112	7.857102	0.079893	-0.988939	-0.414285	-0.624512	1.047607	-0.304932	0.507003	-0.356621	0.029160	-0.784168
28714		5.615670	-4.107844	7.914214	0.116451	-0.958858	-0.399063	-0.646729	1.051270	-0.310547	0.504942	-0.362512	0.023186	-0.782995
28715		5.683198	-4.012814	7.949317	0.099174	-0.926088	-0.407816	-0.658691	1.047119	-0.291016	0.502729	-0.368237	0.017434	-0.781896
28716		5.760173	-4.103908	7.951868	0.073292	-0.904696	-0.428944	-0.665283	1.052734	-0.287354	0.500260	-0.373906	0.011874	-0.780892
28717		5.898017	-4.233089	7.971754	0.057182	-0.891528	-0.431117	-0.686279	1.049561	-0.272217	0.497692	-0.379531	0.006467	-0.779883
28718		6.217248	-4.148384	7.960448	0.026532	-0.840532	-0.420291	-0.704590	1.046387	-0.257568	0.495062	-0.384924	0.001505	-0.778938
28719		6.245336	-4.232435	7.914374	-0.008739	-0.777068	-0.404706	-0.718262	1.047119	-0.245850	0.492392	-0.390028	-0.002916	-0.778087
28720		6.195960	-4.319744	7.818509	-0.002177	-0.738824	-0.402088	-0.736572	1.044922	-0.227295	0.489736	-0.394837	-0.007214	-0.777309
28721		6.292935	-4.308694	7.840087	0.000462	-0.703877	-0.395851	-0.743164	1.036621	-0.222412	0.487110	-0.399389	-0.011364	-0.776585
28722		6.506329	-4.185840	7.858935	-0.031136	-0.655219	-0.395771	-0.763184	1.024414	-0.212158	0.484363	-0.403736	-0.015111	-0.775991
28723		6.454079	-4.377104	7.690276	-0.074047	-0.603508	-0.379585	-0.765869	1.030518	-0.195068	0.481564	-0.407906	-0.018315	-0.775482
28724		6.354363	-4.542260	7.544055	-0.052425	-0.588872	-0.370538	-0.781006	1.026367	-0.184814	0.478885	-0.411882	-0.021569	-0.774956
28725		6.534776	-4.454452	7.539306	-0.030044	-0.583453	-0.329797	-0.792236	1.014160	-0.172852	0.476531	-0.415726	-0.024802	-0.774257
28726		6.747530	-4.308672	7.500003	-0.059377	-0.550948	-0.282620	-0.792480	1.013428	-0.161865	0.474375	-0.419474	-0.027552	-0.773467
28727		6.709811	-4.348247	7.397139	-0.092215	-0.473713	-0.237048	-0.811279	1.008057	-0.151855	0.472405	-0.422853	-0.029624	-0.772756
28728		6.184963	-4.557803	7.198117	-0.048935	-0.450220	-0.197043	-0.809326	1.007568	-0.141846	0.470843	-0.425912	-0.031739	-0.771945
28729		6.275966	-4.351176	7.238099	0.022414	-0.447555	-0.160691	-0.809570	0.992432	-0.130371	0.469763	-0.428674	-0.034170	-0.770969
28730		6.601015	-3.927319	7.322122	0.000166	-0.394195	-0.099249	-0.810791	1.002441	-0.127197	0.469008	-0.431191	-0.036028	-0.769940
28731		6.490149	-3.891820	7.059158	-0.040659	-0.316686	-0.067542	-0.818359	0.996826	-0.117676	0.468330	-0.433375	-0.037206	-0.769071
28732		6.357561	-3.923485	6.903139	-0.013779	-0.273336	-0.069968	-0.820801	0.996338	-0.114746	0.467744	-0.435170	-0.038394	-0.768354
28733		6.434648	-3.620298	6.915378	0.013240	-0.240235	-0.061462	-0.818604	0.989990	-0.115967	0.467321	-0.436647	-0.039594	-0.767713
28734		6.444946	-3.452325	6.886823	-0.017079	-0.212464	-0.041997	-0.818359	0.984863	-0.104736	0.466920	-0.438068	-0.040420	-0.767104
28735		6.328102	-3.507883	6.801075	-0.028307	-0.199290	-0.048336	-0.822998	0.982422	-0.103271	0.466441	-0.439443	-0.041145	-0.766570
28736		6.338173	-3.511271	6.828999	-0.008009	-0.197037	-0.063681	-0.820312	0.979248	-0.085693	0.465939	-0.440717	-0.042047	-0.766095
28737		6.365408	-3.555843	6.870437	0.010431	-0.189054	-0.057730	-0.822998	0.982666	-0.097412	0.465545	-0.441867	-0.043012	-0.765618
28738		6.462977	-3.703303	6.875233	0.042056	-0.159773	-0.037395	-0.818604	0.982422	-0.091064	0.465408	-0.442712	-0.043990	-0.765158
28739		6.674187	-3.625938	7.008999	0.079068	-0.121185	-0.038064	-0.821777	0.986816	-0.092285	0.465417	-0.443164	-0.045056	-0.764828
28740		6.867058	-3.497768	7.117280	0.048283	-0.052879	-0.025855	-0.831055	0.981934	-0.095947	0.465416	-0.443303	-0.045614	-0.764715
28741		6.690374	-3.583443	6.989615	0.003544	0.017957	-0.015586	-0.823975	0.981201	-0.096680	0.465343	-0.443167	-0.045575	-0.764841
28742		6.557714	-3.704818	6.868780	0.016540	0.053883	-0.022002	-0.823242	0.983398	-0.094482	0.465292	-0.442746	-0.045501	-0.765120
28743		6.747316	-3.609023	6.906814	0.026087	0.080072	-0.026467	-0.822998	0.976318	-0.096924	0.465258	-0.442118	-0.045403	-0.765510
28744		6.842914	-3.639806	6.891130	-0.007673	0.130341	-0.010353	-0.827881	0.978271	-0.096191	0.465221	-0.441305	-0.044834	-0.766034
28745		6.715058	-3.863257	6.717997	-0.005803	0.177994	-0.000670	-0.827881	0.981445	-0.100342	0.465271	-0.440182	-0.044056	-0.766695
28746		6.622625	-3.867573	6.627006	0.030303	0.201141	0.010100	-0.819336	0.986084	-0.111816	0.465530	-0.438773	-0.043379	-0.767384
28747		6.778191	-3.713750	6.610772	0.039170	0.221221	0.041822	-0.822266	0.987061	-0.111328	0.466031	-0.437210	-0.042562	-0.768018
28748		6.886066	-3.728152	6.560991	0.022677	0.252689	0.058697	-0.824219	0.978760	-0.120850	0.466590	-0.435513	-0.041456	-0.768703
28749		6.777941	-3.727398	6.401071	0.029334	0.276021	0.064598	-0.815186	0.981201	-0.124023	0.467216	-0.433640	-0.040280	-0.769444
28750		6.659050	-3.712783	6.267669	0.057610	0.286794	0.072418	-0.822754	0.987061	-0.119141	0.467996	-0.431587	-0.039213	-0.770179
28751		6.668447	-3.533991	6.243996	0.067499	0.286776	0.093208	-0.814209	0.983887	-0.132568	0.468942	-0.429500	-0.038135	-0.770824
28752		6.726769	-3.451927	6.202828	0.051345	0.294536	0.114643	-0.817627	0.988525	-0.137939	0.469967	-0.427429	-0.036845	-0.771413
28753		6.674384	-3.411808	6.135522	0.043217	0.295352	0.101304	-0.812988	0.992920	-0.146973	0.470874	-0.425378	-0.035547	-0.772054
28754		6.672313	-3.333484	6.050525	0.036307	0.293919	0.092534	-0.806885	0.993652	-0.146240	0.471696	-0.423358	-0.034241	-0.772721
28755		6.582032	-3.335655	6.021768	0.023076	0.290669	0.085064	-0.809082	0.991699	-0.156982	0.472420	-0.421406	-0.032889	-0.773404
28756		6.368972	-3.345316	6.153971	0.004242	0.284717	0.075192	-0.807617	1.001709	-0.162842	0.473009	-0.419562	-0.031473	-0.774106
28757		6.386274	-3.342097	6.376868	-0.051354	0.272890	0.062736	-0.797363	0.999023	-0.166992	0.473317	-0.418007	-0.029789	-0.774825
28758		6.384720	-3.423509	6.503966	-0.132644	0.273034	0.055729	-0.799316	1.001465	-0.171143	0.473294	-0.416767	-0.027603	-0.775588
28759		6.244649	-3.637753	6.614065	-0.175608	0.268977	0.037661	-0.804932	1.000000	-0.166748	0.473000	-0.415715	-0.025218	-0.776412
28760		6.055117	-3.903916	6.777446	-0.172616	0.256425	0.057799	-0.803223	0.999268	-0.168213	0.472842	-0.414734	-0.022832	-0.777107
28761		5.919711	-4.220423	7.010832	-0.099315	0.239931	0.095839	-0.792480	1.006592	-0.164551	0.473177	-0.413574	-0.020853	-0.777576
28762		5.812829	-4.282820	7.292000	-0.006906	0.246143	0.132273	-0.793945	1.018555	-0.180664	0.474067	-0.412013	-0.019320	-0.777902
28763		5.762451	-4.288274	7.528334	0.054454	0.274696	0.163865	-0.789551	1.013672	-0.180420	0.475374	-0.410026	-0.017963	-0.778187
28764		5.604021	-4.233040	7.836939	0.068158	0.333233	0.201961	-0.781738	1.020752	-0.184082	0.476981	-0.407605	-0.016331	-0.778511
28765		5.433440	-4.229915	8.084015	0.030739	0.381969	0.244257	-0.772949	1.027344	-0.200195	0.478737	-0.405016	-0.014117	-0.778829
28766		5.385577	-4.434479	8.254015	0.009984	0.426368	0.276203	-0.772217	1.020020	-0.206543	0.480628	-0.402215	-0.011481	-0.779158
28767		5.335375	-4.515861	8.416739	0.020247	0.466497	0.279423	-0.755859	1.035400	-0.217773	0.482571	-0.399103	-0.008738	-0.779593
28768		5.441181	-4.594375	8.536382	0.016796	0.506593	0.320342	-0.740723	1.035889	-0.226074	0.484761	-0.395736	-0.005674	-0.779980
28769		5.565949	-4.776300	8.644155	0.031437	0.573717	0.403851	-0.734131	1.047363	-0.238525	0.487531	-0.391863	-0.002156	-0.780226
28770		5.471530	-4.854411	8.821441	0.086436	0.652633	0.480714	-0.722900	1.052979	-0.248779	0.490964	-0.387236	0.001578	-0.780384
28771		5.328830	-4.849718	9.023416	0.166295	0.708953	0.536707	-0.706543	1.051025	-0.258057	0.494993	-0.381894	0.005205	-0.780456
28772		5.290302	-4.706130	9.240243	0.222509	0.769386	0.562695	-0.687500	1.063965	-0.281250	0.499338	-0.375899	0.008800	-0.780567
28773		5.456540	-4.468586	9.475044	0.211737	0.868366	0.603236	-0.664062	1.072510	-0.300537	0.503869	-0.369271	0.013005	-0.780760
28774		5.430306	-4.436396	9.595053	0.163415	1.009839	0.622717	-0.643311	1.067139	-0.318604	0.508317	-0.361888	0.018177	-0.781230
28775		5.433954	-4.594685	9.586450	0.152317	1.145287	0.604697	-0.621338	1.072266	-0.341309	0.512538	-0.353630	0.023940	-0.782098
28776		5.527746	-4.539451	9.540535	0.165211	1.279252	0.563256	-0.599121	1.067383	-0.350098	0.516434	-0.344404	0.030066	-0.783440
28777		5.434549	-4.444787	9.432656	0.143185	1.384218	0.567466	-0.569336	1.063232	-0.374268	0.520191	-0.334535	0.036795	-0.784942
28778		5.105606	-4.666090	9.213221	0.143549	1.441461	0.604972	-0.548584	1.060303	-0.394043	0.524090	-0.324222	0.043868	-0.786311
28779		4.925399	-4.734283	9.111646	0.218858	1.457386	0.624906	-0.528320	1.056641	-0.411621	0.528225	-0.313411	0.050564	-0.787525
28780		5.105087	-4.559640	9.120843	0.285051	1.483658	0.636000	-0.501221	1.053223	-0.431641	0.532497	-0.302073	0.056960	-0.788641
28781		5.258065	-4.541857	8.991574	0.303376	1.534377	0.651310	-0.470215	1.046143	-0.454590	0.536786	-0.290255	0.063489	-0.789672
28782		5.095427	-4.533776	8.787518	0.330180	1.577392	0.654537	-0.435791	1.036621	-0.463623	0.541027	-0.277974	0.070026	-0.790643
28783		4.934770	-4.415295	8.553535	0.346132	1.592073	0.657484	-0.414307	1.031494	-0.491455	0.545199	-0.265465	0.076516	-0.791475
28784		4.777054	-4.258403	8.314710	0.346210	1.579778	0.664108	-0.383545	1.028320	-0.514404	0.549303	-0.252977	0.082947	-0.792079
28785		4.588405	-4.196970	8.083294	0.344685	1.542197	0.656235	-0.355469	1.005371	-0.528809	0.553262	-0.240700	0.089180	-0.792472
28786		4.489209	-4.033789	7.907353	0.340717	1.503320	0.632699	-0.333740	0.997803	-0.541260	0.556974	-0.228670	0.095193	-0.792735
28787		4.306671	-3.752875	7.750941	0.284657	1.475306	0.604529	-0.298828	0.983643	-0.552490	0.560309	-0.217067	0.101373	-0.792880
28788		3.913843	-3.618226	7.510480	0.190376	1.430064	0.576238	-0.276367	0.980957	-0.560791	0.563224	-0.206193	0.107894	-0.792857
28789		3.534899	-3.645213	7.328168	0.128622	1.363826	0.539636	-0.260742	0.971924	-0.560303	0.565759	-0.196049	0.114430	-0.792709
28790		3.228109	-3.663259	7.256013	0.085673	1.277861	0.512513	-0.234375	0.968018	-0.584717	0.568044	-0.186676	0.120781	-0.792395
28791		3.004276	-3.630107	7.212018	0.054357	1.175878	0.517552	-0.219238	0.952637	-0.579834	0.570346	-0.178100	0.126848	-0.791767
28792		2.786834	-3.675454	7.215328	0.074069	1.078493	0.498573	-0.199951	0.953857	-0.579590	0.572591	-0.170077	0.132279	-0.791022
28793		2.513394	-3.551531	7.218407	0.114061	0.999036	0.460611	-0.184814	0.950928	-0.596191	0.574677	-0.162416	0.137000	-0.790316
28794		2.091132	-3.544159	7.230443	0.144698	0.920920	0.436324	-0.167480	0.947754	-0.600342	0.576686	-0.155140	0.141099	-0.789592
28795		1.697521	-3.533007	7.290160	0.166638	0.828468	0.402208	-0.153320	0.935791	-0.600830	0.578568	-0.148399	0.144556	-0.788885
28796		1.490758	-3.550845	7.466835	0.177429	0.750778	0.360255	-0.134277	0.931641	-0.605713	0.580249	-0.142160	0.147505	-0.788254
28797		1.187881	-3.617479	7.700801	0.147928	0.699832	0.304826	-0.126465	0.927246	-0.608154	0.581565	-0.136463	0.150329	-0.787757
28798		0.690786	-3.910010	7.911926	0.080289	0.646360	0.314911	-0.116455	0.931885	-0.614990	0.582914	-0.131427	0.153343	-0.787035
28799		0.213668	-4.389161	8.119534	0.083007	0.559463	0.378000	-0.098877	0.921875	-0.612793	0.584771	-0.126864	0.155981	-0.785887
28800		0.217488	-4.557221	8.362176	0.180678	0.471005	0.468705	-0.093994	0.916260	-0.614014	0.587421	-0.122283	0.157640	-0.784304
28801		0.311979	-4.327887	8.673612	0.312160	0.432440	0.537229	-0.082520	0.907715	-0.628418	0.590681	-0.117218	0.158316	-0.782491
28802		0.311709	-3.926815	8.990944	0.401473	0.440787	0.559385	-0.071777	0.908447	-0.633545	0.594137	-0.111625	0.158466	-0.780660
28803		0.111660	-3.572975	9.247996	0.409075	0.475701	0.542752	-0.056641	0.907715	-0.635498	0.597417	-0.105784	0.158717	-0.778917
28804		-0.103941	-3.520919	9.416374	0.378495	0.495983	0.534937	-0.041504	0.896484	-0.640869	0.600564	-0.099970	0.159252	-0.777153
28805		0.065597	-3.526516	9.429488	0.390163	0.519123	0.523542	-0.039551	0.884521	-0.645752	0.603588	-0.093957	0.159809	-0.775445
28806		0.225929	-3.458146	9.421573	0.424817	0.585882	0.492191	-0.017090	0.879639	-0.647705	0.606316	-0.087377	0.160445	-0.773954
28807		-0.064724	-3.258798	9.394549	0.438086	0.646284	0.455462	-0.011719	0.873291	-0.654785	0.608702	-0.080384	0.161264	-0.772667
28808		-0.411056	-3.178703	9.348019	0.419293	0.654689	0.430941	0.013916	0.861572	-0.667236	0.610872	-0.073462	0.162220	-0.771443
28809		-0.462088	-2.936231	9.500453	0.357692	0.670218	0.392028	0.021973	0.854004	-0.668701	0.612700	-0.066802	0.163617	-0.770302
28810		-0.496065	-2.895017	9.560252	0.205205	0.716249	0.352359	0.026367	0.853027	-0.669189	0.614096	-0.060677	0.166198	-0.769144
28811		-0.712483	-3.009121	9.493691	0.063368	0.759876	0.302940	0.046387	0.847168	-0.668701	0.615014	-0.055063	0.169877	-0.768029
28812		-0.913619	-3.008211	9.367450	-0.063464	0.784367	0.299881	0.055420	0.844971	-0.668701	0.615789	-0.049944	0.174482	-0.766724
28813		-1.103888	-3.420016	9.174828	-0.070808	0.757000	0.320270	0.068115	0.840576	-0.669922	0.616700	-0.045006	0.178993	-0.765256
28814		-0.998160	-3.225180	9.055099	0.010364	0.750432	0.294107	0.076416	0.840576	-0.665039	0.617457	-0.039730	0.182935	-0.764005
28815		-1.052694	-2.903748	9.095164	0.015968	0.780779	0.249763	0.085205	0.835938	-0.660400	0.617857	-0.034299	0.186973	-0.762966
28816		-1.290935	-2.723938	8.943637	-0.068526	0.803606	0.190495	0.091309	0.834961	-0.659912	0.617792	-0.029248	0.191639	-0.762071
28817		-1.511636	-2.887828	8.695064	-0.170603	0.772113	0.166937	0.108887	0.833740	-0.657471	0.617573	-0.024960	0.196775	-0.761091
28818		-1.664585	-3.313046	8.464011	-0.173916	0.726400	0.175775	0.125488	0.831543	-0.664307	0.617458	-0.020963	0.201690	-0.760018
28819		-1.725958	-3.446029	8.441821	-0.097477	0.688633	0.183596	0.133057	0.831787	-0.657715	0.617444	-0.016798	0.205920	-0.758998
28820		-1.862926	-3.518993	8.439157	-0.016380	0.649212	0.219911	0.138184	0.831299	-0.653809	0.617718	-0.012403	0.209432	-0.757897
28821		-1.952843	-3.367690	8.488955	0.055915	0.614851	0.221580	0.149414	0.826904	-0.654785	0.618051	-0.007851	0.212305	-0.756887
28822		-2.208527	-3.127891	8.461549	0.055893	0.578657	0.223253	0.161133	0.824219	-0.650146	0.618440	-0.003525	0.214985	-0.755845
28823		-2.457758	-3.423246	8.543800	0.057374	0.530693	0.216217	0.172119	0.815918	-0.657471	0.618855	0.000494	0.217403	-0.754821
28824		-2.593666	-3.459615	8.887237	0.061621	0.513648	0.194422	0.181885	0.811768	-0.647949	0.619150	0.004388	0.219702	-0.753900
28825		-2.509679	-3.460126	9.181044	-0.020948	0.555133	0.236542	0.189209	0.819580	-0.642578	0.619622	0.008193	0.222728	-0.752591
28826		-2.868564	-3.793684	9.165309	-0.081901	0.582565	0.298446	0.190918	0.809570	-0.651123	0.620419	0.011970	0.226266	-0.750827
28827		-3.064108	-4.091733	9.042434	0.025293	0.564764	0.312480	0.198242	0.809326	-0.645508	0.621307	0.016215	0.229034	-0.749171
28828		-2.856560	-3.737369	9.058310	0.138642	0.564510	0.322291	0.211670	0.808838	-0.645752	0.622223	0.021062	0.231086	-0.747659
28829		-2.889521	-3.451249	8.966984	0.181425	0.573313	0.375154	0.225586	0.803467	-0.651367	0.623424	0.026287	0.232901	-0.745928
28830		-3.056398	-3.233293	8.840532	0.201419	0.574149	0.420661	0.234131	0.796875	-0.647461	0.624878	0.031707	0.234577	-0.743973
28831		-3.023371	-3.003779	8.671088	0.221420	0.544799	0.447362	0.246338	0.797607	-0.646729	0.626526	0.037100	0.235960	-0.741897
28832		-2.597672	-2.494864	8.279875	0.250187	0.550960	0.451857	0.258789	0.793945	-0.654785	0.628157	0.042688	0.237187	-0.739824
28833		-2.937405	-1.864628	8.067926	0.198948	0.583939	0.406953	0.263184	0.783936	-0.652588	0.629439	0.048121	0.238908	-0.737844
28834		-3.435864	-1.772100	7.856371	0.125802	0.521490	0.330279	0.274414	0.771729	-0.652344	0.630382	0.052633	0.240773	-0.736122
28835		-3.040065	-1.795763	7.759799	0.067080	0.462634	0.263255	0.286133	0.778564	-0.650146	0.631044	0.056341	0.242711	-0.734643
28836		-2.646468	-1.480208	7.485967	-0.010910	0.488964	0.200210	0.287354	0.776611	-0.651123	0.631289	0.059671	0.245289	-0.733312
28837		-3.024408	-1.175168	7.145760	-0.140876	0.518732	0.075177	0.296387	0.777100	-0.639160	0.630762	0.062244	0.248873	-0.732343
28838		-3.562702	-1.495545	6.677731	-0.272430	0.440220	-0.026725	0.299316	0.778320	-0.638672	0.629831	0.063435	0.252894	-0.731665
28839		-3.441175	-2.154387	6.428569	-0.256329	0.318147	-0.090251	0.303467	0.779785	-0.630859	0.628752	0.063833	0.256205	-0.731406
28840		-3.604331	-2.645211	6.609695	-0.165902	0.234189	-0.127605	0.305176	0.784180	-0.628906	0.627570	0.064113	0.258542	-0.731574
28841		-3.608512	-2.627100	6.905093	-0.123295	0.154127	-0.155648	0.295166	0.777588	-0.618408	0.626364	0.064067	0.260216	-0.732019
28842		-3.626551	-2.925503	6.665411	-0.090897	0.038141	-0.109506	0.304199	0.777588	-0.618896	0.625671	0.063583	0.261061	-0.732352
28843		-3.197111	-2.892729	6.417205	0.009113	-0.053057	-0.031870	0.302490	0.776611	-0.624268	0.625597	0.063232	0.260781	-0.732546
28844		-2.920819	-2.334744	6.447713	0.084114	-0.082112	-0.028205	0.301025	0.792236	-0.627441	0.625569	0.063102	0.259890	-0.732898
28845		-2.906876	-1.672185	6.447614	-0.012698	-0.067722	-0.096512	0.301514	0.786377	-0.632080	0.625142	0.062407	0.259700	-0.733388
28846		-3.311101	-2.070053	6.090987	-0.121916	-0.135551	-0.150925	0.297607	0.781738	-0.636719	0.624585	0.060611	0.259852	-0.733959
28847		-3.442152	-2.816849	5.764844	-0.013422	-0.306438	-0.150548	0.291504	0.782959	-0.626953	0.624342	0.058336	0.258449	-0.734845
28848		-3.128319	-2.819553	5.885497	0.209832	-0.503071	-0.109443	0.292969	0.782227	-0.638184	0.624657	0.056106	0.254633	-0.736083
28849		-2.684780	-2.058418	6.117537	0.352055	-0.630643	-0.132779	0.271973	0.789551	-0.643799	0.625015	0.053782	0.249286	-0.737781
28850		-2.212435	-1.207011	6.252368	0.276553	-0.675621	-0.221639	0.269531	0.785645	-0.649170	0.624930	0.050602	0.244199	-0.739776
28851		-2.399192	-0.930961	6.258559	0.031532	-0.724837	-0.326975	0.251709	0.797852	-0.653564	0.624373	0.045626	0.240398	-0.741813
28852		-2.866163	-1.756871	6.374237	-0.161109	-0.891462	-0.392765	0.248535	0.798584	-0.655762	0.623781	0.038485	0.236932	-0.743828
28853		-2.674774	-2.642996	6.777337	-0.136935	-1.117889	-0.443573	0.228516	0.798096	-0.646240	0.623261	0.029964	0.232134	-0.746165
28854		-1.948431	-2.915198	7.427186	-0.033256	-1.264973	-0.490051	0.204590	0.805176	-0.651611	0.622639	0.020973	0.225914	-0.748895
28855		-1.370841	-2.731065	8.044794	-0.010049	-1.297209	-0.564212	0.185791	0.810547	-0.653564	0.621529	0.011758	0.219364	-0.751959
28856		-1.257088	-2.559089	8.411754	-0.146729	-1.288754	-0.613078	0.161865	0.813232	-0.652588	0.620022	0.001795	0.213688	-0.754922
28857		-1.256170	-2.887874	8.502207	-0.320496	-1.317135	-0.604940	0.142578	0.821777	-0.654541	0.618528	-0.009231	0.208924	-0.757422
28858		-1.461207	-3.512540	8.705860	-0.387424	-1.392327	-0.590338	0.119873	0.833008	-0.643555	0.617153	-0.021051	0.204161	-0.759604
28859		-1.355420	-3.973281	9.222110	-0.304199	-1.470156	-0.645417	0.096436	0.842285	-0.648438	0.615466	-0.033026	0.198426	-0.762062
28860		-0.726912	-3.920088	9.842130	-0.276487	-1.472049	-0.671326	0.076416	0.853027	-0.659180	0.613510	-0.044910	0.192461	-0.764557
28861		-0.309815	-4.070005	10.230712	-0.356475	-1.377536	-0.610611	0.043457	0.851807	-0.646729	0.611651	-0.056497	0.187476	-0.766514
28862		-0.629536	-4.542775	10.244998	-0.391085	-1.273827	-0.563436	0.030518	0.863770	-0.635742	0.609820	-0.067517	0.183233	-0.768106
28863		-0.839663	-4.837871	10.268063	-0.304439	-1.214393	-0.593741	0.000732	0.872070	-0.639404	0.607667	-0.077754	0.178695	-0.769911
28864		-0.516587	-4.541554	10.382447	-0.272594	-1.131758	-0.589285	-0.004150	0.869385	-0.621094	0.605364	-0.087285	0.174351	-0.771697
28865		-0.391073	-4.298576	10.262900	-0.357514	-1.039347	-0.481633	-0.024414	0.887207	-0.624756	0.603492	-0.096486	0.171080	-0.772800
28866		-0.416515	-4.422581	9.992261	-0.378419	-0.967501	-0.390911	-0.047852	0.898193	-0.619385	0.602028	-0.105190	0.168361	-0.773403
28867		-0.280849	-4.303733	9.848510	-0.298841	-0.927518	-0.395144	-0.056396	0.900146	-0.608154	0.600501	-0.113236	0.165313	-0.774111
28868		-0.020485	-4.008362	9.748145	-0.218144	-0.905033	-0.397333	-0.072754	0.909668	-0.609375	0.598962	-0.120727	0.161842	-0.774904
28869		0.403900	-3.835103	9.529774	-0.161782	-0.879093	-0.354957	-0.083496	0.906006	-0.606689	0.597677	-0.127703	0.158169	-0.775537
28870		0.837087	-3.534407	9.300025	-0.125323	-0.804217	-0.357627	-0.093750	0.919922	-0.601807	0.596279	-0.134011	0.154620	-0.776264
28871		0.814377	-3.323298	8.988319	-0.123336	-0.738143	-0.419635	-0.108887	0.923584	-0.596680	0.594365	-0.139954	0.151308	-0.777334
28872		0.797081	-3.418818	8.729287	-0.136833	-0.751716	-0.449671	-0.124023	0.916260	-0.586914	0.592226	-0.146082	0.147972	-0.778481
28873		1.016484	-3.633432	8.566263	-0.109954	-0.794365	-0.445627	-0.138916	0.923340	-0.592041	0.590165	-0.152340	0.144247	-0.779545
28874		1.300234	-3.614553	8.626313	-0.107368	-0.799266	-0.452627	-0.148193	0.937500	-0.585205	0.588033	-0.158618	0.140463	-0.780594
28875		1.522865	-3.720236	8.680072	-0.131043	-0.786961	-0.509087	-0.169189	0.937500	-0.584717	0.585453	-0.164988	0.136810	-0.781861
28876		1.861460	-3.800339	8.498794	-0.191754	-0.757319	-0.551705	-0.175293	0.942871	-0.580322	0.582438	-0.171500	0.133629	-0.783261
28877		2.068158	-4.003273	8.137203	-0.227697	-0.741157	-0.550409	-0.199219	0.948975	-0.578369	0.579329	-0.178069	0.130753	-0.784585
28878		2.097359	-4.232529	7.866591	-0.208952	-0.742390	-0.562575	-0.221924	0.953369	-0.569580	0.576129	-0.184559	0.127722	-0.785939
28879		2.059028	-4.288662	7.741307	-0.155548	-0.800167	-0.586514	-0.228027	0.957031	-0.562012	0.572878	-0.191186	0.124019	-0.787323
28880		2.192540	-4.305130	7.676123	-0.121137	-0.906805	-0.562262	-0.252197	0.971436	-0.565918	0.569909	-0.198310	0.119610	-0.788397
28881		2.391998	-4.321708	7.752265	-0.102978	-1.017079	-0.511117	-0.258545	0.962646	-0.549072	0.567367	-0.206006	0.114632	-0.788997
28882		2.724716	-4.327756	7.989764	-0.101747	-1.106298	-0.481152	-0.287109	0.976807	-0.543457	0.565055	-0.214235	0.109266	-0.789226
28883		3.267681	-4.122913	8.242790	-0.153688	-1.116542	-0.459008	-0.306641	0.986328	-0.544434	0.562746	-0.222736	0.104221	-0.789204
28884		3.364797	-4.181329	8.368833	-0.247157	-1.093356	-0.443991	-0.324707	0.993896	-0.528320	0.560285	-0.231488	0.099916	-0.788993
28885		3.426166	-4.310467	8.239721	-0.244017	-1.114933	-0.443011	-0.336182	0.992676	-0.519775	0.557797	-0.240344	0.095480	-0.788658
28886		3.619584	-4.198774	8.177833	-0.171942	-1.147160	-0.463777	-0.355225	1.006836	-0.512695	0.555282	-0.249068	0.090369	-0.788327
28887		3.758610	-4.037505	8.244102	-0.115572	-1.171876	-0.498038	-0.378662	1.007080	-0.494629	0.552616	-0.257693	0.084692	-0.788059
28888		3.839603	-3.881803	8.404470	-0.116287	-1.192638	-0.524455	-0.401367	1.013428	-0.486084	0.549725	-0.266448	0.078857	-0.787775
28889		4.047392	-3.947270	8.553798	-0.179644	-1.179038	-0.532208	-0.416504	1.021240	-0.476562	0.546568	-0.275376	0.073473	-0.787422
28890		4.184472	-4.194800	8.557334	-0.210517	-1.159759	-0.542350	-0.437256	1.024170	-0.458252	0.543196	-0.284293	0.068346	-0.787048
28891		4.461764	-4.222686	8.552409	-0.209328	-1.117987	-0.562161	-0.462891	1.028564	-0.438477	0.539611	-0.292909	0.063346	-0.786773
28892		4.518234	-4.352110	8.658091	-0.247476	-1.034612	-0.575611	-0.481445	1.038086	-0.430664	0.535743	-0.301126	0.058930	-0.786657
28893		4.541587	-4.648701	8.417754	-0.251528	-1.003841	-0.584960	-0.506836	1.043701	-0.421875	0.531735	-0.309134	0.054649	-0.786580
28894		4.985454	-4.681525	8.207847	-0.228026	-0.951397	-0.587739	-0.536133	1.052246	-0.408203	0.527695	-0.316666	0.050435	-0.786586
28895		5.155825	-4.858678	7.961801	-0.212676	-0.913078	-0.528355	-0.545410	1.049561	-0.399170	0.524023	-0.323827	0.046440	-0.786371
28896		5.004757	-5.053194	7.685656	-0.107055	-0.928808	-0.463194	-0.572754	1.052490	-0.382324	0.521028	-0.330581	0.041858	-0.785808
28897		4.990987	-4.914722	7.676878	0.036565	-0.995422	-0.428006	-0.580811	1.054688	-0.369141	0.518642	-0.337109	0.036140	-0.784896
28898		5.184838	-4.526751	7.859275	0.085201	-1.067685	-0.377962	-0.604248	1.054932	-0.363525	0.516699	-0.343857	0.029930	-0.783511
28899		5.444215	-4.343525	8.063458	0.029402	-1.126518	-0.309993	-0.616455	1.053711	-0.337891	0.515006	-0.351180	0.024024	-0.781578
28900		5.604274	-4.376125	8.226311	-0.020415	-1.155546	-0.284369	-0.629150	1.053955	-0.329590	0.513291	-0.358867	0.018391	-0.779364
28901		5.896561	-4.385079	8.397160	-0.048290	-1.127269	-0.288035	-0.652588	1.056396	-0.313721	0.511415	-0.366455	0.013048	-0.777172
28902		6.138350	-4.364756	8.438649	-0.063450	-1.053321	-0.300403	-0.667725	1.054932	-0.292480	0.509359	-0.373597	0.008079	-0.775186
28903		6.170943	-4.349927	8.264062	-0.053515	-0.976059	-0.299764	-0.679688	1.065430	-0.271240	0.507293	-0.380167	0.003376	-0.773379
28904		6.227047	-4.188894	7.936560	-0.015370	-0.909475	-0.326457	-0.689697	1.057617	-0.259521	0.505140	-0.386120	-0.001376	-0.771844
28905		6.312236	-3.970784	7.927174	-0.046336	-0.820170	-0.343349	-0.696777	1.046631	-0.250244	0.502750	-0.391606	-0.005607	-0.770621
28906		6.130614	-4.022589	7.752290	-0.097670	-0.776496	-0.356314	-0.711670	1.043945	-0.231689	0.500084	-0.397003	-0.009367	-0.769556
28907		5.982454	-4.170643	7.583478	-0.116237	-0.755718	-0.356388	-0.725342	1.041260	-0.224609	0.497333	-0.402324	-0.012921	-0.768523
28908		6.007475	-4.283570	7.444779	-0.101066	-0.736820	-0.329685	-0.735352	1.049072	-0.207275	0.494783	-0.407443	-0.016403	-0.767405
28909		6.123754	-4.069797	7.545658	-0.098328	-0.702701	-0.302029	-0.760010	1.031982	-0.191895	0.492403	-0.412318	-0.019666	-0.766255
28910		6.185575	-3.990625	7.519874	-0.148305	-0.653626	-0.266625	-0.754639	1.022949	-0.170654	0.490067	-0.417072	-0.022285	-0.765107
28911		6.159792	-4.052266	7.448686	-0.174526	-0.594708	-0.252138	-0.762207	1.030518	-0.162354	0.487727	-0.421546	-0.024445	-0.764084
28912		6.229777	-4.063077	7.344502	-0.157771	-0.544469	-0.246876	-0.771973	1.023438	-0.155029	0.485476	-0.425618	-0.026487	-0.763191
28913		6.295344	-3.927124	7.239189	-0.135405	-0.495633	-0.233244	-0.770508	1.018066	-0.144287	0.483391	-0.429281	-0.028424	-0.762393
28914		6.304555	-3.798772	7.054006	-0.132508	-0.450017	-0.206999	-0.774414	1.011963	-0.131836	0.481485	-0.432639	-0.030101	-0.761636
28915		6.199998	-3.797698	6.902000	-0.090086	-0.421822	-0.178233	-0.773193	1.013672	-0.126221	0.479914	-0.435645	-0.031828	-0.760843
28916		6.188761	-3.667651	6.886205	-0.029843	-0.419895	-0.160856	-0.782471	1.004639	-0.114014	0.478666	-0.438396	-0.033866	-0.759961
