// Start Time: Unknown
// Update Rate: 60.0Hz
// Filter Profile: human (46.1)
// Firmware Version: 4.6.0
PacketCounter	SampleTimeFine	Acc_X	Acc_Y	Acc_Z	Gyr_X	Gyr_Y	Gyr_Z	Mag_X	Mag_Y	Mag_Z	Quat_q0	Quat_q1	Quat_q2	Quat_q3
38386		8.418670	-5.033652	-0.783680	0.009243	-0.008828	0.005030	-0.306152	0.688477	0.247803	0.501009	-0.703601	-0.211554	-0.457362
38387		8.430830	-4.992813	-0.778794	0.010903	-0.005690	0.006195	-0.303223	0.691650	0.244385	0.501087	-0.703588	-0.211583	-0.457284
38388		8.441462	-4.976521	-0.780300	0.007626	-0.003399	0.006842	-0.304199	0.696289	0.244629	0.501157	-0.703579	-0.211585	-0.457219
38389		8.450272	-4.996052	-0.779029	0.002414	0.001700	0.008110	-0.300049	0.694336	0.237061	0.501205	-0.703577	-0.211540	-0.457191
38390		8.426804	-5.011096	-0.819199	-0.001789	0.004262	0.009073	-0.300537	0.703125	0.248535	0.501236	-0.703584	-0.211464	-0.457183
38391		8.417424	-4.992380	-0.794448	-0.005610	0.006320	0.013055	-0.291260	0.697754	0.246582	0.501261	-0.703606	-0.211342	-0.457176
38392		8.429133	-4.952522	-0.788629	-0.004460	0.010511	0.014827	-0.301514	0.692871	0.248535	0.501307	-0.703611	-0.211197	-0.457186
38393		8.417379	-4.949345	-0.804172	-0.000034	0.012409	0.015954	-0.306641	0.696533	0.244873	0.501383	-0.703592	-0.211058	-0.457196
38394		8.449955	-4.931765	-0.754157	-0.002801	0.013647	0.015994	-0.299561	0.692383	0.238037	0.501442	-0.703579	-0.210907	-0.457220
38395		8.456737	-4.976763	-0.758245	-0.004132	0.013562	0.015111	-0.296631	0.699463	0.245605	0.501487	-0.703569	-0.210761	-0.457254
38396		8.433781	-4.990830	-0.771920	-0.007909	0.017339	0.015457	-0.299072	0.697510	0.236816	0.501516	-0.703558	-0.210586	-0.457320
38397		8.442497	-4.999976	-0.778246	-0.011258	0.022330	0.015186	-0.303223	0.692871	0.242188	0.501530	-0.703540	-0.210383	-0.457425
38398		8.410267	-4.995450	-0.792475	-0.013516	0.022515	0.014620	-0.298096	0.698486	0.241943	0.501527	-0.703530	-0.210176	-0.457539
38399		8.430085	-4.998367	-0.790952	-0.014005	0.024428	0.013413	-0.298828	0.700684	0.241211	0.501517	-0.703513	-0.209968	-0.457671
38400		8.395920	-5.040424	-0.793181	-0.008341	0.021397	0.009712	-0.301270	0.693359	0.239990	0.501518	-0.703478	-0.209821	-0.457792
38401		8.395630	-5.041261	-0.790925	-0.002553	0.017390	0.003291	-0.301270	0.694580	0.248047	0.501520	-0.703425	-0.209749	-0.457904
38402		8.384029	-5.070153	-0.777892	-0.000591	0.015441	0.000851	-0.305908	0.689453	0.247314	0.501519	-0.703370	-0.209705	-0.458010
38403		8.356066	-5.035890	-0.734804	0.000736	0.015524	0.001738	-0.306885	0.694092	0.245117	0.501530	-0.703312	-0.209658	-0.458108
38404		8.335991	-5.023302	-0.741606	-0.002628	0.012814	-0.003339	-0.298340	0.697998	0.251709	0.501501	-0.703268	-0.209640	-0.458217
38405		8.334966	-5.047073	-0.746937	-0.002933	0.010623	-0.005442	-0.299072	0.691406	0.245361	0.501460	-0.703231	-0.209632	-0.458320
38406		8.344623	-5.075966	-0.735539	-0.001910	0.008516	-0.006658	-0.306641	0.699219	0.241211	0.501427	-0.703195	-0.209642	-0.458408
38407		8.364404	-5.100621	-0.741845	0.004121	0.004550	-0.006429	-0.299561	0.694336	0.247559	0.501425	-0.703144	-0.209695	-0.458464
38408		8.417312	-5.096019	-0.734252	0.012020	0.000475	-0.007740	-0.289307	0.693359	0.246582	0.501463	-0.703081	-0.209784	-0.458478
38409		8.417077	-5.096978	-0.758667	0.006957	0.000612	-0.005548	-0.304199	0.693604	0.246582	0.501493	-0.703046	-0.209829	-0.458479
38410		8.429539	-5.077359	-0.734358	-0.000043	0.003557	-0.002735	-0.302246	0.697998	0.243652	0.501486	-0.703028	-0.209829	-0.458513
38411		8.421006	-5.036173	-0.753021	0.000066	0.009422	0.001170	-0.290771	0.690430	0.251709	0.501516	-0.702990	-0.209780	-0.458561
38412		8.421047	-5.036276	-0.751867	-0.003531	0.009095	0.000619	-0.310303	0.699707	0.252930	0.501514	-0.702987	-0.209705	-0.458602
38413		8.400799	-5.023821	-0.759855	-0.000583	0.003751	-0.000309	-0.305176	0.699951	0.242188	0.501501	-0.702978	-0.209691	-0.458638
38414		8.348390	-5.038490	-0.757165	-0.002945	-0.001928	-0.004787	-0.298584	0.690430	0.246338	0.501472	-0.702979	-0.209721	-0.458655
38415		8.328236	-5.036394	-0.757275	-0.001795	-0.005012	-0.008721	-0.296631	0.695557	0.248047	0.501419	-0.702996	-0.209779	-0.458659
38416		8.318862	-5.018183	-0.784765	0.000877	-0.011687	-0.013570	-0.297363	0.706299	0.255859	0.501358	-0.703025	-0.209896	-0.458629
38417		8.317809	-5.062996	-0.775034	-0.003742	-0.017181	-0.018617	-0.301025	0.694580	0.247559	0.501232	-0.703102	-0.210036	-0.458584
38418		8.351659	-5.053594	-0.745052	-0.006155	-0.012032	-0.020112	-0.297852	0.697021	0.243652	0.501100	-0.703149	-0.210169	-0.458594
38419		8.342011	-5.046843	-0.789437	-0.009787	-0.008375	-0.024301	-0.301514	0.696777	0.246826	0.500960	-0.703184	-0.210291	-0.458639
38420		8.363788	-5.067410	-0.773109	-0.007342	-0.004963	-0.019816	-0.307373	0.690430	0.244873	0.500843	-0.703209	-0.210384	-0.458684
38421		8.375134	-5.071727	-0.782478	-0.003332	-0.003849	-0.018973	-0.302246	0.696777	0.243896	0.500744	-0.703203	-0.210499	-0.458749
38422		8.355382	-5.058638	-0.817095	-0.003555	-0.001036	-0.015354	-0.293701	0.697021	0.252441	0.500688	-0.703198	-0.210563	-0.458788
38423		8.376521	-5.080469	-0.799580	-0.005545	0.000049	-0.011096	-0.303467	0.691895	0.253906	0.500622	-0.703249	-0.210559	-0.458783
38424		8.398607	-5.078687	-0.775706	-0.013962	-0.000112	-0.002807	-0.305664	0.689941	0.241699	0.500505	-0.703344	-0.210501	-0.458793
38425		8.431041	-5.050627	-0.788017	-0.009537	0.001787	-0.001673	-0.303467	0.700684	0.247559	0.500465	-0.703365	-0.210466	-0.458821
38426		8.442371	-5.033057	-0.790034	-0.009648	0.003194	0.000137	-0.299072	0.701416	0.244385	0.500439	-0.703410	-0.210386	-0.458817
38427		8.433414	-5.013398	-0.766016	-0.008090	0.002887	0.008575	-0.305908	0.690186	0.250732	0.500479	-0.703458	-0.210257	-0.458760
38428		8.422442	-4.997867	-0.792651	-0.008517	0.001673	0.009191	-0.301025	0.696289	0.246338	0.500439	-0.703526	-0.210161	-0.458742
38429		8.421968	-4.987802	-0.802417	-0.006688	0.000274	0.010377	-0.299805	0.696045	0.245850	0.500459	-0.703583	-0.210054	-0.458682
38430		8.411403	-4.981958	-0.794810	-0.007920	-0.001648	0.008590	-0.297363	0.685547	0.247314	0.500465	-0.703648	-0.209963	-0.458618
38431		8.419586	-4.991881	-0.829534	-0.012458	-0.002140	0.009267	-0.297852	0.691406	0.253174	0.500405	-0.703748	-0.209865	-0.458575
38432		8.420643	-4.957166	-0.833498	-0.014203	-0.003009	0.008089	-0.301758	0.698975	0.249268	0.500313	-0.703886	-0.209754	-0.458514
38433		8.429650	-4.965236	-0.843533	-0.015558	-0.003955	0.009021	-0.297363	0.693359	0.248291	0.500250	-0.704003	-0.209647	-0.458451
38434		8.419996	-4.957340	-0.811811	-0.013594	-0.005899	0.006579	-0.301758	0.694824	0.246582	0.500183	-0.704119	-0.209572	-0.458381
38435		8.417284	-5.005036	-0.802160	-0.016254	-0.006066	0.004809	-0.292236	0.695801	0.246582	0.500094	-0.704221	-0.209519	-0.458345
38436		8.393936	-5.051534	-0.792053	-0.020465	-0.003508	0.005777	-0.297363	0.699951	0.242676	0.500026	-0.704355	-0.209395	-0.458271
38437		8.383207	-5.056551	-0.776535	-0.019248	-0.002021	0.008476	-0.303467	0.692871	0.246338	0.500007	-0.704440	-0.209274	-0.458216
38438		8.391390	-5.066336	-0.811485	-0.012634	0.002388	0.009266	-0.302002	0.694580	0.251465	0.499966	-0.704487	-0.209188	-0.458228
38439		8.402976	-5.037339	-0.797162	-0.000920	0.002674	0.011495	-0.300781	0.701416	0.250000	0.499978	-0.704526	-0.209109	-0.458191
38440		8.381705	-5.026521	-0.805222	0.004949	0.003248	0.011702	-0.301025	0.698242	0.251709	0.500071	-0.704529	-0.209035	-0.458119
38441		8.412811	-5.011893	-0.806254	0.004890	0.006378	0.009882	-0.302002	0.698730	0.251465	0.500132	-0.704528	-0.208962	-0.458085
38442		8.412297	-5.012895	-0.805391	-0.003502	0.005099	0.004276	-0.296631	0.705811	0.251709	0.500119	-0.704553	-0.208901	-0.458090
38443		8.367328	-5.071279	-0.808012	-0.012394	0.012566	0.004099	-0.296143	0.692383	0.244385	0.500114	-0.704601	-0.208734	-0.458096
38444		8.369005	-5.057178	-0.765992	-0.014790	0.013292	0.007160	-0.289795	0.693848	0.248047	0.500116	-0.704613	-0.208585	-0.458145
38445		8.358655	-5.040705	-0.791758	-0.015859	0.011698	-0.000074	-0.292236	0.691895	0.251465	0.500088	-0.704669	-0.208438	-0.458155
38446		8.359459	-5.049829	-0.757170	-0.012757	0.006249	-0.005554	-0.304199	0.694336	0.247070	0.500000	-0.704743	-0.208364	-0.458172
38447		8.338019	-5.071823	-0.763650	-0.009323	0.003852	-0.010742	-0.300537	0.696533	0.245605	0.499906	-0.704722	-0.208407	-0.458288
38448		8.336838	-5.095957	-0.796132	-0.008673	0.002261	-0.014981	-0.292969	0.691895	0.254883	0.499845	-0.704695	-0.208462	-0.458371
38449		8.326935	-5.110958	-0.795265	-0.004779	-0.002916	-0.017150	-0.301758	0.703857	0.254395	0.499717	-0.704778	-0.208508	-0.458361
38450		8.369632	-5.110876	-0.797085	0.000650	-0.003988	-0.015420	-0.298096	0.689209	0.252686	0.499653	-0.704801	-0.208584	-0.458361
38451		8.381714	-5.102878	-0.790129	0.000293	-0.007903	-0.013896	-0.298096	0.690674	0.249023	0.499547	-0.704851	-0.208686	-0.458353
38452		8.394784	-5.082049	-0.767504	0.000780	-0.009820	-0.012690	-0.307617	0.691406	0.243896	0.499493	-0.704875	-0.208796	-0.458325
38453		8.385114	-5.074956	-0.785733	0.007236	-0.012993	-0.012183	-0.300537	0.695068	0.253174	0.499483	-0.704797	-0.209011	-0.458358
38454		8.397485	-5.044771	-0.797522	0.010822	-0.013095	-0.010728	-0.300293	0.691162	0.256592	0.499459	-0.704822	-0.209144	-0.458285
38455		8.418125	-5.046113	-0.824041	0.014861	-0.011117	-0.011702	-0.297363	0.700684	0.253174	0.499399	-0.704859	-0.209283	-0.458231
38456		8.409424	-5.047741	-0.781657	0.010573	-0.011153	-0.005285	-0.300049	0.692871	0.250977	0.499446	-0.704898	-0.209338	-0.458094
38457		8.409715	-5.014998	-0.835096	0.010766	-0.007563	-0.001367	-0.304443	0.695312	0.252441	0.499480	-0.704901	-0.209405	-0.458021
38458		8.390663	-4.989232	-0.827861	0.010900	-0.008104	-0.004994	-0.302490	0.697510	0.247070	0.499471	-0.704893	-0.209513	-0.457994
38459		8.403692	-4.946932	-0.822669	0.008043	-0.004601	-0.004955	-0.295166	0.697998	0.252930	0.499535	-0.704838	-0.209599	-0.457970
38460		8.393189	-4.952189	-0.830541	0.001684	-0.003265	-0.006365	-0.307617	0.697998	0.257812	0.499532	-0.704896	-0.209590	-0.457889
38461		8.402275	-4.971382	-0.855510	-0.007469	-0.001558	-0.005917	-0.302734	0.694092	0.247070	0.499354	-0.704975	-0.209604	-0.457954
38462		8.391577	-4.987733	-0.854549	-0.006201	0.001657	-0.006852	-0.296143	0.691895	0.256104	0.499316	-0.704951	-0.209638	-0.458017
38463		8.360405	-5.002730	-0.852704	-0.003297	-0.000120	-0.010521	-0.304688	0.697266	0.243896	0.499194	-0.705043	-0.209632	-0.458011
38464		8.351405	-4.994319	-0.844851	-0.006519	-0.000963	-0.008048	-0.303955	0.692383	0.245850	0.499193	-0.704983	-0.209702	-0.458072
38465		8.381269	-5.025266	-0.861221	-0.006875	0.000411	-0.012879	-0.297607	0.695068	0.255127	0.499127	-0.704938	-0.209795	-0.458170
38466		8.404013	-5.011698	-0.846070	-0.008537	0.004537	-0.008329	-0.297607	0.695557	0.255371	0.499015	-0.705023	-0.209739	-0.458188
38467		8.381874	-5.056757	-0.833888	-0.015656	0.008865	-0.003689	-0.302979	0.698486	0.252197	0.498889	-0.705129	-0.209607	-0.458223
38468		8.393291	-5.039064	-0.835416	-0.020529	0.012576	0.002428	-0.294189	0.696533	0.245605	0.498792	-0.705187	-0.209449	-0.458311
38469		8.383488	-5.053520	-0.783256	-0.023964	0.014967	0.007618	-0.301514	0.694336	0.249268	0.498825	-0.705232	-0.209212	-0.458314
38470		8.390274	-5.087882	-0.823127	-0.025942	0.024162	0.015798	-0.298828	0.701904	0.252441	0.498793	-0.705265	-0.208926	-0.458428
38471		8.367960	-5.100518	-0.812337	-0.029320	0.023418	0.022809	-0.302002	0.697510	0.247803	0.498791	-0.705368	-0.208531	-0.458452
38472		8.364631	-5.106663	-0.862471	-0.033896	0.022051	0.025310	-0.292236	0.696045	0.248779	0.498782	-0.705433	-0.208168	-0.458527
38473		8.363032	-5.098448	-0.871665	-0.036203	0.020933	0.027472	-0.297607	0.690186	0.253418	0.498808	-0.705574	-0.207723	-0.458483
38474		8.370083	-5.120757	-0.870890	-0.027669	0.016807	0.034899	-0.290283	0.695557	0.249512	0.498778	-0.705732	-0.207325	-0.458454
38475		8.347804	-5.100365	-0.863234	-0.021081	0.015479	0.042963	-0.287598	0.694580	0.252441	0.498946	-0.705867	-0.206862	-0.458272
38476		8.387599	-5.061757	-0.875299	-0.016355	0.014682	0.051664	-0.284912	0.689209	0.252441	0.499146	-0.706044	-0.206347	-0.458014
38477		8.424891	-5.060155	-0.884647	-0.011191	0.015530	0.058851	-0.299316	0.699219	0.243164	0.499382	-0.706223	-0.205811	-0.457722
38478		8.401192	-5.031801	-0.884634	-0.011232	0.022333	0.065526	-0.290527	0.701904	0.250488	0.499733	-0.706194	-0.205315	-0.457605
38479		8.399776	-4.969785	-0.886272	-0.014646	0.033691	0.072872	-0.288574	0.697266	0.247559	0.500090	-0.706271	-0.204633	-0.457401
38480		8.427370	-4.950968	-0.867924	-0.019762	0.045489	0.076321	-0.293701	0.695312	0.256592	0.500457	-0.706309	-0.203881	-0.457277
38481		8.434593	-4.919988	-0.857798	-0.030952	0.048710	0.080162	-0.289062	0.698486	0.255127	0.500607	-0.706460	-0.203069	-0.457242
38482		8.450658	-4.908719	-0.872191	-0.041023	0.056448	0.073704	-0.285645	0.689941	0.252441	0.500752	-0.706608	-0.202200	-0.457239
38483		8.454235	-4.938173	-0.891840	-0.047525	0.063636	0.069618	-0.291992	0.699707	0.247070	0.500845	-0.706741	-0.201317	-0.457321
38484		8.458952	-4.955131	-0.920530	-0.052246	0.064888	0.060037	-0.285156	0.700684	0.259766	0.500959	-0.706763	-0.200503	-0.457520
38485		8.432033	-5.007705	-0.904417	-0.050167	0.058328	0.046384	-0.295166	0.702881	0.256836	0.500921	-0.706946	-0.199732	-0.457616
38486		8.406451	-5.047196	-0.898343	-0.046807	0.050541	0.036330	-0.290771	0.701660	0.257812	0.500828	-0.707036	-0.199134	-0.457840
38487		8.347826	-5.125167	-0.898842	-0.045034	0.040957	0.022336	-0.281982	0.700439	0.247314	0.500688	-0.707161	-0.198642	-0.458013
38488		8.273282	-5.150209	-0.861163	-0.040946	0.024464	0.013413	-0.294434	0.691162	0.258057	0.500691	-0.707246	-0.198261	-0.458044
38489		8.273569	-5.149192	-0.836346	-0.028548	0.011383	-0.001069	-0.284668	0.698730	0.257568	0.500416	-0.707365	-0.198152	-0.458209
38490		8.312605	-5.208002	-0.793020	-0.019006	-0.002193	-0.011887	-0.289795	0.701904	0.256836	0.500265	-0.707510	-0.198114	-0.458165
38491		8.281134	-5.233011	-0.784285	-0.009443	-0.007679	-0.018715	-0.290771	0.694092	0.266602	0.500133	-0.707584	-0.198198	-0.458159
38492		8.240342	-5.250268	-0.767376	0.000153	-0.016304	-0.023746	-0.298096	0.701416	0.257080	0.499861	-0.707747	-0.198396	-0.458118
38493		8.216351	-5.328711	-0.756619	0.004067	-0.025058	-0.023246	-0.288086	0.697998	0.262939	0.499708	-0.707780	-0.198679	-0.458111
38494		8.235391	-5.394853	-0.683577	-0.019728	-0.058979	-0.014033	-0.291260	0.696533	0.256592	0.499381	-0.708173	-0.198887	-0.457770
38495		8.295819	-5.290212	-0.609629	-0.045827	-0.077906	-0.005878	-0.286621	0.693604	0.262695	0.498953	-0.708669	-0.199068	-0.457391
38496		8.363868	-5.384802	-0.952934	-0.008544	-0.119067	0.017884	-0.291260	0.697266	0.259521	0.498724	-0.709282	-0.199389	-0.456550
38497		8.302422	-5.323835	-0.932339	0.061166	-0.078936	0.039474	-0.296143	0.693115	0.267090	0.499085	-0.709416	-0.199710	-0.455805
38498		8.257200	-5.217330	-0.796698	0.064686	-0.053085	0.031403	-0.288086	0.696045	0.251709	0.499330	-0.709479	-0.200029	-0.455299
38499		8.256402	-5.165507	-0.868224	0.057321	-0.033105	0.015877	-0.279297	0.704834	0.261230	0.499742	-0.709351	-0.200300	-0.454927
38500		8.255944	-5.155458	-0.878249	0.031782	-0.035740	-0.004910	-0.289551	0.699219	0.268311	0.499898	-0.709450	-0.200474	-0.454525
38501		8.294346	-5.074852	-0.803630	-0.018220	-0.037876	-0.003758	-0.292969	0.697021	0.264893	0.499585	-0.709787	-0.200556	-0.454307
38502		8.318167	-5.006389	-0.864378	-0.012143	-0.022159	-0.009564	-0.287109	0.701660	0.257080	0.499327	-0.709968	-0.200678	-0.454254
38503		8.279766	-4.966459	-0.893336	0.002854	-0.011826	-0.031007	-0.289062	0.701904	0.262939	0.499239	-0.709959	-0.200883	-0.454274
38504		8.259398	-4.996472	-0.917207	-0.003870	-0.004652	-0.052981	-0.278564	0.701172	0.259033	0.498966	-0.709963	-0.201165	-0.454442
38505		8.220064	-5.043709	-0.897178	-0.010355	-0.007430	-0.073162	-0.279297	0.699463	0.264404	0.498676	-0.709990	-0.201472	-0.454582
38506		8.220012	-5.118726	-0.936745	-0.013698	-0.008788	-0.080960	-0.289062	0.704102	0.257812	0.498273	-0.710073	-0.201822	-0.454739
38507		8.235792	-5.137320	-0.928016	-0.008261	0.006233	-0.082494	-0.289062	0.686768	0.266846	0.497960	-0.709958	-0.202187	-0.455100
38508		8.273613	-5.165921	-0.858185	-0.008726	0.016246	-0.079699	-0.287598	0.698486	0.267334	0.497524	-0.709901	-0.202593	-0.455484
38509		8.343075	-5.147126	-0.867050	-0.011893	0.025233	-0.076861	-0.288086	0.695068	0.263184	0.497151	-0.709844	-0.202827	-0.455877
38510		8.370255	-5.138253	-0.864598	-0.017740	0.036401	-0.064588	-0.296387	0.689453	0.262451	0.496843	-0.709749	-0.202940	-0.456310
38511		8.375052	-5.131376	-0.885173	-0.024985	0.057854	-0.049225	-0.293701	0.693359	0.259521	0.496540	-0.709577	-0.202951	-0.456902
38512		8.369370	-5.129661	-0.861013	-0.035294	0.074783	-0.033218	-0.291260	0.685059	0.266113	0.496328	-0.709402	-0.202696	-0.457517
38513		8.392297	-5.139313	-0.870821	-0.051387	0.077624	-0.019601	-0.295166	0.693604	0.262207	0.495996	-0.709385	-0.202303	-0.458077
38514		8.383217	-5.143420	-0.898356	-0.052619	0.067233	-0.013261	-0.295898	0.691162	0.263672	0.495724	-0.709362	-0.201887	-0.458590
38515		8.377050	-5.098538	-0.887903	-0.050058	0.052640	-0.006419	-0.296143	0.698242	0.260498	0.495447	-0.709405	-0.201516	-0.458985
38516		8.368605	-5.058036	-0.954314	-0.028542	0.039374	-0.008343	-0.298096	0.688477	0.263672	0.495332	-0.709373	-0.201249	-0.459278
38517		8.341709	-5.011896	-0.944463	-0.015432	0.028890	-0.019499	-0.297119	0.690186	0.267090	0.495159	-0.709326	-0.201217	-0.459549
38518		8.334758	-4.989797	-0.942906	-0.012441	0.020374	-0.029883	-0.292236	0.698730	0.265869	0.494928	-0.709323	-0.201261	-0.459785
38519		8.340034	-4.959044	-0.909054	-0.012612	0.013188	-0.042325	-0.294434	0.692627	0.262695	0.494704	-0.709343	-0.201304	-0.459975
38520		8.354381	-4.947583	-0.926465	-0.014991	0.003045	-0.053545	-0.296875	0.693848	0.266357	0.494413	-0.709351	-0.201509	-0.460187
38521		8.401204	-4.940071	-0.902633	-0.001120	-0.003155	-0.064969	-0.297607	0.684082	0.264160	0.494110	-0.709327	-0.201863	-0.460393
38522		8.384988	-4.963826	-0.875757	-0.000707	-0.005571	-0.074040	-0.299072	0.700684	0.260986	0.493763	-0.709272	-0.202353	-0.460635
38523		8.390082	-4.987609	-0.849858	-0.010587	-0.005538	-0.078702	-0.302002	0.685547	0.259277	0.493423	-0.709218	-0.202723	-0.460919
38524		8.395317	-5.032693	-0.781345	-0.019704	-0.005704	-0.079146	-0.302246	0.690430	0.271973	0.492992	-0.709168	-0.203192	-0.461251
38525		8.359021	-5.055048	-0.780948	-0.022578	-0.000912	-0.081754	-0.305420	0.695801	0.261719	0.492436	-0.709227	-0.203577	-0.461585
38526		8.375813	-5.082595	-0.712996	-0.022642	0.007162	-0.077735	-0.309082	0.687012	0.270020	0.492025	-0.709151	-0.203902	-0.461996
38527		8.381397	-5.106317	-0.686388	-0.021673	0.012712	-0.074058	-0.303223	0.685791	0.271729	0.491530	-0.709110	-0.204257	-0.462429
38528		8.395468	-5.161797	-0.674399	-0.019486	0.020174	-0.068575	-0.304688	0.687256	0.266846	0.491092	-0.709091	-0.204492	-0.462820
38529		8.430802	-5.195161	-0.654195	-0.017188	0.029440	-0.055542	-0.301270	0.684814	0.275879	0.490791	-0.708997	-0.204621	-0.463225
38530		8.412094	-5.247518	-0.655733	-0.009022	0.038450	-0.040494	-0.311279	0.690186	0.272705	0.490532	-0.708965	-0.204610	-0.463554
38531		8.393223	-5.267350	-0.682374	-0.003632	0.049553	-0.027192	-0.305176	0.685547	0.266846	0.490396	-0.708804	-0.204557	-0.463966
38532		8.352919	-5.287488	-0.681409	0.013388	0.052135	-0.009317	-0.305664	0.690918	0.262207	0.490503	-0.708579	-0.204428	-0.464255
38533		8.332520	-5.298914	-0.688067	0.034577	0.051285	-0.001771	-0.307373	0.689453	0.266113	0.490818	-0.708245	-0.204308	-0.464483
38534		8.351938	-5.326265	-0.710146	0.055300	0.047897	0.009088	-0.307617	0.678467	0.267822	0.491241	-0.707889	-0.204235	-0.464611
38535		8.363701	-5.275654	-0.700758	0.076545	0.043903	0.018449	-0.301758	0.692871	0.262451	0.491766	-0.707493	-0.204284	-0.464638
38536		8.393136	-5.276075	-0.704835	0.102417	0.037737	0.028065	-0.305664	0.692871	0.261475	0.492567	-0.707031	-0.204245	-0.464509
38537		8.402556	-5.261746	-0.640450	0.123725	0.031902	0.036571	-0.307617	0.693115	0.257080	0.493500	-0.706496	-0.204308	-0.464305
38538		8.390426	-5.227553	-0.643598	0.138388	0.031447	0.044624	-0.304443	0.694580	0.252930	0.494568	-0.705877	-0.204412	-0.464064
38539		8.378633	-5.170549	-0.638741	0.149664	0.031941	0.056062	-0.301514	0.694824	0.252686	0.495779	-0.705223	-0.204461	-0.463745
38540		8.374455	-5.157933	-0.638988	0.162668	0.034172	0.066919	-0.306152	0.688721	0.247314	0.497101	-0.704551	-0.204465	-0.463349
38541		8.391411	-5.133013	-0.596847	0.168913	0.038220	0.073342	-0.301514	0.687744	0.252197	0.498489	-0.703784	-0.204550	-0.462987
38542		8.416967	-5.129113	-0.578352	0.165922	0.042645	0.082860	-0.301758	0.687256	0.242920	0.499843	-0.703109	-0.204511	-0.462570
38543		8.408745	-5.167252	-0.564777	0.164400	0.046199	0.090556	-0.302734	0.705078	0.244141	0.501282	-0.702368	-0.204438	-0.462169
38544		8.421354	-5.183631	-0.544054	0.161049	0.051744	0.107322	-0.296387	0.699951	0.236084	0.502784	-0.701670	-0.204136	-0.461731
38545		8.340223	-5.181276	-0.548834	0.150466	0.060185	0.120194	-0.305420	0.698730	0.231689	0.504339	-0.700980	-0.203682	-0.461284
38546		8.308529	-5.211949	-0.543610	0.135241	0.064992	0.128842	-0.293457	0.701660	0.236328	0.505826	-0.700272	-0.203214	-0.460937
38547		8.286993	-5.235663	-0.505359	0.131811	0.068697	0.138057	-0.291992	0.701904	0.228027	0.507312	-0.699694	-0.202544	-0.460477
38548		8.314629	-5.292470	-0.456189	0.124172	0.075408	0.147272	-0.294678	0.709717	0.232178	0.508855	-0.699079	-0.201780	-0.460043
38549		8.253771	-5.417526	-0.400155	0.117337	0.085183	0.165558	-0.291260	0.702881	0.224365	0.510394	-0.698515	-0.200833	-0.459610
38550		8.215391	-5.478904	-0.399620	0.115439	0.093104	0.185395	-0.289795	0.705566	0.224609	0.512041	-0.697917	-0.199765	-0.459151
38551		8.253541	-5.612705	-0.451975	0.116507	0.096519	0.202574	-0.291016	0.710205	0.210938	0.513749	-0.697343	-0.198579	-0.458629
38552		8.171419	-5.651885	-0.442701	0.135447	0.099167	0.222909	-0.288818	0.704346	0.221191	0.515751	-0.696592	-0.197371	-0.458045
38553		8.131072	-5.658796	-0.409546	0.161271	0.091691	0.246181	-0.284180	0.714111	0.215088	0.517834	-0.695902	-0.196164	-0.457261
38554		8.141979	-5.654329	-0.375506	0.198986	0.089766	0.260203	-0.274902	0.711670	0.203125	0.520259	-0.695049	-0.194992	-0.456307
38555		8.151649	-5.654550	-0.363959	0.224290	0.089682	0.275175	-0.272705	0.712646	0.205322	0.522977	-0.694057	-0.193822	-0.455207
38556		8.180717	-5.651132	-0.274861	0.230595	0.092580	0.288225	-0.264160	0.721191	0.204590	0.525722	-0.693085	-0.192584	-0.454050
38557		8.230275	-5.762639	-0.267162	0.222916	0.093957	0.301803	-0.273682	0.716309	0.192139	0.528503	-0.692193	-0.191181	-0.452772
38558		8.211213	-5.922638	-0.296325	0.211680	0.106367	0.316735	-0.258789	0.723145	0.187744	0.531266	-0.691199	-0.189701	-0.451679
38559		7.956286	-5.906655	-0.242135	0.228570	0.110932	0.336818	-0.249756	0.723389	0.185059	0.534303	-0.690164	-0.188092	-0.450349
38560		7.982644	-5.877777	-0.177922	0.259099	0.107685	0.347910	-0.258057	0.726562	0.174072	0.537554	-0.689043	-0.186527	-0.448846
38561		8.167869	-5.943524	-0.234474	0.288164	0.116471	0.341746	-0.250977	0.728760	0.178955	0.540923	-0.687651	-0.185128	-0.447511
38562		7.996691	-6.003687	-0.179887	0.321186	0.109256	0.346537	-0.239502	0.731445	0.167480	0.544405	-0.686230	-0.183825	-0.446004
38563		8.070010	-6.094873	-0.116274	0.357900	0.106133	0.371829	-0.240479	0.729736	0.156738	0.548248	-0.684666	-0.182521	-0.444233
38564		8.077040	-6.116927	-0.067392	0.390606	0.108063	0.392586	-0.227295	0.732422	0.155029	0.552275	-0.682955	-0.181214	-0.442410
38565		8.082596	-6.144971	-0.040068	0.408873	0.119436	0.405538	-0.237793	0.743896	0.144043	0.556419	-0.681195	-0.179824	-0.440494
38566		7.928407	-6.090967	0.068936	0.414836	0.123950	0.427143	-0.225342	0.741943	0.148926	0.560603	-0.679401	-0.178328	-0.438563
38567		7.932618	-6.108101	0.113360	0.409672	0.127394	0.436468	-0.226074	0.750977	0.130371	0.564745	-0.677670	-0.176715	-0.436575
38568		7.973954	-6.161350	0.131044	0.409340	0.145505	0.435197	-0.218994	0.744873	0.126465	0.568900	-0.675838	-0.175031	-0.434695
38569		7.938601	-6.235770	0.136866	0.402971	0.168223	0.437829	-0.210938	0.743652	0.120361	0.573031	-0.673953	-0.173187	-0.432930
38570		7.747385	-6.205571	0.234643	0.405126	0.171656	0.454093	-0.212646	0.753174	0.111328	0.577222	-0.672053	-0.171238	-0.431090
38571		7.917605	-6.303500	0.207831	0.409196	0.177439	0.467959	-0.198730	0.746582	0.110352	0.581476	-0.670112	-0.169197	-0.429196
38572		7.769360	-6.261625	0.289032	0.439691	0.187330	0.482112	-0.193604	0.757080	0.093018	0.585945	-0.667989	-0.167130	-0.427232
38573		7.681900	-6.264851	0.426086	0.465152	0.191374	0.500075	-0.183105	0.759766	0.086182	0.590606	-0.665728	-0.165031	-0.425153
38574		7.463376	-6.151272	0.475550	0.457940	0.195113	0.516848	-0.179443	0.750244	0.086914	0.595269	-0.663490	-0.162790	-0.423007
38575		7.322325	-6.038162	0.496589	0.444587	0.181651	0.504329	-0.159912	0.755615	0.077393	0.599773	-0.661326	-0.160632	-0.420854
38576		7.419197	-6.034903	0.473739	0.407978	0.174404	0.465090	-0.159668	0.765625	0.057861	0.603908	-0.659297	-0.158595	-0.418892
38577		7.188481	-5.896581	0.448870	0.358787	0.164346	0.435176	-0.161621	0.767578	0.061035	0.607638	-0.657493	-0.156599	-0.417079
38578		7.255326	-5.840923	0.382648	0.305234	0.144537	0.397513	-0.161133	0.763428	0.065430	0.610903	-0.655967	-0.154722	-0.415410
38579		7.150051	-5.821270	0.400208	0.269383	0.113286	0.346460	-0.149902	0.756836	0.051025	0.613743	-0.654655	-0.153159	-0.413870
38580		7.059109	-5.805067	0.404369	0.241951	0.082452	0.296878	-0.147461	0.768799	0.052490	0.616213	-0.653519	-0.151931	-0.412445
38581		7.040660	-5.779073	0.385096	0.216708	0.043899	0.239111	-0.138916	0.768555	0.039795	0.618291	-0.652568	-0.151129	-0.411135
38582		6.993177	-5.699125	0.406462	0.190117	0.006800	0.179611	-0.137939	0.768799	0.044922	0.619968	-0.651802	-0.150753	-0.409960
38583		7.061104	-5.597714	0.445654	0.156945	-0.029673	0.113938	-0.130615	0.770020	0.031494	0.621190	-0.651249	-0.150811	-0.408967
38584		7.169780	-5.573695	0.456104	0.115657	-0.065958	0.039821	-0.137939	0.774170	0.039795	0.621887	-0.650939	-0.151321	-0.408212
38585		7.175988	-5.549194	0.457500	0.068293	-0.093756	-0.028110	-0.137207	0.767334	0.037354	0.622058	-0.650883	-0.152186	-0.407718
38586		7.252822	-5.545772	0.486702	0.022120	-0.118326	-0.086863	-0.140869	0.768555	0.045898	0.621745	-0.651076	-0.153344	-0.407455
38587		7.359396	-5.587966	0.452310	-0.029620	-0.149906	-0.153619	-0.141846	0.763184	0.046387	0.620880	-0.651558	-0.154854	-0.407431
38588		7.425730	-5.629988	0.428149	-0.071437	-0.175879	-0.215026	-0.141602	0.759277	0.038330	0.619542	-0.652263	-0.156694	-0.407637
38589		7.464053	-5.579536	0.416916	-0.118495	-0.201071	-0.274302	-0.146484	0.758057	0.041504	0.617708	-0.653214	-0.158828	-0.408071
38590		7.457665	-5.489618	0.450361	-0.169216	-0.217401	-0.323631	-0.157227	0.766602	0.048340	0.615399	-0.654411	-0.161144	-0.408733
38591		7.466262	-5.295330	0.504679	-0.223636	-0.230340	-0.368579	-0.154541	0.768555	0.052002	0.612612	-0.655861	-0.163587	-0.409624
38592		7.593392	-5.154780	0.534659	-0.284090	-0.248233	-0.423455	-0.156250	0.768311	0.058350	0.609270	-0.657593	-0.166215	-0.410772
38593		7.626174	-4.987633	0.490507	-0.359517	-0.259045	-0.471197	-0.169922	0.760986	0.062988	0.605319	-0.659661	-0.168900	-0.412199
38594		7.694029	-4.901742	0.452876	-0.444995	-0.259558	-0.512849	-0.177979	0.771484	0.062500	0.600733	-0.662082	-0.171523	-0.413941
38595		7.874935	-4.949829	0.371469	-0.553517	-0.252421	-0.552466	-0.176270	0.750977	0.079102	0.595395	-0.664935	-0.173950	-0.416061
38596		8.158382	-5.142585	0.244670	-0.669521	-0.230186	-0.593459	-0.193604	0.751953	0.091309	0.589271	-0.668192	-0.176084	-0.418656
38597		8.397026	-5.503118	0.030349	-0.785951	-0.186688	-0.628029	-0.199463	0.755859	0.101318	0.582401	-0.671774	-0.177784	-0.421808
38598		8.416971	-5.840725	-0.234153	-0.876199	-0.123077	-0.649528	-0.211670	0.750000	0.119873	0.574998	-0.675484	-0.178967	-0.425523
38599		8.322138	-6.082061	-0.445304	-0.897112	-0.071841	-0.661328	-0.218018	0.749268	0.129883	0.567459	-0.679039	-0.179882	-0.429579
38600		8.297571	-6.165909	-0.555449	-0.855638	-0.057196	-0.671639	-0.227295	0.744385	0.146729	0.560093	-0.682273	-0.180922	-0.433667
38601		8.286946	-6.171058	-0.622435	-0.774613	-0.060644	-0.677268	-0.233643	0.735107	0.155762	0.553115	-0.685081	-0.182286	-0.437607
38602		8.289899	-6.151008	-0.609637	-0.686148	-0.068917	-0.671731	-0.234619	0.739014	0.166016	0.546613	-0.687473	-0.183969	-0.441307
38603		8.324776	-6.035799	-0.543177	-0.604847	-0.085413	-0.661198	-0.252197	0.723633	0.174561	0.540559	-0.689530	-0.185948	-0.444711
38604		8.393467	-5.978314	-0.480541	-0.535259	-0.098270	-0.654809	-0.259766	0.722656	0.194336	0.534874	-0.691295	-0.188206	-0.447883
38605		8.490351	-5.947379	-0.435475	-0.485892	-0.094358	-0.639191	-0.267334	0.722168	0.192871	0.529501	-0.692824	-0.190514	-0.450918
38606		8.476166	-5.869634	-0.407572	-0.457944	-0.074123	-0.612874	-0.275391	0.715332	0.192383	0.524408	-0.694160	-0.192687	-0.453883
38607		8.476584	-5.716466	-0.458519	-0.444580	-0.060363	-0.584194	-0.279541	0.701660	0.208984	0.519508	-0.695399	-0.194689	-0.456757
38608		8.519141	-5.498373	-0.510439	-0.429330	-0.050397	-0.567854	-0.287842	0.714111	0.220459	0.514745	-0.696544	-0.196589	-0.459584
38609		8.618316	-5.296884	-0.547703	-0.422414	-0.041044	-0.553834	-0.287109	0.697998	0.228760	0.510064	-0.697628	-0.198366	-0.462385
38610		8.688412	-5.179464	-0.591958	-0.422944	-0.026386	-0.539325	-0.296875	0.696289	0.239502	0.505446	-0.698661	-0.199989	-0.465189
38611		8.671948	-5.080931	-0.589810	-0.423646	-0.011202	-0.521253	-0.311768	0.692627	0.242920	0.500890	-0.699652	-0.201426	-0.468000
38612		8.685364	-4.957591	-0.593543	-0.415670	0.014488	-0.505275	-0.312256	0.690430	0.250000	0.496465	-0.700511	-0.202698	-0.470872
38613		8.675582	-4.862381	-0.651383	-0.426690	0.029200	-0.499918	-0.317871	0.688965	0.260010	0.492009	-0.701349	-0.203819	-0.473809
38614		8.694557	-4.819782	-0.654520	-0.444492	0.042018	-0.496296	-0.327393	0.678955	0.267822	0.487465	-0.702198	-0.204782	-0.476823
38615		8.640794	-4.823096	-0.766062	-0.453203	0.050156	-0.486740	-0.327637	0.681396	0.273926	0.482911	-0.703038	-0.205632	-0.479843
38616		8.669771	-4.767134	-0.844829	-0.439800	0.049141	-0.475163	-0.340576	0.663574	0.280518	0.478485	-0.703820	-0.206467	-0.482763
38617		8.698321	-4.724170	-0.964661	-0.404524	0.033158	-0.473554	-0.339111	0.672363	0.295654	0.474243	-0.704497	-0.207517	-0.485504
38618		8.766734	-4.654296	-0.974358	-0.375704	0.015468	-0.473943	-0.352051	0.664551	0.302979	0.470134	-0.705111	-0.208747	-0.488075
38619		8.814993	-4.668106	-0.923332	-0.346071	0.011478	-0.471082	-0.341553	0.657227	0.309082	0.466195	-0.705610	-0.210094	-0.490548
38620		8.780365	-4.686532	-0.872308	-0.327426	0.007900	-0.453670	-0.344971	0.652588	0.314941	0.462422	-0.706065	-0.211424	-0.492887
38621		8.722461	-4.637837	-0.870825	-0.302181	0.011834	-0.440653	-0.361328	0.635742	0.313477	0.458849	-0.706415	-0.212761	-0.495145
38622		8.704386	-4.565889	-0.909144	-0.279881	0.006979	-0.436087	-0.363281	0.638672	0.320557	0.455410	-0.706693	-0.214176	-0.497308
38623		8.765006	-4.417928	-0.970621	-0.265617	-0.005983	-0.443987	-0.369141	0.628174	0.335449	0.451991	-0.706945	-0.215742	-0.499388
38624		8.825362	-4.292476	-1.015754	-0.255405	-0.021154	-0.446651	-0.378418	0.635010	0.345947	0.448587	-0.707203	-0.217418	-0.501362
38625		8.870368	-4.275800	-1.013357	-0.248250	-0.033447	-0.448295	-0.379883	0.620605	0.347900	0.445188	-0.707469	-0.219174	-0.503247
38626		8.863684	-4.270815	-0.944752	-0.227479	-0.042821	-0.443894	-0.384033	0.609131	0.356445	0.441906	-0.707693	-0.221023	-0.505013
38627		8.796359	-4.283557	-0.919293	-0.217731	-0.045105	-0.436659	-0.385986	0.607910	0.358398	0.438701	-0.707892	-0.222873	-0.506713
38628		8.790416	-4.279967	-0.927239	-0.226590	-0.047173	-0.433802	-0.395020	0.606689	0.362061	0.435445	-0.708126	-0.224671	-0.508397
38629		8.786977	-4.298983	-0.996654	-0.233560	-0.054119	-0.425085	-0.408447	0.596680	0.375244	0.432167	-0.708418	-0.226408	-0.510014
38630		8.856031	-4.214946	-1.079695	-0.215120	-0.064912	-0.415726	-0.405762	0.587158	0.383301	0.429011	-0.708697	-0.228202	-0.511490
38631		8.950155	-4.191194	-1.122341	-0.167421	-0.079682	-0.399198	-0.406250	0.583740	0.377441	0.426174	-0.708889	-0.230150	-0.512721
38632		8.961883	-4.192995	-1.130563	-0.122907	-0.082779	-0.377115	-0.416504	0.558105	0.385254	0.423684	-0.708970	-0.232164	-0.513763
38633		8.929843	-4.197067	-1.042999	-0.093170	-0.079692	-0.348301	-0.423340	0.568848	0.395508	0.421496	-0.708982	-0.234121	-0.514658
38634		8.926715	-4.198538	-0.918455	-0.066211	-0.072012	-0.319859	-0.415283	0.565430	0.390381	0.419602	-0.708915	-0.235994	-0.515442
38635		8.913967	-4.141172	-0.880920	-0.051850	-0.060785	-0.289798	-0.427002	0.554688	0.393066	0.417943	-0.708804	-0.237707	-0.516155
38636		8.928604	-3.999911	-0.844758	-0.052723	-0.044352	-0.257618	-0.423828	0.548828	0.392090	0.416448	-0.708685	-0.239166	-0.516852
38637		8.967497	-3.905264	-0.850446	-0.070252	-0.016362	-0.228397	-0.426514	0.545410	0.395020	0.415032	-0.708561	-0.240276	-0.517646
38638		9.018436	-3.838872	-0.921912	-0.084142	0.012790	-0.199537	-0.440430	0.543457	0.400635	0.413715	-0.708415	-0.241052	-0.518538
38639		9.015173	-3.848746	-0.925663	-0.091443	0.039011	-0.162918	-0.434326	0.540039	0.404297	0.412567	-0.708252	-0.241487	-0.519473
38640		8.957473	-3.933836	-0.912895	-0.094923	0.061903	-0.120235	-0.435303	0.544678	0.394775	0.411629	-0.708086	-0.241573	-0.520402
38641		8.897129	-4.019690	-0.998946	-0.082109	0.073952	-0.077576	-0.447266	0.524658	0.404053	0.410976	-0.707908	-0.241420	-0.521230
38642		8.844132	-4.108116	-1.023071	-0.055437	0.082141	-0.036171	-0.435059	0.541260	0.404053	0.410678	-0.707687	-0.241108	-0.521910
38643		8.814997	-4.171113	-1.000494	-0.024158	0.084918	0.000094	-0.437256	0.529541	0.405273	0.410729	-0.707419	-0.240705	-0.522419
38644		8.818770	-4.195174	-1.023792	0.015672	0.081158	0.035126	-0.446289	0.539062	0.399658	0.411161	-0.707101	-0.240279	-0.522705
38645		8.782982	-4.187501	-1.059789	0.066722	0.068678	0.069318	-0.445557	0.532471	0.391846	0.412019	-0.706731	-0.239914	-0.522698
38646		8.800788	-4.140810	-1.092015	0.120481	0.047056	0.100299	-0.435059	0.537842	0.390381	0.413285	-0.706331	-0.239673	-0.522349
38647		8.806678	-4.113959	-1.005867	0.175083	0.028263	0.131553	-0.436035	0.543701	0.400146	0.414972	-0.705886	-0.239546	-0.521671
38648		8.868753	-4.054033	-1.009580	0.217045	0.020183	0.156366	-0.438721	0.547852	0.390381	0.416996	-0.705378	-0.239481	-0.520773
38649		8.884226	-4.049216	-0.972546	0.253050	0.013048	0.174510	-0.442139	0.550537	0.386963	0.419296	-0.704808	-0.239486	-0.519695
38650		8.906430	-4.025807	-0.984831	0.277814	0.001118	0.189833	-0.433350	0.557129	0.388428	0.421780	-0.704229	-0.239547	-0.518440
38651		8.917980	-4.014690	-0.955440	0.289889	-0.002312	0.209528	-0.435303	0.556885	0.375732	0.424412	-0.703655	-0.239552	-0.517067
38652		8.937954	-3.998570	-0.942659	0.292896	-0.002060	0.227935	-0.425049	0.561279	0.377441	0.427137	-0.703100	-0.239458	-0.515620
38653		8.956947	-3.984946	-0.955218	0.290572	0.002115	0.250784	-0.422607	0.569336	0.367920	0.429951	-0.702574	-0.239201	-0.514116
38654		8.955639	-3.990253	-0.934325	0.287377	0.005604	0.271311	-0.411377	0.573730	0.360596	0.432838	-0.702077	-0.238794	-0.512559
38655		8.935550	-4.024144	-0.948160	0.282518	0.003718	0.292815	-0.418457	0.580811	0.363281	0.435780	-0.701640	-0.238243	-0.510918
38656		8.867350	-4.108507	-0.972300	0.289336	-0.008975	0.310457	-0.414062	0.585449	0.355225	0.438806	-0.701260	-0.237660	-0.509118
38657		8.897041	-4.161212	-0.936429	0.309781	-0.016783	0.332871	-0.411865	0.591797	0.346680	0.442027	-0.700872	-0.237058	-0.507143
38658		8.926365	-4.228979	-0.891058	0.342467	-0.022606	0.344764	-0.409668	0.601318	0.346191	0.445470	-0.700401	-0.236540	-0.505018
38659		8.946058	-4.216044	-0.877708	0.363936	-0.022529	0.361302	-0.407471	0.605469	0.339844	0.449101	-0.699870	-0.236011	-0.502781
38660		8.922987	-4.197407	-0.846490	0.385111	-0.020351	0.369229	-0.392822	0.613525	0.333008	0.452884	-0.699253	-0.235511	-0.500476
38661		8.941237	-4.176256	-0.814594	0.397327	-0.021776	0.377544	-0.392822	0.621826	0.319824	0.456762	-0.698597	-0.235013	-0.498096
38662		8.940188	-4.171131	-0.850658	0.403508	-0.026917	0.380019	-0.392334	0.628418	0.319824	0.460665	-0.697929	-0.234540	-0.495655
38663		8.939335	-4.166359	-0.862487	0.394125	-0.028871	0.381014	-0.387939	0.629883	0.310059	0.464505	-0.697291	-0.234025	-0.493206
38664		8.946397	-4.120060	-0.894158	0.375781	-0.027992	0.380956	-0.381104	0.642334	0.299072	0.468230	-0.696706	-0.233427	-0.490789
38665		8.945978	-4.101238	-0.842004	0.364486	-0.027246	0.378122	-0.371094	0.638672	0.296143	0.471870	-0.696142	-0.232791	-0.488399
38666		8.914775	-4.065756	-0.816731	0.358104	-0.022394	0.365217	-0.369141	0.644287	0.283203	0.475420	-0.695545	-0.232182	-0.486090
38667		8.908413	-4.072810	-0.755843	0.351452	-0.018326	0.351934	-0.361572	0.645752	0.276367	0.478877	-0.694919	-0.231602	-0.483864
38668		8.920936	-4.007333	-0.750407	0.318958	-0.009229	0.335495	-0.361328	0.658936	0.279541	0.482090	-0.694343	-0.230947	-0.481810
38669		8.928236	-4.017941	-0.750392	0.279549	0.002604	0.321601	-0.359131	0.661865	0.270264	0.485034	-0.693841	-0.230165	-0.479948
38670		8.927594	-4.070888	-0.782510	0.254740	0.005505	0.310118	-0.355225	0.658936	0.265869	0.487789	-0.693396	-0.229335	-0.478195
38671		8.906424	-4.108266	-0.773913	0.247597	0.004364	0.301748	-0.346436	0.674072	0.254883	0.490459	-0.692960	-0.228528	-0.476478
38672		8.897368	-4.209238	-0.753031	0.241866	-0.003611	0.297506	-0.354980	0.672607	0.254150	0.493068	-0.692560	-0.227752	-0.474735
38673		8.855873	-4.256135	-0.736452	0.228291	0.002271	0.291447	-0.339355	0.669678	0.258789	0.495572	-0.692173	-0.226930	-0.473083
38674		8.813888	-4.216296	-0.709486	0.208020	0.015919	0.279338	-0.345459	0.682373	0.251465	0.497932	-0.691795	-0.226049	-0.471578
38675		8.845729	-4.144354	-0.693508	0.187701	0.031887	0.267116	-0.336182	0.683838	0.244629	0.500155	-0.691403	-0.225087	-0.470259
38676		8.900821	-4.091728	-0.658655	0.162836	0.044184	0.238690	-0.334229	0.680664	0.230957	0.502148	-0.691006	-0.224139	-0.469169
38677		8.906337	-4.073532	-0.714079	0.135499	0.053369	0.214638	-0.338379	0.678955	0.230225	0.503905	-0.690634	-0.223179	-0.468291
38678		8.903453	-4.098636	-0.689335	0.104406	0.064221	0.195236	-0.334473	0.686035	0.238037	0.505414	-0.690314	-0.222169	-0.467615
38679		8.849579	-4.200674	-0.692063	0.075503	0.064802	0.174955	-0.327637	0.680908	0.229248	0.506676	-0.690082	-0.221168	-0.467067
38680		8.796765	-4.292809	-0.756683	0.062630	0.057606	0.152353	-0.319336	0.688232	0.227295	0.507762	-0.689886	-0.220277	-0.466597
38681		8.755622	-4.369813	-0.765097	0.055685	0.043970	0.128901	-0.315186	0.687012	0.228760	0.508694	-0.689730	-0.219553	-0.466154
38682		8.737201	-4.407384	-0.778698	0.053943	0.037233	0.099969	-0.318359	0.688721	0.229004	0.509486	-0.689555	-0.219019	-0.465798
38683		8.762876	-4.376236	-0.740425	0.051826	0.028054	0.074328	-0.320068	0.692139	0.225830	0.510147	-0.689378	-0.218665	-0.465504
38684		8.769935	-4.337873	-0.678429	0.053266	0.018090	0.040005	-0.324951	0.688477	0.221680	0.510663	-0.689169	-0.218558	-0.465297
38685		8.746876	-4.377703	-0.668978	0.058086	0.007884	0.012592	-0.325195	0.695068	0.215088	0.511081	-0.688929	-0.218673	-0.465140
38686		8.745718	-4.431186	-0.591107	0.054137	-0.002024	-0.009786	-0.322754	0.693848	0.220459	0.511372	-0.688703	-0.218944	-0.465027
38687		8.714895	-4.493027	-0.573267	0.047228	-0.010551	-0.027703	-0.315430	0.688477	0.215820	0.511537	-0.688508	-0.219329	-0.464953
38688		8.706607	-4.522343	-0.610652	0.034541	-0.008933	-0.040997	-0.323486	0.689941	0.218750	0.511581	-0.688336	-0.219735	-0.464967
38689		8.699801	-4.511471	-0.627255	0.019059	-0.006955	-0.052517	-0.320557	0.696533	0.218506	0.511493	-0.688202	-0.220141	-0.465071
38690		8.683518	-4.475695	-0.597749	-0.002014	-0.024289	-0.062005	-0.318848	0.701416	0.211914	0.511216	-0.688207	-0.220593	-0.465154
38691		8.656243	-4.519367	-0.597991	-0.017170	-0.044862	-0.067496	-0.320801	0.696777	0.219971	0.510793	-0.688346	-0.221108	-0.465169
38692		8.628971	-4.606085	-0.561915	-0.028365	-0.041746	-0.075976	-0.323730	0.692871	0.217041	0.510277	-0.688505	-0.221615	-0.465259
38693		8.612674	-4.707338	-0.498746	-0.051467	-0.025484	-0.078412	-0.327148	0.683838	0.223633	0.509648	-0.688694	-0.221979	-0.465495
38694		8.576725	-4.739609	-0.467438	-0.082097	-0.001258	-0.074692	-0.329590	0.685547	0.221436	0.508901	-0.688926	-0.222099	-0.465911
38695		8.530287	-4.754090	-0.547080	-0.105586	0.025778	-0.062252	-0.319580	0.692383	0.222900	0.508118	-0.689174	-0.221943	-0.466473
38696		8.513973	-4.783319	-0.573065	-0.123097	0.042414	-0.046924	-0.322021	0.687500	0.222900	0.507327	-0.689459	-0.221559	-0.467094
38697		8.486094	-4.843465	-0.586817	-0.122978	0.051709	-0.031698	-0.317139	0.681152	0.226318	0.506611	-0.689735	-0.221049	-0.467705
38698		8.488102	-4.894513	-0.541065	-0.119150	0.059146	-0.015829	-0.331055	0.685791	0.230957	0.505991	-0.689995	-0.220432	-0.468283
38699		8.530669	-4.912152	-0.497419	-0.109796	0.061401	-0.005568	-0.332520	0.687500	0.235840	0.505466	-0.690225	-0.219782	-0.468817
38700		8.541237	-4.967391	-0.517473	-0.099676	0.063994	0.007983	-0.328125	0.689697	0.239990	0.505056	-0.690426	-0.219082	-0.469290
38701		8.509623	-4.961601	-0.508058	-0.089699	0.070084	0.018819	-0.327881	0.683594	0.232666	0.504758	-0.690583	-0.218332	-0.469729
38702		8.477413	-4.961921	-0.547919	-0.080348	0.071487	0.030879	-0.325928	0.691650	0.241943	0.504566	-0.690712	-0.217544	-0.470111
38703		8.454854	-4.954404	-0.553865	-0.069377	0.068198	0.032798	-0.319092	0.690186	0.241943	0.504437	-0.690816	-0.216801	-0.470441
38704		8.380340	-4.977816	-0.575060	-0.061161	0.054468	0.031436	-0.329590	0.687012	0.240479	0.504329	-0.690936	-0.216154	-0.470677
38705		8.388089	-5.046255	-0.559224	-0.046062	0.035306	0.026227	-0.331299	0.683594	0.237549	0.504245	-0.691056	-0.215678	-0.470810
38706		8.385544	-5.107614	-0.536379	-0.019470	0.018969	0.023467	-0.321289	0.681396	0.239990	0.504274	-0.691121	-0.215392	-0.470815
38707		8.382456	-5.178196	-0.478435	0.014098	0.004868	0.023738	-0.327148	0.685059	0.239014	0.504477	-0.691105	-0.215293	-0.470666
38708		8.379941	-5.179993	-0.450420	0.042331	-0.000631	0.029047	-0.324951	0.689209	0.237549	0.504851	-0.690998	-0.215297	-0.470420
38709		8.366165	-5.173970	-0.388173	0.061511	-0.008127	0.037304	-0.319824	0.681152	0.234375	0.505360	-0.690854	-0.215360	-0.470056
38710		8.372099	-5.207440	-0.346673	0.080802	-0.006277	0.048845	-0.322754	0.692139	0.239990	0.506030	-0.690642	-0.215423	-0.469618
38711		8.324370	-5.282498	-0.282771	0.099415	0.002500	0.064867	-0.314697	0.687256	0.237305	0.506882	-0.690349	-0.215427	-0.469127
38712		8.347950	-5.385325	-0.289074	0.120063	0.012136	0.084223	-0.320068	0.685303	0.227539	0.507952	-0.689967	-0.215359	-0.468563
38713		8.380117	-5.486896	-0.308788	0.141279	0.025183	0.105101	-0.320068	0.688721	0.228760	0.509248	-0.689467	-0.215198	-0.467965
38714		8.347705	-5.564299	-0.293660	0.173112	0.029347	0.133087	-0.326416	0.695557	0.225342	0.510838	-0.688868	-0.214980	-0.467214
38715		8.352903	-5.615133	-0.192142	0.201857	0.037254	0.172213	-0.307861	0.694824	0.213867	0.512755	-0.688176	-0.214615	-0.466301
38716		8.436408	-5.734951	-0.113208	0.227178	0.046616	0.201809	-0.309326	0.690430	0.208740	0.514984	-0.687383	-0.214136	-0.465234
38717		8.361866	-5.859368	-0.125045	0.242339	0.060645	0.237653	-0.312012	0.697510	0.209473	0.517443	-0.686529	-0.213447	-0.464081
38718		8.281207	-5.958537	0.034477	0.271932	0.068973	0.277214	-0.309570	0.698975	0.207031	0.520224	-0.685585	-0.212605	-0.462752
38719		8.443148	-6.188692	0.003277	0.283659	0.087053	0.316852	-0.304199	0.697021	0.198975	0.523245	-0.684587	-0.211498	-0.461329
38720		8.376076	-6.300366	-0.046794	0.311024	0.114597	0.361599	-0.298340	0.698242	0.196533	0.526638	-0.683430	-0.210115	-0.459812
38721		8.284656	-6.306904	0.033099	0.365000	0.128184	0.421017	-0.289551	0.712646	0.191895	0.530577	-0.682080	-0.208534	-0.458006
38722		8.349521	-6.255557	-0.013405	0.419459	0.146369	0.474227	-0.283447	0.717041	0.193359	0.535055	-0.680493	-0.206768	-0.455953
38723		8.211883	-6.013435	0.078451	0.495677	0.149117	0.525331	-0.286133	0.718506	0.171631	0.540138	-0.678625	-0.204978	-0.453544
38724		8.320144	-5.817386	0.173713	0.534081	0.150929	0.571629	-0.274414	0.726318	0.155518	0.545598	-0.676620	-0.203063	-0.450859
38725		8.478523	-5.686582	0.194273	0.547388	0.171495	0.600952	-0.273438	0.720947	0.155273	0.551253	-0.674497	-0.200925	-0.448111
38726		8.428518	-5.561325	0.254556	0.524473	0.208875	0.622219	-0.262451	0.730957	0.155762	0.556888	-0.672345	-0.198398	-0.445494
38727		8.403237	-5.547401	0.229898	0.464483	0.247106	0.648663	-0.253906	0.729980	0.132324	0.562322	-0.670341	-0.195311	-0.443046
38728		8.278836	-5.378544	0.240493	0.406637	0.273875	0.665003	-0.242676	0.733154	0.127197	0.567510	-0.668502	-0.191788	-0.440743
38729		8.343136	-5.442450	0.175696	0.354137	0.305068	0.653711	-0.237793	0.739990	0.127930	0.572387	-0.666747	-0.187978	-0.438731
38730		8.284180	-5.604999	0.057401	0.315680	0.321911	0.640636	-0.220947	0.744629	0.116699	0.577002	-0.665065	-0.184013	-0.436916
38731		7.971450	-5.553807	0.127877	0.303423	0.311691	0.623508	-0.218750	0.747559	0.100098	0.581447	-0.663425	-0.180142	-0.435126
38732		7.789189	-5.562000	0.177245	0.305308	0.305185	0.607429	-0.215576	0.751221	0.102783	0.585811	-0.661749	-0.176392	-0.433358
38733		7.704744	-5.581190	0.187379	0.306132	0.281415	0.564042	-0.206299	0.747070	0.100586	0.589965	-0.660068	-0.172996	-0.431652
38734		7.608883	-5.572350	0.309594	0.308568	0.254227	0.516562	-0.207031	0.748779	0.084961	0.593903	-0.658383	-0.170000	-0.430013
38735		7.592762	-5.577511	0.365602	0.294804	0.224282	0.471254	-0.189941	0.759766	0.080078	0.597544	-0.656791	-0.167349	-0.428440
38736		7.554874	-5.533032	0.448145	0.280524	0.190571	0.425138	-0.178467	0.759521	0.074463	0.600881	-0.655312	-0.165065	-0.426921
38737		7.594148	-5.606898	0.513940	0.262057	0.162499	0.383694	-0.184570	0.757812	0.071289	0.603918	-0.653957	-0.163080	-0.425474
38738		7.561329	-5.662189	0.507605	0.248021	0.138606	0.340138	-0.176514	0.764404	0.069092	0.606683	-0.652687	-0.161403	-0.424127
38739		7.469143	-5.726063	0.567682	0.246218	0.117387	0.306589	-0.167480	0.766846	0.068604	0.609282	-0.651449	-0.160009	-0.422832
38740		7.361027	-5.786460	0.597610	0.233872	0.092919	0.270052	-0.165283	0.764893	0.061035	0.611646	-0.650305	-0.158894	-0.421600
38741		7.310209	-5.807110	0.687679	0.232539	0.064319	0.229798	-0.154297	0.767822	0.057373	0.613817	-0.649209	-0.158139	-0.420415
38742		7.242249	-5.877063	0.760526	0.223851	0.034096	0.189252	-0.162598	0.762451	0.050049	0.615754	-0.648205	-0.157728	-0.419283
38743		7.195564	-5.851836	0.850180	0.207313	0.007558	0.149575	-0.153320	0.765137	0.050781	0.617425	-0.647324	-0.157610	-0.418230
38744		7.205464	-5.831639	0.922571	0.184103	-0.013597	0.115813	-0.145996	0.759033	0.041260	0.618823	-0.646590	-0.157703	-0.417265
38745		7.220227	-5.814199	0.965302	0.150365	-0.029881	0.083544	-0.156738	0.764404	0.043945	0.619903	-0.646041	-0.157937	-0.416422
38746		7.218406	-5.818260	0.937830	0.098665	-0.037011	0.057181	-0.153320	0.770752	0.043213	0.620603	-0.645749	-0.158171	-0.415743
38747		7.189707	-5.761615	0.904035	0.026057	-0.037532	0.028093	-0.156006	0.768066	0.048096	0.620809	-0.645796	-0.158313	-0.415308
38748		7.150023	-5.695321	0.904113	-0.045851	-0.041856	0.007295	-0.143555	0.761963	0.042969	0.620551	-0.646202	-0.158343	-0.415052
38749		7.157236	-5.699554	0.830819	-0.121759	-0.047850	-0.028249	-0.158203	0.772949	0.050049	0.619751	-0.646974	-0.158333	-0.415047
38750		7.215798	-5.697562	0.706799	-0.201787	-0.058874	-0.067699	-0.148926	0.763916	0.051270	0.618368	-0.648143	-0.158317	-0.415291
38751		7.343318	-5.745462	0.547068	-0.292630	-0.066651	-0.109264	-0.149658	0.766357	0.047363	0.616336	-0.649750	-0.158253	-0.415824
38752		7.366461	-5.760877	0.348203	-0.383398	-0.068660	-0.156803	-0.157227	0.765625	0.060059	0.613639	-0.651762	-0.158143	-0.416706
38753		7.324885	-5.799074	0.233110	-0.439275	-0.078834	-0.207390	-0.159668	0.762207	0.064209	0.610440	-0.654019	-0.158165	-0.417858
38754		7.336913	-5.880299	0.161639	-0.446127	-0.101511	-0.265299	-0.165039	0.764404	0.073242	0.606961	-0.656303	-0.158595	-0.419181
38755		7.362291	-5.951997	0.129470	-0.426625	-0.132717	-0.322125	-0.176514	0.763184	0.073486	0.603335	-0.658509	-0.159561	-0.420586
38756		7.454615	-5.963924	0.136778	-0.407486	-0.165315	-0.385118	-0.167480	0.765625	0.085938	0.599537	-0.660635	-0.161102	-0.422093
38757		7.549284	-5.900486	0.100224	-0.390348	-0.195399	-0.443515	-0.178467	0.758057	0.100342	0.595572	-0.662687	-0.163174	-0.423691
38758		7.676946	-5.890394	0.093044	-0.382162	-0.219053	-0.498234	-0.187500	0.761719	0.101562	0.591409	-0.664689	-0.165691	-0.425406
38759		7.826131	-5.821929	0.133768	-0.373175	-0.237226	-0.546031	-0.196533	0.760742	0.104980	0.587082	-0.666623	-0.168593	-0.427229
38760		7.958299	-5.737901	0.196231	-0.374452	-0.243526	-0.586321	-0.191650	0.753174	0.113037	0.582574	-0.668506	-0.171740	-0.429200
38761		8.080946	-5.619845	0.199772	-0.402229	-0.233406	-0.616371	-0.210205	0.748291	0.122070	0.577796	-0.670417	-0.174900	-0.431396
38762		8.144334	-5.470917	0.048489	-0.470984	-0.211945	-0.644164	-0.215576	0.744385	0.125977	0.572537	-0.672512	-0.177860	-0.433929
38763		8.221722	-5.266331	-0.053666	-0.551599	-0.195926	-0.669956	-0.226562	0.736572	0.144531	0.566729	-0.674861	-0.180591	-0.436770
38764		8.325691	-5.193895	-0.039666	-0.626444	-0.173683	-0.694863	-0.235352	0.742676	0.150391	0.560406	-0.677406	-0.183071	-0.439944
38765		8.417378	-5.259265	-0.091811	-0.681886	-0.142091	-0.718158	-0.241211	0.730957	0.163330	0.553698	-0.680013	-0.185325	-0.443459
38766		8.474369	-5.449210	-0.052688	-0.712860	-0.115864	-0.724422	-0.251465	0.739258	0.181885	0.546790	-0.682608	-0.187364	-0.447170
38767		8.472637	-5.690189	-0.081308	-0.716788	-0.096436	-0.717464	-0.264893	0.722900	0.183594	0.539874	-0.685114	-0.189240	-0.450937
38768		8.512612	-5.883087	-0.118368	-0.693304	-0.082248	-0.702726	-0.275879	0.714111	0.198975	0.533132	-0.687430	-0.191056	-0.454651
38769		8.505419	-5.931825	-0.172389	-0.640272	-0.075164	-0.677567	-0.274414	0.713135	0.209473	0.526757	-0.689484	-0.192879	-0.458187
38770		8.463786	-5.920657	-0.331493	-0.584323	-0.076338	-0.648698	-0.280762	0.707275	0.223633	0.520790	-0.691306	-0.194733	-0.461468
38771		8.455281	-5.823100	-0.466748	-0.526732	-0.076161	-0.623474	-0.299072	0.699707	0.225586	0.515218	-0.692890	-0.196643	-0.464528
38772		8.501901	-5.721878	-0.465852	-0.451304	-0.069329	-0.597650	-0.296387	0.695801	0.238525	0.510165	-0.694129	-0.198675	-0.467381
38773		8.546569	-5.617603	-0.517539	-0.401258	-0.069422	-0.563750	-0.307129	0.692871	0.242676	0.505515	-0.695196	-0.200678	-0.469984
38774		8.565904	-5.428351	-0.478022	-0.387545	-0.066840	-0.525852	-0.318848	0.681152	0.251709	0.501080	-0.696234	-0.202504	-0.472408
38775		8.578047	-5.264741	-0.365484	-0.378672	-0.051924	-0.502188	-0.321777	0.683838	0.260010	0.496782	-0.697199	-0.204159	-0.474806
38776		8.692644	-5.149164	-0.369339	-0.364126	-0.018058	-0.479211	-0.325928	0.678223	0.262207	0.492709	-0.697993	-0.205583	-0.477262
38777		8.607952	-5.043548	-0.405572	-0.361007	0.006000	-0.449103	-0.332764	0.679443	0.272217	0.488815	-0.698708	-0.206749	-0.479711
38778		8.523083	-4.959027	-0.557798	-0.392795	0.013049	-0.427333	-0.334473	0.668945	0.283936	0.484824	-0.699545	-0.207625	-0.482155
38779		8.538610	-4.838273	-0.684857	-0.419518	0.007616	-0.415957	-0.339844	0.660156	0.292725	0.480713	-0.700511	-0.208352	-0.484550
38780		8.666317	-4.802232	-0.731179	-0.405150	0.001969	-0.419406	-0.351807	0.661621	0.294678	0.476663	-0.701410	-0.209186	-0.486886
38781		8.742368	-4.819071	-0.725114	-0.376291	0.011959	-0.414708	-0.350830	0.641113	0.295410	0.472812	-0.702144	-0.210066	-0.489199
38782		8.686744	-4.848463	-0.831623	-0.376540	0.003630	-0.399141	-0.362549	0.651855	0.303467	0.468998	-0.702925	-0.210881	-0.491393
38783		8.583209	-4.749454	-0.909345	-0.373548	-0.029089	-0.392334	-0.354736	0.643555	0.314697	0.465163	-0.703825	-0.211793	-0.493353
38784		8.546875	-4.730995	-1.081807	-0.331826	-0.076156	-0.412207	-0.372314	0.647705	0.321045	0.461399	-0.704709	-0.213170	-0.495030
38785		8.551816	-4.732481	-1.188866	-0.258749	-0.134602	-0.426183	-0.366455	0.639160	0.325439	0.457895	-0.705514	-0.215151	-0.496279
38786		8.643317	-4.663552	-1.176695	-0.174744	-0.185388	-0.434567	-0.381348	0.635498	0.333496	0.454750	-0.706181	-0.217718	-0.497101
38787		8.665731	-4.516310	-1.147043	-0.095827	-0.213007	-0.425853	-0.380859	0.623535	0.325928	0.452049	-0.706667	-0.220661	-0.497576
38788		8.735899	-4.350332	-1.140179	-0.058877	-0.228847	-0.403051	-0.381348	0.622803	0.341553	0.449624	-0.707111	-0.223679	-0.497795
38789		8.804850	-4.224286	-1.033710	-0.073390	-0.239870	-0.387083	-0.382568	0.610840	0.338867	0.447153	-0.707674	-0.226581	-0.497909
38790		8.903667	-4.103567	-0.912539	-0.119383	-0.228551	-0.366617	-0.384277	0.613525	0.345215	0.444510	-0.708390	-0.229125	-0.498093
38791		8.997046	-4.048958	-0.911796	-0.171332	-0.198711	-0.339544	-0.386963	0.615723	0.350830	0.441725	-0.709216	-0.231179	-0.498446
38792		8.994171	-3.985654	-1.010704	-0.185514	-0.175243	-0.315877	-0.397217	0.613037	0.351562	0.438994	-0.710034	-0.232945	-0.498872
38793		9.014588	-3.968837	-1.174914	-0.186747	-0.145838	-0.293436	-0.402344	0.598633	0.356934	0.436401	-0.710769	-0.234461	-0.499388
38794		8.988577	-4.016946	-1.234118	-0.167041	-0.114530	-0.269739	-0.398438	0.597412	0.362793	0.434082	-0.711343	-0.235803	-0.499961
38795		8.983899	-4.071012	-1.160791	-0.144926	-0.082660	-0.246469	-0.399902	0.592041	0.372314	0.432050	-0.711745	-0.236982	-0.500591
38796		8.950249	-4.152577	-1.057002	-0.123062	-0.055566	-0.213569	-0.398926	0.585449	0.369873	0.430337	-0.712016	-0.237957	-0.501218
38797		8.840753	-4.237201	-1.116685	-0.101840	-0.033623	-0.172226	-0.412842	0.588623	0.370605	0.428964	-0.712199	-0.238695	-0.501784
38798		8.834417	-4.250202	-1.154149	-0.083022	-0.024768	-0.131573	-0.403320	0.581787	0.370850	0.427891	-0.712356	-0.239236	-0.502219
38799		8.845380	-4.257898	-1.120799	-0.047095	-0.020117	-0.092016	-0.410889	0.587891	0.372559	0.427206	-0.712445	-0.239674	-0.502469
38800		8.892194	-4.251837	-1.168005	-0.005609	-0.010691	-0.050380	-0.416504	0.589111	0.377197	0.426960	-0.712428	-0.240002	-0.502543
38801		8.912667	-4.223466	-1.107732	0.024181	0.005643	-0.012132	-0.408691	0.576172	0.373779	0.427084	-0.712314	-0.240169	-0.502519
38802		8.891053	-4.219017	-1.034864	0.030219	0.030792	0.033451	-0.411621	0.579346	0.365234	0.427486	-0.712165	-0.239999	-0.502471
38803		8.852190	-4.271610	-0.950752	0.044343	0.058504	0.077188	-0.411133	0.586670	0.368896	0.428211	-0.711936	-0.239528	-0.502403
38804		8.785770	-4.304525	-0.979122	0.060551	0.080626	0.115346	-0.401611	0.581787	0.365479	0.429235	-0.711632	-0.238816	-0.502298
38805		8.796478	-4.309482	-0.994326	0.083931	0.097540	0.150159	-0.401123	0.580322	0.367676	0.430578	-0.711241	-0.237933	-0.502122
38806		8.769281	-4.372021	-1.024545	0.111479	0.103103	0.186978	-0.406738	0.586182	0.366943	0.432247	-0.710799	-0.236924	-0.501791
38807		8.700881	-4.467444	-1.086567	0.142723	0.104468	0.218614	-0.396729	0.591553	0.358887	0.434235	-0.710298	-0.235850	-0.501290
38808		8.647802	-4.542910	-1.111824	0.173700	0.099188	0.250335	-0.398682	0.589844	0.349365	0.436526	-0.709764	-0.234733	-0.500580
38809		8.680363	-4.573151	-1.074828	0.210980	0.090932	0.276924	-0.400391	0.601318	0.350830	0.439129	-0.709176	-0.233641	-0.499647
38810		8.708346	-4.584101	-1.027177	0.245991	0.080799	0.297776	-0.400391	0.597900	0.346191	0.442003	-0.708535	-0.232604	-0.498505
38811		8.753814	-4.585729	-0.960525	0.279116	0.079553	0.326011	-0.393799	0.603516	0.346924	0.445181	-0.707824	-0.231538	-0.497181
38812		8.746476	-4.602230	-0.899992	0.298542	0.090009	0.349339	-0.390137	0.612549	0.341064	0.448586	-0.707032	-0.230371	-0.495788
38813		8.796511	-4.580443	-0.887376	0.298259	0.100256	0.373991	-0.384521	0.617920	0.332764	0.452103	-0.706235	-0.229014	-0.494357
38814		8.853320	-4.532576	-0.856290	0.297605	0.112754	0.398812	-0.384521	0.626953	0.336914	0.455734	-0.705423	-0.227455	-0.492898
38815		8.921901	-4.518167	-0.815069	0.302316	0.126336	0.421914	-0.373291	0.625244	0.325684	0.459506	-0.704569	-0.225723	-0.491413
38816		8.876289	-4.521594	-0.780948	0.308558	0.141739	0.444575	-0.369141	0.632812	0.312256	0.463426	-0.703654	-0.223818	-0.489910
38817		8.847457	-4.467131	-0.787675	0.300279	0.158419	0.464551	-0.372070	0.645996	0.302246	0.467401	-0.702725	-0.221692	-0.488433
38818		8.833472	-4.492290	-0.800781	0.296893	0.169670	0.476368	-0.363525	0.650879	0.306396	0.471413	-0.701768	-0.219433	-0.486970
38819		8.838539	-4.482354	-0.813460	0.287568	0.177415	0.482202	-0.353027	0.652832	0.297607	0.475397	-0.700811	-0.217067	-0.485534
38820		8.824845	-4.510084	-0.826043	0.285975	0.173776	0.482933	-0.364014	0.656738	0.291992	0.479358	-0.699858	-0.214700	-0.484065
38821		8.780376	-4.486442	-0.892785	0.297194	0.158808	0.476539	-0.347412	0.663330	0.288086	0.483316	-0.698891	-0.212468	-0.482508
38822		8.766647	-4.464018	-0.867901	0.314323	0.137966	0.461721	-0.341064	0.668457	0.285889	0.487271	-0.697898	-0.210473	-0.480839
38823		8.774956	-4.389867	-0.829991	0.326982	0.118520	0.432030	-0.330322	0.668213	0.271729	0.491134	-0.696865	-0.208777	-0.479144
38824		8.746299	-4.312512	-0.821639	0.317680	0.109712	0.396360	-0.333252	0.670410	0.266357	0.494780	-0.695826	-0.207286	-0.477547
38825		8.722898	-4.243623	-0.859124	0.295764	0.092231	0.357534	-0.329834	0.677002	0.259033	0.498101	-0.694866	-0.206000	-0.476046
38826		8.701151	-4.213311	-0.840323	0.274297	0.069005	0.314529	-0.324707	0.673584	0.247559	0.501085	-0.694002	-0.204976	-0.474616
38827		8.673059	-4.209089	-0.867958	0.258757	0.038670	0.276727	-0.325928	0.680664	0.252197	0.503774	-0.693245	-0.204236	-0.473192
38828		8.623466	-4.292199	-0.853192	0.244439	0.013445	0.245505	-0.321533	0.685059	0.246094	0.506201	-0.692594	-0.203725	-0.471774
38829		8.605772	-4.337880	-0.800943	0.240278	-0.009610	0.210200	-0.317139	0.686035	0.236084	0.508429	-0.691982	-0.203502	-0.470369
38830		8.640823	-4.408581	-0.739335	0.237530	-0.027719	0.177024	-0.313721	0.692871	0.230225	0.510486	-0.691387	-0.203543	-0.468997
38831		8.657169	-4.422840	-0.641984	0.230613	-0.038077	0.144996	-0.310791	0.685547	0.239746	0.512369	-0.690798	-0.203793	-0.467702
38832		8.676470	-4.420665	-0.555882	0.202369	-0.035104	0.115297	-0.305176	0.689941	0.229492	0.513946	-0.690283	-0.204074	-0.466607
38833		8.689663	-4.359278	-0.476263	0.163555	-0.024842	0.082013	-0.305420	0.694580	0.229004	0.515208	-0.689826	-0.204365	-0.465762
38834		8.674361	-4.362759	-0.462005	0.117373	-0.024051	0.047576	-0.307373	0.695557	0.227783	0.516073	-0.689505	-0.204674	-0.465146
38835		8.636874	-4.427478	-0.394900	0.059840	-0.018675	0.018270	-0.309082	0.689697	0.231934	0.516497	-0.689357	-0.204905	-0.464792
38836		8.612579	-4.537627	-0.411384	0.009415	-0.018142	-0.002515	-0.310547	0.685059	0.221680	0.516527	-0.689399	-0.205046	-0.464634
38837		8.549126	-4.645607	-0.457270	-0.029682	-0.012262	-0.021590	-0.313477	0.696289	0.232422	0.516278	-0.689538	-0.205130	-0.464668
38838		8.527775	-4.777020	-0.509959	-0.050987	-0.008885	-0.032801	-0.312988	0.693359	0.220947	0.515864	-0.689747	-0.205180	-0.464796
38839		8.496798	-4.873065	-0.524547	-0.055390	-0.010534	-0.041586	-0.312256	0.695068	0.231201	0.515411	-0.689945	-0.205291	-0.464955
38840		8.483920	-4.997980	-0.459985	-0.050128	-0.012062	-0.045384	-0.315674	0.695312	0.231445	0.514955	-0.690139	-0.205435	-0.465109
38841		8.453086	-5.077472	-0.434126	-0.038153	-0.022432	-0.045764	-0.318115	0.692871	0.227539	0.514543	-0.690318	-0.205674	-0.465193
38842		8.473064	-5.136747	-0.356944	-0.012187	-0.022755	-0.040499	-0.316650	0.694092	0.229248	0.514302	-0.690387	-0.205990	-0.465217
38843		8.475744	-5.115290	-0.319011	0.004821	-0.017693	-0.043205	-0.314209	0.689209	0.242188	0.514162	-0.690363	-0.206366	-0.465242
38844		8.499034	-5.108176	-0.294367	0.009185	-0.008084	-0.035007	-0.314209	0.694580	0.235352	0.514051	-0.690332	-0.206629	-0.465293
38845		8.502609	-5.081725	-0.313040	0.000432	0.005167	-0.022825	-0.307373	0.697510	0.230469	0.513996	-0.690289	-0.206759	-0.465361
38846		8.463639	-5.042611	-0.316032	-0.012071	0.019455	-0.009506	-0.309326	0.691406	0.234131	0.513987	-0.690257	-0.206722	-0.465434
38847		8.421552	-5.076902	-0.312150	-0.019809	0.028933	0.005093	-0.312256	0.689697	0.233398	0.513973	-0.690259	-0.206509	-0.465541
38848		8.410926	-5.111183	-0.349436	-0.027114	0.036831	0.013395	-0.308105	0.691162	0.231934	0.513952	-0.690272	-0.206185	-0.465688
38849		8.399438	-5.106218	-0.338639	-0.043249	0.051458	0.017654	-0.314453	0.690430	0.231201	0.513901	-0.690303	-0.205720	-0.465904
38850		8.400151	-5.088146	-0.379210	-0.058872	0.060997	0.018320	-0.312988	0.694824	0.223145	0.513761	-0.690357	-0.205149	-0.466231
38851		8.349962	-5.063945	-0.438972	-0.060970	0.059304	0.016803	-0.311279	0.688965	0.240234	0.513650	-0.690396	-0.204622	-0.466527
38852		8.329368	-5.066820	-0.462305	-0.058199	0.050871	0.009037	-0.316650	0.689941	0.229736	0.513432	-0.690501	-0.204118	-0.466832
38853		8.255081	-5.119073	-0.458866	-0.058476	0.043793	0.005719	-0.310303	0.685303	0.241943	0.513216	-0.690587	-0.203702	-0.467123
38854		8.243346	-5.134724	-0.432199	-0.058043	0.033420	0.001791	-0.308594	0.687012	0.242920	0.512929	-0.690755	-0.203303	-0.467365
38855		8.231391	-5.160867	-0.397438	-0.050422	0.021039	-0.006533	-0.314209	0.692139	0.238525	0.512642	-0.690925	-0.203037	-0.467543
38856		8.254065	-5.212411	-0.462376	-0.041247	0.008204	-0.017546	-0.309570	0.693359	0.236572	0.512365	-0.691060	-0.202954	-0.467684
38857		8.242532	-5.285501	-0.442164	-0.023866	0.000823	-0.019668	-0.311279	0.685547	0.247559	0.512199	-0.691141	-0.202996	-0.467727
38858		8.284404	-5.357225	-0.462685	-0.002339	-0.015608	-0.020272	-0.314209	0.693115	0.235840	0.512045	-0.691238	-0.203133	-0.467694
38859		8.327130	-5.393473	-0.486046	0.023472	-0.030931	-0.017788	-0.308594	0.696289	0.238281	0.512097	-0.691233	-0.203489	-0.467489
38860		8.357323	-5.433210	-0.466066	0.051222	-0.034270	-0.007681	-0.318115	0.692383	0.240723	0.512362	-0.691155	-0.203902	-0.467134
38861		8.336923	-5.445796	-0.482589	0.057641	-0.035005	-0.000344	-0.308594	0.684570	0.241455	0.512625	-0.691067	-0.204279	-0.466811
38862		8.284151	-5.337308	-0.398986	0.080090	-0.045238	0.015056	-0.307373	0.689453	0.241455	0.513060	-0.690973	-0.204677	-0.466298
38863		8.418063	-5.263540	-0.365004	0.106479	-0.043915	0.018876	-0.316406	0.685791	0.232178	0.513680	-0.690767	-0.205153	-0.465711
38864		8.431826	-5.381321	-0.292282	0.111330	-0.046224	0.014800	-0.313232	0.688232	0.232666	0.514300	-0.690494	-0.205722	-0.465178
38865		8.291027	-5.377898	-0.177513	0.071195	-0.062798	0.039041	-0.314453	0.686279	0.235840	0.514765	-0.690509	-0.206060	-0.464493
38866		8.364381	-5.268888	-0.264055	0.076105	-0.064930	0.066819	-0.308105	0.688965	0.239014	0.515322	-0.690573	-0.206239	-0.463699
38867		8.442689	-5.261306	-0.303916	0.140460	-0.044300	0.072216	-0.310547	0.690186	0.237061	0.516312	-0.690315	-0.206524	-0.462856
38868		8.411932	-5.338389	-0.238314	0.169935	-0.017903	0.071002	-0.306152	0.694336	0.225830	0.517501	-0.689815	-0.206821	-0.462141
38869		8.389949	-5.522786	-0.225244	0.151425	0.016337	0.070687	-0.307861	0.692871	0.236572	0.518731	-0.689215	-0.206968	-0.461589
38870		8.238544	-5.518602	-0.222095	0.134665	0.037676	0.086935	-0.313477	0.695557	0.226562	0.519854	-0.688697	-0.206770	-0.461187
38871		8.435232	-5.612555	-0.214961	0.160682	0.043518	0.097457	-0.304688	0.701660	0.220947	0.521214	-0.688003	-0.206656	-0.460740
38872		8.321182	-5.676513	-0.231576	0.201525	0.054752	0.117957	-0.300781	0.703369	0.225830	0.522983	-0.687112	-0.206556	-0.460109
38873		8.208400	-5.620307	-0.213804	0.246457	0.050710	0.143909	-0.301270	0.701416	0.218750	0.525057	-0.686129	-0.206431	-0.459269
38874		8.226815	-5.614477	-0.192677	0.287666	0.046902	0.160912	-0.295410	0.700195	0.214844	0.527428	-0.684981	-0.206412	-0.458273
38875		8.211675	-5.569059	-0.080392	0.342226	0.034072	0.170702	-0.297607	0.705322	0.205078	0.530132	-0.683661	-0.206594	-0.457041
38876		8.388118	-5.653142	-0.004201	0.372112	0.032374	0.188686	-0.292480	0.698486	0.204346	0.533102	-0.682194	-0.206847	-0.455662
38877		8.328617	-5.700310	-0.029694	0.363932	0.065298	0.224177	-0.289551	0.710205	0.195068	0.536156	-0.680728	-0.206667	-0.454351
38878		8.246714	-5.642596	0.043801	0.351275	0.090959	0.265707	-0.283447	0.709717	0.196289	0.539412	-0.679247	-0.206140	-0.452950
38879		8.335465	-5.654683	0.107966	0.355856	0.108187	0.287720	-0.281738	0.718262	0.182129	0.542756	-0.677753	-0.205364	-0.451546
38880		8.293809	-5.765517	0.125152	0.361544	0.124474	0.305923	-0.284912	0.718506	0.181152	0.546315	-0.676123	-0.204523	-0.450076
38881		8.392944	-5.917649	0.122457	0.356460	0.145332	0.334293	-0.273193	0.718018	0.165039	0.549895	-0.674491	-0.203372	-0.448684
38882		8.291148	-5.882889	0.173251	0.357311	0.177249	0.371141	-0.274902	0.730469	0.166016	0.553785	-0.672731	-0.201948	-0.447183
38883		8.219608	-5.807390	0.255956	0.381819	0.197663	0.405255	-0.264160	0.722412	0.148438	0.557924	-0.670843	-0.200305	-0.445611
38884		8.178157	-5.734293	0.325584	0.403767	0.209955	0.433124	-0.260742	0.729736	0.151123	0.562354	-0.668793	-0.198570	-0.443896
38885		8.134004	-5.673749	0.407442	0.425913	0.215836	0.452968	-0.249756	0.727783	0.139160	0.566906	-0.666686	-0.196706	-0.442102
38886		8.101408	-5.701441	0.490283	0.426658	0.234031	0.466841	-0.251709	0.730469	0.134766	0.571539	-0.664509	-0.194671	-0.440311
38887		8.058404	-5.726312	0.555947	0.405214	0.249974	0.476880	-0.241455	0.741211	0.122803	0.576008	-0.662394	-0.192377	-0.438680
38888		8.064542	-5.815211	0.550385	0.375635	0.270377	0.483064	-0.238525	0.740234	0.121094	0.580401	-0.660327	-0.189871	-0.437094
38889		8.019179	-5.898374	0.524148	0.347249	0.293015	0.500795	-0.233154	0.745361	0.109863	0.584642	-0.658359	-0.186986	-0.435653
38890		7.913562	-5.851911	0.526488	0.323797	0.298287	0.508253	-0.221924	0.748291	0.102783	0.588772	-0.656474	-0.183951	-0.434224
38891		7.876457	-5.988199	0.553324	0.308861	0.300726	0.492823	-0.215820	0.746582	0.098633	0.592742	-0.654621	-0.180913	-0.432896
38892		7.610733	-6.057893	0.645322	0.290172	0.291528	0.483477	-0.211426	0.747803	0.089844	0.596528	-0.652867	-0.177888	-0.431596
38893		7.543678	-6.092924	0.686841	0.284732	0.277739	0.475260	-0.202393	0.754395	0.090820	0.600217	-0.651159	-0.174953	-0.430259
38894		7.555878	-6.126937	0.784598	0.305447	0.256117	0.458313	-0.197754	0.745117	0.086426	0.603909	-0.649385	-0.172283	-0.428849
38895		7.514740	-6.204272	0.828482	0.318720	0.243229	0.444605	-0.196045	0.757080	0.075195	0.607588	-0.647555	-0.169797	-0.427409
38896		7.378418	-6.168131	0.863156	0.331714	0.222481	0.434186	-0.189941	0.753174	0.074219	0.611258	-0.645700	-0.167518	-0.425878
38897		7.427481	-6.183618	0.879402	0.343008	0.203632	0.415973	-0.184570	0.755127	0.065674	0.614882	-0.643816	-0.165466	-0.424314
38898		7.447679	-6.177462	0.921948	0.353329	0.181114	0.391907	-0.172607	0.767578	0.057617	0.618431	-0.641910	-0.163693	-0.422728
38899		7.350993	-6.129692	0.959879	0.356829	0.159361	0.374014	-0.168213	0.759277	0.044678	0.621894	-0.640025	-0.162137	-0.421103
38900		7.270245	-6.079339	0.977362	0.349216	0.137573	0.351159	-0.161865	0.762207	0.053223	0.625194	-0.638212	-0.160787	-0.419481
38901		7.185988	-6.020656	1.049477	0.324050	0.120214	0.323169	-0.165283	0.763184	0.038574	0.628227	-0.636544	-0.159584	-0.417942
38902		7.095970	-5.926850	1.079231	0.293463	0.100770	0.291039	-0.155518	0.763428	0.026611	0.630951	-0.635052	-0.158549	-0.416500
38903		7.162531	-5.876065	1.092980	0.265603	0.073933	0.252237	-0.147949	0.763184	0.030762	0.633351	-0.633741	-0.157761	-0.415152
38904		7.233667	-5.945552	1.138551	0.235504	0.061892	0.209520	-0.145020	0.762451	0.027344	0.635421	-0.632569	-0.157157	-0.414002
38905		7.242501	-5.959084	1.123572	0.204123	0.052647	0.177663	-0.139893	0.770020	0.018799	0.637200	-0.631550	-0.156662	-0.413010
38906		7.148951	-5.924884	1.161155	0.166019	0.036576	0.144189	-0.137451	0.763916	0.016113	0.638640	-0.630742	-0.156298	-0.412159
38907		7.075358	-5.880338	1.165223	0.127265	0.020819	0.116204	-0.145508	0.768066	0.013428	0.639756	-0.630156	-0.156033	-0.411422
38908		6.999547	-5.857954	1.161456	0.085527	0.001115	0.090996	-0.133301	0.767334	0.020020	0.640540	-0.629827	-0.155863	-0.410770
38909		6.910515	-5.819973	1.136764	0.047547	-0.023958	0.063440	-0.133057	0.762939	0.021973	0.640997	-0.629751	-0.155842	-0.410183
38910		6.942807	-5.842735	1.152418	0.000907	-0.046543	0.032735	-0.133789	0.770996	0.022461	0.641075	-0.629960	-0.155944	-0.409700
38911		6.988484	-5.900424	1.039794	-0.060149	-0.064489	-0.009902	-0.140381	0.770996	0.011475	0.640662	-0.630502	-0.156159	-0.409431
38912		6.852594	-5.799153	1.033920	-0.111098	-0.086319	-0.047759	-0.136719	0.776367	0.026611	0.639824	-0.631340	-0.156518	-0.409313
38913		6.791235	-5.638873	0.991696	-0.160590	-0.107320	-0.084103	-0.136230	0.768799	0.020508	0.638571	-0.632466	-0.157010	-0.409343
38914		6.782810	-5.423414	1.054714	-0.209043	-0.144281	-0.131131	-0.147217	0.773926	0.033936	0.636852	-0.633911	-0.157783	-0.409489
38915		6.813716	-5.240247	1.035082	-0.270364	-0.183432	-0.191451	-0.141113	0.770020	0.038086	0.634545	-0.635731	-0.158873	-0.409827
38916		7.027644	-5.163922	1.087836	-0.358319	-0.213496	-0.256394	-0.153076	0.765137	0.032227	0.631503	-0.638024	-0.160164	-0.410459
38917		7.422259	-5.330263	1.097941	-0.476183	-0.227023	-0.332173	-0.154785	0.767822	0.042725	0.627543	-0.640868	-0.161528	-0.411565
38918		7.863424	-5.659989	0.923009	-0.616660	-0.199040	-0.411489	-0.156738	0.761230	0.057373	0.622577	-0.644223	-0.162680	-0.413413
38919		7.975235	-6.035724	0.700298	-0.729128	-0.142318	-0.465517	-0.159912	0.764893	0.068604	0.616866	-0.647862	-0.163433	-0.415981
38920		7.857967	-6.306754	0.479692	-0.781179	-0.095039	-0.494962	-0.178223	0.763916	0.074707	0.610803	-0.651529	-0.163914	-0.419001
38921		7.716552	-6.457529	0.346894	-0.763958	-0.078465	-0.513995	-0.181396	0.765137	0.090088	0.604753	-0.654984	-0.164474	-0.422159
38922		7.703255	-6.485860	0.256759	-0.703566	-0.081547	-0.529516	-0.185059	0.753418	0.093506	0.598939	-0.658089	-0.165331	-0.425273
38923		7.734210	-6.481358	0.332425	-0.625686	-0.098686	-0.544491	-0.192871	0.755615	0.106201	0.593447	-0.660810	-0.166629	-0.428235
38924		7.802693	-6.470206	0.387903	-0.556259	-0.119286	-0.551231	-0.208740	0.758057	0.124756	0.588255	-0.663224	-0.168303	-0.431004
38925		7.868636	-6.346952	0.451070	-0.517038	-0.124506	-0.551292	-0.202881	0.743896	0.131348	0.583239	-0.665439	-0.170129	-0.433681
38926		7.942747	-6.135319	0.442361	-0.511075	-0.113715	-0.543559	-0.210449	0.742920	0.139648	0.578280	-0.667571	-0.171870	-0.436351
38927		8.034491	-5.945700	0.399931	-0.528992	-0.096193	-0.542527	-0.218262	0.744141	0.133301	0.573227	-0.669700	-0.173448	-0.439123
38928		8.093703	-5.729028	0.379597	-0.563449	-0.076995	-0.547573	-0.237305	0.738281	0.151855	0.567983	-0.671879	-0.174860	-0.442039
38929		8.130606	-5.620156	0.308567	-0.607645	-0.051768	-0.553866	-0.237061	0.737549	0.166260	0.562456	-0.674141	-0.176002	-0.445197
38930		8.245423	-5.633167	0.252003	-0.655294	-0.028095	-0.561057	-0.249268	0.732422	0.166992	0.556637	-0.676502	-0.176864	-0.448575
38931		8.322131	-5.642271	0.165183	-0.687042	-0.008143	-0.564758	-0.245361	0.731201	0.186768	0.550634	-0.678885	-0.177555	-0.452097
38932		8.332704	-5.585926	-0.061482	-0.715994	0.029709	-0.546698	-0.249756	0.721436	0.197510	0.544549	-0.681262	-0.177802	-0.455778
38933		8.345974	-5.561173	-0.120528	-0.753513	0.058413	-0.518306	-0.269531	0.724365	0.208496	0.538364	-0.683708	-0.177597	-0.459528
38934		8.388141	-5.548683	-0.184522	-0.770146	0.078946	-0.495204	-0.265625	0.714600	0.218018	0.532159	-0.686142	-0.177106	-0.463304
38935		8.426111	-5.609154	-0.148374	-0.765194	0.093723	-0.473358	-0.280273	0.710938	0.229004	0.526062	-0.688494	-0.176417	-0.467024
38936		8.393863	-5.727149	-0.070595	-0.739115	0.106763	-0.446621	-0.282471	0.697754	0.238770	0.520194	-0.690683	-0.175614	-0.470654
38937		8.290824	-5.767600	-0.086292	-0.693369	0.117937	-0.426186	-0.285889	0.699951	0.255371	0.514654	-0.692629	-0.174806	-0.474173
38938		8.330500	-5.782509	-0.182095	-0.644392	0.116584	-0.403091	-0.303467	0.692383	0.257812	0.509441	-0.694390	-0.174010	-0.477507
38939		8.358552	-5.754875	-0.241738	-0.577067	0.112092	-0.392671	-0.301025	0.688477	0.275635	0.504644	-0.695850	-0.173490	-0.480654
38940		8.440617	-5.665420	-0.301327	-0.533399	0.113357	-0.373805	-0.310791	0.686523	0.278076	0.500156	-0.697141	-0.172986	-0.483647
38941		8.442274	-5.556022	-0.284606	-0.474265	0.120891	-0.353275	-0.311279	0.676758	0.279541	0.496136	-0.698140	-0.172627	-0.486467
38942		8.371919	-5.423803	-0.412476	-0.434674	0.113686	-0.335592	-0.314697	0.673340	0.289307	0.492419	-0.699005	-0.172374	-0.489084
38943		8.424611	-5.260103	-0.527343	-0.426375	0.095864	-0.334373	-0.322266	0.671875	0.297607	0.488720	-0.699896	-0.172216	-0.491569
38944		8.562742	-5.127418	-0.575568	-0.437091	0.081653	-0.335960	-0.327637	0.669189	0.304688	0.484924	-0.700870	-0.172081	-0.493981
38945		8.634338	-5.004584	-0.595721	-0.436978	0.080229	-0.330150	-0.323975	0.653320	0.311523	0.481143	-0.701843	-0.171918	-0.496350
38946		8.597865	-4.831615	-0.469133	-0.415808	0.078741	-0.319071	-0.340088	0.661621	0.314453	0.477520	-0.702738	-0.171780	-0.498624
38947		8.670188	-4.648058	-0.412407	-0.390953	0.085726	-0.319698	-0.334473	0.655518	0.326416	0.474042	-0.703490	-0.171719	-0.500898
38948		8.835203	-4.530118	-0.360350	-0.379892	0.112788	-0.322441	-0.336182	0.645752	0.332764	0.470647	-0.704069	-0.171610	-0.503316
38949		8.971132	-4.463503	-0.332236	-0.402700	0.162033	-0.323446	-0.350342	0.650635	0.334961	0.467176	-0.704517	-0.171216	-0.506051
38950		8.989926	-4.525081	-0.376242	-0.440083	0.215519	-0.312431	-0.362549	0.637451	0.347656	0.463599	-0.704884	-0.170388	-0.509100
38951		8.893727	-4.655919	-0.399875	-0.464074	0.248498	-0.306164	-0.352539	0.627197	0.348877	0.459942	-0.705195	-0.169289	-0.512342
38952		8.753750	-4.850878	-0.476628	-0.461097	0.259285	-0.308315	-0.359375	0.629883	0.348877	0.456298	-0.705428	-0.168171	-0.515637
38953		8.644825	-4.919590	-0.543983	-0.448109	0.247177	-0.319911	-0.369141	0.618408	0.366943	0.452652	-0.705629	-0.167218	-0.518875
38954		8.551443	-5.015135	-0.632464	-0.421807	0.228036	-0.331425	-0.376465	0.616455	0.366699	0.449074	-0.705781	-0.166514	-0.521995
38955		8.492924	-5.039954	-0.748436	-0.405873	0.202259	-0.338382	-0.372559	0.608643	0.374268	0.445514	-0.705959	-0.166012	-0.524956
38956		8.472377	-5.103221	-0.816309	-0.371188	0.163972	-0.342901	-0.385498	0.600586	0.378418	0.442076	-0.706156	-0.165826	-0.527650
38957		8.377912	-5.215261	-0.859133	-0.308706	0.118400	-0.343721	-0.381592	0.603027	0.378662	0.438932	-0.706310	-0.166084	-0.529982
38958		8.294653	-5.275516	-0.836393	-0.225527	0.071111	-0.347563	-0.391846	0.595947	0.395508	0.436190	-0.706353	-0.166901	-0.531928
38959		8.265405	-5.283056	-0.679426	-0.126007	0.026601	-0.355433	-0.394775	0.589111	0.392334	0.433933	-0.706214	-0.168365	-0.533496
38960		8.324180	-5.142955	-0.610241	-0.027480	-0.006734	-0.360073	-0.390137	0.579346	0.381104	0.432184	-0.705853	-0.170411	-0.534741
38961		8.405825	-4.934323	-0.594461	0.056344	-0.033029	-0.360102	-0.409912	0.568848	0.384521	0.430888	-0.705302	-0.172921	-0.535708
38962		8.417814	-4.719341	-0.627104	0.103804	-0.051745	-0.357644	-0.406738	0.571289	0.387451	0.429851	-0.704661	-0.175693	-0.536482
38963		8.511631	-4.548693	-0.646581	0.135432	-0.074888	-0.342430	-0.410645	0.571045	0.393555	0.429030	-0.704025	-0.178597	-0.537014
38964		8.687469	-4.395873	-0.669109	0.144591	-0.097733	-0.328245	-0.415771	0.567627	0.390625	0.428289	-0.703473	-0.181538	-0.537343
38965		8.836963	-4.251848	-0.586779	0.125860	-0.095972	-0.304103	-0.421143	0.566895	0.389648	0.427545	-0.703011	-0.184245	-0.537620
38966		8.956742	-4.242797	-0.532634	0.089042	-0.072985	-0.271769	-0.416748	0.570557	0.397949	0.426762	-0.702622	-0.186513	-0.537968
38967		8.928343	-4.263798	-0.548194	0.052734	-0.043659	-0.231454	-0.415039	0.562744	0.391602	0.425992	-0.702289	-0.188277	-0.538399
38968		8.925955	-4.257427	-0.564101	0.017037	-0.024448	-0.189432	-0.425293	0.575439	0.391602	0.425230	-0.702060	-0.189565	-0.538847
38969		8.924607	-4.292783	-0.583952	-0.003884	-0.020390	-0.144809	-0.426514	0.556641	0.399902	0.424551	-0.701957	-0.190482	-0.539193
38970		8.799555	-4.298189	-0.501906	-0.012002	-0.015574	-0.104636	-0.428223	0.561035	0.390381	0.424013	-0.701923	-0.191110	-0.539438
38971		8.884932	-4.482506	-0.561644	0.001853	-0.015694	-0.064092	-0.421143	0.558350	0.402344	0.423739	-0.701906	-0.191562	-0.539516
38972		8.806325	-4.484354	-0.572928	0.046779	-0.027551	-0.027899	-0.421631	0.555420	0.387451	0.423871	-0.701841	-0.192045	-0.539325
38973		8.763605	-4.423619	-0.613855	0.082303	-0.042391	0.005157	-0.429688	0.567871	0.388916	0.424335	-0.701770	-0.192546	-0.538874
38974		8.764653	-4.437778	-0.631371	0.121786	-0.055318	0.038521	-0.426514	0.568604	0.393555	0.425160	-0.701670	-0.193072	-0.538165
38975		8.718971	-4.361962	-0.625126	0.146100	-0.065539	0.075507	-0.421875	0.564209	0.381348	0.426275	-0.701588	-0.193526	-0.537226
38976		8.709450	-4.302942	-0.581865	0.140687	-0.061851	0.114440	-0.425293	0.571533	0.378662	0.427538	-0.701570	-0.193714	-0.536177
38977		8.694444	-4.365189	-0.594571	0.123868	-0.058789	0.153136	-0.415283	0.565674	0.378662	0.428880	-0.701659	-0.193587	-0.535033
38978		8.649504	-4.425270	-0.652609	0.125121	-0.064915	0.186188	-0.416504	0.576660	0.382568	0.430365	-0.701822	-0.193293	-0.533732
38979		8.622801	-4.513851	-0.693325	0.159435	-0.075494	0.219984	-0.403564	0.582520	0.375244	0.432182	-0.701959	-0.192990	-0.532190
38980		8.578558	-4.655682	-0.755532	0.203293	-0.088905	0.257010	-0.409424	0.581787	0.382812	0.434396	-0.702054	-0.192711	-0.530361
38981		8.585399	-4.702938	-0.732166	0.250581	-0.106280	0.296814	-0.406006	0.592773	0.371338	0.437031	-0.702110	-0.192468	-0.528206
38982		8.588300	-4.718117	-0.729915	0.282785	-0.117808	0.330964	-0.392090	0.596191	0.367676	0.439980	-0.702147	-0.192204	-0.525800
38983		8.671901	-4.681902	-0.662241	0.312659	-0.117857	0.357810	-0.399414	0.594238	0.371826	0.443215	-0.702106	-0.191911	-0.523238
38984		8.751666	-4.601938	-0.598414	0.323079	-0.108237	0.382991	-0.384277	0.607422	0.359375	0.446628	-0.702012	-0.191476	-0.520614
38985		8.834128	-4.536134	-0.550670	0.340011	-0.091481	0.395403	-0.386719	0.612305	0.350586	0.450212	-0.701789	-0.190975	-0.518005
38986		8.951874	-4.425112	-0.562405	0.355214	-0.074757	0.404850	-0.372803	0.618164	0.341064	0.453944	-0.701438	-0.190417	-0.515424
38987		9.022737	-4.336150	-0.492946	0.348415	-0.046128	0.410730	-0.370605	0.632568	0.344238	0.457698	-0.700983	-0.189683	-0.512987
38988		9.010813	-4.253803	-0.515215	0.305551	-0.010667	0.411565	-0.370850	0.623047	0.329834	0.461251	-0.700529	-0.188622	-0.510812
38989		8.911614	-4.264850	-0.550453	0.240347	0.015695	0.415725	-0.359619	0.642578	0.329102	0.464474	-0.700206	-0.187154	-0.508870
38990		8.790585	-4.338520	-0.660783	0.175247	0.023487	0.413786	-0.355225	0.636719	0.317871	0.467317	-0.700089	-0.185391	-0.507071
38991		8.749896	-4.396926	-0.749100	0.139646	0.019680	0.407648	-0.356934	0.637451	0.324463	0.469912	-0.700106	-0.183526	-0.505324
38992		8.752092	-4.462463	-0.743328	0.134820	-0.002021	0.399370	-0.349609	0.643311	0.328613	0.472399	-0.700214	-0.181767	-0.503488
38993		8.731848	-4.515778	-0.724863	0.148172	-0.021611	0.389015	-0.341309	0.652832	0.317627	0.474886	-0.700329	-0.180201	-0.501548
38994		8.754460	-4.543108	-0.719584	0.182508	-0.041726	0.379190	-0.336914	0.655518	0.312988	0.477507	-0.700364	-0.178924	-0.499463
38995		8.722938	-4.600714	-0.686254	0.214079	-0.054851	0.370449	-0.336670	0.657471	0.303467	0.480251	-0.700306	-0.177881	-0.497282
38996		8.694082	-4.656291	-0.677529	0.238473	-0.065487	0.359947	-0.329102	0.663330	0.290039	0.483073	-0.700163	-0.177043	-0.495043
38997		8.606838	-4.668939	-0.588456	0.256523	-0.078448	0.343761	-0.331055	0.666992	0.294922	0.485924	-0.699961	-0.176440	-0.492748
38998		8.578415	-4.707766	-0.563021	0.270910	-0.091900	0.326866	-0.320801	0.663086	0.289551	0.488748	-0.699727	-0.176034	-0.490428
38999		8.533278	-4.683390	-0.557315	0.279849	-0.114936	0.306851	-0.310791	0.679443	0.287109	0.491502	-0.699514	-0.175874	-0.488032
39000		8.546317	-4.746264	-0.625185	0.298500	-0.129714	0.278619	-0.311768	0.666504	0.290039	0.494245	-0.699232	-0.176037	-0.485599
39001		8.609888	-4.753220	-0.638783	0.314153	-0.146281	0.243300	-0.305420	0.687744	0.276123	0.496865	-0.698903	-0.176495	-0.483228
39002		8.678461	-4.660615	-0.646071	0.321392	-0.155219	0.212366	-0.312256	0.684570	0.284180	0.499433	-0.698508	-0.177249	-0.480871
39003		8.752316	-4.508910	-0.528052	0.321691	-0.146184	0.182088	-0.305664	0.690186	0.285645	0.501842	-0.698035	-0.178098	-0.478731
39004		8.773080	-4.439165	-0.387545	0.294232	-0.116262	0.152749	-0.303955	0.683594	0.273926	0.504016	-0.697512	-0.178884	-0.476912
39005		8.683069	-4.437606	-0.286610	0.235388	-0.073954	0.122488	-0.299316	0.699219	0.272217	0.505787	-0.697011	-0.179435	-0.475561
39006		8.667274	-4.451089	-0.179029	0.160012	-0.039832	0.091437	-0.301025	0.684082	0.260498	0.507071	-0.696640	-0.179750	-0.474617
39007		8.593389	-4.542363	-0.142850	0.085789	-0.019534	0.060585	-0.298096	0.688965	0.269531	0.507815	-0.696449	-0.179852	-0.474063
39008		8.509583	-4.656956	-0.245165	0.000908	0.002192	0.042051	-0.296875	0.688965	0.260742	0.508015	-0.696517	-0.179620	-0.473837
39009		8.419595	-4.787850	-0.401789	-0.070545	0.017199	0.027864	-0.302979	0.702148	0.266602	0.507784	-0.696796	-0.179147	-0.473854
39010		8.374721	-4.945505	-0.472658	-0.108641	0.022385	0.012195	-0.302734	0.689453	0.269287	0.507276	-0.697192	-0.178593	-0.474024
39011		8.341521	-5.107681	-0.553234	-0.110282	0.016788	0.002914	-0.297363	0.690186	0.270264	0.506687	-0.697612	-0.178083	-0.474228
39012		8.293319	-5.175061	-0.511288	-0.091303	0.004332	-0.005461	-0.311768	0.686768	0.272461	0.506168	-0.697990	-0.177758	-0.474348
39013		8.294493	-5.261416	-0.439064	-0.058621	-0.003016	-0.011150	-0.295654	0.687012	0.267822	0.505780	-0.698247	-0.177607	-0.474440
39014		8.296527	-5.286563	-0.332739	-0.028413	-0.009612	-0.020525	-0.300537	0.691162	0.273926	0.505556	-0.698390	-0.177688	-0.474438
39015		8.287933	-5.352036	-0.233503	-0.018198	-0.009918	-0.032318	-0.297607	0.687988	0.277344	0.505332	-0.698477	-0.177865	-0.474483
39016		8.352369	-5.337208	-0.215222	-0.023118	-0.007549	-0.041401	-0.309082	0.688965	0.278320	0.505039	-0.698568	-0.178054	-0.474590
39017		8.366742	-5.300958	-0.202496	-0.041365	-0.013540	-0.049393	-0.305176	0.687988	0.272461	0.504586	-0.698742	-0.178234	-0.474748
39018		8.395439	-5.295921	-0.257976	-0.058789	-0.015530	-0.048732	-0.308350	0.685547	0.272949	0.504053	-0.698990	-0.178374	-0.474896
39019		8.360914	-5.300217	-0.309039	-0.053767	0.000669	-0.045460	-0.299805	0.691650	0.278320	0.503579	-0.699157	-0.178442	-0.475126
39020		8.284750	-5.364046	-0.392571	-0.031007	0.015167	-0.038166	-0.293701	0.687012	0.275146	0.503301	-0.699193	-0.178497	-0.475349
39021		8.243794	-5.368555	-0.361031	-0.018453	0.027591	-0.033651	-0.302734	0.679199	0.275635	0.503144	-0.699132	-0.178533	-0.475590
39022		8.225866	-5.447888	-0.400477	-0.014026	0.035976	-0.027724	-0.300293	0.679932	0.277588	0.503018	-0.699027	-0.178493	-0.475893
39023		8.207943	-5.503926	-0.430572	-0.005417	0.038882	-0.023130	-0.308105	0.684814	0.274414	0.502966	-0.698887	-0.178444	-0.476173
39024		8.180299	-5.518428	-0.452757	0.024118	0.024804	-0.017513	-0.306152	0.688232	0.283447	0.503095	-0.698672	-0.178555	-0.476309
39025		8.215160	-5.440047	-0.437896	0.050516	0.003201	-0.012008	-0.307129	0.686768	0.271973	0.503345	-0.698461	-0.178796	-0.476264
39026		8.252164	-5.375338	-0.465378	0.069410	-0.009371	-0.007198	-0.304932	0.679199	0.279541	0.503742	-0.698204	-0.179184	-0.476077
39027		8.242611	-5.381016	-0.469225	0.073396	-0.007015	-0.002141	-0.303955	0.683838	0.278076	0.504138	-0.697953	-0.179490	-0.475910
39028		8.287704	-5.384357	-0.510947	0.063709	-0.000167	0.003019	-0.314209	0.689697	0.273682	0.504524	-0.697719	-0.179714	-0.475759
39029		8.277818	-5.512493	-0.578892	0.045959	0.016741	0.008064	-0.302979	0.686279	0.270264	0.504859	-0.697480	-0.179791	-0.475726
39030		8.078310	-5.500544	-0.553636	0.047812	0.022195	0.019510	-0.308350	0.689453	0.270264	0.505288	-0.697233	-0.179805	-0.475628
39031		8.121838	-5.313829	-0.505195	0.086849	-0.002862	0.030178	-0.303711	0.692383	0.267578	0.505938	-0.696931	-0.180013	-0.475298
39032		8.225771	-5.226664	-0.482291	0.146437	-0.019914	0.024066	-0.296387	0.686523	0.265381	0.506910	-0.696434	-0.180587	-0.474773
39033		8.236916	-5.204315	-0.362469	0.173662	-0.047793	0.017542	-0.291504	0.693604	0.259033	0.507973	-0.695931	-0.181416	-0.474059
39034		8.272551	-5.207576	-0.301759	0.155550	-0.058876	0.016981	-0.301025	0.686523	0.267334	0.508965	-0.695531	-0.182280	-0.473249
39035		8.258860	-5.253145	-0.304699	0.125649	-0.047148	0.028948	-0.300781	0.685791	0.260498	0.509739	-0.695256	-0.182795	-0.472621
39036		8.294717	-5.306910	-0.286092	0.115895	-0.028307	0.030287	-0.303223	0.688721	0.263428	0.510513	-0.694932	-0.183217	-0.472099
39037		8.311222	-5.446349	-0.331246	0.109164	-0.008075	0.032939	-0.293701	0.685791	0.267334	0.511265	-0.694570	-0.183485	-0.471714
39038		8.307550	-5.537086	-0.360666	0.103269	0.005770	0.036582	-0.297363	0.689941	0.267090	0.512007	-0.694212	-0.183614	-0.471386
39039		8.170015	-5.544210	-0.368493	0.116254	-0.000478	0.044677	-0.297852	0.689209	0.251221	0.512840	-0.693830	-0.183773	-0.470980
39040		8.317194	-5.660004	-0.357601	0.158493	-0.014160	0.047779	-0.298584	0.694824	0.254150	0.513987	-0.693273	-0.184248	-0.470365
39041		8.211150	-5.836518	-0.333432	0.195622	-0.012855	0.049446	-0.293457	0.690186	0.249512	0.515338	-0.692564	-0.184827	-0.469703
39042		8.110614	-5.882953	-0.183721	0.228977	-0.014228	0.070295	-0.292969	0.698730	0.252686	0.516967	-0.691749	-0.185424	-0.468877
39043		8.284774	-5.998170	-0.150539	0.271012	-0.015787	0.084294	-0.292725	0.690186	0.244385	0.518879	-0.690792	-0.186088	-0.467913
39044		8.471397	-6.296397	-0.125204	0.307464	-0.005741	0.088550	-0.288818	0.703613	0.241943	0.521017	-0.689629	-0.186826	-0.466957
39045		8.284372	-6.409988	-0.163996	0.355820	0.012818	0.127355	-0.288818	0.701416	0.237549	0.523662	-0.688234	-0.187489	-0.465791
39046		8.105701	-6.274305	0.052690	0.444832	0.013854	0.195709	-0.289795	0.705566	0.229980	0.527052	-0.686546	-0.188076	-0.464218
39047		8.169943	-6.182335	0.264028	0.530283	0.019968	0.252186	-0.284424	0.708740	0.221680	0.531157	-0.684518	-0.188658	-0.462294
39048		8.243963	-6.209337	0.349112	0.582749	0.035942	0.298908	-0.283447	0.708740	0.207764	0.535774	-0.682246	-0.189120	-0.460131
39049		8.236892	-6.305886	0.424192	0.583458	0.064190	0.356809	-0.270752	0.710693	0.202881	0.540659	-0.679905	-0.189157	-0.457861
39050		8.043429	-6.316001	0.471864	0.551215	0.110796	0.422371	-0.280029	0.711914	0.194580	0.545677	-0.677636	-0.188462	-0.455553
39051		8.042164	-6.206512	0.494753	0.535130	0.133791	0.482076	-0.265869	0.730957	0.181641	0.550767	-0.675412	-0.187209	-0.453241
39052		8.286197	-6.193612	0.463466	0.562103	0.144505	0.512075	-0.260010	0.727539	0.173340	0.556250	-0.673018	-0.185959	-0.450613
39053		8.025411	-6.100852	0.419665	0.573667	0.174772	0.554468	-0.256836	0.725342	0.169189	0.561906	-0.670521	-0.184279	-0.448001
39054		7.981394	-6.031190	0.482133	0.567479	0.193408	0.584906	-0.240234	0.735352	0.154541	0.567573	-0.668029	-0.182228	-0.445412
39055		7.912454	-5.953354	0.591605	0.569458	0.196029	0.597303	-0.236084	0.741455	0.150391	0.573314	-0.665497	-0.180130	-0.442694
39056		7.963974	-5.986733	0.634638	0.575776	0.205010	0.603513	-0.229248	0.739746	0.130371	0.579065	-0.662889	-0.177934	-0.440002
39057		7.831250	-5.877235	0.696851	0.557663	0.218888	0.616517	-0.222656	0.749756	0.121826	0.584752	-0.660300	-0.175525	-0.437333
39058		7.824402	-5.768831	0.679878	0.523853	0.236144	0.619142	-0.213135	0.751709	0.117676	0.590252	-0.657787	-0.172876	-0.434779
39059		7.824359	-5.670160	0.712969	0.494531	0.240173	0.603099	-0.204346	0.748047	0.106445	0.595508	-0.655350	-0.170178	-0.432349
39060		7.766576	-5.776166	0.736101	0.456620	0.236665	0.574123	-0.187500	0.752441	0.104248	0.600422	-0.653044	-0.167514	-0.430078
39061		7.714018	-5.905288	0.692705	0.421665	0.232784	0.553066	-0.187988	0.756348	0.095215	0.605040	-0.650871	-0.164851	-0.427923
39062		7.687446	-6.034551	0.693374	0.391535	0.233058	0.537519	-0.184326	0.754395	0.086914	0.609417	-0.648804	-0.162160	-0.425874
39063		7.395929	-6.057897	0.746680	0.370400	0.233350	0.522232	-0.173340	0.758545	0.081543	0.613606	-0.646801	-0.159471	-0.423918
39064		7.314383	-6.070471	0.762492	0.365290	0.211338	0.495013	-0.168457	0.760742	0.066650	0.617622	-0.644845	-0.157018	-0.421976
39065		7.299857	-6.118509	0.800264	0.369552	0.188844	0.458196	-0.156250	0.770508	0.062500	0.621484	-0.642881	-0.154891	-0.420084
39066		7.244535	-6.186110	0.881046	0.357059	0.172788	0.435778	-0.153320	0.766602	0.055420	0.625164	-0.640992	-0.152919	-0.418227
39067		7.128469	-6.230828	0.973756	0.341532	0.159507	0.407910	-0.150391	0.770020	0.055908	0.628633	-0.639181	-0.151110	-0.416455
39068		7.073824	-6.239644	1.070351	0.344274	0.144710	0.385162	-0.137451	0.772217	0.048584	0.632005	-0.637365	-0.149506	-0.414710
39069		7.048967	-6.251510	1.187890	0.351161	0.127610	0.352461	-0.138916	0.766113	0.047119	0.635267	-0.635518	-0.148187	-0.413029
39070		7.096273	-6.315824	1.203190	0.341392	0.111904	0.320762	-0.132568	0.776611	0.042236	0.638337	-0.633728	-0.147084	-0.411438
39071		6.991287	-6.298437	1.282814	0.322055	0.104709	0.296051	-0.125488	0.769287	0.027344	0.641202	-0.632025	-0.146082	-0.409958
39072		6.991685	-6.219944	1.343281	0.295557	0.096226	0.267470	-0.125488	0.766846	0.024902	0.643810	-0.630449	-0.145184	-0.408612
39073		7.069337	-6.264935	1.366531	0.269162	0.098388	0.234334	-0.116455	0.776611	0.020264	0.646163	-0.628962	-0.144358	-0.407483
39074		6.971556	-6.268705	1.408888	0.219263	0.103615	0.199308	-0.121338	0.777588	0.017578	0.648135	-0.627677	-0.143517	-0.406626
39075		6.853794	-6.222210	1.338743	0.158276	0.103697	0.177397	-0.116699	0.776855	0.014893	0.649711	-0.626692	-0.142584	-0.405958
39076		6.797738	-6.025454	1.319337	0.115201	0.093879	0.141046	-0.113770	0.775879	0.009277	0.650924	-0.625929	-0.141749	-0.405486
39077		6.797862	-5.859756	1.381842	0.084036	0.073131	0.092197	-0.114502	0.776855	0.010986	0.651783	-0.625345	-0.141176	-0.405206
39078		6.850349	-5.768919	1.432707	0.039494	0.045647	0.033951	-0.112549	0.780762	0.021973	0.652180	-0.625027	-0.140907	-0.405151
39079		6.892359	-5.810820	1.384118	-0.028003	0.026724	-0.023971	-0.112549	0.772461	0.005127	0.652008	-0.625072	-0.140815	-0.405391
39080		6.936753	-5.991169	1.274398	-0.113589	0.025886	-0.084170	-0.108643	0.770752	0.010986	0.651184	-0.625513	-0.140755	-0.406055
39081		6.759210	-6.007698	1.132941	-0.185650	0.019356	-0.129074	-0.113037	0.766846	0.019043	0.649824	-0.626314	-0.140720	-0.407011
39082		6.766184	-5.936589	1.058003	-0.232296	-0.005715	-0.171805	-0.121338	0.764404	0.005859	0.648042	-0.627400	-0.140887	-0.408120
39083		6.753535	-5.907646	0.988905	-0.246975	-0.042888	-0.225256	-0.126953	0.777344	0.019043	0.645954	-0.628624	-0.141486	-0.409338
39084		6.663890	-5.696135	1.001931	-0.248333	-0.100744	-0.279739	-0.116211	0.774170	0.023438	0.643598	-0.629984	-0.142676	-0.410543
39085		6.586131	-5.345149	1.138879	-0.245427	-0.175787	-0.327118	-0.128906	0.769287	0.034424	0.640998	-0.631521	-0.144528	-0.411599
39086		6.710958	-4.816105	1.462179	-0.289003	-0.242062	-0.382891	-0.122070	0.773682	0.028320	0.637887	-0.633441	-0.146876	-0.412651
39087		7.045051	-4.459117	1.786012	-0.460610	-0.278247	-0.438652	-0.142822	0.769531	0.042480	0.633617	-0.636311	-0.149119	-0.414007
39088		7.399885	-4.358439	1.910268	-0.754797	-0.256268	-0.470546	-0.152100	0.767334	0.053467	0.627674	-0.640589	-0.150394	-0.415997
39089		7.682610	-4.712692	1.547353	-1.035486	-0.190400	-0.499836	-0.148926	0.764160	0.080811	0.620165	-0.646019	-0.150497	-0.418814
39090		8.172907	-5.433235	1.011362	-1.215342	-0.096693	-0.544350	-0.161621	0.766113	0.090332	0.611581	-0.651926	-0.149712	-0.422548
39091		8.806324	-6.534696	0.408801	-1.318739	0.018197	-0.625924	-0.163818	0.764893	0.104980	0.602210	-0.657764	-0.148405	-0.427394
39092		8.203907	-7.311278	-0.180112	-1.348719	0.116346	-0.648343	-0.173096	0.753418	0.127441	0.592625	-0.663275	-0.146601	-0.432862
39093		7.316539	-7.676629	-0.610178	-1.276301	0.164037	-0.631818	-0.191406	0.757324	0.135986	0.583468	-0.668180	-0.144709	-0.438361
39094		6.848229	-7.927445	-0.942189	-1.120038	0.080210	-0.651025	-0.199707	0.751709	0.161621	0.574937	-0.672521	-0.143890	-0.443237
39095		6.867267	-7.800852	-0.986792	-0.841731	-0.043464	-0.691219	-0.199463	0.744873	0.171875	0.567607	-0.675874	-0.144893	-0.447239
39096		7.153444	-7.456325	-0.602288	-0.486014	-0.170051	-0.738478	-0.218018	0.736084	0.172852	0.561916	-0.677914	-0.148078	-0.450284
39097		7.534323	-7.117398	-0.029806	-0.174870	-0.277986	-0.783500	-0.223877	0.734863	0.179443	0.557653	-0.678808	-0.153192	-0.452521
39098		7.846891	-6.786059	0.341876	0.030946	-0.340032	-0.800206	-0.233154	0.729492	0.191162	0.554382	-0.678925	-0.159449	-0.454200
39099		8.097314	-6.292169	0.478599	0.120969	-0.346062	-0.784364	-0.247070	0.728271	0.188232	0.551631	-0.678641	-0.165958	-0.455641
39100		8.312955	-5.820453	0.514161	0.106853	-0.328994	-0.753983	-0.258057	0.726318	0.198486	0.548915	-0.678361	-0.172163	-0.457033
39101		8.543692	-5.356284	0.566474	0.004854	-0.276423	-0.717280	-0.264648	0.722168	0.188477	0.545796	-0.678377	-0.177501	-0.458699
39102		8.666079	-4.981486	0.561407	-0.175831	-0.214366	-0.678483	-0.270264	0.714355	0.193115	0.541897	-0.678997	-0.181673	-0.460766
39103		8.781416	-4.829189	0.476836	-0.388828	-0.159920	-0.645073	-0.275635	0.710938	0.205811	0.536977	-0.680397	-0.184577	-0.463301
39104		8.934242	-4.870693	0.372831	-0.567019	-0.086718	-0.613207	-0.289551	0.710693	0.213379	0.531242	-0.682339	-0.186250	-0.466376
39105		8.885749	-5.046712	0.214353	-0.701938	-0.011730	-0.561747	-0.290283	0.705811	0.223633	0.525025	-0.684628	-0.186769	-0.469841
39106		8.678656	-5.266303	-0.062810	-0.803622	0.056294	-0.490720	-0.303711	0.697754	0.236328	0.518580	-0.687170	-0.186166	-0.473512
39107		8.523216	-5.451191	-0.334854	-0.849438	0.089410	-0.441077	-0.304443	0.694092	0.243408	0.512066	-0.689817	-0.184929	-0.477223
39108		8.495982	-5.626419	-0.310074	-0.814386	0.101098	-0.411994	-0.303223	0.685303	0.260986	0.505870	-0.692268	-0.183613	-0.480776
39109		8.449473	-5.812198	-0.191998	-0.716747	0.105438	-0.384679	-0.323975	0.675537	0.264648	0.500296	-0.694319	-0.182448	-0.484085
39110		8.291843	-5.909979	-0.199098	-0.602929	0.108150	-0.354964	-0.321289	0.675781	0.273193	0.495480	-0.695881	-0.181587	-0.487109
39111		8.193131	-5.810563	-0.363933	-0.506490	0.082450	-0.335084	-0.329102	0.675537	0.277100	0.491255	-0.697166	-0.181085	-0.489730
39112		8.249127	-5.503161	-0.513818	-0.434798	0.051722	-0.336720	-0.339600	0.675537	0.293457	0.487393	-0.698257	-0.181023	-0.492053
39113		8.371765	-5.176079	-0.624293	-0.373140	0.026984	-0.341696	-0.332520	0.665771	0.294434	0.483785	-0.699193	-0.181293	-0.494180
39114		8.494323	-4.938300	-0.655278	-0.334126	0.004228	-0.342139	-0.333984	0.661133	0.304688	0.480411	-0.700040	-0.181864	-0.496059
39115		8.574960	-4.828143	-0.589641	-0.307290	-0.008408	-0.346288	-0.346191	0.662598	0.303955	0.477160	-0.700812	-0.182631	-0.497822
39116		8.614969	-4.790153	-0.529382	-0.295153	-0.011142	-0.348127	-0.347412	0.655762	0.314209	0.473988	-0.701516	-0.183506	-0.499536
39117		8.738364	-4.737735	-0.467227	-0.300404	0.006053	-0.358160	-0.349121	0.640869	0.320557	0.470763	-0.702146	-0.184346	-0.501388
39118		8.780842	-4.625626	-0.536099	-0.317590	0.025934	-0.371156	-0.354736	0.637695	0.319092	0.467410	-0.702727	-0.185113	-0.503424
39119		8.793952	-4.504708	-0.623338	-0.346212	0.035450	-0.382146	-0.357178	0.635254	0.331055	0.463853	-0.703349	-0.185788	-0.505592
39120		8.822982	-4.456402	-0.636467	-0.354055	0.036183	-0.395048	-0.365234	0.633057	0.336914	0.460187	-0.703966	-0.186499	-0.507817
39121		8.840735	-4.499385	-0.690762	-0.340441	0.036361	-0.416676	-0.369629	0.619141	0.340576	0.456502	-0.704481	-0.187390	-0.510095
39122		8.853643	-4.581370	-0.757455	-0.326926	0.032502	-0.425018	-0.381592	0.614746	0.341797	0.452846	-0.704935	-0.188399	-0.512351
39123		8.795740	-4.635469	-0.838653	-0.293195	0.020030	-0.434409	-0.380859	0.615967	0.350098	0.449319	-0.705286	-0.189650	-0.514507
39124		8.772774	-4.655536	-0.863172	-0.230225	-0.017190	-0.439258	-0.396729	0.611084	0.353516	0.446076	-0.705540	-0.191336	-0.516352
39125		8.783179	-4.591763	-0.860429	-0.168238	-0.049207	-0.442360	-0.394531	0.607422	0.358398	0.443125	-0.705686	-0.193422	-0.517914
39126		8.739893	-4.602455	-0.895711	-0.123359	-0.081404	-0.442383	-0.393555	0.603027	0.368652	0.440380	-0.705794	-0.195817	-0.519207
39127		8.738534	-4.574035	-0.865136	-0.073026	-0.122451	-0.445386	-0.391846	0.593506	0.363037	0.437845	-0.705880	-0.198595	-0.520178
39128		8.763597	-4.462999	-0.868101	-0.033459	-0.148967	-0.438040	-0.408936	0.589600	0.366699	0.435524	-0.705938	-0.201594	-0.520894
39129		8.788466	-4.355361	-0.785723	-0.018045	-0.151845	-0.419008	-0.407227	0.586670	0.368896	0.433365	-0.705975	-0.204555	-0.521490
39130		8.867691	-4.286658	-0.709497	-0.025991	-0.140554	-0.385983	-0.414551	0.587646	0.369141	0.431317	-0.706038	-0.207243	-0.522040
39131		8.921203	-4.214437	-0.615509	-0.046181	-0.109239	-0.347964	-0.417969	0.579102	0.385254	0.429366	-0.706096	-0.209504	-0.522667
39132		8.984608	-4.173567	-0.621632	-0.079060	-0.064338	-0.297357	-0.414551	0.569824	0.379395	0.427517	-0.706159	-0.211161	-0.523431
39133		8.897286	-4.235258	-0.713882	-0.103313	-0.030276	-0.248151	-0.416748	0.572754	0.379395	0.425797	-0.706242	-0.212298	-0.524260
39134		8.859486	-4.225532	-0.790936	-0.104992	-0.011546	-0.205985	-0.426025	0.572266	0.380615	0.424284	-0.706320	-0.213111	-0.525051
39135		8.951673	-4.147646	-0.812086	-0.072952	0.001155	-0.173701	-0.430420	0.566895	0.387451	0.423122	-0.706286	-0.213829	-0.525743
39136		9.023579	-4.079341	-0.745133	-0.038388	0.018047	-0.136362	-0.431152	0.567383	0.388428	0.422356	-0.706120	-0.214416	-0.526342
39137		8.951124	-4.084956	-0.743498	-0.043817	0.047047	-0.096527	-0.425049	0.565186	0.379150	0.421785	-0.705917	-0.214643	-0.526980
39138		8.887916	-4.072227	-0.787188	-0.067973	0.063628	-0.053963	-0.419434	0.563721	0.381348	0.421288	-0.705802	-0.214453	-0.527609
39139		8.837793	-4.063762	-0.889261	-0.088734	0.067403	-0.008323	-0.429688	0.555420	0.390625	0.420876	-0.705824	-0.213889	-0.528136
39140		8.801337	-4.063810	-0.940288	-0.076541	0.052449	0.027041	-0.433105	0.560303	0.382568	0.420665	-0.705931	-0.213223	-0.528430
39141		8.822657	-4.132644	-0.874011	-0.035548	0.043039	0.054644	-0.433838	0.560547	0.391846	0.420800	-0.705986	-0.212606	-0.528498
39142		8.791343	-4.176958	-0.867281	0.001779	0.032423	0.082404	-0.431885	0.556885	0.387939	0.421258	-0.706005	-0.212027	-0.528340
39143		8.762399	-4.196792	-0.839730	0.024105	0.016263	0.110397	-0.431396	0.563477	0.390137	0.421942	-0.706066	-0.211437	-0.527949
39144		8.751938	-4.217745	-0.810516	0.044668	0.006752	0.131507	-0.424072	0.568115	0.385742	0.422822	-0.706134	-0.210846	-0.527390
39145		8.777902	-4.226327	-0.759132	0.067976	-0.002831	0.145345	-0.434570	0.560059	0.384521	0.423884	-0.706184	-0.210307	-0.526685
39146		8.794046	-4.174468	-0.803538	0.091474	-0.008181	0.159372	-0.417236	0.569336	0.382568	0.425135	-0.706198	-0.209807	-0.525856
39147		8.790848	-4.231019	-0.852124	0.105556	-0.016191	0.185111	-0.423584	0.568359	0.388184	0.426567	-0.706241	-0.209244	-0.524863
39148		8.750376	-4.280251	-0.876309	0.126428	-0.018757	0.209178	-0.420654	0.584717	0.375732	0.428221	-0.706260	-0.208638	-0.523731
39149		8.710785	-4.384066	-0.870285	0.147638	-0.025028	0.235577	-0.412598	0.578857	0.369385	0.430102	-0.706273	-0.207989	-0.522428
39150		8.681259	-4.430947	-0.847474	0.182387	-0.037701	0.257720	-0.405029	0.580322	0.369873	0.432260	-0.706251	-0.207405	-0.520907
39151		8.729425	-4.515145	-0.742863	0.212491	-0.040228	0.280068	-0.409424	0.586182	0.373047	0.434684	-0.706164	-0.206826	-0.519235
39152		8.784995	-4.516325	-0.720978	0.236079	-0.039240	0.303687	-0.402344	0.594971	0.366699	0.437347	-0.706022	-0.206203	-0.517437
39153		8.829723	-4.515089	-0.714768	0.255748	-0.037052	0.323367	-0.399170	0.591064	0.362305	0.440210	-0.705824	-0.205538	-0.515541
39154		8.867475	-4.484390	-0.678285	0.284303	-0.026748	0.346940	-0.398926	0.614258	0.353271	0.443353	-0.705508	-0.204815	-0.513563
39155		8.887343	-4.430310	-0.706791	0.298322	-0.017245	0.366552	-0.394043	0.607910	0.354248	0.446673	-0.705122	-0.203999	-0.511537
39156		8.899017	-4.423152	-0.720746	0.309766	-0.010467	0.378596	-0.388672	0.618652	0.349365	0.450115	-0.704674	-0.203130	-0.509478
39157		8.941749	-4.346612	-0.674352	0.322697	0.002859	0.381836	-0.383789	0.616699	0.340820	0.453663	-0.704114	-0.202244	-0.507455
39158		8.897035	-4.293033	-0.660612	0.321006	0.024561	0.374926	-0.369629	0.619873	0.338623	0.457199	-0.703445	-0.201306	-0.505579
39159		8.941341	-4.266603	-0.664499	0.315028	0.043935	0.360875	-0.375488	0.624756	0.330078	0.460667	-0.702681	-0.200348	-0.503871
39160		9.014953	-4.220578	-0.638539	0.302163	0.054190	0.349726	-0.370850	0.632812	0.325684	0.464022	-0.701893	-0.199358	-0.502281
39161		9.019429	-4.158417	-0.644556	0.284986	0.055433	0.337709	-0.371582	0.641113	0.321045	0.467223	-0.701135	-0.198362	-0.500764
39162		8.917517	-4.152884	-0.689768	0.275783	0.054266	0.325003	-0.370117	0.644531	0.314453	0.470311	-0.700386	-0.197406	-0.499298
39163		8.879318	-4.238991	-0.691566	0.259699	0.049867	0.310656	-0.361816	0.640625	0.306885	0.473232	-0.699684	-0.196483	-0.497883
39164		8.822040	-4.359924	-0.697102	0.247424	0.048367	0.304843	-0.351074	0.649170	0.301270	0.476050	-0.699020	-0.195548	-0.496496
39165		8.711973	-4.463308	-0.708679	0.225728	0.035910	0.299184	-0.347656	0.652344	0.306396	0.478706	-0.698475	-0.194617	-0.495073
39166		8.641740	-4.527376	-0.718667	0.227361	0.012088	0.286524	-0.341553	0.662354	0.297607	0.481265	-0.698000	-0.193850	-0.493560
39167		8.627282	-4.581074	-0.768879	0.253766	-0.025374	0.267762	-0.342773	0.661621	0.289795	0.483857	-0.697529	-0.193472	-0.491838
39168		8.674504	-4.542271	-0.712995	0.285251	-0.055255	0.243468	-0.344971	0.666504	0.290283	0.486476	-0.697003	-0.193482	-0.489992
39169		8.698786	-4.452413	-0.618822	0.310537	-0.074084	0.210807	-0.336182	0.666748	0.277344	0.489064	-0.696393	-0.193851	-0.488133
39170		8.810560	-4.320404	-0.543937	0.319458	-0.075798	0.180157	-0.338379	0.662109	0.284668	0.491594	-0.695688	-0.194466	-0.486350
39171		8.823751	-4.245563	-0.487027	0.305430	-0.057087	0.156414	-0.343262	0.671631	0.277588	0.493925	-0.694938	-0.195031	-0.484832
39172		8.762258	-4.275910	-0.486488	0.265628	-0.035365	0.135155	-0.334473	0.668457	0.271973	0.495987	-0.694211	-0.195491	-0.483582
39173		8.743065	-4.313845	-0.473758	0.221850	-0.020407	0.110875	-0.329102	0.673828	0.263428	0.497727	-0.693562	-0.195859	-0.482576
39174		8.701428	-4.407341	-0.420471	0.188262	-0.013115	0.091802	-0.342529	0.679443	0.265381	0.499240	-0.692976	-0.196213	-0.481709
39175		8.664739	-4.546573	-0.408927	0.155146	-0.004201	0.077803	-0.327148	0.672607	0.261475	0.500488	-0.692469	-0.196448	-0.481048
39176		8.604126	-4.632120	-0.478037	0.113690	0.005829	0.070069	-0.328125	0.674805	0.261719	0.501493	-0.692087	-0.196527	-0.480517
39177		8.563659	-4.692435	-0.539731	0.076886	0.003385	0.066084	-0.322266	0.675781	0.267578	0.502259	-0.691865	-0.196485	-0.480055
39178		8.541751	-4.679343	-0.579458	0.051495	-0.005704	0.060089	-0.326904	0.686035	0.255371	0.502827	-0.691790	-0.196396	-0.479604
39179		8.530207	-4.730015	-0.611262	0.036634	-0.020294	0.044056	-0.333252	0.679932	0.258789	0.503280	-0.691773	-0.196479	-0.479118
39180		8.540812	-4.733774	-0.534765	0.041326	-0.038409	0.035124	-0.327148	0.683594	0.261230	0.503636	-0.691811	-0.196643	-0.478623
39181		8.524156	-4.814720	-0.493369	0.051533	-0.043413	0.022135	-0.326172	0.678467	0.264160	0.504007	-0.691808	-0.196958	-0.478107
39182		8.505533	-4.833301	-0.419447	0.058832	-0.040761	0.013537	-0.319580	0.681396	0.269531	0.504355	-0.691765	-0.197299	-0.477661
39183		8.514969	-4.781109	-0.420984	0.057217	-0.035044	0.003559	-0.321289	0.678467	0.259521	0.504668	-0.691700	-0.197664	-0.477273
39184		8.528012	-4.752558	-0.455389	0.047041	-0.032050	-0.005323	-0.322998	0.676758	0.264648	0.504912	-0.691632	-0.198058	-0.476951
39185		8.507832	-4.751623	-0.458590	0.025210	-0.028837	-0.012202	-0.325684	0.678955	0.254639	0.504971	-0.691647	-0.198348	-0.476746
39186		8.448801	-4.786676	-0.491057	-0.003602	-0.028761	-0.014052	-0.330078	0.677246	0.253662	0.504901	-0.691750	-0.198596	-0.476566
39187		8.458519	-4.861754	-0.476064	-0.023173	-0.031409	-0.013301	-0.321777	0.677490	0.261719	0.504702	-0.691947	-0.198761	-0.476424
39188		8.472891	-4.940652	-0.394663	-0.038982	-0.036307	-0.011006	-0.317871	0.681396	0.270264	0.504403	-0.692256	-0.198844	-0.476257
39189		8.464684	-5.005008	-0.418654	-0.048482	-0.031790	-0.012625	-0.331787	0.683594	0.262695	0.504039	-0.692603	-0.198858	-0.476132
39190		8.451786	-5.043428	-0.384063	-0.049712	-0.023622	-0.012640	-0.332520	0.676025	0.255371	0.503692	-0.692889	-0.198866	-0.476079
39191		8.464496	-5.071623	-0.405504	-0.037589	-0.014327	-0.014283	-0.332031	0.677246	0.269531	0.503431	-0.693071	-0.198912	-0.476071
39192		8.453284	-5.050697	-0.385474	-0.022840	-0.004362	-0.014926	-0.328857	0.679443	0.257812	0.503203	-0.693193	-0.198884	-0.476147
39193		8.421639	-5.029656	-0.364906	-0.014053	0.002708	-0.018259	-0.319580	0.684814	0.259033	0.503116	-0.693201	-0.198998	-0.476179
39194		8.423822	-5.015359	-0.374460	-0.015618	0.003956	-0.017361	-0.329346	0.685547	0.266113	0.503073	-0.693213	-0.199136	-0.476150
39195		8.405389	-5.037008	-0.384774	-0.027068	0.008494	-0.017536	-0.330566	0.676514	0.268799	0.502900	-0.693274	-0.199132	-0.476245
39196		8.417055	-5.016682	-0.385259	-0.039510	0.019789	-0.012990	-0.320312	0.685303	0.260742	0.502629	-0.693372	-0.198930	-0.476472
39197		8.378889	-5.051687	-0.413721	-0.050762	0.022469	-0.007547	-0.331543	0.673096	0.270508	0.502452	-0.693475	-0.198793	-0.476566
39198		8.405908	-5.099919	-0.479239	-0.050439	0.022808	-0.006318	-0.327881	0.674561	0.258545	0.502122	-0.693628	-0.198462	-0.476830
39199		8.394867	-5.104291	-0.464349	-0.040485	0.014257	-0.005752	-0.321289	0.681396	0.267578	0.501944	-0.693724	-0.198340	-0.476927
39200		8.354825	-5.163622	-0.476109	-0.024123	0.004130	-0.002669	-0.326660	0.675781	0.268799	0.501858	-0.693823	-0.198288	-0.476897
39201		8.342633	-5.180511	-0.452926	-0.010713	-0.007004	-0.001817	-0.319336	0.673340	0.263672	0.501777	-0.693922	-0.198271	-0.476845
39202		8.341195	-5.168006	-0.438191	0.004141	-0.015004	0.000402	-0.331543	0.675293	0.269287	0.501830	-0.693980	-0.198391	-0.476655
39203		8.399385	-5.119029	-0.393635	0.018827	-0.019884	0.000953	-0.323975	0.671143	0.267334	0.501885	-0.694011	-0.198505	-0.476503
39204		8.449460	-5.088593	-0.374037	0.024196	-0.016352	-0.001423	-0.323975	0.672119	0.271729	0.501988	-0.694005	-0.198656	-0.476341
39205		8.478081	-5.034295	-0.347490	0.022240	-0.009370	0.003585	-0.324951	0.676270	0.270508	0.502082	-0.694004	-0.198699	-0.476225
39206		8.445815	-4.993291	-0.341897	0.014196	-0.000904	0.008166	-0.329834	0.678955	0.270508	0.502187	-0.694000	-0.198681	-0.476129
39207		8.404389	-4.983135	-0.353107	0.000522	0.005010	0.011273	-0.319336	0.674072	0.270508	0.502227	-0.694027	-0.198566	-0.476094
39208		8.375908	-5.051935	-0.395711	-0.019653	0.010743	0.015369	-0.320068	0.679443	0.273438	0.502191	-0.694137	-0.198320	-0.476074
39209		8.342810	-5.120049	-0.388847	-0.032064	0.009747	0.022419	-0.326416	0.672363	0.274414	0.502107	-0.694320	-0.197981	-0.476038
39210		8.323133	-5.219589	-0.423159	-0.033636	0.010991	0.023324	-0.321045	0.678467	0.270752	0.501954	-0.694514	-0.197564	-0.476090
39211		8.282473	-5.319605	-0.458723	-0.018192	0.008924	0.028500	-0.322021	0.673584	0.275391	0.501994	-0.694634	-0.197281	-0.475989
39212		8.298344	-5.323149	-0.431451	0.024091	-0.008415	0.032372	-0.326172	0.670898	0.267822	0.502193	-0.694682	-0.197126	-0.475773
39213		8.335156	-5.315717	-0.409213	0.063986	-0.014686	0.035745	-0.323242	0.677490	0.266602	0.502673	-0.694552	-0.197220	-0.475418
39214		8.390378	-5.343919	-0.355836	0.106773	-0.014654	0.035307	-0.315918	0.672607	0.267090	0.503440	-0.694232	-0.197526	-0.474945
39215		8.455922	-5.390125	-0.297289	0.129036	-0.002641	0.035636	-0.315430	0.670654	0.263916	0.504339	-0.693795	-0.197828	-0.474505
39216		8.371713	-5.339806	-0.190976	0.134382	0.016443	0.050065	-0.325684	0.675781	0.267578	0.505362	-0.693275	-0.197999	-0.474104
39217		8.364234	-5.287139	-0.143305	0.140155	0.037631	0.062191	-0.319092	0.685059	0.264404	0.506421	-0.692682	-0.197951	-0.473861
39218		8.400550	-5.285080	-0.130071	0.137935	0.054257	0.069994	-0.317627	0.684082	0.257080	0.507603	-0.692031	-0.197852	-0.473589
39219		8.373526	-5.391773	-0.116811	0.136488	0.054926	0.080533	-0.317139	0.690918	0.251465	0.508877	-0.691368	-0.197766	-0.473226
39220		8.414120	-5.588022	-0.187436	0.135389	0.051105	0.097518	-0.312500	0.680908	0.255615	0.510278	-0.690718	-0.197684	-0.472701
39221		8.399546	-5.948260	-0.253839	0.143997	0.060613	0.115325	-0.316895	0.689941	0.243408	0.511696	-0.690082	-0.197337	-0.472242
39222		8.292660	-6.272351	-0.248002	0.182347	0.068257	0.146204	-0.315430	0.691162	0.242920	0.513610	-0.689215	-0.197134	-0.471515
39223		8.397980	-6.704661	-0.345698	0.238375	0.083157	0.174843	-0.312012	0.687500	0.247803	0.515951	-0.688108	-0.196882	-0.470680
39224		7.983983	-6.693441	-0.219694	0.348951	0.076012	0.232567	-0.307617	0.686523	0.237793	0.519011	-0.686708	-0.196587	-0.469482
39225		8.113805	-6.486002	-0.148899	0.499884	0.036531	0.285203	-0.305176	0.692871	0.222900	0.523118	-0.684857	-0.196817	-0.467528
39226		8.123146	-6.079667	0.007329	0.665768	0.007205	0.330915	-0.307617	0.689453	0.218994	0.528407	-0.682383	-0.197721	-0.464808
39227		8.321425	-5.840017	0.220494	0.765055	-0.017735	0.365617	-0.294678	0.696533	0.207275	0.534174	-0.679642	-0.198734	-0.461789
39228		8.314058	-5.723387	0.357070	0.783450	-0.010579	0.412630	-0.292725	0.706055	0.205811	0.540320	-0.676811	-0.199621	-0.458403
39229		8.231407	-5.513919	0.525340	0.746055	0.015778	0.465444	-0.289062	0.704834	0.181152	0.546390	-0.674140	-0.199829	-0.455041
39230		8.289022	-5.391975	0.590172	0.678086	0.047183	0.491504	-0.281494	0.718018	0.173096	0.552317	-0.671580	-0.199662	-0.451732
39231		8.295483	-5.273895	0.534059	0.602192	0.083797	0.502872	-0.273682	0.720703	0.162109	0.557940	-0.669215	-0.199010	-0.448607
39232		8.352338	-5.244835	0.456415	0.520790	0.130525	0.510095	-0.270996	0.718506	0.165283	0.563162	-0.667057	-0.197745	-0.445848
39233		8.305091	-5.277950	0.342494	0.443906	0.171691	0.516755	-0.255615	0.730713	0.150391	0.567846	-0.665182	-0.195714	-0.443598
39234		8.165421	-5.331358	0.298713	0.385856	0.194160	0.528525	-0.257324	0.735596	0.141602	0.572391	-0.663456	-0.193436	-0.441336
39235		8.074999	-5.452066	0.319711	0.345861	0.197387	0.532575	-0.248291	0.732422	0.137207	0.576654	-0.661910	-0.190902	-0.439206
39236		7.979037	-5.592275	0.358865	0.322456	0.193460	0.527142	-0.237305	0.735596	0.126709	0.580703	-0.660487	-0.188266	-0.437146
39237		7.904566	-5.737168	0.373590	0.299551	0.190434	0.521887	-0.230713	0.741943	0.122070	0.584589	-0.659159	-0.185587	-0.435113
39238		7.962188	-5.886879	0.410781	0.295968	0.191396	0.505628	-0.226562	0.742920	0.119873	0.588370	-0.657807	-0.182961	-0.433170
39239		7.739967	-5.928635	0.426710	0.319115	0.179135	0.501777	-0.216309	0.750488	0.112061	0.592224	-0.656364	-0.180489	-0.431139
39240		7.712367	-5.918889	0.452954	0.363586	0.160083	0.491160	-0.215332	0.751709	0.100342	0.596240	-0.654735	-0.178326	-0.428974
39241		7.706795	-5.958037	0.519680	0.405395	0.145836	0.474467	-0.206787	0.748779	0.097900	0.600386	-0.652907	-0.176471	-0.426741
39242		7.643494	-6.009424	0.620432	0.424934	0.141890	0.459834	-0.197754	0.751709	0.085693	0.604561	-0.650955	-0.174778	-0.424520
39243		7.543619	-6.026384	0.719000	0.416984	0.135010	0.443691	-0.196045	0.758789	0.086182	0.608609	-0.649025	-0.173175	-0.422341
39244		7.505289	-6.094406	0.781846	0.396932	0.130493	0.422698	-0.178955	0.760742	0.077148	0.612452	-0.647166	-0.171633	-0.420264
39245		7.407200	-6.081811	0.834337	0.374939	0.122453	0.412084	-0.184814	0.761475	0.071777	0.616113	-0.645416	-0.170110	-0.418217
39246		7.395774	-6.092876	0.924051	0.348227	0.108716	0.402377	-0.180420	0.758301	0.064697	0.619563	-0.643824	-0.168612	-0.416176
39247		7.372410	-6.102381	1.025807	0.322372	0.101091	0.392883	-0.170654	0.757568	0.056396	0.622818	-0.642366	-0.167113	-0.414170
39248		7.277516	-6.174572	1.106724	0.291569	0.098691	0.384585	-0.164551	0.760986	0.054932	0.625866	-0.641052	-0.165561	-0.412230
39249		7.221226	-6.192848	1.201450	0.261547	0.104052	0.380445	-0.160400	0.763672	0.049805	0.628735	-0.639861	-0.163898	-0.410375
39250		7.124995	-6.202428	1.286932	0.229050	0.106706	0.372899	-0.157715	0.771240	0.044189	0.631399	-0.638810	-0.162148	-0.408612
39251		7.064353	-6.162344	1.341523	0.188672	0.113086	0.365948	-0.143555	0.768311	0.041504	0.633825	-0.637933	-0.160262	-0.406969
39252		7.059232	-6.147854	1.290175	0.134246	0.124401	0.353713	-0.142822	0.770508	0.033447	0.635927	-0.637280	-0.158195	-0.405519
39253		7.032707	-6.137872	1.241552	0.067627	0.135974	0.329690	-0.137695	0.768311	0.035645	0.637603	-0.636902	-0.155968	-0.404342
39254		7.034303	-6.203926	1.133112	0.001023	0.154253	0.300541	-0.128418	0.769043	0.046387	0.638845	-0.636774	-0.153573	-0.403499
39255		7.089744	-6.373940	1.029298	-0.064274	0.168752	0.266234	-0.130615	0.768311	0.040039	0.639638	-0.636896	-0.151062	-0.402997
39256		6.887041	-6.358213	0.920146	-0.099262	0.182191	0.234872	-0.128906	0.775146	0.033936	0.640153	-0.637115	-0.148530	-0.402774
39257		6.856171	-6.360200	0.867718	-0.132028	0.174381	0.194272	-0.118896	0.770996	0.036377	0.640344	-0.637481	-0.146144	-0.402764
39258		6.851376	-6.404692	0.818382	-0.141584	0.152414	0.133666	-0.118652	0.772461	0.037354	0.640251	-0.637896	-0.144165	-0.402969
39259		6.791385	-6.514235	0.840481	-0.129967	0.115957	0.063924	-0.125732	0.774658	0.045898	0.639939	-0.638285	-0.142792	-0.403338
39260		6.708737	-6.519438	0.909240	-0.095789	0.075489	0.004994	-0.121094	0.775146	0.042236	0.639561	-0.638558	-0.142062	-0.403763
39261		6.732005	-6.413490	0.861527	-0.068832	0.016392	-0.053169	-0.113770	0.776855	0.035400	0.639060	-0.638816	-0.142049	-0.404151
39262		6.867666	-6.336407	0.779164	-0.047853	-0.049924	-0.115488	-0.124268	0.774414	0.048584	0.638382	-0.639112	-0.142793	-0.404492
39263		7.020925	-6.192371	0.765057	-0.032928	-0.104409	-0.172466	-0.124512	0.774170	0.046875	0.637525	-0.639444	-0.144180	-0.404828
39264		7.080205	-6.165975	0.723522	-0.038142	-0.148626	-0.224361	-0.122314	0.763184	0.047119	0.636409	-0.639887	-0.146062	-0.405207
39265		7.059184	-6.102952	0.710661	-0.042621	-0.193663	-0.267612	-0.132324	0.767578	0.046875	0.635064	-0.640451	-0.148399	-0.405578
39266		7.102054	-5.944540	0.710088	-0.050304	-0.233604	-0.313815	-0.139404	0.768555	0.048340	0.633467	-0.641126	-0.151168	-0.405986
39267		7.121883	-5.719685	0.746177	-0.078204	-0.260961	-0.358039	-0.141602	0.761719	0.048340	0.631528	-0.641979	-0.154223	-0.406511
39268		7.143488	-5.452597	0.826868	-0.151958	-0.278501	-0.402580	-0.141846	0.764893	0.054443	0.629011	-0.643211	-0.157357	-0.407264
39269		7.140242	-5.137703	0.850027	-0.244250	-0.289470	-0.436330	-0.151123	0.764160	0.063477	0.625856	-0.644906	-0.160415	-0.408249
39270		7.269730	-4.881516	0.894782	-0.361721	-0.297216	-0.472188	-0.164307	0.762939	0.066406	0.621921	-0.647175	-0.163302	-0.409525
39271		7.548232	-4.830591	0.892203	-0.494731	-0.289630	-0.519138	-0.163330	0.765137	0.075195	0.617096	-0.650020	-0.165947	-0.411253
39272		7.956531	-5.105327	0.777605	-0.635033	-0.258233	-0.573447	-0.173096	0.762207	0.087158	0.611338	-0.653371	-0.168236	-0.413604
39273		8.230559	-5.549267	0.622045	-0.771326	-0.203788	-0.616013	-0.185547	0.756348	0.094482	0.604728	-0.657129	-0.170000	-0.416636
39274		8.186769	-5.888475	0.408943	-0.867719	-0.135638	-0.632584	-0.181885	0.761230	0.108643	0.597584	-0.661061	-0.171169	-0.420230
39275		8.072715	-6.166980	0.116498	-0.922811	-0.081068	-0.641618	-0.194092	0.750732	0.119873	0.590132	-0.665009	-0.171906	-0.424211
39276		8.054115	-6.293628	-0.138906	-0.921735	-0.052415	-0.652140	-0.209473	0.746094	0.143311	0.582638	-0.668776	-0.172552	-0.428366
39277		8.063991	-6.284613	-0.189454	-0.870704	-0.058736	-0.658279	-0.218506	0.739502	0.153809	0.575337	-0.672256	-0.173419	-0.432417
39278		8.189635	-6.229108	-0.179095	-0.791332	-0.062979	-0.658258	-0.232910	0.730713	0.161133	0.568433	-0.675318	-0.174582	-0.436293
39279		8.275197	-6.178231	-0.087176	-0.715862	-0.064699	-0.658751	-0.236816	0.729736	0.173096	0.561910	-0.677978	-0.176026	-0.440020
39280		8.395216	-6.076321	0.034920	-0.653521	-0.059351	-0.660747	-0.243896	0.731445	0.179199	0.555704	-0.680284	-0.177668	-0.443668
39281		8.367301	-5.998963	0.152414	-0.627298	-0.041895	-0.660937	-0.250977	0.721191	0.195801	0.549646	-0.682360	-0.179326	-0.447344
39282		8.297920	-5.863851	0.110771	-0.627907	-0.030344	-0.660962	-0.257812	0.718750	0.206543	0.543549	-0.684367	-0.180886	-0.451084
39283		8.286685	-5.670670	0.038493	-0.641979	-0.025533	-0.673583	-0.270020	0.712646	0.220947	0.537294	-0.686364	-0.182423	-0.454908
39284		8.346268	-5.561202	-0.078461	-0.653285	-0.028260	-0.689084	-0.277344	0.708496	0.223877	0.530857	-0.688364	-0.183979	-0.458799
39285		8.450901	-5.550901	-0.176224	-0.652301	-0.029686	-0.697816	-0.284668	0.697510	0.237061	0.524374	-0.690302	-0.185609	-0.462672
39286		8.571452	-5.633259	-0.249246	-0.615769	-0.010508	-0.686883	-0.298096	0.696533	0.241699	0.518117	-0.691991	-0.187189	-0.466545
39287		8.574393	-5.680450	-0.262309	-0.551052	0.007635	-0.663436	-0.308105	0.685059	0.259766	0.512335	-0.693321	-0.188817	-0.470285
39288		8.504877	-5.520700	-0.238051	-0.484361	0.022387	-0.642660	-0.307129	0.684570	0.261963	0.506961	-0.694333	-0.190439	-0.473947
39289		8.423608	-5.420096	-0.231545	-0.462398	0.035467	-0.637181	-0.315430	0.677246	0.281494	0.501760	-0.695173	-0.192075	-0.477575
39290		8.444561	-5.375754	-0.313085	-0.458326	0.044207	-0.649969	-0.329102	0.672607	0.276855	0.496475	-0.695935	-0.193690	-0.481323
39291		8.412667	-5.384886	-0.372990	-0.450348	0.052044	-0.642944	-0.334717	0.661377	0.282471	0.491332	-0.696572	-0.195369	-0.484986
39292		8.418073	-5.352416	-0.495675	-0.422085	0.048795	-0.635434	-0.340332	0.654541	0.294189	0.486377	-0.697083	-0.197147	-0.488514
39293		8.580206	-5.244075	-0.547956	-0.359105	0.025080	-0.627506	-0.349121	0.658447	0.303223	0.481767	-0.697421	-0.199228	-0.491744
39294		8.744233	-5.117573	-0.545442	-0.294391	-0.000814	-0.613831	-0.359131	0.645020	0.307373	0.477546	-0.697598	-0.201611	-0.494632
39295		8.832898	-5.098332	-0.491161	-0.251205	-0.009208	-0.597244	-0.374268	0.636719	0.313965	0.473622	-0.697640	-0.204110	-0.497312
39296		8.818911	-5.108978	-0.343229	-0.212786	-0.006493	-0.575211	-0.373779	0.633057	0.322021	0.470007	-0.697537	-0.206626	-0.499841
39297		8.801245	-5.089599	-0.190605	-0.203506	0.016367	-0.547055	-0.377930	0.634033	0.319580	0.466591	-0.697334	-0.208922	-0.502364
39298		8.781451	-4.942283	-0.232190	-0.204381	0.046298	-0.527575	-0.388672	0.629150	0.329590	0.463294	-0.697027	-0.210978	-0.504975
