// Start Time: Unknown
// Update Rate: 60.0Hz
// Filter Profile: human (46.1)
// Firmware Version: 4.6.0
PacketCounter	SampleTimeFine	Acc_X	Acc_Y	Acc_Z	Gyr_X	Gyr_Y	Gyr_Z	Mag_X	Mag_Y	Mag_Z	Quat_q0	Quat_q1	Quat_q2	Quat_q3
41360		8.019409	-4.602996	-3.336312	-0.021325	0.016154	0.006129	-0.244385	0.663086	0.398193	0.426857	-0.777826	-0.254364	-0.384811
41361		7.978377	-4.633876	-3.401749	-0.035893	0.024967	0.008131	-0.244385	0.656006	0.394043	0.426704	-0.777890	-0.254107	-0.385020
41362		7.920537	-4.712868	-3.397421	-0.035834	0.026626	0.006596	-0.250488	0.657227	0.400635	0.426548	-0.777945	-0.253856	-0.385247
41363		7.882277	-4.788126	-3.397845	-0.030655	0.022089	0.010620	-0.240479	0.659668	0.405518	0.426431	-0.778006	-0.253609	-0.385415
41364		7.845467	-4.837141	-3.366995	-0.022262	0.016154	0.009723	-0.248291	0.663818	0.398438	0.426355	-0.778057	-0.253413	-0.385526
41365		7.835191	-4.849433	-3.328669	-0.014286	0.007851	0.006954	-0.248535	0.659424	0.404297	0.426308	-0.778103	-0.253285	-0.385569
41366		7.864985	-4.921600	-3.310109	-0.003182	0.001559	0.001716	-0.229004	0.645020	0.401855	0.426311	-0.778121	-0.253242	-0.385558
41367		7.876098	-4.899690	-3.288927	0.010463	-0.008583	-0.001575	-0.246094	0.658447	0.409668	0.426382	-0.778119	-0.253289	-0.385454
41368		7.869090	-4.851675	-3.275469	0.009955	-0.007545	-0.000990	-0.242920	0.665527	0.403564	0.426467	-0.778118	-0.253315	-0.385345
41369		7.885594	-4.826862	-3.229668	0.001554	-0.002957	-0.004955	-0.234619	0.659912	0.405518	0.426506	-0.778125	-0.253313	-0.385288
41370		7.870305	-4.837494	-3.260208	-0.006177	0.001536	-0.003764	-0.247803	0.659180	0.407959	0.426524	-0.778146	-0.253251	-0.385265
41371		7.883565	-4.865343	-3.277578	-0.007929	0.002043	-0.006211	-0.242432	0.654053	0.403320	0.426538	-0.778168	-0.253185	-0.385249
41372		7.893855	-4.868416	-3.288067	-0.005034	0.001444	-0.012877	-0.244629	0.654053	0.404297	0.426563	-0.778169	-0.253161	-0.385236
41373		7.869944	-4.873132	-3.308350	-0.001694	-0.000515	-0.013720	-0.244385	0.651123	0.397217	0.426618	-0.778164	-0.253147	-0.385193
41374		7.855369	-4.886258	-3.295162	0.003139	-0.005751	-0.013112	-0.245850	0.655518	0.409668	0.426709	-0.778163	-0.253148	-0.385094
41375		7.843176	-4.852343	-3.322538	0.004313	-0.008230	-0.013406	-0.243896	0.650635	0.410156	0.426823	-0.778170	-0.253151	-0.384952
41376		7.905150	-4.811830	-3.305321	0.009377	-0.006965	-0.015753	-0.253174	0.656982	0.402588	0.426968	-0.778154	-0.253174	-0.384809
41377		7.917144	-4.784519	-3.328256	0.002210	-0.007086	-0.014395	-0.248779	0.654541	0.400635	0.427097	-0.778166	-0.253136	-0.384667
41378		7.929180	-4.756873	-3.351528	-0.005176	-0.003239	-0.014658	-0.242188	0.654053	0.404053	0.427176	-0.778193	-0.253065	-0.384571
41379		7.950831	-4.737353	-3.341055	-0.009340	0.001901	-0.010111	-0.241699	0.662842	0.401855	0.427242	-0.778235	-0.252946	-0.384490
41380		7.934633	-4.691994	-3.377352	-0.016762	0.004241	-0.012037	-0.241211	0.659424	0.408691	0.427288	-0.778300	-0.252779	-0.384418
41381		7.952333	-4.664801	-3.331914	-0.026213	0.012079	-0.006760	-0.246826	0.656982	0.405518	0.427289	-0.778389	-0.252551	-0.384386
41382		7.947560	-4.681849	-3.329050	-0.034845	0.016730	-0.005184	-0.237549	0.661865	0.402832	0.427243	-0.778486	-0.252264	-0.384429
41383		7.967764	-4.688372	-3.350145	-0.041795	0.017864	-0.004487	-0.249268	0.657227	0.398926	0.427147	-0.778617	-0.251938	-0.384484
41384		7.963148	-4.704908	-3.347672	-0.045816	0.021249	-0.003921	-0.254639	0.659668	0.412354	0.427033	-0.778730	-0.251568	-0.384624
41385		7.919043	-4.729537	-3.336037	-0.050954	0.023536	-0.002310	-0.246826	0.657959	0.406738	0.426943	-0.778871	-0.251195	-0.384682
41386		7.890305	-4.820422	-3.364455	-0.049562	0.022319	-0.003265	-0.246338	0.655273	0.396484	0.426803	-0.779008	-0.250842	-0.384790
41387		7.866530	-4.824347	-3.385640	-0.031656	0.011421	-0.002933	-0.244141	0.655762	0.402832	0.426721	-0.779103	-0.250545	-0.384884
41388		7.905989	-4.746157	-3.385480	-0.017729	-0.002488	-0.007841	-0.252686	0.655029	0.411133	0.426694	-0.779201	-0.250403	-0.384806
41389		7.945629	-4.675418	-3.297428	-0.011606	0.003458	-0.011962	-0.244629	0.659424	0.401611	0.426743	-0.779250	-0.250315	-0.384710
41390		7.939190	-4.637865	-3.299854	-0.022895	0.008775	-0.012444	-0.240479	0.657715	0.407715	0.426712	-0.779324	-0.250119	-0.384722
41391		7.933018	-4.684253	-3.285787	-0.037569	0.007966	-0.016338	-0.246826	0.658203	0.415039	0.426541	-0.779455	-0.249968	-0.384745
41392		7.911491	-4.740932	-3.303143	-0.041593	0.004775	-0.018365	-0.245117	0.650635	0.409668	0.426372	-0.779603	-0.249856	-0.384704
41393		7.924503	-4.795143	-3.311043	-0.038600	0.002128	-0.022620	-0.242188	0.648193	0.410400	0.426122	-0.779715	-0.249811	-0.384785
41394		7.888539	-4.853112	-3.299675	-0.029416	-0.002043	-0.023126	-0.243896	0.653564	0.411865	0.425899	-0.779807	-0.249829	-0.384833
41395		7.875557	-4.846502	-3.316816	-0.013557	-0.011595	-0.027010	-0.242676	0.653809	0.417236	0.425816	-0.779877	-0.249912	-0.384730
41396		7.882133	-4.836098	-3.338436	-0.003856	-0.016794	-0.028109	-0.243896	0.648926	0.406250	0.425793	-0.779940	-0.250081	-0.384517
41397		7.870403	-4.795855	-3.411097	0.005013	-0.020152	-0.030362	-0.247070	0.656494	0.411133	0.425762	-0.779944	-0.250252	-0.384431
41398		7.874902	-4.735109	-3.393914	0.012992	-0.029911	-0.034839	-0.241455	0.658203	0.400879	0.425834	-0.779964	-0.250491	-0.384157
41399		7.892795	-4.685748	-3.422696	0.014205	-0.037461	-0.036072	-0.239990	0.657227	0.405762	0.425878	-0.779994	-0.250696	-0.383912
41400		7.965852	-4.620119	-3.387021	0.007707	-0.033650	-0.039881	-0.254395	0.654297	0.405029	0.425857	-0.780044	-0.250943	-0.383671
41401		7.992105	-4.608339	-3.370865	-0.007144	-0.026196	-0.037151	-0.250977	0.658936	0.404541	0.425767	-0.780084	-0.251103	-0.383586
41402		8.055932	-4.631142	-3.367572	-0.015470	-0.016979	-0.039267	-0.257568	0.654785	0.405029	0.425662	-0.780133	-0.251198	-0.383542
41403		8.021804	-4.576758	-3.341532	-0.030104	-0.000359	-0.029730	-0.254883	0.648193	0.408447	0.425497	-0.780171	-0.251160	-0.383673
41404		7.946486	-4.651673	-3.379972	-0.050120	0.014592	-0.027637	-0.246826	0.654297	0.412598	0.425158	-0.780238	-0.251074	-0.383967
41405		7.921616	-4.692135	-3.449976	-0.051506	0.011868	-0.019534	-0.247314	0.652344	0.412598	0.424869	-0.780381	-0.250940	-0.384084
41406		7.914557	-4.661228	-3.514041	-0.042452	0.002884	-0.018669	-0.244385	0.651367	0.410889	0.424603	-0.780521	-0.250866	-0.384142
41407		7.955923	-4.655870	-3.438523	-0.034308	-0.000686	-0.019685	-0.244629	0.649658	0.416504	0.424359	-0.780650	-0.250826	-0.384176
41408		7.964139	-4.618474	-3.428298	-0.030358	-0.000484	-0.020991	-0.242188	0.653076	0.408447	0.424118	-0.780774	-0.250857	-0.384169
41409		7.984826	-4.622910	-3.450735	-0.025048	0.003594	-0.022324	-0.244873	0.652832	0.420410	0.423954	-0.780852	-0.250811	-0.384222
41410		8.009801	-4.638767	-3.463920	-0.019787	0.000581	-0.016685	-0.252441	0.657715	0.417725	0.423823	-0.780958	-0.250855	-0.384122
41411		8.022902	-4.600619	-3.427450	-0.016850	0.004176	-0.011948	-0.248779	0.657715	0.405762	0.423794	-0.781018	-0.250826	-0.384052
41412		8.003838	-4.619646	-3.395540	-0.029660	0.015520	-0.007269	-0.248047	0.648926	0.416016	0.423724	-0.781070	-0.250586	-0.384180
41413		7.960310	-4.624464	-3.454644	-0.033602	0.024688	0.003198	-0.246094	0.645020	0.410645	0.423577	-0.781157	-0.250366	-0.384310
41414		7.967148	-4.702055	-3.456289	-0.028422	0.025245	0.008114	-0.250977	0.658691	0.409180	0.423447	-0.781223	-0.250095	-0.384493
41415		7.973733	-4.677786	-3.501766	-0.030484	0.029365	0.010486	-0.251221	0.651611	0.414062	0.423470	-0.781268	-0.249720	-0.384622
41416		7.944255	-4.613967	-3.429646	-0.029537	0.038928	0.012885	-0.250244	0.649170	0.412842	0.423440	-0.781299	-0.249370	-0.384819
41417		7.939675	-4.629377	-3.467298	-0.025749	0.039538	0.010717	-0.250244	0.651367	0.414795	0.423406	-0.781309	-0.249044	-0.385047
41418		7.870868	-4.659827	-3.516202	-0.015885	0.031175	0.003917	-0.255615	0.653076	0.415283	0.423414	-0.781305	-0.248829	-0.385185
41419		7.855243	-4.701175	-3.532408	-0.001162	0.017439	0.000862	-0.243896	0.650879	0.408203	0.423490	-0.781268	-0.248739	-0.385234
41420		7.899338	-4.725314	-3.458591	0.022679	0.008408	-0.005685	-0.248779	0.647949	0.409424	0.423686	-0.781190	-0.248733	-0.385182
41421		7.914703	-4.732474	-3.397532	0.036074	-0.000967	-0.007611	-0.244141	0.652588	0.416016	0.423906	-0.781076	-0.248849	-0.385095
41422		7.923900	-4.759676	-3.333482	0.043499	-0.004761	-0.007382	-0.247559	0.640381	0.416016	0.424190	-0.781000	-0.249013	-0.384829
41423		7.945971	-4.709069	-3.375090	0.046718	-0.011534	-0.006862	-0.250977	0.651367	0.416260	0.424353	-0.780927	-0.249259	-0.384640
41424		7.984068	-4.634293	-3.370435	0.041858	-0.004848	-0.005746	-0.243652	0.653076	0.414795	0.424607	-0.780831	-0.249432	-0.384441
41425		7.949771	-4.638072	-3.378113	0.036621	-0.005766	-0.004272	-0.250977	0.648682	0.414795	0.424858	-0.780789	-0.249544	-0.384178
41426		7.944560	-4.637982	-3.444533	0.033066	-0.003615	-0.001083	-0.251221	0.649658	0.413818	0.425039	-0.780725	-0.249664	-0.384029
41427		7.934872	-4.532944	-3.476938	0.030515	-0.005023	-0.000746	-0.242920	0.649170	0.413086	0.425210	-0.780670	-0.249773	-0.383879
41428		7.990136	-4.505670	-3.394445	0.025987	-0.005873	0.002675	-0.249268	0.654053	0.402100	0.425364	-0.780685	-0.249813	-0.383654
41429		8.057309	-4.533040	-3.360981	0.023519	0.001302	-0.002293	-0.254639	0.653564	0.402832	0.425606	-0.780571	-0.249826	-0.383609
41430		8.067382	-4.644950	-3.279825	0.032375	0.011286	-0.002520	-0.249023	0.654541	0.408691	0.425901	-0.780368	-0.249875	-0.383663
41431		8.046921	-4.780144	-3.257450	0.045211	0.017560	0.003071	-0.244629	0.653809	0.413086	0.426285	-0.780177	-0.249902	-0.383607
41432		8.029731	-4.835237	-3.328644	0.062235	0.021395	0.013828	-0.249023	0.666504	0.404297	0.426787	-0.779989	-0.249895	-0.383435
41433		8.016948	-4.705418	-3.244490	0.061588	0.029811	0.031485	-0.253174	0.653320	0.417725	0.427538	-0.779722	-0.249703	-0.383268
41434		7.975846	-4.636642	-3.243919	0.037087	0.041660	0.042541	-0.249512	0.656738	0.401367	0.427934	-0.779602	-0.249433	-0.383245
41435		7.930166	-4.851819	-3.247824	0.014080	0.068957	0.051572	-0.247070	0.651367	0.401123	0.428421	-0.779412	-0.248849	-0.383467
41436		7.951616	-4.898901	-3.368211	0.007995	0.074039	0.063298	-0.245605	0.656738	0.403809	0.428865	-0.779272	-0.248154	-0.383705
41437		7.986201	-4.781670	-3.317145	0.031003	0.060586	0.068472	-0.253418	0.657227	0.405762	0.429482	-0.779124	-0.247539	-0.383713
41438		7.888602	-4.917858	-3.170306	0.028344	0.069725	0.086034	-0.258301	0.654785	0.399414	0.430115	-0.778959	-0.246820	-0.383802
41439		7.847756	-4.986800	-3.231882	0.025388	0.079820	0.098669	-0.248047	0.656982	0.397217	0.430796	-0.778731	-0.245992	-0.384032
41440		7.864289	-4.986449	-3.355237	0.028845	0.075028	0.107556	-0.238525	0.660156	0.399170	0.431581	-0.778567	-0.245080	-0.384067
41441		7.886263	-4.880396	-3.352378	0.011284	0.080747	0.116966	-0.251953	0.657959	0.409180	0.432323	-0.778535	-0.243983	-0.383995
41442		7.870415	-4.836896	-3.335973	0.014832	0.078676	0.110660	-0.249756	0.656738	0.397949	0.432892	-0.778480	-0.243034	-0.384069
41443		7.802697	-4.856213	-3.467916	0.028346	0.066684	0.112197	-0.243164	0.665527	0.394287	0.433613	-0.778351	-0.242145	-0.384078
41444		7.868261	-4.906911	-3.458872	0.051988	0.050483	0.109723	-0.245605	0.668945	0.393799	0.434584	-0.778179	-0.241378	-0.383811
41445		7.894619	-4.921259	-3.289966	0.075642	0.041569	0.118834	-0.236572	0.655273	0.398682	0.435730	-0.777945	-0.240682	-0.383422
41446		7.957796	-4.836708	-3.303102	0.074036	0.040153	0.131885	-0.239258	0.661133	0.396484	0.436696	-0.777882	-0.239847	-0.382975
41447		8.106232	-4.699829	-3.217774	0.073769	0.038851	0.148876	-0.233398	0.664062	0.393799	0.437766	-0.777808	-0.238934	-0.382473
41448		8.306242	-4.502870	-2.983803	0.035998	0.073767	0.179823	-0.225342	0.668457	0.390869	0.438810	-0.777828	-0.237556	-0.382096
41449		8.326753	-4.497645	-2.849401	-0.057850	0.136109	0.217654	-0.235352	0.663574	0.392090	0.439571	-0.778069	-0.235385	-0.382072
41450		8.213767	-4.474929	-2.871581	-0.138831	0.191144	0.253794	-0.231934	0.673096	0.399170	0.439903	-0.778445	-0.232578	-0.382642
41451		8.102228	-4.580016	-3.001881	-0.216821	0.238703	0.278516	-0.222412	0.658691	0.392822	0.439945	-0.779023	-0.229196	-0.383458
41452		8.049462	-4.721386	-3.035988	-0.261886	0.277190	0.295437	-0.220215	0.667236	0.402588	0.439757	-0.779691	-0.225360	-0.384588
41453		7.911935	-4.878127	-3.078275	-0.252773	0.301206	0.298684	-0.222412	0.665039	0.399902	0.439702	-0.780279	-0.221454	-0.385726
41454		7.763617	-5.230369	-3.120037	-0.228304	0.294253	0.297314	-0.214355	0.668945	0.399170	0.439791	-0.780731	-0.217677	-0.386858
41455		7.599823	-5.470284	-3.189087	-0.173826	0.255401	0.293615	-0.221191	0.672363	0.406494	0.440253	-0.781099	-0.214219	-0.387521
41456		7.529483	-5.507001	-3.136515	-0.119587	0.224310	0.289891	-0.214600	0.664307	0.407715	0.440932	-0.781343	-0.211116	-0.387959
41457		7.570507	-5.432859	-3.007226	-0.094086	0.204967	0.291512	-0.217285	0.666748	0.405273	0.441660	-0.781615	-0.208115	-0.388205
41458		7.545533	-5.447174	-2.963252	-0.085601	0.211087	0.291881	-0.214600	0.677734	0.405518	0.442482	-0.781774	-0.205130	-0.388537
41459		7.480074	-5.532870	-3.163636	-0.085007	0.229746	0.290308	-0.203613	0.670166	0.401855	0.443461	-0.781828	-0.202106	-0.388897
41460		7.490072	-5.598480	-3.143872	-0.051681	0.216657	0.295556	-0.208984	0.678711	0.406006	0.444636	-0.781855	-0.199147	-0.389028
41461		7.408246	-5.675201	-3.030988	-0.015134	0.210874	0.298659	-0.204834	0.673096	0.400146	0.446057	-0.781728	-0.196358	-0.389073
41462		7.394002	-5.694993	-3.033213	0.029090	0.186397	0.300121	-0.204834	0.674561	0.406982	0.447705	-0.781510	-0.193753	-0.388925
41463		7.423020	-5.710759	-3.014353	0.096346	0.159684	0.293727	-0.196533	0.679688	0.394287	0.449648	-0.781154	-0.191544	-0.388492
41464		7.594858	-5.493862	-2.976717	0.152328	0.132461	0.290656	-0.189697	0.673340	0.399414	0.452062	-0.780606	-0.189578	-0.387756
41465		7.642295	-5.207428	-2.882651	0.168697	0.127960	0.283143	-0.194580	0.687744	0.392578	0.454417	-0.780093	-0.187746	-0.386926
41466		7.759109	-5.065664	-2.730134	0.123729	0.135448	0.278119	-0.188965	0.684082	0.389648	0.456593	-0.779598	-0.185788	-0.386306
41467		7.856998	-5.072149	-2.763122	0.082375	0.153552	0.263381	-0.192871	0.687256	0.398193	0.458435	-0.779201	-0.183708	-0.385922
41468		7.911763	-5.096366	-2.763419	0.052370	0.166649	0.237557	-0.191162	0.685059	0.382080	0.459923	-0.778857	-0.181741	-0.385775
41469		7.670428	-5.290814	-2.764598	0.021035	0.182517	0.214324	-0.181885	0.685547	0.388672	0.461194	-0.778465	-0.179629	-0.386039
41470		7.418657	-5.558348	-2.986720	-0.033000	0.156209	0.193168	-0.183594	0.687988	0.392090	0.462011	-0.778408	-0.177655	-0.386089
41471		7.492298	-5.712054	-2.897019	0.012412	0.088791	0.162851	-0.183105	0.691650	0.391357	0.462900	-0.778348	-0.176322	-0.385757
41472		7.548696	-5.611598	-2.773314	0.055306	0.055394	0.137242	-0.183105	0.683838	0.387695	0.463960	-0.778172	-0.175432	-0.385243
41473		7.538189	-5.631787	-2.692475	0.038961	0.068132	0.115712	-0.176514	0.689453	0.385498	0.464763	-0.778000	-0.174520	-0.385038
41474		7.462033	-5.807196	-2.746396	0.037044	0.064104	0.099170	-0.182129	0.684326	0.388428	0.465601	-0.777814	-0.173739	-0.384755
41475		7.389366	-5.915793	-2.815282	0.046141	0.039508	0.096791	-0.167725	0.692871	0.379395	0.466317	-0.777686	-0.173101	-0.384433
41476		7.397561	-5.782150	-2.673368	0.065051	0.020636	0.089837	-0.180420	0.687500	0.377686	0.467342	-0.777505	-0.172612	-0.383773
41477		7.384427	-5.798571	-2.715515	0.046422	0.023649	0.077705	-0.177246	0.697021	0.386230	0.468025	-0.777342	-0.172067	-0.383517
41478		7.454034	-5.758076	-2.661584	0.033845	0.025354	0.065496	-0.173828	0.698486	0.375732	0.468666	-0.777226	-0.171694	-0.383137
41479		7.515226	-5.760917	-2.543288	0.040692	0.030509	0.054934	-0.173828	0.704590	0.375977	0.469395	-0.777004	-0.171298	-0.382871
41480		7.427955	-5.826191	-2.563784	0.051735	0.028467	0.054311	-0.173340	0.685303	0.382568	0.470233	-0.776726	-0.170978	-0.382549
41481		7.465969	-5.880588	-2.667985	0.051485	0.024807	0.042911	-0.162842	0.693115	0.382080	0.470783	-0.776558	-0.170752	-0.382314
41482		7.412513	-5.847307	-2.622869	0.069504	0.009026	0.032143	-0.170166	0.691162	0.386963	0.471556	-0.776355	-0.170782	-0.381760
41483		7.417371	-5.860841	-2.649800	0.073407	-0.001486	0.010018	-0.171387	0.695557	0.371094	0.472153	-0.776148	-0.171040	-0.381327
41484		7.367825	-5.959713	-2.750929	0.073055	-0.028585	-0.002872	-0.173828	0.701172	0.368896	0.472737	-0.775922	-0.171315	-0.380941
41485		7.418284	-5.902818	-2.801144	0.118466	-0.069357	-0.012269	-0.174072	0.690674	0.372314	0.473552	-0.775602	-0.171955	-0.380291
41486		7.530343	-5.792186	-2.658642	0.156438	-0.095344	-0.018560	-0.165039	0.693604	0.379395	0.474416	-0.775269	-0.172864	-0.379481
41487		7.587014	-5.706582	-2.558021	0.166145	-0.085407	-0.025529	-0.165039	0.700195	0.378906	0.475397	-0.774906	-0.173946	-0.378498
41488		7.597893	-5.777207	-2.660302	0.130111	-0.066587	-0.024948	-0.180664	0.698730	0.375732	0.476219	-0.774605	-0.174872	-0.377655
41489		7.327835	-6.000625	-2.749968	0.091054	-0.061378	-0.015252	-0.170166	0.696045	0.364746	0.476668	-0.774417	-0.175495	-0.377183
41490		7.096735	-6.185097	-2.753602	0.107388	-0.060861	-0.004129	-0.170898	0.709473	0.363281	0.477346	-0.774174	-0.176016	-0.376583
41491		6.922935	-6.080178	-2.557815	0.128386	-0.066655	0.009579	-0.174561	0.695801	0.358398	0.478300	-0.773836	-0.176585	-0.375799
41492		6.980047	-6.245842	-2.570714	0.114131	-0.051693	0.011199	-0.167236	0.713135	0.365234	0.479029	-0.773541	-0.176929	-0.375316
41493		7.137185	-6.282269	-2.631390	0.162650	-0.049964	0.006400	-0.166260	0.710693	0.360107	0.480233	-0.773030	-0.177615	-0.374504
41494		7.483425	-5.889205	-2.472342	0.225230	-0.067679	0.002681	-0.166992	0.709473	0.358398	0.481782	-0.772318	-0.178549	-0.373540
41495		7.749091	-5.351290	-2.379070	0.225204	-0.065390	-0.008168	-0.173340	0.700439	0.351562	0.483258	-0.771588	-0.179536	-0.372667
41496		7.973740	-5.066434	-2.420904	0.152185	-0.034262	-0.026349	-0.164307	0.707764	0.349365	0.484119	-0.771030	-0.180187	-0.372390
41497		8.092488	-5.038771	-2.544944	0.051772	-0.007993	-0.050151	-0.170898	0.699219	0.350830	0.484427	-0.770752	-0.180643	-0.372344
41498		8.044177	-5.131618	-2.601872	-0.004528	0.010453	-0.080534	-0.176514	0.705811	0.349121	0.484176	-0.770620	-0.181021	-0.372760
41499		7.990039	-5.323985	-2.552420	-0.030589	0.034159	-0.103836	-0.185791	0.704590	0.346680	0.483745	-0.770444	-0.181388	-0.373505
41500		7.797268	-5.361267	-2.613048	-0.053273	0.040471	-0.112408	-0.175537	0.705811	0.349365	0.483101	-0.770297	-0.181697	-0.374490
41501		7.632497	-5.413856	-2.566632	-0.090233	0.036799	-0.122324	-0.176025	0.697266	0.350586	0.482274	-0.770325	-0.182027	-0.375337
41502		7.440156	-5.762930	-2.591276	-0.117485	0.034346	-0.134337	-0.173096	0.695557	0.356445	0.481180	-0.770476	-0.182350	-0.376273
41503		7.414143	-5.958943	-2.639073	-0.098861	0.013047	-0.153694	-0.175537	0.696777	0.357666	0.480114	-0.770623	-0.182961	-0.377036
41504		7.550921	-5.876011	-2.651197	-0.053580	-0.015241	-0.176777	-0.181152	0.699951	0.364990	0.479232	-0.770634	-0.183981	-0.377638
41505		7.526217	-5.739907	-2.587410	-0.044144	-0.022583	-0.186685	-0.180664	0.697754	0.364258	0.478328	-0.770628	-0.185142	-0.378230
41506		7.516108	-5.746289	-2.579519	-0.043156	-0.028042	-0.182596	-0.190918	0.698242	0.351562	0.477448	-0.770641	-0.186295	-0.378747
41507		7.542523	-5.638122	-2.606500	-0.039412	-0.042421	-0.175401	-0.190918	0.696289	0.368652	0.476631	-0.770603	-0.187455	-0.379283
41508		7.629781	-5.612548	-2.539913	-0.040704	-0.047787	-0.164134	-0.187744	0.691895	0.365967	0.475724	-0.770696	-0.188571	-0.379677
41509		7.619836	-5.632486	-2.594656	-0.060207	-0.045633	-0.158783	-0.190430	0.698486	0.373047	0.474742	-0.770870	-0.189574	-0.380054
41510		7.702880	-5.456228	-2.674211	-0.072764	-0.046534	-0.163147	-0.194824	0.692871	0.366455	0.473657	-0.771100	-0.190575	-0.380439
41511		7.694591	-5.343700	-2.625402	-0.106639	-0.040532	-0.164038	-0.202148	0.688232	0.372070	0.472369	-0.771403	-0.191453	-0.380987
41512		7.614700	-5.591564	-2.686735	-0.121609	-0.034690	-0.174611	-0.197998	0.689209	0.371094	0.470871	-0.771742	-0.192327	-0.381714
41513		7.362034	-5.813137	-2.926632	-0.106019	-0.058385	-0.189887	-0.204346	0.690674	0.370605	0.469455	-0.772065	-0.193439	-0.382243
41514		7.232455	-5.905643	-3.093382	-0.043894	-0.109157	-0.206973	-0.203125	0.693115	0.369629	0.468306	-0.772248	-0.195070	-0.382454
41515		7.234920	-5.876163	-2.826285	0.034551	-0.166045	-0.226987	-0.198975	0.682129	0.375244	0.467554	-0.772263	-0.197300	-0.382198
41516		7.535799	-5.724391	-2.868587	0.091666	-0.206146	-0.241434	-0.206787	0.689697	0.375244	0.466982	-0.772227	-0.199925	-0.381606
41517		7.845658	-5.446340	-2.746129	0.101231	-0.205202	-0.253225	-0.195557	0.691650	0.378174	0.466438	-0.772093	-0.202662	-0.381099
41518		7.866926	-5.334347	-2.712173	0.093194	-0.179822	-0.242228	-0.206055	0.686035	0.378662	0.465963	-0.771981	-0.205147	-0.380576
41519		7.652919	-5.130353	-2.610550	0.069746	-0.171988	-0.224231	-0.204102	0.681152	0.374023	0.465324	-0.771945	-0.207444	-0.380187
41520		7.598183	-5.168827	-2.636917	0.032649	-0.169267	-0.231352	-0.214355	0.673584	0.371094	0.464463	-0.772016	-0.209674	-0.379872
41521		7.825841	-5.191978	-2.879970	0.000185	-0.148975	-0.248869	-0.220459	0.677979	0.375488	0.463327	-0.772070	-0.211901	-0.379913
41522		8.044417	-5.088227	-2.954868	0.000051	-0.144484	-0.268369	-0.220703	0.680664	0.376709	0.462098	-0.772076	-0.214218	-0.380098
41523		7.813525	-5.104177	-2.972717	0.022466	-0.147417	-0.282513	-0.222168	0.673584	0.377441	0.460980	-0.771982	-0.216686	-0.380249
41524		7.643342	-5.137508	-3.143641	0.061618	-0.186587	-0.289309	-0.227539	0.676025	0.377441	0.459989	-0.771856	-0.219481	-0.380101
41525		7.596789	-4.874177	-3.059894	0.100895	-0.245733	-0.302987	-0.229004	0.677734	0.380615	0.459096	-0.771718	-0.222724	-0.379573
41526		7.810654	-4.915623	-3.039804	0.102874	-0.273023	-0.321474	-0.226318	0.668701	0.385986	0.458072	-0.771643	-0.226154	-0.378936
41527		8.009781	-5.023975	-2.889388	0.099865	-0.246760	-0.329014	-0.239746	0.670166	0.374512	0.456970	-0.771540	-0.229466	-0.378483
41528		8.029159	-5.159410	-2.883773	0.066742	-0.206739	-0.307799	-0.230225	0.669922	0.385986	0.455912	-0.771321	-0.232593	-0.378297
41529		7.988972	-5.270126	-2.773335	0.075528	-0.195430	-0.271298	-0.235596	0.666504	0.379639	0.454938	-0.771248	-0.235228	-0.377989
41530		7.888403	-5.341198	-2.698656	0.075215	-0.179499	-0.218407	-0.235840	0.670654	0.381592	0.454234	-0.771148	-0.237591	-0.377563
41531		7.799622	-5.241092	-2.654552	0.067178	-0.156792	-0.181009	-0.242188	0.668213	0.376465	0.453637	-0.771096	-0.239538	-0.377154
41532		7.891895	-5.048532	-2.783315	0.044188	-0.126787	-0.165133	-0.243896	0.665527	0.379883	0.453062	-0.770993	-0.241324	-0.376917
41533		7.851842	-4.985145	-2.887734	0.012033	-0.098938	-0.168675	-0.245605	0.668701	0.380859	0.452279	-0.770943	-0.242885	-0.376958
41534		7.765507	-5.068678	-3.094894	0.033303	-0.129480	-0.184970	-0.239014	0.666992	0.382324	0.451530	-0.770876	-0.244701	-0.376818
41535		7.683072	-5.066780	-3.254527	0.104961	-0.186209	-0.222213	-0.252686	0.662354	0.377197	0.451014	-0.770683	-0.247110	-0.376259
41536		7.639847	-5.057214	-3.422632	0.179196	-0.232206	-0.259316	-0.247314	0.671631	0.382568	0.450806	-0.770173	-0.250359	-0.375405
41537		7.767731	-4.986685	-3.343047	0.269030	-0.258758	-0.291933	-0.250488	0.668701	0.379883	0.450970	-0.769419	-0.253990	-0.374313
41538		8.005775	-4.863356	-3.115077	0.330022	-0.253621	-0.302043	-0.250732	0.665527	0.380859	0.451514	-0.768368	-0.257898	-0.373141
41539		7.925540	-5.031389	-2.897767	0.339042	-0.222320	-0.292822	-0.255615	0.667236	0.375977	0.452179	-0.767218	-0.261622	-0.372109
41540		7.878023	-5.207155	-2.965973	0.356045	-0.193362	-0.266997	-0.264404	0.668701	0.377930	0.453132	-0.765924	-0.265170	-0.371103
41541		7.885263	-5.065052	-3.093104	0.329956	-0.161764	-0.238847	-0.255127	0.668945	0.370361	0.454041	-0.764685	-0.268327	-0.370275
41542		8.009152	-4.715173	-3.167352	0.300136	-0.133039	-0.225638	-0.263428	0.666260	0.371338	0.454934	-0.763493	-0.271170	-0.369568
41543		7.932595	-4.498006	-3.152655	0.257023	-0.102600	-0.216071	-0.269287	0.664551	0.365967	0.455634	-0.762376	-0.273727	-0.369126
41544		8.008116	-4.462879	-3.180729	0.204945	-0.063060	-0.217541	-0.278809	0.672607	0.359619	0.456122	-0.761302	-0.276016	-0.369037
41545		8.201859	-4.455925	-3.252310	0.199273	-0.040758	-0.231120	-0.274170	0.662598	0.354248	0.456606	-0.760132	-0.278285	-0.369145
41546		8.247787	-4.362997	-3.183339	0.202323	-0.026781	-0.226070	-0.272705	0.665771	0.363525	0.457157	-0.758927	-0.280458	-0.369297
41547		8.163662	-4.571476	-3.130888	0.200189	0.002598	-0.220498	-0.277832	0.659180	0.362061	0.457759	-0.757668	-0.282441	-0.369626
41548		8.160581	-4.849963	-2.961658	0.214134	0.018511	-0.216443	-0.276855	0.662598	0.360352	0.458502	-0.756305	-0.284391	-0.370002
41549		8.370238	-4.554732	-2.913810	0.232127	0.034262	-0.200070	-0.279541	0.667480	0.359619	0.459448	-0.754856	-0.286229	-0.370368
41550		8.335291	-4.209861	-3.109984	0.228615	0.021766	-0.172081	-0.281738	0.662598	0.348389	0.460427	-0.753521	-0.287928	-0.370555
41551		8.271518	-4.435062	-2.806020	0.227070	-0.005659	-0.148598	-0.279785	0.662354	0.348145	0.461402	-0.752325	-0.289582	-0.370482
41552		8.411869	-4.704876	-2.516902	0.228909	0.004745	-0.124547	-0.289795	0.674805	0.353027	0.462484	-0.751146	-0.291048	-0.370376
41553		8.293220	-4.561999	-2.520791	0.163339	0.025353	-0.098005	-0.290039	0.664307	0.341064	0.463286	-0.750217	-0.292065	-0.370457
41554		8.446281	-4.497879	-2.656834	0.106781	0.010315	-0.094411	-0.286377	0.661865	0.340576	0.463711	-0.749557	-0.292944	-0.370568
41555		8.277586	-4.521798	-2.719948	0.043229	0.027043	-0.077375	-0.287354	0.661133	0.347168	0.463832	-0.749132	-0.293453	-0.370873
41556		8.118924	-4.593017	-2.706645	-0.003930	0.031632	-0.059164	-0.288330	0.666260	0.339355	0.463724	-0.748920	-0.293685	-0.371252
41557		8.006380	-4.853063	-2.662240	-0.042429	0.042142	-0.058800	-0.286621	0.666504	0.344238	0.463407	-0.748822	-0.293755	-0.371790
41558		8.141051	-4.965466	-2.756462	-0.069664	0.044368	-0.057434	-0.290283	0.666016	0.340088	0.462928	-0.748827	-0.293721	-0.372402
41559		8.158065	-5.110449	-2.909558	-0.066575	0.037034	-0.037628	-0.291016	0.661377	0.349365	0.462515	-0.748889	-0.293601	-0.372885
41560		8.200597	-5.154433	-2.933442	-0.026264	0.015956	0.000132	-0.300049	0.652832	0.344971	0.462416	-0.748957	-0.293451	-0.372991
41561		8.128484	-4.902415	-2.912680	0.006149	0.016586	0.027434	-0.288818	0.661865	0.339600	0.462608	-0.748962	-0.293230	-0.372916
41562		8.072755	-4.456518	-2.885179	-0.025195	0.030055	0.027408	-0.295410	0.664795	0.339844	0.462641	-0.749046	-0.292854	-0.373000
41563		8.046750	-4.288023	-2.776257	-0.071615	0.021078	-0.002122	-0.291260	0.661377	0.346680	0.462270	-0.749265	-0.292555	-0.373256
41564		8.115150	-4.556654	-2.838374	-0.082856	0.008472	-0.020289	-0.297852	0.669189	0.345459	0.461739	-0.749523	-0.292383	-0.373530
41565		8.226911	-4.763444	-2.801333	-0.052865	-0.013279	-0.019314	-0.295410	0.665771	0.350342	0.461346	-0.749734	-0.292382	-0.373592
41566		8.282065	-4.821202	-2.742331	-0.005660	-0.031413	-0.017664	-0.293701	0.664551	0.354980	0.461209	-0.749825	-0.292587	-0.373419
41567		8.254594	-4.950805	-2.684836	0.034077	-0.034753	-0.015113	-0.288818	0.662842	0.351562	0.461319	-0.749781	-0.292910	-0.373119
41568		8.234386	-5.002302	-2.768459	0.067582	-0.049143	-0.004557	-0.285889	0.659668	0.355469	0.461639	-0.749677	-0.293326	-0.372605
41569		8.159294	-4.801332	-2.968344	0.095471	-0.063337	0.011107	-0.298340	0.660645	0.344727	0.462146	-0.749548	-0.293783	-0.371874
41570		8.213015	-4.466675	-3.041311	0.113837	-0.088910	0.009510	-0.283203	0.660156	0.348389	0.462704	-0.749418	-0.294410	-0.370946
41571		8.278163	-4.177299	-2.993281	0.120323	-0.086749	-0.010849	-0.289062	0.660400	0.354492	0.463241	-0.749210	-0.295170	-0.370090
41572		8.266901	-4.218687	-2.984987	0.097693	-0.059830	-0.032602	-0.293213	0.660156	0.345215	0.463633	-0.748951	-0.295895	-0.369544
41573		8.275377	-4.462493	-2.984010	0.088742	-0.042339	-0.038790	-0.286621	0.664551	0.336914	0.463994	-0.748655	-0.296567	-0.369153
41574		8.101469	-4.689779	-3.151108	0.084270	-0.040878	-0.022084	-0.294922	0.667480	0.341553	0.464385	-0.748411	-0.297112	-0.368716
41575		8.189710	-4.853519	-3.176715	0.097174	-0.064349	-0.001123	-0.285156	0.665039	0.345459	0.464859	-0.748242	-0.297659	-0.368020
41576		8.175659	-4.793750	-3.067607	0.100748	-0.072187	0.026817	-0.291992	0.660156	0.344238	0.465418	-0.748156	-0.298070	-0.367155
41577		8.148308	-4.661946	-3.052528	0.129122	-0.064085	0.034599	-0.286865	0.672363	0.341553	0.466197	-0.747951	-0.298491	-0.366241
41578		8.252909	-4.455144	-3.009721	0.144330	-0.046062	0.027790	-0.286621	0.669922	0.343018	0.467098	-0.747614	-0.298926	-0.365425
41579		8.171660	-4.174416	-3.058204	0.102001	-0.012420	0.018765	-0.296387	0.669434	0.332520	0.467788	-0.747317	-0.299160	-0.364960
41580		8.194416	-4.276674	-3.177909	0.048871	-0.006366	-0.001502	-0.286133	0.664795	0.340088	0.468102	-0.747151	-0.299342	-0.364746
41581		8.212208	-4.497525	-3.152617	0.047442	-0.009990	-0.005283	-0.288086	0.673340	0.336670	0.468381	-0.747001	-0.299552	-0.364525
41582		8.146268	-4.715067	-3.102089	0.056803	-0.019928	0.016915	-0.283203	0.674072	0.341309	0.468764	-0.746896	-0.299691	-0.364132
41583		8.091365	-4.772867	-3.014169	0.057893	-0.018001	0.040269	-0.287598	0.662842	0.335693	0.469226	-0.746843	-0.299678	-0.363655
41584		8.042773	-4.707517	-2.984943	0.035880	-0.003444	0.051045	-0.286133	0.669434	0.334717	0.469620	-0.746855	-0.299483	-0.363283
41585		8.165839	-4.614556	-2.953778	0.018017	0.019301	0.040861	-0.288330	0.672119	0.334229	0.469930	-0.746843	-0.299204	-0.363136
41586		8.260089	-4.463365	-2.981919	-0.021702	0.046554	0.033044	-0.279297	0.672363	0.335938	0.470038	-0.746883	-0.298749	-0.363289
41587		8.215523	-4.332830	-2.938496	-0.077034	0.069382	0.039597	-0.285645	0.665039	0.333496	0.469878	-0.747091	-0.297989	-0.363693
41588		8.128425	-4.424968	-3.018804	-0.158528	0.097122	0.044855	-0.286865	0.669678	0.332031	0.469292	-0.747541	-0.296851	-0.364455
41589		8.137128	-4.651371	-3.000185	-0.212555	0.113890	0.055534	-0.281250	0.668213	0.337158	0.468445	-0.748173	-0.295415	-0.365411
41590		8.051257	-4.737033	-2.997408	-0.253695	0.139509	0.074237	-0.283203	0.666992	0.337158	0.467457	-0.748936	-0.293630	-0.366552
41591		8.057026	-4.760059	-3.047030	-0.279183	0.152128	0.083779	-0.273926	0.666748	0.343994	0.466368	-0.749775	-0.291660	-0.367795
41592		8.087158	-4.801498	-3.063197	-0.289091	0.147523	0.091173	-0.275146	0.668457	0.351074	0.465223	-0.750687	-0.289617	-0.368996
41593		7.911181	-4.740284	-2.963994	-0.272154	0.147663	0.101720	-0.279053	0.659424	0.346680	0.464209	-0.751556	-0.287557	-0.370115
41594		7.641218	-4.819128	-2.976683	-0.264653	0.114420	0.101407	-0.277344	0.657715	0.349121	0.463161	-0.752483	-0.285663	-0.371009
41595		7.775316	-5.150971	-3.030082	-0.227897	0.068573	0.080842	-0.285400	0.662598	0.357178	0.462168	-0.753359	-0.284185	-0.371605
41596		8.127831	-5.175897	-3.043685	-0.159562	0.035892	0.071928	-0.273926	0.655518	0.358398	0.461491	-0.754049	-0.283104	-0.371870
41597		8.264507	-4.977892	-2.856852	-0.139414	0.034914	0.079815	-0.280273	0.663574	0.359863	0.460963	-0.754690	-0.282027	-0.372044
41598		8.342945	-4.781598	-2.682625	-0.153392	0.048418	0.078443	-0.280273	0.656250	0.357666	0.460380	-0.755331	-0.280867	-0.372344
41599		8.330309	-4.590031	-2.662938	-0.160157	0.061722	0.076765	-0.280762	0.658447	0.350342	0.459779	-0.755946	-0.279653	-0.372751
41600		8.219672	-4.553613	-2.663585	-0.197319	0.062734	0.085264	-0.279785	0.656250	0.369385	0.458989	-0.756707	-0.278268	-0.373218
41601		8.102653	-4.754567	-2.751636	-0.243172	0.069883	0.090296	-0.279053	0.657471	0.369629	0.457910	-0.757650	-0.276669	-0.373817
41602		8.113421	-5.002472	-2.952540	-0.218907	0.086059	0.080579	-0.277100	0.650635	0.373047	0.456997	-0.758420	-0.275143	-0.374498
41603		8.036859	-5.162557	-3.063252	-0.168570	0.076996	0.079003	-0.271729	0.650391	0.374268	0.456372	-0.759023	-0.273817	-0.375010
41604		7.838991	-5.281631	-3.359391	-0.103499	0.038290	0.087702	-0.271240	0.660156	0.374268	0.456102	-0.759519	-0.272781	-0.375090
41605		7.786826	-5.376914	-3.409095	-0.011432	-0.017912	0.096206	-0.280518	0.656250	0.371826	0.456323	-0.759855	-0.272189	-0.374570
41606		7.722370	-5.270510	-3.283826	0.054853	-0.062294	0.104580	-0.269775	0.663330	0.381348	0.456886	-0.760088	-0.271935	-0.373594
41607		7.890541	-5.156997	-3.126873	0.098964	-0.090723	0.103565	-0.271240	0.656006	0.369141	0.457655	-0.760253	-0.271915	-0.372331
41608		7.991361	-4.736716	-2.906925	0.126700	-0.087544	0.094535	-0.270508	0.659424	0.374512	0.458587	-0.760267	-0.272038	-0.371062
41609		8.072302	-4.566063	-2.889638	0.128652	-0.067256	0.079754	-0.269531	0.664062	0.375000	0.459524	-0.760182	-0.272178	-0.369974
41610		8.117591	-4.559177	-2.780795	0.117491	-0.058776	0.059886	-0.272705	0.657227	0.375488	0.460347	-0.760067	-0.272376	-0.369040
41611		8.119621	-4.620320	-2.834361	0.109363	-0.061474	0.047896	-0.258789	0.663574	0.373047	0.461068	-0.759962	-0.272642	-0.368158
41612		8.044726	-4.639528	-2.898219	0.111580	-0.066093	0.043509	-0.265137	0.661377	0.362793	0.461789	-0.759856	-0.272945	-0.367247
41613		8.016771	-4.742327	-2.938178	0.115041	-0.071582	0.034173	-0.262695	0.663818	0.371582	0.462498	-0.759718	-0.273354	-0.366335
41614		7.980668	-4.794948	-2.968103	0.123272	-0.077114	0.020071	-0.259766	0.664551	0.361572	0.463190	-0.759542	-0.273890	-0.365424
41615		8.020026	-4.789726	-2.953225	0.148928	-0.082877	0.004391	-0.261963	0.667236	0.365967	0.463996	-0.759240	-0.274629	-0.364474
41616		8.004233	-4.679990	-3.068787	0.157821	-0.072108	-0.005442	-0.258789	0.675293	0.362061	0.464843	-0.758851	-0.275414	-0.363613
41617		8.029312	-4.531161	-3.033161	0.133190	-0.063767	-0.001836	-0.257812	0.675049	0.360596	0.465573	-0.758535	-0.276067	-0.362841
41618		8.026560	-4.536667	-3.032212	0.096681	-0.051876	-0.002690	-0.256836	0.664551	0.364502	0.466095	-0.758323	-0.276569	-0.362231
41619		8.076881	-4.590515	-3.042035	0.076631	-0.049521	-0.007962	-0.252441	0.670898	0.353516	0.466459	-0.758179	-0.277034	-0.361708
41620		8.043407	-4.694954	-3.041553	0.070873	-0.044175	-0.008494	-0.261475	0.667480	0.358643	0.466824	-0.758026	-0.277466	-0.361225
41621		8.018109	-4.863391	-3.064380	0.078190	-0.048000	-0.007926	-0.259277	0.664062	0.357422	0.467208	-0.757859	-0.277943	-0.360713
41622		7.980493	-4.957834	-2.984131	0.095248	-0.045966	-0.006519	-0.259766	0.673340	0.350586	0.467705	-0.757625	-0.278452	-0.360168
41623		8.000351	-4.883613	-2.915210	0.103597	-0.050340	-0.002216	-0.256836	0.668457	0.358643	0.468281	-0.757367	-0.278982	-0.359552
41624		8.029361	-4.815494	-2.900005	0.094540	-0.041416	-0.000477	-0.257080	0.669434	0.357178	0.468797	-0.757141	-0.279424	-0.359010
41625		8.092345	-4.744414	-2.962760	0.078936	-0.023724	0.004179	-0.248291	0.671875	0.353271	0.469272	-0.756932	-0.279722	-0.358599
41626		8.046261	-4.805306	-2.928636	0.054927	-0.004851	0.004566	-0.259766	0.672852	0.354248	0.469656	-0.756763	-0.279858	-0.358345
41627		7.984575	-4.909536	-2.952371	0.035266	-0.003170	0.001045	-0.253174	0.674805	0.349854	0.469899	-0.756647	-0.279977	-0.358181
41628		7.838900	-5.036286	-3.024903	0.024159	-0.006173	0.002689	-0.261475	0.676025	0.352295	0.470088	-0.756585	-0.280053	-0.358004
41629		7.890893	-5.073491	-3.019176	0.012034	-0.006997	0.011740	-0.261963	0.674072	0.355469	0.470213	-0.756589	-0.280057	-0.357829
41630		7.997066	-4.900468	-2.921399	-0.006498	-0.001019	0.019837	-0.248047	0.668213	0.354736	0.470245	-0.756674	-0.279927	-0.357708
41631		7.934170	-4.873448	-2.800400	-0.047185	0.016719	0.018989	-0.252930	0.677246	0.347412	0.470060	-0.756886	-0.279575	-0.357776
41632		7.877771	-5.183506	-2.776235	-0.064435	0.028041	0.009346	-0.256592	0.673340	0.346436	0.469806	-0.757075	-0.279217	-0.357991
41633		7.805445	-5.295842	-2.985317	-0.051525	0.022331	0.003206	-0.258301	0.671143	0.348877	0.469596	-0.757209	-0.278974	-0.358174
41634		7.755418	-5.300708	-3.142903	-0.010836	-0.008488	-0.001316	-0.255127	0.670166	0.347900	0.469544	-0.757269	-0.279002	-0.358093
41635		7.720083	-5.147463	-3.107517	0.017151	-0.017758	-0.006219	-0.250244	0.674316	0.348877	0.469637	-0.757240	-0.279172	-0.357900
41636		7.820345	-5.037117	-3.091770	0.023383	-0.024237	-0.012531	-0.251953	0.665527	0.350830	0.469746	-0.757199	-0.279407	-0.357659
41637		7.907280	-4.868021	-3.121013	0.031598	-0.026697	-0.020299	-0.252686	0.674561	0.356201	0.469843	-0.757127	-0.279726	-0.357434
41638		7.935156	-4.954919	-3.091165	0.039811	-0.029145	-0.024881	-0.254883	0.677002	0.350586	0.469972	-0.757028	-0.280097	-0.357185
41639		7.935162	-5.024915	-2.987672	0.047317	-0.031757	-0.028218	-0.257812	0.672607	0.343750	0.470159	-0.756874	-0.280544	-0.356913
41640		7.897479	-5.003262	-2.992170	0.054563	-0.027299	-0.030218	-0.256348	0.679443	0.352539	0.470409	-0.756651	-0.281037	-0.356669
41641		7.949941	-4.895923	-2.998346	0.063364	-0.024455	-0.032202	-0.255371	0.666504	0.354736	0.470692	-0.756409	-0.281526	-0.356423
41642		7.953111	-4.778774	-3.058114	0.036782	-0.016433	-0.024983	-0.253906	0.674316	0.346436	0.470794	-0.756293	-0.281843	-0.356284
41643		8.029572	-4.746951	-2.956421	0.026308	-0.011005	-0.027148	-0.259033	0.676270	0.344238	0.470903	-0.756160	-0.282142	-0.356186
41644		7.974536	-4.828114	-3.032206	-0.005013	-0.004472	-0.016729	-0.258301	0.666748	0.344238	0.470870	-0.756134	-0.282285	-0.356171
41645		7.962630	-4.966875	-3.035818	-0.038981	0.001031	-0.006820	-0.255371	0.670654	0.348877	0.470634	-0.756262	-0.282238	-0.356249
41646		7.968254	-4.945015	-3.044297	-0.052035	0.008699	0.003197	-0.255859	0.675049	0.351807	0.470358	-0.756462	-0.282032	-0.356353
41647		8.081364	-4.804124	-2.836197	-0.064836	0.023918	0.009239	-0.256104	0.672607	0.355713	0.470057	-0.756683	-0.281685	-0.356555
41648		8.142650	-4.714650	-2.826283	-0.120723	0.050314	0.017404	-0.250488	0.669189	0.352051	0.469461	-0.757080	-0.281006	-0.357033
41649		8.177174	-4.765179	-2.832763	-0.148604	0.073756	0.017460	-0.251953	0.677979	0.352783	0.468772	-0.757511	-0.280140	-0.357702
41650		8.051341	-4.899686	-3.060138	-0.135938	0.078373	0.041342	-0.252930	0.671387	0.355469	0.468281	-0.757914	-0.279153	-0.358263
41651		8.108685	-4.931209	-3.031010	-0.118803	0.075340	0.073952	-0.257812	0.668213	0.353760	0.467953	-0.758347	-0.278023	-0.358656
41652		8.143558	-4.843049	-2.888680	-0.121578	0.098788	0.092281	-0.254150	0.668213	0.346191	0.467713	-0.758735	-0.276720	-0.359154
41653		8.093137	-4.795973	-2.981850	-0.166033	0.141617	0.115063	-0.254395	0.672607	0.353760	0.467422	-0.759185	-0.274992	-0.359909
41654		8.028751	-4.748157	-3.132897	-0.217884	0.165234	0.129738	-0.253418	0.675537	0.356445	0.466874	-0.759819	-0.272899	-0.360875
41655		7.887326	-4.999771	-3.113337	-0.238139	0.178406	0.148603	-0.248779	0.668945	0.361816	0.466291	-0.760529	-0.270570	-0.361885
41656		7.740165	-5.212507	-3.165791	-0.249585	0.169927	0.159365	-0.255615	0.674316	0.359619	0.465600	-0.761370	-0.268125	-0.362826
41657		7.768943	-5.231446	-3.257994	-0.207091	0.144464	0.161419	-0.251953	0.674805	0.368408	0.465171	-0.762063	-0.265963	-0.363511
41658		7.839350	-5.241703	-3.070034	-0.159807	0.129311	0.150497	-0.249023	0.660889	0.368896	0.464931	-0.762635	-0.264025	-0.364029
41659		7.846287	-5.241361	-2.905302	-0.136068	0.118961	0.143568	-0.251953	0.674561	0.369385	0.464733	-0.763162	-0.262214	-0.364489
41660		7.790194	-5.270770	-2.941371	-0.099227	0.097855	0.136011	-0.244873	0.662109	0.367920	0.464769	-0.763544	-0.260687	-0.364736
41661		7.767861	-5.311684	-3.025540	-0.066796	0.082328	0.138217	-0.246582	0.673096	0.364502	0.464946	-0.763886	-0.259262	-0.364809
41662		7.718865	-5.265767	-3.049159	-0.035651	0.069690	0.136527	-0.244385	0.681152	0.364014	0.465373	-0.764085	-0.258043	-0.364712
41663		7.783260	-5.187981	-3.020358	0.005799	0.050850	0.123968	-0.241455	0.666260	0.366211	0.466036	-0.764135	-0.257112	-0.364420
41664		7.893021	-5.098107	-3.019205	0.046527	0.023558	0.111838	-0.239746	0.672852	0.366211	0.466754	-0.764141	-0.256438	-0.363963
41665		7.928195	-4.936996	-2.998636	0.068564	0.012006	0.107083	-0.241699	0.677246	0.366699	0.467604	-0.764076	-0.255911	-0.363379
41666		7.904430	-4.884927	-3.000673	0.076541	0.003598	0.101577	-0.238525	0.674316	0.364990	0.468471	-0.763981	-0.255496	-0.362754
41667		7.889724	-4.783015	-3.066181	0.067323	0.003113	0.100136	-0.235352	0.680908	0.366455	0.469261	-0.763931	-0.255050	-0.362151
41668		7.959144	-4.716408	-2.984879	0.064438	0.002943	0.091434	-0.238770	0.677490	0.367188	0.470026	-0.763880	-0.254640	-0.361554
41669		7.972435	-4.782505	-2.885944	0.050354	0.024592	0.089789	-0.238037	0.680420	0.359375	0.470689	-0.763819	-0.254125	-0.361183
41670		8.066319	-4.915405	-2.823862	0.008719	0.056259	0.094070	-0.230713	0.679932	0.363525	0.471244	-0.763781	-0.253380	-0.361064
41671		7.976088	-5.031453	-2.798004	-0.015611	0.083729	0.110559	-0.230713	0.678711	0.356934	0.471722	-0.763846	-0.252282	-0.361070
41672		7.881988	-5.206976	-2.830614	-0.025263	0.094265	0.135595	-0.229004	0.684570	0.355469	0.472281	-0.763927	-0.250992	-0.361067
41673		7.889493	-5.251387	-2.722767	-0.040221	0.102901	0.156321	-0.225830	0.687256	0.361084	0.472876	-0.764060	-0.249511	-0.361033
41674		7.900676	-5.293655	-2.633876	-0.047597	0.115072	0.180228	-0.226807	0.687012	0.358643	0.473493	-0.764269	-0.247778	-0.360975
41675		7.894162	-5.243486	-2.591422	-0.062876	0.142841	0.198392	-0.227783	0.681885	0.358887	0.474133	-0.764465	-0.245800	-0.361072
41676		7.866111	-5.255285	-2.646118	-0.085458	0.169437	0.215282	-0.225098	0.685791	0.361328	0.474680	-0.764711	-0.243532	-0.361370
41677		7.819054	-5.312454	-2.828612	-0.097930	0.176786	0.218883	-0.219727	0.681641	0.361572	0.475183	-0.764993	-0.241175	-0.361692
41678		7.706357	-5.275722	-2.997608	-0.082494	0.167663	0.221746	-0.222412	0.680420	0.357910	0.475753	-0.765272	-0.238843	-0.361902
41679		7.601764	-5.377498	-2.920557	-0.041274	0.128362	0.219490	-0.220215	0.678223	0.360840	0.476502	-0.765461	-0.236834	-0.361835
41680		7.570922	-5.471004	-2.886354	-0.003647	0.087694	0.207081	-0.213379	0.690430	0.363281	0.477320	-0.765629	-0.235150	-0.361500
41681		7.550510	-5.314294	-2.922159	0.025590	0.056128	0.201646	-0.206543	0.688477	0.365967	0.478340	-0.765755	-0.233740	-0.360800
41682		7.714806	-5.206211	-2.878317	0.057834	0.037175	0.176382	-0.208740	0.691895	0.350098	0.479418	-0.765807	-0.232615	-0.359984
41683		7.808149	-5.089897	-2.821565	0.079707	0.039542	0.150370	-0.216797	0.694336	0.362305	0.480699	-0.765587	-0.231802	-0.359266
41684		7.856136	-5.146025	-2.865910	0.060870	0.057092	0.133688	-0.213623	0.699463	0.351807	0.481691	-0.765403	-0.230983	-0.358857
41685		7.757545	-5.306659	-2.928053	0.029095	0.071173	0.128154	-0.197998	0.694580	0.351562	0.482624	-0.765217	-0.230102	-0.358567
41686		7.679145	-5.287759	-2.921162	0.021008	0.043369	0.133199	-0.205078	0.698486	0.350342	0.483486	-0.765231	-0.229194	-0.357955
41687		7.748554	-5.250029	-2.684907	0.021530	0.036363	0.136943	-0.207764	0.694824	0.353516	0.484342	-0.765221	-0.228352	-0.357359
41688		7.796709	-5.390006	-2.519722	-0.000417	0.065301	0.130700	-0.202148	0.697021	0.351318	0.484994	-0.765229	-0.227339	-0.357102
41689		7.558525	-5.621581	-2.749118	-0.037538	0.106387	0.133501	-0.202393	0.695068	0.359375	0.485556	-0.765262	-0.226046	-0.357089
41690		7.430620	-5.711328	-2.976948	-0.053657	0.105577	0.134850	-0.193359	0.696045	0.347656	0.485919	-0.765421	-0.224676	-0.357119
41691		7.379070	-5.757546	-2.879584	-0.016667	0.063465	0.137244	-0.199219	0.688232	0.355469	0.486602	-0.765504	-0.223582	-0.356697
41692		7.531099	-5.840616	-2.732300	0.020613	0.055409	0.128691	-0.198975	0.696045	0.357910	0.487274	-0.765517	-0.222598	-0.356367
41693		7.546375	-5.797428	-2.665153	0.027200	0.087064	0.120459	-0.192627	0.693359	0.354004	0.488076	-0.765366	-0.221640	-0.356190
41694		7.484276	-5.673470	-2.681547	0.018036	0.105475	0.123699	-0.194824	0.697510	0.351807	0.488887	-0.765217	-0.220520	-0.356093
41695		7.167714	-5.786278	-2.741890	-0.007309	0.087143	0.124243	-0.195312	0.713623	0.350586	0.489535	-0.765187	-0.219439	-0.355937
41696		7.093609	-6.050248	-2.849911	-0.029767	0.052372	0.119838	-0.188232	0.697998	0.345703	0.490148	-0.765240	-0.218654	-0.355462
41697		7.309749	-6.196458	-3.035167	0.035030	0.003050	0.083541	-0.190674	0.699463	0.345947	0.490865	-0.765187	-0.218306	-0.354799
41698		7.362345	-5.937276	-2.934696	0.123412	-0.040072	0.046032	-0.185547	0.701172	0.351562	0.491933	-0.764822	-0.218644	-0.353899
41699		7.427162	-5.771361	-2.784271	0.185556	-0.079244	-0.009183	-0.186035	0.701172	0.342529	0.493160	-0.764257	-0.219724	-0.352742
41700		7.463533	-5.625538	-2.999134	0.200884	-0.104186	-0.059371	-0.187500	0.700928	0.348633	0.494313	-0.763572	-0.221233	-0.351665
41701		7.600755	-5.363241	-2.958107	0.196712	-0.134504	-0.095070	-0.186035	0.703125	0.342529	0.495191	-0.762973	-0.223089	-0.350555
41702		7.722013	-5.430061	-2.766453	0.168295	-0.130337	-0.105505	-0.195068	0.704346	0.337402	0.495924	-0.762427	-0.224927	-0.349532
41703		7.726853	-5.547568	-2.616121	0.126758	-0.103886	-0.095368	-0.183105	0.709473	0.340576	0.496415	-0.761954	-0.226422	-0.348900
41704		7.548911	-5.789487	-2.664478	0.083831	-0.072757	-0.067102	-0.189941	0.704834	0.339844	0.496934	-0.761626	-0.227655	-0.348075
41705		7.540367	-6.016930	-2.639656	0.055651	-0.043683	-0.022498	-0.185059	0.708740	0.333008	0.497320	-0.761440	-0.228284	-0.347517
41706		7.454318	-6.052544	-2.494892	0.053013	-0.012587	0.018576	-0.192627	0.707275	0.324951	0.498008	-0.761198	-0.228586	-0.346862
41707		7.387580	-5.918462	-2.346072	0.028709	0.047951	0.067014	-0.186279	0.698975	0.337402	0.498721	-0.760947	-0.228116	-0.346698
41708		7.379209	-5.923943	-2.458509	-0.007431	0.097116	0.097608	-0.181641	0.699951	0.339355	0.499237	-0.760903	-0.227093	-0.346724
41709		7.421670	-5.923213	-2.684058	-0.006333	0.103819	0.107310	-0.184082	0.710449	0.333496	0.499840	-0.760861	-0.226041	-0.346634
41710		7.571129	-5.514467	-2.605755	0.052604	0.104328	0.106666	-0.185303	0.707031	0.327148	0.500971	-0.760454	-0.225312	-0.346371
41711		7.792657	-5.164303	-2.412884	0.042039	0.109495	0.089141	-0.181152	0.707031	0.330811	0.501929	-0.760052	-0.224500	-0.346394
41712		7.762467	-5.288572	-2.676471	-0.030734	0.124650	0.050121	-0.183350	0.714600	0.343506	0.502348	-0.759864	-0.223720	-0.346701
41713		7.629610	-5.405842	-2.892416	-0.047647	0.098190	0.008823	-0.193359	0.710938	0.336182	0.502530	-0.759733	-0.223521	-0.346853
41714		7.540029	-5.537471	-2.846424	-0.018310	0.049388	-0.038851	-0.196777	0.709717	0.331055	0.502524	-0.759527	-0.223672	-0.347216
41715		7.553929	-5.427806	-2.740746	0.021210	0.002353	-0.075902	-0.190430	0.712158	0.329346	0.502539	-0.759212	-0.224267	-0.347500
41716		7.612397	-5.354720	-2.541329	0.027682	-0.016862	-0.109409	-0.187256	0.708496	0.337158	0.502605	-0.758832	-0.225312	-0.347558
41717		7.763219	-5.426813	-2.523002	0.006870	-0.016591	-0.137633	-0.186768	0.703613	0.327148	0.502410	-0.758554	-0.226507	-0.347670
41718		7.834072	-5.423972	-2.452823	0.001769	-0.018141	-0.172009	-0.187256	0.705811	0.331787	0.502064	-0.758238	-0.227730	-0.348059
41719		7.658536	-5.277366	-2.552765	-0.034871	-0.028271	-0.196196	-0.193604	0.696289	0.332764	0.501440	-0.758050	-0.229169	-0.348424
41720		7.705628	-5.297338	-2.426718	-0.052293	-0.039647	-0.211271	-0.199463	0.700439	0.333740	0.500411	-0.758031	-0.230414	-0.349123
41721		7.728814	-5.508684	-2.342358	-0.066664	-0.041200	-0.221452	-0.203125	0.701172	0.336914	0.499303	-0.758002	-0.231786	-0.349863
41722		7.649775	-5.671612	-2.563481	-0.075267	-0.029640	-0.232755	-0.201904	0.701904	0.331299	0.498133	-0.757941	-0.233208	-0.350717
41723		7.598106	-5.596264	-2.702088	-0.059740	-0.061004	-0.236699	-0.211182	0.701660	0.340088	0.497099	-0.757850	-0.234868	-0.351273
41724		7.604633	-5.533286	-2.701771	-0.026547	-0.090110	-0.241746	-0.210205	0.699707	0.333740	0.496088	-0.757718	-0.236785	-0.351699
41725		7.500134	-5.503825	-2.634962	-0.031058	-0.099277	-0.244605	-0.217285	0.697510	0.346436	0.495076	-0.757603	-0.238704	-0.352077
41726		7.684837	-5.550221	-2.680702	-0.035521	-0.096680	-0.262396	-0.221436	0.694092	0.339600	0.493838	-0.757525	-0.240712	-0.352617
41727		7.739224	-5.556284	-2.773851	-0.047012	-0.103760	-0.269841	-0.221191	0.686523	0.342773	0.492466	-0.757482	-0.242644	-0.353303
41728		7.468616	-5.788726	-2.746384	-0.035244	-0.099997	-0.266382	-0.227783	0.694824	0.343994	0.491089	-0.757458	-0.244457	-0.354019
41729		7.400236	-6.095554	-2.946546	0.004164	-0.113663	-0.248694	-0.224854	0.695068	0.346191	0.490110	-0.757245	-0.246550	-0.354380
41730		7.228546	-6.131377	-2.889505	0.046879	-0.133242	-0.223544	-0.220703	0.693604	0.345947	0.489495	-0.756972	-0.248745	-0.354280
41731		7.488692	-6.065501	-2.600082	0.101029	-0.145684	-0.194033	-0.228760	0.687744	0.337402	0.489327	-0.756591	-0.250965	-0.353759
41732		7.736605	-5.893936	-2.475645	0.093891	-0.122431	-0.153660	-0.225830	0.681396	0.345215	0.489164	-0.756249	-0.252642	-0.353521
41733		7.921281	-5.598628	-2.327570	0.074267	-0.073552	-0.115456	-0.230225	0.689697	0.336670	0.488961	-0.756041	-0.253703	-0.353489
41734		7.882134	-5.360031	-2.512933	0.043592	-0.039087	-0.079075	-0.230713	0.692627	0.334717	0.488923	-0.755789	-0.254495	-0.353510
41735		7.882899	-5.111715	-2.640064	-0.004690	-0.045504	-0.062360	-0.231445	0.695557	0.341309	0.488682	-0.755750	-0.255136	-0.353465
41736		7.745239	-5.108560	-2.812601	-0.011663	-0.038772	-0.065295	-0.225830	0.688232	0.337158	0.488392	-0.755730	-0.255796	-0.353432
41737		7.832682	-5.193299	-2.858403	0.003310	-0.035570	-0.068727	-0.231201	0.691895	0.342773	0.488173	-0.755681	-0.256382	-0.353415
41738		8.000252	-5.082623	-2.866977	0.037623	-0.053274	-0.077957	-0.231445	0.689941	0.343994	0.488070	-0.755516	-0.257259	-0.353272
41739		8.096466	-4.878991	-2.775898	0.052987	-0.062521	-0.082671	-0.229736	0.688965	0.340332	0.487986	-0.755334	-0.258205	-0.353087
41740		8.059593	-4.764105	-2.679706	0.043248	-0.061508	-0.087785	-0.229004	0.687744	0.338867	0.487863	-0.755167	-0.259145	-0.352924
41741		7.971134	-4.773135	-2.884193	-0.011441	-0.050250	-0.081891	-0.241211	0.689941	0.337158	0.487442	-0.755207	-0.259825	-0.352921
41742		7.871571	-4.754656	-2.868398	-0.041021	-0.073567	-0.085087	-0.242188	0.686523	0.347656	0.486735	-0.755349	-0.260615	-0.353011
41743		8.001641	-5.015734	-2.888023	-0.070287	-0.085068	-0.104399	-0.242920	0.680664	0.336182	0.485609	-0.755702	-0.261382	-0.353239
41744		7.980469	-5.103565	-2.871479	-0.070568	-0.085545	-0.118209	-0.240479	0.690918	0.345215	0.484509	-0.755954	-0.262257	-0.353561
41745		7.809654	-5.143926	-2.810538	-0.050879	-0.100883	-0.118974	-0.242432	0.691650	0.337158	0.483603	-0.756161	-0.263380	-0.353524
41746		7.746828	-5.201281	-2.810407	-0.030216	-0.119923	-0.119222	-0.239746	0.685303	0.339844	0.482905	-0.756239	-0.264761	-0.353281
41747		7.785517	-5.319248	-2.694905	0.009174	-0.134004	-0.116220	-0.237305	0.686523	0.349609	0.482344	-0.756285	-0.266157	-0.352898
41748		7.804755	-5.276551	-2.666433	0.026490	-0.132950	-0.112736	-0.238037	0.686035	0.344238	0.481833	-0.756356	-0.267491	-0.352437
41749		7.853375	-5.210283	-2.822671	0.015404	-0.130751	-0.126419	-0.240479	0.690674	0.352051	0.481282	-0.756378	-0.268929	-0.352048
41750		7.853154	-5.159910	-3.018848	0.017452	-0.125223	-0.132504	-0.249268	0.685059	0.348145	0.480701	-0.756386	-0.270395	-0.351702
41751		7.896289	-5.053072	-3.067011	0.057424	-0.141801	-0.134944	-0.247559	0.680176	0.344727	0.480245	-0.756235	-0.272070	-0.351356
41752		7.845034	-4.889437	-2.906595	0.070068	-0.155552	-0.132963	-0.244141	0.680664	0.349609	0.479837	-0.756091	-0.273779	-0.350896
41753		7.843897	-4.879130	-2.946388	0.043879	-0.150213	-0.140605	-0.245605	0.683350	0.347168	0.479221	-0.756085	-0.275355	-0.350519
41754		7.965998	-4.866383	-3.019992	0.021557	-0.131780	-0.143976	-0.241455	0.681885	0.345703	0.478571	-0.756047	-0.276910	-0.350263
41755		8.035216	-4.844981	-3.039611	0.020289	-0.119519	-0.150977	-0.249268	0.677979	0.343018	0.477961	-0.755977	-0.278425	-0.350044
41756		7.946509	-5.042835	-2.920797	0.017743	-0.113085	-0.139385	-0.246582	0.679443	0.348145	0.477339	-0.755874	-0.279899	-0.349941
41757		7.853444	-5.234340	-2.942478	0.044693	-0.125403	-0.124692	-0.252686	0.677734	0.342529	0.476874	-0.755797	-0.281319	-0.349603
41758		7.829668	-5.148233	-2.998967	0.072904	-0.137007	-0.110194	-0.240234	0.681885	0.343750	0.476641	-0.755580	-0.282918	-0.349099
41759		7.913961	-4.974057	-3.060575	0.088103	-0.137842	-0.111144	-0.248779	0.675537	0.349609	0.476598	-0.755373	-0.284461	-0.348350
41760		7.990276	-4.720318	-2.995927	0.114260	-0.148359	-0.123185	-0.257568	0.677002	0.342285	0.476429	-0.755134	-0.286078	-0.347776
41761		8.128633	-4.492246	-3.097786	0.128891	-0.146627	-0.147464	-0.260498	0.685303	0.346436	0.476373	-0.754616	-0.288143	-0.347271
41762		8.061521	-4.359210	-3.152360	0.109534	-0.128488	-0.169840	-0.257324	0.682129	0.341553	0.476183	-0.754064	-0.290244	-0.346982
41763		7.822796	-4.348117	-3.265571	0.072621	-0.105081	-0.189920	-0.257568	0.683350	0.342773	0.475808	-0.753534	-0.292267	-0.346947
41764		7.837735	-4.551563	-3.368930	0.066073	-0.116860	-0.218906	-0.253906	0.680908	0.342773	0.475275	-0.753014	-0.294464	-0.346951
41765		7.838173	-4.798794	-3.573891	0.110226	-0.137322	-0.239135	-0.258057	0.673828	0.341553	0.474902	-0.752381	-0.296893	-0.346764
41766		7.804692	-4.936136	-3.563454	0.170535	-0.163265	-0.246441	-0.265137	0.671631	0.348389	0.474733	-0.751582	-0.299605	-0.346396
41767		7.887898	-5.018085	-3.358557	0.231034	-0.183135	-0.246531	-0.267578	0.667236	0.344727	0.474699	-0.750685	-0.302429	-0.345933
41768		7.973521	-5.099647	-3.106475	0.257617	-0.172345	-0.236990	-0.262695	0.677979	0.333984	0.474873	-0.749653	-0.305265	-0.345442
41769		8.017704	-5.047902	-2.961574	0.254809	-0.149697	-0.223292	-0.268066	0.676514	0.326660	0.475435	-0.748449	-0.308155	-0.344713
41770		8.064768	-5.098229	-2.933651	0.210033	-0.111452	-0.196885	-0.277100	0.678223	0.340088	0.475951	-0.747272	-0.310777	-0.344200
41771		7.926153	-5.147866	-2.889091	0.173579	-0.084419	-0.163249	-0.271484	0.684814	0.337402	0.476095	-0.746431	-0.312667	-0.344113
41772		7.881673	-5.267223	-2.955776	0.167181	-0.073764	-0.139763	-0.268066	0.681396	0.327637	0.476411	-0.745650	-0.314322	-0.343862
41773		7.885103	-5.219180	-3.040543	0.194791	-0.091980	-0.120916	-0.271973	0.677979	0.335205	0.477041	-0.744779	-0.316139	-0.343209
41774		8.063948	-5.002023	-3.088295	0.217660	-0.131697	-0.116262	-0.280518	0.679688	0.324707	0.477489	-0.744090	-0.317902	-0.342450
41775		8.102682	-4.658999	-3.078271	0.233071	-0.144317	-0.116671	-0.274414	0.676025	0.325928	0.478165	-0.743142	-0.320177	-0.341445
41776		8.068433	-4.526692	-3.051136	0.220415	-0.134345	-0.122795	-0.288574	0.674561	0.337891	0.478678	-0.742336	-0.322157	-0.340616
41777		8.161939	-4.575116	-3.023631	0.198681	-0.121313	-0.121776	-0.279297	0.676758	0.314209	0.478790	-0.741697	-0.323857	-0.340240
41778		8.221819	-4.601973	-3.192072	0.178178	-0.112820	-0.109944	-0.281494	0.677246	0.328125	0.479325	-0.740836	-0.325898	-0.339411
41779		8.197363	-4.534368	-3.187425	0.130721	-0.090517	-0.074374	-0.283447	0.677490	0.320557	0.479432	-0.740459	-0.327030	-0.338994
41780		8.231456	-4.447815	-3.049668	0.067102	-0.046719	-0.039748	-0.283936	0.678223	0.320068	0.479510	-0.740175	-0.327828	-0.338733
41781		8.165841	-4.395632	-3.075792	0.006254	-0.011526	-0.022217	-0.283203	0.680664	0.314697	0.479375	-0.740085	-0.328193	-0.338766
41782		8.143637	-4.434923	-3.185551	-0.030004	0.008084	-0.015571	-0.278809	0.670410	0.321777	0.479202	-0.740035	-0.328444	-0.338879
41783		8.045016	-4.556126	-3.325605	-0.038740	0.007586	-0.022100	-0.287109	0.677246	0.317139	0.478800	-0.740165	-0.328426	-0.339180
41784		7.953125	-4.607650	-3.387667	-0.023799	0.002560	-0.025582	-0.280273	0.665771	0.313965	0.478589	-0.740099	-0.328744	-0.339313
41785		8.098073	-4.676723	-3.321517	0.020081	-0.012436	-0.038836	-0.284424	0.680420	0.319336	0.478568	-0.739904	-0.329253	-0.339273
41786		8.106304	-4.666338	-3.297058	0.058627	-0.022676	-0.047828	-0.271973	0.675293	0.314209	0.478730	-0.739581	-0.329910	-0.339111
41787		8.041666	-4.645827	-3.346778	0.081482	-0.023696	-0.041393	-0.278564	0.679443	0.315186	0.479093	-0.739217	-0.330524	-0.338794
41788		8.047913	-4.591904	-3.215295	0.074819	-0.019221	-0.034643	-0.283203	0.675293	0.319336	0.479434	-0.738866	-0.331100	-0.338515
41789		8.153069	-4.523782	-3.148342	0.055363	-0.006447	-0.027402	-0.281738	0.677490	0.320801	0.479642	-0.738609	-0.331484	-0.338406
41790		8.130136	-4.550662	-3.175302	0.025746	0.022253	-0.016367	-0.288330	0.679199	0.316650	0.479777	-0.738437	-0.331566	-0.338511
41791		8.067589	-4.575384	-3.219265	-0.005711	0.040395	-0.006613	-0.280762	0.679199	0.310059	0.479836	-0.738304	-0.331540	-0.338740
41792		8.050520	-4.686270	-3.196389	-0.019947	0.033210	-0.001569	-0.290527	0.680908	0.323242	0.479863	-0.738247	-0.331483	-0.338882
41793		8.042514	-4.727431	-3.223785	0.005741	0.025912	-0.002072	-0.281250	0.668701	0.313721	0.479917	-0.738170	-0.331440	-0.339018
41794		7.960176	-4.683245	-3.302054	0.018625	0.026895	-0.002084	-0.290771	0.672852	0.312988	0.480103	-0.738015	-0.331465	-0.339067
41795		7.948967	-4.590706	-3.293583	0.034377	0.016108	-0.015805	-0.294434	0.676758	0.322021	0.480327	-0.737752	-0.331736	-0.339057
41796		8.009801	-4.603568	-3.290437	0.064118	0.000589	-0.017893	-0.284912	0.683838	0.320557	0.480626	-0.737459	-0.332080	-0.338933
41797		8.095087	-4.633054	-3.189561	0.085597	-0.019889	-0.029989	-0.289795	0.673096	0.316406	0.481004	-0.737120	-0.332588	-0.338636
41798		8.054637	-4.694628	-3.192982	0.090942	-0.012228	-0.033873	-0.283936	0.680176	0.312988	0.481424	-0.736698	-0.333174	-0.338382
41799		8.059045	-4.675655	-3.129399	0.094716	-0.001318	-0.036317	-0.289307	0.677734	0.311768	0.481925	-0.736222	-0.333721	-0.338165
41800		8.109443	-4.595402	-3.184419	0.103023	-0.000783	-0.036924	-0.285645	0.678711	0.309570	0.482469	-0.735697	-0.334325	-0.337936
41801		8.077966	-4.602525	-3.184662	0.083661	0.005006	-0.034878	-0.293457	0.676758	0.314941	0.482925	-0.735244	-0.334821	-0.337779
41802		8.067422	-4.647826	-3.188280	0.069509	0.007099	-0.029392	-0.286377	0.685547	0.312256	0.483274	-0.734871	-0.335229	-0.337687
41803		7.999778	-4.677196	-3.146470	0.072170	0.010918	-0.031341	-0.290039	0.687012	0.307373	0.483677	-0.734474	-0.335612	-0.337593
41804		8.056282	-4.649140	-3.123452	0.078407	0.024027	-0.025722	-0.290039	0.678955	0.315186	0.484190	-0.734003	-0.335970	-0.337525
41805		8.097685	-4.725896	-2.991999	0.071071	0.020220	-0.022122	-0.287598	0.681885	0.300537	0.484601	-0.733626	-0.336248	-0.337478
41806		8.109741	-4.791411	-2.939345	0.086790	0.008014	-0.019341	-0.279541	0.686035	0.303711	0.485154	-0.733172	-0.336672	-0.337248
41807		8.063760	-4.846337	-2.949320	0.096923	-0.002444	-0.016236	-0.288330	0.679688	0.311035	0.485737	-0.732750	-0.337077	-0.336921
41808		8.017238	-4.763259	-2.947066	0.096933	0.005117	-0.017306	-0.287842	0.688721	0.298340	0.486283	-0.732321	-0.337460	-0.336682
41809		8.039698	-4.649058	-2.916533	0.107444	-0.008061	-0.031724	-0.283691	0.688232	0.293213	0.486883	-0.731796	-0.338068	-0.336348
41810		8.057036	-4.604632	-2.963654	0.128351	-0.025065	-0.048611	-0.285889	0.684814	0.297119	0.487531	-0.731180	-0.338903	-0.335907
41811		8.125755	-4.476214	-3.095640	0.128400	-0.029626	-0.059168	-0.291748	0.683350	0.293701	0.488103	-0.730566	-0.339804	-0.335503
41812		8.097722	-4.339026	-3.107934	0.112839	-0.034972	-0.074993	-0.291016	0.680664	0.297119	0.488520	-0.729966	-0.340817	-0.335174
41813		8.148498	-4.384838	-3.008477	0.099969	-0.035504	-0.096708	-0.283447	0.674072	0.296631	0.488769	-0.729382	-0.341898	-0.334982
41814		8.192323	-4.577698	-2.922375	0.120394	-0.036486	-0.102863	-0.295654	0.683838	0.295166	0.489114	-0.728722	-0.343035	-0.334752
41815		8.077747	-4.762584	-2.864520	0.126894	-0.065949	-0.098118	-0.290771	0.679932	0.296631	0.489438	-0.728098	-0.344337	-0.334301
41816		8.086567	-4.898192	-3.001409	0.134657	-0.082045	-0.090297	-0.292480	0.680176	0.288818	0.489768	-0.727533	-0.345636	-0.333705
41817		8.224733	-4.741150	-2.974327	0.153730	-0.071196	-0.072126	-0.294189	0.678223	0.295166	0.490325	-0.726879	-0.346874	-0.333025
41818		8.308413	-4.567508	-2.920136	0.146660	-0.043671	-0.049066	-0.294678	0.679443	0.296631	0.490938	-0.726276	-0.347808	-0.332464
41819		8.301042	-4.571579	-2.811573	0.130983	-0.045856	-0.041050	-0.296875	0.678223	0.289551	0.491460	-0.725776	-0.348644	-0.331908
41820		8.260191	-4.625002	-2.908040	0.102927	-0.033468	-0.037583	-0.292236	0.686279	0.298340	0.491882	-0.725334	-0.349378	-0.331478
41821		8.173569	-4.519220	-3.139727	0.077621	-0.026320	-0.033291	-0.291504	0.689209	0.291260	0.492155	-0.725043	-0.349891	-0.331169
41822		8.192539	-4.298697	-3.200489	0.059488	-0.032023	-0.020158	-0.290283	0.681396	0.287598	0.492376	-0.724850	-0.350324	-0.330804
41823		8.173839	-4.326676	-3.047264	0.033735	-0.000056	-0.010577	-0.300781	0.685059	0.291260	0.492564	-0.724692	-0.350524	-0.330660
41824		8.272791	-4.369594	-2.990232	0.017047	0.015701	0.010520	-0.288818	0.681885	0.291504	0.492731	-0.724610	-0.350529	-0.330585
41825		8.304681	-4.435833	-3.074549	0.002082	0.022519	0.036060	-0.294922	0.683350	0.295166	0.492900	-0.724682	-0.350231	-0.330491
41826		8.245229	-4.353900	-3.133878	-0.045034	0.037347	0.063220	-0.291016	0.677979	0.292236	0.492879	-0.724984	-0.349603	-0.330524
41827		8.145617	-4.293762	-3.064911	-0.106801	0.086990	0.078183	-0.289062	0.680176	0.297363	0.492683	-0.725438	-0.348521	-0.330963
41828		8.063221	-4.502222	-2.870480	-0.145553	0.104248	0.076148	-0.291748	0.683594	0.296387	0.492279	-0.726021	-0.347231	-0.331641
41829		8.128990	-4.791804	-2.905597	-0.139176	0.113173	0.077371	-0.290283	0.675781	0.291748	0.491959	-0.726533	-0.345943	-0.332341
41830		8.058178	-4.946362	-3.063430	-0.132603	0.108058	0.092635	-0.293701	0.678711	0.296875	0.491727	-0.727044	-0.344653	-0.332905
41831		7.966453	-4.980125	-2.911044	-0.149740	0.107129	0.101464	-0.291504	0.681396	0.297119	0.491391	-0.727662	-0.343259	-0.333490
41832		7.916242	-5.032963	-2.818080	-0.144231	0.112133	0.094765	-0.295166	0.684570	0.303955	0.491095	-0.728223	-0.341883	-0.334115
41833		8.022002	-4.998939	-2.863631	-0.103974	0.081734	0.080550	-0.289062	0.674316	0.302246	0.490887	-0.728679	-0.340814	-0.334518
41834		8.026306	-4.941384	-2.956624	-0.068263	0.062257	0.082124	-0.291748	0.677979	0.298340	0.490850	-0.729047	-0.339919	-0.334682
41835		7.947895	-4.832287	-2.983267	-0.075568	0.057800	0.080344	-0.284912	0.677490	0.306641	0.490781	-0.729417	-0.339077	-0.334831
41836		8.037878	-4.869407	-2.893704	-0.079443	0.059298	0.067520	-0.284424	0.678711	0.300293	0.490618	-0.729822	-0.338193	-0.335082
41837		8.147923	-4.858367	-2.877742	-0.075995	0.066059	0.065065	-0.289551	0.690430	0.297852	0.490532	-0.730146	-0.337352	-0.335349
41838		8.110083	-4.800680	-2.968573	-0.095509	0.073032	0.074592	-0.282715	0.685303	0.304443	0.490403	-0.730528	-0.336395	-0.335668
41839		8.049921	-4.821815	-2.948596	-0.106770	0.072948	0.084671	-0.278320	0.681641	0.312988	0.490196	-0.731030	-0.335275	-0.335996
41840		8.080811	-4.698792	-2.941905	-0.120255	0.071134	0.096085	-0.277344	0.682861	0.306641	0.489890	-0.731670	-0.333991	-0.336329
41841		8.177799	-4.560957	-2.855526	-0.162361	0.092836	0.101619	-0.285400	0.678223	0.311523	0.489446	-0.732395	-0.332511	-0.336862
41842		8.134084	-4.607404	-2.806089	-0.207616	0.118703	0.103164	-0.275146	0.683105	0.312500	0.488773	-0.733218	-0.330861	-0.337673
41843		8.112381	-4.849722	-2.892671	-0.222542	0.129029	0.101818	-0.287842	0.678223	0.304443	0.488048	-0.734095	-0.329036	-0.338600
41844		7.987126	-5.008885	-3.063580	-0.199413	0.112757	0.109582	-0.276855	0.682373	0.314209	0.487485	-0.734843	-0.327493	-0.339283
41845		7.966333	-5.123093	-3.066004	-0.161927	0.089783	0.116876	-0.275146	0.677246	0.322021	0.487073	-0.735599	-0.325941	-0.339731
41846		7.913038	-5.053828	-2.935470	-0.129285	0.069656	0.116088	-0.273438	0.674561	0.317627	0.486761	-0.736306	-0.324540	-0.339987
41847		7.910779	-5.012283	-2.916531	-0.093647	0.047498	0.104270	-0.267578	0.681152	0.312256	0.486605	-0.736868	-0.323445	-0.340037
41848		7.979991	-4.911136	-2.903890	-0.069707	0.025874	0.100637	-0.268311	0.678955	0.330078	0.486570	-0.737371	-0.322501	-0.339891
41849		8.040055	-4.835986	-2.908371	-0.067668	0.032006	0.091298	-0.271240	0.678467	0.319580	0.486439	-0.737900	-0.321512	-0.339870
41850		8.067706	-4.826099	-2.930878	-0.080978	0.044697	0.095230	-0.275146	0.672607	0.323486	0.486333	-0.738383	-0.320525	-0.339903
41851		8.076726	-4.911712	-2.986149	-0.096957	0.039191	0.100056	-0.259277	0.675781	0.323730	0.486104	-0.738953	-0.319535	-0.339925
41852		8.024461	-4.880723	-3.034798	-0.113775	0.046942	0.114238	-0.264404	0.686279	0.328613	0.485843	-0.739654	-0.318232	-0.339995
41853		7.919298	-4.795822	-2.988366	-0.154697	0.068690	0.133217	-0.263428	0.680420	0.325684	0.485426	-0.740511	-0.316597	-0.340252
41854		7.905751	-4.881781	-2.888885	-0.187697	0.089007	0.133509	-0.257080	0.672119	0.329834	0.484880	-0.741410	-0.314848	-0.340694
41855		7.948335	-5.035519	-2.963072	-0.190676	0.089637	0.130661	-0.253906	0.677979	0.324463	0.484289	-0.742330	-0.313082	-0.341159
41856		7.883367	-5.148181	-2.990014	-0.185027	0.082619	0.133164	-0.255615	0.675781	0.341064	0.483765	-0.743227	-0.311346	-0.341540
41857		7.816662	-5.204114	-3.050303	-0.169613	0.073177	0.132733	-0.259033	0.672363	0.341797	0.483227	-0.744139	-0.309638	-0.341868
41858		7.882738	-5.312601	-2.993444	-0.136892	0.042913	0.129697	-0.247803	0.676514	0.333984	0.482814	-0.744964	-0.308239	-0.341918
41859		7.855028	-5.249273	-2.880884	-0.096827	0.018381	0.123796	-0.262695	0.676025	0.336426	0.482621	-0.745673	-0.307042	-0.341722
41860		7.792381	-5.209280	-2.834466	-0.082961	0.015180	0.115146	-0.252197	0.677246	0.343018	0.482482	-0.746257	-0.306102	-0.341486
41861		7.802946	-5.128235	-2.847780	-0.040766	0.006960	0.105039	-0.250977	0.671387	0.339844	0.482526	-0.746723	-0.305257	-0.341162
41862		7.867140	-5.069849	-2.927730	-0.008799	-0.012694	0.085307	-0.243164	0.680176	0.345703	0.482683	-0.747039	-0.304761	-0.340690
41863		7.908173	-4.961593	-3.014228	0.017572	-0.027419	0.062606	-0.252441	0.672363	0.338379	0.482879	-0.747279	-0.304426	-0.340186
41864		7.872215	-4.900783	-3.106098	0.035672	-0.023381	0.046298	-0.254150	0.680420	0.340576	0.483191	-0.747320	-0.304397	-0.339678
41865		7.901894	-4.874791	-3.112629	0.033950	-0.013539	0.043587	-0.241699	0.680176	0.335938	0.483502	-0.747342	-0.304313	-0.339262
41866		7.858174	-4.921949	-3.128380	0.037800	-0.010263	0.042278	-0.247559	0.674316	0.337402	0.483856	-0.747351	-0.304181	-0.338856
41867		7.825158	-4.928319	-3.111724	0.039494	-0.013911	0.038501	-0.249268	0.689453	0.339111	0.484194	-0.747336	-0.304153	-0.338432
41868		7.841385	-4.885011	-3.074816	0.027769	-0.020177	0.044672	-0.244385	0.678467	0.338867	0.484459	-0.747410	-0.304041	-0.337989
41869		7.913098	-4.755277	-2.965882	0.013119	-0.014162	0.045044	-0.252441	0.678955	0.341309	0.484644	-0.747530	-0.303872	-0.337612
41870		7.945851	-4.679143	-2.887681	-0.003951	0.002987	0.035933	-0.246094	0.678467	0.339111	0.484733	-0.747633	-0.303684	-0.337424
41871		8.023049	-4.675782	-2.835166	-0.014294	0.012483	0.020142	-0.244629	0.682861	0.341064	0.484746	-0.747717	-0.303503	-0.337382
41872		8.010792	-4.848071	-2.861495	-0.041866	0.012234	0.000723	-0.243652	0.686768	0.338867	0.484528	-0.747874	-0.303341	-0.337493
41873		7.928771	-5.090843	-3.007123	-0.039026	0.005887	-0.012698	-0.238770	0.680908	0.342285	0.484287	-0.747997	-0.303299	-0.337603
41874		7.858446	-5.191540	-3.154627	-0.030929	0.010281	-0.008747	-0.247314	0.672607	0.342285	0.484102	-0.748104	-0.303208	-0.337713
41875		7.701708	-5.286859	-3.167907	-0.017885	0.012896	0.005668	-0.248291	0.677246	0.343506	0.484045	-0.748162	-0.303122	-0.337744
41876		7.662359	-5.268032	-3.172664	-0.005421	0.010162	0.017571	-0.239746	0.681885	0.340332	0.484092	-0.748210	-0.302998	-0.337682
41877		7.746421	-5.141416	-3.115535	0.004488	0.002605	0.017238	-0.238770	0.682861	0.348633	0.484196	-0.748248	-0.302898	-0.337539
41878		7.829737	-5.060231	-3.100342	0.005464	0.001803	0.005076	-0.245117	0.684326	0.350830	0.484238	-0.748282	-0.302831	-0.337462
41879		7.836275	-5.023384	-3.047541	0.000512	0.006631	-0.011823	-0.246338	0.680664	0.345703	0.484211	-0.748269	-0.302864	-0.337502
41880		7.734972	-5.149990	-3.009590	0.015900	-0.000069	-0.034772	-0.243164	0.680176	0.339111	0.484218	-0.748131	-0.303155	-0.337535
41881		7.691409	-5.367428	-3.040842	0.059172	-0.023779	-0.051079	-0.245605	0.691895	0.343018	0.484413	-0.747831	-0.303784	-0.337356
41882		7.694726	-5.307083	-3.070339	0.100876	-0.047385	-0.062588	-0.251953	0.684326	0.339600	0.484767	-0.747410	-0.304666	-0.336983
41883		7.675136	-5.237815	-3.015912	0.131785	-0.056992	-0.076728	-0.246582	0.683350	0.336182	0.485254	-0.746831	-0.305820	-0.336522
41884		7.822016	-5.221054	-2.922288	0.160324	-0.080989	-0.086002	-0.245605	0.684814	0.343506	0.485836	-0.746185	-0.307189	-0.335867
41885		7.946974	-5.099190	-2.977143	0.158629	-0.087397	-0.084110	-0.250000	0.686035	0.329590	0.486362	-0.745599	-0.308509	-0.335196
41886		7.959324	-4.956840	-3.022231	0.128739	-0.062611	-0.072977	-0.252930	0.687988	0.340332	0.486845	-0.745040	-0.309666	-0.334670
41887		7.953495	-4.873089	-2.985407	0.090158	-0.039082	-0.061513	-0.250488	0.686523	0.329590	0.487136	-0.744636	-0.310491	-0.334382
41888		7.960633	-4.925206	-3.014153	0.052175	-0.014871	-0.045889	-0.244629	0.691162	0.334229	0.487333	-0.744331	-0.311058	-0.334246
41889		7.953182	-5.006804	-3.040368	0.023940	0.006863	-0.033212	-0.250732	0.680420	0.326904	0.487432	-0.744144	-0.311317	-0.334277
41890		7.921626	-5.097707	-3.040084	0.020650	0.019217	-0.017940	-0.242920	0.689209	0.326904	0.487598	-0.743941	-0.311496	-0.334321
41891		7.872197	-5.065589	-3.149237	0.020843	0.019803	0.001082	-0.251953	0.681885	0.324707	0.487830	-0.743802	-0.311510	-0.334278
41892		7.971595	-4.892291	-3.080066	0.029783	0.006718	0.010001	-0.254883	0.685547	0.334473	0.488102	-0.743663	-0.311602	-0.334104
41893		7.998712	-4.743660	-2.935799	-0.003831	0.016529	0.012470	-0.249512	0.687500	0.324707	0.488161	-0.743669	-0.311497	-0.334103
41894		8.034676	-4.764315	-2.864680	-0.044909	0.043160	0.012943	-0.251953	0.684570	0.322510	0.488080	-0.743744	-0.311203	-0.334329
41895		8.096417	-4.904148	-2.766441	-0.071199	0.064984	0.012372	-0.246094	0.686523	0.328369	0.487896	-0.743850	-0.310774	-0.334760
41896		7.950900	-5.037000	-2.811933	-0.104465	0.078913	0.018079	-0.252686	0.679932	0.327148	0.487540	-0.744100	-0.310098	-0.335349
41897		7.843100	-5.090521	-2.933412	-0.133035	0.081818	0.030523	-0.254395	0.686768	0.322998	0.487041	-0.744473	-0.309289	-0.335993
41898		7.818844	-5.073140	-3.012471	-0.132352	0.085239	0.035603	-0.252930	0.682129	0.335449	0.486608	-0.744814	-0.308487	-0.336603
41899		7.823630	-5.129623	-3.087100	-0.114233	0.083296	0.038586	-0.249512	0.676758	0.334229	0.486228	-0.745148	-0.307632	-0.337194
41900		7.824694	-5.084886	-3.088457	-0.103337	0.073475	0.034185	-0.259766	0.686035	0.337891	0.485878	-0.745458	-0.306864	-0.337712
41901		7.914091	-5.066714	-3.031220	-0.102369	0.066471	0.031780	-0.246338	0.683350	0.329590	0.485514	-0.745753	-0.306189	-0.338197
41902		7.921263	-4.924280	-2.925040	-0.101474	0.074361	0.039205	-0.251465	0.687988	0.332764	0.485244	-0.746035	-0.305438	-0.338641
41903		7.789114	-5.026609	-2.932912	-0.135548	0.086503	0.047844	-0.250977	0.684814	0.337891	0.484814	-0.746434	-0.304505	-0.339219
41904		7.815979	-5.251893	-3.071284	-0.183843	0.097221	0.059688	-0.252930	0.682373	0.348389	0.484115	-0.747048	-0.303278	-0.339962
41905		8.035865	-5.175417	-2.961312	-0.194193	0.110574	0.085257	-0.241455	0.685791	0.339355	0.483405	-0.747766	-0.301743	-0.340760
41906		8.084082	-5.093022	-2.780618	-0.253004	0.152176	0.110323	-0.243408	0.684082	0.336914	0.482578	-0.748634	-0.299758	-0.341777
41907		7.857872	-5.474034	-2.753899	-0.290283	0.185998	0.126114	-0.242676	0.682373	0.339111	0.481665	-0.749562	-0.297479	-0.343018
41908		7.714285	-5.739946	-3.066054	-0.256909	0.171422	0.144706	-0.244629	0.677979	0.352295	0.480975	-0.750438	-0.295236	-0.344009
41909		7.773338	-5.642783	-3.102716	-0.164417	0.138825	0.153011	-0.244629	0.681152	0.355957	0.480728	-0.751104	-0.293245	-0.344602
41910		7.773670	-5.443982	-3.005323	-0.103457	0.122790	0.156775	-0.244385	0.671875	0.341309	0.480830	-0.751582	-0.291461	-0.344931
41911		7.773675	-5.263304	-2.918514	-0.064672	0.115282	0.157804	-0.249512	0.685791	0.337402	0.481213	-0.751864	-0.289923	-0.345077
41912		7.795377	-5.054511	-2.981330	-0.034428	0.102647	0.167303	-0.242920	0.685303	0.346191	0.481848	-0.752022	-0.288573	-0.344981
41913		7.905785	-4.990473	-2.985787	-0.037407	0.103498	0.173936	-0.239990	0.687988	0.352295	0.482432	-0.752264	-0.287060	-0.344899
41914		7.882328	-4.980301	-2.916846	-0.058713	0.126080	0.175645	-0.242676	0.687256	0.346436	0.482914	-0.752558	-0.285332	-0.345016
41915		7.857198	-4.998433	-2.787722	-0.058136	0.134038	0.182486	-0.234375	0.680176	0.350830	0.483463	-0.752803	-0.283598	-0.345143
41916		7.849108	-5.035029	-2.832694	-0.042853	0.134623	0.173776	-0.232178	0.687500	0.339844	0.484033	-0.753018	-0.281854	-0.345303
41917		7.864955	-5.121763	-2.914164	-0.022717	0.131594	0.167626	-0.236084	0.686279	0.343506	0.484802	-0.753074	-0.280350	-0.345327
41918		7.926454	-5.061333	-2.805744	-0.027991	0.135456	0.173889	-0.241943	0.685059	0.344238	0.485522	-0.753165	-0.278751	-0.345412
41919		7.851448	-5.046672	-2.812044	-0.022348	0.131153	0.180350	-0.225342	0.686523	0.344482	0.486259	-0.753249	-0.277152	-0.345477
41920		7.831093	-5.161312	-2.731648	-0.020450	0.137807	0.189576	-0.229248	0.684082	0.343506	0.487074	-0.753365	-0.275416	-0.345466
41921		7.829327	-5.175615	-2.666936	-0.033336	0.139217	0.201616	-0.224609	0.687256	0.349854	0.487823	-0.753545	-0.273568	-0.345484
41922		7.858727	-5.223425	-2.732449	-0.039659	0.153424	0.206473	-0.230469	0.682861	0.341553	0.488552	-0.753754	-0.271552	-0.345589
41923		7.901283	-5.281391	-2.639853	-0.051719	0.167207	0.227811	-0.227783	0.695557	0.335449	0.489309	-0.753968	-0.269386	-0.345745
41924		7.812475	-5.358853	-2.509365	-0.057499	0.214861	0.257907	-0.225586	0.697021	0.347412	0.490328	-0.754065	-0.266960	-0.345973
41925		7.895819	-5.359431	-2.446980	-0.060896	0.243351	0.294627	-0.216553	0.696533	0.334473	0.491414	-0.754234	-0.264056	-0.346291
41926		7.817003	-5.384070	-2.445320	-0.066412	0.285754	0.332767	-0.206299	0.696045	0.331299	0.492758	-0.754330	-0.260824	-0.346622
41927		7.793658	-5.343476	-2.585472	-0.087398	0.313455	0.358889	-0.217529	0.700195	0.334473	0.494130	-0.754485	-0.257255	-0.346998
41928		7.809086	-5.237375	-2.586304	-0.090269	0.315946	0.359207	-0.205078	0.698242	0.339111	0.495445	-0.754612	-0.253684	-0.347477
41929		7.748644	-5.185134	-2.660750	-0.126977	0.318267	0.323551	-0.202881	0.703857	0.344727	0.496406	-0.754850	-0.250144	-0.348153
41930		7.588536	-5.272008	-2.853031	-0.149558	0.295568	0.272529	-0.200439	0.703857	0.334229	0.497029	-0.755137	-0.246967	-0.348909
41931		7.448978	-5.674893	-3.107696	-0.119084	0.245454	0.211109	-0.198486	0.705566	0.341797	0.497629	-0.755257	-0.244573	-0.349480
41932		7.352557	-5.861351	-3.315793	-0.016456	0.153179	0.165886	-0.202637	0.708984	0.331543	0.498531	-0.755149	-0.243122	-0.349441
41933		7.429802	-5.690691	-3.068013	0.102212	0.051530	0.132913	-0.197021	0.703857	0.338623	0.499931	-0.754710	-0.242750	-0.348646
41934		7.501999	-5.559057	-2.753383	0.139954	0.012605	0.107217	-0.196289	0.701904	0.327881	0.501336	-0.754244	-0.242692	-0.347677
41935		7.633591	-5.494602	-2.592886	0.124301	0.004543	0.092752	-0.193359	0.705322	0.324219	0.502594	-0.753815	-0.242718	-0.346771
41936		7.738022	-5.375491	-2.500490	0.111425	0.010613	0.080500	-0.188477	0.707031	0.330078	0.503784	-0.753377	-0.242813	-0.345928
41937		7.849297	-5.280221	-2.458070	0.065345	0.024365	0.087629	-0.194824	0.712158	0.329346	0.504723	-0.753133	-0.242669	-0.345192
41938		7.769591	-5.374237	-2.571742	0.003258	0.059986	0.095344	-0.184814	0.711914	0.327637	0.505359	-0.753038	-0.242173	-0.344817
41939		7.792352	-5.443384	-2.565070	-0.001779	0.072213	0.087368	-0.191650	0.699951	0.322998	0.506012	-0.752912	-0.241718	-0.344453
41940		7.497225	-5.681111	-2.698793	-0.013876	0.078078	0.077952	-0.191895	0.702881	0.327148	0.506411	-0.752867	-0.240991	-0.344473
41941		7.270732	-5.974308	-2.912080	0.010534	0.032581	0.063274	-0.197754	0.708252	0.321045	0.506831	-0.752820	-0.240642	-0.344203
41942		7.222973	-6.106407	-2.869164	0.093394	-0.028433	0.050427	-0.184326	0.718018	0.327393	0.507635	-0.752530	-0.240919	-0.343459
41943		7.418023	-5.865046	-2.667887	0.168138	-0.060782	0.034343	-0.191162	0.712646	0.317139	0.508924	-0.751950	-0.241868	-0.342149
41944		7.504330	-5.612927	-2.427162	0.156249	-0.063076	0.005984	-0.184570	0.715088	0.322510	0.509961	-0.751391	-0.242810	-0.341168
41945		7.569834	-5.539130	-2.595430	0.107511	-0.062855	-0.016768	-0.183350	0.714844	0.321777	0.510649	-0.750999	-0.243804	-0.340290
41946		7.541393	-5.651068	-2.717573	0.086658	-0.080006	-0.041655	-0.189941	0.706543	0.324219	0.511087	-0.750702	-0.244950	-0.339464
41947		7.561598	-5.653470	-2.791089	0.145298	-0.119744	-0.059023	-0.189453	0.706543	0.316162	0.511620	-0.750301	-0.246305	-0.338567
41948		7.734112	-5.564998	-2.592031	0.181536	-0.158302	-0.085677	-0.190918	0.709229	0.314453	0.512238	-0.749782	-0.248104	-0.337466
41949		7.680350	-5.462036	-2.485937	0.150809	-0.151870	-0.113029	-0.187256	0.709473	0.311279	0.512606	-0.749307	-0.249982	-0.336575
41950		7.687522	-5.632371	-2.605066	0.111074	-0.151666	-0.122021	-0.195801	0.713623	0.313232	0.512725	-0.748972	-0.251837	-0.335756
41951		7.625567	-5.805544	-2.582999	0.113601	-0.155108	-0.115268	-0.186523	0.709229	0.313232	0.512847	-0.748640	-0.253662	-0.334934
41952		7.636816	-5.780057	-2.307033	0.120952	-0.146625	-0.096165	-0.187500	0.717285	0.308350	0.513093	-0.748314	-0.255341	-0.334011
41953		7.604701	-5.821772	-2.078781	0.081342	-0.106358	-0.064724	-0.197021	0.714600	0.308105	0.513332	-0.748058	-0.256663	-0.333202
41954		7.591931	-5.822997	-2.167807	0.012552	-0.046676	-0.035499	-0.187012	0.715576	0.310547	0.513273	-0.748018	-0.257244	-0.332936
41955		7.450523	-5.736932	-2.193035	-0.035730	0.002931	-0.002776	-0.192627	0.710938	0.312744	0.513159	-0.748113	-0.257339	-0.332823
41956		7.427980	-5.883523	-2.309390	-0.076433	0.036188	0.007365	-0.193115	0.717773	0.312744	0.512818	-0.748346	-0.257000	-0.333087
41957		7.271626	-6.020587	-2.458367	-0.080756	0.048484	-0.002008	-0.188965	0.718262	0.312744	0.512507	-0.748503	-0.256761	-0.333397
41958		7.334521	-6.009402	-2.470634	-0.029685	0.026529	-0.013278	-0.187256	0.715820	0.312988	0.512464	-0.748472	-0.256865	-0.333453
41959		7.509716	-5.961607	-2.479718	0.017622	0.007779	-0.023460	-0.187256	0.703857	0.310303	0.512638	-0.748281	-0.257216	-0.333343
41960		7.535793	-5.825830	-2.543465	0.037118	-0.001871	-0.035434	-0.200684	0.707520	0.316650	0.512790	-0.748066	-0.257566	-0.333322
41961		7.577477	-5.597936	-2.462355	0.049726	-0.009384	-0.052155	-0.183838	0.708252	0.306152	0.512897	-0.747789	-0.258038	-0.333414
41962		7.668515	-5.436983	-2.401336	0.028833	-0.007334	-0.068918	-0.189209	0.713379	0.313721	0.512961	-0.747517	-0.258701	-0.333412
41963		7.794684	-5.394001	-2.365520	-0.024039	0.009582	-0.087502	-0.197754	0.711914	0.307861	0.512663	-0.747386	-0.259260	-0.333729
41964		7.863483	-5.387164	-2.392900	-0.070379	0.025905	-0.093247	-0.201416	0.707764	0.306885	0.512076	-0.747380	-0.259648	-0.334342
41965		7.717210	-5.396237	-2.455268	-0.115618	0.031100	-0.098855	-0.206787	0.704102	0.307129	0.511171	-0.747550	-0.259877	-0.335166
41966		7.609934	-5.619853	-2.594871	-0.125377	0.018123	-0.112179	-0.191162	0.708008	0.319580	0.510108	-0.747776	-0.260180	-0.336047
41967		7.626166	-5.679708	-2.640751	-0.084356	-0.011087	-0.130574	-0.196777	0.709717	0.313965	0.509245	-0.747891	-0.260869	-0.336564
41968		7.674336	-5.534552	-2.645842	-0.049394	-0.026651	-0.151047	-0.207764	0.707275	0.318359	0.508538	-0.747817	-0.261924	-0.336980
41969		7.591810	-5.462647	-2.553965	-0.039223	-0.043083	-0.160593	-0.214111	0.701416	0.322510	0.507760	-0.747742	-0.263059	-0.337433
41970		7.570396	-5.534710	-2.538790	-0.042115	-0.051563	-0.166853	-0.204102	0.706787	0.315918	0.506854	-0.747723	-0.264158	-0.337978
41971		7.698113	-5.665504	-2.632568	-0.057190	-0.060049	-0.160110	-0.211670	0.705811	0.318359	0.505982	-0.747754	-0.265372	-0.338267
41972		7.721328	-5.748417	-2.731198	-0.045391	-0.079530	-0.156359	-0.205322	0.704834	0.316650	0.505117	-0.747798	-0.266653	-0.338454
41973		7.650704	-5.650104	-2.599605	-0.009460	-0.090103	-0.142704	-0.203613	0.700195	0.322510	0.504530	-0.747747	-0.268021	-0.338362
41974		7.711226	-5.490203	-2.387248	0.010251	-0.102032	-0.132304	-0.210693	0.705322	0.321289	0.504017	-0.747717	-0.269324	-0.338159
41975		7.888242	-5.338196	-2.349745	-0.014828	-0.090421	-0.127325	-0.218750	0.711426	0.320801	0.503411	-0.747730	-0.270554	-0.338051
41976		7.812840	-5.292294	-2.494046	-0.043259	-0.052991	-0.126236	-0.214355	0.707520	0.319580	0.502740	-0.747715	-0.271626	-0.338222
41977		7.928365	-5.380387	-2.603639	-0.062600	-0.027814	-0.133043	-0.215088	0.700684	0.326904	0.501993	-0.747706	-0.272560	-0.338599
41978		7.697714	-5.450465	-2.889036	-0.099241	-0.021445	-0.128549	-0.214844	0.695801	0.320801	0.500962	-0.747905	-0.273189	-0.339180
41979		7.416626	-5.532084	-2.895667	-0.095195	-0.043333	-0.130839	-0.220947	0.702148	0.327881	0.499922	-0.748124	-0.273967	-0.339604
41980		7.435335	-5.668059	-2.897877	-0.062052	-0.084553	-0.147280	-0.219238	0.705566	0.330078	0.498945	-0.748273	-0.275138	-0.339765
41981		7.553182	-5.683921	-3.055248	-0.016101	-0.123874	-0.176372	-0.224121	0.689941	0.333496	0.498113	-0.748266	-0.276817	-0.339639
41982		7.654609	-5.577362	-3.024647	0.046379	-0.157253	-0.203025	-0.222168	0.697266	0.325195	0.497377	-0.748109	-0.278766	-0.339469
41983		7.593875	-5.318323	-2.910706	0.090490	-0.187466	-0.216768	-0.234619	0.696777	0.335449	0.496929	-0.747739	-0.281244	-0.338895
41984		7.616357	-5.152550	-2.837682	0.099149	-0.224205	-0.221006	-0.230713	0.687256	0.321045	0.496323	-0.747465	-0.283808	-0.338249
41985		7.774234	-5.135567	-2.926858	0.084463	-0.238850	-0.244412	-0.239746	0.694580	0.332764	0.495579	-0.747192	-0.286618	-0.337573
41986		7.881764	-5.046837	-2.998384	0.056504	-0.233828	-0.275010	-0.234619	0.692627	0.324707	0.494525	-0.746966	-0.289461	-0.337192
41987		7.885623	-5.029626	-2.931101	0.041527	-0.219501	-0.287404	-0.240723	0.689209	0.329834	0.493451	-0.746690	-0.292368	-0.336871
41988		7.968501	-4.986603	-2.978658	0.047683	-0.213697	-0.293321	-0.237305	0.690430	0.332031	0.492342	-0.746383	-0.295221	-0.336683
41989		7.925030	-4.624048	-3.135543	0.040928	-0.231645	-0.290421	-0.239990	0.688477	0.327393	0.491162	-0.746177	-0.298076	-0.336349
41990		7.990385	-4.334055	-3.204731	0.022137	-0.259826	-0.311255	-0.245117	0.686523	0.337646	0.489768	-0.746028	-0.301201	-0.335926
41991		8.041012	-4.058358	-3.123175	-0.023302	-0.275309	-0.349867	-0.251709	0.687500	0.337158	0.487843	-0.746071	-0.304351	-0.335795
41992		8.118690	-3.992694	-3.012361	-0.073179	-0.287157	-0.405593	-0.251465	0.679199	0.344971	0.485440	-0.746154	-0.307842	-0.335910
41993		8.116975	-4.208538	-3.081404	-0.106889	-0.297697	-0.457342	-0.251465	0.679443	0.337158	0.482560	-0.746341	-0.311421	-0.336345
41994		8.044014	-4.733065	-3.154678	-0.058540	-0.294479	-0.474434	-0.264893	0.676270	0.340820	0.480055	-0.746174	-0.315420	-0.336573
41995		7.940553	-5.239257	-2.964063	0.046844	-0.307979	-0.448620	-0.260986	0.674316	0.342529	0.478201	-0.745646	-0.319656	-0.336387
41996		7.899071	-5.624181	-2.752930	0.122014	-0.302079	-0.381722	-0.267334	0.668945	0.341309	0.477002	-0.745013	-0.323566	-0.335753
41997		8.013923	-5.526612	-2.493135	0.123034	-0.261148	-0.307596	-0.267334	0.664795	0.346680	0.476110	-0.744428	-0.326894	-0.335092
41998		8.239320	-5.241044	-2.430554	0.055600	-0.164600	-0.241535	-0.270020	0.668945	0.348145	0.475167	-0.744092	-0.329081	-0.335036
41999		8.218493	-5.188881	-2.666543	-0.061615	-0.068403	-0.182957	-0.274170	0.672119	0.353027	0.473937	-0.744101	-0.330211	-0.335645
42000		8.050237	-5.342003	-2.945463	-0.097603	-0.024347	-0.138979	-0.272217	0.665771	0.346436	0.472705	-0.744264	-0.330762	-0.336480
42001		7.818765	-5.413553	-3.194131	-0.058369	-0.043957	-0.116474	-0.277100	0.674316	0.350342	0.471801	-0.744324	-0.331491	-0.336896
42002		7.720144	-5.283000	-3.340602	0.025877	-0.078773	-0.107961	-0.273193	0.676758	0.351562	0.471350	-0.744169	-0.332543	-0.336833
42003		7.703588	-5.049539	-3.430847	0.094041	-0.118960	-0.119738	-0.281006	0.673828	0.344482	0.471170	-0.743871	-0.333926	-0.336377
42004		7.687536	-4.799082	-3.571556	0.132665	-0.156451	-0.137203	-0.269043	0.666504	0.349609	0.471155	-0.743342	-0.335941	-0.335559
42005		7.867790	-4.624137	-3.571063	0.185463	-0.188306	-0.164070	-0.282227	0.661133	0.355713	0.471188	-0.742794	-0.338042	-0.334616
42006		7.942458	-4.379128	-3.404919	0.196931	-0.189287	-0.180701	-0.283203	0.677979	0.344727	0.471148	-0.742143	-0.340308	-0.333817
42007		8.028105	-4.381702	-3.456935	0.174775	-0.175715	-0.189564	-0.286377	0.675293	0.335693	0.471160	-0.741380	-0.342761	-0.332986
42008		8.046548	-4.488997	-3.653652	0.176151	-0.166127	-0.199517	-0.281006	0.665283	0.347900	0.471275	-0.740433	-0.345471	-0.332126
42009		8.004263	-4.588901	-3.781795	0.201971	-0.156786	-0.199321	-0.291504	0.674561	0.345703	0.471360	-0.739594	-0.347752	-0.331496
42010		8.230500	-4.374683	-3.495168	0.256748	-0.153731	-0.194480	-0.291748	0.667480	0.346680	0.471853	-0.738449	-0.350313	-0.330650
42011		8.396917	-4.118207	-3.177338	0.272743	-0.135634	-0.185168	-0.287109	0.666504	0.346680	0.472467	-0.737259	-0.352705	-0.329883
42012		8.456955	-3.949916	-3.069486	0.216345	-0.087013	-0.173938	-0.290527	0.664795	0.334717	0.472880	-0.736257	-0.354544	-0.329559
42013		8.404160	-4.020858	-3.020451	0.144883	-0.050124	-0.159824	-0.291992	0.669434	0.328857	0.473142	-0.735316	-0.356256	-0.329437
42014		8.332691	-4.129978	-3.208356	0.082706	-0.032897	-0.137951	-0.298340	0.657471	0.330322	0.473195	-0.734592	-0.357668	-0.329446
42015		8.160047	-4.166175	-3.250258	0.035826	-0.021755	-0.114931	-0.292480	0.673340	0.328613	0.473017	-0.734085	-0.358785	-0.329617
42016		8.213734	-4.304893	-3.327212	-0.005715	-0.002160	-0.101916	-0.297363	0.663086	0.335449	0.472712	-0.733779	-0.359509	-0.329947
42017		8.216790	-4.327861	-3.378380	-0.031883	0.025201	-0.096400	-0.294922	0.668457	0.328125	0.472265	-0.733564	-0.359940	-0.330594
42018		8.122660	-4.402538	-3.498583	-0.028946	0.034489	-0.084396	-0.304932	0.668701	0.329102	0.471984	-0.733294	-0.360361	-0.331137
42019		8.068624	-4.543502	-3.592311	-0.018540	0.022661	-0.068436	-0.292480	0.672852	0.337158	0.471773	-0.733028	-0.360826	-0.331520
42020		8.175650	-4.478546	-3.432397	-0.010053	0.015408	-0.044270	-0.300537	0.668945	0.332764	0.471590	-0.732967	-0.360918	-0.331813
42021		8.183062	-4.355304	-3.266888	-0.044152	0.030916	-0.021517	-0.310059	0.669434	0.343506	0.471349	-0.732983	-0.360874	-0.332168
42022		8.180439	-4.420479	-3.109793	-0.086527	0.053407	-0.007410	-0.297852	0.667480	0.333252	0.470884	-0.733187	-0.360465	-0.332820
42023		8.178658	-4.581323	-3.080541	-0.089565	0.045165	0.002864	-0.299805	0.661133	0.339355	0.470488	-0.733424	-0.360070	-0.333286
42024		8.073243	-4.624626	-3.250190	-0.080040	0.039505	0.005204	-0.297119	0.666504	0.337646	0.470095	-0.733678	-0.359656	-0.333729
42025		7.955111	-4.586316	-3.340847	-0.064978	0.028226	-0.004365	-0.300781	0.662109	0.342773	0.469762	-0.733866	-0.359397	-0.334064
42026		7.912483	-4.667543	-3.496761	-0.025934	0.012645	-0.013272	-0.299805	0.662109	0.339600	0.469566	-0.733931	-0.359342	-0.334255
42027		8.068879	-4.594704	-3.614351	0.032214	-0.009202	-0.013027	-0.300537	0.673584	0.334229	0.469688	-0.733808	-0.359573	-0.334105
42028		8.103927	-4.297794	-3.693686	0.055640	-0.016300	-0.005635	-0.303711	0.675293	0.334717	0.470002	-0.733600	-0.359904	-0.333764
42029		8.174111	-4.103628	-3.519330	0.039789	-0.004815	-0.007179	-0.309326	0.666016	0.343262	0.470244	-0.733412	-0.360166	-0.333553
42030		8.105074	-4.025627	-3.405854	-0.002415	0.017245	-0.006805	-0.299561	0.663086	0.342285	0.470229	-0.733367	-0.360167	-0.333672
42031		8.225496	-4.252556	-3.376729	-0.024335	0.029300	-0.011253	-0.301514	0.666992	0.338867	0.470105	-0.733390	-0.360035	-0.333938
42032		8.182250	-4.384558	-3.443195	-0.018598	0.031662	-0.014711	-0.300781	0.665039	0.338135	0.470045	-0.733342	-0.359982	-0.334185
42033		8.069777	-4.502712	-3.389242	0.005475	0.027478	-0.010889	-0.302246	0.665283	0.331055	0.470134	-0.733221	-0.359995	-0.334313
42034		8.066490	-4.556823	-3.386728	0.027935	0.017109	-0.009274	-0.299316	0.662354	0.338623	0.470375	-0.732999	-0.360178	-0.334262
42035		8.102356	-4.436541	-3.360895	0.043661	0.009961	0.002942	-0.296143	0.669678	0.333252	0.470671	-0.732833	-0.360257	-0.334124
42036		8.239490	-4.437127	-3.244992	0.066671	-0.007555	0.003415	-0.300537	0.664062	0.330078	0.471095	-0.732608	-0.360491	-0.333769
42037		8.358921	-4.346295	-3.123722	0.084982	-0.010865	-0.000864	-0.303711	0.656494	0.338379	0.471614	-0.732277	-0.360870	-0.333351
42038		8.252095	-4.316463	-3.130758	0.084404	-0.002082	0.001814	-0.297119	0.665527	0.340820	0.472098	-0.731978	-0.361128	-0.333044
42039		8.208452	-4.324318	-3.122679	0.071367	0.008589	0.000047	-0.299805	0.658936	0.342529	0.472525	-0.731732	-0.361247	-0.332850
42040		8.228089	-4.369117	-3.100051	0.053577	0.016304	-0.000876	-0.292969	0.670166	0.336914	0.472844	-0.731534	-0.361296	-0.332779
42041		8.219504	-4.384377	-3.205963	0.044800	0.012914	0.009622	-0.305908	0.666260	0.331055	0.473172	-0.731404	-0.361266	-0.332630
42042		8.243659	-4.343681	-3.219922	0.039163	0.008559	0.023947	-0.296875	0.670654	0.336426	0.473523	-0.731272	-0.361293	-0.332392
42043		8.238338	-4.256165	-3.133744	0.001761	0.023261	0.038105	-0.302490	0.663330	0.334229	0.473699	-0.731355	-0.360955	-0.332326
42044		8.239833	-4.145658	-3.182667	-0.051339	0.036880	0.047084	-0.297607	0.662598	0.337891	0.473622	-0.731601	-0.360431	-0.332462
42045		8.192147	-4.206284	-3.351844	-0.102313	0.065485	0.052205	-0.298828	0.667480	0.336426	0.473315	-0.732018	-0.359564	-0.332921
42046		8.160516	-4.374427	-3.476990	-0.126978	0.066407	0.064325	-0.297852	0.664307	0.336182	0.472914	-0.732545	-0.358577	-0.333395
42047		8.249949	-4.414269	-3.478392	-0.110500	0.059585	0.081676	-0.306396	0.666748	0.333496	0.472646	-0.733071	-0.357570	-0.333702
42048		8.240245	-4.250743	-3.325088	-0.117553	0.074104	0.096653	-0.299805	0.665527	0.342773	0.472446	-0.733575	-0.356482	-0.334041
42049		8.142332	-4.256286	-3.265760	-0.158834	0.100520	0.098925	-0.295654	0.656494	0.338379	0.472026	-0.734243	-0.355044	-0.334698
42050		8.129656	-4.496308	-3.251363	-0.182713	0.113819	0.102881	-0.294189	0.665527	0.341064	0.471529	-0.734955	-0.353503	-0.335466
42051		8.142687	-4.706773	-3.378339	-0.178184	0.100078	0.116261	-0.288574	0.667480	0.340820	0.471063	-0.735734	-0.351919	-0.336078
42052		8.037947	-4.671425	-3.367875	-0.172027	0.095228	0.129542	-0.282471	0.666016	0.348389	0.470668	-0.736545	-0.350274	-0.336574
42053		7.984528	-4.592845	-3.326382	-0.182831	0.105035	0.135284	-0.286865	0.660400	0.347168	0.470212	-0.737434	-0.348440	-0.337167
42054		7.976636	-4.541145	-3.314126	-0.208503	0.115330	0.136988	-0.285889	0.670410	0.341553	0.469641	-0.738360	-0.346550	-0.337884
42055		8.034495	-4.680924	-3.322607	-0.215501	0.102367	0.137854	-0.285645	0.663574	0.355713	0.469047	-0.739308	-0.344739	-0.338488
42056		8.096179	-4.831078	-3.323600	-0.190877	0.079989	0.144734	-0.288574	0.669922	0.356445	0.468478	-0.740304	-0.342943	-0.338924
42057		8.147935	-4.805054	-3.198236	-0.161938	0.067655	0.152046	-0.286621	0.663818	0.348633	0.468088	-0.741218	-0.341259	-0.339162
42058		8.108496	-4.634150	-3.033685	-0.152920	0.078842	0.150366	-0.278564	0.664551	0.355713	0.467826	-0.742008	-0.339657	-0.339406
42059		8.065288	-4.593127	-2.986165	-0.154458	0.083729	0.138909	-0.273682	0.656738	0.358643	0.467500	-0.742810	-0.338002	-0.339752
42060		8.088202	-4.632557	-3.075501	-0.159496	0.074054	0.127310	-0.281738	0.660400	0.352539	0.467058	-0.743646	-0.336411	-0.340110
42061		8.074673	-4.741606	-3.213984	-0.157684	0.056413	0.124470	-0.274414	0.664062	0.364502	0.466625	-0.744437	-0.335039	-0.340327
42062		7.969725	-4.858226	-3.244941	-0.147984	0.053040	0.128572	-0.272949	0.670166	0.365967	0.466192	-0.745293	-0.333535	-0.340526
42063		7.973420	-4.824310	-3.323115	-0.148841	0.064025	0.140835	-0.270020	0.663086	0.359863	0.465826	-0.746154	-0.331897	-0.340743
42064		7.986963	-4.810993	-3.424894	-0.164859	0.072085	0.160598	-0.272217	0.667236	0.356689	0.465472	-0.747067	-0.330129	-0.340941
42065		7.965278	-4.775926	-3.462771	-0.168869	0.075387	0.180013	-0.272461	0.657227	0.368408	0.465193	-0.747997	-0.328281	-0.341068
42066		7.971455	-4.560749	-3.359675	-0.146850	0.062111	0.189387	-0.268799	0.660645	0.360840	0.464962	-0.748952	-0.326415	-0.341079
42067		7.976080	-4.395199	-3.235087	-0.140695	0.070750	0.169162	-0.257080	0.667480	0.370850	0.464794	-0.749756	-0.324730	-0.341151
42068		7.965885	-4.349161	-3.352398	-0.153196	0.087549	0.142183	-0.267090	0.660400	0.365234	0.464463	-0.750575	-0.322942	-0.341496
42069		7.982553	-4.439898	-3.488149	-0.143655	0.097544	0.118072	-0.260986	0.662109	0.375488	0.464189	-0.751176	-0.321455	-0.341950
42070		7.940977	-4.472636	-3.491023	-0.111461	0.073394	0.102374	-0.271973	0.660156	0.381348	0.463946	-0.751752	-0.320115	-0.342270
42071		7.908606	-4.676142	-3.471893	-0.079737	0.050343	0.090307	-0.265625	0.659180	0.375488	0.463778	-0.752219	-0.319069	-0.342448
42072		7.802956	-4.701485	-3.368607	-0.061543	0.039636	0.079531	-0.255371	0.665283	0.383545	0.463703	-0.752600	-0.318212	-0.342510
42073		7.805072	-4.748077	-3.300239	-0.046695	0.032416	0.074206	-0.266846	0.668213	0.379639	0.463634	-0.753019	-0.317286	-0.342543
42074		7.942757	-4.755885	-3.353658	-0.023746	0.023386	0.060231	-0.259521	0.665771	0.378174	0.463689	-0.753259	-0.316688	-0.342495
42075		7.948712	-4.752351	-3.391058	-0.002526	0.016260	0.054864	-0.259521	0.663574	0.373047	0.463844	-0.753440	-0.316180	-0.342354
42076		7.959733	-4.746162	-3.271929	0.027645	-0.003623	0.047470	-0.256104	0.668701	0.368164	0.464151	-0.753503	-0.315956	-0.342007
42077		7.996289	-4.578018	-3.224104	0.042998	-0.005554	0.044784	-0.262695	0.667969	0.378174	0.464574	-0.753493	-0.315814	-0.341586
42078		7.934693	-4.600956	-3.250780	0.022196	0.006893	0.040175	-0.256104	0.667236	0.383545	0.464820	-0.753545	-0.315543	-0.341386
42079		8.006248	-4.634712	-3.248410	0.015910	0.014408	0.033207	-0.258057	0.663330	0.371094	0.464977	-0.753646	-0.315152	-0.341311
42080		8.012479	-4.541869	-3.239824	0.003709	0.016384	0.032729	-0.257324	0.664551	0.377441	0.465151	-0.753691	-0.314904	-0.341202
42081		8.056272	-4.589489	-3.150235	-0.015091	0.023414	0.026669	-0.257324	0.669189	0.380371	0.465161	-0.753818	-0.314529	-0.341255
42082		7.974570	-4.689983	-3.226784	-0.038563	0.042724	0.026299	-0.251465	0.667725	0.374512	0.465055	-0.754002	-0.313965	-0.341512
42083		7.858688	-4.765934	-3.283892	-0.037092	0.033570	0.023801	-0.250000	0.664062	0.372803	0.464963	-0.754186	-0.313481	-0.341677
42084		7.879562	-4.865225	-3.258880	-0.003784	0.016828	0.019600	-0.248779	0.664551	0.377930	0.465036	-0.754264	-0.313211	-0.341651
42085		7.933002	-4.871344	-3.266189	-0.005113	0.027213	0.018255	-0.257812	0.669678	0.373291	0.465083	-0.754355	-0.312830	-0.341737
42086		7.912176	-4.791895	-3.169085	-0.003195	0.029695	0.018444	-0.251953	0.664307	0.369873	0.465202	-0.754358	-0.312576	-0.341800
42087		7.878142	-4.798538	-3.220018	-0.005595	0.018762	0.012415	-0.257324	0.666748	0.387695	0.465275	-0.754385	-0.312404	-0.341799
42088		7.861071	-4.922294	-3.155591	-0.006901	0.024412	0.003137	-0.251709	0.662598	0.370361	0.465200	-0.754472	-0.312084	-0.342001
42089		7.784510	-4.926222	-3.294973	-0.004940	0.019000	-0.007791	-0.252930	0.662842	0.366455	0.465218	-0.754442	-0.312044	-0.342079
42090		7.723370	-4.958829	-3.405885	0.019907	0.000079	-0.019353	-0.248535	0.671387	0.385254	0.465343	-0.754306	-0.312285	-0.341989
42091		7.745049	-5.010857	-3.424822	0.059339	-0.033318	-0.033288	-0.253418	0.668701	0.382568	0.465431	-0.754247	-0.312517	-0.341787
42092		7.775854	-5.054695	-3.350632	0.104806	-0.052067	-0.043254	-0.252441	0.674561	0.376465	0.465753	-0.753992	-0.313107	-0.341371
42093		7.853107	-4.961480	-3.293611	0.140300	-0.065494	-0.053318	-0.257324	0.666748	0.383057	0.466271	-0.753589	-0.313939	-0.340788
42094		7.889292	-4.775525	-3.387251	0.152061	-0.070036	-0.057662	-0.258057	0.670898	0.367920	0.466791	-0.753149	-0.314855	-0.340204
42095		7.938490	-4.770804	-3.404000	0.137834	-0.061082	-0.048768	-0.262451	0.665039	0.373291	0.467384	-0.752663	-0.315816	-0.339573
42096		7.957910	-4.767546	-3.362558	0.133281	-0.064689	-0.036753	-0.259033	0.665283	0.375977	0.467933	-0.752242	-0.316708	-0.338921
42097		7.968161	-4.834107	-3.340462	0.118904	-0.048953	-0.019306	-0.262451	0.665527	0.366455	0.468442	-0.751926	-0.317294	-0.338371
42098		8.014876	-4.788663	-3.269248	0.110404	-0.040020	-0.006099	-0.247314	0.666260	0.370117	0.469038	-0.751565	-0.317904	-0.337772
42099		8.059619	-4.685910	-3.227406	0.110049	-0.036116	0.004811	-0.261475	0.671875	0.373291	0.469598	-0.751349	-0.318181	-0.337213
42100		8.094027	-4.549155	-3.190612	0.078688	-0.015257	0.007449	-0.257568	0.670166	0.363770	0.470024	-0.751155	-0.318361	-0.336882
42101		8.119948	-4.420667	-3.158623	0.058443	-0.002280	0.000591	-0.259033	0.676025	0.366211	0.470403	-0.750938	-0.318571	-0.336640
42102		8.057416	-4.473510	-3.236865	0.023406	0.014821	-0.004169	-0.255127	0.672363	0.368652	0.470570	-0.750822	-0.318587	-0.336649
42103		7.982694	-4.582745	-3.300522	-0.003974	0.021573	-0.010653	-0.252197	0.667480	0.358398	0.470536	-0.750813	-0.318478	-0.336820
42104		7.942487	-4.669734	-3.297532	-0.007955	0.013764	-0.011829	-0.254395	0.670654	0.366211	0.470534	-0.750768	-0.318537	-0.336867
42105		7.907625	-4.795761	-3.314660	-0.009153	0.011473	-0.010057	-0.257812	0.672119	0.358887	0.470461	-0.750793	-0.318483	-0.336965
42106		7.872528	-4.906813	-3.273839	-0.007338	0.006382	-0.009153	-0.255127	0.668213	0.360596	0.470457	-0.750754	-0.318588	-0.336958
42107		7.922970	-4.898889	-3.204614	0.000308	0.016337	-0.008516	-0.255371	0.670654	0.368164	0.470509	-0.750682	-0.318633	-0.337005
42108		7.911279	-4.956909	-3.186608	0.019503	0.012973	-0.010805	-0.251709	0.671387	0.363525	0.470602	-0.750599	-0.318637	-0.337055
42109		7.844311	-4.968596	-3.246237	0.032932	0.005316	-0.013585	-0.258789	0.665527	0.357910	0.470780	-0.750466	-0.318745	-0.336999
42110		7.872357	-4.865669	-3.244454	0.036907	-0.003980	-0.011600	-0.262207	0.678711	0.364746	0.471022	-0.750258	-0.319075	-0.336812
42111		7.931592	-4.864582	-3.228127	0.027083	-0.004933	-0.008597	-0.263184	0.671143	0.359619	0.471157	-0.750156	-0.319232	-0.336701
42112		7.972127	-4.882640	-3.133359	0.012720	0.010873	-0.000783	-0.261230	0.668701	0.356201	0.471305	-0.750033	-0.319353	-0.336653
42113		7.973559	-4.928187	-3.173407	0.022162	0.018943	0.003898	-0.258301	0.670410	0.359131	0.471568	-0.749849	-0.319469	-0.336587
42114		7.973168	-4.917380	-3.241474	0.040131	0.022928	0.015978	-0.256836	0.667236	0.357666	0.471953	-0.749660	-0.319453	-0.336481
42115		8.015490	-4.847048	-3.118497	0.045424	0.028393	0.029640	-0.253906	0.677979	0.358398	0.472426	-0.749470	-0.319352	-0.336337
42116		7.965829	-4.889615	-3.120360	0.025045	0.037586	0.051003	-0.251953	0.666504	0.363037	0.472850	-0.749424	-0.318953	-0.336221
42117		7.977046	-4.884334	-3.172771	-0.000234	0.043931	0.073087	-0.256592	0.678223	0.358643	0.473135	-0.749560	-0.318250	-0.336185
42118		7.972235	-4.849867	-3.079567	-0.029685	0.063143	0.098597	-0.262207	0.671875	0.357666	0.473417	-0.749768	-0.317326	-0.336197
42119		8.020503	-4.821375	-3.039546	-0.051480	0.082632	0.112191	-0.258057	0.671387	0.359375	0.473662	-0.749995	-0.316274	-0.336336
42120		8.045569	-4.848111	-3.061051	-0.066294	0.102232	0.115102	-0.253418	0.684326	0.355225	0.473854	-0.750265	-0.315023	-0.336640
42121		7.954449	-4.877510	-3.198342	-0.072656	0.119220	0.117541	-0.261475	0.674561	0.362305	0.474110	-0.750505	-0.313688	-0.336991
42122		7.917577	-4.924918	-3.271264	-0.064973	0.114780	0.119959	-0.250732	0.673584	0.350098	0.474342	-0.750739	-0.312362	-0.337374
42123		7.837560	-5.134327	-3.284072	-0.035088	0.105664	0.120894	-0.245850	0.674316	0.356201	0.474837	-0.750833	-0.311255	-0.337490
42124		7.724959	-5.300395	-3.105751	-0.005608	0.103610	0.129561	-0.249512	0.677246	0.354736	0.475473	-0.750912	-0.310042	-0.337537
42125		7.801422	-5.248904	-3.131819	0.007194	0.093727	0.133781	-0.251953	0.679443	0.357422	0.476194	-0.750944	-0.308938	-0.337461
42126		7.867221	-5.164645	-3.118583	0.026481	0.088231	0.137339	-0.241943	0.677734	0.351807	0.477010	-0.750930	-0.307867	-0.337319
42127		7.892416	-5.150455	-3.021032	0.033675	0.092447	0.155432	-0.244141	0.680420	0.353027	0.477961	-0.750927	-0.306685	-0.337056
42128		7.859245	-5.228458	-3.068569	0.020310	0.112186	0.185347	-0.245850	0.677734	0.348633	0.478951	-0.750994	-0.305198	-0.336850
42129		7.798036	-5.274752	-3.002705	0.017925	0.131869	0.220174	-0.238281	0.677979	0.349854	0.480098	-0.751058	-0.303490	-0.336618
42130		7.854569	-5.135499	-2.978243	0.024567	0.147702	0.241410	-0.240967	0.681396	0.353027	0.481358	-0.751148	-0.301517	-0.336390
42131		7.887419	-5.081864	-2.999492	0.007721	0.177488	0.253769	-0.245850	0.683838	0.349121	0.482591	-0.751257	-0.299272	-0.336384
42132		7.913717	-5.093301	-2.968331	-0.007782	0.211999	0.282099	-0.237793	0.690674	0.346924	0.483925	-0.751338	-0.296777	-0.336499
42133		7.859681	-5.140705	-2.931502	-0.011016	0.226113	0.311431	-0.234375	0.688232	0.342529	0.485382	-0.751466	-0.294025	-0.336530
42134		7.826955	-5.197146	-2.888528	-0.015433	0.229289	0.345981	-0.229980	0.693848	0.344482	0.486931	-0.751662	-0.291069	-0.336424
42135		7.905791	-4.953028	-2.873574	-0.022746	0.243476	0.366234	-0.221436	0.687500	0.349609	0.488511	-0.751909	-0.287868	-0.336336
42136		7.983076	-4.851727	-2.756770	-0.039931	0.273765	0.370784	-0.222412	0.700439	0.347168	0.489976	-0.752229	-0.284289	-0.336534
42137		7.904491	-4.969106	-2.723777	-0.076025	0.325278	0.375764	-0.222900	0.697510	0.341064	0.491409	-0.752495	-0.280480	-0.337044
42138		7.760998	-5.082150	-2.854019	-0.085195	0.337649	0.371910	-0.216064	0.689209	0.344482	0.492831	-0.752693	-0.276714	-0.337640
42139		7.723001	-5.121308	-2.868492	-0.037696	0.295108	0.371235	-0.217773	0.698486	0.347168	0.494366	-0.752871	-0.273111	-0.337932
42140		7.909018	-5.003397	-2.617056	-0.019334	0.286898	0.359398	-0.201904	0.697754	0.337646	0.495961	-0.752948	-0.269684	-0.338176
42141		8.091326	-4.870812	-2.495250	-0.065481	0.325126	0.341384	-0.202637	0.703613	0.342285	0.497378	-0.753043	-0.266145	-0.338686
42142		7.922068	-5.032433	-2.673026	-0.086321	0.332054	0.317652	-0.206299	0.700684	0.339355	0.498581	-0.753154	-0.262634	-0.339409
42143		7.774947	-5.268055	-2.687011	-0.084888	0.299261	0.288108	-0.197754	0.702881	0.327881	0.499632	-0.753248	-0.259494	-0.340072
42144		7.579863	-5.480456	-2.651651	-0.081126	0.274056	0.267884	-0.196045	0.697998	0.325684	0.500713	-0.753278	-0.256771	-0.340481
42145		7.501801	-5.631141	-2.621806	-0.071294	0.236155	0.247601	-0.197998	0.704102	0.342041	0.501699	-0.753329	-0.254350	-0.340735
42146		7.525025	-5.797794	-2.709394	-0.059734	0.208779	0.223114	-0.189941	0.708008	0.342773	0.502511	-0.753438	-0.252040	-0.341014
42147		7.526678	-5.814696	-2.727286	-0.044277	0.191485	0.222398	-0.189941	0.709961	0.336182	0.503410	-0.753534	-0.249867	-0.341073
42148		7.465596	-5.822274	-2.652978	0.006491	0.157042	0.218527	-0.188965	0.704834	0.330078	0.504603	-0.753450	-0.248123	-0.340770
42149		7.371295	-5.838068	-2.512708	0.047132	0.130664	0.217202	-0.183594	0.711670	0.332275	0.505990	-0.753249	-0.246627	-0.340243
42150		7.292938	-5.927884	-2.474242	0.043886	0.122216	0.205583	-0.188965	0.713379	0.332031	0.507330	-0.753062	-0.245259	-0.339649
42151		7.253092	-5.998457	-2.602006	0.015088	0.107800	0.189993	-0.185547	0.708496	0.332764	0.508387	-0.752991	-0.243962	-0.339160
42152		7.294850	-5.885488	-2.592936	0.029464	0.084903	0.176786	-0.178711	0.707031	0.332764	0.509398	-0.752932	-0.242798	-0.338609
42153		7.355112	-5.852663	-2.606732	0.057574	0.062626	0.162316	-0.181396	0.713135	0.330566	0.510493	-0.752807	-0.241871	-0.337900
42154		7.383283	-5.982854	-2.544331	0.075670	0.044280	0.144493	-0.173584	0.718506	0.322266	0.511642	-0.752583	-0.241256	-0.337100
42155		7.422247	-6.003944	-2.546452	0.088660	0.019574	0.120325	-0.173828	0.713135	0.328369	0.512856	-0.752272	-0.241092	-0.336065
42156		7.533968	-5.844645	-2.494913	0.112023	-0.001326	0.089567	-0.173340	0.716309	0.331787	0.513979	-0.751924	-0.241102	-0.335122
42157		7.579964	-5.728802	-2.515823	0.119896	-0.028158	0.073411	-0.169678	0.723877	0.323730	0.515033	-0.751593	-0.241333	-0.334076
42158		7.709203	-5.444061	-2.416663	0.101462	-0.046215	0.057746	-0.164551	0.717041	0.326904	0.515986	-0.751298	-0.241850	-0.332894
42159		7.772024	-5.511095	-2.343969	0.035009	-0.039251	0.041361	-0.176758	0.720459	0.323242	0.516416	-0.751294	-0.242123	-0.332036
42160		7.576438	-5.767422	-2.485396	-0.021294	-0.018054	0.030760	-0.178223	0.714355	0.322266	0.516471	-0.751426	-0.242190	-0.331602
42161		7.512546	-5.909588	-2.508359	-0.016950	-0.020394	0.018145	-0.167969	0.716309	0.324951	0.516451	-0.751552	-0.242248	-0.331306
42162		7.403404	-6.019649	-2.384019	0.003491	-0.031447	0.006658	-0.176025	0.717773	0.325439	0.516552	-0.751598	-0.242550	-0.330823
42163		7.212960	-6.167953	-2.274772	0.026588	-0.016509	-0.000202	-0.175537	0.719971	0.324951	0.516772	-0.751487	-0.242849	-0.330511
42164		6.978075	-6.414948	-2.564085	0.028747	-0.023866	-0.005593	-0.173096	0.715332	0.317627	0.516988	-0.751369	-0.243244	-0.330152
42165		6.838193	-6.449455	-2.897228	0.066662	-0.075461	-0.000337	-0.169189	0.727783	0.315430	0.517349	-0.751241	-0.243915	-0.329382
42166		7.053815	-6.216444	-2.866940	0.139117	-0.148800	-0.009810	-0.172363	0.720459	0.318359	0.518089	-0.750922	-0.245348	-0.327878
42167		7.376845	-5.961747	-2.658148	0.172125	-0.188702	-0.031740	-0.169678	0.715576	0.321777	0.518792	-0.750578	-0.247006	-0.326305
42168		7.666880	-5.848161	-2.585867	0.176900	-0.195443	-0.059665	-0.164307	0.714844	0.324219	0.519376	-0.750215	-0.248774	-0.324864
42169		7.692777	-5.798586	-2.449814	0.164883	-0.179633	-0.079282	-0.168213	0.719727	0.320068	0.519856	-0.749835	-0.250542	-0.323612
42170		7.596566	-5.819754	-2.352551	0.105148	-0.145446	-0.069173	-0.169189	0.716797	0.325928	0.520080	-0.749613	-0.251986	-0.322646
42171		7.281383	-5.788700	-2.271136	0.048908	-0.105077	-0.047230	-0.167725	0.714844	0.321533	0.520041	-0.749608	-0.252869	-0.322028
42172		7.325877	-6.017360	-2.036049	0.017013	-0.052150	-0.024137	-0.174561	0.713623	0.320801	0.519985	-0.749641	-0.253301	-0.321703
42173		7.383050	-6.340710	-2.180436	-0.013082	0.007678	-0.004411	-0.171631	0.724609	0.322266	0.519891	-0.749688	-0.253233	-0.321799
42174		7.230391	-6.103603	-2.301960	0.019657	0.015682	0.015221	-0.179199	0.719238	0.318115	0.520142	-0.749573	-0.253223	-0.321669
42175		7.456319	-5.764964	-2.215319	0.057178	0.002366	0.023888	-0.168213	0.721680	0.315918	0.520581	-0.749355	-0.253261	-0.321436
42176		7.619505	-5.584505	-2.305579	0.006518	0.026479	0.014047	-0.175537	0.720703	0.310547	0.520779	-0.749263	-0.253181	-0.321392
42177		7.716357	-5.504110	-2.374784	-0.044240	0.059753	-0.009515	-0.169678	0.716797	0.315674	0.520660	-0.749234	-0.252982	-0.321808
42178		7.690859	-5.600916	-2.503521	-0.091152	0.084396	-0.033953	-0.174316	0.715820	0.316162	0.520211	-0.749326	-0.252634	-0.322594
42179		7.459550	-5.802717	-2.496966	-0.107677	0.085901	-0.050223	-0.171143	0.714600	0.319336	0.519605	-0.749449	-0.252329	-0.323524
42180		7.227489	-6.013680	-2.585764	-0.092626	0.070619	-0.071285	-0.168457	0.719238	0.325928	0.519002	-0.749515	-0.252243	-0.324405
42181		7.336972	-5.957205	-2.530082	-0.058781	0.036660	-0.098720	-0.167236	0.727783	0.320801	0.518475	-0.749475	-0.252571	-0.325082
42182		7.446570	-5.899347	-2.624012	-0.074148	0.011935	-0.128950	-0.176025	0.714844	0.322998	0.517799	-0.749453	-0.253298	-0.325646
42183		7.387436	-5.875728	-2.691834	-0.080261	-0.005636	-0.150542	-0.171387	0.714600	0.322021	0.516896	-0.749499	-0.254075	-0.326367
42184		7.432788	-5.899731	-2.608376	-0.062443	-0.021068	-0.164967	-0.175781	0.723877	0.319580	0.516059	-0.749475	-0.255085	-0.326958
42185		7.503205	-6.029529	-2.594124	-0.053225	-0.026813	-0.173627	-0.181152	0.712402	0.314209	0.515306	-0.749356	-0.256329	-0.327445
42186		7.318079	-5.875868	-2.630253	-0.059199	-0.053566	-0.169868	-0.180176	0.712158	0.327881	0.514429	-0.749352	-0.257594	-0.327841
42187		7.453760	-5.786233	-2.550446	-0.052961	-0.071056	-0.169228	-0.192383	0.711670	0.319336	0.513498	-0.749424	-0.258823	-0.328169
42188		7.595579	-5.838969	-2.488073	-0.071179	-0.056761	-0.169676	-0.188232	0.711182	0.332275	0.512505	-0.749478	-0.260039	-0.328634
42189		7.614420	-5.855952	-2.710937	-0.080376	-0.034505	-0.163331	-0.190918	0.707764	0.338623	0.511472	-0.749582	-0.260972	-0.329267
42190		7.449002	-5.755767	-2.784421	-0.088965	-0.037369	-0.155564	-0.187256	0.713379	0.327393	0.510355	-0.749777	-0.261761	-0.329931
42191		7.236554	-5.808828	-2.615296	-0.082209	-0.048496	-0.146471	-0.189697	0.712402	0.332275	0.509394	-0.749919	-0.262760	-0.330299
42192		7.371271	-6.073626	-2.590951	-0.062610	-0.063724	-0.150856	-0.186768	0.702881	0.330811	0.508484	-0.750025	-0.263858	-0.330582
42193		7.209223	-6.066159	-2.648518	-0.043924	-0.071731	-0.156652	-0.191406	0.705811	0.338135	0.507632	-0.750086	-0.265015	-0.330829
42194		7.384446	-5.952206	-2.682220	0.006782	-0.094309	-0.169111	-0.187988	0.710693	0.333008	0.506985	-0.749981	-0.266443	-0.330912
42195		7.580112	-5.774894	-2.660243	0.036464	-0.115669	-0.190144	-0.194580	0.700684	0.329346	0.506483	-0.749725	-0.268277	-0.330779
42196		7.530218	-5.566585	-2.741855	0.051786	-0.127045	-0.191959	-0.200928	0.700439	0.329590	0.506009	-0.749432	-0.270179	-0.330620
42197		7.555740	-5.584117	-2.713483	0.044569	-0.139175	-0.201480	-0.205566	0.696289	0.331055	0.505425	-0.749170	-0.272179	-0.330468
42198		7.581315	-5.581031	-2.795914	0.034378	-0.158570	-0.208457	-0.199219	0.703613	0.336426	0.504678	-0.748999	-0.274232	-0.330299
42199		7.734875	-5.492119	-2.670915	0.064860	-0.174989	-0.217361	-0.202393	0.704590	0.332520	0.504073	-0.748743	-0.276466	-0.329942
42200		7.746154	-5.464676	-2.451612	0.065108	-0.157548	-0.222694	-0.206055	0.699463	0.337158	0.503521	-0.748392	-0.278727	-0.329678
42201		7.878490	-5.609069	-2.630506	0.052961	-0.123148	-0.218602	-0.209473	0.707031	0.333252	0.502923	-0.748042	-0.280682	-0.329727
42202		7.686369	-5.535384	-2.900626	0.031875	-0.113505	-0.185791	-0.222412	0.699219	0.330811	0.502366	-0.747777	-0.282457	-0.329660
42203		7.545365	-5.510667	-2.917536	0.033877	-0.126319	-0.166406	-0.216064	0.697998	0.333740	0.501818	-0.747555	-0.284205	-0.329498
42204		7.611046	-5.463777	-2.648638	0.038060	-0.132732	-0.140179	-0.208740	0.688965	0.339355	0.501331	-0.747436	-0.285738	-0.329180
42205		7.973747	-5.346468	-2.377359	0.015107	-0.095010	-0.119348	-0.213379	0.694336	0.330078	0.500771	-0.747447	-0.286723	-0.329152
42206		8.260940	-5.027846	-2.474039	-0.055647	-0.034972	-0.108527	-0.218506	0.696777	0.337646	0.500044	-0.747516	-0.287421	-0.329492
42207		8.159469	-4.957287	-2.728261	-0.106111	0.023092	-0.115877	-0.214355	0.693604	0.328857	0.499078	-0.747643	-0.287717	-0.330409
42208		7.777375	-5.031827	-3.040228	-0.151269	0.034120	-0.120854	-0.223389	0.697021	0.334717	0.497917	-0.747867	-0.287996	-0.331411
42209		7.507342	-5.118011	-3.178806	-0.139021	-0.012659	-0.138395	-0.215088	0.696289	0.341797	0.496652	-0.748117	-0.288618	-0.332202
42210		7.619319	-5.330735	-3.084759	-0.127650	-0.058854	-0.159732	-0.221924	0.696777	0.337646	0.495242	-0.748472	-0.289431	-0.332799
42211		7.615555	-5.488084	-2.873872	-0.093100	-0.083332	-0.181497	-0.233643	0.681396	0.343018	0.493985	-0.748627	-0.290733	-0.333182
42212		7.716493	-5.592218	-2.625944	-0.034451	-0.083349	-0.178830	-0.233398	0.688232	0.347412	0.493003	-0.748572	-0.292088	-0.333574
42213		7.694856	-5.528422	-2.605443	-0.016527	-0.063184	-0.169731	-0.220703	0.694092	0.342529	0.492208	-0.748425	-0.293322	-0.333997
42214		7.624286	-5.464949	-2.775135	0.003723	-0.064827	-0.166805	-0.237061	0.690430	0.352783	0.491615	-0.748207	-0.294626	-0.334212
42215		7.575283	-5.340405	-2.977297	0.016580	-0.078754	-0.160644	-0.232666	0.693848	0.338623	0.490981	-0.748013	-0.295894	-0.334455
42216		7.615864	-5.253597	-3.083574	0.037247	-0.115637	-0.165787	-0.239258	0.693359	0.351807	0.490522	-0.747718	-0.297665	-0.334218
42217		7.820211	-5.087344	-3.032419	0.061980	-0.133511	-0.175080	-0.232178	0.686523	0.341064	0.490017	-0.747438	-0.299407	-0.334029
42218		7.929475	-4.951120	-2.952836	0.039494	-0.124817	-0.181953	-0.233154	0.680908	0.344727	0.489447	-0.747165	-0.301202	-0.333860
42219		7.863240	-4.926497	-2.910877	0.027692	-0.119926	-0.194419	-0.241943	0.686523	0.353271	0.488722	-0.746940	-0.302911	-0.333881
42220		7.718033	-4.988193	-3.092290	0.035245	-0.134827	-0.207947	-0.248291	0.689697	0.346191	0.487910	-0.746716	-0.304712	-0.333930
42221		7.685937	-5.006271	-3.152733	0.062335	-0.161625	-0.230429	-0.242188	0.686768	0.346436	0.487232	-0.746291	-0.307071	-0.333709
42222		7.782067	-5.000885	-3.248322	0.146736	-0.219065	-0.258847	-0.244141	0.678467	0.345947	0.486825	-0.745658	-0.309964	-0.333042
42223		7.860829	-4.893229	-3.302409	0.254506	-0.290224	-0.294761	-0.249023	0.683838	0.352539	0.486768	-0.744699	-0.313628	-0.331840
42224		7.998196	-4.705504	-3.245058	0.333119	-0.332833	-0.331746	-0.252930	0.678955	0.341064	0.486905	-0.743487	-0.317773	-0.330410
42225		7.945995	-4.559136	-3.209640	0.324923	-0.347099	-0.366397	-0.243896	0.681885	0.342529	0.486941	-0.742132	-0.322399	-0.328921
42226		8.171008	-4.387877	-3.099970	0.320945	-0.353070	-0.382805	-0.259521	0.683105	0.339355	0.486820	-0.740862	-0.326896	-0.327520
42227		8.349375	-4.402268	-3.169278	0.304606	-0.327276	-0.394598	-0.261719	0.673340	0.340088	0.486668	-0.739430	-0.331530	-0.326322
42228		8.154280	-4.647208	-2.925705	0.288876	-0.336846	-0.411349	-0.258301	0.682373	0.340820	0.486277	-0.738066	-0.336165	-0.325249
42229		8.198338	-4.634605	-2.904296	0.354808	-0.374846	-0.393406	-0.276123	0.674316	0.334473	0.486198	-0.736643	-0.340871	-0.323692
42230		8.353394	-4.672224	-2.829960	0.380410	-0.340604	-0.304994	-0.277588	0.673340	0.329834	0.486678	-0.735076	-0.345314	-0.321816
42231		8.365186	-4.874963	-2.769817	0.358296	-0.287203	-0.207014	-0.267334	0.677002	0.329590	0.487446	-0.733709	-0.348902	-0.319898
42232		8.468111	-4.713272	-2.508659	0.253915	-0.172347	-0.124631	-0.275146	0.683594	0.325195	0.488073	-0.732816	-0.350990	-0.318703
42233		8.530466	-4.304463	-2.635171	0.083750	-0.059289	-0.067060	-0.269287	0.680664	0.329590	0.488206	-0.732393	-0.351983	-0.318376
42234		8.270104	-4.297424	-3.038289	-0.055299	0.020426	-0.028659	-0.267334	0.673828	0.326416	0.487758	-0.732543	-0.351839	-0.318876
42235		7.946523	-4.792622	-3.359390	-0.135915	0.086033	0.001703	-0.272949	0.678467	0.328857	0.487130	-0.732900	-0.351101	-0.319828
42236		7.615893	-5.230208	-3.608901	-0.136051	0.055951	0.026487	-0.270996	0.682861	0.335205	0.486494	-0.733385	-0.350377	-0.320479
42237		7.598692	-5.495422	-3.627490	-0.023135	-0.015539	0.035590	-0.267334	0.676514	0.330566	0.486327	-0.733688	-0.350071	-0.320372
42238		7.667940	-5.331024	-3.351061	0.091181	-0.053620	0.039269	-0.274414	0.675293	0.331787	0.486802	-0.733602	-0.350282	-0.319617
42239		7.941780	-4.882355	-3.120445	0.116938	-0.046322	0.025450	-0.268555	0.674561	0.334473	0.487422	-0.733321	-0.350673	-0.318886
42240		8.038056	-4.572968	-3.000852	0.093571	-0.033154	-0.012886	-0.269775	0.686523	0.329346	0.487804	-0.733044	-0.351072	-0.318500
42241		7.902121	-4.620019	-3.091764	0.038335	-0.018486	-0.035918	-0.275146	0.679688	0.328369	0.487881	-0.732842	-0.351488	-0.318387
42242		7.878925	-4.908621	-3.123907	0.018475	-0.040053	-0.040610	-0.266357	0.676758	0.331543	0.487773	-0.732734	-0.352029	-0.318204
42243		7.868159	-5.131412	-3.045993	0.062128	-0.084155	-0.036661	-0.279541	0.680908	0.335693	0.487782	-0.732636	-0.352724	-0.317647
42244		7.862923	-5.117076	-2.972174	0.101275	-0.077958	-0.025153	-0.269531	0.679932	0.333740	0.488079	-0.732366	-0.353483	-0.316968
42245		7.969534	-4.901430	-2.886885	0.095522	-0.063901	-0.024384	-0.270264	0.678711	0.328613	0.488388	-0.732108	-0.354117	-0.316379
42246		8.204380	-4.789006	-2.775603	0.107610	-0.102912	-0.029048	-0.266357	0.680908	0.329102	0.488671	-0.731857	-0.355033	-0.315495
42247		8.241902	-4.593400	-2.864667	0.136580	-0.124990	-0.024181	-0.267334	0.679688	0.322266	0.489072	-0.731574	-0.356054	-0.314378
42248		8.058388	-4.403812	-3.128778	0.165170	-0.124004	-0.041846	-0.264404	0.690186	0.326660	0.489629	-0.731085	-0.357313	-0.313218
42249		8.015601	-4.378546	-3.275704	0.141571	-0.104694	-0.058536	-0.274414	0.679199	0.323975	0.490034	-0.730622	-0.358472	-0.312340
42250		8.028365	-4.456779	-3.312713	0.085569	-0.072041	-0.063661	-0.267822	0.682617	0.320801	0.490190	-0.730254	-0.359444	-0.311839
42251		8.169129	-4.569311	-3.159672	0.050013	-0.055173	-0.061415	-0.271240	0.679932	0.321289	0.490190	-0.730001	-0.360225	-0.311529
42252		8.138802	-4.659946	-3.101531	0.003071	-0.036069	-0.027612	-0.269043	0.675293	0.321289	0.490047	-0.729989	-0.360605	-0.311343
42253		7.947396	-4.716425	-3.089615	-0.046305	0.003725	-0.001865	-0.271240	0.675537	0.324463	0.489785	-0.730159	-0.360526	-0.311446
42254		7.821414	-4.972291	-3.238709	-0.095431	0.058167	0.008079	-0.268066	0.684814	0.325684	0.489407	-0.730423	-0.360028	-0.311998
42255		7.972155	-5.065782	-3.216583	-0.103465	0.066716	0.016348	-0.265137	0.685791	0.324219	0.489033	-0.730725	-0.359414	-0.312583
42256		8.003168	-4.887422	-3.167931	-0.065098	0.023204	0.031813	-0.263184	0.680420	0.320068	0.488810	-0.731027	-0.358990	-0.312715
42257		7.860963	-4.818404	-3.302483	-0.053562	0.027370	0.037373	-0.274902	0.680908	0.330566	0.488692	-0.731277	-0.358565	-0.312803
42258		7.936288	-4.718812	-3.322825	-0.080157	0.038015	0.044236	-0.269043	0.685059	0.330322	0.488437	-0.731639	-0.357964	-0.313043
42259		7.945441	-4.690527	-3.262509	-0.076936	0.040180	0.036473	-0.262207	0.677490	0.322510	0.488193	-0.731961	-0.357404	-0.313308
42260		7.995945	-4.782072	-3.077290	-0.102740	0.053429	0.021935	-0.269531	0.684082	0.339111	0.487810	-0.732298	-0.356835	-0.313767
42261		8.008681	-4.916955	-2.953079	-0.129234	0.053621	0.017526	-0.267334	0.682129	0.334717	0.487217	-0.732761	-0.356162	-0.314372
42262		8.036998	-5.153445	-3.137572	-0.136704	0.059494	0.027002	-0.265869	0.687744	0.330811	0.486637	-0.733251	-0.355414	-0.314976
42263		7.789592	-5.185895	-3.327433	-0.153542	0.088864	0.048463	-0.268799	0.679932	0.332764	0.486116	-0.733777	-0.354400	-0.315695
42264		7.783862	-4.973907	-3.331079	-0.154920	0.097839	0.054719	-0.262939	0.690918	0.334229	0.485621	-0.734303	-0.353308	-0.316458
42265		7.806710	-4.761589	-3.350088	-0.148108	0.069097	0.052565	-0.262451	0.678711	0.338379	0.485086	-0.734872	-0.352355	-0.317018
42266		8.106079	-4.657143	-3.301431	-0.164568	0.073856	0.042927	-0.272217	0.676025	0.335205	0.484417	-0.735481	-0.351371	-0.317719
42267		8.061836	-4.654139	-3.194574	-0.219648	0.121134	0.040049	-0.265137	0.676514	0.345947	0.483554	-0.736147	-0.350121	-0.318870
42268		7.986761	-4.591985	-3.104478	-0.250304	0.124971	0.023578	-0.268555	0.672852	0.340820	0.482442	-0.736914	-0.348802	-0.320227
42269		7.873920	-4.823310	-3.217856	-0.221727	0.096908	0.020384	-0.270996	0.669922	0.349609	0.481434	-0.737599	-0.347741	-0.321317
42270		7.913590	-5.085624	-3.295568	-0.194821	0.086826	0.032425	-0.261475	0.673584	0.353271	0.480570	-0.738257	-0.346679	-0.322246
