// Start Time: Unknown
// Update Rate: 60.0Hz
// Filter Profile: human (46.1)
// Firmware Version: 4.6.0
PacketCounter	SampleTimeFine	Acc_X	Acc_Y	Acc_Z	Gyr_X	Gyr_Y	Gyr_Z	Mag_X	Mag_Y	Mag_Z	Quat_q0	Quat_q1	Quat_q2	Quat_q3
43929		7.878401	-5.750776	-0.826376	0.021460	-0.017109	-0.016307	-0.257324	0.768311	-0.063477	0.634278	-0.614083	-0.406333	-0.235556
43930		7.881268	-5.758380	-0.845067	0.021267	-0.020728	-0.020052	-0.264160	0.762695	-0.069336	0.634277	-0.613944	-0.406587	-0.235484
43931		7.899786	-5.767102	-0.850330	0.021014	-0.019344	-0.018158	-0.254395	0.766113	-0.067871	0.634286	-0.613800	-0.406830	-0.235415
43932		7.893527	-5.729393	-0.870412	0.024451	-0.021526	-0.017235	-0.251953	0.763428	-0.070312	0.634304	-0.613654	-0.407080	-0.235313
43933		7.960161	-5.681690	-0.878469	0.021351	-0.016394	-0.015337	-0.255615	0.759766	-0.072021	0.634327	-0.613522	-0.407288	-0.235237
43934		7.922188	-5.712182	-0.899653	0.019249	-0.013231	-0.012963	-0.252197	0.762451	-0.069336	0.634352	-0.613403	-0.407465	-0.235175
43935		7.908809	-5.713672	-0.899267	0.017688	-0.014287	-0.011972	-0.252197	0.766602	-0.072998	0.634364	-0.613298	-0.407642	-0.235107
43936		7.931855	-5.675222	-0.905743	0.009116	-0.004897	-0.007911	-0.260254	0.760742	-0.063721	0.634370	-0.613235	-0.407735	-0.235096
43937		7.902410	-5.740216	-0.861193	-0.008465	0.000849	-0.009581	-0.251465	0.763672	-0.071045	0.634297	-0.613249	-0.407775	-0.235185
43938		7.903239	-5.733111	-0.829704	-0.003844	-0.003601	-0.010788	-0.261719	0.758301	-0.070312	0.634230	-0.613244	-0.407855	-0.235241
43939		7.918554	-5.734680	-0.863020	-0.002726	-0.000865	-0.007286	-0.263428	0.766113	-0.061035	0.634184	-0.613240	-0.407905	-0.235290
43940		7.911557	-5.762142	-0.824598	-0.007752	0.010432	-0.012071	-0.258301	0.767822	-0.069336	0.634139	-0.613224	-0.407912	-0.235439
43941		7.867741	-5.777996	-0.946877	-0.005300	0.017459	-0.011718	-0.259033	0.758057	-0.068604	0.634134	-0.613182	-0.407883	-0.235613
43942		7.916913	-5.702598	-0.851397	-0.011689	0.022615	-0.009300	-0.246826	0.771240	-0.075928	0.634112	-0.613180	-0.407803	-0.235815
43943		7.858215	-5.780496	-0.882540	-0.000992	0.014001	-0.009375	-0.255859	0.759277	-0.075928	0.634113	-0.613138	-0.407791	-0.235940
43944		7.934628	-5.701334	-0.834405	0.014269	0.000547	-0.008999	-0.260986	0.753174	-0.075684	0.634147	-0.613048	-0.407878	-0.235936
43945		7.926577	-5.666434	-0.898786	0.005104	0.008369	-0.005859	-0.263184	0.766113	-0.068115	0.634165	-0.612998	-0.407894	-0.235990
43946		7.898264	-5.735949	-0.838914	-0.009097	0.011534	-0.004954	-0.260010	0.772217	-0.069336	0.634112	-0.613026	-0.407865	-0.236109
43947		7.877876	-5.776664	-0.817997	-0.005246	0.005821	-0.004478	-0.255371	0.764648	-0.070801	0.634060	-0.613049	-0.407868	-0.236184
43948		7.930856	-5.672324	-0.868751	0.006145	-0.000452	-0.006959	-0.254150	0.768066	-0.072754	0.634051	-0.613012	-0.407933	-0.236193
43949		7.927482	-5.723825	-0.853065	-0.015750	0.005426	-0.004540	-0.259033	0.759521	-0.066650	0.633950	-0.613087	-0.407915	-0.236298
43950		7.885818	-5.800341	-0.780835	-0.015596	0.003272	-0.003097	-0.255371	0.755615	-0.074707	0.633844	-0.613170	-0.407906	-0.236383
43951		7.878673	-5.769570	-0.833868	-0.001940	-0.008309	-0.006506	-0.250488	0.762939	-0.072510	0.633782	-0.613180	-0.407995	-0.236371
43952		7.875155	-5.751019	-0.845158	0.001855	-0.014413	-0.004370	-0.253418	0.763916	-0.072021	0.633721	-0.613200	-0.408099	-0.236302
43953		7.891236	-5.757180	-0.865349	0.004268	-0.013161	-0.006315	-0.256348	0.765381	-0.082031	0.633671	-0.613201	-0.408211	-0.236240
43954		7.892864	-5.766362	-0.885112	-0.000047	-0.013022	-0.002221	-0.253418	0.761475	-0.073486	0.633614	-0.613228	-0.408300	-0.236168
43955		7.875914	-5.755135	-0.882252	0.005502	-0.018356	-0.003671	-0.256104	0.760498	-0.067139	0.633560	-0.613244	-0.408428	-0.236052
43956		7.887737	-5.743909	-0.912374	0.012880	-0.020081	-0.001642	-0.257812	0.761963	-0.068359	0.633528	-0.613244	-0.408570	-0.235893
43957		7.905703	-5.753158	-0.872229	0.019226	-0.025613	-0.002389	-0.255127	0.764404	-0.073730	0.633502	-0.613222	-0.408761	-0.235687
43958		7.920923	-5.743048	-0.794889	0.014988	-0.010598	-0.000126	-0.258301	0.765625	-0.069336	0.633523	-0.613194	-0.408846	-0.235555
43959		7.891916	-5.743414	-0.761660	0.006873	-0.004362	0.001830	-0.253662	0.758789	-0.073730	0.633518	-0.613210	-0.408872	-0.235480
43960		7.857879	-5.803754	-0.789761	0.017499	0.007980	0.004815	-0.254150	0.765381	-0.065430	0.633648	-0.613127	-0.408836	-0.235410
43961		7.829656	-5.797360	-0.675704	0.018207	0.001615	0.004884	-0.254883	0.764404	-0.079346	0.633738	-0.613090	-0.408813	-0.235306
43962		7.856916	-5.799766	-0.753219	0.020985	-0.001048	0.004164	-0.237549	0.761230	-0.062988	0.633882	-0.612992	-0.408810	-0.235179
43963		7.915705	-5.740011	-0.860679	0.028201	0.008093	0.002278	-0.259033	0.759766	-0.074463	0.634081	-0.612889	-0.408727	-0.235055
43964		7.869608	-5.794178	-0.761677	0.015128	0.008594	0.002723	-0.257568	0.765869	-0.074707	0.634209	-0.612795	-0.408691	-0.235017
43965		7.834452	-5.844591	-0.770158	0.022169	0.005402	-0.000422	-0.248291	0.762695	-0.075195	0.634361	-0.612674	-0.408676	-0.234947
43966		7.880476	-5.785780	-0.829182	0.035729	0.021650	0.000816	-0.260010	0.764648	-0.073242	0.634664	-0.612458	-0.408566	-0.234884
43967		7.848672	-5.849738	-0.837195	0.025352	0.045221	-0.005237	-0.244385	0.766113	-0.067139	0.634951	-0.612228	-0.408378	-0.235035
43968		7.854439	-5.847829	-0.675013	0.023866	0.060520	-0.008468	-0.252686	0.771240	-0.074463	0.635273	-0.612026	-0.408062	-0.235239
43969		7.833137	-5.821721	-0.763223	0.037679	0.041038	-0.012647	-0.245850	0.762451	-0.079102	0.635616	-0.611742	-0.407900	-0.235331
43970		7.922265	-5.685965	-0.938747	0.050079	0.014399	-0.020732	-0.253174	0.767578	-0.071533	0.635947	-0.611390	-0.407941	-0.235281
43971		7.951759	-5.617147	-1.085284	0.005490	0.022720	-0.024740	-0.251465	0.761963	-0.071289	0.636008	-0.611286	-0.407901	-0.235456
43972		7.857187	-5.799603	-1.096671	-0.040243	0.037626	-0.021966	-0.251953	0.762451	-0.072998	0.635870	-0.611404	-0.407708	-0.235856
43973		7.812643	-5.845090	-1.014275	-0.052684	0.041546	-0.024665	-0.253906	0.772461	-0.077881	0.635673	-0.611576	-0.407485	-0.236326
43974		7.904176	-5.691265	-1.040771	-0.062680	0.036546	-0.024440	-0.251709	0.764160	-0.075195	0.635430	-0.611825	-0.407225	-0.236784
43975		7.940117	-5.761479	-0.929877	-0.089372	0.034515	-0.022128	-0.250000	0.765625	-0.073242	0.635027	-0.612221	-0.406948	-0.237318
43976		7.908677	-5.786595	-0.756222	-0.092212	0.034006	-0.026746	-0.256104	0.760254	-0.068115	0.634594	-0.612633	-0.406678	-0.237873
43977		7.755758	-5.899793	-0.782205	-0.089536	0.024825	-0.026395	-0.250732	0.765625	-0.069824	0.634111	-0.613032	-0.406524	-0.238398
43978		7.767207	-5.871684	-0.859057	-0.067237	-0.004825	-0.031378	-0.252930	0.767090	-0.074707	0.633669	-0.613379	-0.406519	-0.238689
43979		7.940701	-5.622236	-0.995075	-0.065172	-0.040331	-0.027080	-0.261230	0.763672	-0.067627	0.633159	-0.613773	-0.406668	-0.238774
43980		8.014075	-5.538201	-1.067798	-0.081321	-0.057920	-0.022158	-0.253418	0.765137	-0.070068	0.632449	-0.614301	-0.406943	-0.238830
43981		7.999398	-5.603452	-1.071334	-0.081146	-0.056123	-0.014310	-0.252441	0.766846	-0.060303	0.631798	-0.614858	-0.407111	-0.238832
43982		7.979895	-5.646707	-1.050248	-0.039497	-0.054993	-0.008139	-0.257812	0.763428	-0.063232	0.631313	-0.615280	-0.407331	-0.238656
43983		8.020548	-5.616157	-0.977559	-0.010857	-0.045742	-0.003264	-0.252197	0.765137	-0.064941	0.631022	-0.615491	-0.407590	-0.238436
43984		7.922266	-5.710136	-0.893090	0.006087	-0.005654	0.003470	-0.249268	0.771729	-0.064941	0.630998	-0.615568	-0.407584	-0.238314
43985		7.864714	-5.770146	-0.689992	0.009107	0.008702	0.007091	-0.258789	0.762451	-0.069580	0.631049	-0.615659	-0.407417	-0.238227
43986		7.877964	-5.715703	-0.855258	0.014192	0.026771	0.009944	-0.254883	0.771973	-0.060791	0.631217	-0.615570	-0.407279	-0.238248
43987		7.925774	-5.736003	-0.859560	-0.003083	0.048074	0.015076	-0.250488	0.770020	-0.064453	0.631312	-0.615681	-0.406883	-0.238389
43988		7.851208	-5.879519	-0.796010	0.003973	0.059414	0.011826	-0.251465	0.771240	-0.065918	0.631521	-0.615695	-0.406429	-0.238570
43989		7.821459	-5.876128	-0.722924	0.029614	0.034407	0.009203	-0.248535	0.774902	-0.061035	0.631781	-0.615611	-0.406160	-0.238558
43990		7.851425	-5.816385	-0.792818	0.035719	0.017607	0.006386	-0.246582	0.770996	-0.065918	0.631976	-0.615589	-0.405960	-0.238438
43991		7.834853	-5.875815	-0.711995	0.014693	0.016418	0.007924	-0.245117	0.768066	-0.063232	0.632114	-0.615636	-0.405713	-0.238372
43992		7.833246	-5.872634	-0.722830	0.037094	-0.006701	0.001817	-0.247803	0.763672	-0.059570	0.632271	-0.615589	-0.405685	-0.238125
43993		7.886605	-5.779019	-0.788599	0.056138	-0.017539	0.001843	-0.251221	0.768311	-0.062988	0.632463	-0.615440	-0.405836	-0.237743
43994		7.855730	-5.770534	-0.734627	0.045513	-0.015763	0.000361	-0.252930	0.767090	-0.066406	0.632604	-0.615340	-0.405938	-0.237451
43995		7.828765	-5.862643	-0.755984	0.051183	-0.009128	0.001892	-0.243896	0.769531	-0.065674	0.632825	-0.615162	-0.406022	-0.237181
43996		7.866284	-5.762484	-0.802784	0.070366	-0.026402	-0.001295	-0.250244	0.768555	-0.061768	0.633097	-0.614980	-0.406132	-0.236737
43997		7.878742	-5.750737	-0.782089	0.055991	-0.022942	0.002226	-0.248291	0.770752	-0.067627	0.633254	-0.614866	-0.406285	-0.236349
43998		7.856974	-5.787872	-0.726395	0.065183	-0.019552	0.005394	-0.242676	0.769775	-0.070068	0.633524	-0.614701	-0.406346	-0.235952
43999		7.885404	-5.795101	-0.787077	0.090086	-0.024377	0.006076	-0.249756	0.770020	-0.070312	0.633943	-0.614426	-0.406412	-0.235427
44000		7.884623	-5.732647	-0.840303	0.089681	-0.033827	0.004361	-0.251953	0.774902	-0.076660	0.634293	-0.614130	-0.406624	-0.234890
44001		7.843368	-5.827412	-0.813119	0.076041	-0.023703	0.010146	-0.247559	0.774414	-0.068604	0.634642	-0.613903	-0.406663	-0.234475
44002		7.851499	-5.875125	-0.806114	0.087453	-0.015784	0.009229	-0.242432	0.768555	-0.072754	0.635014	-0.613668	-0.406709	-0.234000
44003		7.894972	-5.744188	-0.903985	0.079655	-0.016302	0.005369	-0.248047	0.765137	-0.073975	0.635395	-0.613426	-0.406739	-0.233552
44004		7.871786	-5.733017	-1.061735	0.036934	0.001729	0.005427	-0.253174	0.769043	-0.076660	0.635610	-0.613302	-0.406704	-0.233350
44005		7.861797	-5.816875	-0.943908	-0.005715	0.017197	0.008557	-0.239014	0.778809	-0.068359	0.635651	-0.613378	-0.406496	-0.233402
44006		7.854185	-5.838350	-0.824915	0.003711	0.014895	0.005170	-0.245850	0.765869	-0.077393	0.635670	-0.613625	-0.406121	-0.233355
44007		7.876769	-5.793623	-0.750963	0.021005	0.000509	0.001870	-0.244385	0.769043	-0.082275	0.635813	-0.613581	-0.406030	-0.233237
44008		7.822980	-5.823766	-0.737344	0.022959	-0.003796	0.004515	-0.242676	0.764160	-0.078857	0.635989	-0.613562	-0.405851	-0.233121
44009		7.800145	-5.856077	-0.696933	0.011870	-0.000022	0.005772	-0.247803	0.766357	-0.074463	0.636114	-0.613578	-0.405701	-0.232998
44010		7.840195	-5.840337	-0.724960	0.015880	0.000843	0.005241	-0.246826	0.769775	-0.073730	0.636203	-0.613570	-0.405652	-0.232860
44011		7.828235	-5.793996	-0.785063	0.024112	0.000809	0.003967	-0.240723	0.774170	-0.072021	0.636318	-0.613557	-0.405581	-0.232706
44012		7.851406	-5.837407	-0.781047	0.039738	-0.008154	0.004884	-0.244385	0.768311	-0.080322	0.636472	-0.613577	-0.405468	-0.232429
44013		7.834065	-5.833636	-0.805882	0.040599	-0.007955	0.003937	-0.246094	0.764893	-0.075439	0.636702	-0.613464	-0.405402	-0.232211
44014		7.805134	-5.846528	-0.834385	0.039095	-0.008629	0.003267	-0.235840	0.774902	-0.086914	0.636881	-0.613333	-0.405472	-0.231943
44015		7.807438	-5.861240	-0.835756	0.034726	-0.005575	0.002562	-0.249023	0.767822	-0.084717	0.637137	-0.613346	-0.405128	-0.231807
44016		7.830295	-5.822346	-0.794019	0.021962	-0.000346	0.001667	-0.242676	0.770264	-0.079102	0.637302	-0.613251	-0.405048	-0.231746
44017		7.835929	-5.836330	-0.689104	0.017632	0.007040	0.005607	-0.240234	0.771973	-0.082520	0.637437	-0.613277	-0.404851	-0.231648
44018		7.836867	-5.910898	-0.645064	0.029677	0.009645	0.004024	-0.240479	0.765869	-0.079590	0.637667	-0.613251	-0.404578	-0.231563
44019		7.815624	-5.883137	-0.646638	0.040780	-0.001354	0.002934	-0.238037	0.773682	-0.079346	0.637910	-0.613125	-0.404521	-0.231327
44020		7.759468	-5.975297	-0.633052	0.042986	-0.012820	0.001477	-0.245117	0.774658	-0.073975	0.638096	-0.613106	-0.404410	-0.231058
44021		7.795964	-5.935340	-0.637132	0.053571	-0.009054	-0.004825	-0.242188	0.765625	-0.077637	0.638270	-0.612967	-0.404507	-0.230774
44022		7.815005	-5.892692	-0.713778	0.048654	0.005471	-0.004328	-0.241211	0.766113	-0.077393	0.638538	-0.612745	-0.404547	-0.230554
44023		7.807898	-5.863471	-0.761685	0.042674	-0.005591	-0.006175	-0.239502	0.768555	-0.083496	0.638728	-0.612586	-0.404632	-0.230299
44024		7.789418	-5.920350	-0.787543	0.045296	-0.011888	-0.010552	-0.240234	0.770752	-0.081543	0.638942	-0.612431	-0.404646	-0.230093
44025		7.784035	-5.894073	-0.823699	0.045258	-0.023469	-0.015029	-0.235596	0.768799	-0.083252	0.639078	-0.612308	-0.404762	-0.229838
44026		7.825822	-5.869678	-0.820243	0.040255	-0.026348	-0.021293	-0.242920	0.767090	-0.080078	0.639197	-0.612213	-0.404852	-0.229603
44027		7.768399	-5.862900	-0.768212	0.017950	-0.019250	-0.017229	-0.234131	0.769043	-0.079590	0.639189	-0.612168	-0.405026	-0.229439
44028		7.762370	-5.894963	-0.762519	0.015251	-0.021640	-0.022112	-0.239258	0.770752	-0.085938	0.639164	-0.612225	-0.405077	-0.229265
44029		7.861388	-5.775503	-0.726726	0.001091	-0.019295	-0.022275	-0.240723	0.773926	-0.082031	0.639103	-0.612305	-0.405059	-0.229253
44030		7.806177	-5.853982	-0.700866	-0.024338	-0.012538	-0.020311	-0.240967	0.764648	-0.083496	0.638894	-0.612546	-0.404982	-0.229330
44031		7.817300	-5.890043	-0.670099	-0.025056	-0.006171	-0.020435	-0.245117	0.758789	-0.090576	0.638749	-0.612673	-0.404969	-0.229416
44032		7.811288	-5.845259	-0.662070	-0.026309	-0.014035	-0.025206	-0.246338	0.763428	-0.077881	0.638629	-0.612688	-0.405054	-0.229559
44033		7.801844	-5.858648	-0.669942	-0.020098	-0.019191	-0.023254	-0.244141	0.765869	-0.077148	0.638410	-0.612765	-0.405294	-0.229537
44034		7.822571	-5.876073	-0.696921	-0.017179	-0.021070	-0.027246	-0.247803	0.764893	-0.078613	0.638189	-0.612866	-0.405501	-0.229520
44035		7.805741	-5.866110	-0.790001	-0.044432	-0.010729	-0.028839	-0.246094	0.769043	-0.076172	0.637866	-0.613044	-0.405642	-0.229692
44036		7.796695	-5.872190	-0.768266	-0.077888	-0.004273	-0.028129	-0.242920	0.770752	-0.074707	0.637375	-0.613453	-0.405622	-0.229999
44037		7.746473	-5.954358	-0.673805	-0.081953	-0.009823	-0.030518	-0.246094	0.767578	-0.070068	0.636845	-0.613928	-0.405571	-0.230288
44038		7.728945	-5.978074	-0.597750	-0.056110	-0.030163	-0.039801	-0.239258	0.768066	-0.080322	0.636331	-0.614237	-0.405844	-0.230408
44039		7.793206	-5.895857	-0.561681	-0.054654	-0.034148	-0.042060	-0.255859	0.767578	-0.078857	0.635927	-0.614549	-0.405908	-0.230578
44040		7.821798	-5.878164	-0.647916	-0.047974	-0.054356	-0.045008	-0.244629	0.767822	-0.071777	0.635423	-0.614725	-0.406344	-0.230726
44041		7.790459	-5.858038	-0.729836	-0.051960	-0.065276	-0.051287	-0.250977	0.772217	-0.079834	0.634840	-0.615044	-0.406767	-0.230740
44042		7.846235	-5.792826	-0.642151	-0.078852	-0.065324	-0.050355	-0.249023	0.767090	-0.073242	0.634165	-0.615459	-0.407059	-0.230970
44043		7.830197	-5.826630	-0.638328	-0.119566	-0.050998	-0.050837	-0.246826	0.770752	-0.066895	0.633306	-0.616060	-0.407281	-0.231334
44044		7.746895	-5.958931	-0.611671	-0.111819	-0.070110	-0.058012	-0.243408	0.770996	-0.070557	0.632373	-0.616699	-0.407632	-0.231566
44045		7.745085	-5.930063	-0.702336	-0.087930	-0.093978	-0.066578	-0.248779	0.760986	-0.063232	0.631525	-0.617237	-0.408077	-0.231663
44046		7.849524	-5.768160	-0.798059	-0.094314	-0.099205	-0.069271	-0.251953	0.773926	-0.072510	0.630579	-0.617718	-0.408782	-0.231715
44047		7.813152	-5.848570	-0.857517	-0.108956	-0.097203	-0.070718	-0.246094	0.767334	-0.067139	0.629617	-0.618305	-0.409224	-0.231985
44048		7.845188	-5.778368	-1.004033	-0.086251	-0.106869	-0.074408	-0.250977	0.772949	-0.056641	0.628737	-0.618793	-0.409800	-0.232054
44049		7.975357	-5.609680	-1.147492	-0.091461	-0.096701	-0.074070	-0.252930	0.767090	-0.061768	0.627766	-0.619336	-0.410413	-0.232149
44050		7.958647	-5.758257	-1.119897	-0.117575	-0.062219	-0.074569	-0.253906	0.768311	-0.058105	0.626836	-0.619871	-0.410788	-0.232572
44051		7.778346	-5.871043	-1.213651	-0.081674	-0.051814	-0.071104	-0.248291	0.762939	-0.061035	0.626114	-0.620225	-0.411173	-0.232894
44052		7.895486	-5.717636	-1.060565	-0.081754	-0.044939	-0.069481	-0.255371	0.781006	-0.057861	0.625481	-0.620566	-0.411435	-0.233224
44053		7.969001	-5.565704	-1.178983	-0.102884	-0.035633	-0.059793	-0.251221	0.765137	-0.053711	0.624720	-0.621125	-0.411482	-0.233692
44054		7.897726	-5.773918	-1.003273	-0.109553	-0.031503	-0.064010	-0.261963	0.766846	-0.050781	0.623950	-0.621622	-0.411649	-0.234132
44055		7.760140	-5.955760	-1.149079	-0.068202	-0.037533	-0.064137	-0.261963	0.760986	-0.057617	0.623325	-0.621859	-0.412051	-0.234461
44056		7.930202	-5.690072	-1.211745	-0.065022	-0.047529	-0.067298	-0.261230	0.762939	-0.049072	0.622749	-0.622029	-0.412471	-0.234801
44057		8.015947	-5.545550	-1.101588	-0.090785	-0.037730	-0.062561	-0.260010	0.770264	-0.046387	0.622022	-0.622383	-0.412817	-0.235179
44058		7.881167	-5.792689	-1.190379	-0.055787	-0.050133	-0.064855	-0.259766	0.768799	-0.046143	0.621415	-0.622642	-0.413229	-0.235376
44059		8.027011	-5.586204	-1.372974	-0.000567	-0.053209	-0.061451	-0.255127	0.756348	-0.055908	0.621102	-0.622627	-0.413740	-0.235346
44060		8.035249	-5.473111	-1.409385	-0.032968	-0.015575	-0.049398	-0.260498	0.760254	-0.041992	0.620886	-0.622665	-0.413870	-0.235586
44061		7.915646	-5.711351	-1.134391	-0.024520	-0.019176	-0.047041	-0.260254	0.765625	-0.054199	0.620572	-0.622721	-0.414192	-0.235701
44062		7.887840	-5.646524	-1.193233	0.029719	-0.037085	-0.048398	-0.261475	0.767334	-0.053711	0.620574	-0.622516	-0.414528	-0.235644
44063		8.022949	-5.428720	-1.177985	0.022322	-0.026610	-0.042662	-0.268311	0.760742	-0.042969	0.620573	-0.622360	-0.414766	-0.235641
44064		7.993954	-5.535924	-1.148316	-0.005518	-0.016482	-0.032493	-0.263672	0.763672	-0.047119	0.620378	-0.622322	-0.415086	-0.235692
44065		7.898946	-5.729802	-1.045093	0.007632	-0.033605	-0.037352	-0.265869	0.765625	-0.045166	0.620231	-0.622269	-0.415417	-0.235635
44066		7.983635	-5.582633	-1.138465	0.035136	-0.038594	-0.039382	-0.257812	0.759521	-0.047363	0.620182	-0.622085	-0.415857	-0.235471
44067		7.966159	-5.517468	-1.243159	0.001600	-0.021401	-0.031691	-0.264404	0.760498	-0.057373	0.620087	-0.622078	-0.416043	-0.235414
44068		8.065941	-5.428809	-1.294288	-0.017120	-0.007116	-0.021918	-0.264648	0.751709	-0.051270	0.620023	-0.622090	-0.416036	-0.235564
44069		8.107986	-5.359429	-1.373982	-0.024585	0.005232	-0.020210	-0.261230	0.760010	-0.039795	0.619923	-0.622097	-0.416068	-0.235750
44070		8.043259	-5.391658	-1.361921	-0.036456	0.016321	-0.009455	-0.266602	0.766357	-0.047607	0.619725	-0.622316	-0.415951	-0.235899
44071		8.023141	-5.433420	-1.388561	-0.043928	0.026336	-0.002095	-0.257568	0.759033	-0.050049	0.619587	-0.622534	-0.415673	-0.236179
44072		8.100131	-5.314049	-1.407436	-0.039631	0.047078	0.000036	-0.260498	0.761230	-0.051025	0.619608	-0.622693	-0.415233	-0.236476
44073		8.108050	-5.371860	-1.268963	-0.089864	0.084323	-0.001440	-0.264404	0.769287	-0.047363	0.619491	-0.623016	-0.414520	-0.237181
44074		7.921849	-5.752624	-1.144100	-0.123596	0.100290	0.001316	-0.273438	0.761230	-0.043457	0.619211	-0.623525	-0.413648	-0.238095
44075		7.775216	-5.924381	-1.008947	-0.117137	0.085284	0.010502	-0.273682	0.763184	-0.052002	0.618876	-0.623980	-0.412981	-0.238931
44076		7.664835	-5.993926	-1.156665	-0.072822	0.052305	0.006775	-0.264893	0.767822	-0.036621	0.618736	-0.624208	-0.412515	-0.239503
44077		7.877451	-5.642542	-1.258161	-0.034779	0.034040	0.005616	-0.266846	0.768066	-0.042480	0.618626	-0.624438	-0.412206	-0.239719
44078		7.956712	-5.595101	-1.251631	-0.037678	0.035801	0.009688	-0.262695	0.766602	-0.050293	0.618564	-0.624643	-0.411840	-0.239974
44079		7.998392	-5.566383	-1.168804	-0.029171	0.033025	0.008724	-0.276123	0.757324	-0.042725	0.618623	-0.624768	-0.411439	-0.240185
44080		7.959749	-5.600555	-1.187518	-0.005557	0.029041	0.013294	-0.260986	0.763672	-0.043213	0.618687	-0.624720	-0.411308	-0.240369
44081		8.012118	-5.537402	-1.339512	0.020028	0.019576	0.011068	-0.256592	0.760742	-0.039307	0.618904	-0.624662	-0.411115	-0.240290
44082		7.974621	-5.581767	-1.374673	0.009659	0.028710	0.015573	-0.265381	0.765625	-0.041504	0.619085	-0.624692	-0.410835	-0.240225
44083		7.875693	-5.717264	-1.229374	0.016626	0.034022	0.021608	-0.259033	0.763428	-0.038574	0.619312	-0.624656	-0.410550	-0.240222
44084		7.889171	-5.650206	-1.187127	0.036043	0.028237	0.020065	-0.261475	0.763672	-0.039795	0.619611	-0.624570	-0.410318	-0.240068
44085		7.960473	-5.589166	-1.229267	0.052702	0.028151	0.024663	-0.258545	0.778564	-0.044922	0.620001	-0.624395	-0.410116	-0.239863
44086		8.014131	-5.575809	-1.235821	0.051051	0.045437	0.027664	-0.260986	0.763672	-0.046875	0.620491	-0.624252	-0.409678	-0.239717
44087		7.966249	-5.587545	-1.282634	0.053262	0.056231	0.034330	-0.263916	0.767578	-0.046143	0.621048	-0.624006	-0.409266	-0.239621
44088		7.944775	-5.683002	-1.156067	0.064820	0.059850	0.036095	-0.258545	0.764404	-0.044189	0.621649	-0.623710	-0.408861	-0.239525
44089		7.941433	-5.617942	-1.119471	0.079644	0.056949	0.038298	-0.256104	0.762695	-0.040771	0.622313	-0.623380	-0.408484	-0.239301
44090		7.880985	-5.715723	-1.201710	0.092035	0.065013	0.043797	-0.254639	0.766846	-0.047119	0.623046	-0.623021	-0.408074	-0.239026
44091		7.873808	-5.823835	-1.120771	0.126936	0.058325	0.043909	-0.244629	0.769531	-0.055664	0.623982	-0.622481	-0.407718	-0.238598
44092		7.874294	-5.762944	-0.970714	0.161294	0.062420	0.044521	-0.252197	0.774902	-0.060791	0.625204	-0.621764	-0.407292	-0.237995
44093		7.853483	-5.745436	-0.844140	0.171548	0.070186	0.048855	-0.253662	0.774658	-0.050781	0.626501	-0.620955	-0.406846	-0.237461
44094		7.783078	-5.916768	-0.796633	0.204928	0.066681	0.044868	-0.257812	0.770508	-0.062500	0.627833	-0.620032	-0.406581	-0.236809
44095		7.816220	-5.838139	-0.868674	0.242169	0.042844	0.035802	-0.254150	0.765137	-0.057129	0.629316	-0.618829	-0.406575	-0.236025
44096		7.816701	-5.859185	-0.845714	0.215119	0.032887	0.027010	-0.251953	0.775391	-0.064453	0.630551	-0.617799	-0.406665	-0.235273
44097		7.792854	-5.959216	-0.785082	0.193135	0.027240	0.017718	-0.245117	0.766846	-0.065186	0.631670	-0.616889	-0.406691	-0.234613
44098		7.777646	-5.966568	-0.762612	0.193226	0.014939	0.006698	-0.252197	0.766357	-0.063721	0.632741	-0.615966	-0.406846	-0.233883
44099		7.821108	-5.903568	-0.774839	0.194971	-0.006872	0.001225	-0.252197	0.771240	-0.071289	0.633677	-0.615043	-0.407225	-0.233117
44100		7.820009	-5.914202	-0.835008	0.214862	-0.022338	-0.006434	-0.251953	0.759033	-0.072754	0.634684	-0.614009	-0.407706	-0.232263
44101		7.734977	-5.942077	-0.844833	0.242339	-0.034230	-0.010628	-0.250977	0.767578	-0.076660	0.635782	-0.612787	-0.408397	-0.231267
44102		7.792263	-5.877913	-0.903988	0.271752	-0.041969	-0.012910	-0.249023	0.766846	-0.081055	0.637002	-0.611455	-0.409130	-0.230138
44103		7.811138	-5.875419	-0.776026	0.290931	-0.042963	-0.007858	-0.247070	0.772217	-0.080566	0.638339	-0.610038	-0.409858	-0.228896
44104		7.881532	-5.742887	-0.512971	0.324991	-0.059907	-0.007945	-0.251465	0.767822	-0.087646	0.639758	-0.608526	-0.410712	-0.227424
44105		7.898138	-5.803758	-0.429002	0.366919	-0.072281	-0.007713	-0.249268	0.765625	-0.093994	0.641356	-0.606751	-0.411746	-0.225791
44106		7.842990	-5.849764	-0.512439	0.395309	-0.071354	-0.012510	-0.247559	0.761475	-0.103271	0.643111	-0.604789	-0.412829	-0.224076
44107		7.935779	-5.592740	-0.752299	0.334766	-0.056861	-0.013383	-0.251221	0.765137	-0.096191	0.644649	-0.603082	-0.413704	-0.222643
44108		7.925561	-5.670359	-0.686850	0.207445	-0.006234	-0.000095	-0.250732	0.756836	-0.100830	0.645640	-0.602072	-0.414066	-0.221828
44109		7.823765	-5.866313	-0.597122	0.152428	0.005246	-0.004601	-0.254639	0.760742	-0.106201	0.646410	-0.601273	-0.414315	-0.221287
44110		7.876051	-5.795304	-0.451760	0.132316	-0.000329	-0.014538	-0.250488	0.762939	-0.109131	0.647048	-0.600541	-0.414597	-0.220883
44111		7.880483	-5.800590	-0.412247	0.080701	0.012202	-0.013035	-0.254395	0.767334	-0.106934	0.647497	-0.600089	-0.414657	-0.220683
44112		7.769602	-5.963232	-0.397808	0.055707	0.015496	-0.019310	-0.250732	0.762207	-0.105225	0.647777	-0.599767	-0.414705	-0.220645
44113		7.914810	-5.761749	-0.513551	0.023619	0.025778	-0.020818	-0.257080	0.763916	-0.110107	0.647932	-0.599601	-0.414653	-0.220740
44114		7.844999	-5.837591	-0.504389	-0.033834	0.037150	-0.018736	-0.244873	0.762207	-0.102783	0.647851	-0.599686	-0.414444	-0.221138
44115		7.868869	-5.862618	-0.496524	-0.029297	0.028136	-0.018279	-0.252930	0.757080	-0.105957	0.647758	-0.599850	-0.414229	-0.221368
44116		7.862553	-5.763574	-0.519630	-0.017966	0.007336	-0.021237	-0.246582	0.760254	-0.102539	0.647646	-0.599902	-0.414240	-0.221534
44117		8.003775	-5.594206	-0.574834	-0.031379	0.000483	-0.018151	-0.249268	0.758789	-0.114258	0.647446	-0.600112	-0.414188	-0.221649
44118		7.903609	-5.770497	-0.442765	-0.066419	-0.006208	-0.015366	-0.257568	0.762207	-0.107422	0.647136	-0.600439	-0.414078	-0.221874
44119		7.732078	-5.978865	-0.373836	-0.033714	-0.044576	-0.015831	-0.250977	0.761719	-0.110107	0.646778	-0.600675	-0.414310	-0.221846
44120		7.852146	-5.785286	-0.428566	0.001878	-0.072831	-0.017703	-0.252441	0.763916	-0.102539	0.646548	-0.600770	-0.414704	-0.221521
44121		7.932385	-5.735788	-0.436321	-0.016223	-0.065561	-0.009615	-0.252441	0.762451	-0.107910	0.646206	-0.601026	-0.415009	-0.221252
44122		7.862158	-5.878186	-0.425863	-0.008919	-0.074640	-0.012893	-0.258057	0.764893	-0.101318	0.645910	-0.601205	-0.415379	-0.220936
44123		7.813829	-5.881121	-0.521824	0.024577	-0.086372	-0.016726	-0.250000	0.759033	-0.104492	0.645667	-0.601236	-0.415946	-0.220495
44124		7.911754	-5.794830	-0.597870	0.010708	-0.068772	-0.019389	-0.251465	0.758301	-0.096924	0.645469	-0.601291	-0.416355	-0.220154
44125		7.913321	-5.730457	-0.606776	-0.012856	-0.044819	-0.014424	-0.253174	0.757568	-0.101074	0.645186	-0.601484	-0.416602	-0.219990
44126		7.867491	-5.848813	-0.604935	-0.019120	-0.036206	-0.012950	-0.249268	0.758545	-0.095459	0.644933	-0.601661	-0.416786	-0.219897
44127		7.830907	-5.851533	-0.502262	0.013662	-0.057093	-0.011502	-0.246338	0.757812	-0.105225	0.644748	-0.601762	-0.417106	-0.219557
44128		7.858631	-5.832740	-0.492807	0.032028	-0.074632	-0.012748	-0.244141	0.769531	-0.104980	0.644680	-0.601735	-0.417514	-0.219055
44129		7.814736	-5.845483	-0.543280	0.029987	-0.081628	-0.017022	-0.255127	0.751709	-0.102539	0.644567	-0.601775	-0.417899	-0.218542
44130		7.820207	-5.806310	-0.574286	0.008447	-0.078155	-0.011949	-0.251709	0.771484	-0.102051	0.644323	-0.601839	-0.418390	-0.218145
44131		7.875830	-5.788243	-0.602458	0.000938	-0.083212	-0.012789	-0.255371	0.758057	-0.100342	0.644020	-0.602045	-0.418770	-0.217742
44132		7.917319	-5.745157	-0.745025	0.008046	-0.087543	-0.009040	-0.250977	0.754883	-0.112793	0.643730	-0.602174	-0.419267	-0.217288
44133		7.837819	-5.846555	-0.723179	0.002854	-0.080830	-0.006982	-0.243896	0.760498	-0.102539	0.643556	-0.602248	-0.419656	-0.216847
44134		7.839236	-5.848978	-0.718622	0.010535	-0.076747	-0.005328	-0.253662	0.769531	-0.106445	0.643381	-0.602400	-0.419959	-0.216359
44135		7.900703	-5.735391	-0.756223	-0.001349	-0.074939	-0.005082	-0.251953	0.759033	-0.097656	0.643145	-0.602576	-0.420264	-0.215972
44136		7.875121	-5.809632	-0.734985	-0.020955	-0.071067	-0.006060	-0.254639	0.757080	-0.097656	0.642770	-0.602870	-0.420572	-0.215668
44137		7.839832	-5.820829	-0.849868	-0.008081	-0.071885	-0.010513	-0.247803	0.751221	-0.105225	0.642446	-0.603058	-0.420960	-0.215353
44138		7.891815	-5.788880	-0.875421	-0.030855	-0.059051	-0.007963	-0.254639	0.764404	-0.101074	0.642143	-0.603310	-0.421176	-0.215129
44139		7.838457	-5.868997	-0.851677	-0.059661	-0.032239	-0.008684	-0.254639	0.756104	-0.110352	0.641732	-0.603707	-0.421207	-0.215182
44140		7.832271	-5.882857	-0.803675	-0.056227	-0.031400	-0.012469	-0.244141	0.755371	-0.093994	0.641416	-0.603971	-0.421281	-0.215238
44141		7.903407	-5.790749	-0.801981	-0.048680	-0.030989	-0.014409	-0.251465	0.760498	-0.093018	0.641049	-0.604339	-0.421308	-0.215244
44142		7.893939	-5.761402	-0.863814	-0.059097	-0.021998	-0.014760	-0.252197	0.760498	-0.094727	0.640634	-0.604732	-0.421311	-0.215370
44143		7.823095	-5.881479	-0.815475	-0.078395	-0.014799	-0.014663	-0.253174	0.761475	-0.085205	0.640165	-0.605193	-0.421245	-0.215600
44144		7.806213	-5.857016	-0.802734	-0.087230	-0.009370	-0.018769	-0.250488	0.760742	-0.100342	0.639593	-0.605736	-0.421165	-0.215927
44145		7.888489	-5.815724	-0.829339	-0.103857	0.008934	-0.020860	-0.258057	0.762207	-0.089355	0.639136	-0.606218	-0.420933	-0.216379
44146		7.838451	-5.886142	-0.772008	-0.123255	0.035588	-0.024455	-0.256592	0.768066	-0.092773	0.638566	-0.606784	-0.420612	-0.217099
44147		7.803612	-5.952335	-0.714523	-0.101941	0.031471	-0.037970	-0.245605	0.758789	-0.099365	0.638107	-0.607186	-0.420376	-0.217781
44148		7.842424	-5.843058	-0.730116	-0.065405	0.019489	-0.036892	-0.244873	0.763916	-0.083008	0.637891	-0.607383	-0.420198	-0.218207
44149		7.826609	-5.892681	-0.774177	-0.048847	0.016337	-0.043001	-0.254883	0.764404	-0.079590	0.637617	-0.607608	-0.420077	-0.218614
44150		7.790183	-5.924790	-0.841473	-0.050070	0.013904	-0.043770	-0.263428	0.761230	-0.089600	0.637276	-0.607817	-0.420060	-0.219060
44151		7.889885	-5.708018	-0.913626	-0.077357	0.031084	-0.044146	-0.258057	0.763672	-0.083740	0.636913	-0.608018	-0.419982	-0.219707
44152		7.926563	-5.700827	-0.892091	-0.152904	0.064683	-0.036558	-0.255615	0.765137	-0.083008	0.636277	-0.608653	-0.419487	-0.220734
44153		7.879567	-5.810785	-0.966315	-0.180705	0.071465	-0.040645	-0.249756	0.759521	-0.080078	0.635531	-0.609416	-0.418893	-0.221902
44154		7.930525	-5.743266	-0.981622	-0.198098	0.075792	-0.045631	-0.245117	0.762695	-0.077148	0.634712	-0.610261	-0.418236	-0.223159
44155		7.834092	-5.868737	-0.980843	-0.217528	0.087229	-0.046370	-0.255371	0.756104	-0.082275	0.633839	-0.611220	-0.417427	-0.224530
44156		7.838964	-5.848613	-0.972390	-0.223231	0.096646	-0.050202	-0.249756	0.759277	-0.075928	0.632989	-0.612054	-0.416695	-0.226008
44157		7.873891	-5.798896	-1.096051	-0.232113	0.114668	-0.048636	-0.257812	0.769043	-0.063232	0.632142	-0.612970	-0.415773	-0.227587
44158		7.903223	-5.747086	-1.064687	-0.226557	0.115315	-0.053195	-0.253662	0.760498	-0.066406	0.631215	-0.613899	-0.414917	-0.229215
44159		7.919567	-5.736127	-0.904178	-0.206644	0.104455	-0.051903	-0.253418	0.768799	-0.063232	0.630407	-0.614703	-0.414138	-0.230687
44160		7.915009	-5.737836	-0.880367	-0.167664	0.089681	-0.047510	-0.258057	0.763184	-0.065186	0.629748	-0.615377	-0.413447	-0.231927
44161		7.847026	-5.789860	-0.845536	-0.108795	0.056426	-0.046443	-0.257812	0.766846	-0.070068	0.629295	-0.615744	-0.413104	-0.232792
44162		7.859800	-5.751623	-0.840531	-0.045207	0.019181	-0.048320	-0.262207	0.768555	-0.062744	0.629083	-0.615816	-0.413063	-0.233248
44163		7.863240	-5.803521	-0.857490	0.015367	-0.016360	-0.046308	-0.259766	0.761230	-0.062256	0.629002	-0.615678	-0.413349	-0.233322
44164		7.924528	-5.668921	-0.875203	0.076087	-0.049136	-0.051531	-0.270020	0.765625	-0.072021	0.629115	-0.615263	-0.413956	-0.233038
44165		7.978901	-5.588017	-0.982125	0.087522	-0.051915	-0.044420	-0.265381	0.770752	-0.064453	0.629330	-0.614726	-0.414627	-0.232680
44166		7.942903	-5.608155	-0.983029	0.079335	-0.052046	-0.043023	-0.259033	0.754883	-0.066895	0.629457	-0.614333	-0.415210	-0.232338
44167		7.931606	-5.641047	-0.868953	0.082333	-0.061049	-0.042526	-0.257080	0.769287	-0.078613	0.629598	-0.613918	-0.415843	-0.231915
44168		7.890745	-5.745992	-0.801084	0.103313	-0.076219	-0.039620	-0.270996	0.765137	-0.074951	0.629885	-0.613413	-0.416496	-0.231302
44169		7.990070	-5.566203	-0.949427	0.144880	-0.093649	-0.031865	-0.261230	0.761230	-0.076172	0.630267	-0.612709	-0.417415	-0.230468
44170		8.025463	-5.522336	-0.957445	0.155806	-0.105303	-0.031024	-0.262939	0.762695	-0.070557	0.630690	-0.612008	-0.418338	-0.229497
44171		7.909527	-5.742452	-0.830355	0.199899	-0.126963	-0.022957	-0.262695	0.769287	-0.069824	0.631222	-0.611188	-0.419426	-0.228233
44172		8.008672	-5.557009	-0.900793	0.219606	-0.139487	-0.025018	-0.259521	0.750488	-0.078857	0.631788	-0.610313	-0.420600	-0.226844
44173		8.052266	-5.426777	-1.101646	0.112709	-0.076930	-0.018712	-0.258057	0.759277	-0.088867	0.632096	-0.609827	-0.421240	-0.226103
44174		7.827755	-5.833134	-1.067283	-0.003985	-0.015555	-0.016201	-0.267578	0.767334	-0.080811	0.632097	-0.609822	-0.421275	-0.226047
44175		7.814024	-5.869102	-1.001024	-0.002682	-0.015482	-0.023864	-0.263672	0.764160	-0.078369	0.632009	-0.609815	-0.421406	-0.226067
44176		7.971710	-5.659109	-1.048607	-0.007655	-0.002938	-0.027979	-0.263916	0.759521	-0.086670	0.631927	-0.609821	-0.421461	-0.226180
44177		7.968852	-5.689835	-1.041751	-0.023201	0.017385	-0.027345	-0.267822	0.764893	-0.072021	0.631895	-0.609809	-0.421385	-0.226441
44178		7.893926	-5.729084	-1.010731	-0.012977	0.019154	-0.023897	-0.259033	0.758545	-0.083252	0.631820	-0.609838	-0.421327	-0.226683
44179		7.937537	-5.704450	-0.994038	0.000795	0.015729	-0.024705	-0.264648	0.757568	-0.079834	0.631901	-0.609751	-0.421257	-0.226821
44180		7.937881	-5.674014	-0.923475	0.005371	0.018695	-0.026059	-0.260254	0.762207	-0.072021	0.631974	-0.609627	-0.421235	-0.226993
44181		7.915598	-5.788946	-0.855264	0.013931	0.011817	-0.027092	-0.268799	0.755859	-0.073730	0.632023	-0.609543	-0.421228	-0.227091
44182		7.913350	-5.670994	-0.929827	0.014307	0.010885	-0.030523	-0.260742	0.759521	-0.076172	0.632052	-0.609391	-0.421326	-0.227238
44183		7.884743	-5.757964	-0.854537	0.002760	0.010897	-0.030309	-0.264648	0.763184	-0.071045	0.632061	-0.609328	-0.421323	-0.227388
44184		7.927314	-5.722312	-0.819868	0.016860	0.000730	-0.032459	-0.267334	0.759277	-0.076172	0.632058	-0.609228	-0.421432	-0.227464
44185		7.914581	-5.666526	-0.849287	0.015250	-0.004348	-0.033375	-0.266602	0.763428	-0.077393	0.632054	-0.609093	-0.421596	-0.227531
44186		7.938447	-5.686247	-0.856636	0.020259	-0.000601	-0.030601	-0.268311	0.767822	-0.067627	0.632106	-0.608941	-0.421714	-0.227576
44187		7.936038	-5.665194	-0.865606	0.027506	-0.014278	-0.032707	-0.271729	0.757324	-0.080078	0.632073	-0.608832	-0.421935	-0.227549
44188		8.005430	-5.605164	-0.783593	0.049501	-0.023577	-0.031076	-0.269531	0.761475	-0.075684	0.632194	-0.608522	-0.422284	-0.227394
44189		7.945543	-5.658474	-0.802586	0.057440	-0.027738	-0.028473	-0.267334	0.760010	-0.077881	0.632320	-0.608236	-0.422627	-0.227171
44190		7.929921	-5.704067	-0.810376	0.061685	-0.032383	-0.031088	-0.270264	0.754883	-0.076416	0.632464	-0.607924	-0.422998	-0.226915
44191		7.926102	-5.697300	-0.883560	0.043213	-0.025483	-0.030115	-0.270264	0.754150	-0.083496	0.632519	-0.607691	-0.423329	-0.226770
44192		7.963634	-5.661944	-0.910390	0.026495	-0.014185	-0.029148	-0.271484	0.760254	-0.082520	0.632577	-0.607485	-0.423562	-0.226723
44193		7.988800	-5.582152	-0.939883	0.025839	-0.011506	-0.025550	-0.271973	0.754883	-0.077881	0.632637	-0.607309	-0.423750	-0.226674
44194		8.028904	-5.536799	-0.888648	0.002983	0.001078	-0.022710	-0.264404	0.755371	-0.079834	0.632597	-0.607259	-0.423830	-0.226770
44195		7.992356	-5.662468	-0.853665	-0.017994	0.008026	-0.022197	-0.268799	0.758057	-0.069580	0.632509	-0.607328	-0.423770	-0.226944
44196		7.917975	-5.747583	-0.773376	-0.007744	0.006686	-0.023921	-0.270996	0.755371	-0.077881	0.632387	-0.607393	-0.423766	-0.227118
44197		7.907397	-5.713151	-0.839778	0.001561	0.003012	-0.030601	-0.266357	0.762939	-0.079346	0.632339	-0.607322	-0.423861	-0.227264
44198		7.899208	-5.702305	-0.761837	-0.042100	0.007443	-0.030744	-0.273682	0.749268	-0.079834	0.632109	-0.607500	-0.423789	-0.227565
44199		7.918617	-5.748918	-0.734250	-0.057063	0.014160	-0.032832	-0.266113	0.751709	-0.085938	0.631812	-0.607668	-0.423763	-0.227988
44200		7.929481	-5.684639	-0.831246	-0.060873	0.012495	-0.033127	-0.278564	0.757324	-0.082275	0.631555	-0.607850	-0.423675	-0.228376
44201		7.982029	-5.642881	-0.864748	-0.094202	0.021455	-0.037021	-0.268799	0.756592	-0.085693	0.631104	-0.608160	-0.423572	-0.228987
44202		7.922122	-5.763537	-0.756118	-0.076613	0.010077	-0.037272	-0.275635	0.747803	-0.080566	0.630758	-0.608406	-0.423493	-0.229435
44203		7.978745	-5.617641	-0.764923	-0.024706	-0.021351	-0.046133	-0.272217	0.747559	-0.080566	0.630497	-0.608396	-0.423787	-0.229634
44204		8.056333	-5.531859	-0.927485	-0.006049	-0.023407	-0.048449	-0.270508	0.753662	-0.080566	0.630332	-0.608296	-0.424111	-0.229754
44205		8.019024	-5.532366	-1.109503	-0.018488	-0.009289	-0.044623	-0.275879	0.751221	-0.083496	0.630171	-0.608265	-0.424288	-0.229951
44206		8.024487	-5.536372	-1.129904	-0.038855	0.012543	-0.039802	-0.267090	0.749268	-0.072510	0.630003	-0.608270	-0.424335	-0.230313
44207		7.979986	-5.618718	-1.085867	-0.044177	0.019111	-0.037639	-0.276123	0.757080	-0.074951	0.629777	-0.608413	-0.424235	-0.230736
44208		8.002100	-5.550945	-1.013479	-0.043697	0.020285	-0.035141	-0.271484	0.759033	-0.064941	0.629567	-0.608516	-0.424174	-0.231151
44209		8.019723	-5.541719	-1.015392	-0.062790	0.039564	-0.030659	-0.268066	0.744141	-0.072510	0.629278	-0.608794	-0.423885	-0.231733
44210		8.020998	-5.533380	-1.030090	-0.069434	0.042466	-0.024391	-0.277588	0.750732	-0.077881	0.629041	-0.609047	-0.423567	-0.232292
44211		8.044754	-5.500224	-1.056337	-0.074715	0.054903	-0.024238	-0.272949	0.760986	-0.068604	0.628850	-0.609228	-0.423247	-0.232919
44212		8.101231	-5.512159	-1.005965	-0.069525	0.056140	-0.018352	-0.267578	0.756348	-0.070068	0.628650	-0.609505	-0.422816	-0.233516
44213		8.028438	-5.498318	-0.946061	-0.072456	0.058275	-0.016019	-0.278564	0.758301	-0.078125	0.628473	-0.609796	-0.422334	-0.234102
44214		8.020171	-5.593855	-0.832101	-0.092224	0.063390	-0.014826	-0.270264	0.758545	-0.070801	0.628258	-0.610075	-0.421884	-0.234765
44215		7.992341	-5.594938	-0.844808	-0.090483	0.058091	-0.014607	-0.283203	0.757324	-0.074707	0.628003	-0.610438	-0.421385	-0.235398
44216		7.998708	-5.511213	-0.901341	-0.104890	0.069604	-0.010473	-0.276367	0.754150	-0.063477	0.627727	-0.610782	-0.420879	-0.236144
44217		7.971362	-5.635501	-0.977272	-0.114780	0.070810	-0.011128	-0.270020	0.758057	-0.064453	0.627339	-0.611279	-0.420272	-0.236972
44218		7.971789	-5.616215	-0.928240	-0.103057	0.064417	-0.010148	-0.270996	0.757568	-0.069092	0.627024	-0.611736	-0.419679	-0.237677
44219		8.038221	-5.517708	-0.927167	-0.089553	0.062851	-0.010745	-0.270996	0.752441	-0.062988	0.626811	-0.612070	-0.419153	-0.238303
44220		8.022785	-5.557730	-0.905809	-0.103910	0.068947	-0.006175	-0.276855	0.757080	-0.053955	0.626511	-0.612522	-0.418530	-0.239027
44221		7.960375	-5.703333	-0.891660	-0.090399	0.061915	-0.006406	-0.270020	0.759033	-0.066162	0.626181	-0.612966	-0.417973	-0.239726
44222		7.979133	-5.652423	-0.880985	-0.073829	0.051685	-0.008259	-0.272217	0.757080	-0.054199	0.626015	-0.613252	-0.417517	-0.240222
44223		7.949375	-5.696888	-0.859304	-0.076054	0.051202	-0.009528	-0.276123	0.758545	-0.054932	0.625740	-0.613630	-0.417039	-0.240805
44224		7.994756	-5.639854	-0.896011	-0.062646	0.045622	-0.012149	-0.269531	0.756348	-0.065918	0.625513	-0.613912	-0.416661	-0.241327
44225		8.060738	-5.494954	-0.941906	-0.076066	0.048861	-0.013742	-0.278564	0.760986	-0.068115	0.625329	-0.614175	-0.416253	-0.241838
44226		8.028318	-5.583407	-0.932647	-0.089609	0.056723	-0.012424	-0.271484	0.756348	-0.056152	0.625110	-0.614447	-0.415833	-0.242437
44227		8.077104	-5.521906	-0.876702	-0.063042	0.044201	-0.012887	-0.280029	0.760254	-0.052979	0.624908	-0.614717	-0.415450	-0.242929
44228		8.060916	-5.504073	-0.839288	-0.053484	0.040431	-0.012287	-0.273926	0.755615	-0.059082	0.624709	-0.614941	-0.415141	-0.243402
44229		8.005273	-5.578083	-0.898893	-0.030597	0.023574	-0.010129	-0.272949	0.759766	-0.059326	0.624635	-0.615047	-0.414951	-0.243648
44230		8.022663	-5.540850	-0.998132	-0.041938	0.027986	-0.009507	-0.270264	0.762695	-0.050781	0.624528	-0.615209	-0.414701	-0.243938
44231		7.988985	-5.572163	-0.973026	-0.086133	0.053557	-0.006491	-0.277832	0.753906	-0.048340	0.624233	-0.615640	-0.414158	-0.244526
44232		7.968308	-5.694633	-0.899228	-0.097531	0.059125	-0.006506	-0.267578	0.750977	-0.049072	0.623866	-0.616093	-0.413618	-0.245236
44233		8.007287	-5.603132	-0.848107	-0.037729	0.033919	-0.011197	-0.273438	0.754395	-0.047607	0.623741	-0.616289	-0.413302	-0.245595
44234		8.114824	-5.399776	-0.940797	-0.026017	0.024709	-0.007391	-0.273193	0.754395	-0.046387	0.623636	-0.616445	-0.413068	-0.245865
44235		8.062133	-5.435587	-1.020030	-0.027658	0.032110	-0.001489	-0.274658	0.760498	-0.056641	0.623553	-0.616623	-0.412756	-0.246152
44236		8.029559	-5.525210	-0.963317	-0.008341	0.017239	-0.000294	-0.273193	0.756836	-0.047119	0.623603	-0.616646	-0.412603	-0.246222
44237		8.056639	-5.453678	-0.913688	0.015255	0.005579	0.002143	-0.267822	0.760010	-0.062256	0.623666	-0.616661	-0.412500	-0.246198
44238		8.027478	-5.563356	-0.893213	0.014686	0.003588	0.002871	-0.270508	0.764404	-0.050537	0.623848	-0.616582	-0.412430	-0.246053
44239		7.969292	-5.576126	-0.903471	0.019911	-0.003459	0.002177	-0.272949	0.751221	-0.049805	0.623934	-0.616586	-0.412366	-0.245932
44240		7.961920	-5.602230	-0.878354	0.007438	-0.003022	0.004253	-0.269287	0.758057	-0.054443	0.623947	-0.616636	-0.412307	-0.245874
44241		7.989246	-5.589267	-0.846723	0.032902	-0.018772	0.001910	-0.270508	0.755615	-0.052734	0.624076	-0.616563	-0.412375	-0.245614
44242		8.091433	-5.468738	-0.839770	0.045327	-0.030589	0.002077	-0.274658	0.760010	-0.051025	0.624209	-0.616458	-0.412535	-0.245269
44243		7.951759	-5.697129	-0.994774	0.033967	-0.030107	0.000703	-0.269043	0.765625	-0.055420	0.624262	-0.616414	-0.412686	-0.244993
44244		7.945922	-5.639522	-1.084748	0.047710	-0.025649	0.003821	-0.275879	0.758789	-0.052002	0.624448	-0.616297	-0.412793	-0.244630
44245		8.060194	-5.511650	-1.091974	0.030789	-0.012885	0.006945	-0.271484	0.762207	-0.044678	0.624556	-0.616244	-0.412831	-0.244423
44246		8.031796	-5.573465	-1.073176	0.023870	0.001101	0.005254	-0.270996	0.765869	-0.057617	0.624622	-0.616282	-0.412718	-0.244352
44247		8.004135	-5.575416	-0.990494	0.022687	0.011585	0.009697	-0.270508	0.757568	-0.057373	0.624825	-0.616220	-0.412572	-0.244237
44248		7.983779	-5.604628	-0.915239	0.022685	0.017065	0.009383	-0.265625	0.759766	-0.051270	0.625042	-0.616133	-0.412419	-0.244158
44249		7.959819	-5.738457	-0.913572	0.057204	0.001467	0.006482	-0.265869	0.759766	-0.057129	0.625334	-0.615967	-0.412365	-0.243921
44250		7.998639	-5.654239	-0.842630	0.081680	-0.010328	-0.000161	-0.270508	0.760498	-0.061279	0.625736	-0.615628	-0.412483	-0.243545
44251		7.989522	-5.630625	-0.873776	0.107809	-0.021989	0.002848	-0.267822	0.761963	-0.059326	0.626256	-0.615141	-0.412745	-0.242996
44252		8.032289	-5.479196	-0.966924	0.125652	-0.025392	0.002230	-0.263428	0.767334	-0.053711	0.626832	-0.614606	-0.413028	-0.242383
44253		8.122875	-5.386221	-1.034972	0.139116	-0.023433	0.005290	-0.270264	0.749512	-0.055176	0.627443	-0.614092	-0.413238	-0.241744
44254		8.028173	-5.581401	-0.944903	0.111422	-0.022693	0.003303	-0.267334	0.759277	-0.067139	0.627904	-0.613644	-0.413500	-0.241236
44255		7.854866	-5.836445	-0.936358	0.159470	-0.034601	0.011199	-0.260742	0.760742	-0.064209	0.628664	-0.612944	-0.413874	-0.240393
44256		7.929872	-5.737272	-0.936766	0.223239	-0.061338	0.008151	-0.266846	0.764648	-0.063965	0.629622	-0.612022	-0.414461	-0.239223
44257		7.869252	-5.821085	-0.708202	0.249342	-0.082553	0.015839	-0.267822	0.761230	-0.067383	0.630624	-0.611032	-0.415192	-0.237840
44258		7.725182	-5.993316	-0.793441	0.340182	-0.119522	0.020688	-0.261963	0.766357	-0.067139	0.631972	-0.609632	-0.416293	-0.235926
44259		7.957947	-5.582450	-0.974902	0.368958	-0.136711	0.015825	-0.263916	0.761230	-0.076904	0.633367	-0.608162	-0.417487	-0.233860
44260		7.986175	-5.575239	-0.869439	0.268744	-0.087139	0.021604	-0.263184	0.762939	-0.082520	0.634473	-0.607072	-0.418244	-0.232337
44261		7.886536	-5.795432	-0.683163	0.211226	-0.066636	0.021556	-0.266113	0.760010	-0.087158	0.635373	-0.606232	-0.418777	-0.231105
44262		7.961257	-5.734943	-0.606597	0.169203	-0.050204	0.019453	-0.273193	0.759277	-0.084229	0.636127	-0.605533	-0.419195	-0.230106
44263		7.875156	-5.814207	-0.573559	0.160574	-0.049721	0.014410	-0.265137	0.762695	-0.091797	0.636789	-0.604857	-0.419665	-0.229194
44264		7.937128	-5.699101	-0.712593	0.162342	-0.051587	0.008455	-0.261719	0.756836	-0.082031	0.637485	-0.604159	-0.420119	-0.228267
44265		7.934296	-5.764750	-0.763633	0.120872	-0.024689	0.005816	-0.259766	0.753662	-0.086914	0.637990	-0.603703	-0.420325	-0.227679
44266		7.935645	-5.692714	-0.859559	0.133805	-0.027361	0.007111	-0.262939	0.753174	-0.096436	0.638581	-0.603161	-0.420571	-0.227006
44267		8.109777	-5.506111	-0.862517	0.114559	-0.019671	0.003968	-0.261963	0.754883	-0.095947	0.639144	-0.602618	-0.420808	-0.226420
44268		7.966510	-5.666087	-0.688536	0.111552	-0.014296	0.011388	-0.262207	0.756592	-0.104492	0.639712	-0.602130	-0.420954	-0.225842
44269		7.814562	-5.846419	-0.501528	0.149046	-0.036095	0.005523	-0.264893	0.766602	-0.093262	0.640425	-0.601412	-0.421336	-0.225023
44270		7.956972	-5.722530	-0.347406	0.138301	-0.021471	0.007241	-0.267090	0.754150	-0.096436	0.641045	-0.600838	-0.421558	-0.224374
44271		7.881698	-5.806881	-0.207435	0.105857	0.020631	0.014401	-0.252930	0.761230	-0.095947	0.641678	-0.600326	-0.421524	-0.223999
44272		7.812970	-5.865807	-0.288141	0.139857	-0.006422	0.012194	-0.256104	0.753906	-0.091797	0.642381	-0.599772	-0.421566	-0.223388
44273		7.970593	-5.635325	-0.551670	0.162765	-0.048693	0.002690	-0.259277	0.758057	-0.101074	0.642994	-0.599144	-0.421961	-0.222560
44274		7.957393	-5.651116	-0.757695	0.136879	-0.066747	-0.000903	-0.261719	0.759521	-0.103760	0.643449	-0.598619	-0.422452	-0.221726
44275		7.964785	-5.647697	-0.830712	0.088202	-0.054792	-0.003054	-0.261963	0.751465	-0.108887	0.643703	-0.598309	-0.422817	-0.221132
44276		7.880227	-5.790253	-0.847739	0.059125	-0.047025	-0.000905	-0.262695	0.764893	-0.104736	0.643876	-0.598090	-0.423123	-0.220635
44277		7.894943	-5.762488	-0.754661	0.040796	-0.041460	-0.003726	-0.267090	0.760010	-0.105957	0.643931	-0.598021	-0.423318	-0.220286
44278		7.903285	-5.757828	-0.636173	0.022515	-0.033716	-0.000713	-0.264404	0.759277	-0.103271	0.643933	-0.598002	-0.423486	-0.220009
44279		7.901413	-5.763065	-0.487124	0.027949	-0.017763	0.003366	-0.260742	0.755371	-0.105469	0.644011	-0.597969	-0.423531	-0.219782
44280		7.944064	-5.719691	-0.559203	0.058668	-0.037318	-0.004414	-0.258057	0.750488	-0.108398	0.644179	-0.597771	-0.423764	-0.219381
44281		7.944281	-5.711763	-0.527891	0.058583	-0.053216	-0.000158	-0.262451	0.755371	-0.110107	0.644318	-0.597599	-0.424064	-0.218863
44282		7.907005	-5.784404	-0.658611	0.068014	-0.053527	-0.001488	-0.256592	0.756348	-0.112061	0.644499	-0.597357	-0.424410	-0.218316
44283		7.928944	-5.677716	-0.762046	0.055422	-0.048592	-0.001059	-0.254150	0.756348	-0.108887	0.644649	-0.597198	-0.424651	-0.217839
44284		7.939119	-5.719668	-0.773547	0.003531	-0.021440	0.001858	-0.260986	0.752930	-0.107178	0.644622	-0.597316	-0.424606	-0.217684
44285		7.889738	-5.786485	-0.677076	-0.030737	-0.002904	0.001851	-0.258057	0.757080	-0.108154	0.644475	-0.597548	-0.424476	-0.217734
44286		7.861482	-5.782015	-0.464296	-0.041077	0.008035	0.003004	-0.259766	0.755127	-0.108643	0.644327	-0.597838	-0.424222	-0.217874
44287		7.854372	-5.813551	-0.472439	-0.026501	-0.002474	0.000444	-0.259277	0.752686	-0.096191	0.644214	-0.598036	-0.424093	-0.217914
44288		7.869096	-5.836631	-0.557637	-0.018862	-0.010898	-0.004316	-0.269287	0.754395	-0.110352	0.644031	-0.598265	-0.424026	-0.217956
44289		7.903908	-5.780993	-0.690581	-0.018988	-0.009847	-0.005071	-0.259766	0.757080	-0.102539	0.643927	-0.598346	-0.424084	-0.217929
44290		7.923484	-5.800996	-0.715367	-0.045954	0.014665	-0.003354	-0.256348	0.756104	-0.099121	0.643739	-0.598642	-0.423828	-0.218169
44291		7.881410	-5.760313	-0.733723	-0.042745	0.017700	-0.008605	-0.250977	0.758545	-0.104004	0.643556	-0.598929	-0.423552	-0.218459
44292		7.952477	-5.680029	-0.730253	-0.048894	0.013525	-0.006236	-0.257812	0.757812	-0.097900	0.643367	-0.599264	-0.423224	-0.218733
44293		7.899144	-5.756290	-0.726340	-0.057402	0.014134	-0.005769	-0.257324	0.764160	-0.098389	0.643100	-0.599640	-0.422937	-0.219039
44294		7.853928	-5.843938	-0.666436	-0.057121	0.008441	-0.007693	-0.265381	0.766357	-0.109619	0.642813	-0.600035	-0.422658	-0.219341
44295		7.860309	-5.799592	-0.648154	-0.064837	0.010715	-0.010542	-0.253906	0.749756	-0.099854	0.642550	-0.600345	-0.422465	-0.219635
44296		7.877097	-5.804367	-0.672453	-0.083771	0.013956	-0.010861	-0.257812	0.761230	-0.095459	0.642176	-0.600807	-0.422170	-0.220032
44297		7.854221	-5.815599	-0.648559	-0.088498	0.008021	-0.012043	-0.237305	0.759033	-0.091553	0.641722	-0.601340	-0.421880	-0.220455
44298		7.879640	-5.799196	-0.687126	-0.073026	-0.007666	-0.015046	-0.259521	0.765381	-0.104492	0.641286	-0.601934	-0.421493	-0.220843
44299		7.854403	-5.815171	-0.710130	-0.050877	-0.019409	-0.015589	-0.256104	0.757812	-0.092285	0.640973	-0.602246	-0.421445	-0.220995
44300		7.795482	-5.881701	-0.753477	-0.029651	-0.031779	-0.013586	-0.257812	0.755615	-0.094727	0.640676	-0.602525	-0.421488	-0.221011
44301		7.789038	-5.918979	-0.797461	0.002754	-0.049087	-0.015972	-0.254150	0.757324	-0.094971	0.640495	-0.602618	-0.421733	-0.220815
44302		8.014187	-5.644196	-0.853578	0.016714	-0.048588	-0.013087	-0.262207	0.757812	-0.097900	0.640393	-0.602675	-0.421929	-0.220582
44303		8.135517	-5.464443	-0.823392	-0.033585	-0.011528	-0.006204	-0.253662	0.756592	-0.097168	0.640193	-0.602891	-0.421899	-0.220628
44304		7.964351	-5.706699	-0.778047	-0.059598	0.017258	-0.003344	-0.252441	0.759766	-0.096680	0.639972	-0.603252	-0.421556	-0.220936
44305		7.847192	-5.804791	-0.692802	-0.026125	0.020452	0.000833	-0.257080	0.762207	-0.099365	0.639935	-0.603464	-0.421202	-0.221140
44306		7.993225	-5.663335	-0.668810	-0.035898	0.025810	-0.003995	-0.256348	0.762939	-0.090088	0.639869	-0.603665	-0.420872	-0.221410
44307		8.006012	-5.648125	-0.653132	-0.074146	0.040471	0.005808	-0.253662	0.755859	-0.082031	0.639634	-0.604128	-0.420327	-0.221861
44308		7.902943	-5.769243	-0.651672	-0.096360	0.043603	0.006084	-0.257568	0.763672	-0.087891	0.639273	-0.604721	-0.419742	-0.222394
44309		7.843781	-5.822301	-0.628604	-0.091660	0.031904	0.004011	-0.254150	0.764648	-0.097412	0.638913	-0.605277	-0.419238	-0.222866
44310		7.899262	-5.754604	-0.656962	-0.094094	0.032027	0.003625	-0.249512	0.759033	-0.091553	0.638592	-0.605819	-0.418682	-0.223359
44311		7.895525	-5.714864	-0.759129	-0.118592	0.041795	0.009589	-0.258301	0.767822	-0.085938	0.638177	-0.606517	-0.417984	-0.223957
44312		7.867396	-5.822180	-0.920289	-0.099774	0.039632	0.009164	-0.254150	0.758057	-0.086670	0.637813	-0.607116	-0.417391	-0.224476
44313		7.959980	-5.692330	-1.029344	-0.084573	0.039385	0.007724	-0.248047	0.756592	-0.084961	0.637548	-0.607594	-0.416866	-0.224910
44314		7.912203	-5.679967	-1.007141	-0.097040	0.055588	0.017196	-0.253662	0.764160	-0.084473	0.637293	-0.608176	-0.416115	-0.225450
44315		7.837370	-5.857182	-0.825713	-0.085951	0.059299	0.017443	-0.252441	0.762939	-0.082031	0.637095	-0.608686	-0.415388	-0.225972
44316		7.797302	-5.917421	-0.757820	-0.046937	0.042910	0.010560	-0.248535	0.765137	-0.080078	0.637021	-0.609000	-0.414859	-0.226309
44317		7.832684	-5.856950	-0.656950	-0.042815	0.038963	0.008895	-0.259766	0.769775	-0.087891	0.636939	-0.609336	-0.414296	-0.226665
44318		7.805250	-5.902391	-0.572298	-0.046506	0.032608	0.005803	-0.252197	0.758545	-0.080566	0.636840	-0.609602	-0.413898	-0.226955
44319		7.864439	-5.842023	-0.566230	-0.018658	0.019281	0.007324	-0.255371	0.766113	-0.075928	0.636833	-0.609762	-0.413621	-0.227049
44320		7.877030	-5.808598	-0.681003	-0.002258	0.003385	0.000554	-0.254150	0.764404	-0.083984	0.636807	-0.609877	-0.413478	-0.227073
44321		7.857186	-5.809781	-0.754543	-0.015158	0.007640	-0.002969	-0.244629	0.754883	-0.081055	0.636763	-0.610007	-0.413299	-0.227174
44322		7.820780	-5.911184	-0.819307	-0.030245	0.013828	-0.003568	-0.250244	0.766602	-0.083740	0.636668	-0.610227	-0.413015	-0.227367
44323		7.818116	-5.889127	-0.784953	-0.025913	0.009585	-0.007775	-0.251465	0.769287	-0.081787	0.636561	-0.610433	-0.412754	-0.227587
44324		7.879665	-5.792777	-0.847736	-0.014074	0.009470	-0.010408	-0.249268	0.764648	-0.072021	0.636495	-0.610581	-0.412523	-0.227793
44325		7.901751	-5.755865	-0.842444	-0.004735	0.003603	-0.011379	-0.246338	0.770752	-0.079590	0.636426	-0.610706	-0.412373	-0.227921
44326		7.869773	-5.723742	-0.755127	-0.010499	0.007501	-0.009431	-0.250488	0.764160	-0.082764	0.636358	-0.610900	-0.412057	-0.228164
44327		7.848277	-5.877704	-0.605355	-0.021329	0.025611	-0.004166	-0.251709	0.770264	-0.070068	0.636339	-0.611047	-0.411731	-0.228412
44328		7.803497	-5.940870	-0.643047	0.023530	-0.006718	-0.011409	-0.254150	0.764404	-0.081787	0.636362	-0.611058	-0.411678	-0.228414
44329		7.852187	-5.807387	-0.738685	0.049082	-0.024228	-0.014754	-0.245361	0.767822	-0.080566	0.636511	-0.610861	-0.411866	-0.228185
44330		7.872053	-5.781636	-0.810431	0.032986	-0.021181	-0.017025	-0.242920	0.767822	-0.080078	0.636558	-0.610843	-0.411831	-0.228168
44331		7.856250	-5.828673	-0.819685	0.001137	-0.008909	-0.017977	-0.253906	0.763428	-0.087158	0.636474	-0.610995	-0.411627	-0.228360
44332		7.827102	-5.857747	-0.733175	-0.006508	-0.008403	-0.016778	-0.245850	0.758301	-0.074219	0.636409	-0.611042	-0.411627	-0.228417
44333		7.890001	-5.804606	-0.746962	0.005002	-0.020149	-0.022542	-0.249268	0.757324	-0.080566	0.636315	-0.611088	-0.411705	-0.228414
44334		7.891401	-5.749894	-0.767534	0.000502	-0.016956	-0.024938	-0.250977	0.767334	-0.085938	0.636235	-0.611092	-0.411822	-0.228418
44335		7.867802	-5.816711	-0.767455	-0.005176	-0.018100	-0.024135	-0.251465	0.765137	-0.073242	0.636107	-0.611190	-0.411803	-0.228544
44336		7.859700	-5.830901	-0.772976	0.005749	-0.026368	-0.029590	-0.251465	0.768066	-0.074707	0.635964	-0.611231	-0.411954	-0.228563
44337		7.837975	-5.841654	-0.745319	0.012668	-0.028157	-0.029106	-0.250244	0.763184	-0.083984	0.635844	-0.611264	-0.412073	-0.228591
44338		7.866762	-5.826588	-0.763715	0.024616	-0.033263	-0.032875	-0.259033	0.754883	-0.078613	0.635805	-0.611188	-0.412267	-0.228553
44339		7.874410	-5.787820	-0.773392	0.026048	-0.031035	-0.034583	-0.251709	0.757812	-0.087402	0.635809	-0.610943	-0.412764	-0.228301
44340		7.850137	-5.850181	-0.785986	0.017794	-0.019394	-0.039167	-0.253662	0.762207	-0.079102	0.635802	-0.610794	-0.412984	-0.228320
44341		7.905749	-5.836886	-0.882280	0.022487	-0.009714	-0.045857	-0.253906	0.768066	-0.074951	0.635799	-0.610619	-0.413189	-0.228427
44342		7.813160	-5.810557	-0.878842	-0.000370	0.000214	-0.051587	-0.251221	0.764404	-0.084473	0.635667	-0.610587	-0.413255	-0.228759
44343		7.791520	-5.875293	-0.695112	-0.019696	0.001960	-0.052600	-0.251221	0.764404	-0.079834	0.635477	-0.610634	-0.413239	-0.229189
44344		7.856443	-5.785104	-0.595245	0.003894	-0.014544	-0.052262	-0.254150	0.759521	-0.078369	0.635337	-0.610603	-0.413357	-0.229451
44345		7.941867	-5.706744	-0.667178	0.042090	-0.035134	-0.048665	-0.249023	0.766357	-0.078857	0.635345	-0.610355	-0.413758	-0.229362
44346		7.994465	-5.637886	-0.796907	0.060213	-0.047598	-0.050494	-0.262939	0.765625	-0.073975	0.635362	-0.610150	-0.414058	-0.229323
44347		7.956963	-5.703779	-0.807738	0.048130	-0.039732	-0.039954	-0.260010	0.755371	-0.076660	0.635376	-0.609898	-0.414522	-0.229114
44348		7.869472	-5.788836	-0.740006	0.041537	-0.039667	-0.040543	-0.251221	0.765869	-0.083008	0.635398	-0.609612	-0.415058	-0.228844
44349		7.863190	-5.787237	-0.679680	0.048443	-0.041788	-0.038415	-0.259033	0.760010	-0.077637	0.635407	-0.609487	-0.415247	-0.228809
44350		7.895118	-5.726090	-0.688015	0.041244	-0.048057	-0.038441	-0.260010	0.757812	-0.083740	0.635379	-0.609290	-0.415704	-0.228579
44351		7.859870	-5.781268	-0.622854	0.041065	-0.057530	-0.035622	-0.270020	0.764648	-0.091553	0.635349	-0.609090	-0.416214	-0.228269
44352		7.870927	-5.756037	-0.637671	0.071392	-0.072013	-0.038562	-0.252930	0.758545	-0.082275	0.635424	-0.608712	-0.416914	-0.227792
44353		8.000321	-5.666118	-0.836992	0.085610	-0.077520	-0.036054	-0.255615	0.763916	-0.089844	0.635523	-0.608403	-0.417461	-0.227337
44354		7.984085	-5.627036	-0.935572	0.064156	-0.073168	-0.037348	-0.261230	0.761719	-0.088135	0.635526	-0.608217	-0.417883	-0.227051
44355		7.913175	-5.737701	-0.937436	0.051280	-0.058615	-0.032932	-0.260254	0.758545	-0.082275	0.635533	-0.608020	-0.418314	-0.226764
44356		7.939864	-5.759896	-0.752137	0.048145	-0.049288	-0.035213	-0.263184	0.765137	-0.082275	0.635547	-0.607803	-0.418753	-0.226500
44357		7.831599	-5.862798	-0.639373	0.044533	-0.055638	-0.038195	-0.260742	0.758789	-0.087646	0.635490	-0.607647	-0.419176	-0.226293
44358		7.813652	-5.875321	-0.597115	0.071909	-0.073993	-0.046525	-0.262939	0.764648	-0.084961	0.635525	-0.607315	-0.419812	-0.225908
44359		7.920496	-5.797776	-0.585135	0.077676	-0.074410	-0.054705	-0.266846	0.758057	-0.085449	0.635542	-0.606970	-0.420451	-0.225599
44360		7.856224	-5.768307	-0.754173	0.068992	-0.077861	-0.051795	-0.265137	0.752197	-0.083740	0.635540	-0.606592	-0.421237	-0.225154
44361		7.950113	-5.727017	-0.674867	0.038047	-0.071524	-0.055616	-0.262939	0.754883	-0.091064	0.635411	-0.606321	-0.422003	-0.224815
44362		7.942426	-5.713173	-0.783927	0.021388	-0.068194	-0.052823	-0.266602	0.751953	-0.091797	0.635214	-0.606194	-0.422574	-0.224640
44363		7.938645	-5.664628	-0.901546	0.017911	-0.056802	-0.056640	-0.267578	0.759277	-0.091797	0.635050	-0.605995	-0.423189	-0.224483
44364		7.915233	-5.713951	-0.900029	-0.018964	-0.038525	-0.056586	-0.266602	0.753174	-0.088135	0.634734	-0.606026	-0.423532	-0.224646
44365		7.847132	-5.776104	-0.774658	-0.052062	-0.035811	-0.056953	-0.272705	0.763672	-0.081543	0.634272	-0.606189	-0.423870	-0.224874
44366		7.926657	-5.725972	-0.682521	-0.056790	-0.044626	-0.060611	-0.270996	0.757324	-0.086670	0.633699	-0.606435	-0.424226	-0.225155
44367		7.875020	-5.819999	-0.660665	-0.045089	-0.054557	-0.068532	-0.266602	0.757812	-0.079834	0.633172	-0.606567	-0.424720	-0.225349
44368		7.903775	-5.702973	-0.881224	-0.046485	-0.059195	-0.070889	-0.271729	0.752686	-0.085693	0.632592	-0.606766	-0.425173	-0.225589
44369		7.909910	-5.740971	-0.889272	-0.096345	-0.034493	-0.069950	-0.269531	0.755371	-0.080078	0.631890	-0.607094	-0.425513	-0.226033
44370		7.865239	-5.805983	-0.729500	-0.103144	-0.044910	-0.074089	-0.278809	0.751709	-0.077881	0.631082	-0.607519	-0.425840	-0.226529
44371		7.923486	-5.715338	-0.751391	-0.054666	-0.067929	-0.081183	-0.274414	0.752197	-0.073730	0.630443	-0.607608	-0.426597	-0.226647
44372		7.944382	-5.590726	-0.881318	-0.044365	-0.089833	-0.082893	-0.273193	0.752930	-0.069336	0.629756	-0.607738	-0.427402	-0.226693
44373		7.990853	-5.629366	-0.961033	-0.055153	-0.086349	-0.080065	-0.289551	0.755127	-0.080322	0.629014	-0.607963	-0.428111	-0.226813
44374		7.943279	-5.650948	-0.853945	-0.045909	-0.094865	-0.079403	-0.278076	0.754639	-0.078369	0.628331	-0.608033	-0.429045	-0.226754
44375		7.995320	-5.627861	-0.982137	-0.000457	-0.116153	-0.082827	-0.276367	0.745117	-0.084229	0.627783	-0.607990	-0.430013	-0.226554
44376		8.025176	-5.538815	-0.968930	0.012803	-0.112422	-0.078255	-0.283447	0.758789	-0.075684	0.627367	-0.607825	-0.431017	-0.226239
44377		7.995539	-5.558614	-0.968240	-0.009620	-0.104669	-0.076520	-0.291504	0.747559	-0.075928	0.626807	-0.607845	-0.431867	-0.226116
44378		8.020203	-5.549559	-0.956079	-0.011506	-0.097459	-0.080685	-0.282471	0.745605	-0.079590	0.626286	-0.607722	-0.432898	-0.225917
44379		8.046279	-5.464545	-0.988332	-0.013443	-0.095786	-0.080194	-0.290039	0.747070	-0.076904	0.625775	-0.607658	-0.433790	-0.225795
44380		8.133054	-5.403295	-1.097989	-0.029460	-0.082270	-0.080106	-0.284180	0.738770	-0.078613	0.625219	-0.607632	-0.434636	-0.225781
44381		8.063552	-5.483977	-1.088330	-0.070690	-0.072372	-0.079091	-0.285400	0.749268	-0.066895	0.624514	-0.607797	-0.435330	-0.225950
44382		7.872922	-5.770669	-0.980225	-0.068409	-0.081613	-0.082975	-0.293213	0.757324	-0.073975	0.623716	-0.608052	-0.435999	-0.226176
44383		8.021694	-5.525871	-1.111277	-0.045020	-0.098737	-0.090794	-0.287842	0.744873	-0.076904	0.622979	-0.608160	-0.436853	-0.226270
44384		8.086402	-5.421637	-1.165684	-0.071483	-0.080418	-0.087004	-0.289795	0.745605	-0.076416	0.622217	-0.608345	-0.437567	-0.226489
44385		8.009822	-5.605750	-1.133740	-0.073729	-0.076215	-0.089575	-0.294922	0.741943	-0.073242	0.621454	-0.608523	-0.438268	-0.226753
44386		8.014036	-5.457701	-1.180806	-0.045560	-0.085566	-0.093147	-0.287109	0.739014	-0.076904	0.620784	-0.608534	-0.439140	-0.226867
44387		8.140370	-5.333196	-1.180641	-0.067993	-0.075995	-0.085478	-0.293701	0.741699	-0.067627	0.620077	-0.608685	-0.439821	-0.227078
44388		8.024889	-5.563104	-1.089621	-0.076648	-0.078065	-0.084715	-0.301758	0.744629	-0.069092	0.619275	-0.608914	-0.440501	-0.227335
44389		7.898052	-5.696998	-0.960340	-0.074428	-0.085325	-0.092541	-0.300537	0.739990	-0.072266	0.618446	-0.609085	-0.441302	-0.227578
44390		7.880959	-5.615488	-0.745089	-0.081637	-0.098865	-0.100500	-0.295654	0.739014	-0.060059	0.617539	-0.609266	-0.442207	-0.227802
44391		8.004733	-5.513454	-0.725049	-0.107087	-0.098790	-0.102983	-0.303955	0.745605	-0.058105	0.616450	-0.609651	-0.442993	-0.228192
44392		7.996644	-5.627864	-0.865590	-0.080465	-0.106806	-0.111188	-0.303223	0.741699	-0.063965	0.615439	-0.609878	-0.443929	-0.228495
44393		8.112073	-5.253273	-0.905560	-0.060422	-0.135414	-0.127043	-0.302490	0.741699	-0.063721	0.614434	-0.609954	-0.445150	-0.228624
44394		8.062687	-5.362498	-0.887625	-0.129308	-0.135570	-0.123699	-0.304688	0.734131	-0.066406	0.613090	-0.610397	-0.446205	-0.228991
44395		7.929388	-5.541207	-1.103932	-0.126430	-0.175201	-0.128592	-0.307129	0.742920	-0.056396	0.611627	-0.610836	-0.447531	-0.229144
44396		8.072714	-5.238923	-1.242914	-0.150608	-0.187681	-0.128094	-0.309814	0.739990	-0.050293	0.609951	-0.611486	-0.448813	-0.229371
44397		8.112575	-5.230727	-1.416114	-0.179042	-0.186199	-0.122123	-0.314209	0.738770	-0.048096	0.608124	-0.612314	-0.449993	-0.229703
44398		8.124271	-5.185404	-1.683091	-0.135502	-0.204000	-0.122723	-0.310303	0.737549	-0.049072	0.606449	-0.612935	-0.451365	-0.229783
44399		8.175221	-5.079846	-1.943630	-0.123200	-0.199713	-0.116510	-0.312988	0.736572	-0.040039	0.604889	-0.613496	-0.452695	-0.229781
44400		8.194090	-5.009948	-2.171950	-0.116539	-0.176664	-0.104560	-0.320557	0.730713	-0.036621	0.603431	-0.614065	-0.453831	-0.229853
44401		8.251024	-5.027200	-2.240584	-0.098052	-0.152146	-0.091021	-0.326172	0.729492	-0.036621	0.602168	-0.614529	-0.454838	-0.229935
44402		8.309601	-4.947971	-2.357584	-0.060191	-0.129088	-0.079990	-0.321045	0.734863	-0.033203	0.601212	-0.614772	-0.455776	-0.229930
44403		8.410588	-4.731057	-2.459295	-0.054891	-0.080549	-0.056724	-0.327881	0.734131	-0.038086	0.600510	-0.615020	-0.456314	-0.230034
44404		8.347080	-4.877208	-2.556171	-0.061373	-0.030674	-0.036694	-0.318359	0.734375	-0.040527	0.600031	-0.615220	-0.456546	-0.230289
44405		8.329508	-4.898604	-2.547712	-0.013641	0.000556	-0.021284	-0.325928	0.729492	-0.036621	0.599975	-0.615183	-0.456610	-0.230406
44406		8.513395	-4.563312	-2.491807	0.029129	0.029095	-0.008983	-0.318115	0.725098	-0.031738	0.600234	-0.614938	-0.456552	-0.230502
44407		8.518881	-4.743936	-1.783178	-0.016648	0.093967	-0.012501	-0.323730	0.726318	-0.032227	0.600470	-0.614845	-0.456039	-0.231151
44408		7.914886	-5.601494	-2.082554	-0.022988	0.112906	0.016871	-0.318848	0.728271	-0.038086	0.600800	-0.614842	-0.455288	-0.231781
44409		8.269078	-4.986919	-2.063846	-0.011462	0.110341	0.015303	-0.322266	0.731689	-0.029541	0.601217	-0.614745	-0.454601	-0.232302
44410		8.200347	-5.120494	-1.475926	-0.077381	0.151972	0.028796	-0.314941	0.731689	-0.038086	0.601421	-0.615016	-0.453458	-0.233287
44411		7.942443	-5.745785	-1.060690	-0.017288	0.102667	0.021235	-0.315430	0.739014	-0.039307	0.601795	-0.614996	-0.452753	-0.233747
44412		7.832959	-5.693912	-1.226083	0.076020	0.035614	0.009416	-0.315918	0.734619	-0.038818	0.602379	-0.614589	-0.452630	-0.233553
44413		8.050443	-5.335895	-1.502604	0.067580	0.024210	0.003465	-0.310303	0.736084	-0.036377	0.602850	-0.614236	-0.452565	-0.233389
44414		8.072823	-5.377900	-1.447401	0.006053	0.052950	0.008109	-0.316406	0.739990	-0.035889	0.603109	-0.614193	-0.452176	-0.233585
44415		8.162229	-5.335782	-1.480913	0.024449	0.041033	-0.002450	-0.320068	0.733398	-0.034668	0.603389	-0.614035	-0.451948	-0.233720
44416		8.246810	-5.058970	-1.593732	0.052920	0.033442	-0.005998	-0.324219	0.726562	-0.040039	0.603762	-0.613741	-0.451826	-0.233765
44417		8.256735	-5.158049	-1.671671	0.071620	0.036387	0.000872	-0.316162	0.737549	-0.041748	0.604275	-0.613328	-0.451728	-0.233715
44418		8.223006	-5.061993	-1.751253	0.064965	0.051474	0.010848	-0.328125	0.731689	-0.040283	0.604848	-0.612968	-0.451477	-0.233661
44419		8.280711	-5.022269	-1.663313	0.029907	0.084622	0.023909	-0.314453	0.734375	-0.040771	0.605362	-0.612768	-0.450929	-0.233913
44420		8.149104	-5.285981	-1.480478	0.042037	0.083862	0.031188	-0.304688	0.727295	-0.045166	0.605960	-0.612561	-0.450344	-0.234031
44421		8.204144	-5.205573	-1.625675	0.104779	0.064909	0.026295	-0.309326	0.734619	-0.050537	0.606821	-0.612046	-0.450002	-0.233807
44422		8.254434	-5.086593	-1.696751	0.083413	0.083352	0.035266	-0.311523	0.734863	-0.048096	0.607680	-0.611600	-0.449513	-0.233686
44423		8.176711	-5.239725	-1.602399	0.060680	0.108339	0.042320	-0.310791	0.737549	-0.044434	0.608503	-0.611273	-0.448795	-0.233778
44424		8.154609	-5.264512	-1.550179	0.073287	0.109628	0.048897	-0.313477	0.737061	-0.047607	0.609382	-0.610940	-0.448035	-0.233820
44425		8.205986	-5.186879	-1.595612	0.110346	0.106403	0.053096	-0.313477	0.739258	-0.051270	0.610450	-0.610420	-0.447356	-0.233687
44426		8.273197	-5.143129	-1.726509	0.147219	0.100645	0.057337	-0.310791	0.732178	-0.052490	0.611703	-0.609725	-0.446769	-0.233351
44427		8.261707	-5.135413	-1.829689	0.164830	0.115952	0.067718	-0.312500	0.733398	-0.063721	0.613111	-0.608959	-0.446069	-0.232993
44428		8.303208	-5.128363	-1.877935	0.180824	0.144677	0.083025	-0.295898	0.736328	-0.052002	0.614780	-0.608045	-0.445227	-0.232594
44429		8.287366	-5.123434	-1.877965	0.199196	0.169494	0.091441	-0.296631	0.735840	-0.059570	0.616579	-0.607145	-0.444150	-0.232239
44430		8.315140	-5.131994	-1.563951	0.194814	0.198693	0.103438	-0.299316	0.744141	-0.063721	0.618506	-0.606216	-0.442881	-0.231966
44431		8.241043	-5.181576	-1.158986	0.205321	0.211262	0.112236	-0.303223	0.743408	-0.066650	0.620550	-0.605225	-0.441536	-0.231660
44432		8.049857	-5.473689	-0.981509	0.220471	0.200062	0.129905	-0.297363	0.752930	-0.068115	0.622651	-0.604234	-0.440188	-0.231174
44433		8.012737	-5.549979	-0.941268	0.239920	0.178460	0.132063	-0.297363	0.741211	-0.080566	0.624766	-0.603207	-0.438966	-0.230473
44434		7.966840	-5.452835	-0.728455	0.190331	0.185802	0.121944	-0.298584	0.747070	-0.069580	0.626672	-0.602323	-0.437694	-0.230029
44435		7.860946	-5.656331	-0.465164	0.139339	0.190456	0.124603	-0.294434	0.749756	-0.074951	0.628268	-0.601793	-0.436222	-0.229856
44436		7.811909	-5.783987	-0.292919	0.153397	0.145196	0.104993	-0.288818	0.747803	-0.085449	0.629748	-0.601186	-0.435123	-0.229479
44437		7.887949	-5.677758	-0.253043	0.159145	0.103153	0.084370	-0.291992	0.741943	-0.089844	0.631105	-0.600505	-0.434387	-0.228929
44438		7.919183	-5.594258	-0.427515	0.114592	0.093803	0.080100	-0.276123	0.750488	-0.089355	0.632199	-0.600040	-0.433646	-0.228532
44439		7.823741	-5.764246	-0.573499	0.087664	0.084591	0.074523	-0.274902	0.748779	-0.098877	0.633117	-0.599747	-0.432903	-0.228168
44440		7.908956	-5.770735	-0.706467	0.105517	0.060925	0.061358	-0.280029	0.745605	-0.089600	0.634051	-0.599306	-0.432418	-0.227655
44441		7.941771	-5.712299	-0.847854	0.129638	0.051011	0.050125	-0.281494	0.755859	-0.086670	0.634988	-0.598775	-0.432045	-0.227145
44442		7.970185	-5.657963	-0.913186	0.129705	0.050929	0.040556	-0.280273	0.744873	-0.096191	0.635887	-0.598235	-0.431710	-0.226693
44443		7.973680	-5.653808	-0.802546	0.120873	0.055348	0.035717	-0.275391	0.739258	-0.095947	0.636780	-0.597668	-0.431383	-0.226305
44444		7.872525	-5.776293	-0.622039	0.140008	0.047471	0.029451	-0.277100	0.751709	-0.098877	0.637720	-0.597006	-0.431148	-0.225851
44445		7.915208	-5.790278	-0.505309	0.170742	0.034070	0.019715	-0.283447	0.750000	-0.095947	0.638751	-0.596163	-0.431103	-0.225249
44446		7.862798	-5.854516	-0.427729	0.157808	0.022078	0.013401	-0.271240	0.750000	-0.102539	0.639632	-0.595412	-0.431113	-0.224715
44447		7.821874	-5.881880	-0.287869	0.141203	0.012228	0.004429	-0.274170	0.750732	-0.106689	0.640410	-0.594718	-0.431192	-0.224185
44448		7.847268	-5.805313	-0.234443	0.130026	-0.003270	-0.005527	-0.279541	0.752441	-0.100586	0.641065	-0.594059	-0.431394	-0.223670
44449		7.847416	-5.747928	-0.199260	0.113322	-0.023038	-0.009947	-0.278809	0.749756	-0.109131	0.641520	-0.593550	-0.431670	-0.223186
44450		7.896558	-5.786313	-0.298765	0.138095	-0.069018	-0.019439	-0.287354	0.754150	-0.106689	0.641945	-0.592918	-0.432308	-0.222409
44451		8.021395	-5.573803	-0.507206	0.151546	-0.098095	-0.025132	-0.283936	0.742920	-0.114990	0.642296	-0.592261	-0.433152	-0.221500
44452		8.061682	-5.491339	-0.605865	0.112523	-0.084861	-0.015757	-0.276611	0.752441	-0.112549	0.642549	-0.591784	-0.433822	-0.220726
44453		8.024453	-5.584162	-0.662192	0.106062	-0.095789	-0.010868	-0.284912	0.747559	-0.110596	0.642735	-0.591406	-0.434494	-0.219876
44454		8.013740	-5.611542	-0.697724	0.152445	-0.125313	-0.009938	-0.270752	0.746582	-0.113770	0.643022	-0.590844	-0.435404	-0.218746
44455		8.035712	-5.562095	-0.755942	0.201778	-0.152344	-0.006791	-0.287109	0.750977	-0.111572	0.643480	-0.590077	-0.436516	-0.217248
44456		8.119589	-5.402024	-0.881978	0.199250	-0.132982	0.000671	-0.269043	0.747559	-0.113037	0.643974	-0.589323	-0.437495	-0.215856
44457		8.134561	-5.372312	-0.790603	0.065402	-0.057566	0.011613	-0.277588	0.748047	-0.109375	0.644122	-0.589205	-0.437742	-0.215234
44458		7.842722	-5.846726	-0.526865	-0.025452	-0.005614	0.014175	-0.275391	0.743652	-0.118408	0.643992	-0.589506	-0.437536	-0.215218
44459		7.814800	-5.956738	-0.421905	-0.012664	-0.020468	-0.000776	-0.282715	0.753174	-0.115234	0.643883	-0.589661	-0.437531	-0.215131
44460		7.964301	-5.730127	-0.613865	0.011051	-0.035222	-0.013294	-0.285156	0.752441	-0.114502	0.643796	-0.589681	-0.437714	-0.214963
44461		7.980987	-5.662346	-0.685183	-0.011268	-0.014991	-0.013030	-0.280518	0.746094	-0.111328	0.643669	-0.589787	-0.437750	-0.214981
44462		7.909656	-5.747643	-0.749479	-0.031599	-0.011828	-0.013226	-0.276611	0.744873	-0.114502	0.643445	-0.590012	-0.437717	-0.215101
44463		7.909167	-5.770391	-0.712490	-0.016956	-0.023213	-0.016305	-0.277100	0.745605	-0.117676	0.643265	-0.590152	-0.437787	-0.215112
44464		7.959587	-5.703484	-0.656183	0.009775	-0.046402	-0.021293	-0.277832	0.748291	-0.114746	0.643137	-0.590154	-0.438065	-0.214926
44465		7.949959	-5.707625	-0.645254	0.034984	-0.063547	-0.022751	-0.280273	0.750244	-0.103760	0.643055	-0.590061	-0.438479	-0.214579
44466		7.906203	-5.762413	-0.665335	0.072999	-0.083943	-0.025299	-0.287598	0.741943	-0.113770	0.643037	-0.589845	-0.439058	-0.214044
44467		7.917597	-5.725996	-0.740939	0.105949	-0.100063	-0.028610	-0.277100	0.753418	-0.117432	0.643144	-0.589409	-0.439846	-0.213305
44468		8.024950	-5.563653	-0.830178	0.107700	-0.095102	-0.030321	-0.271240	0.748291	-0.115234	0.643297	-0.588952	-0.440587	-0.212572
44469		7.970178	-5.625398	-0.831622	0.064712	-0.064334	-0.025280	-0.277832	0.755127	-0.108154	0.643356	-0.588709	-0.441041	-0.212130
44470		7.922643	-5.739305	-0.796679	0.037210	-0.044703	-0.024286	-0.283691	0.745850	-0.115234	0.643319	-0.588614	-0.441331	-0.211901
44471		7.976686	-5.694714	-0.772566	0.034253	-0.038401	-0.026223	-0.274902	0.752930	-0.107666	0.643306	-0.588472	-0.441631	-0.211711
44472		8.049605	-5.519157	-0.747950	0.009934	-0.025031	-0.027378	-0.284180	0.746094	-0.113525	0.643202	-0.588484	-0.441770	-0.211701
44473		7.997377	-5.627850	-0.741376	-0.013965	-0.010462	-0.026178	-0.271973	0.748291	-0.112061	0.643049	-0.588559	-0.441832	-0.211829
44474		7.973488	-5.624063	-0.708765	-0.017097	-0.008546	-0.024084	-0.278076	0.736084	-0.112793	0.642900	-0.588679	-0.441818	-0.211975
44475		7.984197	-5.669171	-0.765605	-0.023290	-0.003620	-0.024750	-0.278076	0.748291	-0.113770	0.642736	-0.588794	-0.441813	-0.212162
44476		7.990115	-5.606716	-0.820058	-0.032641	0.010769	-0.022492	-0.274414	0.741943	-0.114746	0.642587	-0.588952	-0.441684	-0.212445
44477		7.981844	-5.667516	-0.828540	-0.073245	0.049331	-0.017860	-0.276611	0.744385	-0.118164	0.642398	-0.589267	-0.441252	-0.213040
44478		7.920207	-5.737254	-0.797433	-0.123564	0.083149	-0.017334	-0.281982	0.752686	-0.116943	0.642099	-0.589775	-0.440557	-0.213974
44479		7.973589	-5.679748	-0.755661	-0.156726	0.091029	-0.018591	-0.285645	0.742920	-0.104980	0.641654	-0.590443	-0.439773	-0.215075
44480		7.953307	-5.677115	-0.708891	-0.160165	0.094468	-0.025902	-0.270996	0.744385	-0.103760	0.641152	-0.591119	-0.439019	-0.216252
44481		8.037002	-5.522660	-0.778953	-0.189122	0.108773	-0.019549	-0.275879	0.740723	-0.108154	0.640585	-0.591968	-0.438041	-0.217589
44482		8.056971	-5.588468	-0.721543	-0.219854	0.121557	-0.017658	-0.282959	0.748535	-0.106445	0.639931	-0.592924	-0.436965	-0.219069
44483		7.973618	-5.671424	-0.664104	-0.203578	0.104834	-0.021607	-0.271240	0.750732	-0.099121	0.639280	-0.593802	-0.436042	-0.220423
44484		8.023847	-5.603440	-0.742139	-0.163054	0.088955	-0.023705	-0.280762	0.749268	-0.103027	0.638760	-0.594527	-0.435225	-0.221591
44485		8.057725	-5.537674	-0.831024	-0.161187	0.091819	-0.019701	-0.273682	0.747803	-0.094971	0.638274	-0.595210	-0.434428	-0.222720
44486		7.990325	-5.647909	-0.840958	-0.168321	0.093756	-0.017557	-0.284180	0.752686	-0.094482	0.637747	-0.595967	-0.433559	-0.223891
44487		7.980155	-5.639743	-0.810356	-0.138984	0.083663	-0.014800	-0.275635	0.748291	-0.094971	0.637327	-0.596580	-0.432825	-0.224877
44488		8.029807	-5.544152	-0.803389	-0.116330	0.081641	-0.014932	-0.284424	0.750977	-0.092041	0.637025	-0.597075	-0.432116	-0.225778
44489		8.013276	-5.577576	-0.806531	-0.117339	0.081742	-0.011435	-0.276123	0.745117	-0.089111	0.636710	-0.597582	-0.431422	-0.226653
44490		8.012887	-5.646160	-0.773760	-0.104284	0.073521	-0.013525	-0.274902	0.750977	-0.089600	0.636429	-0.598037	-0.430781	-0.227459
44491		8.031799	-5.595733	-0.752366	-0.084477	0.066493	-0.008604	-0.277344	0.750488	-0.100342	0.636233	-0.598425	-0.430169	-0.228144
44492		8.096961	-5.462008	-0.753266	-0.074745	0.058707	-0.013461	-0.276123	0.746582	-0.093262	0.636085	-0.598710	-0.429663	-0.228762
44493		8.024416	-5.560699	-0.757905	-0.084435	0.068485	-0.012439	-0.281494	0.750488	-0.089844	0.635906	-0.599049	-0.429083	-0.229460
44494		7.976264	-5.692792	-0.788697	-0.082301	0.062274	-0.011278	-0.276123	0.747559	-0.089355	0.635702	-0.599398	-0.428550	-0.230109
44495		7.930400	-5.717479	-0.739876	-0.065940	0.049526	-0.012507	-0.278564	0.752197	-0.092773	0.635538	-0.599683	-0.428104	-0.230649
44496		7.999285	-5.605542	-0.775553	-0.063256	0.048536	-0.011299	-0.282471	0.752930	-0.083740	0.635396	-0.599949	-0.427663	-0.231167
44497		7.986756	-5.578979	-0.828387	-0.048574	0.038464	-0.009814	-0.276611	0.751465	-0.084473	0.635262	-0.600184	-0.427311	-0.231574
44498		8.055584	-5.496685	-0.808858	-0.039046	0.029389	-0.009943	-0.276367	0.747559	-0.093018	0.635153	-0.600390	-0.427000	-0.231912
44499		8.049463	-5.524052	-0.828237	-0.046108	0.030507	-0.008816	-0.271973	0.748535	-0.089844	0.635045	-0.600597	-0.426681	-0.232259
44500		8.029850	-5.548318	-0.814851	-0.055991	0.036179	-0.005488	-0.267578	0.757568	-0.083984	0.634908	-0.600877	-0.426268	-0.232667
44501		8.014958	-5.578206	-0.773199	-0.050000	0.032601	-0.007304	-0.277832	0.754395	-0.086670	0.634767	-0.601170	-0.425840	-0.233080
44502		7.999835	-5.645606	-0.708953	-0.033841	0.016081	-0.007932	-0.281494	0.752197	-0.086670	0.634650	-0.601369	-0.425602	-0.233321
44503		7.976029	-5.648538	-0.661038	-0.010854	0.003835	-0.010260	-0.279541	0.754150	-0.083740	0.634600	-0.601447	-0.425514	-0.233415
44504		7.969926	-5.601413	-0.727234	-0.012427	0.002214	-0.007670	-0.274170	0.757568	-0.086426	0.634533	-0.601563	-0.425401	-0.233505
44505		8.013360	-5.575064	-0.836869	-0.032112	0.006743	-0.005312	-0.277100	0.757324	-0.083740	0.634398	-0.601793	-0.425169	-0.233698
44506		8.027418	-5.644007	-0.794437	-0.019206	-0.001654	-0.007582	-0.275391	0.749023	-0.082520	0.634284	-0.601964	-0.425038	-0.233808
44507		8.052167	-5.566061	-0.754752	0.011208	-0.016717	-0.011163	-0.277344	0.747803	-0.081299	0.634267	-0.601977	-0.425085	-0.233734
44508		8.027456	-5.585216	-0.770552	0.006184	-0.009553	-0.009327	-0.276855	0.758789	-0.083740	0.634250	-0.602005	-0.425093	-0.233694
44509		7.975033	-5.614345	-0.783410	0.007098	-0.011159	-0.006312	-0.271729	0.753418	-0.088623	0.634237	-0.602063	-0.425048	-0.233663
44510		7.977577	-5.654095	-0.747168	0.013929	-0.016780	-0.003543	-0.272705	0.759521	-0.090820	0.634265	-0.602091	-0.425021	-0.233564
44511		8.010275	-5.612001	-0.745557	0.020690	-0.023368	-0.007219	-0.274414	0.750488	-0.079834	0.634296	-0.602090	-0.425039	-0.233446
44512		7.941893	-5.672673	-0.717537	0.025782	-0.037707	-0.011720	-0.277344	0.750000	-0.084473	0.634268	-0.602078	-0.425221	-0.233224
44513		7.923924	-5.708155	-0.723899	0.044265	-0.048380	-0.014100	-0.278076	0.752686	-0.079590	0.634302	-0.601958	-0.425525	-0.232884
44514		7.986807	-5.666041	-0.743863	0.039332	-0.043238	-0.017958	-0.281982	0.754395	-0.081787	0.634305	-0.601861	-0.425806	-0.232615
44515		8.029272	-5.537353	-0.819279	0.035259	-0.040117	-0.017207	-0.275879	0.749023	-0.083984	0.634302	-0.601771	-0.426074	-0.232365
44516		8.015203	-5.633495	-0.701905	0.025157	-0.039132	-0.019626	-0.272949	0.744385	-0.087158	0.634260	-0.601721	-0.426312	-0.232172
44517		7.887372	-5.758125	-0.873543	0.024393	-0.043726	-0.018845	-0.272217	0.755127	-0.085693	0.634215	-0.601672	-0.426569	-0.231950
44518		7.895269	-5.699190	-0.777643	-0.002492	-0.041990	-0.024283	-0.274414	0.747314	-0.085693	0.634016	-0.601782	-0.426735	-0.231905
44519		7.894310	-5.697276	-0.528064	-0.042647	-0.045395	-0.029440	-0.281006	0.753906	-0.087646	0.633601	-0.602062	-0.426918	-0.231975
44520		7.919908	-5.709211	-0.381001	-0.062604	-0.064410	-0.034169	-0.275146	0.746826	-0.088135	0.633007	-0.602462	-0.427194	-0.232049
44521		8.057606	-5.735301	-0.409605	-0.021668	-0.082919	-0.041881	-0.277100	0.746826	-0.086182	0.632552	-0.602646	-0.427676	-0.231923
44522		7.965450	-5.619515	-0.792853	0.009525	-0.096851	-0.045536	-0.283203	0.751221	-0.090332	0.632193	-0.602679	-0.428320	-0.231629
44523		8.026258	-5.540859	-0.892567	-0.009092	-0.090269	-0.040739	-0.276367	0.752930	-0.075439	0.631778	-0.602800	-0.428881	-0.231408
44524		7.934911	-5.700799	-0.875143	-0.007263	-0.094366	-0.041095	-0.281494	0.751709	-0.098633	0.631317	-0.602982	-0.429422	-0.231189
44525		7.907541	-5.712922	-0.795507	0.010138	-0.111037	-0.043489	-0.283203	0.750488	-0.083984	0.630945	-0.603019	-0.430111	-0.230829
44526		7.940494	-5.627672	-0.708885	0.012363	-0.119629	-0.046415	-0.281738	0.752441	-0.080811	0.630508	-0.603078	-0.430891	-0.230414
44527		7.909594	-5.652444	-0.709088	-0.011853	-0.119299	-0.048844	-0.281738	0.750000	-0.076172	0.629936	-0.603273	-0.431612	-0.230115
44528		7.917589	-5.640358	-0.802408	-0.012488	-0.129033	-0.054523	-0.280518	0.747803	-0.079346	0.629306	-0.603475	-0.432422	-0.229790
44529		8.005118	-5.530853	-0.984890	-0.026478	-0.128801	-0.057737	-0.281250	0.753906	-0.071533	0.628614	-0.603726	-0.433213	-0.229536
44530		8.082853	-5.567169	-1.043029	-0.038845	-0.120455	-0.061781	-0.280029	0.751465	-0.072754	0.627855	-0.604048	-0.433932	-0.229408
44531		8.111549	-5.454797	-1.183209	-0.026141	-0.110054	-0.058682	-0.286865	0.746826	-0.074219	0.627212	-0.604287	-0.434599	-0.229272
44532		8.156298	-5.404743	-1.245634	-0.049040	-0.085043	-0.052544	-0.280518	0.751709	-0.087158	0.626566	-0.604579	-0.435125	-0.229269
44533		8.035722	-5.514431	-1.092162	-0.066100	-0.070895	-0.046857	-0.280762	0.744385	-0.078125	0.625931	-0.604962	-0.435422	-0.229434
44534		8.017842	-5.541669	-1.003086	-0.049661	-0.072670	-0.046394	-0.293457	0.748779	-0.074951	0.625358	-0.605257	-0.435805	-0.229488
44535		8.080124	-5.482415	-1.018866	-0.033661	-0.078811	-0.049193	-0.286133	0.744873	-0.071045	0.624824	-0.605451	-0.436329	-0.229436
44536		8.098243	-5.408288	-1.204832	-0.043499	-0.066803	-0.043962	-0.285156	0.751953	-0.064209	0.624292	-0.605711	-0.436714	-0.229465
44537		8.033952	-5.464443	-1.186177	-0.079824	-0.046010	-0.037991	-0.288086	0.739990	-0.072754	0.623638	-0.606186	-0.436851	-0.229730
44538		8.054333	-5.493314	-1.163944	-0.063802	-0.046112	-0.037482	-0.288086	0.748047	-0.069092	0.623107	-0.606505	-0.437085	-0.229881
44539		8.127936	-5.392441	-1.201467	-0.027403	-0.058398	-0.036017	-0.295898	0.750244	-0.073730	0.622700	-0.606701	-0.437403	-0.229864
44540		8.085728	-5.427140	-1.179170	0.003598	-0.066690	-0.031144	-0.289062	0.746094	-0.068604	0.622439	-0.606740	-0.437829	-0.229654
44541		8.166042	-5.354602	-1.341737	0.035550	-0.064582	-0.026183	-0.287109	0.743164	-0.065430	0.622350	-0.606648	-0.438261	-0.229317
44542		8.169959	-5.319579	-1.462927	0.014095	-0.040902	-0.015452	-0.302979	0.744873	-0.074219	0.622254	-0.606666	-0.438479	-0.229114
44543		8.097445	-5.411458	-1.332066	0.009588	-0.024585	-0.006262	-0.293945	0.749268	-0.070312	0.622230	-0.606644	-0.438641	-0.228924
44544		8.044305	-5.477775	-1.214003	0.017642	-0.024413	-0.002052	-0.296143	0.749756	-0.067627	0.622243	-0.606649	-0.438720	-0.228727
44545		8.006138	-5.531639	-1.064881	0.045818	-0.032981	-0.003142	-0.289307	0.749756	-0.066406	0.622355	-0.606521	-0.438918	-0.228382
44546		8.081307	-5.477274	-1.055634	0.046805	-0.040580	-0.003470	-0.288574	0.748535	-0.065430	0.622441	-0.606425	-0.439117	-0.228017
44547		8.049162	-5.492964	-1.098690	0.044354	-0.037374	-0.002950	-0.288330	0.743652	-0.072998	0.622525	-0.606340	-0.439296	-0.227670
44548		8.030604	-5.503495	-1.143849	0.032763	-0.034445	-0.003253	-0.287842	0.744385	-0.063965	0.622587	-0.606274	-0.439453	-0.227371
44549		8.019563	-5.530265	-1.178803	0.016010	-0.021739	0.000747	-0.289795	0.748779	-0.078613	0.622591	-0.606313	-0.439497	-0.227173
44550		8.053853	-5.445709	-1.155878	0.018294	-0.023869	-0.000492	-0.289551	0.747803	-0.062988	0.622634	-0.606310	-0.439538	-0.226984
44551		8.091054	-5.473516	-1.186291	0.026347	-0.029690	0.000391	-0.291992	0.745361	-0.068359	0.622653	-0.606316	-0.439643	-0.226714
44552		8.002448	-5.694298	-0.953078	0.020128	-0.036763	-0.006664	-0.291016	0.750000	-0.074707	0.622618	-0.606313	-0.439829	-0.226457
44553		7.848592	-5.669383	-1.298204	0.042177	-0.037114	-0.007304	-0.289795	0.750244	-0.073975	0.622706	-0.606195	-0.440027	-0.226145
44554		8.067595	-5.397548	-1.263910	-0.011020	-0.002617	-0.002128	-0.289307	0.751953	-0.066895	0.622659	-0.606314	-0.439912	-0.226178
44555		8.063768	-5.509291	-1.149563	-0.050829	0.014816	0.001979	-0.284912	0.755371	-0.076660	0.622460	-0.606646	-0.439609	-0.226424
44556		8.051016	-5.548530	-1.019321	-0.025277	0.004938	-0.004280	-0.292969	0.750977	-0.069824	0.622371	-0.606838	-0.439384	-0.226591
44557		8.039593	-5.472065	-1.018776	-0.030182	0.009351	-0.008928	-0.287598	0.749512	-0.064941	0.622247	-0.607007	-0.439229	-0.226779
44558		7.991906	-5.579139	-1.092586	-0.065211	0.027089	-0.001609	-0.292725	0.750000	-0.068848	0.622014	-0.607374	-0.438859	-0.227152
44559		7.918780	-5.688268	-1.131452	-0.070721	0.030617	-0.006137	-0.283936	0.748779	-0.069092	0.621770	-0.607719	-0.438507	-0.227578
44560		7.945815	-5.619519	-1.111184	-0.058039	0.021817	-0.012528	-0.290771	0.744385	-0.066162	0.621552	-0.608011	-0.438210	-0.227965
44561		8.075387	-5.386006	-1.156356	-0.053254	0.019739	-0.013393	-0.287842	0.754150	-0.075439	0.621345	-0.608248	-0.438004	-0.228292
44562		8.141819	-5.400349	-1.190748	-0.058791	0.031216	-0.008930	-0.284180	0.749512	-0.064697	0.621180	-0.608525	-0.437627	-0.228726
44563		8.102393	-5.532592	-1.391647	-0.020198	0.031189	-0.007696	-0.290039	0.743408	-0.071777	0.621189	-0.608627	-0.437332	-0.228994
44564		8.130871	-5.431025	-1.602224	-0.014629	0.053389	-0.005721	-0.293213	0.752686	-0.058105	0.621336	-0.608609	-0.436979	-0.229315
44565		8.087680	-5.450203	-1.635694	-0.069894	0.102645	0.006036	-0.274170	0.749756	-0.071045	0.621353	-0.608879	-0.436200	-0.230035
44566		8.024590	-5.541106	-1.434027	-0.097444	0.128572	0.014045	-0.291992	0.751465	-0.051025	0.621388	-0.609283	-0.435080	-0.230991
44567		8.072762	-5.513306	-1.352111	-0.056145	0.121572	0.013183	-0.288086	0.749268	-0.059326	0.621538	-0.609480	-0.434208	-0.231706
44568		8.100689	-5.422125	-1.234819	-0.059425	0.138967	0.015972	-0.287842	0.759766	-0.061035	0.621768	-0.609651	-0.433204	-0.232517
44569		8.036656	-5.553422	-1.006038	-0.083837	0.156298	0.021670	-0.274902	0.751465	-0.064209	0.621940	-0.609964	-0.431980	-0.233512
44570		7.953200	-5.631343	-0.763846	-0.078194	0.138941	0.013923	-0.284668	0.749512	-0.066162	0.622086	-0.610252	-0.430859	-0.234442
44571		7.895223	-5.658954	-0.671189	-0.068300	0.120221	0.008542	-0.282227	0.754150	-0.054688	0.622209	-0.610461	-0.429950	-0.235238
44572		7.950502	-5.616272	-0.862777	-0.070132	0.108740	0.002969	-0.287354	0.750732	-0.060547	0.622233	-0.610729	-0.429104	-0.236020
44573		7.959370	-5.564220	-1.029430	-0.090317	0.109503	0.003339	-0.290039	0.762207	-0.063232	0.622178	-0.611057	-0.428255	-0.236857
44574		8.028658	-5.512659	-0.950541	-0.091175	0.093562	0.007797	-0.275391	0.755371	-0.059814	0.622064	-0.611458	-0.427416	-0.237635
44575		8.073295	-5.545109	-0.946715	-0.049056	0.065049	0.002036	-0.287842	0.749512	-0.061279	0.622056	-0.611703	-0.426790	-0.238152
44576		8.042480	-5.566555	-1.016955	-0.016794	0.048913	-0.000029	-0.276367	0.753418	-0.064697	0.622161	-0.611738	-0.426432	-0.238427
44577		8.050503	-5.517113	-1.063587	-0.013284	0.048177	0.000163	-0.278809	0.750732	-0.055420	0.622289	-0.611799	-0.425986	-0.238734
44578		8.106612	-5.423354	-1.094661	-0.047123	0.067463	0.003466	-0.281738	0.753662	-0.056152	0.622295	-0.612012	-0.425403	-0.239212
44579		7.998479	-5.575121	-1.026576	-0.076772	0.078538	0.008958	-0.282715	0.758789	-0.063965	0.622198	-0.612373	-0.424677	-0.239829
44580		7.993621	-5.602791	-0.875604	-0.055611	0.066962	0.007374	-0.279053	0.755127	-0.058105	0.622181	-0.612637	-0.424026	-0.240350
44581		7.983419	-5.655924	-0.867191	-0.057455	0.055842	0.000059	-0.278809	0.757324	-0.051270	0.622090	-0.612916	-0.423477	-0.240843
44582		7.977838	-5.611202	-0.914929	-0.048285	0.054104	0.004871	-0.276123	0.755127	-0.052246	0.622029	-0.613189	-0.422928	-0.241270
44583		8.015335	-5.593177	-1.098193	-0.050089	0.055051	0.004448	-0.285645	0.751221	-0.054688	0.621968	-0.613464	-0.422368	-0.241709
44584		8.036884	-5.590743	-1.189264	-0.024704	0.053737	0.004165	-0.272705	0.754639	-0.054932	0.622046	-0.613552	-0.421951	-0.242011
44585		8.119837	-5.396597	-1.201671	-0.020140	0.055468	0.005100	-0.279785	0.755127	-0.061768	0.622151	-0.613673	-0.421426	-0.242352
44586		8.077853	-5.492982	-1.193134	-0.026335	0.076521	0.013520	-0.276855	0.752686	-0.057373	0.622332	-0.613775	-0.420767	-0.242773
44587		8.032964	-5.587108	-1.196723	-0.000835	0.073680	0.015579	-0.274902	0.752930	-0.068115	0.622630	-0.613764	-0.420173	-0.243064
44588		8.104702	-5.448408	-1.031064	0.018689	0.063126	0.019069	-0.269043	0.755127	-0.056396	0.623026	-0.613669	-0.419624	-0.243237
44589		8.028945	-5.505264	-0.867107	0.031721	0.053292	0.018877	-0.275146	0.752197	-0.061768	0.623416	-0.613579	-0.419130	-0.243319
44590		8.014677	-5.558444	-0.865846	0.044856	0.044348	0.015522	-0.276611	0.751465	-0.062988	0.623853	-0.613381	-0.418779	-0.243303
44591		8.089242	-5.454352	-0.800197	0.033609	0.046814	0.014306	-0.267578	0.753174	-0.057129	0.624242	-0.613220	-0.418415	-0.243335
44592		8.011094	-5.551996	-0.661983	0.020284	0.044760	0.010008	-0.274902	0.760254	-0.056885	0.624526	-0.613169	-0.418002	-0.243447
44593		7.906074	-5.712080	-0.733018	0.010475	0.031099	0.003774	-0.275635	0.757812	-0.060303	0.624684	-0.613180	-0.417675	-0.243573
44594		7.905310	-5.689689	-0.982225	-0.001365	0.027847	0.003946	-0.272949	0.756592	-0.057129	0.624784	-0.613239	-0.417357	-0.243713
44595		7.981872	-5.562827	-0.995255	-0.022016	0.029856	0.005794	-0.266846	0.764648	-0.062500	0.624784	-0.613417	-0.416976	-0.243919
44596		7.952767	-5.653743	-0.992979	-0.011434	0.023235	0.006166	-0.274170	0.759766	-0.056396	0.624809	-0.613606	-0.416534	-0.244132
44597		8.063395	-5.540496	-1.030267	0.001769	0.020762	0.004714	-0.272949	0.752197	-0.050293	0.624888	-0.613685	-0.416244	-0.244228
44598		8.081782	-5.490006	-0.958636	-0.015087	0.027894	0.007786	-0.275879	0.751221	-0.061279	0.624914	-0.613821	-0.415938	-0.244340
44599		7.980388	-5.617292	-0.860000	-0.004247	0.023894	0.008243	-0.274902	0.759521	-0.059326	0.625014	-0.613874	-0.415674	-0.244401
44600		8.054443	-5.480776	-0.854592	0.010731	0.017239	0.006306	-0.260010	0.764160	-0.059326	0.625138	-0.613905	-0.415419	-0.244439
44601		7.982727	-5.570982	-0.965511	-0.013324	0.029355	0.012372	-0.270752	0.761475	-0.064209	0.625176	-0.614142	-0.414874	-0.244673
44602		7.925810	-5.665851	-0.928441	-0.013583	0.026732	0.012291	-0.266846	0.762451	-0.054199	0.625223	-0.614321	-0.414428	-0.244857
44603		8.001515	-5.554246	-1.004847	-0.006019	0.030905	0.011290	-0.266357	0.755127	-0.057861	0.625294	-0.614484	-0.413974	-0.245035
44604		8.031061	-5.593752	-0.999592	-0.015132	0.038340	0.011534	-0.264893	0.752197	-0.055176	0.625373	-0.614633	-0.413514	-0.245238
44605		7.965229	-5.654566	-0.921604	-0.010293	0.039882	0.010048	-0.268311	0.758789	-0.058594	0.625481	-0.614737	-0.413092	-0.245411
44606		7.932908	-5.705069	-0.952643	0.004074	0.038361	0.011678	-0.264648	0.760986	-0.058594	0.625651	-0.614794	-0.412657	-0.245566
44607		7.935377	-5.747606	-0.911083	0.014239	0.032573	0.005777	-0.264648	0.760986	-0.061523	0.625832	-0.614820	-0.412252	-0.245722
44608		7.906045	-5.727063	-0.789042	0.040424	0.017358	0.001644	-0.275391	0.761963	-0.062500	0.626090	-0.614724	-0.411992	-0.245742
44609		7.979601	-5.701172	-0.728737	0.055583	0.003984	-0.004620	-0.263672	0.756836	-0.061523	0.626373	-0.614508	-0.411948	-0.245633
44610		7.884229	-5.750901	-0.779085	0.058995	-0.006111	-0.008843	-0.265381	0.760498	-0.059326	0.626633	-0.614306	-0.411939	-0.245489
44611		7.939566	-5.737478	-0.811060	0.059326	-0.008239	-0.007382	-0.266602	0.758789	-0.057129	0.626874	-0.614131	-0.411921	-0.245344
44612		7.917482	-5.715085	-0.798543	0.061799	-0.019931	-0.015510	-0.267822	0.758057	-0.066895	0.627072	-0.613923	-0.412052	-0.245139
44613		7.930503	-5.750738	-0.819918	0.098216	-0.038032	-0.022878	-0.260498	0.760986	-0.061279	0.627398	-0.613521	-0.412366	-0.244781
44614		7.962663	-5.593164	-0.878098	0.119190	-0.048602	-0.024998	-0.273438	0.767578	-0.059326	0.627758	-0.613092	-0.412707	-0.244359
44615		7.992993	-5.695220	-0.808471	0.140300	-0.052590	-0.025185	-0.261963	0.761475	-0.062500	0.628193	-0.612545	-0.413170	-0.243831
44616		7.920735	-5.683045	-0.878128	0.155760	-0.061187	-0.025444	-0.269531	0.758545	-0.068115	0.628686	-0.611955	-0.413648	-0.243229
44617		7.971830	-5.610173	-0.895903	0.139681	-0.055420	-0.026523	-0.272217	0.763672	-0.073975	0.629141	-0.611368	-0.414160	-0.242658
44618		7.914143	-5.668848	-0.922630	0.137036	-0.055108	-0.024368	-0.272705	0.757812	-0.072021	0.629572	-0.610835	-0.414581	-0.242161
44619		7.977725	-5.602650	-0.838356	0.147615	-0.055252	-0.027474	-0.256836	0.757080	-0.068604	0.630071	-0.610183	-0.415138	-0.241552
44620		7.958165	-5.699919	-0.787424	0.162685	-0.068581	-0.029355	-0.266602	0.758057	-0.064453	0.630563	-0.609571	-0.415652	-0.240926
44621		7.946889	-5.695303	-0.746721	0.213166	-0.087401	-0.035204	-0.275391	0.754395	-0.075928	0.631236	-0.608658	-0.416522	-0.239971
44622		7.957787	-5.736138	-0.808628	0.209487	-0.087914	-0.035936	-0.273682	0.760986	-0.078613	0.631929	-0.607675	-0.417483	-0.238967
44623		7.922346	-5.741617	-0.885494	0.197120	-0.075495	-0.038136	-0.267334	0.754150	-0.078857	0.632557	-0.606809	-0.418228	-0.238202
44624		8.028735	-5.647428	-0.908049	0.187499	-0.060045	-0.041534	-0.274902	0.761963	-0.078369	0.633199	-0.605931	-0.418915	-0.237521
44625		8.020887	-5.652145	-0.882483	0.162830	-0.039295	-0.042572	-0.271240	0.762695	-0.081055	0.633754	-0.605170	-0.419425	-0.237080
44626		7.970681	-5.760773	-0.881498	0.189858	-0.041832	-0.041758	-0.268066	0.751709	-0.084717	0.634423	-0.604319	-0.419917	-0.236593
44627		8.019428	-5.593146	-0.892404	0.204015	-0.034892	-0.043483	-0.274414	0.747314	-0.082031	0.635234	-0.603285	-0.420522	-0.235981
44628		8.079105	-5.472256	-0.958351	0.169191	-0.005967	-0.038988	-0.274658	0.754395	-0.089844	0.636010	-0.602293	-0.421069	-0.235448
44629		7.956345	-5.602184	-0.837342	0.118439	0.028648	-0.034549	-0.274414	0.745117	-0.093262	0.636623	-0.601612	-0.421138	-0.235410
44630		7.982496	-5.638032	-0.757792	0.120403	0.025027	-0.036409	-0.277588	0.745117	-0.097412	0.637280	-0.600823	-0.421372	-0.235225
44631		7.948472	-5.643668	-0.692198	0.127630	0.024190	-0.037388	-0.277100	0.755615	-0.089111	0.637974	-0.599979	-0.421644	-0.235012
44632		7.965539	-5.642997	-0.574560	0.141964	0.010357	-0.036434	-0.279297	0.752686	-0.094238	0.638622	-0.599202	-0.421894	-0.234785
44633		8.010009	-5.622658	-0.430175	0.161582	-0.021709	-0.037291	-0.276123	0.756592	-0.097656	0.639274	-0.598341	-0.422400	-0.234297
44634		8.008401	-5.612615	-0.310828	0.215223	-0.062942	-0.039077	-0.277344	0.753174	-0.101562	0.640014	-0.597344	-0.423109	-0.233540
44635		8.017844	-5.580829	-0.417201	0.267955	-0.110089	-0.040512	-0.283691	0.752441	-0.108643	0.640863	-0.596115	-0.424224	-0.232328
44636		8.143900	-5.364524	-0.534256	0.283228	-0.123625	-0.034352	-0.282227	0.744385	-0.108643	0.641764	-0.594809	-0.425455	-0.230931
44637		8.145853	-5.332101	-0.672265	0.255971	-0.110868	-0.025894	-0.276855	0.755127	-0.102783	0.642625	-0.593572	-0.426646	-0.229518
44638		8.250135	-5.215662	-0.742117	0.259499	-0.094439	-0.025874	-0.282227	0.746582	-0.111084	0.643479	-0.592444	-0.427549	-0.228359
44639		8.096263	-5.492760	-0.335962	0.182421	-0.073417	-0.017007	-0.283691	0.744141	-0.118652	0.644099	-0.591595	-0.428309	-0.227384
44640		7.827196	-5.785930	-0.679433	0.107762	-0.057258	-0.006349	-0.282471	0.748779	-0.121338	0.644446	-0.591130	-0.428794	-0.226694
44641		7.905378	-5.665949	-0.587850	0.017683	-0.024919	-0.004824	-0.281738	0.749268	-0.114746	0.644440	-0.591162	-0.428817	-0.226585
44642		7.971903	-5.768481	-0.511074	-0.006200	-0.016218	-0.003068	-0.277100	0.743408	-0.115234	0.644341	-0.591311	-0.428774	-0.226558
44643		8.040761	-5.646855	-0.599737	0.014542	-0.004497	-0.015553	-0.279053	0.746826	-0.114014	0.644389	-0.591248	-0.428802	-0.226534
44644		8.076577	-5.635594	-0.664227	-0.000824	0.011767	-0.013425	-0.288574	0.742676	-0.120361	0.644407	-0.591267	-0.428681	-0.226661
44645		7.954760	-5.714375	-0.633989	-0.009583	0.023363	-0.014599	-0.282471	0.745117	-0.115234	0.644464	-0.591198	-0.428638	-0.226762
44646		7.961203	-5.725977	-0.633728	0.014318	0.017946	-0.015559	-0.283447	0.749756	-0.121094	0.644590	-0.591074	-0.428587	-0.226824
44647		7.979734	-5.655238	-0.549082	0.038522	0.000286	-0.015733	-0.280518	0.751465	-0.105469	0.644752	-0.590908	-0.428573	-0.226820
44648		7.977092	-5.686104	-0.548306	0.082151	-0.022822	-0.014610	-0.272705	0.742920	-0.120850	0.645023	-0.590571	-0.428808	-0.226485
44649		7.979217	-5.674659	-0.512495	0.093908	-0.033333	-0.020141	-0.282227	0.744141	-0.124512	0.645347	-0.590157	-0.429077	-0.226132
44650		7.957833	-5.706675	-0.537433	0.101422	-0.031475	-0.021133	-0.264160	0.749268	-0.111572	0.645721	-0.589646	-0.429436	-0.225714
44651		8.010735	-5.611930	-0.590828	0.103270	-0.036955	-0.026057	-0.281982	0.750000	-0.125732	0.646009	-0.589290	-0.429625	-0.225462
44652		8.013398	-5.599592	-0.555414	0.090295	-0.034762	-0.021820	-0.275879	0.741943	-0.124512	0.646278	-0.588921	-0.429874	-0.225180
44653		8.006443	-5.616164	-0.552516	0.070882	-0.026051	-0.022324	-0.287109	0.740723	-0.119873	0.646513	-0.588588	-0.430106	-0.224930
44654		8.004748	-5.542377	-0.600801	0.039455	-0.012735	-0.018059	-0.282715	0.741943	-0.125488	0.646671	-0.588305	-0.430401	-0.224651
44655		8.037670	-5.511419	-0.527079	0.017969	-0.007681	-0.015124	-0.279541	0.746582	-0.125244	0.646735	-0.588202	-0.430485	-0.224575
44656		8.015310	-5.591564	-0.471601	0.015391	-0.008192	-0.013966	-0.280273	0.742188	-0.121338	0.646757	-0.588196	-0.430444	-0.224609
44657		8.037679	-5.599979	-0.461627	0.022781	-0.013664	-0.013346	-0.275879	0.748535	-0.117188	0.646817	-0.588099	-0.430555	-0.224475
44658		8.025260	-5.659984	-0.495896	0.016557	-0.007431	-0.009364	-0.284180	0.741455	-0.122070	0.646834	-0.588137	-0.430467	-0.224496
44659		7.988916	-5.628226	-0.559931	-0.004589	0.001350	-0.011288	-0.284180	0.745361	-0.117432	0.646829	-0.588130	-0.430497	-0.224473
44660		8.008805	-5.648798	-0.492226	-0.042200	0.015055	-0.007804	-0.280518	0.750732	-0.121338	0.646670	-0.588351	-0.430333	-0.224667
44661		7.973287	-5.686522	-0.521776	-0.052256	0.021816	-0.011222	-0.280273	0.753662	-0.121826	0.646450	-0.588694	-0.429964	-0.225106
44662		8.019036	-5.636519	-0.526877	-0.065572	0.030015	-0.011012	-0.285645	0.739502	-0.108887	0.646181	-0.589130	-0.429466	-0.225689
44663		8.065077	-5.642495	-0.568364	-0.063384	0.035504	-0.011326	-0.281250	0.747070	-0.117676	0.646017	-0.589312	-0.429352	-0.225899
44664		8.000007	-5.632221	-0.569606	-0.055808	0.044646	-0.013995	-0.277344	0.742432	-0.119385	0.645877	-0.589565	-0.428957	-0.226389
44665		8.052513	-5.578952	-0.737712	-0.077302	0.061721	-0.014257	-0.282471	0.745117	-0.120605	0.645714	-0.589876	-0.428442	-0.227017
44666		7.992428	-5.605826	-0.698122	-0.112570	0.087962	-0.011015	-0.280273	0.749512	-0.119141	0.645471	-0.590333	-0.427718	-0.227883
44667		8.043418	-5.607177	-0.586318	-0.113755	0.092739	-0.009162	-0.272705	0.740479	-0.115234	0.645218	-0.590853	-0.426865	-0.228851
44668		8.058324	-5.543606	-0.549473	-0.113595	0.086722	-0.012220	-0.283447	0.741455	-0.116699	0.644974	-0.591314	-0.426133	-0.229709
44669		8.041161	-5.542647	-0.575099	-0.132148	0.097990	-0.007946	-0.282959	0.738281	-0.111816	0.644698	-0.591804	-0.425400	-0.230581
44670		7.984065	-5.618350	-0.528934	-0.144785	0.099652	-0.004448	-0.281006	0.746094	-0.114502	0.644383	-0.592331	-0.424689	-0.231416
44671		8.040848	-5.566300	-0.443166	-0.138540	0.086251	-0.006762	-0.283447	0.740967	-0.112305	0.644010	-0.592940	-0.423902	-0.232336
44672		8.073661	-5.496968	-0.485762	-0.124346	0.081304	-0.005429	-0.272461	0.748291	-0.110107	0.643719	-0.593412	-0.423284	-0.233063
44673		8.038811	-5.605049	-0.480182	-0.126746	0.079092	-0.000227	-0.281738	0.742920	-0.110840	0.643372	-0.594058	-0.422411	-0.233959
44674		7.982640	-5.623087	-0.488848	-0.106699	0.064789	-0.001403	-0.278320	0.742188	-0.110840	0.643109	-0.594503	-0.421852	-0.234559
44675		8.037251	-5.610404	-0.528057	-0.078919	0.050117	-0.002124	-0.275146	0.752197	-0.110107	0.642933	-0.594837	-0.421397	-0.235014
44676		8.025869	-5.650908	-0.502734	-0.058670	0.032189	-0.006635	-0.276123	0.742920	-0.102539	0.642737	-0.595194	-0.420920	-0.235498
44677		7.999098	-5.598822	-0.566562	-0.049476	0.029069	-0.004745	-0.280762	0.748535	-0.101318	0.642615	-0.595415	-0.420655	-0.235748
44678		7.974816	-5.629044	-0.613001	-0.060854	0.029639	-0.003936	-0.277100	0.745850	-0.113770	0.642416	-0.595723	-0.420340	-0.236072
44679		8.032235	-5.608922	-0.606926	-0.055401	0.028192	-0.003097	-0.277832	0.749756	-0.095947	0.642270	-0.596003	-0.419975	-0.236413
44680		8.049224	-5.586282	-0.532737	-0.056022	0.030546	-0.002169	-0.269775	0.750977	-0.096191	0.642089	-0.596314	-0.419629	-0.236734
44681		8.037682	-5.627022	-0.508062	-0.042063	0.017415	-0.007417	-0.278320	0.746338	-0.106934	0.641913	-0.596613	-0.419294	-0.237053
44682		7.978999	-5.652003	-0.562229	-0.014157	0.011783	-0.006598	-0.272461	0.755859	-0.101074	0.641900	-0.596682	-0.419159	-0.237150
44683		8.051822	-5.576695	-0.639084	-0.016097	0.009949	-0.000014	-0.269531	0.751709	-0.095947	0.641830	-0.596910	-0.418819	-0.237367
44684		8.014681	-5.578540	-0.693355	-0.048169	0.028403	0.002310	-0.272217	0.755859	-0.105713	0.641679	-0.597258	-0.418354	-0.237720
44685		7.983096	-5.708272	-0.588018	-0.059528	0.032267	0.003961	-0.266602	0.749512	-0.104004	0.641485	-0.597688	-0.417764	-0.238202
44686		7.975928	-5.745324	-0.503134	-0.034153	0.019963	0.002656	-0.273682	0.759033	-0.111084	0.641395	-0.597972	-0.417330	-0.238491
44687		7.978402	-5.676319	-0.523415	-0.007215	0.006023	-0.002077	-0.271729	0.748047	-0.107666	0.641350	-0.598177	-0.416953	-0.238756
44688		8.038845	-5.571861	-0.608527	-0.017474	0.009539	-0.002184	-0.278564	0.758789	-0.102295	0.641315	-0.598327	-0.416705	-0.238907
44689		7.994561	-5.619813	-0.608499	-0.037286	0.022209	0.003141	-0.272217	0.749268	-0.092285	0.641182	-0.598641	-0.416271	-0.239236
44690		8.004468	-5.646644	-0.614924	-0.046178	0.028048	0.001312	-0.270020	0.754883	-0.093018	0.641055	-0.598914	-0.415928	-0.239490
44691		7.996027	-5.647101	-0.553846	-0.030334	0.018716	0.002142	-0.269775	0.754150	-0.094238	0.640945	-0.599197	-0.415535	-0.239756
44692		7.987350	-5.656920	-0.524004	-0.010309	0.006392	0.002330	-0.273193	0.747559	-0.089600	0.640899	-0.599391	-0.415251	-0.239885
44693		7.946487	-5.682060	-0.550732	0.009607	-0.004473	0.000176	-0.264648	0.753662	-0.104004	0.640949	-0.599389	-0.415269	-0.239726
44694		8.015337	-5.630387	-0.599710	0.008899	-0.005831	0.001836	-0.274170	0.751465	-0.099365	0.640963	-0.599537	-0.414979	-0.239823
44695		8.001477	-5.627129	-0.566504	0.014251	-0.007737	0.004231	-0.268799	0.746094	-0.105957	0.641022	-0.599572	-0.414901	-0.239712
44696		8.033093	-5.621687	-0.540673	0.040569	-0.024520	0.003479	-0.272217	0.751221	-0.088867	0.641183	-0.599478	-0.414951	-0.239429
44697		7.979525	-5.689427	-0.540792	0.074724	-0.044482	0.000827	-0.274414	0.749512	-0.105713	0.641400	-0.599248	-0.415254	-0.238896
44698		7.987354	-5.609819	-0.603342	0.092962	-0.046050	0.003080	-0.267334	0.748535	-0.097656	0.641735	-0.598912	-0.415557	-0.238314
44699		8.024629	-5.584265	-0.589046	0.068027	-0.037642	0.009870	-0.273682	0.750977	-0.110107	0.641974	-0.598746	-0.415700	-0.237836
44700		7.954570	-5.708839	-0.503390	0.074536	-0.039824	0.010562	-0.269287	0.753418	-0.102783	0.642246	-0.598543	-0.415847	-0.237355
44701		8.006381	-5.643890	-0.500912	0.105865	-0.058090	0.007648	-0.276123	0.745361	-0.106934	0.642578	-0.598249	-0.416113	-0.236733
44702		8.000067	-5.641596	-0.527551	0.104238	-0.061480	0.007127	-0.272217	0.753174	-0.103027	0.642946	-0.597829	-0.416618	-0.235904
44703		7.988090	-5.641442	-0.478381	0.104315	-0.058113	0.008026	-0.277588	0.752197	-0.100342	0.643273	-0.597517	-0.416936	-0.235239
44704		7.986233	-5.662378	-0.538988	0.092574	-0.049256	0.010592	-0.271484	0.757812	-0.103271	0.643586	-0.597207	-0.417286	-0.234550
44705		7.994831	-5.611212	-0.546468	0.079924	-0.045035	0.006878	-0.266602	0.752197	-0.109131	0.643806	-0.597049	-0.417414	-0.234117
44706		8.032379	-5.579814	-0.637960	0.067962	-0.041733	0.007008	-0.271484	0.752686	-0.110107	0.644008	-0.596926	-0.417498	-0.233728
44707		8.050004	-5.514626	-0.542021	0.028626	-0.026466	0.001448	-0.269775	0.752197	-0.109375	0.644060	-0.596936	-0.417512	-0.233536
44708		7.995634	-5.686761	-0.496747	-0.014870	0.002983	0.003655	-0.270264	0.759766	-0.106934	0.644001	-0.597134	-0.417263	-0.233635
44709		7.923265	-5.835394	-0.520939	-0.031559	0.003925	0.004382	-0.268066	0.747559	-0.107666	0.643821	-0.597502	-0.416862	-0.233907
44710		7.865063	-5.799598	-0.493319	-0.048755	0.009041	0.009178	-0.271240	0.753906	-0.106934	0.643652	-0.597838	-0.416564	-0.234042
44711		7.921134	-5.777916	-0.353365	-0.071890	0.031860	0.014139	-0.266602	0.748291	-0.099121	0.643425	-0.598319	-0.416013	-0.234418
44712		7.959262	-5.730794	-0.519856	-0.051654	0.045249	0.013052	-0.265381	0.752441	-0.105957	0.643367	-0.598612	-0.415525	-0.234695
44713		7.985153	-5.660182	-0.588887	-0.046792	0.036714	0.010749	-0.262451	0.755371	-0.106201	0.643278	-0.598951	-0.414970	-0.235052
44714		7.950819	-5.702027	-0.604010	-0.053043	0.029507	0.013160	-0.267090	0.759766	-0.108398	0.643118	-0.599400	-0.414334	-0.235469
44715		7.962162	-5.732269	-0.597632	-0.062809	0.020061	0.012863	-0.263916	0.751953	-0.106689	0.642858	-0.599938	-0.413706	-0.235914
44716		7.931500	-5.741600	-0.612387	-0.072842	0.019668	0.011109	-0.263916	0.750732	-0.105469	0.642586	-0.600445	-0.413185	-0.236275
44717		7.911394	-5.749853	-0.539456	-0.072880	0.016026	0.011902	-0.257080	0.757812	-0.095459	0.642313	-0.600940	-0.412717	-0.236579
44718		7.952099	-5.718876	-0.622444	-0.062252	0.006164	0.006372	-0.259521	0.754395	-0.102295	0.641986	-0.601505	-0.412166	-0.236992
44719		8.012512	-5.587705	-0.619158	-0.082755	0.016496	0.007009	-0.266602	0.754883	-0.098145	0.641623	-0.602108	-0.411576	-0.237468
44720		7.980138	-5.717750	-0.517417	-0.109235	0.047067	0.011959	-0.259033	0.757324	-0.096436	0.641254	-0.602742	-0.410889	-0.238044
44721		7.895478	-5.818582	-0.491606	-0.095249	0.040511	0.008393	-0.265137	0.754639	-0.096436	0.640893	-0.603394	-0.410113	-0.238704
44722		7.860638	-5.813449	-0.503351	-0.067677	0.024233	0.002739	-0.254395	0.758057	-0.095703	0.640640	-0.603815	-0.409676	-0.239069
44723		7.955777	-5.705182	-0.553159	-0.060274	0.001204	-0.000223	-0.261230	0.758057	-0.097168	0.640289	-0.604373	-0.409128	-0.239537
44724		7.917719	-5.784627	-0.474977	-0.081627	0.004743	-0.000300	-0.261719	0.760010	-0.088623	0.639858	-0.604980	-0.408627	-0.240010
44725		7.784484	-5.918551	-0.450520	-0.069030	-0.016865	-0.007171	-0.253662	0.753906	-0.092041	0.639390	-0.605544	-0.408327	-0.240346
44726		7.860699	-5.834899	-0.490428	-0.047821	-0.038543	-0.014496	-0.259521	0.761475	-0.090820	0.638966	-0.606008	-0.408178	-0.240556
44727		7.918946	-5.742132	-0.526243	-0.057627	-0.034364	-0.020138	-0.260254	0.761230	-0.090576	0.638450	-0.606557	-0.407945	-0.240939
44728		7.946395	-5.691619	-0.563864	-0.067261	-0.033518	-0.019506	-0.260742	0.761475	-0.091553	0.637890	-0.607152	-0.407691	-0.241351
44729		7.915137	-5.712046	-0.663347	-0.075199	-0.032465	-0.019102	-0.258301	0.751709	-0.089111	0.637290	-0.607798	-0.407391	-0.241816
44730		7.936418	-5.753591	-0.656360	-0.072518	-0.046460	-0.021291	-0.262451	0.760986	-0.083740	0.636732	-0.608310	-0.407400	-0.241986
44731		7.943826	-5.745321	-0.609215	-0.047567	-0.060974	-0.031489	-0.263184	0.755615	-0.093506	0.636161	-0.608784	-0.407461	-0.242192
44732		7.840672	-5.857170	-0.696669	-0.036726	-0.061663	-0.035426	-0.257080	0.763428	-0.088135	0.635680	-0.609127	-0.407623	-0.242320
44733		7.820811	-5.804741	-0.741873	-0.043842	-0.060719	-0.034326	-0.272949	0.753906	-0.084473	0.635068	-0.609710	-0.407433	-0.242777
44734		7.895683	-5.723404	-0.694357	-0.050028	-0.055787	-0.034867	-0.264893	0.760010	-0.085449	0.634600	-0.609947	-0.407868	-0.242675
44735		7.871303	-5.825979	-0.628573	-0.038964	-0.060361	-0.040517	-0.264160	0.759033	-0.086426	0.634062	-0.610338	-0.407979	-0.242912
44736		7.802383	-5.862381	-0.846151	-0.007038	-0.098306	-0.038796	-0.260742	0.760498	-0.080566	0.633562	-0.610649	-0.408325	-0.242854
44737		7.896949	-5.762910	-0.711313	0.034309	-0.144223	-0.043344	-0.262207	0.754150	-0.082764	0.633076	-0.610879	-0.408930	-0.242525
44738		8.155974	-5.435272	-0.948906	0.067346	-0.155315	-0.046771	-0.263184	0.758789	-0.079590	0.632778	-0.610825	-0.409861	-0.241863
44739		8.327218	-5.195214	-1.018642	-0.033544	-0.088470	-0.033487	-0.260254	0.766602	-0.076416	0.632173	-0.611294	-0.410057	-0.241930
44740		8.053475	-5.585054	-0.939525	-0.129382	-0.023947	-0.023349	-0.267822	0.757568	-0.081299	0.631217	-0.612369	-0.409349	-0.242905
44741		7.845991	-5.848638	-0.821691	-0.094322	-0.033321	-0.026424	-0.275879	0.754395	-0.082275	0.630530	-0.613013	-0.409184	-0.243344
44742		7.923296	-5.752270	-0.832826	-0.050992	-0.039854	-0.034758	-0.263916	0.761230	-0.069824	0.630103	-0.613243	-0.409478	-0.243375
44743		7.909265	-5.706676	-0.967849	-0.083892	0.001463	-0.026553	-0.268555	0.758789	-0.083008	0.629532	-0.613856	-0.409017	-0.244079
44744		7.813651	-5.834680	-1.038552	-0.093310	0.024826	-0.022256	-0.266602	0.760010	-0.074707	0.629034	-0.614439	-0.408427	-0.244884
44745		7.901249	-5.720979	-0.904815	-0.043993	0.004780	-0.023933	-0.261475	0.760010	-0.076904	0.628699	-0.614820	-0.408037	-0.245438
44746		8.033454	-5.613369	-0.809227	0.011830	-0.023610	-0.028406	-0.263672	0.763184	-0.077881	0.628507	-0.615045	-0.407749	-0.245844
44747		8.027853	-5.568172	-0.862550	0.056428	-0.046783	-0.026271	-0.272705	0.757568	-0.072021	0.628431	-0.615152	-0.407571	-0.246067
44748		8.091404	-5.455462	-1.022619	0.073279	-0.043846	-0.022478	-0.270752	0.754150	-0.084717	0.628600	-0.614875	-0.407939	-0.245716
44749		8.032750	-5.523072	-0.961668	0.027474	-0.020745	-0.011753	-0.262695	0.756348	-0.083984	0.628644	-0.614848	-0.407947	-0.245660
44750		7.912795	-5.677239	-0.903098	0.016759	-0.005820	-0.009040	-0.271729	0.756592	-0.071777	0.628606	-0.615032	-0.407527	-0.245991
44751		7.961306	-5.621384	-0.857044	0.011836	-0.001900	-0.012163	-0.264648	0.756592	-0.075684	0.628632	-0.615014	-0.407518	-0.245986
44752		8.012996	-5.593392	-0.756356	-0.022593	0.014019	-0.013657	-0.267822	0.759521	-0.072021	0.628476	-0.615275	-0.407097	-0.246428
44753		7.941526	-5.665459	-0.695105	-0.045473	0.014917	-0.017186	-0.258789	0.750732	-0.069336	0.628184	-0.615646	-0.406664	-0.246960
44754		7.912238	-5.766258	-0.649427	-0.058126	0.008644	-0.020046	-0.260254	0.758545	-0.068115	0.627872	-0.615993	-0.406367	-0.247378
44755		7.953179	-5.674900	-0.692303	-0.043890	-0.007336	-0.020947	-0.270752	0.757324	-0.074951	0.627470	-0.616473	-0.405911	-0.247948
44756		7.994628	-5.611393	-0.817086	-0.063803	-0.007103	-0.017806	-0.264160	0.755615	-0.070068	0.627050	-0.616906	-0.405672	-0.248325
44757		7.878750	-5.828709	-0.823488	-0.052272	-0.011964	-0.018891	-0.265625	0.754639	-0.075928	0.626658	-0.617326	-0.405407	-0.248706
44758		7.848668	-5.849342	-0.781224	-0.009340	-0.025608	-0.023513	-0.270020	0.751221	-0.065918	0.626441	-0.617523	-0.405322	-0.248899
44759		7.965974	-5.650487	-0.880601	-0.000851	-0.030644	-0.028097	-0.271240	0.754150	-0.067871	0.626351	-0.617444	-0.405730	-0.248658
44760		7.981047	-5.649483	-0.918139	-0.021504	-0.015637	-0.028509	-0.271484	0.763916	-0.079346	0.626159	-0.617520	-0.405884	-0.248701
44761		8.026273	-5.666009	-0.903377	-0.025059	-0.001165	-0.028467	-0.270752	0.759521	-0.070068	0.625820	-0.617916	-0.405378	-0.249396
44762		8.042627	-5.542599	-1.039414	-0.046573	0.013524	-0.027942	-0.261475	0.755615	-0.069092	0.625498	-0.618244	-0.405020	-0.249968
44763		7.987671	-5.617455	-0.877478	-0.060821	0.022197	-0.025501	-0.272949	0.757812	-0.069824	0.625128	-0.618691	-0.404447	-0.250718
44764		7.930994	-5.683159	-0.819884	-0.042667	0.010371	-0.024635	-0.264404	0.751953	-0.070801	0.624861	-0.618942	-0.404221	-0.251126
44765		7.912780	-5.721357	-0.749562	-0.025093	0.004496	-0.033057	-0.276611	0.759277	-0.073975	0.624673	-0.619081	-0.404066	-0.251501
44766		8.036744	-5.500120	-0.980014	-0.043309	0.015488	-0.030723	-0.271484	0.752197	-0.073486	0.624397	-0.619320	-0.403813	-0.252005
44767		8.044797	-5.508644	-0.985698	-0.099624	0.048267	-0.023439	-0.275146	0.757812	-0.067139	0.624031	-0.619700	-0.403381	-0.252669
44768		8.023393	-5.578579	-0.921725	-0.101751	0.041171	-0.026338	-0.269287	0.758301	-0.065674	0.623572	-0.620157	-0.402933	-0.253393
44769		8.049833	-5.498314	-0.870715	-0.089280	0.037971	-0.023594	-0.265869	0.757812	-0.070557	0.623117	-0.620679	-0.402305	-0.254231
44770		8.024015	-5.582723	-0.884655	-0.093674	0.037929	-0.021258	-0.271729	0.751709	-0.064453	0.622610	-0.621310	-0.401486	-0.255223
44771		7.930852	-5.722019	-0.850451	-0.091206	0.033949	-0.018534	-0.267822	0.763184	-0.062988	0.622275	-0.621637	-0.401226	-0.255656
44772		7.958236	-5.634766	-0.889339	-0.071257	0.023626	-0.022724	-0.274170	0.755127	-0.052490	0.621769	-0.622259	-0.400430	-0.256617
44773		7.954143	-5.641315	-0.984102	-0.052020	0.018813	-0.025109	-0.270020	0.747070	-0.064453	0.621559	-0.622384	-0.400429	-0.256825
44774		7.967281	-5.629164	-1.001965	-0.042333	0.016071	-0.021981	-0.270752	0.761719	-0.062256	0.621472	-0.622394	-0.400509	-0.256887
44775		7.960559	-5.609882	-0.892794	-0.032429	0.008194	-0.025343	-0.271729	0.758545	-0.064209	0.621156	-0.622753	-0.400036	-0.257516
44776		8.000712	-5.640386	-0.832584	-0.006342	-0.007507	-0.027575	-0.275391	0.750732	-0.054443	0.620973	-0.622916	-0.399850	-0.257854
44777		7.954478	-5.672419	-0.831554	0.005115	-0.019766	-0.027372	-0.283203	0.756592	-0.063965	0.620999	-0.622706	-0.400355	-0.257513
44778		7.975926	-5.607167	-0.855929	0.012696	-0.021041	-0.023886	-0.271729	0.757080	-0.062988	0.620999	-0.622571	-0.400700	-0.257303
44779		7.947899	-5.613071	-0.868888	0.007963	-0.024662	-0.018486	-0.275879	0.756592	-0.061523	0.620876	-0.622690	-0.400647	-0.257395
44780		8.029437	-5.523371	-0.961737	0.030890	-0.034880	-0.019277	-0.278564	0.753418	-0.061279	0.620878	-0.622622	-0.400865	-0.257215
44781		8.062503	-5.523393	-0.970854	0.029837	-0.041486	-0.017687	-0.271973	0.761963	-0.064941	0.620929	-0.622449	-0.401329	-0.256786
44782		8.009697	-5.544154	-0.966918	0.023705	-0.034878	-0.014942	-0.274414	0.755615	-0.061279	0.620776	-0.622662	-0.401108	-0.256985
44783		7.936795	-5.608279	-1.012126	0.018427	-0.027952	-0.013121	-0.265137	0.750000	-0.063965	0.620753	-0.622665	-0.401225	-0.256851
44784		7.991353	-5.584044	-1.021222	0.002260	-0.023401	-0.015125	-0.277344	0.751465	-0.056885	0.620676	-0.622744	-0.401231	-0.256836
44785		8.044526	-5.567888	-0.941174	-0.004083	-0.023103	-0.011725	-0.271973	0.750000	-0.065918	0.620655	-0.622675	-0.401592	-0.256490
44786		8.011890	-5.642355	-0.951117	0.033518	-0.035855	-0.008648	-0.280762	0.752197	-0.055908	0.620757	-0.622545	-0.401871	-0.256121
44787		8.028527	-5.576914	-0.989255	0.071757	-0.056633	-0.016873	-0.269043	0.750488	-0.066162	0.621014	-0.622108	-0.402656	-0.255326
44788		8.001643	-5.561010	-1.026195	0.106240	-0.063847	-0.012306	-0.264160	0.754150	-0.065186	0.621360	-0.621709	-0.403147	-0.254681
44789		8.001261	-5.630707	-1.006911	0.122468	-0.073197	-0.014244	-0.276855	0.754639	-0.064453	0.621669	-0.621396	-0.403466	-0.254186
44790		7.955546	-5.704172	-0.978025	0.132947	-0.074385	-0.012687	-0.267578	0.756104	-0.061768	0.622106	-0.620858	-0.404145	-0.253351
44791		7.941105	-5.621825	-0.942317	0.133057	-0.074244	-0.012570	-0.269531	0.751221	-0.066162	0.622465	-0.620477	-0.404549	-0.252756
44792		7.956016	-5.668958	-0.860452	0.109201	-0.065672	-0.015553	-0.268066	0.753662	-0.068604	0.622804	-0.620056	-0.405085	-0.252098
44793		7.968691	-5.643475	-0.811795	0.100313	-0.063466	-0.016361	-0.272705	0.755127	-0.070557	0.623050	-0.619768	-0.405431	-0.251639
44794		7.921055	-5.678340	-0.806877	0.094379	-0.062413	-0.018463	-0.273682	0.753174	-0.072998	0.623266	-0.619482	-0.405816	-0.251186
44795		7.944701	-5.672157	-0.855492	0.126818	-0.081906	-0.019128	-0.280273	0.753418	-0.070312	0.623613	-0.619013	-0.406453	-0.250450
44796		7.994016	-5.559971	-0.967362	0.152996	-0.096939	-0.018642	-0.275635	0.760742	-0.070801	0.624085	-0.618338	-0.407419	-0.249370
44797		7.970239	-5.637035	-1.018014	0.202046	-0.114731	-0.016240	-0.283203	0.753906	-0.079834	0.624612	-0.617709	-0.408146	-0.248420
44798		8.000167	-5.644071	-1.141302	0.279021	-0.140278	-0.013434	-0.272461	0.751953	-0.079102	0.625581	-0.616502	-0.409523	-0.246709
44799		8.017037	-5.586821	-1.157278	0.322394	-0.150109	-0.011147	-0.271240	0.750488	-0.083496	0.626704	-0.615188	-0.410847	-0.244930
44800		8.053147	-5.529283	-1.145859	0.318972	-0.138907	-0.005949	-0.280273	0.756836	-0.089355	0.627859	-0.613880	-0.412071	-0.243191
44801		8.028183	-5.552594	-1.025710	0.304642	-0.119559	0.000086	-0.273438	0.750000	-0.086670	0.628963	-0.612686	-0.413061	-0.241665
44802		8.018361	-5.594377	-0.864870	0.300618	-0.111812	0.001273	-0.277100	0.760498	-0.093506	0.630138	-0.611394	-0.414148	-0.240010
44803		7.986440	-5.621269	-0.801964	0.325469	-0.123287	-0.001922	-0.276855	0.745850	-0.093262	0.631249	-0.610226	-0.414983	-0.238617
44804		7.984919	-5.590918	-0.799164	0.327586	-0.133526	-0.004590	-0.273438	0.741943	-0.104248	0.632533	-0.608668	-0.416484	-0.236572
44805		7.980356	-5.592621	-0.801539	0.296128	-0.126232	-0.005443	-0.287109	0.754639	-0.101807	0.633686	-0.607266	-0.417825	-0.234720
44806		7.956500	-5.698412	-0.798459	0.242102	-0.101356	-0.004887	-0.277832	0.747803	-0.101807	0.634548	-0.606214	-0.418818	-0.233334
44807		7.991592	-5.578139	-1.010285	0.188105	-0.059758	-0.001024	-0.275391	0.753662	-0.100342	0.635333	-0.605328	-0.419516	-0.232243
44808		8.069240	-5.513312	-0.951660	0.097994	-0.004619	0.000737	-0.268066	0.750977	-0.104980	0.635774	-0.604978	-0.419502	-0.231972
44809		7.920500	-5.768094	-0.755100	0.048847	0.021080	0.003793	-0.278076	0.751953	-0.104980	0.636058	-0.604899	-0.419127	-0.232077
44810		7.880224	-5.763796	-0.691749	0.074395	0.007311	0.004956	-0.269775	0.747314	-0.108887	0.636460	-0.604602	-0.419079	-0.231836
44811		7.968135	-5.668207	-0.603210	0.086633	-0.003450	-0.001351	-0.271973	0.751221	-0.114502	0.636891	-0.604248	-0.419088	-0.231560
44812		7.943285	-5.703646	-0.548734	0.090762	-0.018587	0.000032	-0.270020	0.747070	-0.117920	0.637241	-0.604003	-0.419027	-0.231346
44813		7.913419	-5.747739	-0.541034	0.097185	-0.037177	-0.004344	-0.280518	0.747559	-0.115234	0.637590	-0.603682	-0.419175	-0.230953
44814		7.919584	-5.671587	-0.591559	0.093410	-0.048570	-0.004180	-0.278320	0.744873	-0.108398	0.637928	-0.603257	-0.419645	-0.230275
44815		7.906405	-5.733832	-0.623963	0.069659	-0.050772	-0.005183	-0.278564	0.754395	-0.109863	0.638175	-0.602876	-0.420226	-0.229527
44816		7.904842	-5.744141	-0.655286	0.062083	-0.050495	-0.009523	-0.265137	0.742920	-0.120117	0.638253	-0.602757	-0.420459	-0.229197
44817		7.931999	-5.754703	-0.710075	0.018807	-0.035444	-0.013624	-0.274414	0.747803	-0.118164	0.638226	-0.602779	-0.420534	-0.229077
44818		7.860289	-5.867848	-0.752507	-0.016804	-0.010122	-0.018436	-0.274902	0.746338	-0.111572	0.638080	-0.602916	-0.420485	-0.229213
44819		7.912617	-5.740121	-0.890804	-0.044990	0.016742	-0.022840	-0.279541	0.751709	-0.112793	0.637911	-0.603056	-0.420403	-0.229465
44820		7.948014	-5.795073	-0.771331	-0.089027	0.037285	-0.025376	-0.276855	0.749756	-0.113281	0.637536	-0.603464	-0.420029	-0.230118
44821		7.829961	-5.907334	-0.817139	-0.054331	0.033766	-0.030539	-0.262695	0.755371	-0.112305	0.637325	-0.603670	-0.419761	-0.230653
44822		7.945691	-5.724982	-0.856242	-0.020599	0.015479	-0.038309	-0.268311	0.751465	-0.115234	0.637080	-0.604001	-0.419202	-0.231477
44823		7.955499	-5.632394	-0.803066	-0.024105	0.017449	-0.033874	-0.273926	0.753174	-0.109863	0.636892	-0.604232	-0.418805	-0.232110
44824		7.921582	-5.735960	-0.729499	-0.004743	0.007335	-0.032596	-0.270264	0.749512	-0.105225	0.636778	-0.604331	-0.418610	-0.232517
44825		7.984491	-5.667531	-0.615478	0.042408	-0.026477	-0.033314	-0.275391	0.749268	-0.108643	0.636821	-0.604174	-0.418792	-0.232478
44826		7.988147	-5.585197	-0.607504	0.063106	-0.047276	-0.032694	-0.277344	0.753418	-0.111572	0.636914	-0.603905	-0.419195	-0.232197
44827		7.955829	-5.611913	-0.602771	0.090022	-0.068360	-0.031393	-0.278076	0.745605	-0.108643	0.637015	-0.603640	-0.419601	-0.231872
44828		8.019811	-5.534438	-0.702390	0.106692	-0.087655	-0.027735	-0.276367	0.751465	-0.115479	0.637250	-0.603119	-0.420460	-0.231027
44829		8.063228	-5.517223	-0.864464	0.103901	-0.084264	-0.024945	-0.285400	0.745850	-0.113037	0.637385	-0.602831	-0.420933	-0.230544
44830		8.063166	-5.514525	-0.790335	0.091640	-0.078870	-0.020791	-0.279785	0.741211	-0.119385	0.637598	-0.602349	-0.421766	-0.229691
