// Start Time: Unknown
// Update Rate: 60.0Hz
// Filter Profile: human (46.1)
// Firmware Version: 4.6.0
PacketCounter	SampleTimeFine	Acc_X	Acc_Y	Acc_Z	Gyr_X	Gyr_Y	Gyr_Z	Mag_X	Mag_Y	Mag_Z	Quat_q0	Quat_q1	Quat_q2	Quat_q3
28000		-0.454311	9.127337	-3.539026	-0.002958	0.005591	-0.011658	-0.002930	-0.973877	-0.162354	0.360465	0.555691	-0.609699	-0.435362
28001		-0.449939	9.114310	-3.564217	-0.002489	0.009094	-0.013280	-0.006348	-0.976074	-0.164795	0.360418	0.555904	-0.609487	-0.435426
28002		-0.449565	9.096012	-3.554586	0.003273	0.008034	-0.013988	-0.009033	-0.980225	-0.171143	0.360363	0.556084	-0.609338	-0.435450
28003		-0.465447	9.109380	-3.548970	0.007795	0.007893	-0.017106	-0.005615	-0.977539	-0.162109	0.360285	0.556271	-0.609215	-0.435448
28004		-0.425940	9.127610	-3.567475	0.011252	0.005587	-0.013002	-0.007324	-0.968750	-0.171387	0.360186	0.556454	-0.609115	-0.435436
28005		-0.401305	9.147925	-3.557258	0.012073	0.006881	-0.015106	-0.008057	-0.982178	-0.167236	0.360087	0.556645	-0.609015	-0.435413
28006		-0.438423	9.145720	-3.532675	0.009448	0.007623	-0.015744	-0.008545	-0.973145	-0.173340	0.360010	0.556818	-0.608917	-0.435392
28007		-0.433749	9.143687	-3.581875	0.004650	0.006672	-0.018438	-0.006836	-0.975342	-0.169922	0.359942	0.556985	-0.608794	-0.435408
28008		-0.425126	9.136155	-3.576032	0.000273	0.007906	-0.019503	-0.008301	-0.970459	-0.162354	0.359895	0.557154	-0.608641	-0.435443
28009		-0.445525	9.114307	-3.568809	-0.004040	0.009137	-0.015572	-0.003662	-0.974609	-0.164795	0.359898	0.557273	-0.608511	-0.435470
28010		-0.455204	9.115099	-3.587403	-0.002844	0.011300	-0.012797	-0.004150	-0.966553	-0.164551	0.359904	0.557422	-0.608359	-0.435487
28011		-0.464566	9.115762	-3.606361	0.000659	0.010315	-0.011942	-0.005371	-0.976318	-0.168945	0.359893	0.557568	-0.608237	-0.435481
28012		-0.483277	9.135782	-3.587673	0.005996	0.005538	-0.016952	-0.004395	-0.979492	-0.164062	0.359823	0.557727	-0.608131	-0.435483
28013		-0.482688	9.128582	-3.601776	0.011141	0.002746	-0.017416	-0.006836	-0.974854	-0.162354	0.359701	0.557900	-0.608057	-0.435464
28014		-0.497368	9.123417	-3.587158	0.010312	-0.000087	-0.017991	-0.019531	-0.970947	-0.165283	0.359569	0.558047	-0.608013	-0.435447
28015		-0.442343	9.140448	-3.567315	0.006455	-0.001291	-0.015476	-0.004639	-0.978027	-0.158691	0.359498	0.558075	-0.608046	-0.435423
28016		-0.441469	9.133627	-3.580509	-0.000642	-0.001960	-0.010686	-0.012939	-0.975830	-0.172363	0.359424	0.558163	-0.607996	-0.435441
28017		-0.434444	9.114027	-3.618437	-0.004147	0.003420	-0.014428	-0.010254	-0.971924	-0.164551	0.359450	0.558191	-0.607913	-0.435499
28018		-0.471199	9.112662	-3.591526	-0.005061	0.003886	-0.008713	-0.012695	-0.977783	-0.159424	0.359455	0.558237	-0.607870	-0.435497
28019		-0.447530	9.122344	-3.556511	-0.000751	0.001123	-0.015318	-0.010498	-0.969727	-0.169922	0.359397	0.558308	-0.607850	-0.435482
28020		-0.463828	9.135877	-3.550330	0.004761	-0.002336	-0.013584	0.000732	-0.977539	-0.167725	0.359329	0.558367	-0.607820	-0.435503
28021		-0.457277	9.115834	-3.589338	0.004964	-0.002781	-0.015448	-0.000244	-0.976318	-0.169678	0.359231	0.558508	-0.607723	-0.435540
28022		-0.440635	9.107605	-3.564609	0.003056	-0.000527	-0.017259	-0.012207	-0.968506	-0.170410	0.359156	0.558650	-0.607606	-0.435582
28023		-0.460059	9.127528	-3.546031	0.005690	0.000277	-0.013939	-0.005615	-0.971191	-0.169434	0.359109	0.558705	-0.607592	-0.435570
28024		-0.471389	9.116098	-3.543477	0.006768	-0.000413	-0.015589	-0.009277	-0.979980	-0.178223	0.359033	0.558814	-0.607537	-0.435570
28025		-0.471391	9.169374	-3.554842	0.006981	0.002220	-0.012098	-0.009277	-0.973389	-0.158936	0.359037	0.558859	-0.607479	-0.435589
28026		-0.483223	9.146418	-3.529608	0.003321	0.004962	-0.014336	-0.009521	-0.976807	-0.159180	0.358973	0.558970	-0.607468	-0.435516
28027		-0.453003	9.154353	-3.543413	0.000486	0.004603	-0.015790	-0.006348	-0.972412	-0.169434	0.358925	0.559067	-0.607437	-0.435474
28028		-0.446762	9.123007	-3.559190	-0.000329	0.004846	-0.011010	-0.002930	-0.971191	-0.162109	0.358938	0.559134	-0.607363	-0.435479
28029		-0.413956	9.113100	-3.562551	-0.004558	0.008703	-0.013582	-0.003906	-0.970215	-0.168213	0.358946	0.559262	-0.607257	-0.435457
28030		-0.435738	9.109443	-3.564849	-0.002704	0.007992	-0.014085	-0.010742	-0.979980	-0.167969	0.358974	0.559367	-0.607141	-0.435461
28031		-0.452679	9.152880	-3.590578	0.000286	0.005051	-0.013923	-0.014160	-0.972168	-0.168701	0.358992	0.559405	-0.607102	-0.435452
28032		-0.475725	9.137290	-3.571108	0.002858	0.005860	-0.015596	-0.006592	-0.975586	-0.173340	0.359002	0.559437	-0.607081	-0.435431
28033		-0.465743	9.141447	-3.587763	0.001934	0.003247	-0.015239	-0.010498	-0.975586	-0.172363	0.359010	0.559497	-0.606999	-0.435462
28034		-0.462658	9.116582	-3.590932	0.000287	0.005051	-0.013921	-0.000244	-0.972412	-0.176514	0.359043	0.559522	-0.606946	-0.435477
28035		-0.467405	9.122992	-3.578290	0.000753	0.004159	-0.012656	-0.010010	-0.965820	-0.171631	0.359064	0.559612	-0.606813	-0.435529
28036		-0.466198	9.116426	-3.590872	-0.003525	0.005156	-0.014658	-0.005615	-0.986816	-0.171631	0.359104	0.559650	-0.606738	-0.435552
28037		-0.480057	9.112091	-3.574136	-0.003579	0.008236	-0.014295	-0.005371	-0.968018	-0.167725	0.359163	0.559700	-0.606646	-0.435567
28038		-0.507021	9.133002	-3.573622	-0.001985	0.009513	-0.015250	-0.009033	-0.968506	-0.167236	0.359186	0.559813	-0.606548	-0.435540
28039		-0.480392	9.136167	-3.551611	-0.000792	0.005742	-0.012269	-0.011719	-0.976318	-0.175781	0.359204	0.559866	-0.606510	-0.435509
28040		-0.452798	9.150940	-3.552154	-0.001565	0.005764	-0.013414	-0.004639	-0.966797	-0.172852	0.359272	0.559847	-0.606461	-0.435546
28041		-0.432095	9.136719	-3.539125	-0.004547	0.004303	-0.010691	-0.007080	-0.973389	-0.171143	0.359319	0.559891	-0.606361	-0.435588
28042		-0.423558	9.159662	-3.564069	-0.010111	0.004892	-0.011857	-0.003418	-0.972900	-0.173096	0.359398	0.559899	-0.606273	-0.435636
28043		-0.428718	9.124675	-3.561684	-0.015163	0.008983	-0.009651	-0.008789	-0.970215	-0.171875	0.359528	0.559918	-0.606129	-0.435705
28044		-0.443994	9.139123	-3.553123	-0.013363	0.009817	-0.012468	-0.006348	-0.975098	-0.174561	0.359658	0.559920	-0.606023	-0.435743
28045		-0.420100	9.118810	-3.551781	-0.007286	0.009659	-0.013281	-0.000732	-0.976074	-0.167236	0.359761	0.559944	-0.605914	-0.435779
28046		-0.424685	9.125589	-3.538180	-0.004713	0.010473	-0.014951	-0.005127	-0.971680	-0.173584	0.359795	0.560078	-0.605794	-0.435746
28047		-0.449513	9.128396	-3.527704	-0.003529	0.011102	-0.014854	-0.004395	-0.972900	-0.172363	0.359878	0.560144	-0.605679	-0.435751
28048		-0.433961	9.138879	-3.511627	-0.004053	0.015075	-0.015753	-0.011719	-0.972656	-0.168213	0.359974	0.560237	-0.605550	-0.435731
28049		-0.452762	9.128535	-3.526929	-0.001375	0.015670	-0.018353	-0.006836	-0.972412	-0.169922	0.360061	0.560300	-0.605503	-0.435644
28050		-0.408170	9.153689	-3.511985	0.000477	0.016500	-0.016177	-0.002930	-0.983398	-0.174561	0.360140	0.560399	-0.605420	-0.435567
28051		-0.384478	9.132760	-3.512295	0.000537	0.013421	-0.016540	-0.006348	-0.974121	-0.159912	0.360209	0.560475	-0.605316	-0.435556
28052		-0.365192	9.148189	-3.531968	-0.001679	0.014800	-0.018231	-0.009766	-0.967529	-0.177979	0.360237	0.560634	-0.605268	-0.435396
28053		-0.379218	9.143614	-3.515752	0.000600	0.010343	-0.016902	-0.009766	-0.970215	-0.171875	0.360350	0.560623	-0.605186	-0.435430
28054		-0.388437	9.155702	-3.557528	0.000809	0.009901	-0.018763	-0.011475	-0.965088	-0.167969	0.360425	0.560656	-0.605134	-0.435398
28055		-0.421920	9.117350	-3.512078	0.000756	0.011445	-0.021073	-0.002686	-0.970947	-0.176514	0.360494	0.560723	-0.605089	-0.435317
28056		-0.420461	9.122275	-3.547551	0.000598	0.013211	-0.022452	-0.010254	-0.971924	-0.165283	0.360567	0.560822	-0.604927	-0.435355
28057		-0.432193	9.110948	-3.544551	0.004049	0.013789	-0.023902	-0.007080	-0.970947	-0.171875	0.360602	0.560936	-0.604901	-0.435215
28058		-0.440161	9.135136	-3.542428	0.005961	0.011542	-0.022090	-0.007568	-0.979248	-0.177979	0.360643	0.561019	-0.604836	-0.435164
28059		-0.465986	9.137035	-3.534004	0.011830	0.011839	-0.021031	-0.002686	-0.972900	-0.166016	0.360683	0.561034	-0.604809	-0.435149
28060		-0.465611	9.129616	-3.548734	0.013023	0.010936	-0.023607	-0.008789	-0.975586	-0.167480	0.360636	0.561242	-0.604749	-0.435004
28061		-0.466638	9.141085	-3.506305	0.014101	0.011790	-0.022575	-0.004639	-0.980469	-0.175293	0.360624	0.561348	-0.604768	-0.434850
28062		-0.471242	9.127732	-3.552834	0.010292	0.011882	-0.023318	-0.001709	-0.970215	-0.175781	0.360636	0.561406	-0.604717	-0.434837
28063		-0.467961	9.144595	-3.544986	0.007507	0.011504	-0.019790	-0.007324	-0.975342	-0.170410	0.360673	0.561492	-0.604603	-0.434852
28064		-0.458298	9.148594	-3.562220	0.004986	0.012006	-0.021366	0.000488	-0.971436	-0.166260	0.360721	0.561548	-0.604572	-0.434784
28065		-0.472710	9.143749	-3.546539	0.000447	0.012108	-0.018272	0.000977	-0.973145	-0.172852	0.360750	0.561721	-0.604454	-0.434700
28066		-0.422752	9.113915	-3.569214	-0.000747	0.013013	-0.015695	-0.005371	-0.977051	-0.169434	0.360823	0.561811	-0.604323	-0.434706
28067		-0.480102	9.107787	-3.546238	0.001287	0.009010	-0.017486	-0.009033	-0.974365	-0.162354	0.360872	0.561844	-0.604304	-0.434648
28068		-0.449182	9.127656	-3.582431	0.002948	0.007215	-0.018797	-0.002686	-0.976562	-0.166260	0.360890	0.561915	-0.604346	-0.434484
28069		-0.425999	9.106625	-3.583171	0.005935	0.005825	-0.015954	-0.004639	-0.976807	-0.169678	0.360877	0.562006	-0.604342	-0.434382
28070		-0.442418	9.119757	-3.577660	0.005022	0.003206	-0.015603	-0.004395	-0.963623	-0.172119	0.360880	0.562017	-0.604359	-0.434342
28071		-0.430599	9.136429	-3.549952	0.003788	0.001250	-0.012461	0.005859	-0.977051	-0.174561	0.360924	0.562011	-0.604329	-0.434354
28072		-0.460829	9.132631	-3.572541	0.003768	-0.003146	-0.014567	-0.006104	-0.976562	-0.174072	0.360876	0.562073	-0.604231	-0.434451
28073		-0.445330	9.154604	-3.579525	-0.002205	-0.003235	-0.014699	-0.003906	-0.973389	-0.169434	0.360914	0.561966	-0.604252	-0.434529
28074		-0.451320	9.119013	-3.578445	-0.004941	-0.002295	-0.014416	0.006104	-0.965332	-0.175781	0.360945	0.561942	-0.604238	-0.434553
28075		-0.485844	9.110561	-3.564543	-0.003187	-0.002773	-0.013984	-0.003662	-0.972168	-0.169922	0.360960	0.562003	-0.604064	-0.434703
28076		-0.502540	9.124231	-3.557535	-0.004833	-0.002516	-0.015345	-0.006104	-0.972900	-0.163086	0.360989	0.561984	-0.604044	-0.434732
28077		-0.499402	9.099626	-3.560108	0.000247	-0.000648	-0.012756	-0.003662	-0.974609	-0.169189	0.360990	0.562015	-0.604104	-0.434607
28078		-0.499866	9.111927	-3.515706	0.002053	0.000197	-0.015563	-0.003174	-0.978027	-0.173584	0.360986	0.562026	-0.604115	-0.434582
28079		-0.498731	9.147221	-3.516927	0.007257	0.000309	-0.016576	-0.007080	-0.970703	-0.171875	0.360964	0.562005	-0.604133	-0.434601
28080		-0.494417	9.175977	-3.530975	0.003362	-0.003792	-0.013516	-0.002686	-0.973389	-0.176758	0.360979	0.561926	-0.604187	-0.434616
28081		-0.491111	9.151145	-3.534167	0.000411	-0.002413	-0.011374	-0.007080	-0.968750	-0.175781	0.361014	0.561828	-0.604181	-0.434723
28082		-0.469557	9.148776	-3.543551	-0.006047	-0.000080	-0.010096	-0.004639	-0.973877	-0.165771	0.361125	0.561678	-0.604187	-0.434816
28083		-0.449559	9.123432	-3.507300	-0.006868	-0.001386	-0.008002	-0.002441	-0.977051	-0.168213	0.361174	0.561658	-0.604218	-0.434757
28084		-0.421340	9.108379	-3.541412	-0.008784	0.000857	-0.009813	-0.004395	-0.975342	-0.178467	0.361226	0.561640	-0.604209	-0.434751
28085		-0.413947	9.119894	-3.543579	-0.008233	0.004149	-0.012355	0.000244	-0.967773	-0.169189	0.361336	0.561502	-0.604173	-0.434887
28086		-0.433148	9.140090	-3.523801	-0.000702	0.002675	-0.012604	-0.010498	-0.969238	-0.173096	0.361362	0.561584	-0.604100	-0.434860
28087		-0.425514	9.120365	-3.562384	0.005347	-0.000308	-0.012836	-0.008789	-0.975830	-0.176758	0.361410	0.561475	-0.604188	-0.434839
28088		-0.381581	9.145633	-3.548269	0.008085	-0.001242	-0.013117	-0.007324	-0.974854	-0.179443	0.361427	0.561336	-0.604285	-0.434870
28089		-0.378038	9.162566	-3.540452	0.011504	-0.003509	-0.013995	0.001465	-0.975830	-0.179443	0.361417	0.561191	-0.604371	-0.434945
28090		-0.348878	9.159063	-3.532472	0.005915	-0.008683	-0.009059	-0.007568	-0.972900	-0.168213	0.361373	0.561095	-0.604380	-0.435094
28091		-0.426010	9.117905	-3.547267	-0.002499	-0.004107	-0.014572	-0.010742	-0.970215	-0.171631	0.361402	0.561069	-0.604418	-0.435051
28092		-0.454012	9.138537	-3.546624	-0.005400	-0.001408	-0.015669	-0.004883	-0.965820	-0.174072	0.361485	0.560971	-0.604453	-0.435059
28093		-0.496877	9.130431	-3.551829	-0.002446	-0.002782	-0.017809	-0.008789	-0.982422	-0.170410	0.361523	0.560940	-0.604406	-0.435132
28094		-0.527539	9.168997	-3.561290	-0.001539	-0.000159	-0.018159	-0.002930	-0.973389	-0.177490	0.361537	0.560884	-0.604472	-0.435102
28095		-0.537702	9.128216	-3.524984	-0.005262	0.001232	-0.017162	-0.007324	-0.970215	-0.175537	0.361585	0.560813	-0.604416	-0.435231
28096		-0.530064	9.109703	-3.495443	-0.003292	0.000317	-0.018589	-0.007080	-0.977539	-0.174072	0.361641	0.560739	-0.604400	-0.435303
28097		-0.542946	9.128439	-3.523601	-0.006382	-0.000950	-0.014951	-0.007080	-0.969238	-0.172363	0.361692	0.560639	-0.604423	-0.435357
28098		-0.524244	9.144460	-3.542178	-0.007366	-0.000492	-0.014237	-0.006104	-0.978271	-0.175781	0.361770	0.560585	-0.604407	-0.435385
28099		-0.526339	9.144743	-3.541136	-0.006295	0.000366	-0.013208	-0.001221	-0.973145	-0.171143	0.361825	0.560472	-0.604426	-0.435457
28100		-0.470322	9.133370	-3.553416	-0.007468	0.004123	-0.011201	-0.002197	-0.968262	-0.170898	0.361888	0.560502	-0.604362	-0.435455
28101		-0.464642	9.132328	-3.600459	-0.005633	0.000570	-0.011133	-0.004639	-0.968506	-0.164307	0.361942	0.560531	-0.604306	-0.435451
28102		-0.431748	9.123272	-3.603077	-0.005741	0.000790	-0.010204	-0.003418	-0.973389	-0.171631	0.361997	0.560616	-0.604284	-0.435325
28103		-0.407600	9.145243	-3.590130	-0.003632	-0.004749	-0.009688	0.000244	-0.971191	-0.177246	0.362010	0.560583	-0.604298	-0.435338
28104		-0.401409	9.144822	-3.570629	-0.001194	-0.006553	-0.009854	-0.008057	-0.968506	-0.175293	0.362004	0.560527	-0.604272	-0.435452
28105		-0.375425	9.148563	-3.548176	-0.003796	-0.014643	-0.009732	-0.002441	-0.968018	-0.172852	0.362013	0.560366	-0.604345	-0.435550
28106		-0.397321	9.144471	-3.550715	0.000384	-0.018259	-0.001254	-0.002930	-0.971436	-0.169434	0.361983	0.560270	-0.604418	-0.435598
28107		-0.369802	9.159826	-3.550943	-0.002625	-0.027002	-0.000085	-0.012451	-0.970215	-0.171387	0.361910	0.560160	-0.604532	-0.435641
28108		-0.380858	9.137306	-3.524182	-0.005411	-0.027398	0.003438	-0.003174	-0.976074	-0.169189	0.361910	0.559881	-0.604755	-0.435689
28109		-0.414509	9.128866	-3.509713	-0.007228	-0.029770	-0.001402	-0.003662	-0.972168	-0.178223	0.361824	0.559754	-0.604868	-0.435768
28110		-0.472312	9.122636	-3.485481	-0.003242	-0.030267	-0.007494	0.002197	-0.970215	-0.178467	0.361731	0.559554	-0.604950	-0.435988
28111		-0.543728	9.152649	-3.500920	0.007629	-0.035295	-0.010378	-0.009766	-0.973389	-0.175537	0.361531	0.559464	-0.604996	-0.436206
28112		-0.511214	9.155199	-3.460983	0.010201	-0.034456	-0.012040	-0.002197	-0.969482	-0.163574	0.361353	0.559275	-0.605191	-0.436325
28113		-0.460756	9.137898	-3.440229	0.006377	-0.028458	-0.008001	-0.008057	-0.978271	-0.171143	0.361180	0.559332	-0.605279	-0.436273
28114		-0.463372	9.137439	-3.441098	0.007667	-0.023646	-0.006730	-0.005615	-0.973877	-0.177734	0.361051	0.559210	-0.605458	-0.436288
28115		-0.456489	9.148276	-3.445118	0.001338	-0.014303	-0.004831	-0.004150	-0.973145	-0.171631	0.361026	0.559053	-0.605540	-0.436396
28116		-0.516662	9.201210	-3.486150	-0.003455	-0.003655	-0.008862	-0.007812	-0.972412	-0.168945	0.361041	0.559039	-0.605538	-0.436405
28117		-0.527351	9.190255	-3.481899	-0.006496	0.002129	-0.014566	-0.001709	-0.972900	-0.170654	0.361085	0.559054	-0.605522	-0.436371
28118		-0.511638	9.170540	-3.500339	-0.004160	0.004939	-0.011706	-0.010498	-0.973145	-0.178711	0.361123	0.559126	-0.605451	-0.436346
28119		-0.472882	9.136938	-3.506210	-0.006512	0.008054	-0.009794	-0.003418	-0.975586	-0.173340	0.361250	0.558986	-0.605463	-0.436404
28120		-0.450375	9.135095	-3.514915	-0.010727	0.011860	-0.007380	-0.007568	-0.970703	-0.173340	0.361374	0.558986	-0.605393	-0.436397
28121		-0.486095	9.133336	-3.486993	-0.013381	0.009709	-0.007453	-0.010742	-0.974365	-0.177490	0.361528	0.558932	-0.605349	-0.436401
28122		-0.486140	9.145465	-3.508146	-0.005633	0.007820	-0.009579	-0.003418	-0.975586	-0.170898	0.361641	0.558814	-0.605372	-0.436426
28123		-0.470515	9.156350	-3.491783	-0.005205	0.006944	-0.013294	-0.009277	-0.977539	-0.175049	0.361683	0.558883	-0.605310	-0.436389
28124		-0.454241	9.178907	-3.497883	-0.006403	0.007838	-0.010720	-0.010742	-0.971191	-0.175781	0.361772	0.558814	-0.605321	-0.436388
28125		-0.441871	9.153997	-3.481245	-0.001801	0.006222	-0.011510	-0.008545	-0.970703	-0.173584	0.361853	0.558746	-0.605342	-0.436380
28126		-0.424657	9.146003	-3.522280	-0.008200	0.006981	-0.007911	-0.001709	-0.970215	-0.172852	0.361966	0.558698	-0.605328	-0.436365
28127		-0.410854	9.133264	-3.526936	-0.016399	0.012617	-0.007611	-0.011475	-0.967773	-0.172119	0.362122	0.558738	-0.605194	-0.436371
28128		-0.414463	9.140660	-3.511670	-0.017576	0.011979	-0.007706	-0.006348	-0.971680	-0.175049	0.362317	0.558670	-0.605157	-0.436348
28129		-0.388460	9.132832	-3.532078	-0.013036	0.006175	-0.004697	-0.010742	-0.973145	-0.175049	0.362450	0.558605	-0.605123	-0.436368
28130		-0.394697	9.157903	-3.527675	-0.005327	-0.001428	-0.005693	-0.014404	-0.967285	-0.175049	0.362516	0.558490	-0.605186	-0.436373
28131		-0.408685	9.141622	-3.488502	-0.000230	-0.005464	-0.007894	-0.008301	-0.968262	-0.172363	0.362554	0.558356	-0.605289	-0.436370
28132		-0.413071	9.159573	-3.498459	0.003625	-0.008591	-0.012497	-0.009766	-0.967041	-0.179199	0.362513	0.558351	-0.605329	-0.436354
28133		-0.425053	9.136347	-3.473207	0.006386	-0.006655	-0.013349	-0.009277	-0.971680	-0.174072	0.362489	0.558270	-0.605378	-0.436410
28134		-0.445939	9.143955	-3.432598	0.009081	-0.003171	-0.016506	-0.012451	-0.978027	-0.177490	0.362433	0.558285	-0.605423	-0.436374
28135		-0.464909	9.186510	-3.459656	0.007559	-0.000277	-0.019353	-0.016113	-0.968018	-0.185303	0.362390	0.558232	-0.605494	-0.436381
28136		-0.474123	9.198900	-3.435074	0.004557	0.005492	-0.020076	-0.010010	-0.970703	-0.176025	0.362440	0.558074	-0.605538	-0.436481
28137		-0.430637	9.182641	-3.432611	-0.002339	0.008665	-0.015068	-0.008301	-0.970459	-0.171143	0.362512	0.558063	-0.605513	-0.436470
28138		-0.438776	9.153500	-3.418773	-0.006835	0.010058	-0.015206	-0.010254	-0.974854	-0.175293	0.362598	0.558125	-0.605446	-0.436411
28139		-0.442751	9.129577	-3.440267	-0.001784	0.009087	-0.012066	-0.006104	-0.971680	-0.176514	0.362669	0.558102	-0.605452	-0.436373
28140		-0.430957	9.157601	-3.501463	0.000231	0.009512	-0.016729	-0.011963	-0.963135	-0.180420	0.362713	0.558149	-0.605389	-0.436364
28141		-0.412348	9.173137	-3.521899	0.009160	0.008280	-0.018753	-0.008545	-0.975342	-0.187988	0.362747	0.558127	-0.605388	-0.436364
28142		-0.407327	9.160280	-3.481907	0.010933	0.010672	-0.018888	-0.013184	-0.975342	-0.181885	0.362757	0.558050	-0.605393	-0.436448
28143		-0.441083	9.119870	-3.505342	0.013438	0.013068	-0.022853	-0.001709	-0.980225	-0.180420	0.362757	0.558033	-0.605426	-0.436424
28144		-0.457495	9.143919	-3.523578	0.013455	0.015929	-0.023414	-0.012939	-0.978027	-0.173096	0.362717	0.558158	-0.605353	-0.436399
28145		-0.459222	9.154563	-3.548395	0.014995	0.015900	-0.021127	-0.013184	-0.972168	-0.173096	0.362715	0.558254	-0.605389	-0.436229
28146		-0.464569	9.160018	-3.537931	0.013321	0.017681	-0.019814	-0.002197	-0.970703	-0.168213	0.362751	0.558347	-0.605403	-0.436059
28147		-0.483898	9.136786	-3.532940	0.009940	0.015520	-0.016061	-0.006348	-0.973389	-0.171143	0.362768	0.558576	-0.605316	-0.435873
28148		-0.505697	9.174057	-3.524912	0.006131	0.015579	-0.016801	-0.001465	-0.978760	-0.180664	0.362808	0.558706	-0.605267	-0.435741
28149		-0.489787	9.153627	-3.545481	0.011009	0.009132	-0.016569	-0.009766	-0.968506	-0.176025	0.362777	0.558752	-0.605236	-0.435751
28150		-0.471841	9.157336	-3.543904	0.005431	0.006794	-0.017175	-0.002197	-0.978760	-0.178467	0.362804	0.558760	-0.605232	-0.435723
28151		-0.459406	9.143772	-3.550645	-0.001478	0.002702	-0.013720	-0.003906	-0.972412	-0.173096	0.362809	0.558745	-0.605196	-0.435788
28152		-0.455715	9.161636	-3.540592	-0.008561	0.000375	-0.011642	-0.008301	-0.977295	-0.170410	0.362857	0.558748	-0.605143	-0.435818
28153		-0.468575	9.168996	-3.545463	-0.010659	-0.001364	-0.008722	-0.009277	-0.971436	-0.171143	0.362914	0.558703	-0.605155	-0.435812
28154		-0.466489	9.163167	-3.556463	-0.011988	-0.003119	-0.004661	-0.013428	-0.972656	-0.175293	0.362999	0.558620	-0.605177	-0.435816
28155		-0.447766	9.168186	-3.551665	-0.012169	-0.011464	-0.007010	-0.015869	-0.971436	-0.178223	0.363048	0.558432	-0.605256	-0.435908
28156		-0.433695	9.114088	-3.501499	-0.009579	-0.013492	-0.003134	-0.009033	-0.976318	-0.177490	0.363100	0.558174	-0.605386	-0.436014
28157		-0.458514	9.116667	-3.490164	-0.008547	-0.012612	-0.007078	-0.009277	-0.971191	-0.171875	0.363104	0.558017	-0.605448	-0.436126
28158		-0.450922	9.139834	-3.515130	-0.003343	-0.012459	-0.008095	-0.007080	-0.979004	-0.177002	0.363087	0.557956	-0.605502	-0.436142
28159		-0.442554	9.163476	-3.473782	0.002035	-0.014072	-0.007737	-0.017578	-0.981689	-0.180664	0.363017	0.557857	-0.605590	-0.436205
28160		-0.465332	9.147170	-3.454643	0.005790	-0.009716	-0.009863	-0.005615	-0.965576	-0.174805	0.362971	0.557652	-0.605770	-0.436256
28161		-0.451131	9.145982	-3.417107	0.003233	-0.007707	-0.008766	-0.005859	-0.974121	-0.169434	0.362950	0.557648	-0.605779	-0.436266
28162		-0.463615	9.164207	-3.446483	0.004341	-0.005514	-0.010971	-0.013428	-0.969238	-0.183594	0.362902	0.557711	-0.605797	-0.436200
28163		-0.486597	9.190016	-3.415229	0.005054	-0.001119	-0.012697	-0.007324	-0.972900	-0.169922	0.362912	0.557575	-0.605862	-0.436276
28164		-0.476513	9.194474	-3.432068	0.003365	-0.002203	-0.010821	-0.009521	-0.966064	-0.180664	0.362892	0.557629	-0.605876	-0.436205
28165		-0.438711	9.191376	-3.404122	0.000818	0.002665	-0.010289	-0.012695	-0.968506	-0.166748	0.362942	0.557557	-0.605878	-0.436251
28166		-0.395716	9.163072	-3.446012	-0.000279	0.003333	-0.008647	-0.005371	-0.979004	-0.177246	0.362994	0.557597	-0.605904	-0.436121
28167		-0.407305	9.181600	-3.474680	-0.002541	0.006217	-0.007668	-0.012451	-0.972412	-0.178711	0.363044	0.557576	-0.605890	-0.436125
28168		-0.409876	9.169235	-3.518912	-0.002618	0.004906	-0.009406	-0.003174	-0.971436	-0.179932	0.363114	0.557487	-0.605917	-0.436144
28169		-0.420643	9.146358	-3.492749	-0.000236	0.004665	-0.011877	-0.007080	-0.976074	-0.175781	0.363145	0.557494	-0.605858	-0.436191
28170		-0.406408	9.145389	-3.454742	0.001783	0.005097	-0.016533	-0.004150	-0.970703	-0.169434	0.363145	0.557535	-0.605827	-0.436181
28171		-0.427618	9.110058	-3.493206	0.007764	0.008103	-0.016973	-0.016602	-0.975342	-0.183105	0.363129	0.557706	-0.605764	-0.436062
28172		-0.431533	9.139069	-3.527133	0.012748	0.008699	-0.016134	-0.012695	-0.976318	-0.176758	0.363134	0.557626	-0.605848	-0.436045
28173		-0.440856	9.139250	-3.481567	0.018763	0.010178	-0.019237	-0.017090	-0.977783	-0.180908	0.363087	0.557685	-0.605899	-0.435937
28174		-0.449004	9.162499	-3.481635	0.019938	0.010824	-0.019138	-0.008789	-0.969727	-0.179932	0.363051	0.557663	-0.605997	-0.435860
28175		-0.463339	9.156501	-3.468271	0.016130	0.010873	-0.019877	-0.005371	-0.971191	-0.170898	0.363026	0.557725	-0.605988	-0.435814
28176		-0.457139	9.166660	-3.474269	0.016235	0.007796	-0.020237	-0.003906	-0.970215	-0.177002	0.362965	0.557900	-0.605954	-0.435687
28177		-0.474248	9.178920	-3.470178	0.013084	0.008048	-0.018908	-0.009033	-0.976562	-0.172119	0.362929	0.558004	-0.605909	-0.435647
28178		-0.466905	9.158692	-3.510381	0.012200	0.005419	-0.018556	-0.010986	-0.974609	-0.178955	0.362879	0.558089	-0.605924	-0.435559
28179		-0.426602	9.148759	-3.496518	0.010105	0.003675	-0.015638	-0.013916	-0.969238	-0.182373	0.362857	0.558059	-0.605968	-0.435555
28180		-0.431855	9.154588	-3.485168	0.007721	0.003914	-0.013169	-0.006348	-0.974121	-0.180664	0.362879	0.557957	-0.606025	-0.435587
28181		-0.434539	9.153137	-3.553336	0.005953	-0.001347	-0.012466	-0.012695	-0.974609	-0.173096	0.362853	0.557904	-0.606048	-0.435646
28182		-0.417131	9.145531	-3.528875	0.007299	-0.005325	-0.010424	-0.010498	-0.971436	-0.168945	0.362818	0.557856	-0.606137	-0.435612
28183		-0.421940	9.163113	-3.539654	0.005871	-0.008381	-0.013067	-0.013916	-0.977783	-0.170410	0.362761	0.557871	-0.606187	-0.435569
28184		-0.416103	9.120042	-3.533758	0.008256	-0.008618	-0.015533	-0.009521	-0.973389	-0.177002	0.362678	0.557852	-0.606280	-0.435534
28185		-0.440609	9.102313	-3.582537	0.010236	-0.009513	-0.016955	-0.008789	-0.971924	-0.169189	0.362580	0.557816	-0.606338	-0.435581
28186		-0.444299	9.143721	-3.572065	0.012985	-0.010419	-0.017236	-0.014160	-0.976807	-0.182617	0.362459	0.557874	-0.606390	-0.435536
28187		-0.462403	9.144601	-3.544732	0.008918	-0.005549	-0.014030	-0.007080	-0.976074	-0.181885	0.362407	0.557733	-0.606494	-0.435616
28188		-0.492232	9.140791	-3.500906	0.009141	-0.005985	-0.015882	-0.006592	-0.965576	-0.172852	0.362327	0.557666	-0.606537	-0.435708
28189		-0.498138	9.146531	-3.489689	0.011554	-0.009094	-0.012815	-0.003174	-0.980469	-0.170166	0.362247	0.557689	-0.606571	-0.435698
28190		-0.513925	9.182054	-3.530319	0.014079	-0.012421	-0.010674	-0.020508	-0.969971	-0.169189	0.362103	0.557729	-0.606644	-0.435663
28191		-0.540034	9.171617	-3.499689	0.011108	-0.013938	-0.007969	-0.008301	-0.967285	-0.162842	0.362038	0.557624	-0.606823	-0.435603
28192		-0.500175	9.150303	-3.463206	0.012028	-0.012840	-0.010983	-0.008057	-0.975830	-0.172607	0.361933	0.557702	-0.606885	-0.435503
28193		-0.513724	9.156638	-3.470339	-0.000724	-0.005906	-0.010855	-0.010742	-0.971924	-0.170898	0.361912	0.557660	-0.606909	-0.435541
28194		-0.514267	9.126085	-3.504446	-0.006260	-0.005423	-0.007061	-0.012451	-0.980713	-0.176025	0.361945	0.557583	-0.606938	-0.435573
28195		-0.489646	9.160338	-3.513651	-0.010363	-0.000545	-0.008823	-0.010254	-0.963623	-0.171143	0.362005	0.557451	-0.606965	-0.435654
28196		-0.465490	9.129371	-3.489477	-0.011171	0.000998	-0.007303	-0.003662	-0.980957	-0.177734	0.362106	0.557399	-0.606931	-0.435684
28197		-0.485407	9.148402	-3.536226	-0.005380	0.002928	-0.008555	-0.006836	-0.967773	-0.173584	0.362144	0.557354	-0.606902	-0.435751
28198		-0.475565	9.141703	-3.529549	0.001037	-0.003499	-0.010996	-0.006348	-0.969482	-0.179688	0.362138	0.557346	-0.606894	-0.435776
28199		-0.475905	9.153958	-3.485736	0.009246	-0.010395	-0.008044	-0.006348	-0.979492	-0.169678	0.362073	0.557269	-0.606955	-0.435843
28200		-0.422605	9.160791	-3.510364	0.009650	-0.012595	-0.008518	-0.013672	-0.968262	-0.174316	0.361962	0.557270	-0.607037	-0.435821
28201		-0.430393	9.130866	-3.498393	0.009613	-0.013921	-0.005288	-0.014404	-0.976807	-0.174805	0.361898	0.557158	-0.607169	-0.435833
28202		-0.429352	9.166241	-3.499855	0.002760	-0.013861	-0.005625	-0.020264	-0.976074	-0.179199	0.361850	0.557012	-0.607296	-0.435883
28203		-0.388027	9.157319	-3.484164	-0.004133	-0.009409	-0.003872	-0.001953	-0.977051	-0.178955	0.361881	0.556771	-0.607432	-0.435976
28204		-0.436596	9.149743	-3.441181	-0.002996	-0.005888	-0.009310	-0.009277	-0.978271	-0.166504	0.361864	0.556718	-0.607409	-0.436089
28205		-0.437682	9.161416	-3.463260	-0.003109	-0.002810	-0.008954	-0.016113	-0.972168	-0.170898	0.361864	0.556731	-0.607422	-0.436054
28206		-0.416095	9.159532	-3.472906	-0.000140	-0.001289	-0.011659	-0.013916	-0.970947	-0.180176	0.361878	0.556687	-0.607466	-0.436038
28207		-0.423411	9.141550	-3.482500	0.004877	0.003513	-0.014624	-0.018799	-0.961914	-0.178223	0.361891	0.556627	-0.607487	-0.436075
28208		-0.437943	9.124636	-3.444789	0.009199	0.006781	-0.016426	-0.007568	-0.973633	-0.177002	0.361917	0.556590	-0.607519	-0.436055
28209		-0.420832	9.170707	-3.431536	0.012356	0.003680	-0.017182	-0.015381	-0.967285	-0.175781	0.361865	0.556641	-0.607515	-0.436040
28210		-0.434303	9.188056	-3.462599	0.014952	0.011589	-0.023211	-0.006348	-0.970215	-0.170410	0.361845	0.556715	-0.607508	-0.435972
28211		-0.437022	9.187176	-3.464592	0.009930	0.012504	-0.021386	-0.008789	-0.973145	-0.168945	0.361832	0.556877	-0.607429	-0.435884
28212		-0.431226	9.186531	-3.446293	-0.001182	0.016321	-0.019331	-0.010498	-0.971924	-0.176270	0.361896	0.556998	-0.607332	-0.435812
28213		-0.451841	9.151295	-3.483403	-0.005807	0.020753	-0.019122	-0.007568	-0.974854	-0.175781	0.362018	0.557044	-0.607221	-0.435808
28214		-0.462040	9.140200	-3.479129	-0.006320	0.020313	-0.017150	-0.000732	-0.975586	-0.176514	0.362136	0.557100	-0.607104	-0.435799
28215		-0.455596	9.150606	-3.549001	-0.005366	0.018543	-0.014631	-0.008301	-0.968506	-0.170166	0.362237	0.557184	-0.606966	-0.435801
28216		-0.430867	9.130866	-3.548547	-0.002201	0.012585	-0.014814	-0.006348	-0.966553	-0.175049	0.362311	0.557260	-0.606891	-0.435747
28217		-0.432524	9.130752	-3.548639	0.002428	0.008157	-0.015019	-0.005859	-0.970947	-0.177490	0.362347	0.557311	-0.606830	-0.435737
28218		-0.416462	9.110757	-3.568486	0.007057	0.003730	-0.015224	-0.009766	-0.970215	-0.176025	0.362334	0.557341	-0.606805	-0.435744
28219		-0.433246	9.123403	-3.563158	0.006368	-0.000667	-0.013492	-0.009521	-0.976318	-0.175537	0.362314	0.557327	-0.606824	-0.435751
28220		-0.436186	9.111343	-3.541594	0.007109	-0.000662	-0.017311	-0.002686	-0.971191	-0.169189	0.362266	0.557337	-0.606837	-0.435761
28221		-0.465011	9.130442	-3.543116	0.012904	-0.001575	-0.017987	-0.007812	-0.968018	-0.171387	0.362170	0.557465	-0.606817	-0.435706
28222		-0.462384	9.147374	-3.535752	0.011695	-0.003554	-0.014856	-0.008545	-0.969971	-0.178711	0.362099	0.557511	-0.606842	-0.435671
28223		-0.459329	9.164455	-3.528080	0.008904	-0.003984	-0.011348	-0.016846	-0.970703	-0.172363	0.362063	0.557467	-0.606882	-0.435701
28224		-0.484047	9.166890	-3.452253	0.006610	-0.006823	-0.014197	-0.011230	-0.971191	-0.175293	0.362014	0.557407	-0.606965	-0.435702
28225		-0.503338	9.155423	-3.468359	0.001040	-0.006348	-0.015369	-0.014404	-0.972900	-0.182373	0.361984	0.557356	-0.606985	-0.435765
28226		-0.524501	9.163363	-3.426618	-0.001729	0.000266	-0.016231	-0.014160	-0.974365	-0.177002	0.362012	0.557250	-0.606993	-0.435866
28227		-0.508447	9.155093	-3.468483	0.004357	0.000235	-0.017027	-0.013428	-0.972900	-0.170654	0.361996	0.557209	-0.607021	-0.435894
28228		-0.491299	9.147790	-3.443891	0.006455	0.007698	-0.016125	-0.003418	-0.968262	-0.173584	0.362002	0.557250	-0.607029	-0.435824
28229		-0.461821	9.145359	-3.435632	0.005153	0.012983	-0.016438	-0.009033	-0.970703	-0.167969	0.362034	0.557359	-0.606945	-0.435776
28230		-0.458084	9.162783	-3.427233	0.003926	0.016724	-0.014449	-0.004639	-0.966309	-0.174561	0.362095	0.557466	-0.606894	-0.435659
28231		-0.470181	9.180595	-3.457000	0.004807	0.016500	-0.014232	-0.011719	-0.977539	-0.171143	0.362163	0.557558	-0.606814	-0.435597
28232		-0.448247	9.178417	-3.467758	0.005624	0.014961	-0.015746	-0.015381	-0.966553	-0.180176	0.362200	0.557621	-0.606799	-0.435505
28233		-0.429231	9.194409	-3.487917	-0.001342	0.015212	-0.015169	-0.012939	-0.973389	-0.176270	0.362313	0.557576	-0.606766	-0.435515
28234		-0.418331	9.145496	-3.493440	-0.001631	0.014334	-0.015049	-0.012207	-0.973389	-0.169678	0.362401	0.557569	-0.606731	-0.435500
28235		-0.423632	9.150743	-3.547680	-0.001982	0.017850	-0.012845	-0.018311	-0.972656	-0.166992	0.362505	0.557617	-0.606689	-0.435411
28236		-0.425106	9.139293	-3.524776	-0.003741	0.018299	-0.013276	-0.011230	-0.980469	-0.172119	0.362622	0.557639	-0.606675	-0.435303
28237		-0.454197	9.134792	-3.546506	-0.001650	0.020058	-0.016186	0.000000	-0.972412	-0.175781	0.362714	0.557698	-0.606617	-0.435232
28238		-0.473811	9.154257	-3.527493	-0.000437	0.022041	-0.019311	-0.004150	-0.980713	-0.176514	0.362801	0.557840	-0.606460	-0.435198
28239		-0.449236	9.134322	-3.527790	0.003374	0.022026	-0.018562	-0.005859	-0.974854	-0.173096	0.362867	0.557949	-0.606362	-0.435140
28240		-0.442157	9.145263	-3.532177	0.006304	0.022235	-0.018028	-0.011475	-0.974609	-0.179932	0.362929	0.558079	-0.606278	-0.435037
28241		-0.449914	9.169211	-3.530437	0.005541	0.022242	-0.019167	-0.007080	-0.978760	-0.178955	0.363011	0.558126	-0.606221	-0.434987
28242		-0.438776	9.186465	-3.502924	0.002876	0.025787	-0.025340	-0.008301	-0.977539	-0.173340	0.363087	0.558243	-0.606096	-0.434949
28243		-0.441611	9.174841	-3.480308	-0.005676	0.027573	-0.024399	-0.006348	-0.975098	-0.169678	0.363209	0.558366	-0.605945	-0.434899
28244		-0.451419	9.175325	-3.498320	-0.011519	0.027143	-0.020509	-0.006592	-0.982178	-0.175781	0.363366	0.558488	-0.605779	-0.434843
28245		-0.426068	9.167920	-3.518708	-0.017709	0.024517	-0.018234	-0.012207	-0.970459	-0.168457	0.363546	0.558522	-0.605623	-0.434866
28246		-0.410693	9.180074	-3.500478	-0.018055	0.025172	-0.015459	-0.006104	-0.968750	-0.182861	0.363754	0.558566	-0.605492	-0.434818
28247		-0.376977	9.172765	-3.501181	-0.017820	0.024739	-0.017304	-0.006592	-0.975830	-0.169678	0.363970	0.558562	-0.605316	-0.434887
28248		-0.411749	9.139742	-3.507288	-0.019379	0.020560	-0.015794	-0.012451	-0.971680	-0.176025	0.364145	0.558614	-0.605169	-0.434878
28249		-0.394045	9.132595	-3.546743	-0.009770	0.019658	-0.015697	-0.008789	-0.975586	-0.183350	0.364296	0.558616	-0.605089	-0.434862
28250		-0.415566	9.128124	-3.548717	-0.005363	0.015700	-0.018995	-0.001953	-0.974854	-0.174561	0.364395	0.558607	-0.605005	-0.434907
28251		-0.401715	9.127946	-3.509804	-0.004180	0.013496	-0.018326	-0.010254	-0.966553	-0.169434	0.364456	0.558692	-0.604897	-0.434897
28252		-0.442018	9.142557	-3.493641	0.000048	0.011287	-0.018044	-0.014648	-0.978027	-0.172363	0.364503	0.558767	-0.604848	-0.434829
28253		-0.432866	9.135770	-3.487446	0.002545	0.003798	-0.017067	-0.014160	-0.974121	-0.181885	0.364498	0.558764	-0.604878	-0.434795
28254		-0.437867	9.153488	-3.497753	0.002985	-0.001281	-0.012023	-0.006348	-0.970947	-0.173584	0.364505	0.558660	-0.604939	-0.434837
28255		-0.434730	9.171176	-3.488606	-0.001227	-0.001936	-0.011739	-0.004395	-0.972168	-0.177246	0.364509	0.558647	-0.604939	-0.434852
28256		-0.467992	9.172985	-3.497649	-0.004154	-0.002150	-0.012276	-0.007812	-0.970459	-0.178223	0.364525	0.558614	-0.604916	-0.434912
28257		-0.474334	9.168148	-3.461251	-0.010363	-0.001909	-0.015532	-0.004883	-0.969482	-0.174561	0.364567	0.558554	-0.604872	-0.435015
28258		-0.471444	9.131557	-3.507021	-0.010549	-0.000142	-0.016904	-0.008545	-0.978027	-0.177002	0.364606	0.558550	-0.604798	-0.435091
28259		-0.461710	9.136967	-3.521789	-0.007400	0.002483	-0.013826	-0.001465	-0.978516	-0.179688	0.364650	0.558508	-0.604775	-0.435139
28260		-0.476161	9.120450	-3.482675	0.001685	0.001146	-0.011764	-0.003662	-0.975586	-0.179932	0.364647	0.558506	-0.604759	-0.435166
28261		-0.464357	9.149395	-3.477380	0.005813	-0.003706	-0.009995	0.000000	-0.968994	-0.178711	0.364614	0.558477	-0.604790	-0.435189
28262		-0.437776	9.165216	-3.478748	0.007626	-0.012737	-0.007866	-0.008301	-0.972412	-0.178711	0.364538	0.558442	-0.604834	-0.435235
28263		-0.489444	9.185812	-3.470267	0.007051	-0.014497	-0.007634	-0.010742	-0.967773	-0.171631	0.364462	0.558347	-0.604933	-0.435283
28264		-0.460365	9.183629	-3.461803	0.007405	-0.015146	-0.010403	-0.001709	-0.967773	-0.179688	0.364368	0.558296	-0.605031	-0.435292
28265		-0.453197	9.207412	-3.421249	0.001181	-0.012066	-0.009270	-0.002441	-0.968994	-0.178223	0.364326	0.558237	-0.605049	-0.435379
28266		-0.419436	9.157188	-3.436042	-0.007571	-0.008520	-0.014663	-0.008301	-0.968018	-0.175537	0.364320	0.558195	-0.605005	-0.435498
28267		-0.452987	9.159327	-3.443963	-0.011834	-0.000612	-0.011121	-0.010742	-0.979004	-0.178467	0.364388	0.558134	-0.604971	-0.435567
28268		-0.428449	9.140383	-3.442074	-0.011064	0.006442	-0.014329	-0.006104	-0.967041	-0.182617	0.364471	0.558082	-0.604929	-0.435622
28269		-0.421039	9.163744	-3.466939	-0.004657	0.011501	-0.014053	-0.003174	-0.974365	-0.176758	0.364568	0.558076	-0.604854	-0.435653
28270		-0.424708	9.194296	-3.432280	0.004021	0.009528	-0.015907	-0.006592	-0.969727	-0.173096	0.364584	0.558148	-0.604804	-0.435616
28271		-0.403798	9.180782	-3.420320	0.007066	0.009531	-0.016293	-0.010498	-0.965820	-0.177246	0.364587	0.558233	-0.604778	-0.435540
28272		-0.394048	9.185287	-3.437611	0.007233	0.010649	-0.020434	-0.003906	-0.967773	-0.171143	0.364598	0.558296	-0.604746	-0.435496
28273		-0.383210	9.147599	-3.466893	0.005592	0.010875	-0.021791	-0.002686	-0.966797	-0.184082	0.364591	0.558435	-0.604669	-0.435430
28274		-0.369198	9.158447	-3.452152	0.006075	0.017030	-0.019931	-0.010986	-0.969238	-0.177490	0.364647	0.558522	-0.604570	-0.435408
28275		-0.386341	9.171026	-3.446589	0.001509	0.017036	-0.021825	-0.007080	-0.969727	-0.176758	0.364709	0.558588	-0.604501	-0.435368
28276		-0.417037	9.154206	-3.447103	0.008955	0.015941	-0.021119	0.001465	-0.967529	-0.183838	0.364728	0.558697	-0.604444	-0.435291
28277		-0.417667	9.189160	-3.449700	0.015711	0.013322	-0.024206	-0.010254	-0.978027	-0.181396	0.364701	0.558845	-0.604352	-0.435251
28278		-0.400302	9.204579	-3.471757	0.015951	0.012891	-0.026050	-0.002441	-0.977783	-0.179199	0.364658	0.558939	-0.604334	-0.435192
28279		-0.418280	9.151125	-3.434755	0.013266	0.012238	-0.028432	0.000977	-0.969482	-0.179443	0.364604	0.559090	-0.604256	-0.435151
28280		-0.416005	9.113194	-3.483895	0.009389	0.013766	-0.026534	-0.012207	-0.969971	-0.178711	0.364591	0.559245	-0.604142	-0.435122
28281		-0.438455	9.118864	-3.511499	0.015028	0.018845	-0.027390	-0.006348	-0.969727	-0.179199	0.364586	0.559363	-0.604101	-0.435030
28282		-0.460950	9.124086	-3.540184	0.023311	0.016228	-0.028186	-0.002930	-0.970947	-0.180176	0.364522	0.559531	-0.604064	-0.434919
28283		-0.490475	9.142945	-3.477430	0.028595	0.014920	-0.026869	-0.009521	-0.976807	-0.178223	0.364429	0.559715	-0.604040	-0.434793
28284		-0.491468	9.188388	-3.505218	0.029175	0.009645	-0.027692	-0.012451	-0.974609	-0.179443	0.364301	0.559853	-0.604075	-0.434675
28285		-0.490246	9.204608	-3.499863	0.020661	0.005652	-0.025644	-0.006348	-0.979248	-0.170166	0.364209	0.559915	-0.604112	-0.434621
28286		-0.456360	9.164998	-3.539748	0.007546	0.004494	-0.021123	-0.008301	-0.968262	-0.170898	0.364160	0.559992	-0.604106	-0.434573
28287		-0.441170	9.133813	-3.536624	0.000453	0.004905	-0.019659	-0.012207	-0.963867	-0.175781	0.364167	0.560027	-0.604076	-0.434561
28288		-0.476181	9.110796	-3.568014	-0.001763	0.003344	-0.015842	-0.008301	-0.981689	-0.170654	0.364208	0.559983	-0.604076	-0.434585
28289		-0.477813	9.123444	-3.523655	0.003477	0.000725	-0.016252	-0.004395	-0.969971	-0.175049	0.364176	0.559993	-0.604102	-0.434562
28290		-0.546424	9.132174	-3.530979	0.008440	-0.009832	-0.012194	-0.007568	-0.969971	-0.179688	0.364100	0.559961	-0.604162	-0.434584
28291		-0.571082	9.157205	-3.500832	0.010827	-0.014228	-0.010851	-0.008057	-0.969971	-0.176758	0.364006	0.559869	-0.604265	-0.434638
28292		-0.584503	9.174310	-3.531662	0.013811	-0.019722	-0.009172	-0.014160	-0.965332	-0.178223	0.363872	0.559772	-0.604406	-0.434680
28293		-0.558338	9.124739	-3.500623	0.013010	-0.021036	-0.012038	0.000000	-0.975342	-0.180908	0.363737	0.559640	-0.604559	-0.434749
28294		-0.513768	9.134018	-3.477162	0.012921	-0.023680	-0.010545	-0.004883	-0.968262	-0.173828	0.363574	0.559553	-0.604665	-0.434849
28295		-0.474013	9.125348	-3.463089	0.015088	-0.023447	-0.011144	-0.007324	-0.977051	-0.174561	0.363402	0.559491	-0.604793	-0.434896
28296		-0.488285	9.130677	-3.472049	0.019820	-0.022330	-0.008438	-0.006348	-0.966064	-0.175537	0.363216	0.559413	-0.604968	-0.434907
28297		-0.484374	9.183301	-3.466243	0.016701	-0.020799	-0.010350	-0.010742	-0.980469	-0.175781	0.363059	0.559343	-0.605101	-0.434944
28298		-0.435224	9.197422	-3.478944	0.018444	-0.014190	-0.009327	-0.005371	-0.970215	-0.169922	0.362919	0.559268	-0.605261	-0.434935
28299		-0.415078	9.172176	-3.445666	0.013158	-0.012892	-0.010638	-0.005859	-0.978516	-0.171631	0.362804	0.559252	-0.605354	-0.434922
28300		-0.367326	9.150944	-3.456459	0.006055	-0.001262	-0.012378	-0.005615	-0.959473	-0.174316	0.362769	0.559250	-0.605389	-0.434905
28301		-0.391534	9.174810	-3.492867	0.004270	0.006210	-0.012235	-0.010010	-0.970215	-0.174561	0.362805	0.559261	-0.605372	-0.434884
28302		-0.413329	9.157937	-3.473919	0.004237	0.009072	-0.012807	-0.010498	-0.969727	-0.178955	0.362846	0.559256	-0.605378	-0.434848
28303		-0.461982	9.160252	-3.455338	0.004839	0.007985	-0.017412	-0.009033	-0.972900	-0.169678	0.362869	0.559246	-0.605369	-0.434854
28304		-0.489291	9.125267	-3.445860	0.007255	0.011963	-0.018703	-0.002441	-0.968750	-0.177490	0.362879	0.559323	-0.605348	-0.434776
28305		-0.509644	9.155234	-3.451344	0.013579	0.007377	-0.017517	-0.004395	-0.977051	-0.174561	0.362851	0.559390	-0.605331	-0.434738
28306		-0.535256	9.166987	-3.466596	0.015151	0.008719	-0.023396	-0.002441	-0.966797	-0.172363	0.362789	0.559497	-0.605308	-0.434682
28307		-0.494659	9.181349	-3.497740	0.007555	0.017044	-0.027551	-0.001953	-0.973389	-0.170898	0.362797	0.559656	-0.605194	-0.434631
28308		-0.502196	9.162904	-3.507780	0.001790	0.023384	-0.024029	-0.010986	-0.976074	-0.179443	0.362866	0.559810	-0.605062	-0.434559
28309		-0.449919	9.147390	-3.552151	-0.007342	0.031682	-0.020583	-0.005859	-0.974365	-0.177002	0.363050	0.559852	-0.604935	-0.434528
28310		-0.440172	9.128415	-3.589035	-0.009980	0.036508	-0.020086	0.000488	-0.972168	-0.171143	0.363265	0.559943	-0.604760	-0.434474
28311		-0.429601	9.122458	-3.581389	-0.008410	0.037844	-0.021017	0.000732	-0.968750	-0.173584	0.363466	0.560113	-0.604552	-0.434376
28312		-0.442130	9.128801	-3.587812	0.003732	0.032429	-0.020460	-0.003174	-0.976562	-0.177490	0.363592	0.560287	-0.604402	-0.434255
28313		-0.435856	9.128224	-3.570148	0.013548	0.021499	-0.021261	-0.005859	-0.981445	-0.179443	0.363614	0.560411	-0.604345	-0.434156
28314		-0.468031	9.152956	-3.559837	0.009570	0.016182	-0.019040	-0.003174	-0.972412	-0.173096	0.363637	0.560466	-0.604318	-0.434103
28315		-0.461642	9.164039	-3.564192	0.001049	0.003780	-0.014367	-0.007080	-0.970459	-0.175293	0.363653	0.560475	-0.604299	-0.434106
28316		-0.488420	9.129574	-3.553242	-0.008621	0.003259	-0.011282	-0.002197	-0.966553	-0.180420	0.363730	0.560405	-0.604277	-0.434160
28317		-0.490384	9.118721	-3.528913	-0.013603	-0.001630	-0.008364	-0.000732	-0.968018	-0.175049	0.363823	0.560289	-0.604238	-0.434286
28318		-0.534566	9.126908	-3.543015	-0.012966	-0.005589	-0.007455	-0.000732	-0.974854	-0.171631	0.363886	0.560194	-0.604213	-0.434393
28319		-0.555724	9.135193	-3.499978	-0.007821	-0.007958	-0.011875	-0.004395	-0.977539	-0.175781	0.363884	0.560145	-0.604200	-0.434474
28320		-0.519076	9.134339	-3.470342	-0.002127	-0.012753	-0.012743	-0.001953	-0.971191	-0.171387	0.363834	0.560062	-0.604237	-0.434573
28321		-0.483172	9.120152	-3.486184	0.005412	-0.011148	-0.013509	-0.007568	-0.975586	-0.181152	0.363751	0.560047	-0.604276	-0.434606
28322		-0.450612	9.112067	-3.490325	0.010011	-0.009798	-0.009879	-0.009521	-0.974365	-0.176270	0.363682	0.559954	-0.604373	-0.434649
28323		-0.447866	9.129340	-3.482727	0.011613	-0.007145	-0.009089	-0.008789	-0.968750	-0.173828	0.363618	0.559888	-0.604478	-0.434642
28324		-0.437300	9.146526	-3.456501	0.016714	-0.002469	-0.012928	0.000488	-0.973877	-0.174316	0.363540	0.559890	-0.604562	-0.434588
28325		-0.448352	9.212114	-3.444401	0.014268	-0.003592	-0.012213	-0.007568	-0.970703	-0.170898	0.363459	0.559919	-0.604605	-0.434558
28326		-0.459247	9.188345	-3.420149	0.010422	-0.000760	-0.013548	-0.007080	-0.973877	-0.172852	0.363411	0.559930	-0.604654	-0.434516
28327		-0.438883	9.162075	-3.452986	0.008299	0.004508	-0.015015	0.002930	-0.977051	-0.172119	0.363394	0.559952	-0.604673	-0.434476
28328		-0.428915	9.166692	-3.470155	0.004693	0.011084	-0.017040	-0.005371	-0.972656	-0.178955	0.363407	0.560050	-0.604607	-0.434430
28329		-0.431972	9.130508	-3.470006	0.003238	0.017890	-0.014724	-0.003418	-0.975830	-0.176270	0.363491	0.560082	-0.604558	-0.434388
28330		-0.437364	9.123617	-3.502484	0.003601	0.021420	-0.016332	-0.007080	-0.975098	-0.178711	0.363576	0.560158	-0.604487	-0.434317
28331		-0.445716	9.147448	-3.500875	0.007623	0.019704	-0.019127	-0.004395	-0.984131	-0.170410	0.363631	0.560224	-0.604438	-0.434253
28332		-0.458714	9.153097	-3.508908	0.009897	0.019720	-0.015703	-0.010010	-0.977051	-0.177002	0.363666	0.560331	-0.604413	-0.434121
28333		-0.455965	9.157319	-3.545936	0.011069	0.016212	-0.016748	-0.010498	-0.968506	-0.170410	0.363695	0.560375	-0.604414	-0.434039
28334		-0.449972	9.156736	-3.528437	0.009598	0.013340	-0.018455	-0.005859	-0.969238	-0.172852	0.363710	0.560444	-0.604406	-0.433949
28335		-0.444672	9.143172	-3.555181	0.008759	0.010690	-0.018103	-0.002441	-0.967773	-0.167480	0.363715	0.560508	-0.604385	-0.433891
28336		-0.446065	9.154100	-3.578804	0.002933	0.007320	-0.013686	-0.003418	-0.977783	-0.173584	0.363739	0.560562	-0.604358	-0.433838
28337		-0.452277	9.136051	-3.587860	-0.004927	0.007679	-0.013383	-0.005615	-0.973145	-0.173096	0.363801	0.560555	-0.604317	-0.433853
28338		-0.458771	9.106873	-3.573601	-0.005537	0.004584	-0.009934	-0.002686	-0.971436	-0.172363	0.363868	0.560511	-0.604304	-0.433871
28339		-0.489992	9.143912	-3.583392	-0.004810	0.003272	-0.010515	0.002686	-0.976807	-0.171143	0.363922	0.560486	-0.604280	-0.433891
28340		-0.464182	9.149403	-3.560826	0.001146	-0.001943	-0.013212	-0.001953	-0.969482	-0.174561	0.363901	0.560506	-0.604263	-0.433907
28341		-0.478370	9.144132	-3.544791	0.000029	-0.005479	-0.012743	-0.002686	-0.970703	-0.180908	0.363884	0.560470	-0.604268	-0.433962
28342		-0.477816	9.114846	-3.511937	-0.001337	-0.008581	-0.010436	-0.008545	-0.974609	-0.173584	0.363874	0.560373	-0.604290	-0.434064
28343		-0.522454	9.121982	-3.528074	0.001256	-0.010542	-0.006558	-0.001709	-0.969482	-0.169189	0.363845	0.560265	-0.604377	-0.434107
28344		-0.515991	9.133329	-3.531871	0.004276	-0.011825	-0.008652	-0.008789	-0.974609	-0.180420	0.363783	0.560226	-0.604434	-0.434128
28345		-0.481500	9.161568	-3.536080	0.001581	-0.012520	-0.006102	-0.006592	-0.972656	-0.174805	0.363754	0.560078	-0.604528	-0.434214
28346		-0.482508	9.185944	-3.514234	-0.001338	-0.008580	-0.010433	-0.005371	-0.976318	-0.171875	0.363735	0.559994	-0.604569	-0.434281
28347		-0.442778	9.143010	-3.496688	-0.003758	-0.012583	-0.004213	-0.005615	-0.977051	-0.175537	0.363721	0.559878	-0.604640	-0.434344
28348		-0.459920	9.144674	-3.466768	-0.010487	-0.012875	-0.005524	-0.012939	-0.979248	-0.177734	0.363736	0.559729	-0.604681	-0.434464
28349		-0.445734	9.143990	-3.493749	-0.011293	-0.014209	-0.003450	-0.006104	-0.967285	-0.174805	0.363762	0.559521	-0.604765	-0.434596
28350		-0.473877	9.163400	-3.492776	-0.006077	-0.013928	-0.004420	-0.008057	-0.967529	-0.183105	0.363762	0.559383	-0.604823	-0.434692
28351		-0.460877	9.139347	-3.475880	0.003116	-0.012493	-0.008758	-0.005859	-0.978271	-0.177734	0.363722	0.559253	-0.604896	-0.434791
28352		-0.443656	9.132719	-3.451347	0.013746	-0.013691	-0.009326	-0.007568	-0.969482	-0.181152	0.363606	0.559190	-0.605008	-0.434813
28353		-0.410491	9.124611	-3.456188	0.011037	-0.010207	-0.005624	-0.007568	-0.968994	-0.168213	0.363547	0.559089	-0.605116	-0.434842
28354		-0.403557	9.146743	-3.484377	0.016624	-0.010575	-0.009353	-0.014160	-0.967529	-0.180908	0.363433	0.559085	-0.605228	-0.434787
28355		-0.412999	9.158579	-3.461589	0.016702	-0.007928	-0.010845	-0.008057	-0.976807	-0.169922	0.363346	0.559007	-0.605350	-0.434791
28356		-0.426280	9.175258	-3.493027	0.013174	-0.007087	-0.011725	-0.006104	-0.976807	-0.168213	0.363253	0.559005	-0.605434	-0.434753
28357		-0.397174	9.173530	-3.485417	0.013175	-0.007086	-0.011725	-0.006592	-0.973389	-0.167480	0.363157	0.559019	-0.605511	-0.434708
28358		-0.427507	9.155701	-3.486999	0.014257	-0.004868	-0.013916	-0.007324	-0.966309	-0.177002	0.363062	0.559056	-0.605574	-0.434652
28359		-0.442321	9.138197	-3.450478	0.016222	-0.002859	-0.015888	-0.010254	-0.967285	-0.174316	0.362978	0.559068	-0.605624	-0.434637
28360		-0.436900	9.146885	-3.523761	0.018866	0.000701	-0.019015	-0.004150	-0.967529	-0.181396	0.362886	0.559114	-0.605673	-0.434587
28361		-0.440475	9.121118	-3.548462	0.019853	0.004456	-0.018568	-0.006104	-0.967285	-0.168945	0.362815	0.559169	-0.605689	-0.434553
28362		-0.465327	9.145503	-3.519902	0.016031	0.004404	-0.014397	-0.010254	-0.977783	-0.172607	0.362764	0.559239	-0.605721	-0.434461
28363		-0.475216	9.144224	-3.541467	0.014996	0.003512	-0.015416	-0.004395	-0.974609	-0.180908	0.362708	0.559269	-0.605773	-0.434397
28364		-0.512463	9.150518	-3.540615	0.013356	0.003713	-0.016775	-0.006348	-0.971924	-0.176270	0.362664	0.559290	-0.605784	-0.434392
28365		-0.499632	9.136909	-3.548798	0.014342	-0.002218	-0.015399	-0.005127	-0.979736	-0.166260	0.362589	0.559297	-0.605829	-0.434382
28366		-0.470898	9.122095	-3.585480	0.010445	-0.004916	-0.009734	-0.001953	-0.970947	-0.174316	0.362521	0.559304	-0.605898	-0.434334
28367		-0.488365	9.109625	-3.602448	0.007707	-0.006938	-0.003967	-0.009033	-0.968018	-0.170898	0.362491	0.559244	-0.605968	-0.434338
28368		-0.469989	9.103230	-3.577818	0.007686	-0.012442	-0.001891	-0.012695	-0.973877	-0.169922	0.362443	0.559138	-0.606091	-0.434343
28369		-0.470555	9.125173	-3.624812	0.014692	-0.016749	-0.003561	-0.007812	-0.976318	-0.169434	0.362330	0.559035	-0.606263	-0.434330
28370		-0.499867	9.120551	-3.581743	0.011792	-0.021188	-0.005241	-0.008789	-0.974609	-0.178467	0.362197	0.558939	-0.606411	-0.434358
28371		-0.492624	9.167215	-3.588010	0.013110	-0.029093	-0.003400	-0.013184	-0.977051	-0.163574	0.362037	0.558764	-0.606596	-0.434457
28372		-0.499334	9.148483	-3.598457	0.008173	-0.028499	-0.002543	-0.002441	-0.975830	-0.166504	0.361890	0.558621	-0.606786	-0.434498
28373		-0.493865	9.137080	-3.557317	0.004572	-0.030308	-0.001924	-0.016846	-0.974121	-0.177246	0.361751	0.558492	-0.606927	-0.434584
28374		-0.477401	9.106427	-3.553597	0.002531	-0.030774	-0.002241	-0.005127	-0.966309	-0.167236	0.361638	0.558246	-0.607113	-0.434735
28375		-0.498395	9.125377	-3.535053	0.002755	-0.027028	-0.002940	-0.016357	-0.969971	-0.169922	0.361529	0.558116	-0.607233	-0.434824
28376		-0.503327	9.156276	-3.500788	0.000561	-0.028597	-0.004055	-0.012451	-0.967041	-0.170898	0.361423	0.557918	-0.607391	-0.434945
28377		-0.515768	9.198358	-3.507897	-0.003725	-0.022274	-0.003218	-0.006836	-0.973633	-0.167725	0.361374	0.557740	-0.607499	-0.435062
28378		-0.502634	9.174666	-3.490357	-0.006361	-0.016148	-0.005955	-0.009521	-0.984619	-0.168457	0.361347	0.557631	-0.607549	-0.435156
28379		-0.478049	9.144973	-3.465849	-0.010378	-0.014442	-0.008090	-0.009277	-0.977783	-0.168701	0.361331	0.557512	-0.607587	-0.435268
28380		-0.483430	9.152070	-3.451322	-0.013298	-0.009202	-0.005773	-0.009521	-0.976562	-0.167725	0.361370	0.557393	-0.607603	-0.435366
28381		-0.477975	9.128530	-3.451785	-0.013317	-0.005019	-0.009569	-0.005127	-0.969238	-0.163818	0.361415	0.557313	-0.607588	-0.435451
28382		-0.478486	9.165025	-3.450863	-0.011937	-0.000599	-0.010170	-0.018311	-0.980225	-0.176025	0.361473	0.557294	-0.607540	-0.435494
28383		-0.464911	9.152780	-3.455742	-0.004615	0.002806	-0.012335	-0.008789	-0.972412	-0.179688	0.361517	0.557210	-0.607557	-0.435543
28384		-0.447938	9.133736	-3.474140	-0.000703	0.006825	-0.016293	-0.017334	-0.976562	-0.177490	0.361556	0.557201	-0.607511	-0.435585
28385		-0.468916	9.152645	-3.455557	0.002023	0.014348	-0.019212	-0.011475	-0.967773	-0.176025	0.361606	0.557213	-0.607478	-0.435575
28386		-0.478190	9.153959	-3.408100	0.002909	0.019640	-0.016138	-0.007568	-0.971191	-0.174316	0.361693	0.557264	-0.607417	-0.435522
28387		-0.448570	9.162314	-3.489227	0.005170	0.018357	-0.019372	-0.009277	-0.976562	-0.173340	0.361746	0.557358	-0.607340	-0.435465
28388		-0.434298	9.173757	-3.474679	0.006272	0.021895	-0.019851	-0.010986	-0.973633	-0.173828	0.361805	0.557466	-0.607266	-0.435381
28389		-0.432389	9.166851	-3.488270	0.004174	0.024287	-0.020746	-0.004639	-0.970947	-0.169922	0.361886	0.557571	-0.607179	-0.435301
28390		-0.411075	9.154260	-3.475785	0.001034	0.020280	-0.020583	-0.010498	-0.987305	-0.174072	0.361957	0.557695	-0.607067	-0.435240
28391		-0.408657	9.170286	-3.533998	-0.000437	0.017395	-0.017348	-0.006104	-0.981445	-0.172119	0.362027	0.557743	-0.607008	-0.435203
28392		-0.419145	9.134050	-3.552125	-0.001169	0.018705	-0.016768	-0.008057	-0.966797	-0.172852	0.362110	0.557817	-0.606924	-0.435154
28393		-0.451734	9.146091	-3.583936	-0.006127	0.023474	-0.019702	-0.011719	-0.968750	-0.179688	0.362242	0.557898	-0.606792	-0.435124
28394		-0.410521	9.139391	-3.567512	-0.000851	0.020917	-0.020096	-0.004150	-0.971436	-0.176270	0.362344	0.557944	-0.606700	-0.435110
28395		-0.452166	9.128271	-3.573498	-0.000900	0.018281	-0.023527	-0.007568	-0.977783	-0.171875	0.362411	0.558044	-0.606573	-0.435103
28396		-0.423254	9.127641	-3.563715	-0.003745	0.010968	-0.019697	-0.009521	-0.968994	-0.172363	0.362459	0.558092	-0.606496	-0.435110
28397		-0.449222	9.115502	-3.597854	-0.005677	0.010273	-0.016006	-0.010742	-0.968994	-0.175537	0.362533	0.558102	-0.606432	-0.435122
28398		-0.474605	9.116561	-3.587634	-0.003115	0.005692	-0.015565	-0.006348	-0.967285	-0.170898	0.362579	0.558084	-0.606398	-0.435155
28399		-0.491940	9.129121	-3.581287	-0.000744	-0.001316	-0.012711	-0.007324	-0.976318	-0.173828	0.362582	0.558072	-0.606390	-0.435180
28400		-0.489620	9.147152	-3.572071	-0.000622	-0.007038	-0.011555	-0.009521	-0.969238	-0.176025	0.362557	0.558017	-0.606415	-0.435237
28401		-0.511220	9.166172	-3.552946	-0.003930	-0.013473	-0.013914	-0.010986	-0.977783	-0.181885	0.362515	0.557923	-0.606438	-0.435359
28402		-0.542046	9.137868	-3.528742	-0.007020	-0.014850	-0.010325	-0.012207	-0.972656	-0.176514	0.362495	0.557768	-0.606480	-0.435515
28403		-0.525398	9.119225	-3.546212	-0.007690	-0.010897	-0.011241	-0.005615	-0.979004	-0.171143	0.362491	0.557648	-0.606507	-0.435636
28404		-0.511723	9.120222	-3.506701	-0.006636	-0.014188	-0.006433	-0.005859	-0.979492	-0.167480	0.362469	0.557544	-0.606550	-0.435727
28405		-0.505060	9.145361	-3.464802	-0.005564	-0.011965	-0.008625	-0.009521	-0.970947	-0.173096	0.362439	0.557477	-0.606583	-0.435792
28406		-0.502668	9.163658	-3.454878	-0.004345	-0.008640	-0.010019	-0.012939	-0.967773	-0.174805	0.362430	0.557396	-0.606609	-0.435866
28407		-0.516085	9.170031	-3.460424	-0.007707	-0.005399	-0.008383	-0.007568	-0.980225	-0.172119	0.362464	0.557288	-0.606631	-0.435946
28408		-0.494101	9.169464	-3.469063	-0.004908	-0.004913	-0.006925	-0.004395	-0.960938	-0.179199	0.362478	0.557217	-0.606657	-0.435988
28409		-0.467744	9.175518	-3.446306	-0.002931	-0.001577	-0.007183	-0.009033	-0.971436	-0.166992	0.362523	0.557153	-0.606651	-0.436041
28410		-0.453842	9.151779	-3.429212	-0.003817	0.004134	-0.009474	-0.014160	-0.968506	-0.171631	0.362567	0.557146	-0.606643	-0.436025
28411		-0.435175	9.168930	-3.448119	-0.007289	0.007601	-0.011845	0.002686	-0.970703	-0.179443	0.362645	0.557114	-0.606616	-0.436037
28412		-0.464289	9.152052	-3.446440	-0.008362	0.010884	-0.011723	-0.009033	-0.976562	-0.171631	0.362755	0.557134	-0.606510	-0.436069
28413		-0.426602	9.139079	-3.461020	-0.008153	0.014631	-0.012418	-0.008545	-0.973877	-0.182129	0.362864	0.557151	-0.606443	-0.436051
28414		-0.454752	9.157887	-3.460759	-0.002202	0.013640	-0.013971	-0.004395	-0.964111	-0.176025	0.362953	0.557155	-0.606383	-0.436054
28415		-0.428859	9.161742	-3.506172	0.007135	0.010727	-0.015444	-0.008057	-0.970215	-0.173096	0.362976	0.557224	-0.606341	-0.436005
28416		-0.410456	9.179871	-3.460165	0.010396	0.009023	-0.014445	-0.008301	-0.981689	-0.175049	0.362969	0.557285	-0.606341	-0.435932
28417		-0.397087	9.166713	-3.467764	0.008181	0.017144	-0.021419	-0.007812	-0.971436	-0.168701	0.362984	0.557396	-0.606283	-0.435859
28418		-0.411495	9.160969	-3.452582	0.002922	0.019701	-0.025947	-0.010498	-0.976318	-0.174561	0.363017	0.557547	-0.606173	-0.435792
28419		-0.429160	9.184539	-3.469589	0.000036	0.027573	-0.025123	-0.005371	-0.973633	-0.180176	0.363112	0.557680	-0.606043	-0.435723
28420		-0.401211	9.148065	-3.459162	-0.000949	0.028007	-0.029348	-0.013184	-0.974365	-0.177002	0.363211	0.557835	-0.605864	-0.435690
28421		-0.438562	9.166014	-3.479168	0.002684	0.032475	-0.026523	-0.004395	-0.966064	-0.178223	0.363319	0.557980	-0.605732	-0.435599
28422		-0.456911	9.142189	-3.473002	0.005397	0.034513	-0.027349	-0.007568	-0.963135	-0.178955	0.363431	0.558176	-0.605561	-0.435492
28423		-0.447681	9.135531	-3.467718	0.008161	0.032373	-0.029315	-0.004883	-0.978027	-0.168457	0.363514	0.558365	-0.605409	-0.435391
28424		-0.437957	9.164591	-3.463778	0.010331	0.032640	-0.029903	-0.012939	-0.969727	-0.177246	0.363559	0.558610	-0.605268	-0.435236
28425		-0.432746	9.162446	-3.513091	0.004974	0.031215	-0.029734	-0.003906	-0.972656	-0.177002	0.363642	0.558767	-0.605133	-0.435152
28426		-0.423654	9.156005	-3.507257	0.001942	0.032474	-0.027645	-0.010498	-0.970703	-0.179932	0.363751	0.558947	-0.604963	-0.435067
28427		-0.417775	9.154242	-3.555639	0.001566	0.027613	-0.022824	-0.001709	-0.971680	-0.171387	0.363862	0.559045	-0.604851	-0.435005
28428		-0.392700	9.135436	-3.555719	0.004808	0.030111	-0.025597	-0.011230	-0.982422	-0.177246	0.363945	0.559241	-0.604704	-0.434888
28429		-0.423177	9.106025	-3.534060	0.011369	0.026733	-0.028503	-0.007324	-0.973633	-0.169922	0.363971	0.559398	-0.604616	-0.434785
28430		-0.465133	9.118071	-3.520990	0.017741	0.020923	-0.028999	-0.008789	-0.971924	-0.175049	0.363931	0.559595	-0.604553	-0.434652
28431		-0.456237	9.146617	-3.518348	0.019228	0.018317	-0.030147	-0.007324	-0.971924	-0.172363	0.363877	0.559768	-0.604500	-0.434549
28432		-0.458934	9.181275	-3.522074	0.014364	0.017327	-0.027018	-0.003418	-0.978027	-0.177002	0.363848	0.559919	-0.604444	-0.434456
28433		-0.454648	9.156195	-3.526596	0.010833	0.018135	-0.027907	-0.000488	-0.969238	-0.178711	0.363841	0.560066	-0.604356	-0.434395
28434		-0.469410	9.136861	-3.556486	0.008216	0.015867	-0.023078	-0.000732	-0.970947	-0.176270	0.363862	0.560178	-0.604271	-0.434352
28435		-0.499244	9.143362	-3.535595	0.004904	0.016231	-0.020880	-0.005371	-0.977539	-0.171387	0.363902	0.560276	-0.604188	-0.434307
28436		-0.505213	9.160685	-3.546392	0.002189	0.012868	-0.021771	0.004395	-0.972900	-0.178955	0.363922	0.560355	-0.604125	-0.434276
28437		-0.527537	9.154529	-3.550141	0.004503	0.007412	-0.021205	-0.000488	-0.978760	-0.177002	0.363924	0.560433	-0.604047	-0.434284
28438		-0.522492	9.154574	-3.531562	0.003373	0.002533	-0.017528	-0.005371	-0.975342	-0.173096	0.363910	0.560456	-0.604020	-0.434301
28439		-0.520797	9.172380	-3.523030	0.003797	-0.000987	-0.014780	0.000732	-0.969727	-0.180176	0.363882	0.560447	-0.604038	-0.434313
28440		-0.520003	9.129799	-3.534969	0.001886	-0.003008	-0.017738	-0.008789	-0.980957	-0.177979	0.363859	0.560441	-0.604010	-0.434378
28441		-0.515428	9.118691	-3.493318	0.002082	0.000744	-0.018431	-0.004639	-0.973389	-0.179688	0.363838	0.560422	-0.604011	-0.434418
28442		-0.517663	9.129611	-3.516631	0.005622	0.001263	-0.015822	-0.013184	-0.971436	-0.177979	0.363821	0.560414	-0.604015	-0.434438
28443		-0.511941	9.165382	-3.499552	0.008248	0.004857	-0.018932	0.002197	-0.966064	-0.169922	0.363795	0.560413	-0.604034	-0.434434
28444		-0.502910	9.158793	-3.494227	0.008518	0.005746	-0.019049	-0.000488	-0.972656	-0.179688	0.363766	0.560503	-0.603998	-0.434392
28445		-0.462107	9.176704	-3.457434	0.007916	0.009472	-0.015962	-0.006104	-0.972168	-0.163574	0.363779	0.560547	-0.603971	-0.434363
28446		-0.436531	9.169363	-3.480098	0.000122	0.006860	-0.015109	-0.001221	-0.972412	-0.166748	0.363793	0.560582	-0.603957	-0.434325
28447		-0.461874	9.169924	-3.470494	-0.003406	0.008977	-0.014291	-0.004883	-0.973633	-0.172119	0.363843	0.560619	-0.603909	-0.434303
28448		-0.448398	9.121866	-3.474756	-0.005249	0.012240	-0.015314	-0.002197	-0.971680	-0.175293	0.363920	0.560636	-0.603850	-0.434298
28449		-0.481490	9.121906	-3.484443	0.002059	0.014409	-0.019133	-0.008789	-0.972656	-0.184326	0.363968	0.560702	-0.603781	-0.434268
28450		-0.455758	9.150324	-3.508452	0.009179	0.014148	-0.020543	0.000244	-0.976318	-0.167236	0.363988	0.560742	-0.603750	-0.434243
28451		-0.426743	9.149578	-3.500123	0.009025	0.019877	-0.021694	-0.006592	-0.973877	-0.173096	0.364007	0.560897	-0.603677	-0.434129
28452		-0.437045	9.137116	-3.498148	0.009024	0.018559	-0.023404	-0.005859	-0.967529	-0.176025	0.364021	0.561008	-0.603620	-0.434052
28453		-0.443577	9.118128	-3.509007	0.012692	0.017551	-0.023419	-0.003906	-0.968262	-0.175293	0.364022	0.561120	-0.603572	-0.433974
28454		-0.457793	9.147687	-3.496144	0.013174	0.015362	-0.023873	-0.002197	-0.971680	-0.173340	0.364008	0.561236	-0.603525	-0.433902
28455		-0.472342	9.152520	-3.505208	0.016495	0.015012	-0.026058	-0.000488	-0.980713	-0.176514	0.363963	0.561384	-0.603478	-0.433813
28456		-0.479307	9.157835	-3.495111	0.014194	0.014952	-0.024558	-0.000488	-0.975098	-0.177002	0.363935	0.561513	-0.603427	-0.433740
28457		-0.466506	9.144473	-3.503394	0.015883	0.017423	-0.024683	-0.008301	-0.975586	-0.176514	0.363915	0.561653	-0.603372	-0.433652
28458		-0.465111	9.136995	-3.518372	0.014118	0.019140	-0.023419	-0.007324	-0.980957	-0.179199	0.363914	0.561758	-0.603340	-0.433563
28459		-0.467206	9.171921	-3.521628	0.011602	0.020838	-0.023296	0.002686	-0.971680	-0.166504	0.363934	0.561854	-0.603292	-0.433486
28460		-0.473391	9.153005	-3.532222	0.006301	0.023343	-0.022935	0.000977	-0.972168	-0.177979	0.363984	0.562020	-0.603186	-0.433376
28461		-0.467400	9.139604	-3.558510	0.007052	0.023363	-0.021793	0.003418	-0.971680	-0.187256	0.364050	0.562138	-0.603090	-0.433302
28462		-0.489157	9.132991	-3.563156	0.009307	0.019460	-0.023503	-0.002197	-0.968750	-0.165283	0.364092	0.562236	-0.602993	-0.433274
28463		-0.488341	9.103275	-3.532011	0.012497	0.019331	-0.024768	0.000732	-0.974365	-0.173828	0.364086	0.562398	-0.602932	-0.433156
28464		-0.482733	9.100584	-3.582222	0.017056	0.016815	-0.026259	-0.002441	-0.977783	-0.177734	0.364048	0.562554	-0.602877	-0.433061
28465		-0.458105	9.116932	-3.585724	0.024423	0.010625	-0.022493	-0.006348	-0.973145	-0.176758	0.363962	0.562666	-0.602896	-0.432962
28466		-0.472489	9.145985	-3.574184	0.017779	0.009997	-0.019842	-0.005127	-0.980469	-0.171387	0.363913	0.562728	-0.602918	-0.432891
28467		-0.482972	9.168694	-3.574964	0.021973	-0.000025	-0.019937	0.003174	-0.973633	-0.172363	0.363784	0.562789	-0.602986	-0.432825
28468		-0.501437	9.179661	-3.572067	0.016108	-0.006148	-0.014076	-0.006836	-0.971924	-0.178223	0.363680	0.562806	-0.603048	-0.432804
28469		-0.496431	9.143533	-3.553528	0.010216	-0.008080	-0.011996	-0.001953	-0.976074	-0.171875	0.363608	0.562731	-0.603134	-0.432842
28470		-0.510885	9.137691	-3.538336	0.001814	-0.010967	-0.013220	-0.001221	-0.972412	-0.168945	0.363547	0.562666	-0.603181	-0.432912
28471		-0.544921	9.101406	-3.547232	0.001248	-0.007234	-0.015058	-0.001953	-0.976562	-0.172363	0.363499	0.562635	-0.603202	-0.432963
28472		-0.547331	9.076401	-3.569213	0.005231	-0.003370	-0.014967	0.005371	-0.970947	-0.178223	0.363454	0.562615	-0.603230	-0.432988
28473		-0.503276	9.088415	-3.544803	0.012495	-0.003818	-0.017270	0.005127	-0.972168	-0.170654	0.363375	0.562633	-0.603246	-0.433008
28474		-0.478384	9.105079	-3.547767	0.023146	-0.002183	-0.014336	0.000000	-0.971436	-0.170410	0.363256	0.562699	-0.603314	-0.432929
28475		-0.461036	9.145457	-3.549389	0.024384	-0.004350	-0.013644	-0.009277	-0.975098	-0.170166	0.363122	0.562739	-0.603411	-0.432854
28476		-0.479598	9.144849	-3.524803	0.028417	-0.008639	-0.014893	0.001221	-0.971924	-0.175781	0.362940	0.562747	-0.603563	-0.432784
28477		-0.474737	9.179660	-3.510921	0.026119	-0.010028	-0.015107	0.008057	-0.976562	-0.166748	0.362771	0.562763	-0.603671	-0.432754
28478		-0.477679	9.178134	-3.514508	0.022005	-0.013677	-0.014277	0.000977	-0.975586	-0.172607	0.362595	0.562803	-0.603762	-0.432722
28479		-0.468570	9.146546	-3.531736	0.011952	-0.012434	-0.011740	-0.002930	-0.970947	-0.171631	0.362488	0.562758	-0.603846	-0.432753
28480		-0.501585	9.157051	-3.565017	-0.003597	-0.011136	-0.006445	-0.004639	-0.977783	-0.179688	0.362481	0.562634	-0.603904	-0.432840
28481		-0.487470	9.145178	-3.569702	-0.009747	-0.005811	-0.007821	-0.007324	-0.975586	-0.166992	0.362529	0.562486	-0.603924	-0.432965
28482		-0.524111	9.127278	-3.586629	-0.015365	-0.008185	-0.007564	-0.001709	-0.974854	-0.172852	0.362580	0.562344	-0.603942	-0.433080
28483		-0.584947	9.123281	-3.550053	-0.008634	-0.000928	-0.011501	-0.004883	-0.968994	-0.169189	0.362627	0.562271	-0.603924	-0.433161
28484		-0.575295	9.117690	-3.542565	-0.001014	-0.003341	-0.013341	-0.007324	-0.967773	-0.164551	0.362619	0.562223	-0.603941	-0.433207
28485		-0.569801	9.104484	-3.567998	0.006568	-0.001568	-0.018969	-0.007568	-0.973633	-0.173828	0.362561	0.562239	-0.603961	-0.433206
28486		-0.537761	9.111132	-3.527992	0.015807	-0.001503	-0.016031	-0.001465	-0.972656	-0.170166	0.362474	0.562237	-0.604030	-0.433186
28487		-0.536097	9.128321	-3.521514	0.016941	0.001841	-0.012509	-0.001953	-0.971436	-0.172607	0.362409	0.562265	-0.604091	-0.433118
28488		-0.506353	9.163552	-3.515239	0.013032	0.007233	-0.010467	-0.003174	-0.979980	-0.178467	0.362400	0.562280	-0.604131	-0.433050
28489		-0.508368	9.176599	-3.472225	0.002472	0.010870	-0.016387	0.001465	-0.974609	-0.171387	0.362438	0.562282	-0.604101	-0.433058
28490		-0.458560	9.180624	-3.525827	-0.008423	0.014940	-0.015573	-0.000244	-0.972900	-0.173096	0.362547	0.562302	-0.604008	-0.433071
28491		-0.424328	9.139216	-3.525587	-0.012918	0.025383	-0.013668	-0.004639	-0.976807	-0.171387	0.362739	0.562325	-0.603880	-0.433059
28492		-0.412501	9.131629	-3.584262	-0.011322	0.029403	-0.016086	-0.005859	-0.977783	-0.163574	0.362932	0.562371	-0.603750	-0.433018
28493		-0.393472	9.138268	-3.579657	-0.009561	0.030344	-0.013923	-0.006104	-0.972412	-0.171387	0.363124	0.562439	-0.603639	-0.432925
28494		-0.370220	9.102390	-3.586831	-0.003358	0.027675	-0.014037	0.001221	-0.970703	-0.165527	0.363279	0.562488	-0.603555	-0.432847
28495		-0.383338	9.121662	-3.549310	0.001224	0.023853	-0.017225	-0.007080	-0.976074	-0.173584	0.363381	0.562599	-0.603462	-0.432748
28496		-0.420058	9.102567	-3.569123	0.007725	0.018108	-0.022576	-0.007080	-0.978516	-0.166504	0.363405	0.562680	-0.603412	-0.432691
28497		-0.430045	9.101082	-3.590056	0.012735	0.012095	-0.021302	-0.004883	-0.974609	-0.171387	0.363376	0.562772	-0.603406	-0.432604
28498		-0.456933	9.125085	-3.561553	0.015552	0.008659	-0.024942	-0.001953	-0.973633	-0.179932	0.363307	0.562868	-0.603396	-0.432552
28499		-0.503115	9.118156	-3.557862	0.013946	0.005962	-0.020817	-0.000977	-0.969482	-0.166992	0.363253	0.562906	-0.603398	-0.432544
28500		-0.521693	9.165294	-3.555291	0.009204	0.004706	-0.018635	-0.002930	-0.978516	-0.178467	0.363218	0.562963	-0.603393	-0.432507
28501		-0.508468	9.152622	-3.562020	0.003810	0.000560	-0.017010	0.005615	-0.971924	-0.164795	0.363194	0.562933	-0.603399	-0.432557
28502		-0.510988	9.152419	-3.562182	-0.001679	-0.000724	-0.015970	0.000000	-0.976074	-0.168701	0.363190	0.562954	-0.603365	-0.432582
28503		-0.493721	9.122766	-3.557189	-0.003366	-0.001882	-0.014136	0.004150	-0.973145	-0.176514	0.363195	0.562923	-0.603355	-0.432631
28504		-0.483525	9.067554	-3.593138	0.000975	-0.001296	-0.015285	0.005859	-0.968262	-0.159668	0.363183	0.562900	-0.603341	-0.432690
28505		-0.525819	9.079360	-3.579185	0.012383	-0.000695	-0.021806	0.000488	-0.979736	-0.168701	0.363092	0.563011	-0.603328	-0.432641
28506		-0.517344	9.108435	-3.576121	0.018727	0.003050	-0.019207	0.000488	-0.976807	-0.167969	0.362997	0.563092	-0.603361	-0.432570
28507		-0.532337	9.137505	-3.564482	0.020775	0.002238	-0.020573	-0.003906	-0.977295	-0.166016	0.362886	0.563183	-0.603396	-0.432496
28508		-0.507670	9.154227	-3.567885	0.019819	0.002430	-0.015893	-0.006104	-0.972412	-0.173096	0.362794	0.563240	-0.603462	-0.432405
28509		-0.545140	9.147991	-3.544989	0.010983	0.002794	-0.010978	0.002930	-0.972900	-0.171631	0.362770	0.563213	-0.603524	-0.432375
28510		-0.554612	9.171419	-3.544030	0.004251	0.003666	-0.010633	0.007568	-0.979492	-0.173828	0.362782	0.563203	-0.603532	-0.432366
28511		-0.536299	9.152594	-3.562680	0.001711	0.000048	-0.012436	-0.004395	-0.971924	-0.176025	0.362780	0.563189	-0.603524	-0.432398
28512		-0.522746	9.118246	-3.522690	-0.002147	-0.001406	-0.010028	0.003174	-0.977051	-0.168457	0.362801	0.563099	-0.603549	-0.432462
28513		-0.500111	9.093290	-3.553078	-0.001500	0.001484	-0.009474	0.002441	-0.976074	-0.173584	0.362830	0.563070	-0.603550	-0.432474
28514		-0.528900	9.110982	-3.554104	0.000491	-0.000651	-0.007639	-0.002930	-0.973633	-0.176025	0.362849	0.563011	-0.603575	-0.432501
28515		-0.502526	9.140076	-3.577336	0.001015	0.001132	-0.007877	-0.007080	-0.975342	-0.174072	0.362874	0.562936	-0.603609	-0.432529
28516		-0.480590	9.117500	-3.541297	0.003488	0.004966	-0.010067	-0.002930	-0.968018	-0.174805	0.362898	0.562887	-0.603643	-0.432525
28517		-0.442272	9.115927	-3.579820	0.006200	0.005721	-0.012583	-0.004150	-0.979004	-0.169922	0.362907	0.562872	-0.603658	-0.432517
28518		-0.463277	9.109254	-3.583957	0.004914	0.005236	-0.011780	0.000000	-0.967773	-0.169678	0.362917	0.562862	-0.603680	-0.432490
28519		-0.418091	9.133083	-3.582245	0.011125	0.002587	-0.011885	-0.001465	-0.969727	-0.167969	0.362887	0.562874	-0.603716	-0.432449
28520		-0.434928	9.119670	-3.599603	0.009961	0.003210	-0.010290	-0.004639	-0.978271	-0.177002	0.362872	0.562879	-0.603758	-0.432398
28521		-0.425646	9.127098	-3.550041	0.009234	0.001858	-0.013133	0.003662	-0.979248	-0.164551	0.362842	0.562850	-0.603801	-0.432400
28522		-0.430788	9.155106	-3.584513	0.007612	0.000483	-0.007307	-0.005615	-0.976318	-0.165771	0.362829	0.562851	-0.603846	-0.432347
28523		-0.404436	9.137079	-3.584104	0.001780	-0.000166	-0.008439	0.001221	-0.974121	-0.173340	0.362839	0.562804	-0.603890	-0.432337
28524		-0.433400	9.154576	-3.585552	0.002644	-0.004327	-0.008416	0.000977	-0.976807	-0.177490	0.362826	0.562740	-0.603931	-0.432374
28525		-0.447265	9.137809	-3.547147	0.003809	-0.004948	-0.010010	-0.006836	-0.972900	-0.169434	0.362799	0.562671	-0.603973	-0.432428
28526		-0.456407	9.100825	-3.565524	0.003688	-0.006056	-0.010801	-0.001221	-0.973633	-0.171875	0.362765	0.562606	-0.604032	-0.432459
28527		-0.474478	9.112535	-3.560455	0.004992	-0.006894	-0.013306	0.001221	-0.972656	-0.175537	0.362711	0.562563	-0.604072	-0.432505
28528		-0.496344	9.105828	-3.564446	0.005514	-0.005110	-0.013544	-0.003418	-0.975342	-0.177246	0.362663	0.562524	-0.604101	-0.432555
28529		-0.499448	9.130001	-3.544288	0.011282	-0.004243	-0.016405	-0.004150	-0.974121	-0.166016	0.362583	0.562500	-0.604148	-0.432588
28530		-0.549228	9.140481	-3.550500	0.013350	-0.001080	-0.017565	-0.006104	-0.978760	-0.175781	0.362503	0.562537	-0.604187	-0.432552
28531		-0.539865	9.134051	-3.545484	0.010221	-0.001187	-0.012316	0.002686	-0.973877	-0.172852	0.362455	0.562497	-0.604249	-0.432557
28532		-0.538607	9.140684	-3.515167	0.008731	-0.001244	-0.014594	-0.001709	-0.975342	-0.174072	0.362406	0.562499	-0.604270	-0.432567
28533		-0.555979	9.127421	-3.531839	0.004110	-0.001409	-0.011624	0.001953	-0.984375	-0.177979	0.362389	0.562455	-0.604300	-0.432597
28534		-0.510573	9.126803	-3.550933	0.004110	-0.001409	-0.011623	0.006348	-0.975586	-0.169189	0.362368	0.562407	-0.604326	-0.432640
28535		-0.515725	9.119145	-3.583284	0.003970	-0.001192	-0.010712	-0.006592	-0.969971	-0.166504	0.362353	0.562399	-0.604338	-0.432647
28536		-0.517611	9.107773	-3.561054	0.004231	-0.000300	-0.010832	-0.006104	-0.973145	-0.168457	0.362347	0.562368	-0.604377	-0.432638
28537		-0.475529	9.088793	-3.589153	0.005341	-0.002241	-0.009224	0.006348	-0.969971	-0.169434	0.362329	0.562320	-0.604434	-0.432636
28538		-0.481186	9.105624	-3.600962	0.013764	-0.001931	-0.011399	-0.000488	-0.973633	-0.165039	0.362264	0.562341	-0.604477	-0.432602
28539		-0.486971	9.122194	-3.613403	0.013730	-0.004576	-0.009899	0.000977	-0.971191	-0.168945	0.362192	0.562341	-0.604553	-0.432557
28540		-0.485090	9.150657	-3.629450	0.014236	-0.006763	-0.010340	-0.005859	-0.973877	-0.171143	0.362105	0.562326	-0.604631	-0.432539
28541		-0.471914	9.151564	-3.592888	0.012657	-0.010788	-0.007916	-0.001709	-0.972656	-0.170898	0.362015	0.562253	-0.604746	-0.432549
28542		-0.469945	9.133365	-3.584082	0.009362	-0.013119	-0.009150	-0.005127	-0.970459	-0.168945	0.361924	0.562180	-0.604839	-0.432590
28543		-0.487220	9.120101	-3.600637	0.003596	-0.013993	-0.006288	0.001709	-0.976318	-0.170654	0.361867	0.562070	-0.604934	-0.432648
28544		-0.476982	9.125407	-3.616834	-0.000258	-0.015456	-0.003878	0.002930	-0.972168	-0.165527	0.361826	0.561944	-0.605016	-0.432731
28545		-0.435672	9.109591	-3.577127	0.001114	-0.016504	-0.002390	-0.004883	-0.983643	-0.174561	0.361779	0.561833	-0.605106	-0.432788
28546		-0.436270	9.095751	-3.621180	-0.001649	-0.013082	-0.003664	-0.003418	-0.974854	-0.174561	0.361757	0.561682	-0.605196	-0.432878
28547		-0.426492	9.115014	-3.592936	0.001407	-0.012966	-0.004011	0.000244	-0.967773	-0.158691	0.361723	0.561546	-0.605286	-0.432956
28548		-0.432048	9.121230	-3.580929	0.005975	-0.014116	-0.003782	-0.003418	-0.971680	-0.172119	0.361661	0.561484	-0.605383	-0.432954
28549		-0.484628	9.113555	-3.595120	0.009349	-0.017085	-0.009350	-0.007080	-0.979980	-0.170898	0.361551	0.561393	-0.605487	-0.433018
28550		-0.499882	9.121180	-3.536449	0.013710	-0.017806	-0.012201	-0.004395	-0.969238	-0.167969	0.361404	0.561322	-0.605607	-0.433064
28551		-0.510859	9.144157	-3.536432	0.015343	-0.017960	-0.010834	0.004395	-0.975098	-0.165283	0.361256	0.561265	-0.605728	-0.433092
28552		-0.556695	9.125839	-3.509744	0.017375	-0.017440	-0.010499	-0.006348	-0.968018	-0.160889	0.361097	0.561248	-0.605837	-0.433095
28553		-0.524057	9.144111	-3.493123	0.012859	-0.015174	-0.005035	-0.009521	-0.982910	-0.169189	0.360995	0.561180	-0.605971	-0.433079
28554		-0.494390	9.155270	-3.507565	0.008290	-0.014026	-0.005261	-0.011230	-0.969971	-0.167236	0.360916	0.561070	-0.606099	-0.433110
28555		-0.496060	9.154842	-3.508447	0.004746	-0.013283	-0.006170	-0.007568	-0.979492	-0.165283	0.360858	0.560956	-0.606206	-0.433155
28556		-0.501141	9.147193	-3.540526	0.001101	-0.005709	-0.007477	0.000977	-0.974365	-0.170166	0.360847	0.560884	-0.606265	-0.433177
28557		-0.482595	9.128580	-3.558820	0.001101	-0.005709	-0.007477	-0.003662	-0.977051	-0.167725	0.360836	0.560819	-0.606300	-0.433220
28558		-0.436956	9.128164	-3.577912	0.004813	-0.004025	-0.008982	-0.009521	-0.971924	-0.168457	0.360810	0.560775	-0.606349	-0.433230
28559		-0.442115	9.109427	-3.587418	0.004102	0.002556	-0.011428	-0.011475	-0.971924	-0.170166	0.360816	0.560746	-0.606377	-0.433224
28560		-0.435488	9.085354	-3.589669	-0.001982	0.004964	-0.012230	0.002686	-0.975830	-0.171875	0.360860	0.560701	-0.606376	-0.433247
28561		-0.445404	9.120210	-3.610351	-0.000393	0.007662	-0.016358	0.000488	-0.977295	-0.163574	0.360891	0.560725	-0.606320	-0.433268
28562		-0.459229	9.125545	-3.617330	0.002405	0.006889	-0.016586	-0.000488	-0.982422	-0.173096	0.360902	0.560777	-0.606281	-0.433245
28563		-0.485011	9.125285	-3.608529	0.003716	0.010023	-0.018894	-0.002197	-0.974854	-0.166748	0.360916	0.560824	-0.606232	-0.433242
28564		-0.448374	9.126720	-3.580182	0.005979	0.008794	-0.017178	-0.002930	-0.972168	-0.169189	0.360921	0.560878	-0.606204	-0.433207
28565		-0.465983	9.124312	-3.619576	0.005022	0.009187	-0.021394	-0.004150	-0.979980	-0.170166	0.360919	0.560942	-0.606152	-0.433198
28566		-0.484421	9.124928	-3.591693	0.003063	0.008458	-0.017737	-0.008057	-0.978760	-0.167969	0.360934	0.560974	-0.606119	-0.433191
28567		-0.482932	9.143244	-3.582822	-0.004472	0.007943	-0.015324	-0.011719	-0.977539	-0.167236	0.360991	0.560964	-0.606081	-0.433210
28568		-0.453660	9.144361	-3.572193	-0.005589	0.009880	-0.016932	-0.001953	-0.970215	-0.160889	0.361058	0.560960	-0.606033	-0.433227
28569		-0.471153	9.120717	-3.564051	-0.006735	0.005202	-0.017232	-0.010742	-0.967285	-0.171875	0.361104	0.560982	-0.605967	-0.433251
28570		-0.476674	9.102590	-3.571902	-0.007012	0.009607	-0.015216	-0.014160	-0.975586	-0.169922	0.361187	0.560950	-0.605918	-0.433292
28571		-0.466779	9.108278	-3.587211	-0.004189	0.007512	-0.017140	-0.008301	-0.977783	-0.167969	0.361236	0.560928	-0.605887	-0.433323
28572		-0.472971	9.114752	-3.574448	-0.000527	0.007886	-0.015440	-0.008789	-0.982178	-0.166260	0.361274	0.560932	-0.605863	-0.433320
28573		-0.510353	9.120171	-3.571811	-0.002133	0.010682	-0.018307	-0.002197	-0.973145	-0.169678	0.361321	0.560961	-0.605814	-0.433312
28574		-0.492927	9.126632	-3.568388	-0.002413	0.011116	-0.016487	-0.006592	-0.976807	-0.177246	0.361380	0.560986	-0.605753	-0.433315
28575		-0.487221	9.127610	-3.548876	-0.002040	0.009148	-0.016015	-0.002686	-0.972412	-0.173828	0.361431	0.560968	-0.605714	-0.433351
28576		-0.489250	9.127660	-3.548470	-0.004185	0.007514	-0.017137	-0.000244	-0.984375	-0.167480	0.361479	0.560964	-0.605656	-0.433397
28577		-0.491257	9.127717	-3.548045	-0.002412	0.011119	-0.016484	-0.009033	-0.975586	-0.174805	0.361533	0.561004	-0.605594	-0.433386
28578		-0.508346	9.114896	-3.563113	-0.006237	0.008315	-0.015773	-0.002197	-0.967529	-0.167969	0.361601	0.560972	-0.605549	-0.433436
28579		-0.521622	9.120714	-3.568796	-0.009368	0.008195	-0.010529	-0.009277	-0.979980	-0.175781	0.361700	0.560942	-0.605498	-0.433463
28580		-0.506841	9.120325	-3.595778	-0.012117	0.010282	-0.013501	-0.001709	-0.975586	-0.168213	0.361812	0.560885	-0.605438	-0.433526
28581		-0.536063	9.127415	-3.572039	-0.015546	0.012125	-0.013624	-0.005371	-0.974609	-0.167725	0.361946	0.560869	-0.605340	-0.433571
28582		-0.525018	9.097844	-3.584461	-0.013373	0.008466	-0.014395	-0.007080	-0.973877	-0.170410	0.362050	0.560844	-0.605265	-0.433622
28583		-0.519185	9.099344	-3.563602	-0.008426	0.005365	-0.013694	-0.006836	-0.968018	-0.169678	0.362119	0.560806	-0.605224	-0.433670
28584		-0.524881	9.117016	-3.573165	-0.003018	0.002729	-0.010036	-0.010986	-0.974121	-0.173584	0.362164	0.560760	-0.605226	-0.433690
28585		-0.511329	9.130109	-3.556885	-0.005252	0.002632	-0.013449	-0.000732	-0.969727	-0.173340	0.362206	0.560701	-0.605216	-0.433745
28586		-0.521686	9.143169	-3.531152	-0.005507	0.001739	-0.013328	-0.002930	-0.977295	-0.174561	0.362244	0.560666	-0.605183	-0.433806
28587		-0.503318	9.113915	-3.526007	-0.000428	0.006366	-0.013138	-0.000244	-0.976807	-0.171387	0.362280	0.560653	-0.605163	-0.433820
28588		-0.508902	9.120303	-3.513444	-0.001506	0.005442	-0.009259	-0.003662	-0.973389	-0.177002	0.362329	0.560631	-0.605154	-0.433820
28589		-0.494976	9.144397	-3.520101	-0.005908	0.005032	-0.012098	-0.001465	-0.976562	-0.165527	0.362390	0.560582	-0.605124	-0.433874
28590		-0.485745	9.164102	-3.490869	-0.009032	0.009089	-0.015538	-0.005371	-0.968262	-0.169434	0.362469	0.560599	-0.605048	-0.433891
28591		-0.482353	9.122308	-3.500386	-0.010974	0.010994	-0.013386	-0.005371	-0.976318	-0.174316	0.362579	0.560583	-0.604977	-0.433920
28592		-0.444743	9.146952	-3.515228	-0.010628	0.010349	-0.011218	-0.002197	-0.973633	-0.171875	0.362691	0.560541	-0.604922	-0.433957
28593		-0.460888	9.134405	-3.529720	-0.006317	0.012300	-0.010664	-0.006104	-0.973389	-0.167480	0.362794	0.560532	-0.604871	-0.433953
28594		-0.458483	9.164046	-3.542998	-0.003982	0.015046	-0.013642	0.002197	-0.967773	-0.174561	0.362889	0.560560	-0.604814	-0.433916
28595		-0.440519	9.170893	-3.538823	-0.009545	0.011277	-0.015094	-0.004639	-0.975098	-0.171143	0.362987	0.560564	-0.604722	-0.433958
28596		-0.398215	9.131279	-3.518884	-0.012375	0.013363	-0.013170	-0.009033	-0.970215	-0.165771	0.363115	0.560551	-0.604640	-0.433981
28597		-0.402557	9.124595	-3.548742	-0.013899	0.018594	-0.013543	-0.003418	-0.973633	-0.177246	0.363275	0.560560	-0.604544	-0.433971
28598		-0.415217	9.130670	-3.553816	-0.010730	0.019836	-0.013094	-0.001953	-0.975586	-0.167969	0.363430	0.560561	-0.604446	-0.433977
28599		-0.411911	9.124662	-3.565174	-0.005615	0.019176	-0.014796	-0.003418	-0.975342	-0.174072	0.363548	0.560617	-0.604357	-0.433929
28600		-0.401340	9.119398	-3.557782	-0.003677	0.021248	-0.016742	-0.000977	-0.973877	-0.173096	0.363662	0.560674	-0.604263	-0.433890
28601		-0.418688	9.131289	-3.551818	-0.002414	0.019097	-0.016044	-0.013184	-0.966309	-0.165771	0.363762	0.560733	-0.604178	-0.433849
28602		-0.416814	9.149613	-3.542929	0.001163	0.017048	-0.016826	0.000732	-0.974854	-0.166748	0.363833	0.560788	-0.604135	-0.433779
28603		-0.445320	9.141858	-3.565826	0.001429	0.013971	-0.017149	0.001221	-0.972412	-0.178223	0.363884	0.560869	-0.604070	-0.433722
28604		-0.428187	9.137115	-3.540184	0.003900	0.009887	-0.019740	-0.000488	-0.974121	-0.162842	0.363897	0.560922	-0.604013	-0.433720
28605		-0.422894	9.148851	-3.544178	0.001310	0.006241	-0.016648	-0.000488	-0.967773	-0.179199	0.363910	0.560980	-0.603977	-0.433685
28606		-0.436818	9.154283	-3.550707	-0.005941	0.005258	-0.016079	0.001709	-0.973145	-0.176758	0.363962	0.560960	-0.603919	-0.433749
28607		-0.459368	9.172759	-3.531581	-0.008344	0.006697	-0.016885	0.001465	-0.971680	-0.171387	0.364027	0.560957	-0.603840	-0.433808
28608		-0.484353	9.148171	-3.542366	-0.011343	0.007889	-0.019737	-0.000244	-0.968750	-0.174805	0.364099	0.560978	-0.603733	-0.433868
28609		-0.489928	9.130298	-3.549601	-0.011776	0.008532	-0.017010	-0.001953	-0.973633	-0.169678	0.364190	0.560972	-0.603640	-0.433930
28610		-0.473095	9.126294	-3.522027	-0.007886	0.008710	-0.021101	-0.002441	-0.976807	-0.173584	0.364244	0.561010	-0.603547	-0.433965
28611		-0.483207	9.114450	-3.517659	-0.003876	0.004474	-0.017433	-0.006104	-0.971924	-0.174072	0.364271	0.561015	-0.603501	-0.434000
28612		-0.473760	9.108994	-3.510652	0.001081	0.008010	-0.018014	0.005615	-0.975830	-0.169922	0.364293	0.561038	-0.603467	-0.433999
28613		-0.496582	9.137762	-3.516164	0.008240	0.003922	-0.019576	-0.010010	-0.969971	-0.175293	0.364253	0.561120	-0.603437	-0.433967
28614		-0.504613	9.179364	-3.506331	0.006957	0.003422	-0.018778	-0.002686	-0.969971	-0.173828	0.364221	0.561134	-0.603443	-0.433967
28615		-0.518020	9.148426	-3.512619	0.004155	0.004177	-0.018557	-0.004395	-0.974365	-0.173828	0.364208	0.561164	-0.603421	-0.433970
28616		-0.490121	9.174339	-3.481151	-0.003461	0.006253	-0.012777	-0.008545	-0.979248	-0.174561	0.364260	0.561145	-0.603398	-0.433984
28617		-0.470462	9.120667	-3.496808	-0.010003	0.008164	-0.016548	0.001953	-0.979004	-0.179688	0.364336	0.561120	-0.603339	-0.434034
28618		-0.488178	9.132804	-3.489939	-0.007567	0.010480	-0.011552	-0.005371	-0.976074	-0.173584	0.364435	0.561101	-0.603279	-0.434059
28619		-0.496835	9.131999	-3.508605	-0.001961	0.008973	-0.011990	-0.000244	-0.971924	-0.182129	0.364495	0.561093	-0.603260	-0.434047
28620		-0.521974	9.142574	-3.522522	0.003703	0.008798	-0.015620	-0.005615	-0.977051	-0.178467	0.364521	0.561109	-0.603230	-0.434045
28621		-0.509231	9.155160	-3.507594	0.006837	0.006298	-0.019354	-0.014404	-0.975586	-0.172607	0.364501	0.561141	-0.603216	-0.434039
28622		-0.476242	9.149522	-3.511093	0.008716	0.007048	-0.018103	-0.006348	-0.968750	-0.178223	0.364477	0.561167	-0.603234	-0.434001
28623		-0.478573	9.137893	-3.489445	0.006020	0.008908	-0.017093	-0.000488	-0.973145	-0.179443	0.364484	0.561191	-0.603220	-0.433984
28624		-0.463126	9.100996	-3.517223	0.003558	0.009012	-0.014709	-0.012939	-0.970215	-0.172363	0.364513	0.561208	-0.603195	-0.433971
28625		-0.470297	9.142850	-3.506875	0.004192	0.007938	-0.014361	0.003906	-0.971680	-0.169922	0.364529	0.561208	-0.603207	-0.433942
28626		-0.452635	9.160180	-3.527276	0.006996	0.007188	-0.014578	0.005859	-0.969482	-0.170166	0.364531	0.561267	-0.603190	-0.433887
28627		-0.466104	9.165033	-3.535202	0.006199	0.005824	-0.012525	-0.004639	-0.974854	-0.174561	0.364539	0.561313	-0.603179	-0.433838
28628		-0.444406	9.154095	-3.521881	-0.001462	0.009662	-0.017905	0.002441	-0.973633	-0.172119	0.364579	0.561335	-0.603130	-0.433843
28629		-0.425935	9.124960	-3.516905	-0.001520	0.008332	-0.014714	0.001709	-0.980957	-0.172119	0.364626	0.561363	-0.603082	-0.433833
28630		-0.438372	9.094422	-3.522205	-0.000869	0.009910	-0.015857	0.001709	-0.971436	-0.171631	0.364671	0.561403	-0.603031	-0.433814
28631		-0.429761	9.124688	-3.517147	0.004652	0.009956	-0.018572	-0.003174	-0.972168	-0.172852	0.364684	0.561474	-0.602984	-0.433777
28632		-0.431814	9.135320	-3.540800	0.005140	0.009096	-0.017315	-0.001953	-0.978027	-0.178955	0.364693	0.561520	-0.602960	-0.433744
28633		-0.478483	9.152332	-3.515015	0.011192	0.006962	-0.020470	0.004395	-0.976074	-0.175537	0.364653	0.561580	-0.602948	-0.433716
28634		-0.461950	9.158333	-3.513255	0.009170	0.006424	-0.020812	0.002686	-0.971680	-0.175293	0.364621	0.561659	-0.602912	-0.433690
28635		-0.465849	9.182541	-3.493072	0.005803	0.004050	-0.017170	-0.004883	-0.976807	-0.174316	0.364606	0.561697	-0.602892	-0.433682
28636		-0.482054	9.144329	-3.530651	-0.000988	0.005048	-0.020830	-0.004883	-0.969482	-0.176514	0.364610	0.561717	-0.602848	-0.433714
28637		-0.473312	9.138967	-3.523497	-0.003098	0.006052	-0.023455	-0.003174	-0.965820	-0.177490	0.364622	0.561741	-0.602779	-0.433770
28638		-0.474890	9.114265	-3.544243	-0.005844	0.009229	-0.020751	0.000977	-0.975342	-0.179932	0.364675	0.561756	-0.602697	-0.433819
28639		-0.478498	9.139164	-3.522285	-0.002892	0.009371	-0.016196	0.000977	-0.974121	-0.170898	0.364731	0.561764	-0.602640	-0.433840
28640		-0.500978	9.168232	-3.526771	-0.002757	0.006506	-0.015612	-0.011719	-0.976562	-0.175049	0.364770	0.561783	-0.602596	-0.433844
28641		-0.487175	9.145416	-3.509506	0.002784	-0.000065	-0.017037	0.001221	-0.970459	-0.178711	0.364740	0.561757	-0.602617	-0.433875
28642		-0.478044	9.150860	-3.525879	0.002830	-0.001385	-0.018734	-0.004883	-0.980957	-0.178711	0.364707	0.561760	-0.602599	-0.433923
28643		-0.460267	9.121465	-3.521644	0.005577	-0.003460	-0.015759	-0.000488	-0.972168	-0.170654	0.364655	0.561733	-0.602630	-0.433958
28644		-0.431946	9.133522	-3.535206	0.007930	-0.007316	-0.017435	-0.008301	-0.969971	-0.180420	0.364568	0.561740	-0.602662	-0.433979
28645		-0.414145	9.103893	-3.531637	0.009745	-0.007892	-0.012995	0.004150	-0.968506	-0.177002	0.364487	0.561680	-0.602739	-0.434017
28646		-0.450374	9.151194	-3.500786	0.012018	-0.006452	-0.012768	0.002197	-0.973633	-0.173584	0.364409	0.561674	-0.602791	-0.434018
28647		-0.471998	9.143633	-3.505736	0.009360	-0.005922	-0.013460	-0.007324	-0.977539	-0.175049	0.364339	0.561670	-0.602835	-0.434021
28648		-0.486361	9.137099	-3.491464	0.013451	-0.006156	-0.014468	0.004639	-0.982666	-0.180420	0.364240	0.561653	-0.602914	-0.434017
28649		-0.477286	9.130757	-3.487026	0.019601	-0.009819	-0.015337	0.012207	-0.976807	-0.171387	0.364098	0.561665	-0.602993	-0.434010
28650		-0.480382	9.118324	-3.467480	0.024978	-0.009544	-0.017140	0.003906	-0.975342	-0.169189	0.363927	0.561746	-0.603064	-0.433950
28651		-0.492548	9.151406	-3.492151	0.026071	-0.008601	-0.021003	-0.000488	-0.973389	-0.170166	0.363737	0.561834	-0.603138	-0.433892
28652		-0.491570	9.132392	-3.485588	0.025351	-0.002231	-0.019454	-0.001221	-0.981934	-0.174805	0.363587	0.561919	-0.603207	-0.433811
28653		-0.482581	9.136630	-3.505111	0.021222	0.001976	-0.018242	-0.001953	-0.968018	-0.177246	0.363482	0.561988	-0.603258	-0.433740
28654		-0.458535	9.154347	-3.508299	0.017529	0.002891	-0.018258	-0.003662	-0.974365	-0.177979	0.363403	0.562037	-0.603290	-0.433697
28655		-0.489153	9.181026	-3.535081	0.015359	0.002559	-0.017692	0.001221	-0.974854	-0.166992	0.363333	0.562070	-0.603324	-0.433667
28656		-0.511049	9.173237	-3.540364	0.009792	0.002713	-0.018958	-0.007324	-0.973877	-0.177002	0.363282	0.562133	-0.603322	-0.433632
28657		-0.524267	9.141784	-3.547444	0.013247	0.003556	-0.020316	-0.003418	-0.972656	-0.171143	0.363214	0.562167	-0.603342	-0.433616
28658		-0.512464	9.143231	-3.510650	0.010729	0.001216	-0.020419	-0.007568	-0.972900	-0.166748	0.363146	0.562210	-0.603351	-0.433605
28659		-0.528720	9.104384	-3.549028	0.006886	0.002341	-0.019530	-0.003906	-0.979248	-0.177734	0.363100	0.562240	-0.603358	-0.433595
28660		-0.543020	9.108988	-3.557084	0.007539	0.010329	-0.017996	0.001221	-0.973633	-0.176270	0.363102	0.562276	-0.603341	-0.433569
28661		-0.569115	9.096627	-3.526961	0.015627	0.008768	-0.020796	-0.000244	-0.975098	-0.174805	0.363052	0.562362	-0.603332	-0.433513
28662		-0.542369	9.132861	-3.521336	0.022680	0.007596	-0.022919	-0.005127	-0.979248	-0.163818	0.362953	0.562474	-0.603347	-0.433429
28663		-0.533397	9.147978	-3.563799	0.023276	0.010501	-0.022370	0.010254	-0.980469	-0.168213	0.362859	0.562610	-0.603372	-0.433297
28664		-0.521155	9.148836	-3.528795	0.023319	0.010288	-0.018392	0.009277	-0.968994	-0.175537	0.362788	0.562754	-0.603380	-0.433157
28665		-0.487786	9.153858	-3.556884	0.015431	0.010309	-0.018192	0.001709	-0.975586	-0.169434	0.362762	0.562851	-0.603358	-0.433084
28666		-0.463042	9.172170	-3.558896	0.006696	0.010286	-0.014251	-0.008789	-0.975098	-0.169189	0.362782	0.562895	-0.603344	-0.433029
28667		-0.455735	9.148245	-3.561217	-0.002461	0.017741	-0.017754	0.004883	-0.974854	-0.172852	0.362863	0.562928	-0.603284	-0.433002
28668		-0.479503	9.122756	-3.573149	-0.002460	0.017743	-0.017753	-0.004395	-0.979248	-0.169678	0.362954	0.562989	-0.603191	-0.432976
28669		-0.473870	9.134740	-3.576882	0.002528	0.020001	-0.020019	0.000244	-0.967773	-0.176025	0.363016	0.563068	-0.603122	-0.432917
28670		-0.463792	9.118319	-3.547755	0.005034	0.017048	-0.016917	0.006348	-0.965576	-0.172852	0.363072	0.563124	-0.603070	-0.432869
28671		-0.468415	9.088266	-3.535058	0.011695	0.015202	-0.018006	-0.006348	-0.978760	-0.170166	0.363087	0.563222	-0.603029	-0.432787
28672		-0.471943	9.123089	-3.539033	0.016824	0.011949	-0.018180	0.007324	-0.977539	-0.167480	0.363048	0.563299	-0.603050	-0.432692
28673		-0.466678	9.123148	-3.522502	0.018992	0.009639	-0.017241	0.002197	-0.979736	-0.166748	0.362998	0.563411	-0.603057	-0.432577
28674		-0.453800	9.156983	-3.555782	0.021996	0.011134	-0.015875	0.000732	-0.978516	-0.169434	0.362942	0.563519	-0.603091	-0.432437
28675		-0.453248	9.163391	-3.527008	0.015801	0.005925	-0.020173	-0.000488	-0.972656	-0.172852	0.362874	0.563598	-0.603100	-0.432376
28676		-0.456897	9.118949	-3.559168	0.012290	0.006399	-0.017130	-0.002441	-0.982910	-0.168945	0.362839	0.563641	-0.603111	-0.432335
28677		-0.469031	9.098403	-3.588886	0.007890	0.007044	-0.014321	-0.000977	-0.977295	-0.166260	0.362833	0.563664	-0.603125	-0.432292
28678		-0.463587	9.110078	-3.593425	0.004002	0.005720	-0.015918	-0.000488	-0.972168	-0.170898	0.362833	0.563688	-0.603117	-0.432272
28679		-0.499614	9.089007	-3.613742	0.010768	0.010292	-0.019212	0.002197	-0.968262	-0.174561	0.362817	0.563754	-0.603100	-0.432222
28680		-0.520126	9.124432	-3.589394	0.017433	0.008455	-0.020292	0.006348	-0.973389	-0.175537	0.362760	0.563836	-0.603101	-0.432161
28681		-0.499240	9.112877	-3.578537	0.022474	0.004097	-0.021244	0.006348	-0.972412	-0.171875	0.362656	0.563932	-0.603119	-0.432097
28682		-0.499634	9.129865	-3.573312	0.023818	0.003286	-0.023723	0.005127	-0.968506	-0.169434	0.362531	0.564049	-0.603135	-0.432028
28683		-0.493620	9.115635	-3.601242	0.017587	0.008244	-0.021194	0.001221	-0.982422	-0.163330	0.362469	0.564153	-0.603127	-0.431956
28684		-0.493295	9.122320	-3.571875	0.012540	0.004655	-0.015742	0.000732	-0.970947	-0.174805	0.362424	0.564206	-0.603152	-0.431889
28685		-0.510138	9.108028	-3.589326	0.009390	0.006018	-0.017702	0.003906	-0.976318	-0.164062	0.362401	0.564235	-0.603147	-0.431877
28686		-0.540538	9.134634	-3.615452	0.010765	0.002348	-0.014707	0.004395	-0.980713	-0.167969	0.362360	0.564273	-0.603170	-0.431830
28687		-0.563774	9.151811	-3.599141	0.007917	-0.002017	-0.015475	0.006592	-0.975342	-0.170898	0.362308	0.564283	-0.603191	-0.431831
28688		-0.566450	9.151231	-3.600195	0.006203	-0.003005	-0.017630	0.001221	-0.970703	-0.172119	0.362255	0.564293	-0.603191	-0.431861
28689		-0.569083	9.129258	-3.554792	0.000760	-0.001983	-0.014156	-0.000977	-0.975830	-0.165771	0.362245	0.564255	-0.603197	-0.431913
28690		-0.557626	9.099152	-3.568758	-0.002849	0.002669	-0.014905	0.003418	-0.972168	-0.161865	0.362266	0.564237	-0.603179	-0.431943
28691		-0.571544	9.093518	-3.552137	-0.005908	-0.000155	-0.013080	0.000488	-0.975342	-0.169678	0.362295	0.564210	-0.603158	-0.431983
28692		-0.564297	9.091726	-3.598984	-0.005326	0.005403	-0.014038	0.008789	-0.977051	-0.162842	0.362347	0.564185	-0.603123	-0.432021
28693		-0.544964	9.073859	-3.616516	0.001864	0.007814	-0.012883	0.000732	-0.970947	-0.165283	0.362383	0.564222	-0.603095	-0.431981
28694		-0.552733	9.104822	-3.583888	0.008320	0.007531	-0.011366	0.008301	-0.970947	-0.161865	0.362390	0.564243	-0.603115	-0.431921
28695		-0.500984	9.142823	-3.585759	0.009697	0.003861	-0.008371	0.000488	-0.976074	-0.168457	0.362386	0.564266	-0.603149	-0.431847
28696		-0.463826	9.156542	-3.580282	0.006945	0.000606	-0.008356	0.003662	-0.978271	-0.170410	0.362375	0.564235	-0.603200	-0.431825
28697		-0.448526	9.144839	-3.586186	0.000030	0.001530	-0.007161	0.005371	-0.973145	-0.171387	0.362409	0.564185	-0.603221	-0.431833
28698		-0.443072	9.102792	-3.596204	-0.006332	-0.002374	-0.004893	0.004883	-0.974365	-0.171387	0.362464	0.564092	-0.603236	-0.431887
28699		-0.451029	9.101857	-3.614363	-0.009208	-0.000327	-0.003003	0.003662	-0.984619	-0.175293	0.362549	0.563988	-0.603245	-0.431939
28700		-0.435407	9.090879	-3.618495	-0.007067	0.000230	-0.007532	0.005371	-0.969238	-0.172363	0.362610	0.563905	-0.603242	-0.432000
28701		-0.445616	9.103955	-3.592945	-0.003760	-0.003991	-0.004975	0.003662	-0.975342	-0.168701	0.362646	0.563815	-0.603269	-0.432051
28702		-0.479676	9.126763	-3.582158	0.003706	-0.007093	-0.006599	0.000000	-0.982178	-0.165771	0.362622	0.563749	-0.603330	-0.432071
28703		-0.462206	9.133611	-3.579341	0.004565	-0.009700	-0.008836	0.015137	-0.965088	-0.168457	0.362567	0.563686	-0.603402	-0.432098
28704		-0.468753	9.139691	-3.567536	0.003833	-0.012395	-0.008473	0.007812	-0.978516	-0.171387	0.362518	0.563640	-0.603442	-0.432144
28705		-0.473424	9.120964	-3.576402	-0.001312	-0.006511	-0.009810	0.006592	-0.973877	-0.165527	0.362512	0.563583	-0.603458	-0.432200
28706		-0.486996	9.115327	-3.559812	-0.006207	-0.005028	-0.008265	0.004639	-0.974609	-0.166504	0.362539	0.563518	-0.603463	-0.432255
28707		-0.491320	9.086082	-3.545013	-0.001379	0.000114	-0.011123	-0.006836	-0.972656	-0.177734	0.362558	0.563495	-0.603460	-0.432274
28708		-0.556934	9.106747	-3.544361	-0.001870	0.000967	-0.012382	0.000977	-0.975830	-0.175293	0.362581	0.563426	-0.603468	-0.432333
28709		-0.505996	9.156249	-3.567596	-0.000829	0.000585	-0.013052	0.002686	-0.971436	-0.170898	0.362596	0.563388	-0.603462	-0.432378
28710		-0.524265	9.156870	-3.538919	-0.003797	0.001517	-0.011944	-0.000244	-0.968262	-0.164795	0.362633	0.563353	-0.603445	-0.432418
28711		-0.521476	9.139818	-3.527673	-0.004771	-0.002077	-0.011460	-0.008057	-0.975586	-0.167480	0.362653	0.563304	-0.603445	-0.432465
28712		-0.502346	9.122306	-3.544441	-0.007672	-0.005121	-0.010540	0.000488	-0.978516	-0.168457	0.362671	0.563206	-0.603466	-0.432547
28713		-0.494930	9.131593	-3.613759	-0.009019	-0.004312	-0.008061	-0.002197	-0.978760	-0.159180	0.362712	0.563116	-0.603473	-0.432620
28714		-0.534491	9.096080	-3.573121	-0.010375	0.001796	-0.008581	-0.005127	-0.975342	-0.175537	0.362782	0.563060	-0.603463	-0.432649
28715		-0.483849	9.070087	-3.556325	-0.006207	-0.002378	-0.009764	-0.003662	-0.980469	-0.168213	0.362814	0.562966	-0.603475	-0.432727
28716		-0.494533	9.104604	-3.577011	0.000090	0.000211	-0.008845	0.004150	-0.972168	-0.176270	0.362830	0.562916	-0.603507	-0.432736
28717		-0.512440	9.115660	-3.572245	0.008295	-0.002835	-0.009336	0.003174	-0.978027	-0.170166	0.362800	0.562884	-0.603552	-0.432738
28718		-0.506948	9.127143	-3.577431	0.012949	-0.005210	-0.010760	0.001465	-0.974609	-0.169434	0.362727	0.562876	-0.603621	-0.432715
28719		-0.517831	9.128248	-3.531644	0.012649	-0.007432	-0.007451	0.001465	-0.975586	-0.168701	0.362655	0.562839	-0.603714	-0.432694
28720		-0.523970	9.144611	-3.544160	0.013378	-0.004736	-0.007814	-0.003906	-0.974365	-0.166748	0.362591	0.562817	-0.603799	-0.432656
28721		-0.501811	9.144753	-3.554705	0.007573	-0.008180	-0.007471	0.005615	-0.977051	-0.170166	0.362535	0.562754	-0.603888	-0.432662
28722		-0.479657	9.145161	-3.564577	0.004764	-0.010114	-0.005767	-0.003662	-0.984619	-0.175049	0.362495	0.562684	-0.603958	-0.432688
28723		-0.473700	9.146333	-3.545641	0.001392	-0.007221	-0.005134	0.004150	-0.972412	-0.170410	0.362484	0.562580	-0.604030	-0.432732
28724		-0.448508	9.165760	-3.545744	-0.002957	-0.005275	-0.005518	-0.001709	-0.972900	-0.170654	0.362506	0.562499	-0.604061	-0.432776
28725		-0.435921	9.135993	-3.559236	-0.004975	-0.005839	-0.005863	-0.003662	-0.978760	-0.170898	0.362530	0.562397	-0.604097	-0.432838
28726		-0.432671	9.129799	-3.570956	-0.003054	-0.003737	-0.007801	0.002441	-0.975830	-0.168945	0.362547	0.562315	-0.604129	-0.432885
28727		-0.453434	9.122738	-3.573687	-0.004773	-0.002080	-0.011454	-0.007080	-0.975098	-0.171387	0.362570	0.562271	-0.604120	-0.432936
28728		-0.455475	9.122688	-3.573553	0.003015	0.002143	-0.015423	0.000244	-0.972168	-0.168701	0.362560	0.562258	-0.604127	-0.432952
28729		-0.421932	9.118213	-3.576243	0.004961	0.006684	-0.014891	0.002441	-0.982178	-0.165771	0.362569	0.562287	-0.604114	-0.432925
28730		-0.442827	9.110535	-3.580502	0.006172	0.011178	-0.015496	0.002197	-0.972168	-0.169189	0.362590	0.562352	-0.604087	-0.432859
28731		-0.465744	9.138652	-3.586541	0.004245	0.001339	-0.013026	-0.005371	-0.976318	-0.168213	0.362583	0.562355	-0.604092	-0.432855
28732		-0.443561	9.117518	-3.550434	0.006378	-0.004929	-0.007396	-0.004639	-0.969727	-0.171631	0.362549	0.562296	-0.604168	-0.432854
28733		-0.457092	9.122129	-3.558108	0.003709	-0.012167	-0.007563	-0.006348	-0.975342	-0.176270	0.362495	0.562198	-0.604251	-0.432911
28734		-0.480363	9.150366	-3.563767	0.003686	-0.014604	-0.010031	-0.003174	-0.977783	-0.169434	0.362421	0.562092	-0.604332	-0.432998
28735		-0.489986	9.137831	-3.560628	0.004333	-0.015669	-0.009676	-0.006348	-0.980713	-0.168701	0.362337	0.562004	-0.604416	-0.433065
28736		-0.471574	9.119777	-3.578893	0.003905	-0.016142	-0.012619	-0.002441	-0.978516	-0.156494	0.362238	0.561922	-0.604494	-0.433144
28737		-0.483375	9.121396	-3.531721	0.004477	-0.013232	-0.012079	-0.004395	-0.978027	-0.171875	0.362150	0.561884	-0.604563	-0.433172
28738		-0.476872	9.108368	-3.556783	0.001166	-0.011670	-0.013131	0.001953	-0.975830	-0.166504	0.362089	0.561811	-0.604608	-0.433254
28739		-0.504883	9.121469	-3.503836	0.001813	-0.004998	-0.013312	0.001221	-0.970459	-0.170166	0.362059	0.561792	-0.604623	-0.433284
28740		-0.507674	9.142710	-3.550282	0.005573	-0.004550	-0.016471	-0.008057	-0.972656	-0.172852	0.362005	0.561791	-0.604634	-0.433314
28741		-0.526705	9.142649	-3.523053	0.009849	-0.002515	-0.015905	-0.001465	-0.974854	-0.173584	0.361939	0.561780	-0.604677	-0.433325
28742		-0.531936	9.123300	-3.533309	0.010484	-0.000929	-0.017051	0.001709	-0.972168	-0.164795	0.361878	0.561797	-0.604697	-0.433325
28743		-0.491935	9.130600	-3.540980	0.014979	-0.000431	-0.019074	-0.000488	-0.981201	-0.167969	0.361788	0.561864	-0.604719	-0.433283
28744		-0.509258	9.115941	-3.558773	0.012897	0.000326	-0.017731	-0.003418	-0.978271	-0.166260	0.361715	0.561909	-0.604743	-0.433250
28745		-0.501996	9.145948	-3.555498	0.010407	0.003046	-0.016866	-0.001953	-0.973877	-0.167969	0.361668	0.561948	-0.604760	-0.433215
28746		-0.476139	9.139886	-3.578132	0.005331	0.002285	-0.016882	0.003418	-0.964111	-0.176025	0.361645	0.561968	-0.604757	-0.433214
28747		-0.502266	9.138620	-3.569598	0.000963	0.006869	-0.018767	-0.001221	-0.970703	-0.168213	0.361669	0.561997	-0.604698	-0.433238
28748		-0.518987	9.113819	-3.562800	0.005180	0.002501	-0.015977	-0.005371	-0.977539	-0.173828	0.361651	0.562014	-0.604695	-0.433235
28749		-0.509339	9.119201	-3.579710	0.006410	0.001701	-0.013582	0.004883	-0.977539	-0.172119	0.361632	0.561999	-0.604719	-0.433238
28750		-0.485152	9.138285	-3.581010	0.006084	-0.000311	-0.014241	-0.002686	-0.972168	-0.162842	0.361608	0.562008	-0.604723	-0.433241
28751		-0.470644	9.115795	-3.564279	0.005027	0.002715	-0.015073	-0.000977	-0.976562	-0.169434	0.361590	0.562026	-0.604729	-0.433223
28752		-0.513083	9.125619	-3.550806	0.007351	0.002860	-0.016535	-0.003418	-0.972656	-0.167969	0.361562	0.562052	-0.604731	-0.433210
28753		-0.486966	9.119592	-3.573460	0.008821	0.002961	-0.014262	-0.002686	-0.974854	-0.171143	0.361534	0.562067	-0.604753	-0.433182
28754		-0.484405	9.112589	-3.587113	0.008103	0.000263	-0.013894	0.000488	-0.974854	-0.164062	0.361500	0.562064	-0.604781	-0.433177
28755		-0.495781	9.124772	-3.563606	0.007608	0.001113	-0.015152	-0.003662	-0.980713	-0.168945	0.361464	0.562091	-0.604794	-0.433153
28756		-0.502788	9.141401	-3.575203	0.004773	0.004465	-0.016451	-0.002930	-0.968750	-0.172363	0.361454	0.562108	-0.604789	-0.433146
28757		-0.516533	9.124395	-3.536926	0.004397	0.001132	-0.013922	0.005615	-0.972412	-0.172119	0.361443	0.562093	-0.604799	-0.433161
28758		-0.490400	9.118612	-3.559009	0.004723	-0.001943	-0.014224	0.000244	-0.972412	-0.173340	0.361419	0.562092	-0.604800	-0.433181
28759		-0.502036	9.141806	-3.557785	0.001903	-0.001240	-0.014020	-0.005859	-0.976074	-0.167969	0.361409	0.562068	-0.604801	-0.433218
28760		-0.494607	9.118150	-3.559611	-0.000509	0.002587	-0.012378	-0.006836	-0.979736	-0.162598	0.361428	0.562039	-0.604806	-0.433235
28761		-0.468127	9.112602	-3.581191	0.002705	0.002572	-0.013607	0.002441	-0.978760	-0.158936	0.361421	0.562033	-0.604822	-0.433226
28762		-0.482111	9.117136	-3.588729	0.004552	0.000921	-0.014823	-0.003662	-0.970459	-0.170898	0.361397	0.562062	-0.604825	-0.433203
28763		-0.464927	9.113370	-3.563252	0.006003	0.003671	-0.014054	-0.005127	-0.973633	-0.166748	0.361389	0.562063	-0.604835	-0.433194
28764		-0.492851	9.136952	-3.533975	0.003866	0.007280	-0.018185	-0.000732	-0.971924	-0.161377	0.361390	0.562096	-0.604813	-0.433182
28765		-0.471413	9.137604	-3.543670	0.003950	0.008393	-0.017404	0.003662	-0.970459	-0.168213	0.361398	0.562150	-0.604784	-0.433146
28766		-0.487755	9.123536	-3.559777	0.001078	0.007772	-0.014014	-0.003418	-0.981445	-0.170166	0.361437	0.562173	-0.604749	-0.433131
28767		-0.477482	9.118649	-3.552678	-0.003520	0.008796	-0.014278	0.001465	-0.974121	-0.172363	0.361496	0.562169	-0.604711	-0.433142
28768		-0.491584	9.090677	-3.611831	-0.004408	0.008958	-0.014511	0.003662	-0.976074	-0.171875	0.361566	0.562171	-0.604654	-0.433160
28769		-0.504689	9.128554	-3.565614	-0.003300	0.012345	-0.015902	0.004883	-0.972656	-0.169678	0.361643	0.562202	-0.604581	-0.433157
28770		-0.537828	9.136638	-3.598765	0.000162	0.008147	-0.018210	-0.001953	-0.972656	-0.168213	0.361675	0.562246	-0.604520	-0.433159
28771		-0.504452	9.132706	-3.600879	0.000183	0.005499	-0.016707	-0.002441	-0.983398	-0.164307	0.361692	0.562259	-0.604490	-0.433169
28772		-0.518355	9.126983	-3.584117	-0.010947	0.008077	-0.016802	-0.001709	-0.971680	-0.168945	0.361768	0.562255	-0.604417	-0.433212
28773		-0.541708	9.101550	-3.594196	-0.015598	0.007775	-0.013882	0.000732	-0.966309	-0.171143	0.361881	0.562214	-0.604336	-0.433285
28774		-0.562298	9.094990	-3.595042	-0.018161	0.006724	-0.012300	0.001709	-0.975830	-0.170166	0.362011	0.562155	-0.604248	-0.433375
28775		-0.561363	9.125262	-3.606884	-0.014761	0.006292	-0.010462	-0.003418	-0.973389	-0.179199	0.362128	0.562101	-0.604184	-0.433437
28776		-0.550737	9.121042	-3.598154	-0.008704	0.002938	-0.010387	-0.002441	-0.973877	-0.166260	0.362202	0.562026	-0.604157	-0.433509
28777		-0.532560	9.161887	-3.540552	-0.011423	0.002097	-0.007904	0.002686	-0.977783	-0.167969	0.362285	0.561952	-0.604140	-0.433560
28778		-0.529175	9.145451	-3.527955	-0.014590	0.000994	-0.012325	-0.001221	-0.975342	-0.169678	0.362364	0.561897	-0.604083	-0.433644
28779		-0.502122	9.130401	-3.523660	-0.020877	0.005885	-0.009812	-0.009766	-0.974609	-0.167480	0.362506	0.561816	-0.604007	-0.433736
28780		-0.500849	9.106640	-3.541469	-0.022707	0.004882	-0.007094	-0.007568	-0.973877	-0.172119	0.362652	0.561696	-0.603960	-0.433836
28781		-0.511271	9.131326	-3.536426	-0.021268	0.005199	-0.008786	-0.008057	-0.975830	-0.176270	0.362793	0.561587	-0.603902	-0.433939
28782		-0.483675	9.116387	-3.531976	-0.016589	0.005294	-0.007739	-0.002197	-0.976318	-0.163330	0.362917	0.561481	-0.603865	-0.434024
28783		-0.474965	9.148115	-3.524656	-0.012798	0.005549	-0.006925	-0.007812	-0.970947	-0.172363	0.363023	0.561421	-0.603838	-0.434050
28784		-0.487342	9.197170	-3.499991	-0.011155	0.002787	-0.004057	-0.005859	-0.968018	-0.180176	0.363121	0.561312	-0.603846	-0.434099
28785		-0.447710	9.177124	-3.489283	-0.016748	0.003072	-0.009301	-0.001709	-0.982910	-0.179688	0.363235	0.561205	-0.603799	-0.434207
28786		-0.446692	9.153138	-3.507752	-0.018288	0.004296	-0.009887	-0.012207	-0.977051	-0.171875	0.363360	0.561115	-0.603734	-0.434309
28787		-0.445858	9.129187	-3.526152	-0.017996	0.006527	-0.013188	0.000732	-0.980713	-0.172607	0.363470	0.561038	-0.603674	-0.434400
28788		-0.430774	9.118897	-3.529155	-0.013969	0.007684	-0.012494	0.000732	-0.977051	-0.171631	0.363580	0.561006	-0.603600	-0.434453
28789		-0.429413	9.116381	-3.472929	-0.007536	0.010109	-0.012476	-0.005859	-0.977295	-0.166748	0.363672	0.561004	-0.603541	-0.434459
28790		-0.395206	9.123792	-3.497141	-0.002880	0.012858	-0.012924	0.000977	-0.973633	-0.177246	0.363745	0.561021	-0.603506	-0.434425
28791		-0.415591	9.170555	-3.493705	0.003651	0.011309	-0.013095	-0.005859	-0.983398	-0.171631	0.363793	0.561051	-0.603478	-0.434385
28792		-0.433678	9.181279	-3.489195	0.006630	0.010406	-0.014198	-0.004883	-0.979736	-0.165039	0.363807	0.561087	-0.603478	-0.434327
28793		-0.378463	9.159947	-3.509471	0.000098	0.009521	-0.016496	-0.007568	-0.975586	-0.175781	0.363835	0.561124	-0.603446	-0.434299
28794		-0.397060	9.127445	-3.534020	-0.000969	0.012546	-0.017322	-0.007080	-0.971680	-0.176025	0.363888	0.561148	-0.603398	-0.434293
28795		-0.396405	9.135155	-3.502281	-0.000496	0.014349	-0.017560	-0.005615	-0.975586	-0.171875	0.363947	0.561180	-0.603343	-0.434278
28796		-0.412676	9.121123	-3.518404	0.003563	0.019495	-0.021538	-0.001465	-0.975586	-0.173828	0.363997	0.561275	-0.603268	-0.434218
28797		-0.443212	9.114851	-3.475211	0.008501	0.015410	-0.021578	0.000732	-0.976562	-0.169922	0.364008	0.561377	-0.603213	-0.434153
28798		-0.465149	9.171682	-3.496475	0.014485	0.010955	-0.022285	-0.004395	-0.969727	-0.173096	0.363965	0.561496	-0.603187	-0.434070
28799		-0.444235	9.161052	-3.484821	0.015636	0.006611	-0.023141	0.005615	-0.973633	-0.172852	0.363890	0.561587	-0.603184	-0.434019
28800		-0.461545	9.146205	-3.502835	0.013074	0.005550	-0.021564	-0.003418	-0.977051	-0.171631	0.363837	0.561685	-0.603161	-0.433970
28801		-0.447990	9.134228	-3.510111	0.011850	0.006351	-0.023955	-0.000977	-0.978271	-0.181396	0.363774	0.561772	-0.603141	-0.433936
28802		-0.489213	9.129217	-3.541317	0.005629	0.009903	-0.023129	-0.000244	-0.967285	-0.181152	0.363771	0.561839	-0.603083	-0.433935
28803		-0.498989	9.127274	-3.561386	0.002408	0.012335	-0.019443	0.000488	-0.963135	-0.177246	0.363810	0.561886	-0.603019	-0.433929
28804		-0.524690	9.125722	-3.552892	0.001515	0.014930	-0.017211	0.000244	-0.969482	-0.173096	0.363874	0.561936	-0.602955	-0.433900
28805		-0.531323	9.120860	-3.518201	0.004999	0.010749	-0.019518	-0.008301	-0.974365	-0.177734	0.363887	0.562000	-0.602909	-0.433870
28806		-0.564804	9.128135	-3.553044	0.012608	0.006194	-0.018848	0.002441	-0.969971	-0.175293	0.363839	0.562039	-0.602925	-0.433838
28807		-0.567568	9.127003	-3.555511	0.019412	0.000478	-0.020094	-0.008789	-0.971191	-0.173584	0.363734	0.562114	-0.602954	-0.433788
28808		-0.580173	9.138224	-3.533885	0.020906	-0.004505	-0.018788	0.006836	-0.976562	-0.180176	0.363590	0.562143	-0.603036	-0.433758
28809		-0.569029	9.139941	-3.498288	0.020621	-0.000099	-0.021660	0.001953	-0.976807	-0.176025	0.363477	0.562229	-0.603053	-0.433716
28810		-0.567389	9.132491	-3.513104	0.012202	-0.003349	-0.018075	-0.005371	-0.971680	-0.177002	0.363393	0.562255	-0.603080	-0.433717
28811		-0.562955	9.143995	-3.518489	0.011193	0.003221	-0.015662	0.002930	-0.974121	-0.174072	0.363350	0.562268	-0.603109	-0.433696
28812		-0.515480	9.175389	-3.551975	0.007161	0.004484	-0.013897	-0.001709	-0.969482	-0.174072	0.363343	0.562290	-0.603111	-0.433669
28813		-0.493406	9.165399	-3.539074	0.007630	0.006289	-0.014138	0.001709	-0.974365	-0.177002	0.363339	0.562308	-0.603118	-0.433639
28814		-0.483311	9.160246	-3.532914	0.003188	0.007077	-0.015313	-0.000732	-0.974121	-0.169434	0.363361	0.562327	-0.603093	-0.433632
28815		-0.485161	9.160024	-3.533236	0.000391	0.005107	-0.013619	-0.008301	-0.975830	-0.168213	0.363383	0.562328	-0.603081	-0.433629
28816		-0.484183	9.135106	-3.553946	-0.005607	0.009546	-0.012924	-0.008789	-0.975098	-0.170898	0.363451	0.562307	-0.603054	-0.433637
28817		-0.461515	9.136839	-3.561706	-0.010381	0.013190	-0.009835	-0.004150	-0.972412	-0.170410	0.363572	0.562263	-0.603013	-0.433649
28818		-0.437974	9.084430	-3.575719	-0.013261	0.019179	-0.012634	0.002930	-0.977539	-0.181641	0.363730	0.562259	-0.602920	-0.433651
28819		-0.436584	9.114299	-3.588759	-0.004376	0.017609	-0.010278	0.001221	-0.972900	-0.177002	0.363861	0.562264	-0.602855	-0.433624
28820		-0.473017	9.106860	-3.563867	0.001449	0.013601	-0.014030	-0.003662	-0.975342	-0.175293	0.363927	0.562294	-0.602811	-0.433590
28821		-0.480238	9.167088	-3.545630	0.009401	0.006206	-0.017616	-0.002441	-0.976807	-0.173096	0.363900	0.562331	-0.602814	-0.433562
28822		-0.482752	9.155536	-3.524328	0.012198	-0.000676	-0.019555	0.002686	-0.976074	-0.172363	0.363817	0.562368	-0.602836	-0.433552
28823		-0.466583	9.151737	-3.499358	0.007232	-0.003027	-0.017314	0.005371	-0.976807	-0.175781	0.363758	0.562384	-0.602848	-0.433565
28824		-0.452227	9.140538	-3.504876	-0.003636	-0.002487	-0.012104	0.005615	-0.984375	-0.171875	0.363777	0.562343	-0.602836	-0.433619
28825		-0.435402	9.159240	-3.523489	-0.008196	0.002272	-0.013098	0.003174	-0.972168	-0.170654	0.363833	0.562319	-0.602791	-0.433665
28826		-0.472556	9.130302	-3.572576	-0.016703	0.006964	-0.014012	0.000000	-0.981201	-0.174805	0.363948	0.562286	-0.602701	-0.433738
28827		-0.512485	9.137739	-3.501553	-0.013351	0.009423	-0.017623	-0.004150	-0.980469	-0.174316	0.364045	0.562277	-0.602604	-0.433801
28828		-0.516686	9.119618	-3.508584	-0.010220	0.010761	-0.017154	0.000244	-0.975098	-0.176514	0.364132	0.562270	-0.602527	-0.433845
28829		-0.499789	9.127497	-3.504362	-0.000590	0.006819	-0.016123	0.005615	-0.978760	-0.174805	0.364163	0.562280	-0.602490	-0.433857
28830		-0.473199	9.111600	-3.502980	0.005487	0.003502	-0.016034	-0.000977	-0.974854	-0.171387	0.364153	0.562313	-0.602476	-0.433843
28831		-0.507134	9.151578	-3.484872	0.009453	0.001138	-0.018573	0.005615	-0.970459	-0.168945	0.364096	0.562350	-0.602486	-0.433829
28832		-0.504928	9.133740	-3.475886	0.012280	0.000462	-0.018766	0.006348	-0.967285	-0.177490	0.364026	0.562413	-0.602494	-0.433794
28833		-0.507895	9.154605	-3.523213	0.005649	0.003293	-0.016933	-0.001953	-0.971680	-0.177734	0.364016	0.562444	-0.602472	-0.433792
28834		-0.510074	9.154180	-3.524001	0.004276	0.004078	-0.014467	0.003662	-0.979248	-0.178467	0.364017	0.562441	-0.602473	-0.433794
28835		-0.471442	9.133545	-3.515875	0.005063	0.005465	-0.016507	0.003906	-0.973633	-0.178223	0.364018	0.562470	-0.602452	-0.433786
28836		-0.468809	9.137631	-3.551931	0.004541	0.002328	-0.013090	-0.005127	-0.970947	-0.178955	0.364019	0.562469	-0.602453	-0.433785
28837		-0.489426	9.118673	-3.533332	0.007137	0.000750	-0.013162	0.001709	-0.971191	-0.170654	0.363992	0.562446	-0.602486	-0.433790
28838		-0.484618	9.130530	-3.538017	0.007229	-0.000571	-0.014842	-0.001465	-0.975098	-0.175537	0.363952	0.562458	-0.602506	-0.433782
28839		-0.475105	9.125196	-3.532413	0.012158	-0.001974	-0.016363	0.002930	-0.973633	-0.170654	0.363877	0.562472	-0.602545	-0.433773
28840		-0.489311	9.118066	-3.518790	0.018217	-0.002846	-0.013809	0.002441	-0.972168	-0.168701	0.363779	0.562506	-0.602614	-0.433715
28841		-0.525364	9.149330	-3.534336	0.021970	0.000094	-0.014481	-0.007324	-0.976807	-0.160645	0.363675	0.562567	-0.602685	-0.433624
28842		-0.503680	9.138882	-3.522978	0.014239	0.006154	-0.017443	0.004395	-0.981445	-0.163086	0.363609	0.562630	-0.602722	-0.433546
28843		-0.489226	9.127006	-3.530397	0.013745	0.007002	-0.018698	0.001709	-0.983154	-0.166992	0.363559	0.562726	-0.602723	-0.433461
28844		-0.482434	9.146526	-3.504176	0.010063	0.005176	-0.017245	0.001465	-0.966064	-0.171143	0.363522	0.562784	-0.602728	-0.433410
28845		-0.460972	9.158214	-3.537127	0.004116	0.004286	-0.013564	0.003418	-0.971436	-0.177734	0.363528	0.562792	-0.602726	-0.433397
28846		-0.494009	9.165439	-3.571177	0.002006	0.005231	-0.016193	0.002686	-0.980469	-0.178711	0.363545	0.562806	-0.602695	-0.433408
28847		-0.465500	9.168365	-3.561022	0.002759	0.002851	-0.017515	0.000000	-0.981689	-0.168701	0.363541	0.562819	-0.602671	-0.433430
28848		-0.457135	9.090316	-3.569939	0.005127	0.000375	-0.017464	0.008789	-0.976318	-0.177490	0.363501	0.562838	-0.602674	-0.433433
28849		-0.467233	9.110462	-3.514349	0.004274	-0.002124	-0.016202	-0.003418	-0.972900	-0.177246	0.363476	0.562846	-0.602663	-0.433459
28850		-0.487022	9.131555	-3.533037	0.007889	-0.001406	-0.018433	-0.000244	-0.973389	-0.176758	0.363416	0.562849	-0.602678	-0.433484
28851		-0.508676	9.123051	-3.537861	0.010164	-0.002558	-0.016702	-0.005371	-0.964844	-0.177734	0.363349	0.562854	-0.602707	-0.433493
28852		-0.507362	9.148969	-3.499081	0.010846	0.000370	-0.021020	0.005859	-0.971924	-0.180176	0.363275	0.562878	-0.602718	-0.433509
28853		-0.510147	9.137309	-3.478151	0.016010	0.006084	-0.020918	0.003418	-0.976807	-0.165283	0.363218	0.562962	-0.602708	-0.433462
28854		-0.543939	9.132928	-3.491146	0.015248	0.008682	-0.023552	0.000977	-0.973633	-0.169678	0.363153	0.563084	-0.602688	-0.433387
28855		-0.511251	9.139642	-3.518024	0.011501	0.011939	-0.021141	0.001953	-0.971924	-0.166260	0.363132	0.563179	-0.602658	-0.433321
28856		-0.498807	9.120045	-3.556460	0.007322	0.017156	-0.019210	0.000244	-0.975830	-0.166504	0.363163	0.563278	-0.602607	-0.433238
28857		-0.493257	9.121296	-3.538111	0.004299	0.020471	-0.015664	-0.001465	-0.975586	-0.171875	0.363235	0.563358	-0.602556	-0.433146
28858		-0.501350	9.119143	-3.558414	0.005521	0.019685	-0.013269	0.000000	-0.975830	-0.161377	0.363308	0.563414	-0.602523	-0.433057
28859		-0.500782	9.147897	-3.574232	0.011876	0.014862	-0.015741	0.002441	-0.975830	-0.173096	0.363311	0.563503	-0.602519	-0.432944
28860		-0.463626	9.119149	-3.598683	0.010328	0.016070	-0.016336	0.001465	-0.970215	-0.181396	0.363337	0.563583	-0.602492	-0.432856
28861		-0.468833	9.081079	-3.617429	0.006979	0.013599	-0.012729	-0.002686	-0.979004	-0.174805	0.363386	0.563609	-0.602473	-0.432805
28862		-0.524441	9.075587	-3.620432	0.007246	0.011850	-0.011350	0.002197	-0.978271	-0.168213	0.363419	0.563625	-0.602482	-0.432746
28863		-0.523708	9.082857	-3.590539	0.015317	0.005613	-0.014121	-0.008057	-0.978271	-0.176025	0.363374	0.563678	-0.602518	-0.432665
28864		-0.540977	9.132489	-3.625598	0.021652	-0.003188	-0.011910	0.006592	-0.984619	-0.165039	0.363257	0.563670	-0.602631	-0.432615
28865		-0.498415	9.148655	-3.602528	0.022452	-0.008219	-0.011726	0.000977	-0.975586	-0.172607	0.363118	0.563699	-0.602739	-0.432544
28866		-0.503319	9.151247	-3.538193	0.013450	-0.015572	-0.009479	-0.005371	-0.969482	-0.174316	0.362994	0.563636	-0.602854	-0.432571
28867		-0.502640	9.125591	-3.560366	0.004689	-0.011836	-0.010301	-0.003906	-0.976318	-0.168213	0.362923	0.563544	-0.602933	-0.432639
28868		-0.511863	9.123641	-3.579846	-0.002256	-0.011055	-0.009146	0.001221	-0.968994	-0.174072	0.362889	0.563443	-0.602990	-0.432719
28869		-0.490001	9.114749	-3.565007	-0.004735	-0.007047	-0.011481	0.001465	-0.979492	-0.174316	0.362889	0.563363	-0.603001	-0.432808
28870		-0.494048	9.106807	-3.596015	-0.003220	-0.005812	-0.008431	0.000244	-0.971191	-0.173584	0.362898	0.563280	-0.603029	-0.432871
28871		-0.493222	9.104225	-3.541207	0.002548	-0.008672	-0.006526	0.002197	-0.967529	-0.170410	0.362872	0.563191	-0.603096	-0.432915
28872		-0.505002	9.127145	-3.540262	0.006141	-0.011712	-0.008029	-0.002930	-0.982666	-0.163818	0.362809	0.563119	-0.603175	-0.432951
28873		-0.535952	9.141953	-3.543172	0.008020	-0.013337	-0.009229	-0.000488	-0.982178	-0.173340	0.362712	0.563053	-0.603276	-0.432977
28874		-0.533485	9.124378	-3.533664	0.010058	-0.014959	-0.015283	0.003906	-0.969971	-0.166992	0.362585	0.563010	-0.603351	-0.433035
28875		-0.553170	9.134583	-3.529592	0.005973	-0.011288	-0.011082	-0.003662	-0.976318	-0.172607	0.362513	0.562964	-0.603411	-0.433071
28876		-0.541819	9.159153	-3.537339	0.000722	-0.005507	-0.012453	0.007324	-0.973145	-0.172607	0.362485	0.562905	-0.603443	-0.433127
28877		-0.535514	9.117087	-3.547444	-0.000802	-0.000750	-0.009820	-0.001709	-0.973145	-0.176025	0.362509	0.562871	-0.603444	-0.433150
28878		-0.506084	9.131163	-3.559813	-0.000939	0.003014	-0.005693	-0.007324	-0.975586	-0.173584	0.362561	0.562803	-0.603469	-0.433160
28879		-0.511872	9.148179	-3.570256	-0.003500	0.001926	-0.004125	0.004639	-0.975098	-0.168213	0.362617	0.562706	-0.603509	-0.433184
28880		-0.481902	9.151824	-3.559148	-0.003961	0.000331	-0.007835	-0.002930	-0.967529	-0.176514	0.362663	0.562658	-0.603511	-0.433204
28881		-0.473059	9.128711	-3.560218	-0.001811	-0.003041	-0.007657	0.006592	-0.982178	-0.166260	0.362681	0.562572	-0.603543	-0.433255
28882		-0.474430	9.128709	-3.560039	-0.000303	-0.001592	-0.008562	-0.002441	-0.972656	-0.164551	0.362697	0.562542	-0.603559	-0.433260
28883		-0.454168	9.111443	-3.577788	0.004409	-0.003874	-0.009951	-0.004883	-0.970947	-0.178955	0.362665	0.562504	-0.603610	-0.433264
28884		-0.467774	9.115604	-3.585489	0.003350	0.006670	-0.012241	-0.003418	-0.969971	-0.172852	0.362691	0.562485	-0.603613	-0.433263
28885		-0.465127	9.142184	-3.545738	0.002959	0.005976	-0.011220	0.002686	-0.974854	-0.179688	0.362717	0.562470	-0.603620	-0.433251
28886		-0.466719	9.152605	-3.569127	0.001016	0.006485	-0.010795	0.002686	-0.970459	-0.177246	0.362766	0.562454	-0.603606	-0.433250
28887		-0.453727	9.156309	-3.530067	-0.005494	0.005298	-0.009156	-0.001709	-0.977295	-0.169678	0.362845	0.562409	-0.603580	-0.433279
28888		-0.492290	9.140703	-3.535920	-0.008673	0.002609	-0.006446	0.000244	-0.973145	-0.174561	0.362924	0.562333	-0.603577	-0.433315
28889		-0.464673	9.125844	-3.532857	-0.006406	0.001895	-0.012621	0.002441	-0.974609	-0.175537	0.362972	0.562290	-0.603548	-0.433370
28890		-0.456596	9.113399	-3.556842	-0.001340	0.002749	-0.012577	0.002686	-0.975342	-0.169434	0.363004	0.562270	-0.603531	-0.433395
28891		-0.482424	9.122120	-3.571346	0.004734	0.005898	-0.014696	0.000244	-0.976562	-0.162598	0.363011	0.562300	-0.603518	-0.433367
28892		-0.477396	9.123556	-3.552685	0.004174	0.005627	-0.016729	0.002930	-0.973389	-0.168945	0.363005	0.562342	-0.603504	-0.433339
28893		-0.472289	9.125060	-3.533870	0.002836	0.003754	-0.012770	-0.002930	-0.973389	-0.170166	0.363018	0.562349	-0.603499	-0.433325
28894		-0.476952	9.149859	-3.513359	0.002100	-0.000288	-0.009228	-0.009277	-0.966553	-0.172607	0.363021	0.562306	-0.603532	-0.433331
28895		-0.507654	9.175510	-3.538567	0.001241	-0.006559	-0.007239	0.000000	-0.971924	-0.178955	0.363001	0.562208	-0.603602	-0.433379
28896		-0.480504	9.160281	-3.536485	-0.002275	-0.008403	-0.010639	-0.007568	-0.973877	-0.171387	0.362989	0.562124	-0.603626	-0.433464
28897		-0.496426	9.146208	-3.551353	-0.008167	-0.007997	-0.010143	0.002441	-0.972412	-0.170410	0.362994	0.562016	-0.603649	-0.433568
28898		-0.494876	9.110942	-3.547960	-0.007865	-0.002211	-0.010212	-0.007080	-0.975342	-0.173584	0.363037	0.561954	-0.603636	-0.433630
28899		-0.493210	9.075694	-3.544546	-0.009286	0.005201	-0.013931	0.003662	-0.978271	-0.168945	0.363103	0.561908	-0.603595	-0.433691
28900		-0.512045	9.097312	-3.561513	-0.003210	0.008139	-0.012097	0.004395	-0.978271	-0.172119	0.363168	0.561915	-0.603557	-0.433681
28901		-0.518650	9.114155	-3.572245	0.001807	0.011652	-0.013553	-0.002197	-0.975830	-0.171143	0.363225	0.561954	-0.603517	-0.433638
28902		-0.523292	9.138751	-3.552193	0.008304	0.009083	-0.014466	-0.003906	-0.978760	-0.171387	0.363229	0.561993	-0.603518	-0.433584
28903		-0.511351	9.162944	-3.561186	0.013238	0.003733	-0.011298	-0.001221	-0.966797	-0.167236	0.363191	0.562008	-0.603571	-0.433522
