// Start Time: Unknown
// Update Rate: 60.0Hz
// Filter Profile: human (46.1)
// Firmware Version: 4.6.0
PacketCounter	SampleTimeFine	Acc_X	Acc_Y	Acc_Z	Gyr_X	Gyr_Y	Gyr_Z	Mag_X	Mag_Y	Mag_Z	Quat_q0	Quat_q1	Quat_q2	Quat_q3
48699		7.373305	2.247840	5.874374	0.038086	-0.055782	0.033816	-0.849609	-0.325439	0.021484	-0.189906	-0.442021	-0.036576	-0.875908
48700		7.368132	2.327027	5.938586	0.038764	-0.061560	0.013712	-0.845459	-0.331543	0.030029	-0.189682	-0.442536	-0.036711	-0.875691
48701		7.363995	2.204638	5.940028	0.037041	-0.058621	-0.012065	-0.846680	-0.328369	0.027588	-0.189659	-0.443027	-0.036939	-0.875438
48702		7.293488	2.170328	5.966337	0.015712	-0.071851	-0.016303	-0.843262	-0.324463	0.021973	-0.189742	-0.443570	-0.036999	-0.875143
48703		7.333084	2.039254	6.073755	0.020833	-0.080537	-0.005229	-0.843994	-0.337646	0.030762	-0.189728	-0.444184	-0.037041	-0.874833
48704		7.369782	2.046327	6.142465	0.052009	-0.062376	-0.009438	-0.851807	-0.340820	0.025391	-0.189621	-0.444706	-0.037348	-0.874578
48705		7.306361	2.108814	6.155302	0.053873	-0.047516	-0.026096	-0.850586	-0.328613	0.033691	-0.189621	-0.445106	-0.037744	-0.874357
48706		7.331696	2.076407	6.138542	0.017597	-0.050613	-0.037578	-0.843750	-0.332764	0.028564	-0.189839	-0.445452	-0.037907	-0.874126
48707		7.455856	1.912975	6.097437	-0.006825	-0.052723	-0.043408	-0.851807	-0.334717	0.040039	-0.190188	-0.445755	-0.037899	-0.873896
48708		7.537699	1.784333	6.066562	0.009099	-0.033098	-0.044600	-0.853760	-0.331055	0.034668	-0.190471	-0.445927	-0.038018	-0.873742
48709		7.503404	1.773691	5.942892	0.025220	-0.025914	-0.039884	-0.846680	-0.333740	0.035889	-0.190642	-0.446062	-0.038213	-0.873627
48710		7.449883	1.787545	5.959062	0.016313	-0.044151	-0.024777	-0.848145	-0.335205	0.029541	-0.190725	-0.446316	-0.038219	-0.873479
48711		7.562786	1.819821	6.057420	0.015721	-0.052908	-0.016696	-0.851562	-0.340332	0.033691	-0.190736	-0.446624	-0.038139	-0.873322
48712		7.586780	1.865084	6.148321	0.026473	-0.042420	-0.016751	-0.853271	-0.337158	0.031006	-0.190687	-0.446862	-0.038114	-0.873213
48713		7.538967	1.861033	6.132731	0.035941	-0.029353	-0.010837	-0.854492	-0.336670	0.036621	-0.190540	-0.447005	-0.038121	-0.873171
48714		7.502813	1.851017	6.102719	0.043241	-0.021528	0.000656	-0.844971	-0.330566	0.038574	-0.190264	-0.447088	-0.038121	-0.873189
48715		7.515331	1.899326	6.049332	0.041524	-0.020824	0.003060	-0.845947	-0.333496	0.037598	-0.189988	-0.447170	-0.038087	-0.873208
48716		7.454125	1.899398	6.050921	0.037659	-0.022058	0.006961	-0.850098	-0.335205	0.035156	-0.189680	-0.447231	-0.037965	-0.873249
48717		7.469748	1.851625	6.090201	0.039793	-0.025013	-0.005245	-0.857910	-0.337158	0.037354	-0.189422	-0.447280	-0.037852	-0.873285
48718		7.455395	1.838675	6.079411	0.035698	-0.024318	-0.015965	-0.846436	-0.343750	0.033936	-0.189192	-0.447255	-0.037703	-0.873354
48719		7.496904	1.817328	6.047548	0.016756	-0.026172	-0.014472	-0.846436	-0.330566	0.030273	-0.189116	-0.447231	-0.037355	-0.873398
48720		7.510411	1.817377	6.053462	-0.000583	-0.026634	0.000231	-0.850342	-0.342285	0.039307	-0.188978	-0.447260	-0.036864	-0.873434
48721		7.452968	1.840920	6.034598	0.001775	-0.019418	0.026114	-0.853271	-0.331299	0.041504	-0.188592	-0.447118	-0.036245	-0.873616
48722		7.364006	1.978625	6.073089	0.025485	-0.010992	0.032587	-0.844482	-0.332764	0.037354	-0.188011	-0.447008	-0.035879	-0.873813
48723		7.274797	2.159007	6.096095	0.029210	-0.013366	0.026187	-0.850342	-0.335449	0.034668	-0.187629	-0.446978	-0.035537	-0.873924
48724		7.331313	2.233152	6.178854	0.025879	-0.010771	0.011280	-0.849365	-0.337158	0.035645	-0.187266	-0.446804	-0.035157	-0.874106
48725		7.389757	2.177652	6.190292	0.021887	0.005694	-0.007194	-0.845703	-0.332764	0.037109	-0.187095	-0.446471	-0.034867	-0.874325
48726		7.406280	2.076523	6.106034	0.018177	0.013851	-0.016397	-0.850830	-0.330078	0.032959	-0.187094	-0.446158	-0.034722	-0.874490
48727		7.503051	1.956292	5.969903	0.015491	0.013064	-0.019086	-0.844482	-0.339355	0.037842	-0.186981	-0.445795	-0.034537	-0.874707
48728		7.587145	1.881958	5.902519	0.005964	0.007941	-0.014859	-0.853271	-0.332520	0.036865	-0.187081	-0.445451	-0.034230	-0.874873
48729		7.558045	1.870851	5.843535	0.002234	0.004555	0.007147	-0.851074	-0.333740	0.032471	-0.186751	-0.445103	-0.033861	-0.875135
48730		7.496652	1.899359	5.852605	0.021133	0.002944	0.023310	-0.851318	-0.344238	0.033936	-0.186300	-0.444842	-0.033490	-0.875378
48731		7.401369	2.097435	5.907654	0.039077	-0.005818	0.026364	-0.843262	-0.343994	0.030518	-0.185831	-0.444549	-0.033076	-0.875642
48732		7.359292	2.219669	5.977205	0.040723	-0.009143	0.015321	-0.852539	-0.346436	0.036377	-0.185732	-0.444443	-0.032702	-0.875731
48733		7.407782	2.203594	6.006629	0.024661	-0.006330	-0.015187	-0.850586	-0.345215	0.037598	-0.185644	-0.444074	-0.032395	-0.875948
48734		7.478694	2.103274	5.949576	-0.002822	-0.005889	-0.033543	-0.854736	-0.330078	0.042969	-0.185868	-0.443732	-0.032041	-0.876087
48735		7.527607	1.922334	5.905390	-0.015919	-0.005002	-0.020421	-0.852783	-0.336670	0.035645	-0.185732	-0.443557	-0.031959	-0.876207
48736		7.542936	1.827249	5.870458	0.017601	-0.001450	-0.000074	-0.852539	-0.334717	0.036133	-0.185459	-0.443354	-0.031799	-0.876374
48737		7.483039	1.973721	5.918959	0.055018	-0.001507	0.015754	-0.850098	-0.342285	0.039307	-0.184918	-0.443267	-0.031896	-0.876529
48738		7.465504	2.163921	5.970323	0.055601	0.001475	0.023252	-0.847656	-0.342529	0.029785	-0.184507	-0.443128	-0.031888	-0.876686
48739		7.437390	2.232046	5.990755	0.040182	0.006581	0.012987	-0.858643	-0.336670	0.032471	-0.184380	-0.442951	-0.031671	-0.876810
48740		7.419755	2.179933	5.955686	0.030196	0.005295	-0.001964	-0.853271	-0.334473	0.035889	-0.183882	-0.442639	-0.031636	-0.877073
48741		7.454433	2.134054	5.905131	0.030451	-0.002199	-0.018975	-0.847168	-0.347900	0.041504	-0.183710	-0.442539	-0.031766	-0.877155
48742		7.578429	2.035911	5.876616	0.025488	-0.006838	-0.031475	-0.851318	-0.339111	0.035400	-0.184072	-0.442451	-0.031764	-0.877123
48743		7.669504	1.943002	5.819376	0.010894	-0.013564	-0.040372	-0.855469	-0.332275	0.032959	-0.184262	-0.442410	-0.031760	-0.877104
48744		7.620979	1.814858	5.716438	-0.007381	-0.029202	-0.025185	-0.850098	-0.347900	0.035889	-0.184125	-0.442475	-0.031642	-0.877105
48745		7.524101	1.789091	5.779278	-0.008797	-0.056295	-0.002364	-0.849121	-0.339111	0.031982	-0.184275	-0.442699	-0.031162	-0.876978
48746		7.519442	1.905655	5.939739	0.017096	-0.068769	0.007727	-0.849609	-0.341309	0.037354	-0.184183	-0.443159	-0.030885	-0.876774
48747		7.472784	2.063089	6.064810	0.026577	-0.058887	-0.005982	-0.854004	-0.339355	0.039307	-0.184146	-0.443550	-0.030781	-0.876588
48748		7.388934	2.119598	6.034679	-0.005548	-0.060670	-0.022341	-0.850586	-0.337158	0.043945	-0.184122	-0.443853	-0.030579	-0.876447
48749		7.375670	1.992157	6.074015	-0.038183	-0.075994	-0.031136	-0.849365	-0.333496	0.044434	-0.184382	-0.444314	-0.030229	-0.876170
48750		7.358137	1.885838	6.099316	-0.042141	-0.093727	-0.050403	-0.847656	-0.348145	0.040039	-0.184789	-0.444934	-0.029930	-0.875780
48751		7.326077	1.841213	6.197231	-0.045358	-0.114616	-0.070977	-0.854004	-0.337402	0.041260	-0.185665	-0.445539	-0.029416	-0.875305
48752		7.490275	1.714872	6.298888	-0.058030	-0.131337	-0.110448	-0.849854	-0.337646	0.036621	-0.186400	-0.446230	-0.029101	-0.874807
48753		7.529698	1.579823	6.317852	-0.097577	-0.143860	-0.153178	-0.849609	-0.343018	0.043213	-0.187778	-0.446934	-0.028540	-0.874171
48754		7.505886	1.330755	6.325574	-0.131122	-0.167022	-0.174395	-0.852295	-0.338135	0.050293	-0.189415	-0.447739	-0.027801	-0.873430
48755		7.596630	1.148299	6.485632	-0.179611	-0.193251	-0.158431	-0.855713	-0.346680	0.050537	-0.190783	-0.448699	-0.026748	-0.872672
48756		7.866569	0.865936	6.528415	-0.179876	-0.174794	-0.151934	-0.859863	-0.347656	0.057617	-0.191981	-0.449394	-0.025626	-0.872084
48757		7.966519	0.643716	6.462149	-0.165586	-0.144032	-0.146522	-0.847900	-0.361816	0.055908	-0.192688	-0.449871	-0.024743	-0.871708
48758		7.961978	0.555447	6.406564	-0.181101	-0.141505	-0.119380	-0.852051	-0.357178	0.055664	-0.193937	-0.450352	-0.023393	-0.871220
48759		8.057640	0.385356	6.449194	-0.214314	-0.161524	-0.078745	-0.848389	-0.355225	0.055176	-0.194670	-0.450894	-0.021651	-0.870821
48760		8.117401	0.341989	6.535986	-0.242661	-0.171622	-0.052040	-0.845215	-0.358643	0.065918	-0.195472	-0.451511	-0.019501	-0.870372
48761		8.124584	0.286878	6.570202	-0.276398	-0.166466	-0.034273	-0.856689	-0.360107	0.066406	-0.196166	-0.452137	-0.017172	-0.869940
48762		8.054236	0.159732	6.620176	-0.314215	-0.169864	-0.009722	-0.857178	-0.364502	0.063721	-0.196005	-0.452569	-0.014597	-0.869799
48763		8.103899	-0.148868	6.770992	-0.308577	-0.177208	-0.007043	-0.853027	-0.355225	0.066650	-0.195712	-0.453005	-0.011981	-0.869678
48764		8.261690	-0.158506	6.958363	-0.305051	-0.174189	0.003681	-0.851807	-0.350830	0.063232	-0.195426	-0.453525	-0.009371	-0.869503
48765		8.316081	-0.241091	7.025700	-0.346360	-0.148912	0.053685	-0.854248	-0.352295	0.073975	-0.195184	-0.453783	-0.006134	-0.869452
48766		8.219947	-0.457313	7.142035	-0.380333	-0.121832	0.129192	-0.856689	-0.350830	0.076416	-0.193662	-0.453832	-0.002830	-0.869784
48767		8.295575	-0.694600	7.270941	-0.355575	-0.095111	0.188523	-0.849609	-0.342773	0.076904	-0.191094	-0.453711	0.000291	-0.870419
48768		8.544992	-0.815470	7.340335	-0.304590	-0.047506	0.221556	-0.851807	-0.350830	0.082520	-0.188813	-0.453428	0.003259	-0.871058
48769		8.776546	-0.948730	7.280919	-0.280675	0.002828	0.245144	-0.852783	-0.344482	0.081055	-0.185328	-0.452845	0.005640	-0.872097
48770		8.731653	-0.966977	7.221096	-0.319814	0.020744	0.307724	-0.851318	-0.337402	0.076416	-0.181556	-0.452068	0.008562	-0.873269
48771		8.926920	-1.054362	7.294888	-0.385698	0.020935	0.396009	-0.857666	-0.342041	0.083252	-0.178177	-0.451184	0.012661	-0.874372
48772		9.295774	-1.269115	7.302494	-0.409164	0.046504	0.453138	-0.845459	-0.328857	0.090820	-0.172935	-0.450127	0.016457	-0.875904
48773		9.180518	-1.302990	7.260777	-0.416181	0.062143	0.490848	-0.852539	-0.316406	0.073975	-0.169128	-0.449032	0.020928	-0.877113
48774		9.055774	-1.215287	7.395227	-0.475795	0.035442	0.583549	-0.847900	-0.313721	0.087646	-0.166179	-0.447781	0.027290	-0.878141
48775		9.418481	-1.082671	7.680020	-0.536124	0.042958	0.692920	-0.855469	-0.302490	0.077637	-0.162507	-0.446372	0.034422	-0.879294
48776		9.795203	-1.160709	7.713999	-0.532712	0.128800	0.742770	-0.843994	-0.292480	0.077637	-0.158673	-0.444227	0.041812	-0.880759
48777		9.709244	-1.123755	7.611156	-0.524290	0.214185	0.786011	-0.846191	-0.278320	0.072266	-0.154566	-0.441419	0.049205	-0.882518
48778		9.604059	-1.340870	7.484815	-0.530974	0.242198	0.866374	-0.854248	-0.270508	0.066406	-0.149852	-0.438325	0.056888	-0.884409
48779		9.881596	-1.566000	7.476079	-0.485719	0.263973	0.894400	-0.856934	-0.249756	0.063232	-0.144760	-0.435076	0.064299	-0.886352
48780		10.231840	-1.588690	7.447096	-0.463544	0.308171	0.935984	-0.852539	-0.235352	0.047363	-0.139296	-0.431472	0.071633	-0.888424
48781		10.227946	-1.727274	7.280534	-0.468532	0.365493	1.019199	-0.846436	-0.226562	0.053467	-0.133262	-0.427355	0.079221	-0.890692
48782		10.051535	-1.758513	7.242104	-0.479348	0.388277	1.145190	-0.849854	-0.194824	0.053711	-0.126337	-0.422938	0.087291	-0.893053
48783		10.313028	-1.698340	7.369189	-0.453437	0.420540	1.289529	-0.848389	-0.177734	0.042236	-0.118260	-0.418154	0.095614	-0.895555
48784		10.030006	-1.623648	7.471595	-0.331668	0.473616	1.362714	-0.841064	-0.154297	0.046387	-0.109250	-0.412983	0.103194	-0.898254
48785		9.557385	-1.243496	7.549244	-0.260277	0.480780	1.415377	-0.833496	-0.140381	0.029541	-0.099606	-0.407717	0.110367	-0.900924
48786		9.431847	-0.751080	7.706457	-0.281351	0.469285	1.421255	-0.828369	-0.103760	0.029053	-0.089983	-0.402449	0.117668	-0.903378
48787		9.250452	-0.232191	7.741799	-0.416712	0.453319	1.376641	-0.814453	-0.084961	0.028564	-0.081145	-0.397181	0.125776	-0.905452
48788		8.894226	0.016612	7.604248	-0.610593	0.432688	1.325946	-0.815186	-0.067627	0.024414	-0.073325	-0.391933	0.135105	-0.907060
48789		8.368673	-0.414993	7.514722	-0.701943	0.384656	1.221057	-0.801758	-0.039551	0.024170	-0.066560	-0.387057	0.144719	-0.908192
48790		8.285275	-0.666682	7.632402	-0.695944	0.336943	1.099170	-0.788330	-0.021973	0.018799	-0.060656	-0.382645	0.153837	-0.908976
48791		8.553853	-1.145687	7.790183	-0.689867	0.342042	1.012574	-0.782471	0.000488	0.013428	-0.055409	-0.378269	0.162553	-0.909626
48792		8.774411	-1.889458	7.713359	-0.659176	0.396368	0.983419	-0.767822	0.012695	0.020020	-0.050374	-0.373502	0.170848	-0.910368
48793		8.596669	-2.602939	7.518314	-0.569215	0.445791	1.012191	-0.757324	0.023926	0.018311	-0.044923	-0.368327	0.178470	-0.911299
48794		8.292506	-2.979503	7.485259	-0.464626	0.440646	1.071207	-0.752441	0.038818	0.017578	-0.038703	-0.363115	0.185434	-0.912285
48795		8.313603	-2.552746	7.809080	-0.460644	0.420832	1.151211	-0.737549	0.054688	0.016357	-0.031839	-0.357899	0.192571	-0.913133
48796		8.528349	-2.308913	7.976294	-0.547501	0.496269	1.280540	-0.723633	0.077148	0.014893	-0.024380	-0.351837	0.200674	-0.913973
48797		8.297364	-2.346711	7.687526	-0.537739	0.629337	1.364381	-0.716553	0.083252	0.015625	-0.016490	-0.344578	0.208848	-0.915083
48798		7.591313	-2.095444	7.240816	-0.453635	0.684319	1.375715	-0.698242	0.102295	0.015381	-0.008381	-0.336845	0.216329	-0.916333
48799		7.307779	-1.388272	6.969005	-0.479788	0.672189	1.401247	-0.685303	0.123047	0.017822	-0.000143	-0.329109	0.224004	-0.917338
48800		7.207481	-1.002736	6.712244	-0.555952	0.685947	1.417934	-0.673584	0.139893	0.013672	0.007970	-0.321192	0.232217	-0.918067
48801		7.012758	-0.704302	6.195395	-0.567755	0.737134	1.393971	-0.665283	0.155518	0.010498	0.015749	-0.312890	0.240364	-0.918737
48802		6.409238	-0.712237	5.511468	-0.543683	0.755048	1.357543	-0.653564	0.175781	0.010498	0.023255	-0.304487	0.248137	-0.919334
48803		5.792345	-0.457235	5.059412	-0.490671	0.673237	1.316180	-0.637695	0.186768	0.001465	0.030726	-0.296760	0.255296	-0.919681
48804		5.594159	-0.268967	4.880745	-0.449793	0.586340	1.283243	-0.628906	0.207275	0.003906	0.038211	-0.289735	0.261957	-0.919767
48805		5.219819	0.148713	4.794084	-0.407329	0.524915	1.193623	-0.620850	0.217285	0.003174	0.045227	-0.283349	0.267980	-0.919703
48806		4.664890	0.344798	4.743803	-0.415386	0.455726	1.093963	-0.609131	0.234131	0.000000	0.051596	-0.277708	0.273730	-0.919396
48807		4.553205	0.430279	4.773139	-0.414052	0.401500	0.992214	-0.597656	0.253906	0.000977	0.057297	-0.272704	0.279142	-0.918928
48808		4.403612	0.184488	4.641009	-0.346512	0.394850	0.861466	-0.595947	0.251953	-0.006104	0.062151	-0.268018	0.283674	-0.918604
48809		4.096429	0.020040	4.383322	-0.239752	0.377956	0.707290	-0.587891	0.261475	-0.000488	0.066093	-0.263770	0.286984	-0.918530
48810		3.647890	-0.018080	4.291196	-0.207440	0.284415	0.588146	-0.576172	0.268311	-0.008057	0.069409	-0.260509	0.289692	-0.918366
48811		3.554729	-0.039652	4.472528	-0.226086	0.178895	0.487798	-0.572266	0.270996	-0.002197	0.072165	-0.258310	0.292231	-0.917970
48812		3.723703	-0.486270	4.672730	-0.208371	0.149224	0.395969	-0.569580	0.286621	-0.008789	0.074325	-0.256554	0.294388	-0.917601
48813		3.494140	-0.871246	4.593346	-0.109875	0.132424	0.264139	-0.562012	0.281494	-0.011963	0.075725	-0.255192	0.295474	-0.917517
48814		3.581604	-0.742277	4.625989	-0.109865	0.080569	0.190249	-0.560303	0.280029	-0.001709	0.076685	-0.254410	0.296352	-0.917371
48815		3.435307	-0.236929	4.560009	-0.251838	0.055313	0.231482	-0.560303	0.290283	-0.005615	0.077720	-0.253814	0.298369	-0.916796
48816		3.914775	-0.392439	4.296516	-0.264290	0.119909	0.281514	-0.565430	0.295898	-0.004883	0.078947	-0.252610	0.300605	-0.916293
48817		3.747893	-0.096688	3.670752	-0.053668	0.230581	0.221299	-0.553955	0.292236	-0.003174	0.079876	-0.250580	0.301159	-0.916588
48818		3.299192	0.398258	3.184434	0.074986	0.226048	0.242720	-0.556396	0.295654	-0.017334	0.081247	-0.248454	0.300754	-0.917178
48819		3.509494	0.623948	2.961537	0.203617	0.168698	0.194518	-0.553955	0.297363	-0.014893	0.082657	-0.246808	0.299211	-0.918001
48820		3.352211	0.946737	2.793795	0.324817	0.085447	0.001274	-0.549805	0.297607	-0.013916	0.083043	-0.246208	0.296267	-0.919082
48821		2.818648	1.173726	2.916502	0.344231	-0.106145	-0.241289	-0.552979	0.289062	-0.017578	0.082079	-0.247667	0.292523	-0.919975
48822		2.758224	1.278603	3.509882	0.259534	-0.358429	-0.438753	-0.552490	0.279785	-0.015625	0.080037	-0.251597	0.288825	-0.920257
48823		3.094517	0.895874	4.501808	0.228903	-0.515860	-0.589499	-0.563232	0.283203	-0.009033	0.077146	-0.257106	0.284909	-0.920202
48824		3.821047	0.579664	5.378583	0.320980	-0.519475	-0.749519	-0.575928	0.266602	-0.009277	0.073224	-0.262943	0.279901	-0.920410
48825		4.158936	0.078804	5.686407	0.457536	-0.445821	-0.953875	-0.576660	0.259277	-0.012939	0.067850	-0.268582	0.273394	-0.921149
48826		4.197531	0.062808	5.789748	0.449070	-0.439617	-1.019354	-0.587646	0.245850	-0.008301	0.061930	-0.274293	0.266759	-0.921828
48827		4.573542	-0.299567	6.128009	0.386041	-0.450109	-0.931654	-0.603027	0.231934	-0.003906	0.056551	-0.279887	0.260756	-0.922210
48828		5.012580	-0.916648	6.291724	0.553453	-0.377489	-0.922457	-0.608887	0.226807	-0.010498	0.051465	-0.284792	0.253480	-0.923035
48829		4.833852	-0.841025	6.427779	0.826680	-0.343364	-1.027870	-0.612549	0.210205	-0.015869	0.046138	-0.289498	0.243830	-0.924451
48830		5.008444	-0.510882	6.737701	0.900555	-0.410179	-1.123778	-0.620117	0.197754	-0.023682	0.040381	-0.294825	0.233326	-0.925746
48831		5.816074	-0.516595	7.200016	0.833465	-0.448370	-1.218815	-0.637451	0.178955	-0.024658	0.033798	-0.300585	0.223071	-0.926686
48832		6.458506	-1.208134	7.214406	0.788099	-0.414652	-1.359403	-0.650635	0.171631	-0.027100	0.025952	-0.306282	0.212807	-0.927486
48833		6.438441	-1.678449	7.059681	0.742672	-0.447974	-1.445365	-0.658447	0.145508	-0.025391	0.017384	-0.312319	0.202661	-0.927946
48834		6.507391	-2.038803	7.235936	0.683544	-0.562757	-1.422259	-0.671143	0.123047	-0.023682	0.009038	-0.319128	0.193021	-0.927803
48835		6.948316	-2.018602	7.803409	0.616868	-0.633579	-1.321602	-0.680420	0.101562	-0.024658	0.001411	-0.326246	0.184169	-0.927170
48836		7.700363	-2.273649	8.373904	0.672389	-0.564563	-1.294868	-0.695068	0.084229	-0.017334	-0.005957	-0.332711	0.174975	-0.926635
48837		7.715637	-2.537495	8.528408	0.788754	-0.458307	-1.326706	-0.709717	0.073242	-0.027100	-0.013394	-0.338331	0.164801	-0.926387
48838		7.399329	-2.367432	8.590164	0.799255	-0.427079	-1.265946	-0.717773	0.056396	-0.023926	-0.020365	-0.343550	0.154727	-0.926077
48839		7.639535	-2.300508	8.902178	0.726393	-0.416866	-1.127463	-0.727783	0.040283	-0.021973	-0.026477	-0.348430	0.145623	-0.925575
48840		8.397832	-2.602433	8.951019	0.762495	-0.291975	-1.074278	-0.743652	0.021484	-0.040527	-0.032215	-0.352230	0.136382	-0.925363
48841		8.189311	-2.627575	8.557899	0.837540	-0.157592	-1.042071	-0.748291	0.009277	-0.035645	-0.037625	-0.354921	0.126636	-0.925515
48842		7.709331	-2.361911	8.231570	0.784326	-0.165675	-0.928025	-0.762451	-0.015625	-0.034424	-0.042293	-0.357487	0.117656	-0.925511
48843		7.811540	-2.208653	8.457268	0.753310	-0.219410	-0.809398	-0.761719	-0.023682	-0.044678	-0.046076	-0.360298	0.109301	-0.925265
48844		8.297985	-1.993631	8.778279	0.862466	-0.149929	-0.764226	-0.770996	-0.052002	-0.036865	-0.049237	-0.362535	0.100227	-0.925256
48845		8.549958	-1.562642	8.814702	0.948456	-0.007832	-0.763057	-0.779785	-0.049316	-0.053955	-0.052238	-0.363669	0.090444	-0.925654
48846		8.166184	-1.572129	8.635867	0.806152	0.089356	-0.706381	-0.779541	-0.071777	-0.058105	-0.055297	-0.363911	0.081895	-0.926177
48847		7.796656	-1.764355	8.265770	0.621844	0.072942	-0.636432	-0.787109	-0.083008	-0.059814	-0.058356	-0.364118	0.074997	-0.926492
48848		7.925319	-1.814479	7.994823	0.522175	0.029721	-0.548773	-0.791992	-0.092529	-0.062988	-0.061009	-0.364535	0.069166	-0.926611
48849		8.362868	-1.773644	7.911273	0.585502	0.027870	-0.497436	-0.800049	-0.111084	-0.064941	-0.063066	-0.364952	0.063013	-0.926748
48850		8.297091	-1.576604	7.610684	0.697512	0.067042	-0.454380	-0.798340	-0.119629	-0.070068	-0.064465	-0.365086	0.056114	-0.927042
48851		7.790718	-1.487826	7.300802	0.806191	0.052432	-0.450780	-0.802490	-0.126953	-0.074951	-0.065493	-0.365370	0.048402	-0.927293
48852		7.352426	-0.915109	7.295948	0.819626	-0.050934	-0.476803	-0.806396	-0.145264	-0.071289	-0.066635	-0.366448	0.040569	-0.927162
48853		7.283569	-0.251367	7.527745	0.673310	-0.184054	-0.477090	-0.821289	-0.150635	-0.060547	-0.068175	-0.368451	0.033944	-0.926522
48854		7.640602	0.073819	7.826536	0.516238	-0.255864	-0.519703	-0.818848	-0.158691	-0.067871	-0.070502	-0.370913	0.028444	-0.925551
48855		7.830466	0.451002	7.836560	0.391985	-0.269842	-0.583096	-0.817139	-0.178955	-0.067383	-0.073695	-0.373409	0.023717	-0.924431
48856		7.652795	0.135394	7.566502	0.341700	-0.266620	-0.628451	-0.821533	-0.191650	-0.065918	-0.077391	-0.375842	0.019235	-0.923246
48857		7.348197	-0.476445	7.530403	0.467656	-0.293913	-0.694899	-0.828369	-0.201172	-0.057617	-0.081196	-0.378558	0.013595	-0.921909
48858		7.345273	-0.305953	7.745410	0.582595	-0.326792	-0.716601	-0.822266	-0.215820	-0.058105	-0.084795	-0.381583	0.007030	-0.920410
48859		7.792226	0.041615	8.177914	0.538017	-0.340795	-0.722278	-0.827637	-0.231201	-0.045654	-0.088572	-0.384657	0.000803	-0.918800
48860		8.146526	0.306408	8.230806	0.372646	-0.315835	-0.719522	-0.833008	-0.248535	-0.049316	-0.092853	-0.387394	-0.004165	-0.917217
48861		7.928673	0.475119	7.903428	0.158397	-0.293806	-0.692813	-0.833984	-0.253906	-0.042725	-0.097615	-0.389778	-0.007424	-0.915691
48862		7.628473	0.111557	7.590918	0.056289	-0.297746	-0.618634	-0.828613	-0.259766	-0.036621	-0.102139	-0.392099	-0.009656	-0.914184
48863		7.458567	-0.288902	7.528913	0.200203	-0.289526	-0.569280	-0.829346	-0.267334	-0.042725	-0.105813	-0.394470	-0.012828	-0.912706
48864		7.588699	-0.226518	7.682223	0.459725	-0.242939	-0.565259	-0.827393	-0.284424	-0.032715	-0.108594	-0.396701	-0.017996	-0.911324
48865		7.644976	0.361621	7.742915	0.503757	-0.193010	-0.499338	-0.833984	-0.295654	-0.034424	-0.110716	-0.398586	-0.023322	-0.910125
48866		7.872677	0.823326	7.741665	0.372133	-0.151083	-0.393499	-0.826904	-0.295898	-0.027832	-0.112461	-0.400039	-0.027333	-0.909161
48867		7.711530	0.889328	7.572266	0.284350	-0.106881	-0.323554	-0.829346	-0.304932	-0.021973	-0.113956	-0.401083	-0.030485	-0.908415
48868		7.371481	0.925225	7.388420	0.296439	-0.095210	-0.311577	-0.833740	-0.307861	-0.025635	-0.115315	-0.402047	-0.033698	-0.907703
48869		7.322605	0.652342	7.251183	0.361582	-0.103236	-0.348175	-0.831787	-0.309326	-0.040283	-0.116733	-0.403117	-0.037517	-0.906897
48870		7.382595	0.774487	7.189106	0.393758	-0.130494	-0.399135	-0.841553	-0.321777	-0.019531	-0.118434	-0.404400	-0.041720	-0.905921
48871		7.482895	0.740546	7.202678	0.319102	-0.167242	-0.372894	-0.833008	-0.321045	-0.024170	-0.120198	-0.405886	-0.045232	-0.904855
48872		7.508436	0.605900	7.257872	0.269771	-0.180417	-0.283202	-0.828369	-0.330811	-0.024658	-0.121455	-0.407450	-0.048052	-0.903839
48873		7.601328	0.591114	7.478734	0.323725	-0.150849	-0.214277	-0.835693	-0.336670	-0.020752	-0.121997	-0.408867	-0.051072	-0.902960
48874		7.432051	0.839440	7.501853	0.407149	-0.099084	-0.159272	-0.832764	-0.331787	-0.021973	-0.121816	-0.409997	-0.054580	-0.902266
48875		7.173272	1.103869	7.634334	0.437847	-0.090153	-0.116622	-0.833740	-0.340088	-0.014404	-0.121204	-0.411103	-0.058179	-0.901620
48876		7.079570	1.484367	7.738909	0.407582	-0.091866	-0.109069	-0.833496	-0.346191	-0.026367	-0.120637	-0.412188	-0.061521	-0.900979
48877		7.099638	1.701372	7.788517	0.341272	-0.076122	-0.134217	-0.836426	-0.344971	-0.017334	-0.120478	-0.413068	-0.064465	-0.900391
48878		7.161197	1.616782	7.551370	0.276608	-0.049302	-0.173995	-0.840332	-0.346191	-0.024902	-0.120824	-0.413656	-0.067087	-0.899883
48879		7.266041	1.408948	7.196731	0.237944	-0.032262	-0.201460	-0.831055	-0.350098	-0.010742	-0.121499	-0.414057	-0.069529	-0.899422
48880		7.204700	1.206080	6.910513	0.214929	-0.039007	-0.163849	-0.838623	-0.365723	-0.012695	-0.121974	-0.414504	-0.071660	-0.898985
48881		7.348264	0.990003	6.879215	0.261733	-0.047398	-0.108828	-0.839355	-0.361328	-0.017090	-0.121879	-0.415091	-0.073940	-0.898542
48882		7.437328	1.145689	6.938157	0.334715	-0.029891	-0.062138	-0.835938	-0.359375	-0.014893	-0.121171	-0.415647	-0.076620	-0.898156
48883		7.291164	1.522060	6.917750	0.327632	-0.022559	-0.024747	-0.845947	-0.361328	-0.018799	-0.120201	-0.416161	-0.079120	-0.897832
48884		7.354921	1.737471	6.900354	0.265387	-0.021808	-0.004678	-0.840576	-0.364502	-0.015869	-0.119296	-0.416618	-0.081084	-0.897565
48885		7.417646	1.807671	6.727752	0.210276	-0.012654	-0.021332	-0.833008	-0.367676	-0.019287	-0.118700	-0.416938	-0.082701	-0.897348
48886		7.210632	1.883663	6.538267	0.144880	-0.033427	-0.019420	-0.835938	-0.366943	-0.012939	-0.118330	-0.417348	-0.083800	-0.897104
48887		7.025718	1.886283	6.553335	0.103451	-0.077478	-0.006117	-0.838135	-0.367188	-0.016846	-0.118036	-0.418056	-0.084498	-0.896748
48888		7.040400	1.972152	6.748517	0.110204	-0.109448	-0.001665	-0.835205	-0.372070	-0.008789	-0.117707	-0.419011	-0.085198	-0.896279
48889		6.948936	2.095255	7.033476	0.127519	-0.114282	-0.007012	-0.841064	-0.361328	-0.013916	-0.117360	-0.420014	-0.086040	-0.895774
48890		6.965272	2.141748	7.265914	0.138163	-0.090864	-0.022641	-0.834717	-0.372070	-0.010498	-0.117076	-0.420839	-0.087039	-0.895328
48891		7.067176	2.116258	7.321438	0.123604	-0.044766	-0.041663	-0.836670	-0.370850	-0.012695	-0.116951	-0.421290	-0.088040	-0.895034
48892		7.185678	1.986361	7.185942	0.090407	0.003672	-0.050711	-0.838379	-0.380859	-0.010986	-0.116975	-0.421338	-0.088871	-0.894926
48893		7.157546	1.804626	6.885491	0.040887	0.024002	-0.026717	-0.842285	-0.375732	-0.012695	-0.116978	-0.421202	-0.089266	-0.894951
48894		7.182261	1.646415	6.681974	0.026257	0.026659	0.003554	-0.838867	-0.372070	-0.017334	-0.116804	-0.421053	-0.089447	-0.895025
48895		7.053645	1.688056	6.648054	0.037538	0.011500	0.044977	-0.840576	-0.367188	-0.013428	-0.116293	-0.421059	-0.089550	-0.895079
48896		7.134115	1.859447	6.764296	0.053747	0.005878	0.086867	-0.837646	-0.366699	-0.013184	-0.115417	-0.421153	-0.089619	-0.895141
48897		7.138562	2.079091	6.857185	0.064830	0.031760	0.116844	-0.838135	-0.371338	-0.020508	-0.114258	-0.421085	-0.089688	-0.895315
48898		7.093526	2.166980	6.826511	0.076438	0.057551	0.130568	-0.837402	-0.366943	-0.014404	-0.112937	-0.420844	-0.089818	-0.895583
48899		7.090499	2.302155	6.734910	0.071881	0.073887	0.133504	-0.841064	-0.371338	-0.020264	-0.111597	-0.420477	-0.089919	-0.895913
48900		7.001970	2.440436	6.606645	0.028450	0.071036	0.127837	-0.835449	-0.361816	-0.015625	-0.110453	-0.420085	-0.089712	-0.896259
48901		7.058916	2.504692	6.516693	-0.022749	0.057685	0.118905	-0.840088	-0.364258	-0.012939	-0.109566	-0.419737	-0.089142	-0.896588
48902		7.138465	2.437444	6.398140	-0.052914	0.059510	0.118921	-0.843018	-0.368164	-0.023193	-0.108782	-0.419347	-0.088348	-0.896945
48903		7.230945	2.400412	6.290125	-0.044493	0.065658	0.126531	-0.839600	-0.364502	-0.020508	-0.107907	-0.418922	-0.087596	-0.897322
48904		7.241925	2.436426	6.186116	-0.015597	0.069041	0.146381	-0.839355	-0.356689	-0.024170	-0.106780	-0.418513	-0.086994	-0.897707
48905		7.308756	2.519488	6.029281	0.006150	0.073720	0.161398	-0.835693	-0.357178	-0.017822	-0.105462	-0.418097	-0.086506	-0.898103
48906		7.253625	2.666478	5.917782	0.003323	0.062852	0.175847	-0.838135	-0.349609	-0.010010	-0.104052	-0.417771	-0.085938	-0.898474
48907		7.188994	2.767427	5.834905	-0.014559	0.046977	0.179401	-0.838623	-0.344238	-0.024902	-0.102690	-0.417550	-0.085210	-0.898803
48908		7.115403	2.857180	5.823387	-0.029261	0.022834	0.168297	-0.844971	-0.346924	-0.019043	-0.101479	-0.417489	-0.084392	-0.899046
48909		7.104489	2.823790	5.800871	-0.022625	-0.001139	0.151175	-0.839844	-0.344971	-0.023438	-0.100389	-0.417601	-0.083665	-0.899184
48910		6.996306	2.885287	5.860415	-0.010554	-0.029135	0.119798	-0.843262	-0.339355	-0.020996	-0.099513	-0.417911	-0.083116	-0.899188
48911		6.886018	2.998809	6.008003	-0.020460	-0.061675	0.098304	-0.837891	-0.339111	-0.020508	-0.098854	-0.418441	-0.082543	-0.899067
48912		6.775371	3.073659	6.174179	-0.043300	-0.080328	0.093511	-0.838379	-0.341064	-0.017578	-0.098324	-0.419089	-0.081803	-0.898891
48913		6.794649	3.024737	6.428236	-0.027031	-0.063249	0.083773	-0.841064	-0.340332	-0.024414	-0.097798	-0.419613	-0.081237	-0.898755
48914		6.773567	3.080759	6.542663	0.010426	-0.029633	0.056954	-0.843506	-0.334717	-0.017822	-0.097320	-0.419897	-0.081076	-0.898689
48915		6.848335	3.142313	6.537008	0.024473	0.002054	0.030659	-0.834717	-0.337891	-0.022949	-0.096968	-0.419935	-0.081141	-0.898703
48916		6.860380	3.059351	6.412922	0.004401	0.017972	-0.003102	-0.844482	-0.338379	-0.011475	-0.096929	-0.419814	-0.081190	-0.898760
48917		6.909300	2.795350	6.297125	-0.022897	0.014374	-0.033831	-0.839355	-0.340576	-0.013916	-0.097218	-0.419675	-0.081144	-0.898798
48918		7.056732	2.561421	6.209626	-0.036139	0.003098	-0.051661	-0.839355	-0.334229	-0.017578	-0.097694	-0.419596	-0.081053	-0.898791
48919		7.230389	2.219630	6.085523	-0.030514	-0.005884	-0.051844	-0.842773	-0.337646	-0.015137	-0.098159	-0.419589	-0.081000	-0.898748
48920		7.381759	1.924562	6.049644	-0.005211	-0.023768	-0.067043	-0.849365	-0.344482	-0.020020	-0.098660	-0.419727	-0.081175	-0.898613
48921		7.499998	1.695462	6.031272	-0.003511	-0.056504	-0.063706	-0.834717	-0.335693	-0.015381	-0.099153	-0.420114	-0.081322	-0.898365
48922		7.562862	1.570939	6.120389	-0.023583	-0.098159	-0.035566	-0.836426	-0.345947	-0.014893	-0.099534	-0.420816	-0.081184	-0.898007
48923		7.552853	1.489185	6.288930	-0.063170	-0.129490	-0.009885	-0.839600	-0.342285	-0.010498	-0.099881	-0.421738	-0.080630	-0.897585
48924		7.498390	1.374722	6.501834	-0.091054	-0.159168	-0.006843	-0.842529	-0.341553	-0.011230	-0.100324	-0.422861	-0.079829	-0.897079
48925		7.432122	1.324081	6.734752	-0.120242	-0.179951	-0.005364	-0.841309	-0.338379	-0.018066	-0.100871	-0.424115	-0.078783	-0.896518
48926		7.439408	1.286161	6.959317	-0.156313	-0.186025	0.017018	-0.845947	-0.339355	-0.005615	-0.101382	-0.425396	-0.077379	-0.895976
48927		7.469905	1.244404	7.141372	-0.180042	-0.174466	0.043171	-0.836426	-0.346191	0.001221	-0.101772	-0.426584	-0.075711	-0.895509
48928		7.389772	1.226775	7.210227	-0.191471	-0.144199	0.067611	-0.841553	-0.338623	-0.001953	-0.102001	-0.427549	-0.073891	-0.895175
48929		7.325808	1.216029	7.307409	-0.209556	-0.129202	0.081896	-0.841553	-0.334473	0.001953	-0.102178	-0.428391	-0.071894	-0.894915
48930		7.305905	1.145434	7.373853	-0.222179	-0.120610	0.063584	-0.853271	-0.334961	0.003906	-0.102529	-0.429142	-0.069871	-0.894675
48931		7.247487	0.862503	7.391200	-0.248448	-0.122007	0.019799	-0.844238	-0.331055	0.010498	-0.103300	-0.429851	-0.067803	-0.894405
48932		7.395307	0.507173	7.477798	-0.272329	-0.144358	-0.044625	-0.840576	-0.322754	0.010010	-0.104648	-0.430664	-0.065762	-0.894009
48933		7.831321	0.102572	7.612284	-0.299710	-0.155127	-0.076609	-0.845703	-0.342041	0.018311	-0.106337	-0.431510	-0.063616	-0.893557
48934		8.423579	-0.422293	7.601359	-0.312323	-0.123448	-0.084713	-0.841064	-0.331055	0.014404	-0.108112	-0.432098	-0.061424	-0.893213
48935		8.640610	-0.844445	7.506092	-0.334955	-0.088471	-0.026129	-0.844238	-0.325928	0.016113	-0.109513	-0.432432	-0.058871	-0.893053
48936		8.679559	-1.077177	7.474638	-0.384508	-0.081755	0.124492	-0.838623	-0.326660	0.016602	-0.109964	-0.432739	-0.055398	-0.893071
48937		8.857324	-1.292316	7.727050	-0.414906	-0.075740	0.314829	-0.836914	-0.320312	0.021729	-0.109103	-0.433054	-0.051003	-0.893286
48938		9.132756	-1.287061	7.972414	-0.385294	-0.021175	0.478515	-0.840332	-0.318604	0.021973	-0.106888	-0.433049	-0.046270	-0.893814
48939		9.049304	-1.140001	8.115415	-0.356218	0.057444	0.615672	-0.843994	-0.299316	0.028320	-0.103511	-0.432521	-0.041312	-0.894709
48940		8.852052	-0.929721	8.184577	-0.352316	0.096489	0.713560	-0.837402	-0.290771	0.025879	-0.099370	-0.431719	-0.036049	-0.895793
48941		8.886020	-0.725753	8.274424	-0.400536	0.119723	0.765888	-0.843994	-0.278076	0.020264	-0.094999	-0.430694	-0.030244	-0.896974
48942		8.913900	-0.674745	8.304375	-0.482006	0.154534	0.818059	-0.827393	-0.267822	0.014160	-0.090514	-0.429328	-0.023658	-0.898290
48943		8.796732	-0.790679	8.258437	-0.522425	0.185213	0.882596	-0.840332	-0.255859	0.015869	-0.085677	-0.427680	-0.016551	-0.899709
48944		8.662440	-0.760512	8.295494	-0.528758	0.201545	0.966671	-0.836426	-0.239990	0.022705	-0.080221	-0.425876	-0.009099	-0.901172
48945		8.723722	-0.604309	8.325084	-0.502552	0.223859	0.973302	-0.835205	-0.225586	0.017090	-0.074612	-0.423880	-0.001827	-0.902638
48946		8.753949	-0.408930	8.394506	-0.561876	0.233823	0.980362	-0.830566	-0.204102	0.015137	-0.069151	-0.421729	0.005916	-0.904062
48947		8.837004	-0.741695	8.364794	-0.629034	0.251883	0.998267	-0.825928	-0.190674	0.009766	-0.063785	-0.419354	0.014219	-0.905467
48948		8.755145	-0.962722	8.388418	-0.640191	0.256886	1.019961	-0.830566	-0.170166	0.008057	-0.058286	-0.416885	0.022683	-0.906805
48949		8.719457	-1.104456	8.545963	-0.633274	0.253467	1.072454	-0.824707	-0.153320	0.002441	-0.052358	-0.414384	0.031279	-0.908056
48950		8.761040	-1.003146	8.802452	-0.617150	0.270172	1.112619	-0.819092	-0.142578	0.000732	-0.046068	-0.411699	0.039883	-0.909281
48951		8.714981	-0.611698	8.978523	-0.662440	0.314678	1.184465	-0.817627	-0.116455	-0.000244	-0.039396	-0.408576	0.049056	-0.910553
48952		8.642483	-0.544525	9.029117	-0.699305	0.383455	1.238965	-0.794678	-0.086670	-0.004395	-0.032458	-0.404831	0.058662	-0.911930
48953		8.441748	-0.443304	8.994341	-0.671398	0.452992	1.232878	-0.799561	-0.071289	-0.000977	-0.025500	-0.400500	0.068003	-0.913414
48954		8.285944	-0.393882	9.024627	-0.637989	0.509004	1.242617	-0.784180	-0.041748	-0.014893	-0.018383	-0.395676	0.077093	-0.914964
48955		8.345977	-0.405733	8.913830	-0.605327	0.587369	1.256225	-0.777100	-0.033447	-0.016357	-0.011102	-0.390181	0.085946	-0.916651
48956		8.342717	-0.375576	8.724593	-0.579599	0.676370	1.278168	-0.772217	-0.015625	-0.024658	-0.003631	-0.383924	0.094642	-0.918495
48957		8.160558	-0.333922	8.300093	-0.547848	0.747506	1.299134	-0.750488	0.011475	-0.033691	0.004046	-0.377035	0.103133	-0.920430
48958		7.994441	-0.106822	7.887823	-0.531287	0.776004	1.296295	-0.739502	0.037109	-0.042236	0.011727	-0.369859	0.111458	-0.922304
48959		7.751361	0.006104	7.449695	-0.551613	0.762613	1.268405	-0.735840	0.042725	-0.050537	0.019141	-0.362747	0.119819	-0.923954
48960		7.391301	0.003919	7.208302	-0.576775	0.704188	1.196913	-0.719727	0.068115	-0.043701	0.025983	-0.356100	0.128113	-0.925259
48961		7.405179	-0.065984	7.219302	-0.605073	0.633822	1.105607	-0.708008	0.079590	-0.052002	0.032109	-0.350049	0.136306	-0.926205
48962		7.471949	-0.069668	7.179254	-0.653289	0.607342	1.039958	-0.693604	0.099365	-0.052490	0.037612	-0.344244	0.144638	-0.926910
48963		7.271376	-0.422750	6.840265	-0.705224	0.592742	1.022518	-0.686523	0.113770	-0.052734	0.042844	-0.338547	0.153282	-0.927392
48964		6.835756	-0.817012	6.618252	-0.643765	0.529366	0.961804	-0.671631	0.120361	-0.054443	0.047856	-0.333358	0.161224	-0.927679
48965		6.687087	-0.836599	6.696531	-0.593010	0.437356	0.889885	-0.664062	0.130127	-0.058838	0.052571	-0.328927	0.168507	-0.927711
48966		6.697873	-0.890970	6.890775	-0.628547	0.374600	0.823841	-0.651367	0.146240	-0.049072	0.056762	-0.325065	0.175829	-0.927467
48967		6.482287	-1.380758	7.010231	-0.683801	0.342054	0.790198	-0.639893	0.152832	-0.050537	0.060587	-0.321507	0.183442	-0.926991
48968		6.252615	-2.116669	7.147974	-0.629551	0.312337	0.743029	-0.636719	0.160889	-0.054688	0.064233	-0.318202	0.190468	-0.926469
48969		6.081005	-2.410099	7.365698	-0.533973	0.274282	0.680178	-0.631836	0.171387	-0.045898	0.067704	-0.315221	0.196547	-0.925970
48970		6.262190	-2.528726	7.640843	-0.524155	0.269371	0.660032	-0.623047	0.184814	-0.048096	0.071051	-0.312291	0.202475	-0.925435
48971		6.426752	-2.703521	7.724364	-0.563960	0.315174	0.656364	-0.622070	0.193359	-0.051514	0.074185	-0.309022	0.208706	-0.924902
48972		6.482194	-3.195173	7.423364	-0.581906	0.359607	0.636691	-0.609375	0.203125	-0.042480	0.077040	-0.305441	0.215030	-0.924409
48973		6.341694	-3.563382	7.006724	-0.608584	0.356871	0.657611	-0.601562	0.203857	-0.053223	0.079989	-0.301845	0.221591	-0.923790
48974		6.193649	-3.830172	6.800124	-0.639991	0.318064	0.759576	-0.592529	0.219727	-0.039062	0.083709	-0.298365	0.228603	-0.922882
48975		5.999908	-3.961087	6.798574	-0.593813	0.266769	0.810321	-0.586426	0.228760	-0.047363	0.088025	-0.295134	0.235328	-0.921829
48976		5.721512	-3.859580	6.991727	-0.544318	0.197179	0.784555	-0.591064	0.249268	-0.038574	0.092395	-0.292435	0.241539	-0.920654
48977		5.233860	-3.739511	7.464135	-0.563551	0.104505	0.748294	-0.576416	0.249023	-0.039795	0.096620	-0.290520	0.247716	-0.919184
48978		5.301945	-3.743768	7.976668	-0.624560	0.080046	0.784649	-0.568115	0.253662	-0.032471	0.101021	-0.288750	0.254406	-0.917440
48979		5.700774	-3.610019	8.051700	-0.631619	0.203405	0.853901	-0.563721	0.267334	-0.027100	0.105667	-0.285875	0.261391	-0.915852
48980		5.648035	-3.508143	7.390638	-0.591763	0.399792	0.920144	-0.550049	0.280518	-0.035889	0.110478	-0.281301	0.268368	-0.914682
48981		5.107765	-3.181962	6.441119	-0.529609	0.511698	0.989800	-0.544922	0.290283	-0.027832	0.115705	-0.275637	0.275100	-0.913760
48982		4.539148	-2.736997	5.555971	-0.490208	0.527060	1.103147	-0.537598	0.309570	-0.035156	0.121837	-0.269533	0.281767	-0.912751
48983		4.251328	-1.971773	4.980649	-0.427261	0.515424	1.174886	-0.530762	0.324707	-0.034912	0.128670	-0.263258	0.288060	-0.911680
48984		3.684824	-1.059267	4.565634	-0.397494	0.492957	1.179635	-0.507568	0.331543	-0.045654	0.135642	-0.257085	0.294067	-0.910513
48985		3.155249	-0.544504	4.332563	-0.382187	0.459699	1.128150	-0.492188	0.341309	-0.035156	0.142324	-0.251249	0.299762	-0.909264
48986		2.658512	-0.249641	4.083181	-0.303691	0.403372	0.990197	-0.489746	0.350586	-0.037354	0.148253	-0.246073	0.304463	-0.908169
48987		2.243146	-0.111308	3.957025	-0.187331	0.323430	0.804120	-0.468262	0.357422	-0.036865	0.153206	-0.241818	0.307768	-0.907376
48988		2.123520	0.470810	4.035781	-0.134437	0.229976	0.596368	-0.470947	0.369873	-0.041504	0.156932	-0.238728	0.310110	-0.906760
48989		2.477738	0.675341	3.989064	-0.201036	0.198635	0.412877	-0.470947	0.367432	-0.041748	0.159218	-0.236433	0.312525	-0.906133
48990		2.997914	0.570645	3.687775	-0.246661	0.237270	0.249793	-0.469727	0.372070	-0.047119	0.160083	-0.234333	0.314993	-0.905671
48991		2.662515	0.187910	3.034904	-0.247230	0.291948	0.188575	-0.457275	0.376465	-0.035889	0.160340	-0.231984	0.317400	-0.905390
48992		1.627525	-0.026372	2.548381	-0.153804	0.224218	0.189012	-0.454834	0.369629	-0.034424	0.160960	-0.230024	0.318996	-0.905219
48993		1.491809	-0.071229	2.699521	0.052574	0.065471	0.136621	-0.455078	0.377930	-0.046631	0.162002	-0.229126	0.318713	-0.905361
48994		1.875817	0.516991	3.272943	0.310425	-0.043742	-0.047183	-0.460205	0.375244	-0.045166	0.162439	-0.229191	0.315976	-0.906225
48995		2.258834	1.301719	3.780037	0.369912	-0.089284	-0.245788	-0.461182	0.381104	-0.042480	0.161609	-0.230042	0.312333	-0.907420
48996		2.535154	1.443075	3.918354	0.267116	-0.092864	-0.400016	-0.457520	0.376953	-0.048340	0.159424	-0.231458	0.309142	-0.908539
48997		2.276670	0.555522	3.695930	0.241993	-0.121800	-0.550246	-0.465576	0.371338	-0.060791	0.156124	-0.233509	0.305788	-0.909721
48998		1.704877	-0.274115	3.796013	0.398941	-0.302354	-0.750004	-0.476562	0.349365	-0.049561	0.152068	-0.237224	0.300592	-0.911177
48999		2.319467	-0.177539	4.689004	0.487941	-0.516820	-0.886486	-0.488281	0.334717	-0.051270	0.147677	-0.242775	0.294146	-0.912541
49000		3.634806	0.260222	5.662696	0.437780	-0.531730	-0.949555	-0.497314	0.335449	-0.046387	0.142724	-0.248630	0.287893	-0.913746
49001		5.162891	-0.081622	5.827733	0.377718	-0.304930	-0.940532	-0.507080	0.324707	-0.046143	0.137156	-0.252784	0.282340	-0.915190
49002		4.789872	-1.159918	4.847823	0.531996	-0.094207	-0.981469	-0.520264	0.315918	-0.057129	0.131091	-0.255234	0.275720	-0.917415
49003		3.471931	-1.320360	4.104007	0.727805	-0.258371	-1.014522	-0.523193	0.296387	-0.052734	0.125549	-0.258776	0.267313	-0.919683
49004		4.111314	-0.603132	4.727384	0.787300	-0.592346	-1.023910	-0.529297	0.290771	-0.056885	0.120786	-0.264802	0.258038	-0.921253
49005		5.295499	-0.118695	5.911982	0.792253	-0.719622	-1.161113	-0.538330	0.278320	-0.059082	0.115228	-0.272053	0.248240	-0.922544
49006		5.865435	-0.227504	6.611728	0.778394	-0.687366	-1.363583	-0.561523	0.261230	-0.056885	0.107987	-0.279435	0.238053	-0.923897
49007		5.769521	-1.166016	6.685106	0.800056	-0.672212	-1.537790	-0.575928	0.241211	-0.048096	0.099394	-0.286962	0.227234	-0.925278
49008		5.634712	-1.831814	6.995700	0.858398	-0.787470	-1.633509	-0.588379	0.221191	-0.051758	0.090386	-0.295430	0.215566	-0.926328
49009		6.338458	-1.964448	7.786698	0.902060	-0.901986	-1.653766	-0.608154	0.208008	-0.053223	0.081499	-0.304692	0.203350	-0.926914
49010		7.033293	-1.977397	8.601097	0.891626	-0.909195	-1.684118	-0.626709	0.180908	-0.046631	0.072329	-0.313966	0.191057	-0.927195
49011		7.669633	-2.117950	9.176128	0.783413	-0.828123	-1.669670	-0.637695	0.164795	-0.049316	0.062828	-0.322553	0.179619	-0.927227
49012		8.202216	-2.919277	9.289802	0.696886	-0.669416	-1.584024	-0.653076	0.135986	-0.040283	0.053494	-0.329737	0.169103	-0.927263
49013		8.338592	-3.411281	9.063696	0.728010	-0.534966	-1.468857	-0.666016	0.132812	-0.038574	0.044926	-0.335623	0.158679	-0.927448
49014		7.874513	-3.792066	8.741230	0.789917	-0.496097	-1.319281	-0.683350	0.101318	-0.043213	0.037620	-0.340915	0.148179	-0.927580
49015		8.124255	-3.551451	9.024612	0.873102	-0.525961	-1.224939	-0.691895	0.087158	-0.051025	0.031304	-0.346225	0.137275	-0.927526
49016		8.497640	-3.240025	9.324239	0.862299	-0.481462	-1.132205	-0.699951	0.070557	-0.050049	0.025613	-0.351022	0.126720	-0.927399
49017		8.484481	-3.263538	9.366262	0.850579	-0.399221	-1.059259	-0.715576	0.050293	-0.044922	0.020357	-0.355049	0.116478	-0.927340
49018		8.303888	-3.003736	9.228684	0.820127	-0.345728	-0.975050	-0.718018	0.040527	-0.049072	0.015603	-0.358533	0.106728	-0.927265
49019		8.295723	-2.765296	9.121670	0.792967	-0.317118	-0.905430	-0.723145	0.020996	-0.049805	0.011276	-0.361689	0.097402	-0.927128
49020		8.303327	-2.388415	8.990282	0.781680	-0.290950	-0.885197	-0.735352	0.014648	-0.058838	0.007047	-0.364583	0.088234	-0.926954
49021		8.401822	-2.516879	8.853679	0.774066	-0.264559	-0.900542	-0.755371	-0.008789	-0.048096	0.002655	-0.367241	0.079086	-0.926754
49022		8.547021	-2.308620	8.543618	0.725144	-0.236880	-0.883544	-0.760254	-0.024170	-0.047363	-0.001775	-0.369634	0.070380	-0.926507
49023		8.391545	-2.474988	8.179835	0.654808	-0.220897	-0.777660	-0.769287	-0.034912	-0.052979	-0.005615	-0.371805	0.062555	-0.926184
49024		8.011802	-2.315833	8.146357	0.679574	-0.244725	-0.644327	-0.764648	-0.048828	-0.054443	-0.008337	-0.374064	0.054970	-0.925735
49025		8.129197	-1.666710	8.321050	0.766614	-0.231941	-0.582236	-0.776367	-0.062012	-0.051270	-0.010315	-0.376173	0.046923	-0.925303
49026		7.941904	-1.007203	8.318932	0.766876	-0.214454	-0.596903	-0.778320	-0.079834	-0.061279	-0.012411	-0.378126	0.038840	-0.924856
49027		7.829098	-0.581556	8.201909	0.657798	-0.227852	-0.644987	-0.781250	-0.090332	-0.051514	-0.015216	-0.380158	0.031460	-0.924261
49028		7.961009	-0.469273	8.153016	0.519462	-0.234920	-0.629296	-0.792236	-0.105957	-0.046143	-0.018337	-0.382198	0.025207	-0.923555
49029		8.125746	-0.769042	8.055438	0.506961	-0.178219	-0.561374	-0.798096	-0.111328	-0.053711	-0.020986	-0.383766	0.019270	-0.922991
49030		8.087864	-0.814900	7.665083	0.650147	-0.086246	-0.511199	-0.804688	-0.124756	-0.052002	-0.022804	-0.384624	0.012389	-0.922708
49031		7.547299	-0.407289	7.273678	0.764057	-0.071677	-0.507800	-0.803223	-0.137451	-0.048340	-0.024232	-0.385371	0.004653	-0.922432
49032		7.330592	0.218069	7.288637	0.703163	-0.168974	-0.500747	-0.812744	-0.152344	-0.049805	-0.025795	-0.386830	-0.002560	-0.921787
49033		7.497602	0.331869	7.567719	0.589127	-0.277990	-0.550927	-0.810059	-0.152832	-0.043945	-0.028112	-0.389080	-0.009026	-0.920731
49034		7.972398	0.211276	7.931556	0.541994	-0.307062	-0.647567	-0.814941	-0.173096	-0.053467	-0.031325	-0.391512	-0.015426	-0.919510
49035		8.213694	0.002766	7.926843	0.502628	-0.253895	-0.645554	-0.820557	-0.189209	-0.045410	-0.034642	-0.393503	-0.021522	-0.918418
49036		7.987272	-0.247689	7.610657	0.485212	-0.193891	-0.565472	-0.821533	-0.200928	-0.043701	-0.037391	-0.395026	-0.027228	-0.917505
49037		7.454259	-0.181638	7.382648	0.511821	-0.213705	-0.498080	-0.824219	-0.208984	-0.041748	-0.039540	-0.396707	-0.032896	-0.916503
49038		7.652190	0.314740	7.533363	0.512860	-0.263438	-0.465674	-0.819824	-0.222168	-0.036377	-0.041450	-0.398760	-0.038438	-0.915311
49039		7.813233	0.810973	7.704375	0.461455	-0.253464	-0.453719	-0.822754	-0.230469	-0.026855	-0.043434	-0.400709	-0.043540	-0.914139
49040		7.757649	1.178411	7.626179	0.367884	-0.230941	-0.422177	-0.830811	-0.231445	-0.040039	-0.045481	-0.402450	-0.047825	-0.913060
49041		7.747562	1.355259	7.477334	0.291579	-0.207895	-0.352980	-0.816406	-0.233643	-0.034424	-0.047248	-0.404005	-0.051299	-0.912094
49042		7.724812	1.295956	7.303990	0.330385	-0.175893	-0.328367	-0.820801	-0.244873	-0.026367	-0.048682	-0.405335	-0.054993	-0.911213
49043		7.504758	1.400322	7.150024	0.423812	-0.158965	-0.358171	-0.831543	-0.251709	-0.023193	-0.050017	-0.406551	-0.059497	-0.910316
49044		7.224772	1.535441	7.052992	0.498605	-0.194794	-0.436996	-0.824951	-0.257812	-0.019531	-0.051714	-0.408019	-0.064814	-0.909200
49045		7.286225	1.784323	7.180399	0.455453	-0.266344	-0.490672	-0.833740	-0.264893	-0.015625	-0.054001	-0.409967	-0.069950	-0.907810
49046		7.510090	1.806464	7.205804	0.343448	-0.303327	-0.530240	-0.824707	-0.271240	-0.022705	-0.056990	-0.412104	-0.074351	-0.906308
49047		7.475091	1.593576	7.239459	0.248247	-0.321944	-0.537816	-0.825439	-0.286621	-0.007812	-0.060372	-0.414318	-0.078045	-0.904768
49048		7.658614	1.222872	7.227301	0.252823	-0.311368	-0.539600	-0.824219	-0.286621	-0.008301	-0.063744	-0.416438	-0.081778	-0.903232
49049		7.700203	1.063793	7.230846	0.311590	-0.283236	-0.528626	-0.830811	-0.298096	0.000977	-0.066807	-0.418372	-0.085921	-0.901731
49050		7.752649	0.852492	7.221372	0.344679	-0.261098	-0.487058	-0.829102	-0.312500	-0.001709	-0.069425	-0.420174	-0.090173	-0.900279
49051		7.647760	0.765090	7.312307	0.354199	-0.261823	-0.413504	-0.827393	-0.316895	0.007568	-0.071456	-0.422030	-0.094229	-0.898836
49052		7.722660	0.676082	7.436365	0.361716	-0.246912	-0.325222	-0.836182	-0.323486	0.007568	-0.072786	-0.423837	-0.098031	-0.897471
49053		7.765715	0.810277	7.558103	0.384593	-0.190798	-0.250245	-0.832520	-0.323486	-0.000244	-0.073426	-0.425291	-0.101764	-0.896315
49054		7.602226	1.010928	7.519682	0.392936	-0.133676	-0.175610	-0.834473	-0.325195	0.004883	-0.073429	-0.426380	-0.105322	-0.895386
49055		7.564424	1.229060	7.477994	0.393976	-0.087949	-0.101945	-0.830566	-0.331543	0.009521	-0.072838	-0.427185	-0.108647	-0.894653
49056		7.660464	1.485568	7.318315	0.405414	-0.025273	-0.061664	-0.838135	-0.338135	0.011230	-0.071847	-0.427561	-0.111945	-0.894146
49057		7.367523	1.650358	7.090385	0.383097	-0.002881	-0.045696	-0.834961	-0.340088	0.003906	-0.070795	-0.427765	-0.115028	-0.893741
49058		7.382462	1.735246	6.895359	0.351931	-0.009092	-0.043121	-0.832275	-0.343262	0.010742	-0.069840	-0.427995	-0.117862	-0.893337
49059		7.217133	1.876148	6.851172	0.294896	-0.030290	-0.030106	-0.837646	-0.344727	-0.000977	-0.069011	-0.428359	-0.120208	-0.892915
49060		7.118540	1.732148	6.978729	0.270163	-0.064128	-0.013817	-0.827637	-0.342773	0.010254	-0.068183	-0.428973	-0.122289	-0.892401
49061		7.132664	1.894972	7.131436	0.284314	-0.074666	-0.026082	-0.833496	-0.342285	0.009766	-0.067406	-0.429657	-0.124509	-0.891823
49062		7.229407	2.122736	7.283099	0.260177	-0.063555	-0.048160	-0.838135	-0.343750	0.007324	-0.066867	-0.430218	-0.126632	-0.891294
49063		7.254504	2.157099	7.225142	0.189423	-0.039572	-0.081950	-0.831543	-0.351318	0.008301	-0.066807	-0.430523	-0.128360	-0.890904
49064		7.157781	2.036730	7.121988	0.114428	-0.030646	-0.107750	-0.838379	-0.346436	0.000000	-0.067197	-0.430690	-0.129627	-0.890611
49065		7.205724	1.817589	7.079167	0.055535	-0.034985	-0.116434	-0.838379	-0.351807	0.003906	-0.067868	-0.430844	-0.130483	-0.890360
49066		7.378028	1.715209	7.016782	0.032505	-0.031147	-0.107415	-0.833984	-0.356445	-0.002930	-0.068550	-0.430965	-0.131135	-0.890154
49067		7.477277	1.703382	6.950048	0.011631	-0.001898	-0.084455	-0.838379	-0.353027	0.009277	-0.069105	-0.430881	-0.131562	-0.890088
49068		7.467591	1.743754	6.873601	-0.009699	0.018470	-0.045416	-0.834473	-0.352295	0.007568	-0.069424	-0.430677	-0.131699	-0.890142
49069		7.575966	1.759725	6.716166	-0.029337	0.041397	-0.008825	-0.837646	-0.356201	0.009277	-0.069516	-0.430330	-0.131569	-0.890322
49070		7.594032	1.790653	6.528809	-0.041528	0.065381	0.018920	-0.834717	-0.361816	0.008301	-0.069420	-0.429828	-0.131260	-0.890617
49071		7.413819	1.858690	6.383354	-0.063356	0.056082	0.048949	-0.834961	-0.351318	0.004883	-0.069189	-0.429416	-0.130672	-0.890921
49072		7.307422	1.938173	6.353840	-0.080621	0.032124	0.084160	-0.835693	-0.343994	0.001709	-0.068783	-0.429210	-0.129814	-0.891177
49073		7.380130	2.137097	6.460363	-0.090013	0.020929	0.121678	-0.836670	-0.354980	-0.001221	-0.068145	-0.429121	-0.128743	-0.891424
49074		7.383501	2.313769	6.451066	-0.095024	0.046820	0.158264	-0.842041	-0.346191	-0.002686	-0.067224	-0.428876	-0.127517	-0.891788
49075		7.320836	2.442178	6.385325	-0.096854	0.077986	0.184962	-0.834229	-0.345459	0.001953	-0.066079	-0.428425	-0.126198	-0.892278
49076		7.187524	2.603888	6.312643	-0.090903	0.096435	0.200813	-0.835205	-0.338135	-0.003418	-0.064774	-0.427854	-0.124875	-0.892833
49077		7.073444	2.722293	6.241590	-0.097932	0.104412	0.216851	-0.835205	-0.343506	-0.007080	-0.063366	-0.427235	-0.123447	-0.893429
49078		7.080135	2.761250	6.211593	-0.088508	0.104511	0.215719	-0.836426	-0.339844	-0.001221	-0.061933	-0.426616	-0.122093	-0.894011
49079		7.053070	2.814353	6.174392	-0.063221	0.109917	0.193616	-0.835205	-0.331299	-0.011475	-0.060569	-0.425945	-0.121009	-0.894572
49080		6.986947	2.971497	6.140243	-0.057539	0.102425	0.167174	-0.837158	-0.327881	-0.010498	-0.059389	-0.425305	-0.120057	-0.895084
49081		7.027526	3.004814	6.135554	-0.072843	0.089704	0.146176	-0.843262	-0.330322	-0.004395	-0.058432	-0.424729	-0.119061	-0.895553
49082		7.141058	2.983938	6.094553	-0.089161	0.089812	0.128873	-0.838623	-0.326660	-0.012207	-0.057662	-0.424125	-0.118006	-0.896029
49083		7.217074	2.944277	5.922877	-0.092290	0.096323	0.114443	-0.831787	-0.323975	-0.012451	-0.057005	-0.423456	-0.116983	-0.896521
49084		7.200202	2.886881	5.823822	-0.081925	0.097863	0.121078	-0.835449	-0.324463	-0.006348	-0.056260	-0.422786	-0.116015	-0.897010
49085		7.114219	2.871244	5.755842	-0.059974	0.080610	0.132392	-0.833252	-0.327881	-0.007568	-0.055369	-0.422266	-0.115165	-0.897420
49086		7.119453	2.948293	5.747805	-0.039417	0.056002	0.131362	-0.841064	-0.321289	-0.019775	-0.054438	-0.421938	-0.114463	-0.897721
49087		7.082108	3.039368	5.782571	-0.032526	0.029838	0.110251	-0.835205	-0.312744	-0.006836	-0.053665	-0.421788	-0.113875	-0.897913
49088		7.050891	3.035119	5.842988	-0.043125	0.001920	0.078758	-0.847900	-0.317871	-0.010742	-0.053192	-0.421813	-0.113309	-0.898001
49089		7.083397	2.964216	5.914676	-0.063219	-0.020784	0.034916	-0.835938	-0.317871	-0.014893	-0.053138	-0.421957	-0.112738	-0.898008
49090		7.162711	2.800592	5.970340	-0.074898	-0.037073	-0.003000	-0.832275	-0.322510	-0.015625	-0.053425	-0.422181	-0.112208	-0.897952
49091		7.218507	2.594321	6.002628	-0.092491	-0.054650	-0.020195	-0.841553	-0.314697	-0.004639	-0.053919	-0.422513	-0.111600	-0.897842
49092		7.233082	2.455141	6.040731	-0.111688	-0.065820	-0.024283	-0.836182	-0.320068	-0.014160	-0.054522	-0.422917	-0.110858	-0.897708
49093		7.196755	2.307193	6.130109	-0.125077	-0.081415	-0.021713	-0.835449	-0.316406	-0.011719	-0.055166	-0.423432	-0.110000	-0.897531
49094		7.253626	2.110589	6.224296	-0.115333	-0.093253	-0.025268	-0.837158	-0.318604	-0.008057	-0.055814	-0.424037	-0.109222	-0.897300
49095		7.365929	1.968866	6.328143	-0.088343	-0.099542	-0.047030	-0.837158	-0.319092	-0.010742	-0.056534	-0.424681	-0.108719	-0.897012
49096		7.349771	1.859942	6.355005	-0.101782	-0.114733	-0.072770	-0.826904	-0.311768	-0.004639	-0.057508	-0.425408	-0.108197	-0.896669
49097		7.485982	1.665509	6.385068	-0.153369	-0.148139	-0.083904	-0.836670	-0.321777	-0.004150	-0.058778	-0.426348	-0.107311	-0.896246
49098		7.643050	1.423452	6.410330	-0.216511	-0.168904	-0.091286	-0.831543	-0.315430	0.004150	-0.060345	-0.427404	-0.105968	-0.895798
49099		7.640274	1.146600	6.492828	-0.258005	-0.204779	-0.084549	-0.835938	-0.316895	0.000488	-0.062041	-0.428711	-0.104268	-0.895258
49100		7.676759	0.786580	6.652735	-0.257885	-0.244717	-0.088519	-0.838135	-0.319092	0.003662	-0.063799	-0.430309	-0.102558	-0.894565
49101		7.664029	0.635842	6.908101	-0.241239	-0.290772	-0.119514	-0.840576	-0.313232	0.010010	-0.065767	-0.432228	-0.101053	-0.893668
49102		7.660136	0.115604	7.265290	-0.238688	-0.337607	-0.155028	-0.833252	-0.320068	0.018555	-0.068028	-0.434462	-0.099663	-0.892571
49103		7.970238	-0.387692	7.697998	-0.198111	-0.353861	-0.208930	-0.831787	-0.316895	0.025391	-0.070554	-0.436788	-0.098752	-0.891340
49104		8.430429	-0.800662	8.130542	-0.196912	-0.318679	-0.208508	-0.836670	-0.322998	0.027344	-0.073042	-0.438847	-0.097858	-0.890226
49105		8.959474	-1.161917	8.448277	-0.261227	-0.228287	-0.103634	-0.839111	-0.324707	0.031006	-0.074912	-0.440276	-0.096147	-0.889551
49106		9.293477	-1.583728	8.509046	-0.338995	-0.087096	0.111503	-0.834473	-0.320557	0.029785	-0.075356	-0.440777	-0.093146	-0.889585
49107		9.319286	-1.863696	8.415343	-0.395111	0.063848	0.424042	-0.834717	-0.307373	0.031494	-0.073570	-0.440358	-0.088661	-0.890400
49108		9.126652	-1.899462	8.304212	-0.357758	0.191978	0.743720	-0.843018	-0.305664	0.032715	-0.069175	-0.439229	-0.083341	-0.891822
49109		8.805781	-1.393392	8.292367	-0.222345	0.283489	0.966217	-0.835938	-0.285156	0.028809	-0.062562	-0.437624	-0.078248	-0.893559
49110		8.568179	-0.531312	8.342586	-0.118656	0.336095	1.050621	-0.828125	-0.279541	0.023438	-0.054902	-0.435698	-0.073629	-0.895395
49111		8.165957	0.470399	8.439969	-0.177522	0.331803	1.032539	-0.830811	-0.260498	0.028320	-0.047587	-0.433724	-0.068622	-0.897168
49112		7.781600	1.064424	8.577198	-0.415042	0.271440	0.968654	-0.830322	-0.245850	0.021729	-0.041639	-0.432030	-0.062037	-0.898759
49113		7.726836	0.907083	8.727876	-0.639515	0.199826	0.844608	-0.825684	-0.230469	0.025391	-0.037461	-0.430689	-0.054186	-0.900093
49114		7.919044	0.198208	9.004520	-0.729921	0.166650	0.704956	-0.826904	-0.218994	0.017822	-0.034665	-0.429467	-0.046143	-0.901237
49115		8.119064	-0.512654	9.178897	-0.742311	0.173501	0.638655	-0.827148	-0.203857	0.018799	-0.032406	-0.428128	-0.038240	-0.902327
49116		8.587570	-1.181883	9.385789	-0.718122	0.221179	0.677237	-0.825684	-0.191406	0.011963	-0.029751	-0.426414	-0.030387	-0.903528
49117		8.977391	-1.512575	9.470796	-0.690122	0.317958	0.813741	-0.829102	-0.171631	0.016846	-0.025941	-0.423975	-0.022275	-0.905028
49118		9.027870	-1.597241	9.409831	-0.656051	0.442010	1.001116	-0.817627	-0.157227	0.005615	-0.020570	-0.420594	-0.013777	-0.906911
49119		8.717561	-1.272315	9.345303	-0.624709	0.526251	1.168203	-0.821289	-0.136475	0.000488	-0.013813	-0.416543	-0.004937	-0.908998
49120		8.629882	-0.778616	9.374792	-0.623977	0.576797	1.272572	-0.811279	-0.111572	-0.007568	-0.006258	-0.412044	0.004258	-0.911133
49121		8.588917	-0.296611	9.436438	-0.611656	0.639877	1.282542	-0.802490	-0.101074	-0.019775	0.001414	-0.406991	0.013390	-0.913333
49122		8.454456	0.017009	9.327808	-0.656761	0.685453	1.242275	-0.794434	-0.071533	-0.028320	0.008622	-0.401521	0.022725	-0.915527
49123		8.501688	0.184953	9.114678	-0.757736	0.706015	1.208964	-0.783447	-0.052246	-0.026855	0.015233	-0.395833	0.032713	-0.917613
49124		8.628298	0.034101	8.773479	-0.839925	0.731050	1.199939	-0.778076	-0.032959	-0.035645	0.021495	-0.389889	0.043291	-0.919592
49125		8.600764	-0.087600	8.301361	-0.850397	0.763471	1.228428	-0.766602	-0.016113	-0.032227	0.027925	-0.383611	0.054034	-0.921490
49126		8.549341	-0.047729	7.870907	-0.802447	0.790787	1.267801	-0.751465	0.020264	-0.053467	0.034793	-0.377016	0.064524	-0.923301
49127		8.521097	-0.020714	7.445152	-0.714058	0.808519	1.257520	-0.734863	0.030029	-0.063477	0.041843	-0.370191	0.074287	-0.925035
49128		8.231693	0.072977	7.036962	-0.651925	0.786989	1.199896	-0.727783	0.053223	-0.057617	0.048646	-0.363478	0.083364	-0.926589
49129		7.890895	0.279454	6.840475	-0.697674	0.691951	1.164360	-0.714111	0.067139	-0.062988	0.055094	-0.357483	0.092626	-0.927680
49130		7.600202	0.114157	6.923217	-0.745896	0.588219	1.136132	-0.696045	0.086914	-0.067139	0.061250	-0.352279	0.102105	-0.928290
49131		7.357085	-0.134291	7.303517	-0.689015	0.508053	1.045444	-0.686035	0.092285	-0.073975	0.066932	-0.347697	0.110813	-0.928627
49132		7.185934	-0.476647	7.802403	-0.599199	0.464145	0.909945	-0.674316	0.111084	-0.059082	0.071859	-0.343491	0.118387	-0.928889
49133		7.163748	-1.079560	8.345908	-0.558461	0.443829	0.797362	-0.666260	0.126465	-0.067383	0.076045	-0.339500	0.125291	-0.929117
49134		7.422419	-1.748851	8.738966	-0.552951	0.488667	0.763428	-0.651367	0.132812	-0.073975	0.079932	-0.335167	0.132067	-0.929426
49135		7.598729	-2.439855	8.801864	-0.527405	0.604677	0.789691	-0.650391	0.140869	-0.069336	0.083960	-0.329862	0.138778	-0.929991
49136		7.774411	-2.581999	8.461444	-0.535564	0.729850	0.874729	-0.636230	0.156250	-0.079102	0.088471	-0.323462	0.145854	-0.930737
49137		7.369421	-2.840470	7.786975	-0.597674	0.786006	0.956695	-0.625732	0.168945	-0.087158	0.093371	-0.316537	0.153651	-0.931385
49138		7.035602	-2.484548	7.284051	-0.689275	0.741662	1.050059	-0.605225	0.176270	-0.075684	0.098798	-0.309865	0.162346	-0.931593
49139		6.886651	-2.223653	6.927136	-0.748534	0.699830	1.123899	-0.610107	0.197754	-0.080322	0.104686	-0.303423	0.171626	-0.931407
49140		6.737097	-1.886751	6.566040	-0.702252	0.683069	1.141326	-0.578857	0.210693	-0.074707	0.110834	-0.297002	0.180543	-0.931080
49141		6.331861	-1.722708	6.138201	-0.620167	0.642554	1.085711	-0.579834	0.221680	-0.085449	0.116798	-0.290865	0.188614	-0.930688
49142		5.910507	-1.663147	5.927778	-0.584931	0.516246	0.970283	-0.562988	0.234863	-0.085449	0.122135	-0.285824	0.195978	-0.930043
49143		5.652236	-1.909015	5.893416	-0.673868	0.329091	0.853989	-0.559326	0.241943	-0.089844	0.126653	-0.282491	0.203537	-0.928833
49144		5.132409	-2.431512	6.351717	-0.759142	0.111980	0.756651	-0.553223	0.255127	-0.073730	0.130575	-0.281074	0.211274	-0.926990
49145		5.581500	-2.700465	7.237964	-0.798576	-0.020011	0.704555	-0.545410	0.263428	-0.079590	0.134223	-0.280793	0.219027	-0.924752
49146		5.961499	-3.303618	7.696871	-0.744586	0.025666	0.661103	-0.540527	0.276123	-0.064209	0.137571	-0.280161	0.226290	-0.922701
49147		5.343710	-3.990384	7.740905	-0.633246	0.091865	0.662075	-0.535645	0.273926	-0.055420	0.141052	-0.278876	0.232754	-0.920955
49148		4.548750	-3.689747	7.963202	-0.587872	0.084403	0.743316	-0.526367	0.298096	-0.069092	0.145269	-0.277424	0.239032	-0.919128
49149		5.212270	-3.272220	8.305627	-0.626209	0.162807	0.865293	-0.522217	0.302979	-0.066162	0.150166	-0.275154	0.245956	-0.917195
49150		5.657017	-3.069054	7.821939	-0.568351	0.422872	0.896918	-0.516846	0.311768	-0.058350	0.154892	-0.270738	0.252807	-0.915859
49151		5.228967	-2.775962	6.481665	-0.529487	0.643688	0.934010	-0.500488	0.332275	-0.052246	0.159510	-0.264484	0.259696	-0.914966
49152		4.808194	-2.553141	5.126234	-0.552985	0.708059	1.035202	-0.490479	0.333252	-0.065674	0.164689	-0.257526	0.267033	-0.913921
49153		4.704587	-2.261725	3.914351	-0.530369	0.694476	1.070434	-0.472412	0.343018	-0.067627	0.170194	-0.250534	0.274214	-0.912728
49154		3.405985	-2.226755	2.982323	-0.476446	0.543072	1.068152	-0.462891	0.356201	-0.061279	0.176118	-0.244599	0.280727	-0.911233
49155		2.268897	-1.892065	2.919583	-0.393688	0.209957	1.049891	-0.449219	0.364258	-0.063477	0.182833	-0.241096	0.286054	-0.909185
49156		1.985195	-1.155205	3.747067	-0.291436	-0.076989	0.999482	-0.447510	0.369141	-0.071289	0.190039	-0.239714	0.290042	-0.906806
49157		2.605175	-0.588575	4.840686	-0.161946	-0.166501	0.865966	-0.433838	0.380127	-0.057617	0.196700	-0.239113	0.292618	-0.904715
49158		3.204180	-0.143014	5.165577	-0.062252	-0.027791	0.630376	-0.434082	0.380615	-0.063721	0.201438	-0.237869	0.294178	-0.903493
49159		1.791008	-0.213466	4.731465	-0.135789	0.031034	0.434226	-0.423584	0.398926	-0.064453	0.204407	-0.236785	0.295983	-0.902521
49160		0.788425	-0.846425	4.666359	-0.223007	-0.117833	0.330372	-0.417236	0.390381	-0.052246	0.206788	-0.237222	0.297972	-0.901209
49161		1.096863	-1.057004	5.338679	-0.149979	-0.240543	0.241793	-0.420410	0.396729	-0.056641	0.208954	-0.238670	0.299015	-0.899981
49162		1.837580	-0.698558	5.962587	-0.012460	-0.170038	0.117498	-0.423096	0.394287	-0.053955	0.210285	-0.239655	0.298893	-0.899449
49163		2.058225	0.002936	5.915112	-0.063529	0.035526	0.087667	-0.413574	0.396240	-0.054688	0.210781	-0.239261	0.299443	-0.899255
49164		1.577492	-0.880710	5.074837	-0.021523	0.230342	0.060410	-0.414062	0.388672	-0.062256	0.210673	-0.237400	0.299951	-0.899604
49165		1.109405	-1.367335	4.543128	0.215173	0.226829	-0.061218	-0.417969	0.402100	-0.061523	0.210131	-0.235450	0.298429	-0.900749
49166		1.403510	-0.610742	4.582617	0.314636	0.133840	-0.114000	-0.418213	0.399170	-0.064697	0.209620	-0.234151	0.295886	-0.902045
49167		2.091388	-0.210178	4.801975	0.273265	0.120604	-0.097742	-0.418213	0.404053	-0.065430	0.209183	-0.232980	0.293652	-0.903179
49168		3.122403	0.133608	4.531718	0.298369	0.244480	-0.157668	-0.419678	0.390137	-0.080078	0.208039	-0.230976	0.291316	-0.904713
49169		3.627153	-0.063259	3.450780	0.303243	0.443731	-0.230716	-0.421143	0.387695	-0.073730	0.205869	-0.227637	0.289131	-0.906754
49170		0.871012	-1.042713	2.371584	0.401799	0.302097	-0.319860	-0.415039	0.382568	-0.086426	0.203548	-0.225413	0.285772	-0.908896
49171		0.399726	-0.590271	2.917100	0.524076	-0.244042	-0.375618	-0.429688	0.377197	-0.083252	0.202329	-0.227243	0.280447	-0.910370
49172		2.283796	0.704401	4.559402	0.570063	-0.531410	-0.452117	-0.437256	0.371338	-0.084473	0.201278	-0.231340	0.274127	-0.911495
49173		4.145131	1.407904	5.568546	0.548804	-0.397514	-0.601458	-0.439209	0.355713	-0.088379	0.198733	-0.234782	0.267878	-0.913030
49174		4.262427	1.100090	5.156949	0.568996	-0.113849	-0.861815	-0.448730	0.357178	-0.091797	0.193600	-0.236601	0.261399	-0.915538
49175		2.342977	0.152723	4.295489	0.577905	-0.192305	-1.062142	-0.452393	0.343994	-0.099365	0.187109	-0.239419	0.254292	-0.918153
49176		2.664855	-0.510623	4.564329	0.657449	-0.567715	-1.245278	-0.468262	0.335449	-0.093994	0.180144	-0.245339	0.245581	-0.920351
49177		3.956665	-0.410922	5.755617	0.742737	-0.830560	-1.462679	-0.495361	0.306396	-0.089355	0.172184	-0.253538	0.235321	-0.922331
49178		5.346676	-0.213379	6.927416	0.665842	-0.874957	-1.604196	-0.511963	0.294434	-0.079590	0.163013	-0.262400	0.225220	-0.924039
49179		6.104611	-1.195723	7.281918	0.612871	-0.745772	-1.692086	-0.518799	0.270020	-0.084473	0.152759	-0.270433	0.215435	-0.925807
49180		5.221580	-2.324878	7.216987	0.714823	-0.725782	-1.767805	-0.537842	0.256104	-0.079590	0.142065	-0.278240	0.204647	-0.927642
49181		5.515637	-1.982846	7.662510	0.716233	-0.835377	-1.658014	-0.562256	0.241699	-0.076660	0.132365	-0.286621	0.193909	-0.928831
49182		6.614727	-2.331831	8.444357	0.717732	-0.821369	-1.542893	-0.574951	0.227783	-0.073486	0.123496	-0.294626	0.183390	-0.929684
49183		7.687808	-2.302468	8.785964	0.824990	-0.664247	-1.582571	-0.600098	0.211914	-0.074707	0.114305	-0.301285	0.172052	-0.930892
49184		7.812812	-2.299668	8.405083	0.801220	-0.528480	-1.603537	-0.608154	0.192383	-0.076660	0.104663	-0.306866	0.160926	-0.932192
49185		7.804656	-2.337460	7.894946	0.630301	-0.522750	-1.498048	-0.622559	0.175537	-0.075684	0.095367	-0.312339	0.151362	-0.932973
49186		7.615315	-2.805914	7.550156	0.553279	-0.588843	-1.375405	-0.628906	0.144775	-0.073242	0.086884	-0.318171	0.142633	-0.933206
49187		7.659330	-2.783066	7.738071	0.690902	-0.685869	-1.369014	-0.645264	0.133545	-0.079834	0.078909	-0.324588	0.132757	-0.933162
49188		8.108780	-2.353150	8.334444	0.801202	-0.754819	-1.420378	-0.660889	0.114990	-0.077393	0.070886	-0.331455	0.121813	-0.932885
49189		8.735041	-2.049448	8.855208	0.751976	-0.755034	-1.439958	-0.677002	0.104492	-0.067139	0.062554	-0.338295	0.111174	-0.932354
49190		8.861020	-2.208664	8.893766	0.621495	-0.690953	-1.375398	-0.683105	0.070801	-0.065430	0.054278	-0.344572	0.101742	-0.931651
49191		8.743770	-2.614467	8.617095	0.610634	-0.621962	-1.304218	-0.698486	0.053955	-0.066406	0.046450	-0.350192	0.092617	-0.930930
49192		8.733215	-2.830039	8.438079	0.714750	-0.602957	-1.279893	-0.718262	0.042725	-0.068604	0.039088	-0.355542	0.082753	-0.930169
49193		8.831693	-2.332500	8.578360	0.749310	-0.619958	-1.223923	-0.728271	0.018311	-0.059570	0.032264	-0.360909	0.072777	-0.929197
49194		8.936827	-1.875216	8.756515	0.664702	-0.611469	-1.122424	-0.739746	0.010010	-0.063721	0.025958	-0.366113	0.063760	-0.928021
49195		8.863537	-1.702406	8.829850	0.644006	-0.552702	-1.043078	-0.751953	-0.012207	-0.055176	0.020164	-0.370772	0.055157	-0.926865
49196		8.793672	-1.646246	8.690411	0.728391	-0.478991	-1.010005	-0.760010	-0.022705	-0.064209	0.014849	-0.374783	0.046019	-0.925851
49197		9.006973	-1.380249	8.501129	0.817054	-0.425218	-1.023923	-0.772461	-0.049561	-0.050537	0.009678	-0.378322	0.036162	-0.924917
49198		9.582842	-0.783276	8.005103	0.739972	-0.357700	-0.971807	-0.773926	-0.069824	-0.048096	0.004644	-0.381283	0.027073	-0.924050
49199		9.043017	-0.512849	7.308466	0.561111	-0.327811	-0.778925	-0.785889	-0.084229	-0.046143	0.000518	-0.383942	0.019980	-0.923141
49200		8.449855	-0.826936	7.116966	0.627472	-0.371411	-0.669216	-0.798584	-0.096924	-0.044434	-0.002546	-0.386892	0.012733	-0.922034
49201		8.225462	-0.079608	7.237196	0.797179	-0.450139	-0.666467	-0.804443	-0.110352	-0.040039	-0.005034	-0.390419	0.004201	-0.920614
49202		8.395910	0.065377	7.519404	0.946589	-0.519584	-0.841024	-0.806396	-0.128906	-0.027832	-0.008373	-0.394448	-0.006037	-0.918860
49203		8.401691	1.424314	7.658016	0.796316	-0.606941	-1.023929	-0.816162	-0.145020	-0.029053	-0.013611	-0.399069	-0.015711	-0.916685
49204		8.487203	1.458170	7.746849	0.320486	-0.707838	-1.006728	-0.810547	-0.154785	-0.027588	-0.020313	-0.404356	-0.021677	-0.914119
49205		8.641791	0.993599	7.752724	0.120574	-0.734100	-1.002776	-0.818359	-0.190186	-0.018799	-0.027663	-0.409762	-0.026097	-0.911399
49206		8.662688	0.354908	7.808196	0.230933	-0.676087	-0.985553	-0.826660	-0.193604	-0.000977	-0.034492	-0.414711	-0.031301	-0.908761
49207		8.803849	-0.243797	7.841080	0.583404	-0.568739	-1.019497	-0.823730	-0.210693	0.003418	-0.040328	-0.418889	-0.039311	-0.906289
49208		8.589631	-0.119801	7.874676	0.823101	-0.495868	-0.986841	-0.827637	-0.222900	-0.004639	-0.045052	-0.422554	-0.049028	-0.903889
49209		8.717445	-0.106310	8.237738	0.838477	-0.473859	-0.853692	-0.836182	-0.252686	0.020264	-0.048705	-0.426058	-0.058384	-0.901495
49210		8.992108	0.244262	8.436176	0.751019	-0.404708	-0.726171	-0.833496	-0.257568	0.014160	-0.051671	-0.429022	-0.066642	-0.899349
49211		8.925266	0.245540	8.254123	0.667491	-0.315521	-0.660947	-0.830566	-0.265869	0.029297	-0.054394	-0.431283	-0.074065	-0.897525
49212		8.687517	0.606390	7.753934	0.614070	-0.273271	-0.650543	-0.827881	-0.276855	0.029541	-0.057200	-0.433179	-0.081057	-0.895831
49213		8.298490	0.897832	7.269002	0.491868	-0.309577	-0.609021	-0.829346	-0.284668	0.031006	-0.060158	-0.435290	-0.086956	-0.894059
49214		8.083063	1.006221	7.154249	0.402462	-0.393487	-0.597215	-0.835693	-0.296875	0.039062	-0.063410	-0.437968	-0.092092	-0.892010
49215		7.729586	1.158511	7.320830	0.379716	-0.495848	-0.651455	-0.834717	-0.314209	0.043457	-0.067224	-0.441329	-0.097192	-0.889530
49216		7.523516	1.134897	7.794022	0.350500	-0.593367	-0.736509	-0.836914	-0.319824	0.042969	-0.071850	-0.445296	-0.102320	-0.886611
49217		7.733588	0.721906	8.493273	0.340807	-0.620876	-0.842262	-0.833252	-0.331787	0.057129	-0.077311	-0.449333	-0.107738	-0.883468
49218		7.973954	0.296292	9.001247	0.284937	-0.570812	-0.876800	-0.826660	-0.346191	0.060059	-0.083184	-0.452892	-0.112889	-0.880469
49219		8.181623	-0.170137	9.222246	0.195843	-0.455597	-0.795490	-0.833984	-0.359863	0.070312	-0.088682	-0.455583	-0.117142	-0.877985
49220		8.354528	-0.648250	9.219667	0.152475	-0.295080	-0.636015	-0.830811	-0.366211	0.069092	-0.093016	-0.457197	-0.120573	-0.876231
49221		8.409149	-0.760933	8.944055	0.185206	-0.109004	-0.458129	-0.834473	-0.375977	0.065674	-0.095735	-0.457641	-0.123694	-0.875271
49222		8.238282	-0.498084	8.444045	0.228651	0.053672	-0.270527	-0.838623	-0.383057	0.066162	-0.096749	-0.457117	-0.126533	-0.875028
49223		8.136610	-0.072676	7.923771	0.261055	0.166504	-0.098291	-0.825439	-0.384033	0.071045	-0.096263	-0.455972	-0.129030	-0.875314
49224		7.974853	0.546113	7.434303	0.275743	0.230239	0.050206	-0.835205	-0.379883	0.060791	-0.094567	-0.454528	-0.131112	-0.875940
49225		7.855002	1.107768	7.101622	0.267298	0.257931	0.135830	-0.833496	-0.377441	0.061523	-0.092245	-0.452963	-0.132820	-0.876740
49226		7.741426	1.686092	6.880761	0.228121	0.254664	0.156867	-0.829834	-0.379395	0.050293	-0.089920	-0.451410	-0.134153	-0.877580
49227		7.729766	2.001826	6.739351	0.137149	0.236723	0.154703	-0.833496	-0.371094	0.056885	-0.087972	-0.449913	-0.134811	-0.878445
49228		7.691215	2.194095	6.539393	0.049561	0.220892	0.133039	-0.832275	-0.392578	0.046631	-0.086527	-0.448440	-0.134893	-0.879328
49229		7.508376	2.201001	6.373921	-0.013983	0.179350	0.097280	-0.831055	-0.377930	0.055420	-0.085628	-0.447184	-0.134610	-0.880099
49230		7.309024	2.278478	6.276140	-0.040825	0.111627	0.021302	-0.831543	-0.368896	0.041504	-0.085461	-0.446318	-0.134363	-0.880592
49231		7.303595	2.415344	6.335159	-0.100677	0.035473	-0.052148	-0.835693	-0.376709	0.042480	-0.086141	-0.445886	-0.133894	-0.880816
49232		7.754078	2.375380	6.366785	-0.174777	0.004137	-0.121679	-0.838135	-0.374512	0.050049	-0.087641	-0.445552	-0.133114	-0.880956
49233		8.106445	2.245808	6.215642	-0.232598	0.035239	-0.158958	-0.839844	-0.381592	0.031006	-0.089594	-0.444905	-0.132069	-0.881244
49234		8.082992	1.947449	5.939405	-0.272634	0.068521	-0.116568	-0.836182	-0.383057	0.032959	-0.091347	-0.444028	-0.130594	-0.881725
49235		7.885651	1.666211	5.668526	-0.243655	0.075376	-0.044561	-0.838379	-0.379150	0.026367	-0.092455	-0.443201	-0.129068	-0.882251
49236		7.811741	1.678298	5.536262	-0.155815	0.053642	0.022827	-0.839355	-0.383545	0.028809	-0.092765	-0.442673	-0.127918	-0.882651
49237		7.769203	1.974459	5.562116	-0.089948	0.033452	0.086000	-0.833496	-0.386230	0.037842	-0.092389	-0.442413	-0.127001	-0.882953
49238		7.756651	2.343459	5.604890	-0.077852	0.025842	0.157009	-0.826660	-0.368408	0.033691	-0.091453	-0.442295	-0.125902	-0.883267
49239		7.632688	2.603931	5.643730	-0.082788	0.034303	0.205117	-0.836182	-0.373535	0.024902	-0.090172	-0.442160	-0.124596	-0.883651
49240		7.394466	2.857553	5.663635	-0.090604	0.032808	0.227174	-0.838379	-0.377197	0.029297	-0.088758	-0.442053	-0.123148	-0.884051
49241		7.229976	2.977791	5.658591	-0.089381	0.015745	0.214611	-0.836426	-0.370117	0.029053	-0.087449	-0.442058	-0.121743	-0.884373
49242		7.131916	3.165359	5.738874	-0.085465	-0.004769	0.194690	-0.835693	-0.374023	0.032471	-0.086293	-0.442196	-0.120426	-0.884598
49243		6.960130	3.214268	5.827304	-0.081118	-0.019891	0.157000	-0.836426	-0.363037	0.029297	-0.085414	-0.442409	-0.119270	-0.884733
49244		6.997425	3.278532	5.916550	-0.069188	-0.021303	0.114861	-0.838623	-0.365234	0.024414	-0.084803	-0.442598	-0.118358	-0.884820
49245		7.085561	3.233408	5.956162	-0.057114	-0.002590	0.084954	-0.838135	-0.361328	0.030518	-0.084349	-0.442627	-0.117660	-0.884942
49246		7.092375	3.128181	5.856444	-0.038751	0.020863	0.064583	-0.836914	-0.358154	0.030518	-0.083955	-0.442475	-0.117191	-0.885118
49247		7.145463	3.047844	5.769898	-0.023766	0.034795	0.053109	-0.833496	-0.361328	0.028564	-0.083577	-0.442219	-0.116885	-0.885322
49248		7.157055	3.023339	5.736137	-0.019391	0.031019	0.044204	-0.838135	-0.365967	0.026367	-0.083252	-0.441984	-0.116643	-0.885502
49249		7.373457	2.929769	5.702969	-0.024807	0.024255	0.026891	-0.839844	-0.354736	0.031982	-0.083082	-0.441779	-0.116422	-0.885649
49250		7.479417	2.847243	5.619323	-0.030887	0.026370	0.025726	-0.832031	-0.352051	0.032715	-0.082941	-0.441554	-0.116162	-0.885809
49251		7.614677	2.780338	5.548675	-0.033123	0.021792	0.042280	-0.836426	-0.354248	0.030518	-0.082690	-0.441377	-0.115821	-0.885965
49252		7.497648	2.805118	5.422212	-0.022379	0.008720	0.069095	-0.833008	-0.359619	0.028320	-0.082214	-0.441330	-0.115453	-0.886081
49253		7.241452	2.896071	5.488983	-0.003020	-0.033590	0.077494	-0.843018	-0.359619	0.022461	-0.081646	-0.441618	-0.115168	-0.886027
49254		7.276555	3.069182	5.717481	0.010990	-0.080544	0.042329	-0.841309	-0.354492	0.029785	-0.081330	-0.442228	-0.115086	-0.885763
49255		7.457053	3.155445	5.922273	-0.010708	-0.086197	-0.006093	-0.837402	-0.355225	0.032471	-0.081458	-0.442818	-0.115018	-0.885464
49256		7.547889	2.998220	5.913296	-0.060305	-0.069837	-0.027051	-0.827881	-0.361084	0.032227	-0.081908	-0.443234	-0.114674	-0.885259
49257		7.522473	2.747657	5.783739	-0.087404	-0.057366	-0.027036	-0.840332	-0.357178	0.031250	-0.082446	-0.443539	-0.114140	-0.885126
49258		7.444275	2.548925	5.653779	-0.080856	-0.072426	-0.023953	-0.837158	-0.359619	0.031250	-0.082951	-0.443962	-0.113632	-0.884932
49259		7.466066	2.470755	5.643856	-0.062811	-0.096386	-0.027441	-0.833252	-0.359863	0.032227	-0.083437	-0.444572	-0.113253	-0.884629
49260		7.411879	2.440799	5.729076	-0.068925	-0.131551	-0.034981	-0.838867	-0.351318	0.035400	-0.084035	-0.445429	-0.112832	-0.884195
49261		7.516444	2.296318	5.910951	-0.090478	-0.163557	-0.035692	-0.837402	-0.350342	0.035156	-0.084748	-0.446505	-0.112232	-0.883660
49262		7.597473	2.113737	6.048390	-0.085385	-0.170561	-0.056201	-0.837158	-0.354736	0.041016	-0.085599	-0.447616	-0.111740	-0.883078
49263		7.589395	1.904098	6.175413	-0.093672	-0.169738	-0.079384	-0.839111	-0.356934	0.034912	-0.086650	-0.448692	-0.111271	-0.882488
49264		7.588162	1.750375	6.230868	-0.127351	-0.186172	-0.096884	-0.840088	-0.353760	0.042725	-0.087970	-0.449847	-0.110607	-0.881853
49265		7.660238	1.587467	6.383760	-0.198537	-0.206634	-0.095765	-0.838623	-0.358398	0.047119	-0.089567	-0.451098	-0.109397	-0.881204
49266		7.846941	1.270896	6.473752	-0.243086	-0.209742	-0.096290	-0.839355	-0.364258	0.048584	-0.091337	-0.452335	-0.107856	-0.880578
49267		8.053738	0.909806	6.556379	-0.244830	-0.192670	-0.096341	-0.830078	-0.355469	0.045654	-0.093098	-0.453441	-0.106310	-0.880012
49268		8.166697	0.464689	6.556777	-0.217311	-0.175448	-0.078929	-0.834229	-0.360107	0.059326	-0.094609	-0.454455	-0.104909	-0.879496
49269		8.345246	0.135642	6.626975	-0.155256	-0.165301	-0.063341	-0.831543	-0.360352	0.056396	-0.095762	-0.455455	-0.103905	-0.878973
49270		8.588065	-0.003482	6.683281	-0.150393	-0.160175	-0.018634	-0.833496	-0.357422	0.060547	-0.096562	-0.456458	-0.102764	-0.878500
49271		8.647003	-0.149720	6.712371	-0.213843	-0.160532	0.072995	-0.837646	-0.359863	0.056641	-0.096932	-0.457489	-0.100802	-0.878150
49272		8.640107	-0.295423	6.900255	-0.291471	-0.180473	0.176624	-0.843994	-0.354736	0.067383	-0.096853	-0.458688	-0.097853	-0.877867
49273		8.690328	-0.358920	7.123595	-0.356393	-0.197116	0.267222	-0.839844	-0.351074	0.068359	-0.096371	-0.460023	-0.094060	-0.877636
49274		8.624453	-0.473323	7.373643	-0.390357	-0.203422	0.313464	-0.839111	-0.337402	0.076904	-0.095682	-0.461404	-0.089827	-0.877430
49275		8.571071	-0.483170	7.651651	-0.430447	-0.215762	0.345831	-0.833496	-0.337891	0.081543	-0.094916	-0.462856	-0.085156	-0.877214
49276		8.838956	-0.660938	7.967153	-0.477994	-0.196074	0.376306	-0.836426	-0.330811	0.079346	-0.094092	-0.464133	-0.080027	-0.877110
49277		9.064558	-0.720177	8.164413	-0.526024	-0.137354	0.427911	-0.828857	-0.324463	0.085938	-0.093032	-0.464962	-0.074382	-0.877281
49278		9.121328	-0.884694	8.195670	-0.588603	-0.060562	0.544568	-0.840332	-0.312744	0.087891	-0.091309	-0.465232	-0.067877	-0.877847
49279		9.162034	-0.937093	8.248298	-0.619011	0.017338	0.677141	-0.832031	-0.297119	0.082275	-0.088683	-0.464957	-0.060683	-0.878788
49280		9.058004	-0.761507	8.212887	-0.626630	0.083329	0.813907	-0.825928	-0.292725	0.082275	-0.085044	-0.464227	-0.052941	-0.880033
49281		9.015569	-0.416310	8.161611	-0.610708	0.152668	0.908892	-0.836426	-0.281494	0.078613	-0.080607	-0.463002	-0.044987	-0.881537
49282		8.811712	-0.189508	8.089114	-0.598414	0.205729	0.957738	-0.834717	-0.259033	0.074463	-0.075735	-0.461368	-0.036962	-0.883197
49283		8.729374	-0.258132	8.137197	-0.566336	0.238002	0.951934	-0.836914	-0.244873	0.071045	-0.070765	-0.459469	-0.029209	-0.884889
49284		8.688476	-0.310973	8.236312	-0.577137	0.251963	0.953314	-0.826660	-0.237549	0.073730	-0.065814	-0.457414	-0.021374	-0.886557
49285		8.847017	-0.444695	8.443235	-0.617634	0.260662	0.981607	-0.835449	-0.214844	0.076660	-0.060800	-0.455230	-0.013132	-0.888198
49286		9.188273	-0.676826	8.598411	-0.647778	0.308041	1.026258	-0.838623	-0.191650	0.063477	-0.055557	-0.452633	-0.004518	-0.889953
49287		9.465703	-0.982425	8.578230	-0.612690	0.402160	1.069743	-0.833008	-0.182617	0.061768	-0.049848	-0.449299	0.003958	-0.891981
49288		9.547657	-1.058091	8.328940	-0.579966	0.513006	1.168791	-0.827148	-0.169922	0.055420	-0.043276	-0.445090	0.012518	-0.894352
49289		9.412880	-1.240405	8.030442	-0.529041	0.597356	1.287263	-0.820312	-0.142334	0.061523	-0.035634	-0.440188	0.021107	-0.896950
49290		9.393755	-1.147222	7.972771	-0.437741	0.626043	1.344047	-0.801758	-0.120850	0.046387	-0.027232	-0.435013	0.029211	-0.899538
49291		9.389425	-0.887490	8.017683	-0.414515	0.634652	1.365419	-0.813477	-0.100098	0.039062	-0.018583	-0.429696	0.037212	-0.902015
49292		9.414093	-0.777520	8.084108	-0.450721	0.650618	1.375281	-0.808594	-0.073486	0.031738	-0.009991	-0.424172	0.045509	-0.904382
49293		9.218571	-0.820667	8.075329	-0.514960	0.676821	1.399293	-0.791992	-0.050293	0.010742	-0.001453	-0.418357	0.054363	-0.906653
49294		9.085546	-0.793093	8.079338	-0.546179	0.681592	1.421243	-0.774414	-0.028564	0.011963	0.007139	-0.412412	0.063516	-0.908753
49295		9.167753	-0.626320	8.022697	-0.559095	0.693289	1.413613	-0.770996	-0.005127	0.009033	0.015621	-0.406300	0.072725	-0.910707
49296		8.975261	-0.567326	7.810047	-0.592477	0.691597	1.370823	-0.760498	0.004395	0.006104	0.023663	-0.400152	0.082022	-0.912464
49297		8.565452	-0.503995	7.676379	-0.675031	0.636403	1.350775	-0.747559	0.036133	0.007324	0.031311	-0.394377	0.091849	-0.913811
49298		8.732797	-0.721903	7.682545	-0.734095	0.581527	1.324994	-0.735840	0.048828	-0.010742	0.038603	-0.388981	0.102002	-0.914767
49299		8.868539	-0.746112	7.561818	-0.735944	0.591706	1.289357	-0.725586	0.068848	-0.008545	0.045603	-0.383467	0.112032	-0.915599
49300		8.625711	-0.782835	7.285407	-0.751955	0.605726	1.285782	-0.708252	0.090576	-0.012939	0.052502	-0.377788	0.122150	-0.916296
49301		8.652410	-0.884403	6.996332	-0.748328	0.601072	1.277942	-0.697266	0.101562	-0.012207	0.059348	-0.372085	0.132185	-0.916820
49302		8.242628	-1.158748	6.733965	-0.700521	0.592128	1.242435	-0.684082	0.117676	-0.006348	0.066069	-0.366403	0.141709	-0.917225
49303		7.875001	-1.315169	6.676567	-0.640555	0.545211	1.195184	-0.674805	0.132568	-0.021484	0.072657	-0.361049	0.150575	-0.917438
49304		7.821648	-1.385716	6.695833	-0.630456	0.515118	1.172680	-0.662842	0.150391	-0.018555	0.079129	-0.355896	0.159248	-0.917451
49305		7.642351	-1.383964	6.717315	-0.643544	0.512883	1.180363	-0.652588	0.161865	-0.026367	0.085613	-0.350711	0.168013	-0.917303
49306		7.429952	-1.557064	6.548932	-0.596176	0.534290	1.198960	-0.642090	0.176025	-0.009521	0.092334	-0.345254	0.176453	-0.917136
49307		7.208453	-1.519918	6.260174	-0.510119	0.550932	1.148062	-0.628906	0.190674	-0.010010	0.098876	-0.339635	0.184069	-0.917055
49308		6.616176	-1.442374	5.929048	-0.508746	0.493481	1.072009	-0.612305	0.208008	-0.028564	0.104915	-0.334532	0.191382	-0.916763
49309		5.940384	-1.440021	6.036323	-0.603912	0.333020	1.002260	-0.607666	0.218750	-0.011719	0.110400	-0.330817	0.199059	-0.915832
49310		5.860516	-1.550316	6.439996	-0.675405	0.195457	0.925485	-0.601807	0.225586	-0.013916	0.115319	-0.328314	0.206915	-0.914383
49311		6.434890	-1.865174	6.714838	-0.671617	0.201073	0.823526	-0.600830	0.239746	-0.005127	0.119452	-0.325915	0.214444	-0.912976
49312		6.477915	-2.341511	6.339582	-0.639397	0.306946	0.748241	-0.583008	0.247314	-0.008057	0.122902	-0.322791	0.221603	-0.911917
49313		5.550576	-2.868970	5.730062	-0.641254	0.302352	0.792571	-0.580566	0.260498	-0.005615	0.126682	-0.319601	0.228867	-0.910729
49314		5.597726	-2.579770	5.658908	-0.622389	0.221687	0.893221	-0.574463	0.270508	-0.002686	0.131419	-0.316788	0.236148	-0.909180
49315		6.154913	-2.392054	5.554937	-0.534879	0.301947	0.941796	-0.556396	0.278076	-0.004883	0.136585	-0.313151	0.242955	-0.907884
49316		5.260367	-2.226739	4.831728	-0.416455	0.400498	0.966845	-0.550537	0.291016	-0.003174	0.142038	-0.308561	0.249017	-0.906976
49317		4.180057	-2.155585	4.404646	-0.306921	0.313629	1.006652	-0.541992	0.301758	-0.012207	0.148240	-0.304394	0.254222	-0.905947
49318		3.909520	-1.290635	4.678036	-0.237103	0.164029	0.973595	-0.533447	0.309326	-0.005859	0.154675	-0.301318	0.258608	-0.904657
49319		4.261597	-0.400507	5.136660	-0.281998	0.128795	0.909614	-0.523926	0.312012	-0.003418	0.160581	-0.298687	0.263102	-0.903204
49320		4.236210	-0.339338	4.910466	-0.331973	0.219761	0.771722	-0.516113	0.329102	-0.005615	0.165115	-0.295725	0.267724	-0.902002
49321		3.372151	-0.924679	4.166912	-0.308263	0.245039	0.598238	-0.516602	0.327881	-0.002686	0.168340	-0.292919	0.271753	-0.901116
49322		2.418458	-1.367116	3.952318	-0.236494	0.053995	0.467378	-0.513428	0.338135	-0.008057	0.171186	-0.291737	0.274642	-0.900087
49323		3.040835	-1.418753	4.592519	-0.168009	-0.113918	0.426429	-0.505127	0.347412	-0.003418	0.174273	-0.291806	0.276668	-0.898851
49324		3.405801	-1.217409	5.226942	-0.035181	-0.081455	0.366088	-0.499023	0.336914	0.000244	0.177155	-0.291576	0.277591	-0.898077
49325		3.796674	-0.451622	5.132478	-0.035558	0.076760	0.282795	-0.494141	0.348877	-0.008545	0.179044	-0.290354	0.278537	-0.897806
49326		2.469088	-1.228755	4.280043	-0.145522	0.158652	0.267680	-0.497314	0.354492	-0.004395	0.180364	-0.288719	0.280379	-0.897495
49327		1.542624	-2.112053	4.176993	0.059521	0.011803	0.172937	-0.493408	0.347412	-0.010010	0.181811	-0.288095	0.280231	-0.897450
49328		1.713767	-1.335802	5.178466	0.268708	-0.125231	0.159862	-0.492920	0.353271	-0.005371	0.183983	-0.288205	0.278277	-0.897580
49329		2.119401	0.103542	6.184099	0.277195	-0.071471	0.234419	-0.499512	0.357910	-0.006592	0.186607	-0.287722	0.276511	-0.897739
49330		2.825386	1.318241	6.293323	0.167209	0.159985	0.259089	-0.488281	0.356201	-0.009033	0.188620	-0.285617	0.275973	-0.898156
49331		3.770673	1.386233	5.308698	0.116443	0.494724	0.091016	-0.482178	0.357422	-0.011230	0.188483	-0.281468	0.275923	-0.899509
49332		2.572502	0.794788	3.568307	0.145826	0.709595	-0.115950	-0.483398	0.356445	-0.018555	0.186367	-0.276132	0.275481	-0.901737
49333		0.616577	0.271333	2.675954	0.222419	0.435948	-0.230732	-0.490723	0.358398	-0.024658	0.184188	-0.272989	0.273758	-0.903664
49334		1.298786	0.691868	3.126924	0.346558	0.006368	-0.295829	-0.493652	0.342041	-0.035645	0.182779	-0.273032	0.270283	-0.904982
49335		2.935203	1.949848	4.097014	0.427742	-0.130559	-0.423777	-0.491211	0.338379	-0.029541	0.180895	-0.274264	0.265684	-0.906349
49336		3.953511	2.131194	4.382283	0.454404	-0.021027	-0.632129	-0.497070	0.335693	-0.037598	0.177248	-0.275082	0.260549	-0.908310
49337		4.429518	2.237194	3.924536	0.490477	0.103943	-0.886698	-0.515381	0.320801	-0.038818	0.171476	-0.275438	0.254713	-0.910962
49338		3.987864	1.407053	3.278272	0.516081	0.090251	-1.058994	-0.518555	0.323242	-0.045654	0.164466	-0.276207	0.248231	-0.913806
49339		4.151593	0.652984	3.155207	0.655882	-0.120006	-1.219523	-0.527832	0.290771	-0.047607	0.156970	-0.278686	0.239986	-0.916570
49340		4.893327	0.705170	3.639678	0.783102	-0.362154	-1.352019	-0.538574	0.289551	-0.050537	0.149214	-0.283071	0.230099	-0.919054
49341		5.292266	0.609848	4.525702	0.818763	-0.565104	-1.427433	-0.561279	0.268555	-0.055420	0.141319	-0.289057	0.219452	-0.921041
49342		6.155659	0.495449	5.507729	0.895287	-0.680203	-1.549169	-0.572021	0.247803	-0.055420	0.132846	-0.295992	0.207727	-0.922816
49343		6.673602	0.116303	6.174489	0.973823	-0.724119	-1.754402	-0.586182	0.232666	-0.053467	0.123022	-0.303448	0.194772	-0.924580
49344		6.799750	-0.315580	6.671085	1.042548	-0.815815	-2.019860	-0.608154	0.207764	-0.049561	0.111424	-0.311860	0.180439	-0.926159
49345		7.362973	-0.490753	7.220065	0.913056	-0.964812	-2.160685	-0.622559	0.169678	-0.047119	0.098573	-0.321618	0.166513	-0.926887
49346		8.490310	-1.304161	7.827467	0.738164	-1.039908	-2.172621	-0.642090	0.158936	-0.040771	0.085214	-0.331968	0.153760	-0.926765
49347		9.351679	-2.299775	8.299482	0.691755	-0.999270	-2.153773	-0.671875	0.128906	-0.039551	0.071775	-0.341865	0.141373	-0.926277
49348		9.721506	-3.045106	8.594255	0.735877	-0.921204	-2.063204	-0.680176	0.100830	-0.042969	0.059031	-0.350884	0.128890	-0.925626
49349		9.820542	-3.350491	8.742899	0.752630	-0.838079	-1.850855	-0.705322	0.080078	-0.031982	0.047858	-0.358895	0.116894	-0.924792
49350		9.833582	-3.679817	8.866631	0.807914	-0.763292	-1.648344	-0.719482	0.052490	-0.032471	0.038318	-0.365999	0.105076	-0.923870
49351		9.587660	-3.528476	9.076262	0.849514	-0.729840	-1.504869	-0.727539	0.025146	-0.020020	0.029966	-0.372607	0.093365	-0.922794
49352		9.694120	-3.400151	9.372274	0.857471	-0.722486	-1.461370	-0.744141	0.019531	-0.022705	0.021957	-0.379029	0.081714	-0.921508
49353		9.734143	-2.767759	9.549919	0.750485	-0.682790	-1.412415	-0.763428	-0.009521	-0.023926	0.013951	-0.385043	0.071037	-0.920055
49354		9.932964	-3.070780	9.553263	0.596755	-0.592637	-1.273790	-0.774658	-0.027100	-0.014893	0.006457	-0.390225	0.061988	-0.918608
49355		9.926319	-3.315975	9.284592	0.665354	-0.460789	-1.178242	-0.780518	-0.053223	-0.017578	-0.000154	-0.394281	0.052732	-0.917476
49356		9.650197	-3.155974	8.920834	0.776473	-0.373334	-1.053508	-0.793213	-0.072510	-0.012695	-0.005485	-0.397555	0.043040	-0.916552
49357		9.731236	-2.686326	8.769824	0.870738	-0.325799	-0.980553	-0.803467	-0.084473	-0.006836	-0.009963	-0.400391	0.032874	-0.915700
49358		9.501075	-2.685403	8.525175	0.867658	-0.288096	-0.928867	-0.801025	-0.104492	-0.016113	-0.014066	-0.402873	0.022909	-0.914861
49359		9.147348	-2.588655	8.346461	0.845451	-0.309683	-0.889839	-0.813721	-0.126953	-0.011475	-0.017940	-0.405461	0.013255	-0.913840
49360		9.165716	-2.066529	8.544327	0.729166	-0.373412	-0.811302	-0.818115	-0.142090	-0.012451	-0.021599	-0.408464	0.004773	-0.912506
49361		9.549875	-1.580734	8.643980	0.558990	-0.336678	-0.681999	-0.822021	-0.156738	-0.002686	-0.024854	-0.411119	-0.001970	-0.911241
49362		9.200390	-1.832661	8.289980	0.554817	-0.217752	-0.588123	-0.825195	-0.168213	-0.006592	-0.027406	-0.412846	-0.008375	-0.910350
49363		8.713740	-1.876088	7.976329	0.741911	-0.153595	-0.565823	-0.822510	-0.177246	-0.002930	-0.029139	-0.414107	-0.016126	-0.909619
49364		8.462185	-1.174913	7.888932	0.811420	-0.166822	-0.502654	-0.827881	-0.186523	0.004639	-0.030151	-0.415465	-0.024170	-0.908788
49365		8.553667	-0.648840	7.986883	0.753977	-0.175367	-0.448372	-0.831055	-0.197266	0.007324	-0.030951	-0.416858	-0.031578	-0.907896
49366		8.850895	-0.315331	7.994776	0.656002	-0.126305	-0.413346	-0.827393	-0.208496	0.001709	-0.031810	-0.417841	-0.038126	-0.907162
49367		8.904779	-0.522096	7.583165	0.623329	-0.043420	-0.383304	-0.832520	-0.214355	0.000732	-0.032528	-0.418181	-0.044336	-0.906698
49368		8.367276	-0.399091	7.079859	0.636659	-0.008493	-0.291912	-0.830078	-0.213623	0.002441	-0.032494	-0.418279	-0.050327	-0.906341
49369		8.026237	-0.017529	6.973680	0.631815	-0.043919	-0.122434	-0.831055	-0.220459	-0.004395	-0.031209	-0.418701	-0.055673	-0.905878
49370		7.880878	0.157036	7.134758	0.739428	-0.058357	-0.068496	-0.827637	-0.226562	0.008301	-0.029147	-0.419272	-0.061631	-0.905297
49371		7.794442	0.798537	7.196441	0.862306	-0.052130	-0.140277	-0.841064	-0.234375	0.006104	-0.027192	-0.419768	-0.068759	-0.904615
49372		7.413258	1.665759	7.202980	0.766450	-0.077855	-0.189472	-0.834717	-0.234375	0.009277	-0.025956	-0.420387	-0.075324	-0.903840
49373		7.104661	2.028387	7.300424	0.533350	-0.167065	-0.206510	-0.834229	-0.240967	0.010742	-0.025720	-0.421600	-0.080168	-0.902865
49374		7.368529	1.961069	7.477602	0.392609	-0.215157	-0.269186	-0.834473	-0.240234	0.009766	-0.026481	-0.423092	-0.084161	-0.901781
49375		7.500994	1.848966	7.456892	0.395681	-0.181597	-0.348275	-0.829346	-0.254150	0.013916	-0.027802	-0.424265	-0.088460	-0.900778
49376		7.503823	1.462477	7.262169	0.485930	-0.134861	-0.408910	-0.833008	-0.265137	0.001465	-0.029224	-0.425051	-0.093656	-0.899837
49377		7.556184	1.254926	7.148822	0.577604	-0.123586	-0.429408	-0.823730	-0.276123	0.006104	-0.030465	-0.425743	-0.099610	-0.898829
49378		7.638851	1.117767	7.178049	0.598478	-0.131792	-0.377905	-0.834717	-0.276611	0.015381	-0.031251	-0.426527	-0.105526	-0.897754
49379		7.761941	1.153655	7.293936	0.589283	-0.132038	-0.315259	-0.836426	-0.285156	0.011230	-0.031600	-0.427349	-0.111144	-0.896672
49380		7.832402	1.279951	7.333461	0.563246	-0.107573	-0.290539	-0.837402	-0.294922	0.018555	-0.031833	-0.427991	-0.116477	-0.895681
49381		7.716261	1.428963	7.209563	0.510046	-0.087541	-0.278028	-0.832275	-0.293457	0.021729	-0.032142	-0.428468	-0.121365	-0.894792
49382		7.637296	1.394151	7.060371	0.445997	-0.087201	-0.258823	-0.827881	-0.294922	0.020020	-0.032535	-0.428935	-0.125701	-0.893955
49383		7.494834	1.471452	6.937533	0.406148	-0.111687	-0.240227	-0.831543	-0.305420	0.023193	-0.032956	-0.429584	-0.129660	-0.893062
49384		7.427799	1.576856	6.934754	0.373135	-0.146657	-0.227467	-0.835693	-0.302246	0.021484	-0.033438	-0.430491	-0.133313	-0.892069
49385		7.466347	1.714480	7.016401	0.356447	-0.166265	-0.247347	-0.837646	-0.316406	0.016357	-0.034148	-0.431509	-0.136901	-0.891006
49386		7.525115	1.692798	7.077277	0.302749	-0.176629	-0.285664	-0.827637	-0.319336	0.021729	-0.035347	-0.432538	-0.140220	-0.889944
49387		7.552474	1.480752	7.022771	0.224690	-0.178647	-0.313084	-0.840332	-0.328857	0.025146	-0.037032	-0.433519	-0.143052	-0.888946
49388		7.559190	1.132018	6.985638	0.150250	-0.191538	-0.290880	-0.841309	-0.326172	0.028809	-0.038836	-0.434594	-0.145242	-0.887989
49389		7.587733	0.990225	7.062957	0.133073	-0.197533	-0.223524	-0.833740	-0.338379	0.030029	-0.040210	-0.435785	-0.147054	-0.887046
49390		7.648880	1.040701	7.280374	0.166264	-0.173822	-0.162322	-0.829346	-0.331787	0.028076	-0.040981	-0.436883	-0.148889	-0.886164
49391		7.646752	1.320476	7.387950	0.189952	-0.124811	-0.118672	-0.838623	-0.335449	0.028809	-0.041282	-0.437677	-0.150751	-0.885442
49392		7.616746	1.419777	7.400052	0.175726	-0.063771	-0.082723	-0.841064	-0.341309	0.027832	-0.041291	-0.438059	-0.152393	-0.884972
49393		7.526918	1.481644	7.321910	0.155686	-0.009416	-0.040182	-0.842285	-0.343994	0.021484	-0.040991	-0.438085	-0.153745	-0.884740
49394		7.614798	1.690021	7.205259	0.127224	0.056823	0.025863	-0.838379	-0.337646	0.029053	-0.040222	-0.437695	-0.154664	-0.884808
49395		7.723119	1.789590	6.946799	0.114793	0.135464	0.070914	-0.834473	-0.335693	0.023926	-0.039064	-0.436776	-0.155350	-0.885193
49396		7.680123	1.895060	6.553013	0.112374	0.193687	0.094561	-0.839600	-0.344482	0.022705	-0.037664	-0.435456	-0.155946	-0.885799
49397		7.415663	2.092224	6.201197	0.075795	0.191974	0.117524	-0.844238	-0.337646	0.018066	-0.036230	-0.434165	-0.156186	-0.886450
49398		7.300496	2.218183	6.012549	0.006998	0.135666	0.141269	-0.835449	-0.341553	0.017822	-0.034942	-0.433298	-0.155812	-0.886992
49399		7.326916	2.323603	5.954556	-0.043626	0.077028	0.159687	-0.832031	-0.331055	0.026855	-0.033776	-0.432873	-0.154978	-0.887391
49400		7.226652	2.414745	5.930936	-0.057460	0.029894	0.150304	-0.841553	-0.333984	0.019531	-0.032790	-0.432780	-0.154061	-0.887633
49401		7.155865	2.590749	6.014089	-0.072153	-0.013152	0.136242	-0.842285	-0.328857	0.020020	-0.032016	-0.432982	-0.153073	-0.887733
49402		7.230439	2.800511	6.091212	-0.095173	-0.038973	0.112203	-0.833496	-0.331299	0.020020	-0.031536	-0.433338	-0.151994	-0.887762
49403		7.234061	2.924809	6.176244	-0.130438	-0.047689	0.068316	-0.844971	-0.322754	0.013916	-0.031518	-0.433692	-0.150811	-0.887792
49404		7.223820	3.019456	6.119546	-0.177320	-0.050673	0.038231	-0.839844	-0.321533	0.019043	-0.031896	-0.434017	-0.149388	-0.887860
49405		7.253196	2.964547	6.072244	-0.220191	-0.051996	0.023166	-0.836426	-0.323242	0.020996	-0.032543	-0.434320	-0.147703	-0.887970
49406		7.357552	2.800708	6.016888	-0.209277	-0.038899	0.001164	-0.842773	-0.325195	0.019043	-0.033296	-0.434500	-0.146181	-0.888106
49407		7.501361	2.712700	5.942153	-0.163874	-0.016173	-0.016187	-0.844482	-0.325684	0.013672	-0.033985	-0.434502	-0.145065	-0.888262
49408		7.586220	2.638789	5.799825	-0.136422	0.003785	-0.005791	-0.846680	-0.318604	0.012451	-0.034474	-0.434377	-0.144119	-0.888458
49409		7.611828	2.617235	5.663976	-0.112648	0.014314	0.031242	-0.844482	-0.324951	0.013916	-0.034589	-0.434225	-0.143218	-0.888674
49410		7.491469	2.631502	5.611292	-0.094334	0.004857	0.065485	-0.842529	-0.319580	0.015381	-0.034396	-0.434189	-0.142326	-0.888842
49411		7.453292	2.786102	5.636696	-0.074097	-0.016854	0.082649	-0.847412	-0.321289	0.017090	-0.034028	-0.434341	-0.141515	-0.888911
49412		7.287999	2.903808	5.691934	-0.056422	-0.033993	0.072240	-0.834717	-0.313965	0.015381	-0.033694	-0.434613	-0.140869	-0.888894
49413		7.201330	2.988727	5.741524	-0.066433	-0.052508	0.044839	-0.828613	-0.318604	0.017334	-0.033620	-0.434987	-0.140243	-0.888813
49414		7.165413	3.014311	5.814886	-0.095688	-0.062928	0.013401	-0.840820	-0.316162	0.019043	-0.033898	-0.435392	-0.139512	-0.888719
49415		7.168595	3.031057	5.820043	-0.133586	-0.065888	-0.006953	-0.839600	-0.314209	0.027588	-0.034467	-0.435785	-0.138575	-0.888651
49416		7.090602	2.933345	5.816518	-0.154321	-0.056686	-0.008563	-0.837402	-0.312012	0.023438	-0.035113	-0.436100	-0.137493	-0.888639
49417		7.076448	2.913291	5.838039	-0.135812	-0.055052	-0.018104	-0.839844	-0.315186	0.020020	-0.035761	-0.436397	-0.136585	-0.888607
49418		7.171710	2.876360	5.930480	-0.100955	-0.042782	-0.037379	-0.845215	-0.317871	0.016357	-0.036410	-0.436591	-0.136009	-0.888574
49419		7.327683	2.899178	5.956733	-0.087433	-0.029339	-0.061021	-0.846924	-0.319336	0.011475	-0.037170	-0.436662	-0.135623	-0.888567
49420		7.417354	2.731302	5.877006	-0.096412	-0.011322	-0.060307	-0.845215	-0.317627	0.024170	-0.037938	-0.436596	-0.135175	-0.888635
49421		7.385166	2.531761	5.800895	-0.097221	-0.004397	-0.036519	-0.842529	-0.309082	0.019287	-0.038524	-0.436506	-0.134637	-0.888736
49422		7.331761	2.457757	5.811162	-0.058823	-0.014097	-0.011678	-0.841064	-0.313965	0.020508	-0.038797	-0.436527	-0.134289	-0.888766
49423		7.453855	2.608718	5.915763	-0.021089	-0.012160	0.000703	-0.851318	-0.314209	0.023926	-0.038840	-0.436561	-0.134176	-0.888765
49424		7.642186	2.620884	5.946837	-0.016929	0.003910	-0.003670	-0.842285	-0.322998	0.016113	-0.038881	-0.436471	-0.134115	-0.888816
49425		7.594865	2.592961	5.796470	-0.039435	0.017604	-0.003055	-0.845459	-0.324219	0.019531	-0.038984	-0.436274	-0.133889	-0.888943
49426		7.465702	2.388902	5.629906	-0.059730	-0.006645	0.012859	-0.846191	-0.318115	0.019531	-0.039071	-0.436268	-0.133447	-0.889008
49427		7.464267	2.354154	5.675342	-0.041030	-0.045770	0.013894	-0.842285	-0.314941	0.005859	-0.039125	-0.436559	-0.133127	-0.888911
49428		7.430987	2.375147	5.786425	-0.029281	-0.074214	-0.004924	-0.836182	-0.315918	0.016846	-0.039307	-0.437045	-0.132952	-0.888690
49429		7.374487	2.232215	5.992271	-0.043185	-0.105209	-0.040049	-0.844971	-0.312500	0.024902	-0.039834	-0.437716	-0.132792	-0.888360
49430		7.435546	2.177414	6.207537	-0.086406	-0.140371	-0.085373	-0.839844	-0.321289	0.029297	-0.040893	-0.438583	-0.132464	-0.887934
49431		7.503420	1.896994	6.341190	-0.158720	-0.150271	-0.087318	-0.844482	-0.314209	0.025391	-0.042241	-0.439494	-0.131603	-0.887548
49432		7.496548	1.556958	6.467136	-0.184887	-0.151077	-0.073426	-0.837402	-0.321533	0.026367	-0.043583	-0.440415	-0.130495	-0.887190
49433		7.550248	1.476375	6.603583	-0.186802	-0.144937	-0.049441	-0.845215	-0.322754	0.035156	-0.044747	-0.441313	-0.129283	-0.886863
49434		7.667716	1.298698	6.719814	-0.172055	-0.122155	-0.020134	-0.837158	-0.314209	0.030273	-0.045614	-0.442078	-0.128078	-0.886613
49435		7.783620	1.233776	6.761231	-0.155135	-0.091635	-0.008991	-0.842529	-0.317871	0.034180	-0.046304	-0.442634	-0.126964	-0.886460
49436		7.829891	1.079534	6.711763	-0.182281	-0.075169	-0.016255	-0.844238	-0.319092	0.034424	-0.047129	-0.443049	-0.125679	-0.886392
49437		7.901346	0.940915	6.610481	-0.249105	-0.091840	-0.043440	-0.840332	-0.313477	0.042480	-0.048418	-0.443530	-0.123989	-0.886320
49438		8.099517	0.618916	6.582090	-0.348591	-0.126870	-0.052109	-0.838379	-0.315186	0.046875	-0.050174	-0.444217	-0.121577	-0.886213
49439		8.168044	0.085428	6.607474	-0.397628	-0.172852	-0.063117	-0.830322	-0.311279	0.037109	-0.052237	-0.445207	-0.118818	-0.885971
49440		8.236671	-0.318574	6.790100	-0.390865	-0.225808	-0.071944	-0.840576	-0.321045	0.039795	-0.054391	-0.446576	-0.116110	-0.885511
49441		8.415600	-0.635751	7.107301	-0.381279	-0.264198	-0.052262	-0.838135	-0.309326	0.054443	-0.056398	-0.448247	-0.113374	-0.884896
49442		8.654537	-1.028489	7.453987	-0.368690	-0.265072	-0.001188	-0.842285	-0.320557	0.052490	-0.057980	-0.449971	-0.110528	-0.884278
49443		8.841081	-1.409874	7.844179	-0.351581	-0.232694	0.091710	-0.843262	-0.315186	0.059814	-0.058780	-0.451544	-0.107465	-0.883801
49444		9.123947	-2.015253	8.375699	-0.295966	-0.157426	0.221583	-0.832031	-0.315674	0.067139	-0.058344	-0.452700	-0.104349	-0.883612
49445		9.403062	-2.127007	8.834169	-0.224912	-0.041095	0.382820	-0.839111	-0.302979	0.067627	-0.056348	-0.453167	-0.101190	-0.883870
49446		9.611022	-1.771665	9.071647	-0.265225	0.114622	0.607141	-0.837891	-0.291016	0.061279	-0.052716	-0.452644	-0.096946	-0.884837
49447		9.627302	-1.242094	9.030593	-0.421034	0.281794	0.880066	-0.832031	-0.280518	0.057617	-0.047520	-0.451013	-0.090581	-0.886637
49448		9.371582	-0.888627	8.695718	-0.511312	0.421117	1.072189	-0.838867	-0.270752	0.054443	-0.041132	-0.448416	-0.082864	-0.889025
49449		8.989208	-0.396997	8.327622	-0.516556	0.483099	1.153397	-0.835938	-0.244629	0.050049	-0.034113	-0.445356	-0.074810	-0.891570
49450		8.667420	0.010007	8.106110	-0.507167	0.470251	1.148740	-0.833740	-0.227783	0.046387	-0.027097	-0.442331	-0.066824	-0.893948
49451		8.453548	0.354021	8.135945	-0.527004	0.396629	1.089622	-0.829346	-0.215332	0.045166	-0.020631	-0.439759	-0.058881	-0.895946
49452		8.295415	0.730848	8.371341	-0.626164	0.311788	1.025782	-0.831787	-0.197510	0.035645	-0.015043	-0.437720	-0.050409	-0.897571
49453		8.439657	0.679898	8.735901	-0.753946	0.271159	0.986597	-0.837646	-0.174561	0.036865	-0.010229	-0.435898	-0.041114	-0.898998
49454		8.575164	0.195580	8.878962	-0.786722	0.300115	0.950143	-0.823486	-0.159180	0.034912	-0.005795	-0.433791	-0.031704	-0.900437
49455		8.811936	-0.369002	8.982857	-0.699255	0.377668	0.907539	-0.818604	-0.147949	0.029053	-0.001343	-0.431043	-0.023104	-0.902035
49456		9.036239	-0.742487	8.962199	-0.641529	0.459997	0.932353	-0.814453	-0.129639	0.021240	0.003520	-0.427633	-0.014847	-0.903824
49457		9.246175	-1.176375	8.825029	-0.606588	0.548971	1.005985	-0.820068	-0.121582	0.011230	0.009073	-0.423509	-0.006585	-0.905823
49458		9.092527	-1.171705	8.747706	-0.609185	0.603056	1.122955	-0.816406	-0.097656	0.010986	0.015503	-0.418925	0.002116	-0.907886
49459		8.912829	-1.106394	8.725024	-0.642806	0.626234	1.257955	-0.800537	-0.074219	0.003174	0.022834	-0.414100	0.011546	-0.909872
49460		9.046048	-0.857939	8.828580	-0.593822	0.670663	1.300881	-0.792725	-0.060303	-0.000244	0.030652	-0.408849	0.020759	-0.911851
49461		9.111385	-0.300751	8.620665	-0.611455	0.739076	1.308166	-0.783691	-0.029785	-0.008789	0.038447	-0.403005	0.030142	-0.913893
49462		8.651563	-0.334396	8.257760	-0.674658	0.772802	1.281332	-0.775146	-0.012939	-0.024170	0.045810	-0.396854	0.039918	-0.915869
49463		8.422918	-0.286277	8.022199	-0.747793	0.721623	1.254390	-0.761719	0.004395	-0.022705	0.052733	-0.391053	0.050131	-0.917488
49464		8.711562	-0.300168	7.910139	-0.807625	0.687296	1.229682	-0.747559	0.026367	-0.034424	0.059276	-0.385478	0.060691	-0.918809
49465		8.760198	-0.396008	7.656952	-0.822167	0.707304	1.193829	-0.735107	0.048340	-0.035645	0.065477	-0.379703	0.071239	-0.920034
49466		8.313731	-0.719912	7.241196	-0.805172	0.694853	1.164046	-0.719971	0.064697	-0.040283	0.071499	-0.373966	0.081538	-0.921080
49467		7.375541	-1.534768	7.276941	-0.731990	0.607026	1.126196	-0.708740	0.082520	-0.040527	0.077505	-0.368826	0.091085	-0.921772
49468		7.464158	-2.165747	8.490036	-0.563110	0.472701	1.050340	-0.702637	0.097656	-0.044678	0.083540	-0.364616	0.098999	-0.922104
49469		8.678544	-2.245607	9.504325	-0.491835	0.490278	0.973334	-0.694336	0.107910	-0.044678	0.089175	-0.360244	0.106129	-0.922501
49470		9.043751	-2.650245	9.610582	-0.530287	0.646354	0.892180	-0.672363	0.122070	-0.041992	0.093924	-0.354736	0.113412	-0.923298
49471		8.677787	-2.728730	9.247773	-0.784700	0.727022	1.028813	-0.668457	0.124023	-0.043457	0.098884	-0.348631	0.123100	-0.923864
49472		9.186527	-3.170963	8.945765	-0.951525	0.790109	1.240564	-0.651611	0.150146	-0.051514	0.104905	-0.341898	0.134712	-0.924096
49473		10.018339	-2.964001	8.235292	-0.918472	0.976800	1.449625	-0.636230	0.171631	-0.048828	0.112395	-0.333382	0.146790	-0.924487
49474		9.944869	-3.063586	6.828079	-0.712050	1.236936	1.614294	-0.615723	0.184082	-0.053467	0.121373	-0.322374	0.157930	-0.925420
49475		8.906013	-2.519286	5.198500	-0.440794	1.337055	1.736342	-0.594482	0.215088	-0.059570	0.131845	-0.310059	0.167348	-0.926539
49476		7.375113	-1.587647	4.216190	-0.351893	1.174130	1.860538	-0.589111	0.227051	-0.075684	0.143683	-0.298631	0.176158	-0.926900
49477		6.258170	-0.599890	4.213432	-0.369736	0.852212	1.849327	-0.556152	0.252686	-0.070312	0.155814	-0.289639	0.184628	-0.926144
49478		6.235954	0.314670	4.555528	-0.436738	0.597979	1.674686	-0.543213	0.262207	-0.086426	0.166782	-0.282894	0.192807	-0.924652
49479		6.124695	0.601469	4.457313	-0.508629	0.506647	1.384081	-0.543213	0.277344	-0.085693	0.175452	-0.277369	0.200676	-0.923045
49480		4.646017	0.242424	4.101206	-0.597538	0.378598	1.114512	-0.512207	0.291016	-0.088867	0.182031	-0.273377	0.208378	-0.921254
49481		4.221749	-0.142404	4.232222	-0.644405	0.166561	0.960206	-0.502197	0.296875	-0.083008	0.187666	-0.271327	0.215734	-0.919033
49482		4.695630	-0.695493	4.618270	-0.543480	0.092841	0.808189	-0.499512	0.307861	-0.081055	0.192482	-0.269939	0.221832	-0.916992
49483		5.003677	-1.323319	4.570880	-0.388326	0.135758	0.671428	-0.496826	0.319336	-0.074463	0.196511	-0.268217	0.226485	-0.915504
49484		3.960668	-1.488332	4.392548	-0.358876	0.108318	0.691982	-0.491943	0.327881	-0.071045	0.200805	-0.266612	0.230898	-0.913938
49485		3.540440	-1.475837	4.568204	-0.396837	0.025742	0.882280	-0.476562	0.336914	-0.076904	0.206611	-0.265322	0.235866	-0.911747
49486		3.508503	-1.102645	4.810121	-0.249439	0.071176	0.969976	-0.470215	0.342529	-0.073975	0.213306	-0.263246	0.239965	-0.909736
49487		3.017986	-0.290770	4.878535	-0.030396	0.146704	0.894625	-0.464355	0.351318	-0.072998	0.219746	-0.260344	0.242351	-0.908405
49488		2.184007	0.828575	4.766095	-0.060808	0.118836	0.788195	-0.453613	0.358643	-0.077637	0.225359	-0.257912	0.244663	-0.907102
49489		1.801238	1.171202	4.743918	-0.264667	0.047654	0.677219	-0.445557	0.356445	-0.070801	0.229832	-0.256616	0.248124	-0.905406
49490		1.722088	0.666608	4.566063	-0.300303	0.016185	0.532138	-0.444092	0.371338	-0.083008	0.233194	-0.255917	0.251465	-0.903821
49491		1.732117	0.517308	4.380248	-0.149415	-0.022651	0.268663	-0.445557	0.364990	-0.077393	0.234972	-0.255764	0.253019	-0.902970
49492		1.627003	0.879779	4.191690	-0.139762	-0.106406	0.036155	-0.437744	0.367432	-0.068115	0.235198	-0.256710	0.253831	-0.902415
49493		2.114132	0.285432	4.255259	-0.229235	-0.153670	-0.073972	-0.434814	0.370605	-0.070312	0.234504	-0.258418	0.254977	-0.901784
49494		2.441258	-0.429092	4.150127	-0.143410	-0.094565	-0.109355	-0.439453	0.361084	-0.071777	0.233603	-0.259589	0.255509	-0.901531
49495		2.012910	-1.167488	3.912700	0.140147	-0.073552	-0.143460	-0.445312	0.373047	-0.071289	0.233014	-0.260122	0.253870	-0.901993
49496		1.584800	-0.269519	4.174367	0.315052	-0.196872	-0.159071	-0.443604	0.362793	-0.070068	0.232946	-0.261274	0.250636	-0.902582
49497		2.013595	0.266952	4.945748	0.281618	-0.286596	-0.212614	-0.448975	0.358643	-0.071777	0.232587	-0.263272	0.247355	-0.902999
49498		2.337954	0.734946	5.502023	0.232957	-0.266601	-0.384326	-0.459717	0.356201	-0.066895	0.230784	-0.265562	0.244088	-0.903680
49499		2.442731	0.201569	5.618771	0.221683	-0.215050	-0.563885	-0.460449	0.350586	-0.069824	0.227494	-0.267842	0.240591	-0.904778
49500		2.312404	-0.550006	5.523408	0.282491	-0.224458	-0.694940	-0.468018	0.346436	-0.065918	0.223363	-0.270329	0.236307	-0.906195
49501		2.507746	-0.737642	5.711084	0.377117	-0.311793	-0.788586	-0.473877	0.339844	-0.064453	0.218898	-0.273466	0.230916	-0.907732
49502		3.060676	-0.418500	6.141154	0.338752	-0.356334	-0.800365	-0.487061	0.323730	-0.066162	0.214329	-0.277014	0.225685	-0.909061
49503		3.880841	-0.585507	6.442569	0.339504	-0.296054	-0.827501	-0.492432	0.322998	-0.067383	0.209428	-0.280135	0.220471	-0.910525
49504		4.375018	-0.705555	6.319179	0.440206	-0.161102	-0.894316	-0.499023	0.309570	-0.072021	0.203993	-0.282159	0.214549	-0.912547
49505		4.222317	-1.069914	5.787813	0.538222	-0.121272	-0.942390	-0.509033	0.307373	-0.067383	0.198334	-0.283777	0.207811	-0.914849
49506		3.960221	-1.251184	5.689334	0.650794	-0.259302	-1.053644	-0.528320	0.295654	-0.077637	0.192311	-0.286426	0.199697	-0.917114
49507		4.236381	-0.624784	6.281117	0.585997	-0.472395	-1.141290	-0.519287	0.280273	-0.072021	0.185793	-0.290917	0.191499	-0.918791
49508		5.370344	-0.704329	7.003633	0.447388	-0.556755	-1.228913	-0.543457	0.271240	-0.069336	0.178374	-0.296366	0.183987	-0.920053
49509		6.252440	-1.730633	7.164156	0.500054	-0.473258	-1.380911	-0.551025	0.252686	-0.069336	0.169762	-0.301284	0.175786	-0.921688
49510		6.202479	-2.145150	6.943722	0.644386	-0.442333	-1.524062	-0.570801	0.232666	-0.065430	0.160333	-0.305914	0.166123	-0.923641
49511		5.828761	-2.091844	6.906538	0.578918	-0.571058	-1.508084	-0.593506	0.217285	-0.064941	0.151001	-0.311536	0.156797	-0.924964
49512		6.414812	-2.282042	7.463430	0.438469	-0.713179	-1.407766	-0.601074	0.196533	-0.064209	0.142231	-0.318238	0.148603	-0.925425
49513		6.983178	-2.855921	8.071992	0.501538	-0.704313	-1.405380	-0.609863	0.181396	-0.059082	0.133605	-0.324732	0.139912	-0.925810
49514		7.475772	-2.835704	8.533788	0.632612	-0.618501	-1.439527	-0.627686	0.177002	-0.058594	0.124940	-0.330393	0.130187	-0.926435
49515		7.966461	-2.649944	8.590517	0.629223	-0.507070	-1.414672	-0.640625	0.148682	-0.059814	0.116311	-0.335106	0.120649	-0.927157
49516		7.732842	-2.775964	8.299995	0.496854	-0.424639	-1.288216	-0.649170	0.131836	-0.057617	0.108184	-0.339127	0.112548	-0.927697
49517		7.443923	-3.202443	8.136898	0.477724	-0.410579	-1.142331	-0.668213	0.118164	-0.056152	0.101101	-0.342873	0.105009	-0.928003
49518		7.711566	-2.819281	8.285121	0.610925	-0.400710	-1.073008	-0.678467	0.113525	-0.062988	0.094912	-0.346329	0.096638	-0.928283
49519		7.926366	-1.841029	8.336127	0.646894	-0.346999	-1.033732	-0.684814	0.093750	-0.057617	0.089075	-0.349269	0.088138	-0.928606
49520		7.927855	-1.520839	8.075297	0.564696	-0.297294	-1.014509	-0.698486	0.083496	-0.063965	0.083101	-0.351832	0.080360	-0.928897
49521		7.858561	-1.843035	7.683702	0.541620	-0.287295	-1.042849	-0.706055	0.052490	-0.065430	0.076823	-0.354318	0.072678	-0.929126
49522		8.068845	-2.153153	7.538319	0.642417	-0.317624	-1.078898	-0.718018	0.048096	-0.065918	0.070572	-0.356956	0.064085	-0.929244
49523		8.467564	-2.026022	7.596927	0.678147	-0.345576	-1.073007	-0.732666	0.034912	-0.068604	0.064478	-0.359745	0.055215	-0.929181
49524		8.239280	-1.857372	7.536450	0.581249	-0.377203	-1.003485	-0.736572	0.013916	-0.058594	0.058638	-0.362758	0.047284	-0.928834
49525		8.303994	-1.887977	7.606878	0.522658	-0.420679	-0.917672	-0.750000	0.003418	-0.065430	0.053296	-0.366069	0.040047	-0.928197
49526		8.250555	-1.973333	7.768867	0.629076	-0.405818	-0.903615	-0.760498	-0.008301	-0.062988	0.048377	-0.369178	0.032037	-0.927546
49527		8.103728	-1.738926	8.073297	0.735931	-0.413502	-0.886860	-0.769775	-0.027588	-0.054932	0.043912	-0.372263	0.023253	-0.926796
49528		8.316224	-1.422368	8.477163	0.718661	-0.405819	-0.826754	-0.771973	-0.048584	-0.059814	0.039852	-0.375245	0.014795	-0.925951
49529		8.269098	-1.164887	8.552992	0.644952	-0.352000	-0.763382	-0.779297	-0.065918	-0.056152	0.036040	-0.377794	0.007125	-0.925161
49530		8.178810	-0.731225	8.385674	0.605008	-0.303605	-0.712100	-0.789795	-0.078125	-0.052734	0.032492	-0.379951	-0.000056	-0.924436
49531		8.162144	-0.421313	8.121367	0.582220	-0.258267	-0.645672	-0.790283	-0.092285	-0.060791	0.029382	-0.381739	-0.006834	-0.923778
49532		7.917126	-0.329844	7.840549	0.627921	-0.225077	-0.599245	-0.803955	-0.096436	-0.050537	0.026774	-0.383241	-0.013805	-0.923157
49533		7.726482	-0.223362	7.796376	0.727235	-0.225692	-0.609939	-0.800537	-0.112793	-0.044434	0.024400	-0.384700	-0.021569	-0.922467
49534		7.725932	0.109629	7.787261	0.779733	-0.241532	-0.661608	-0.803467	-0.125488	-0.051025	0.021793	-0.386232	-0.029900	-0.921659
49535		7.812482	0.501998	7.710248	0.702700	-0.267505	-0.710672	-0.807373	-0.134521	-0.044678	0.018552	-0.387935	-0.037796	-0.920725
49536		7.845710	0.990594	7.483482	0.501219	-0.312176	-0.766076	-0.810791	-0.154785	-0.041260	0.014220	-0.389966	-0.044327	-0.919652
49537		7.778819	1.114801	7.067672	0.223866	-0.386974	-0.799280	-0.819580	-0.170654	-0.040771	0.008703	-0.392566	-0.048845	-0.918385
49538		7.764141	0.526232	6.894563	0.093883	-0.460134	-0.825348	-0.824463	-0.177734	-0.033936	0.002531	-0.395700	-0.052454	-0.916877
49539		7.792393	-0.057597	7.021320	0.226856	-0.511486	-0.844195	-0.825684	-0.203369	-0.019775	-0.003370	-0.399189	-0.057135	-0.915081
49540		8.160196	0.140548	7.395437	0.424664	-0.506404	-0.824554	-0.826660	-0.215332	-0.025391	-0.008460	-0.402623	-0.063250	-0.913139
49541		8.534906	0.496552	7.674477	0.510811	-0.428511	-0.764807	-0.832764	-0.221436	-0.011719	-0.012764	-0.405472	-0.069817	-0.911348
49542		8.458215	0.821685	7.553588	0.464628	-0.348501	-0.686045	-0.834473	-0.236572	-0.007812	-0.016579	-0.407728	-0.075766	-0.909803
49543		8.285386	0.925224	7.332905	0.400630	-0.305798	-0.595757	-0.832275	-0.245605	-0.009766	-0.019899	-0.409688	-0.080921	-0.908412
49544		8.035609	0.986727	7.123606	0.420456	-0.277790	-0.520875	-0.835693	-0.257812	-0.000244	-0.022564	-0.411473	-0.085969	-0.907078
49545		7.904811	0.935212	7.151715	0.530459	-0.269454	-0.504125	-0.833008	-0.264893	0.005615	-0.024718	-0.413210	-0.091785	-0.905661
49546		7.870156	1.176215	7.286984	0.630177	-0.269895	-0.528240	-0.826660	-0.268799	0.002197	-0.026710	-0.414933	-0.098429	-0.904118
49547		7.979083	1.433892	7.435366	0.615477	-0.277987	-0.560856	-0.831543	-0.285645	0.005371	-0.029003	-0.416664	-0.105064	-0.902503
49548		8.173960	1.386332	7.455036	0.521208	-0.269671	-0.577526	-0.839111	-0.291992	0.004639	-0.031740	-0.418273	-0.111042	-0.900950
49549		8.119522	1.176413	7.215352	0.417484	-0.263838	-0.580484	-0.830566	-0.294678	0.015625	-0.034854	-0.419788	-0.116244	-0.899472
49550		7.908039	0.842349	7.076705	0.364328	-0.294231	-0.549359	-0.836182	-0.312500	0.011719	-0.037947	-0.421529	-0.120921	-0.897915
49551		7.882898	0.736616	7.120113	0.376449	-0.330009	-0.499500	-0.835205	-0.315430	0.019531	-0.040660	-0.423577	-0.125494	-0.896204
49552		7.936073	0.701232	7.362540	0.427367	-0.327092	-0.470477	-0.838867	-0.327393	0.024902	-0.042970	-0.425634	-0.130335	-0.894428
49553		7.887918	0.822812	7.616936	0.439144	-0.298705	-0.425595	-0.825928	-0.330078	0.024414	-0.044871	-0.427518	-0.135105	-0.892727
49554		7.823497	0.707949	7.769619	0.422395	-0.261580	-0.367739	-0.838623	-0.340332	0.028076	-0.046358	-0.429170	-0.139549	-0.891173
49555		7.763514	0.747251	7.898729	0.406270	-0.214784	-0.297740	-0.834473	-0.348145	0.033203	-0.047325	-0.430539	-0.143631	-0.889813
49556		7.575477	0.871342	7.964721	0.396322	-0.164528	-0.223686	-0.840088	-0.351074	0.035156	-0.047718	-0.431609	-0.147385	-0.888659
49557		7.480592	1.072607	7.995011	0.397447	-0.109095	-0.172832	-0.830566	-0.347412	0.028076	-0.047660	-0.432323	-0.150979	-0.887711
49558		7.535002	1.275971	7.909801	0.387497	-0.028193	-0.139698	-0.840332	-0.353271	0.030762	-0.047290	-0.432468	-0.154405	-0.887071
49559		7.648223	1.336427	7.622128	0.350744	0.053442	-0.106686	-0.833496	-0.356445	0.032227	-0.046702	-0.432031	-0.157465	-0.886777
49560		7.556656	1.436684	7.195828	0.297951	0.106092	-0.045761	-0.835693	-0.364990	0.026855	-0.045784	-0.431258	-0.159931	-0.886759
49561		7.557088	1.586246	6.919493	0.242910	0.129136	0.041174	-0.840332	-0.360596	0.029541	-0.044390	-0.430407	-0.161681	-0.886927
49562		7.549429	1.869011	6.712821	0.216324	0.155518	0.111056	-0.832275	-0.368408	0.029053	-0.042538	-0.429441	-0.162989	-0.887246
49563		7.383011	2.180348	6.564357	0.185516	0.171429	0.152085	-0.834229	-0.355225	0.021973	-0.040470	-0.428399	-0.163924	-0.887674
49564		7.147038	2.493758	6.456498	0.121750	0.161681	0.166890	-0.834229	-0.351074	0.025146	-0.038534	-0.427425	-0.164328	-0.888155
49565		6.992465	2.780413	6.345433	0.045388	0.120548	0.154538	-0.837402	-0.352539	0.019043	-0.037017	-0.426711	-0.164196	-0.888587
49566		6.982444	2.948378	6.353380	-0.015197	0.073291	0.108156	-0.842041	-0.355713	0.013428	-0.036124	-0.426264	-0.163765	-0.888918
49567		6.965174	3.104338	6.346406	-0.055041	0.040110	0.038637	-0.845947	-0.356934	0.015137	-0.035932	-0.425954	-0.163275	-0.889165
49568		6.971828	3.164098	6.325239	-0.097576	0.017007	-0.028450	-0.840088	-0.349854	0.020020	-0.036420	-0.425710	-0.162701	-0.889367
49569		6.953378	3.149483	6.235353	-0.125360	-0.000759	-0.090736	-0.840332	-0.355469	0.012207	-0.037492	-0.425503	-0.162136	-0.889524
49570		7.025212	3.107862	6.194389	-0.160069	-0.015759	-0.123193	-0.839600	-0.364502	0.013916	-0.038948	-0.425351	-0.161425	-0.889664
49571		7.256707	2.918025	6.179409	-0.151883	-0.010839	-0.155703	-0.839844	-0.356934	0.013428	-0.040609	-0.425120	-0.160891	-0.889796
49572		7.391723	2.827671	6.034139	-0.138740	0.004364	-0.175835	-0.830322	-0.366211	0.004883	-0.042352	-0.424753	-0.160530	-0.889956
49573		7.476045	2.728914	5.902350	-0.142609	0.009849	-0.155573	-0.827393	-0.371094	0.009766	-0.043951	-0.424369	-0.160069	-0.890145
49574		7.511630	2.671615	5.742881	-0.146732	0.007567	-0.106536	-0.839600	-0.368896	0.009766	-0.045204	-0.424066	-0.159402	-0.890346
49575		7.528172	2.690274	5.613992	-0.128025	0.003805	-0.058275	-0.838867	-0.360107	0.013428	-0.046038	-0.423861	-0.158701	-0.890526
49576		7.353791	2.817601	5.537192	-0.090246	-0.012515	-0.030594	-0.840820	-0.368408	0.007812	-0.046553	-0.423830	-0.158175	-0.890607
49577		7.273967	2.995307	5.556255	-0.067198	-0.040848	-0.023474	-0.841797	-0.357666	0.008789	-0.046972	-0.424028	-0.157784	-0.890560
49578		7.244070	3.101355	5.646143	-0.071839	-0.072989	-0.037721	-0.837891	-0.368408	0.011963	-0.047555	-0.424445	-0.157396	-0.890400
49579		7.287091	3.158045	5.735990	-0.083136	-0.092503	-0.067200	-0.834961	-0.374023	0.005859	-0.048423	-0.424963	-0.157021	-0.890172
49580		7.308640	3.066144	5.747051	-0.095435	-0.106963	-0.106750	-0.843262	-0.371094	0.006592	-0.049646	-0.425532	-0.156689	-0.889891
49581		7.259726	2.892484	5.743212	-0.109470	-0.123123	-0.121395	-0.843506	-0.365723	0.005127	-0.051048	-0.426195	-0.156298	-0.889563
49582		7.232986	2.749057	5.807137	-0.105749	-0.138042	-0.109094	-0.836670	-0.368408	0.016846	-0.052365	-0.426986	-0.155884	-0.889180
49583		7.284329	2.737987	5.926542	-0.094917	-0.143982	-0.081658	-0.833984	-0.369873	0.013916	-0.053448	-0.427860	-0.155449	-0.888772
49584		7.404537	2.736403	5.987625	-0.063745	-0.118054	-0.058542	-0.838867	-0.376953	0.014893	-0.054215	-0.428585	-0.155173	-0.888424
49585		7.306835	2.789561	5.948263	-0.042159	-0.089407	-0.037112	-0.839355	-0.370361	0.015625	-0.054708	-0.429136	-0.154992	-0.888159
49586		7.172624	2.875255	5.933764	-0.039433	-0.089599	-0.013167	-0.845947	-0.377686	0.017822	-0.055015	-0.429719	-0.154745	-0.887901
49587		7.152545	2.942539	5.988446	-0.039507	-0.095796	-0.000249	-0.842285	-0.372314	0.016357	-0.055234	-0.430365	-0.154448	-0.887627
49588		7.245861	3.026187	6.045515	-0.031129	-0.083564	0.003328	-0.834229	-0.377197	0.019043	-0.055381	-0.430928	-0.154205	-0.887386
49589		7.104889	3.091656	6.039806	-0.024647	-0.070782	-0.001352	-0.836182	-0.373535	0.017334	-0.055522	-0.431394	-0.154033	-0.887181
49590		7.084603	3.067659	6.041197	-0.032837	-0.072952	-0.010913	-0.842041	-0.382568	0.017578	-0.055767	-0.431858	-0.153833	-0.886975
49591		7.085063	3.116195	6.069596	-0.051106	-0.077402	-0.020976	-0.833008	-0.370361	0.016602	-0.056157	-0.432333	-0.153533	-0.886771
49592		7.084836	3.043428	6.089571	-0.067579	-0.079611	-0.027243	-0.839844	-0.371338	0.030029	-0.056656	-0.432808	-0.153133	-0.886576
49593		7.276408	2.838051	6.257564	-0.047443	-0.058430	-0.029851	-0.836182	-0.369629	0.018555	-0.057075	-0.433132	-0.152900	-0.886432
49594		7.373822	2.629813	6.331393	-0.019655	0.000225	0.012486	-0.842773	-0.374023	0.030762	-0.057005	-0.433088	-0.152748	-0.886484
49595		7.100931	2.848307	6.036421	-0.005161	0.026186	0.052460	-0.837402	-0.370117	0.030273	-0.056555	-0.432910	-0.152569	-0.886630
49596		6.951121	3.205209	5.859157	-0.020892	-0.005536	0.043806	-0.837646	-0.371338	0.021484	-0.056266	-0.432948	-0.152290	-0.886678
49597		7.108722	3.222950	5.856426	-0.046219	-0.042958	0.008537	-0.838867	-0.375000	0.013184	-0.056376	-0.433204	-0.151934	-0.886607
49598		7.214374	3.133541	5.884139	-0.061538	-0.049382	-0.023021	-0.833740	-0.372559	0.026123	-0.056783	-0.433461	-0.151576	-0.886517
49599		7.239594	2.999771	5.866422	-0.066169	-0.050831	-0.031867	-0.838867	-0.375732	0.021484	-0.057274	-0.433714	-0.151216	-0.886423
49600		7.231314	2.938168	5.849262	-0.061340	-0.054360	-0.034895	-0.837158	-0.374268	0.023682	-0.057775	-0.433991	-0.150900	-0.886309
49601		7.264763	2.892044	5.851986	-0.077995	-0.065418	-0.033593	-0.841797	-0.366943	0.023193	-0.058339	-0.434343	-0.150451	-0.886175
49602		7.308908	2.875210	5.915102	-0.085568	-0.066381	-0.032968	-0.844482	-0.382080	0.028076	-0.058928	-0.434700	-0.149943	-0.886048
49603		7.383467	2.842623	5.939306	-0.092565	-0.047841	-0.028224	-0.845215	-0.379150	0.025635	-0.059484	-0.434921	-0.149375	-0.885998
49604		7.369204	2.778746	5.860878	-0.084034	-0.029233	-0.008905	-0.839355	-0.377441	0.023682	-0.059842	-0.435033	-0.148808	-0.886014
49605		7.327281	2.794729	5.754456	-0.068358	-0.022947	0.014383	-0.840820	-0.375000	0.018066	-0.059964	-0.435135	-0.148275	-0.886046
49606		7.263636	2.877711	5.776231	-0.048226	-0.030693	0.026475	-0.843262	-0.379150	0.029053	-0.059934	-0.435319	-0.147842	-0.886029
49607		7.319492	2.967629	5.837009	-0.039766	-0.038742	0.030207	-0.847900	-0.376953	0.031250	-0.059855	-0.435571	-0.147455	-0.885975
49608		7.354624	2.934189	5.888254	-0.036599	-0.034208	0.024437	-0.843262	-0.361572	0.025879	-0.059801	-0.435784	-0.147114	-0.885931
