// Start Time: Unknown
// Update Rate: 60.0Hz
// Filter Profile: human (46.1)
// Firmware Version: 4.6.0
PacketCounter	SampleTimeFine	Acc_X	Acc_Y	Acc_Z	Gyr_X	Gyr_Y	Gyr_Z	Mag_X	Mag_Y	Mag_Z	Quat_q0	Quat_q1	Quat_q2	Quat_q3
46517		5.902382	-0.202421	7.885784	0.014418	-0.138112	0.057625	-0.669922	-0.065186	-0.623535	-0.227684	-0.303396	0.086030	-0.921255
46518		5.888082	-0.130685	7.946450	0.025826	-0.148590	0.053840	-0.665039	-0.072754	-0.612305	-0.227098	-0.304547	0.086250	-0.920999
46519		5.876078	-0.000269	7.958467	0.022188	-0.151583	0.039222	-0.672852	-0.067383	-0.617676	-0.226637	-0.305729	0.086457	-0.920701
46520		5.906801	0.087475	8.013391	0.012426	-0.138288	0.013108	-0.678467	-0.071045	-0.608398	-0.226406	-0.306803	0.086653	-0.920382
46521		5.826800	0.088453	7.846256	0.004362	-0.134203	-0.018425	-0.668457	-0.065674	-0.610596	-0.226443	-0.307852	0.086815	-0.920008
46522		5.878111	0.042007	7.710884	0.000258	-0.145078	-0.053491	-0.680176	-0.071289	-0.607422	-0.226754	-0.309001	0.086929	-0.919535
46523		5.959700	-0.001170	7.574819	-0.005406	-0.158454	-0.088542	-0.679443	-0.073730	-0.604004	-0.227341	-0.310268	0.087011	-0.918955
46524		6.101090	-0.134991	7.507425	-0.000569	-0.173409	-0.133473	-0.672363	-0.064453	-0.612061	-0.228252	-0.311699	0.086961	-0.918250
46525		6.111838	-0.181916	7.406018	0.002522	-0.186435	-0.168257	-0.682617	-0.080566	-0.607178	-0.229409	-0.313273	0.086824	-0.917438
46526		6.097115	-0.298272	7.324187	-0.008583	-0.220256	-0.190568	-0.689453	-0.069580	-0.600098	-0.230739	-0.315117	0.086785	-0.916476
46527		6.145700	-0.461718	7.333209	-0.021331	-0.255435	-0.207641	-0.687256	-0.078613	-0.597412	-0.232199	-0.317233	0.086882	-0.915368
46528		6.068612	-0.635439	7.324411	-0.032715	-0.291541	-0.222232	-0.693115	-0.077637	-0.603271	-0.233762	-0.319623	0.087129	-0.914115
46529		6.126333	-0.728098	7.454388	-0.041374	-0.321464	-0.239174	-0.692627	-0.079834	-0.585693	-0.235435	-0.322235	0.087502	-0.912731
46530		6.247305	-0.848700	7.714749	-0.072438	-0.304733	-0.230445	-0.695557	-0.084229	-0.593750	-0.237115	-0.324639	0.088155	-0.911381
46531		6.013677	-0.930528	7.747248	-0.106549	-0.280114	-0.219868	-0.695557	-0.078613	-0.582520	-0.238797	-0.326757	0.089118	-0.910090
46532		5.968933	-1.017581	7.800798	-0.146752	-0.259629	-0.219035	-0.697998	-0.078369	-0.582031	-0.240574	-0.328584	0.090405	-0.908836
46533		6.109045	-1.099188	7.669757	-0.180972	-0.225128	-0.242235	-0.701660	-0.093506	-0.579102	-0.242615	-0.330035	0.091897	-0.907618
46534		6.192700	-1.009630	7.529045	-0.261358	-0.203149	-0.269432	-0.703125	-0.077148	-0.579834	-0.245054	-0.331122	0.093957	-0.906355
46535		6.429050	-1.437503	7.246701	-0.315276	-0.174993	-0.277507	-0.699707	-0.088379	-0.575439	-0.247697	-0.331864	0.096439	-0.905103
46536		6.397309	-1.513690	7.038794	-0.309769	-0.187184	-0.221482	-0.701904	-0.090332	-0.575439	-0.249878	-0.332655	0.099130	-0.903922
46537		6.507274	-1.352447	7.215888	-0.288896	-0.200187	-0.123925	-0.704834	-0.083252	-0.567627	-0.251201	-0.333494	0.102109	-0.902914
46538		6.455450	-0.791850	7.351037	-0.289958	-0.182766	-0.037272	-0.716553	-0.079346	-0.563232	-0.251831	-0.334157	0.105303	-0.902126
46539		6.300961	-0.500737	7.510878	-0.271333	-0.168121	-0.003084	-0.710938	-0.078369	-0.571045	-0.251964	-0.334717	0.108485	-0.901504
46540		6.416311	-0.152313	7.615394	-0.235345	-0.120870	-0.000357	-0.711426	-0.070312	-0.562500	-0.252191	-0.334929	0.111411	-0.901005
46541		6.359548	0.202226	7.596084	-0.226532	-0.078441	-0.017047	-0.712402	-0.071777	-0.561523	-0.252592	-0.334922	0.113840	-0.900592
46542		6.488160	0.139943	7.624780	-0.216445	-0.037326	-0.061286	-0.717285	-0.064209	-0.561768	-0.253360	-0.334663	0.115870	-0.900213
46543		6.446338	0.106315	7.598570	-0.210247	0.000464	-0.108202	-0.707275	-0.076172	-0.563232	-0.254395	-0.334186	0.117648	-0.899867
46544		6.410913	-0.284325	7.568939	-0.217906	0.023575	-0.125503	-0.709229	-0.070312	-0.562500	-0.255969	-0.333530	0.119150	-0.899467
46545		6.433465	-0.497691	7.487484	-0.194894	0.038632	-0.109289	-0.714600	-0.066650	-0.559326	-0.257292	-0.332803	0.120472	-0.899183
46546		6.477788	-0.611227	7.407087	-0.172905	0.036705	-0.056196	-0.716797	-0.070557	-0.558838	-0.257945	-0.332112	0.121749	-0.899079
46547		6.623862	-0.631429	7.475214	-0.130181	0.026013	0.007398	-0.713623	-0.064209	-0.558594	-0.257909	-0.331527	0.122905	-0.899148
46548		6.588184	-0.618343	7.445517	-0.091004	0.013088	0.075142	-0.714355	-0.068604	-0.558350	-0.257343	-0.331081	0.123936	-0.899333
46549		6.489157	-0.665704	7.540132	-0.027554	-0.002345	0.114957	-0.722168	-0.060547	-0.560547	-0.256268	-0.330858	0.124623	-0.899627
46550		6.374133	-0.636380	7.728897	0.006382	-0.004566	0.156760	-0.702393	-0.060303	-0.557861	-0.254544	-0.330632	0.125356	-0.900098
46551		6.316854	-0.653456	7.843200	0.019969	0.016454	0.185798	-0.719727	-0.057617	-0.564941	-0.253298	-0.330296	0.125638	-0.900533
46552		6.287656	-0.566196	7.798040	0.012575	0.045239	0.194474	-0.704102	-0.055908	-0.557373	-0.251478	-0.329576	0.126355	-0.901206
46553		6.241269	-0.537119	7.669301	-0.008269	0.074105	0.171404	-0.711182	-0.054932	-0.555908	-0.250398	-0.328726	0.126672	-0.901773
46554		6.324790	-0.514454	7.544792	-0.045251	0.097979	0.143385	-0.713135	-0.053467	-0.565186	-0.249364	-0.327650	0.127188	-0.902378
46555		6.412221	-0.573988	7.459044	-0.081592	0.112268	0.127612	-0.708984	-0.061523	-0.559082	-0.248568	-0.326304	0.128096	-0.902957
46556		6.590680	-0.498041	7.277902	-0.099771	0.123278	0.149090	-0.705078	-0.047852	-0.566162	-0.247762	-0.324958	0.128932	-0.903544
46557		6.735390	-0.375887	6.962039	-0.076495	0.099974	0.175743	-0.703857	-0.056396	-0.564697	-0.246765	-0.323740	0.129838	-0.904125
46558		6.938620	-0.304253	6.875729	-0.035436	0.046909	0.189728	-0.700439	-0.050049	-0.567871	-0.245554	-0.323114	0.130471	-0.904587
46559		7.000775	-0.204393	6.788858	0.007055	-0.005128	0.202838	-0.701172	-0.054199	-0.565186	-0.244163	-0.322971	0.130956	-0.904945
46560		7.096488	0.007123	6.757579	0.032840	-0.066686	0.225708	-0.700684	-0.040527	-0.557129	-0.242466	-0.323433	0.131350	-0.905179
46561		7.060635	0.074036	6.803989	0.058241	-0.108539	0.220480	-0.703613	-0.038574	-0.557373	-0.240587	-0.324397	0.131573	-0.905303
46562		7.031712	0.157219	6.904697	0.058533	-0.152318	0.169283	-0.707764	-0.037842	-0.562744	-0.239026	-0.325772	0.131766	-0.905194
46563		7.017854	-0.052372	7.057837	0.020241	-0.162477	0.123751	-0.707520	-0.037842	-0.561523	-0.237913	-0.327162	0.132198	-0.904923
46564		6.860205	-0.507357	7.070310	0.013321	-0.157941	0.073767	-0.709717	-0.031982	-0.557617	-0.237250	-0.328577	0.132496	-0.904541
46565		6.786485	-0.721281	7.200767	0.038272	-0.145388	0.036519	-0.716553	-0.041504	-0.554199	-0.236772	-0.330003	0.132522	-0.904143
46566		6.629454	-0.783191	7.203641	0.053005	-0.134223	0.018644	-0.719727	-0.036621	-0.553955	-0.236334	-0.331475	0.132288	-0.903753
46567		6.485640	-0.854893	7.180977	0.051256	-0.132367	0.015270	-0.713135	-0.030762	-0.555908	-0.235907	-0.332904	0.132140	-0.903361
46568		6.559586	-0.874712	7.144304	0.044166	-0.132449	0.013127	-0.714600	-0.036621	-0.555420	-0.235619	-0.334178	0.132107	-0.902971
46569		6.782212	-0.920024	7.145606	0.027498	-0.128575	0.023811	-0.711426	-0.032959	-0.550537	-0.235279	-0.335382	0.132159	-0.902606
46570		6.586001	-0.961803	6.996389	0.022080	-0.127410	0.049319	-0.712891	-0.030762	-0.551025	-0.234800	-0.336495	0.132362	-0.902286
46571		6.580978	-1.048223	7.118067	0.026901	-0.149443	0.061219	-0.727539	-0.032471	-0.540527	-0.234181	-0.337738	0.132654	-0.901940
46572		6.401053	-1.105855	7.249419	0.039956	-0.144583	0.064644	-0.720947	-0.039062	-0.539795	-0.233397	-0.339170	0.132878	-0.901572
46573		6.206848	-1.064843	7.418165	0.045828	-0.150844	0.061984	-0.722656	-0.028320	-0.536621	-0.232634	-0.340569	0.132933	-0.901234
46574		6.188367	-1.045194	7.557279	0.033469	-0.143331	0.062608	-0.721191	-0.032227	-0.538574	-0.231956	-0.341808	0.133256	-0.900892
46575		6.215825	-0.943464	7.525917	0.006511	-0.129706	0.060757	-0.722900	-0.033936	-0.531250	-0.231371	-0.342817	0.133663	-0.900599
46576		6.303857	-0.903124	7.536243	-0.020924	-0.109320	0.043284	-0.728516	-0.020508	-0.539307	-0.231009	-0.343672	0.134151	-0.900293
46577		6.317601	-0.910445	7.558399	-0.026909	-0.083840	0.022113	-0.728271	-0.029785	-0.532959	-0.230869	-0.344237	0.134806	-0.900015
46578		6.266576	-0.928907	7.527650	-0.025691	-0.061602	0.008587	-0.722656	-0.028809	-0.538086	-0.230816	-0.344712	0.135186	-0.899790
46579		6.401178	-0.942765	7.453467	-0.028136	-0.050380	0.021986	-0.735107	-0.029053	-0.543701	-0.230711	-0.344927	0.135582	-0.899675
46580		6.553625	-0.945975	7.227740	-0.016210	-0.049206	0.032253	-0.728516	-0.014893	-0.523926	-0.230414	-0.345226	0.135931	-0.899584
46581		6.907446	-0.833979	7.194961	-0.007057	-0.051507	0.051170	-0.724609	-0.023682	-0.534912	-0.230035	-0.345553	0.136511	-0.899467
46582		6.992689	-0.811086	7.107246	-0.000786	-0.018496	0.063539	-0.719482	-0.027100	-0.523193	-0.229574	-0.345524	0.136812	-0.899551
46583		6.860120	-0.656937	6.909040	0.009344	-0.014673	0.066346	-0.730713	-0.024658	-0.532959	-0.229096	-0.345569	0.136960	-0.899633
46584		7.065648	-0.627287	6.893867	0.002624	-0.021207	0.054756	-0.721436	-0.029541	-0.530273	-0.228643	-0.345697	0.137184	-0.899665
46585		7.033014	-0.669101	6.814342	0.001479	-0.013245	0.022996	-0.722168	-0.019531	-0.538330	-0.228505	-0.345755	0.137188	-0.899677
46586		6.930171	-0.655795	6.780303	-0.007321	-0.026692	-0.039035	-0.718994	-0.028564	-0.529785	-0.228814	-0.345859	0.137259	-0.899548
46587		6.923047	-0.788169	6.793111	-0.028272	-0.034121	-0.098277	-0.727295	-0.026123	-0.533203	-0.229662	-0.346156	0.137187	-0.899228
46588		7.084969	-1.007639	6.869606	-0.040809	-0.029911	-0.141196	-0.726562	-0.022949	-0.531494	-0.230813	-0.346491	0.137151	-0.898810
46589		7.043748	-1.198756	6.784824	-0.067480	-0.008261	-0.139315	-0.726562	-0.030029	-0.530029	-0.232030	-0.346604	0.137359	-0.898421
46590		6.866793	-1.349906	6.671999	-0.092232	-0.009368	-0.121281	-0.726074	-0.031494	-0.533203	-0.233206	-0.346706	0.137723	-0.898021
46591		6.876453	-1.480230	6.695970	-0.099017	-0.026263	-0.093341	-0.726562	-0.032715	-0.529053	-0.234174	-0.346851	0.138248	-0.897633
46592		6.882507	-1.495149	6.696257	-0.084512	-0.034948	-0.057211	-0.729004	-0.026611	-0.529297	-0.234815	-0.347103	0.138798	-0.897283
46593		6.967327	-1.062491	6.724899	-0.104596	-0.055066	-0.000700	-0.731445	-0.038574	-0.527588	-0.235016	-0.347389	0.139822	-0.896961
46594		7.092738	-0.852462	6.800098	-0.112386	-0.080122	0.005090	-0.727051	-0.030518	-0.535156	-0.235229	-0.347938	0.140771	-0.896543
46595		7.005394	-0.656928	6.752298	-0.082086	-0.073316	-0.073644	-0.724609	-0.011719	-0.522705	-0.235933	-0.348400	0.141333	-0.896091
46596		6.865219	-0.919242	6.788608	-0.102624	-0.094136	-0.093085	-0.733398	-0.024414	-0.529785	-0.236723	-0.349021	0.142359	-0.895478
46597		7.148479	-0.969394	6.844880	-0.108327	-0.092031	-0.080636	-0.724854	-0.025391	-0.528076	-0.237479	-0.349656	0.143248	-0.894888
46598		6.738361	-0.907050	6.716926	-0.089627	-0.111826	-0.055010	-0.733887	-0.018066	-0.530029	-0.238032	-0.350350	0.144074	-0.894337
46599		6.955412	-0.782377	7.065543	-0.046488	-0.142297	-0.049177	-0.728760	-0.031494	-0.519531	-0.238282	-0.351371	0.144781	-0.893755
46600		7.082326	-0.022538	7.670247	-0.083684	-0.064003	-0.064332	-0.726074	-0.026367	-0.513672	-0.238973	-0.351850	0.145343	-0.893291
46601		6.410600	0.122411	7.566976	-0.143961	0.005088	-0.132135	-0.729736	-0.028564	-0.516846	-0.240413	-0.351774	0.146081	-0.892814
46602		6.323836	-0.639768	7.233516	-0.133111	-0.016560	-0.153048	-0.735596	-0.020020	-0.522705	-0.241952	-0.351906	0.146665	-0.892250
46603		6.596456	-0.900552	7.311422	-0.036125	-0.042931	-0.101263	-0.736328	-0.022949	-0.515137	-0.242691	-0.352300	0.146874	-0.891860
46604		6.686337	-0.552691	7.408335	0.055496	-0.054517	-0.039580	-0.737061	-0.022705	-0.519043	-0.242685	-0.352985	0.146579	-0.891639
46605		6.759084	-0.288716	7.607153	0.082694	-0.055408	0.017945	-0.747559	-0.020508	-0.512939	-0.242177	-0.353587	0.146253	-0.891592
46606		6.596593	-0.085494	7.784321	0.118871	-0.045018	0.055202	-0.746094	-0.028809	-0.523682	-0.241188	-0.354306	0.145793	-0.891650
46607		6.510901	0.257915	7.895207	0.157528	-0.043148	0.070478	-0.739990	-0.022949	-0.521973	-0.240091	-0.354921	0.144913	-0.891845
46608		6.502077	0.517819	8.007638	0.193587	-0.026831	0.052763	-0.737549	-0.030273	-0.513184	-0.239067	-0.355398	0.143752	-0.892118
46609		6.547867	0.620234	8.029729	0.216555	-0.003207	0.021983	-0.735840	-0.024658	-0.517090	-0.238270	-0.355881	0.142153	-0.892395
46610		6.578756	0.450184	7.972053	0.252383	0.019129	0.001987	-0.733887	-0.032959	-0.519043	-0.237533	-0.356171	0.140266	-0.892774
46611		6.658500	0.362676	7.862605	0.313952	0.031510	0.006496	-0.736328	-0.030029	-0.520996	-0.236665	-0.356463	0.137778	-0.893275
46612		6.661901	0.401392	7.784508	0.363520	0.037338	0.022851	-0.731934	-0.036377	-0.532715	-0.235471	-0.356767	0.135025	-0.893890
46613		6.601421	0.565181	7.701199	0.377979	0.038617	0.019808	-0.736328	-0.046387	-0.532471	-0.234365	-0.356908	0.132055	-0.894568
46614		6.553356	0.858108	7.814337	0.364307	0.045457	-0.008063	-0.720703	-0.045898	-0.526367	-0.233558	-0.357090	0.128979	-0.895155
46615		6.620936	1.092986	7.915586	0.342726	0.074259	-0.060727	-0.730225	-0.049072	-0.529541	-0.233237	-0.356982	0.125863	-0.895725
46616		6.690873	1.268523	7.919147	0.330603	0.112184	-0.124246	-0.724121	-0.059326	-0.537354	-0.233413	-0.356708	0.122572	-0.896244
46617		6.852043	1.480936	7.870599	0.334028	0.136033	-0.191955	-0.718506	-0.060791	-0.539551	-0.234240	-0.356212	0.118887	-0.896722
46618		7.010028	1.758428	7.875218	0.314343	0.153925	-0.233151	-0.719482	-0.069336	-0.541504	-0.235361	-0.355531	0.115192	-0.897181
46619		7.031910	2.036999	7.889677	0.341295	0.160465	-0.279163	-0.717041	-0.069824	-0.554688	-0.236809	-0.354938	0.111101	-0.897550
46620		7.051739	2.204617	8.047888	0.381800	0.160964	-0.334800	-0.711914	-0.083496	-0.559326	-0.238383	-0.354322	0.106516	-0.897933
46621		7.186120	2.147713	8.261424	0.434016	0.175896	-0.415565	-0.708740	-0.095459	-0.570557	-0.240572	-0.353769	0.101195	-0.898183
46622		7.160204	2.277507	8.326324	0.426585	0.215797	-0.494776	-0.699463	-0.101318	-0.566650	-0.243414	-0.353055	0.095623	-0.898308
46623		7.062437	2.439306	8.365352	0.359443	0.239281	-0.572185	-0.691650	-0.117432	-0.573975	-0.246943	-0.352317	0.090368	-0.898179
46624		7.057072	2.445333	8.409399	0.320953	0.263932	-0.641372	-0.688477	-0.127197	-0.585449	-0.251157	-0.351424	0.085163	-0.897869
46625		7.068498	2.405090	8.505444	0.346808	0.291571	-0.714631	-0.683105	-0.145996	-0.589111	-0.255851	-0.350426	0.079482	-0.897454
46626		7.107215	2.280043	8.748106	0.387125	0.324211	-0.789638	-0.671875	-0.159668	-0.595215	-0.261001	-0.349299	0.073197	-0.896945
46627		7.070324	2.118362	8.958696	0.370448	0.370331	-0.840280	-0.662354	-0.180176	-0.598145	-0.266588	-0.347794	0.066777	-0.896388
46628		7.072860	2.041882	9.024864	0.328125	0.398828	-0.788333	-0.656494	-0.192383	-0.610352	-0.271907	-0.345923	0.060752	-0.895942
46629		6.795774	1.624002	8.946177	0.468445	0.400887	-0.748938	-0.643066	-0.208496	-0.614502	-0.276509	-0.344306	0.053784	-0.895602
46630		6.531654	2.048135	9.186555	0.618841	0.417898	-0.783907	-0.626709	-0.233398	-0.626953	-0.280921	-0.342891	0.045556	-0.895228
46631		6.485981	2.964882	9.690023	0.550459	0.472794	-0.849649	-0.628418	-0.246094	-0.624023	-0.286013	-0.340891	0.037521	-0.894753
46632		6.638187	3.043415	10.099395	0.386397	0.543084	-0.831832	-0.601318	-0.266846	-0.626221	-0.291435	-0.337931	0.030583	-0.894390
46633		6.750333	2.975185	10.185197	0.486551	0.627291	-0.946274	-0.592285	-0.287109	-0.635498	-0.297420	-0.334572	0.022365	-0.893926
46634		7.051999	3.704170	10.179512	0.490294	0.730971	-1.076980	-0.575684	-0.313477	-0.634033	-0.304348	-0.330422	0.013495	-0.893315
46635		7.075828	3.484940	9.848339	0.419587	0.792352	-1.135149	-0.561279	-0.334961	-0.628418	-0.311864	-0.325590	0.004830	-0.892586
46636		6.976466	2.620413	9.546868	0.499476	0.806313	-1.104355	-0.535400	-0.348145	-0.647461	-0.318882	-0.320810	-0.004381	-0.891839
46637		6.769761	2.720761	9.615209	0.661022	0.805178	-1.073685	-0.525879	-0.379150	-0.642578	-0.325181	-0.316417	-0.014694	-0.891023
46638		6.859612	3.102152	9.772630	0.626208	0.819104	-0.969014	-0.501709	-0.388672	-0.633301	-0.330735	-0.311792	-0.024494	-0.890393
46639		6.992534	3.366001	9.582358	0.603786	0.833381	-0.877530	-0.488037	-0.403320	-0.636475	-0.335611	-0.306976	-0.033914	-0.889933
46640		7.024835	3.424852	9.195905	0.749174	0.835673	-0.832824	-0.476074	-0.443115	-0.625488	-0.339727	-0.302528	-0.044288	-0.889438
46641		6.913512	4.249210	9.098192	0.839725	0.816011	-0.900035	-0.459717	-0.457275	-0.621582	-0.344061	-0.298423	-0.055426	-0.888535
46642		6.801591	4.250215	9.006138	0.766554	0.782702	-0.956805	-0.444824	-0.487061	-0.614258	-0.348951	-0.294295	-0.066051	-0.887277
46643		6.435715	3.785245	8.939118	0.793186	0.718664	-0.953559	-0.424072	-0.500488	-0.604004	-0.353726	-0.290689	-0.076660	-0.885721
46644		6.157703	3.842630	9.187129	0.894667	0.671950	-0.962615	-0.416016	-0.521973	-0.592285	-0.358289	-0.287686	-0.087876	-0.883823
46645		6.209384	4.317003	9.196473	0.878966	0.655799	-0.986235	-0.398193	-0.543213	-0.580078	-0.363010	-0.284700	-0.098957	-0.881690
46646		6.184915	4.223390	8.891448	0.845700	0.622799	-0.998384	-0.389404	-0.561035	-0.573242	-0.367862	-0.281811	-0.109693	-0.879334
46647		6.043420	3.793697	8.728811	0.946919	0.583545	-1.032496	-0.373047	-0.599609	-0.553711	-0.372695	-0.279454	-0.121098	-0.876549
46648		5.608838	3.892921	8.697018	1.057574	0.540683	-1.076782	-0.366455	-0.620361	-0.541504	-0.377563	-0.277669	-0.133242	-0.873266
46649		5.862957	3.790952	8.935560	1.043860	0.508832	-1.054340	-0.352051	-0.633057	-0.538574	-0.382257	-0.276054	-0.145091	-0.869840
46650		5.739813	3.775674	8.810258	0.980886	0.547926	-1.021185	-0.327148	-0.658203	-0.509033	-0.386733	-0.273956	-0.156485	-0.866544
46651		5.320082	3.773304	8.529548	0.911047	0.543311	-1.006275	-0.315674	-0.675781	-0.503662	-0.391196	-0.271648	-0.167278	-0.863244
46652		5.509073	3.757386	8.477860	0.891231	0.530549	-1.041905	-0.301270	-0.694336	-0.481934	-0.395909	-0.269282	-0.177922	-0.859702
46653		5.339201	4.094992	8.210460	0.826170	0.544083	-1.084380	-0.283203	-0.713135	-0.465820	-0.400982	-0.266508	-0.188188	-0.856021
46654		4.837115	3.916496	7.956206	0.757022	0.505330	-1.117654	-0.273926	-0.726318	-0.454346	-0.406437	-0.263694	-0.197858	-0.852130
46655		4.524799	3.448434	8.199393	0.765081	0.461486	-1.102349	-0.259766	-0.741699	-0.446045	-0.411771	-0.261211	-0.207356	-0.848066
46656		4.381626	3.480134	8.471309	0.819026	0.483198	-1.070904	-0.244141	-0.750977	-0.439453	-0.416662	-0.258779	-0.217188	-0.843952
46657		4.318734	3.785116	8.240217	0.794686	0.521331	-0.990562	-0.223389	-0.769531	-0.411133	-0.420907	-0.256105	-0.226756	-0.840137
46658		4.068672	4.159084	7.654419	0.778758	0.525483	-0.977973	-0.207031	-0.771240	-0.397217	-0.425028	-0.253338	-0.236149	-0.836304
46659		3.901960	4.077835	7.503074	0.773674	0.476979	-0.985681	-0.191162	-0.782959	-0.381836	-0.429250	-0.250848	-0.245304	-0.832253
46660		3.774352	3.963471	7.467328	0.785553	0.446631	-0.980392	-0.173096	-0.793213	-0.372070	-0.433413	-0.248594	-0.254375	-0.828038
46661		3.615507	3.733202	7.148354	0.782049	0.418328	-0.900452	-0.163818	-0.815186	-0.360352	-0.437035	-0.246666	-0.263107	-0.823972
46662		3.525166	3.909362	6.808107	0.822261	0.374771	-0.816044	-0.154297	-0.812988	-0.350586	-0.440039	-0.245346	-0.271738	-0.819957
46663		3.369081	3.988407	6.441923	0.868779	0.323634	-0.737933	-0.143311	-0.826416	-0.331055	-0.442481	-0.244701	-0.280298	-0.815944
46664		2.994935	3.935135	6.288040	0.904975	0.253102	-0.696559	-0.140625	-0.831543	-0.309570	-0.444685	-0.244747	-0.288719	-0.811785
46665		2.951319	3.922755	6.086307	0.901523	0.218922	-0.683417	-0.118164	-0.842773	-0.302002	-0.446843	-0.245023	-0.296925	-0.807546
46666		2.722189	4.126354	5.597149	0.825290	0.168019	-0.629453	-0.117188	-0.842773	-0.284424	-0.448879	-0.245473	-0.304282	-0.803532
46667		2.527908	4.133480	5.373903	0.773144	0.078502	-0.556747	-0.104492	-0.843506	-0.267090	-0.450726	-0.246498	-0.310776	-0.799689
46668		2.297566	4.010348	5.478327	0.801804	0.013354	-0.544160	-0.101318	-0.848145	-0.252930	-0.452567	-0.248085	-0.317165	-0.795640
46669		1.916329	4.057724	5.646775	0.796683	-0.009477	-0.590918	-0.088867	-0.861084	-0.241455	-0.454756	-0.249664	-0.323501	-0.791335
46670		2.115035	3.935872	5.689259	0.700117	0.011420	-0.597526	-0.083496	-0.866699	-0.222168	-0.457103	-0.250705	-0.329267	-0.787265
46671		2.205530	3.581532	5.303347	0.553870	0.073616	-0.518870	-0.080322	-0.876709	-0.210938	-0.459046	-0.250983	-0.334122	-0.783994
46672		1.799884	3.186519	4.427721	0.508291	0.092607	-0.510613	-0.076416	-0.868896	-0.213623	-0.460958	-0.250976	-0.338712	-0.780899
46673		1.373034	2.884692	4.199474	0.446653	0.040331	-0.566959	-0.063965	-0.874023	-0.192627	-0.463496	-0.250905	-0.342801	-0.777629
46674		1.431399	2.688018	4.467948	0.304700	0.012992	-0.563091	-0.050293	-0.883545	-0.184814	-0.466369	-0.250464	-0.345840	-0.774702
46675		1.386898	1.920929	4.443663	0.157427	0.012127	-0.441828	-0.052734	-0.878662	-0.193115	-0.468760	-0.249798	-0.347658	-0.772657
46676		1.058085	1.133292	4.105830	0.191093	0.015632	-0.380291	-0.041504	-0.885254	-0.190430	-0.470671	-0.249413	-0.349564	-0.770758
46677		0.619546	0.922651	4.053121	0.190781	-0.010960	-0.371869	-0.044189	-0.882080	-0.183594	-0.472602	-0.249213	-0.351332	-0.768834
46678		0.777910	1.063597	4.256975	-0.023998	-0.008571	-0.294883	-0.032471	-0.884277	-0.172363	-0.474479	-0.248368	-0.351562	-0.767846
46679		0.869945	0.880772	4.020799	-0.283819	0.001015	-0.045211	-0.028320	-0.874756	-0.189697	-0.475269	-0.247157	-0.349639	-0.768626
46680		0.857119	0.266656	3.734605	-0.223009	-0.043517	0.157036	-0.029785	-0.885254	-0.187256	-0.474768	-0.247054	-0.347501	-0.769937
46681		0.893524	1.239397	3.843885	-0.113002	-0.099816	0.215464	-0.033691	-0.881348	-0.190430	-0.473830	-0.247907	-0.345714	-0.771044
46682		1.037662	1.399334	3.997219	-0.272942	-0.150638	0.296963	-0.048584	-0.880127	-0.197998	-0.472841	-0.248683	-0.342519	-0.772825
46683		1.235869	1.007649	4.041950	-0.355431	-0.207798	0.428727	-0.043945	-0.874023	-0.209473	-0.471330	-0.249869	-0.338281	-0.775229
46684		1.590676	1.016654	4.216106	-0.280116	-0.263368	0.530421	-0.054688	-0.870850	-0.211426	-0.469148	-0.251983	-0.334080	-0.777686
46685		1.860389	1.682133	4.546373	-0.332287	-0.281284	0.579113	-0.065674	-0.874023	-0.218262	-0.466793	-0.254132	-0.329348	-0.780417
46686		1.828201	1.948504	4.742502	-0.533477	-0.308247	0.619547	-0.069824	-0.871826	-0.227295	-0.464652	-0.255771	-0.323092	-0.783768
46687		2.073316	1.927262	5.220367	-0.676555	-0.352994	0.689781	-0.084961	-0.863037	-0.242676	-0.462445	-0.257316	-0.315548	-0.787631
46688		2.610575	1.872620	5.825058	-0.702718	-0.361101	0.776829	-0.096436	-0.864258	-0.252441	-0.459705	-0.259018	-0.307579	-0.791818
46689		2.823018	2.411377	5.954978	-0.740036	-0.355014	0.814139	-0.109619	-0.856689	-0.272705	-0.456738	-0.260606	-0.299264	-0.796188
46690		2.864755	2.915902	6.080310	-0.879178	-0.386810	0.875634	-0.123779	-0.844238	-0.289551	-0.453692	-0.261998	-0.289728	-0.800986
46691		3.113990	2.953653	6.420119	-0.927144	-0.450934	0.978174	-0.136963	-0.840576	-0.304199	-0.450157	-0.263847	-0.279357	-0.806042
46692		3.522077	3.482543	6.849749	-0.828176	-0.487419	1.085616	-0.155518	-0.824707	-0.326172	-0.445696	-0.266522	-0.269227	-0.811072
46693		3.569842	4.348983	7.243223	-0.778684	-0.538638	1.183843	-0.175781	-0.823242	-0.335449	-0.440501	-0.269903	-0.258972	-0.816116
46694		4.520017	4.916653	7.592762	-0.776028	-0.541837	1.181113	-0.195068	-0.815430	-0.349365	-0.435248	-0.273264	-0.248681	-0.821002
46695		4.774321	5.897212	7.313952	-0.886530	-0.518679	1.177721	-0.216553	-0.801758	-0.368164	-0.430141	-0.276013	-0.237680	-0.826017
46696		4.425843	5.654023	7.021863	-0.912105	-0.599037	1.131848	-0.231201	-0.786377	-0.378906	-0.425486	-0.279089	-0.226284	-0.830582
46697		4.345147	5.568779	7.961989	-0.823990	-0.713073	1.086314	-0.247070	-0.775635	-0.394775	-0.421080	-0.283135	-0.215172	-0.834402
46698		5.081752	5.437719	8.888886	-0.760476	-0.700222	1.080192	-0.275635	-0.757080	-0.406494	-0.416474	-0.287256	-0.204540	-0.837972
46699		4.928585	6.251399	8.945885	-0.850558	-0.636632	1.085597	-0.285400	-0.749756	-0.426758	-0.411868	-0.290581	-0.193466	-0.841723
46700		4.869870	6.075537	8.710416	-0.929254	-0.658740	1.041621	-0.306641	-0.727539	-0.446045	-0.407731	-0.293671	-0.181856	-0.845246
46701		4.661992	5.555450	8.953803	-0.845450	-0.692749	0.939952	-0.316650	-0.717773	-0.458740	-0.404094	-0.297082	-0.170962	-0.848070
46702		4.574682	5.659474	9.695486	-0.834962	-0.716348	0.953908	-0.335938	-0.698730	-0.461670	-0.400310	-0.300669	-0.160021	-0.850731
46703		5.374551	5.578833	9.880713	-0.828636	-0.642217	1.014172	-0.353027	-0.680908	-0.475098	-0.395929	-0.303781	-0.149216	-0.853635
46704		5.285676	6.315715	9.349103	-0.803959	-0.567236	1.048257	-0.369141	-0.665527	-0.500732	-0.391095	-0.306434	-0.138744	-0.856676
46705		5.239257	6.457152	9.155958	-0.796466	-0.587772	0.942919	-0.380859	-0.655518	-0.504395	-0.386968	-0.309093	-0.128527	-0.859185
46706		5.682316	6.029366	9.448515	-0.795682	-0.563177	0.790464	-0.393555	-0.630127	-0.513916	-0.383862	-0.311376	-0.118792	-0.861152
46707		5.750157	5.476502	9.325036	-0.820095	-0.506648	0.734666	-0.397461	-0.618896	-0.523438	-0.381127	-0.313086	-0.109212	-0.863014
46708		5.861280	5.397276	8.889020	-0.851828	-0.461190	0.689925	-0.420654	-0.590088	-0.541260	-0.378721	-0.314294	-0.099668	-0.864787
46709		5.472790	5.015503	8.583197	-0.888050	-0.475659	0.657813	-0.428467	-0.578613	-0.546875	-0.376619	-0.315435	-0.089905	-0.866358
46710		5.677655	4.217826	8.667650	-0.801834	-0.516004	0.593762	-0.435303	-0.555420	-0.552734	-0.374751	-0.317058	-0.080809	-0.867471
46711		6.239483	3.466959	8.746124	-0.702912	-0.498568	0.581416	-0.448242	-0.543457	-0.565918	-0.372671	-0.318829	-0.072519	-0.868450
46712		6.445005	3.575700	8.152876	-0.702946	-0.472682	0.646576	-0.446777	-0.529541	-0.579346	-0.370078	-0.320427	-0.064137	-0.869630
46713		6.522052	3.308800	7.820312	-0.724701	-0.522821	0.719998	-0.469727	-0.506836	-0.585938	-0.367007	-0.322333	-0.055248	-0.870836
46714		6.617654	3.465730	7.986709	-0.652710	-0.574300	0.690002	-0.472656	-0.489014	-0.590332	-0.363952	-0.324791	-0.046806	-0.871699
46715		6.631116	3.466573	8.179749	-0.671232	-0.587396	0.706631	-0.491943	-0.465820	-0.601074	-0.360801	-0.327267	-0.038146	-0.872504
46716		6.682510	2.875131	8.194102	-0.608617	-0.584685	0.689313	-0.495361	-0.452881	-0.595459	-0.357575	-0.329877	-0.029999	-0.873167
46717		6.747048	2.762731	8.037704	-0.539290	-0.589290	0.710538	-0.515625	-0.440186	-0.596436	-0.353976	-0.332706	-0.022287	-0.873791
46718		6.864200	2.470906	7.962401	-0.502682	-0.608224	0.764382	-0.522949	-0.427734	-0.608643	-0.349860	-0.335763	-0.014638	-0.874441
46719		6.916532	2.887194	8.086561	-0.473725	-0.624399	0.800356	-0.551758	-0.394775	-0.604248	-0.345374	-0.338997	-0.007054	-0.875070
46720		6.894780	3.393332	8.313970	-0.509603	-0.625142	0.806037	-0.553955	-0.385986	-0.605713	-0.340917	-0.342103	0.000806	-0.875637
46721		6.853867	3.715868	8.454271	-0.541488	-0.600041	0.748785	-0.567139	-0.371582	-0.613770	-0.336942	-0.344906	0.008659	-0.876034
46722		6.975599	3.730038	8.556384	-0.529387	-0.568492	0.635417	-0.582764	-0.350830	-0.610596	-0.333737	-0.347493	0.016004	-0.876135
46723		7.230409	3.372656	8.522663	-0.545251	-0.532620	0.537720	-0.593750	-0.339600	-0.607178	-0.331277	-0.349765	0.023077	-0.876007
46724		7.157746	2.632002	8.161829	-0.545106	-0.504115	0.480774	-0.600342	-0.330811	-0.604004	-0.329219	-0.351819	0.029898	-0.875753
46725		7.064882	2.348409	7.866042	-0.547749	-0.525415	0.470709	-0.609619	-0.303955	-0.604492	-0.327221	-0.354005	0.036763	-0.875360
46726		7.128410	1.923203	7.790543	-0.513605	-0.554885	0.527745	-0.627930	-0.294189	-0.596191	-0.324679	-0.356461	0.043623	-0.874995
46727		7.229634	1.847721	7.640320	-0.402686	-0.578367	0.588276	-0.641602	-0.280273	-0.590820	-0.321339	-0.359344	0.049914	-0.874712
46728		7.190328	2.424660	7.606587	-0.364114	-0.610695	0.631076	-0.654541	-0.271240	-0.590820	-0.317540	-0.362527	0.056134	-0.874410
46729		7.282088	2.686411	7.815752	-0.377992	-0.651655	0.602251	-0.665283	-0.249756	-0.577393	-0.313953	-0.365962	0.062470	-0.873844
46730		7.434075	2.623698	8.042687	-0.378993	-0.641990	0.545408	-0.681396	-0.237061	-0.566650	-0.310771	-0.369330	0.068608	-0.873103
46731		7.292240	2.529819	8.112266	-0.363367	-0.619158	0.495926	-0.690186	-0.224365	-0.568359	-0.307898	-0.372580	0.074414	-0.872265
46732		7.129500	2.227369	7.988282	-0.336084	-0.603379	0.479594	-0.702148	-0.221191	-0.564697	-0.305054	-0.375776	0.079924	-0.871405
46733		7.000999	1.978069	8.044065	-0.274209	-0.596534	0.438676	-0.704590	-0.202393	-0.549072	-0.302305	-0.379089	0.084834	-0.870463
46734		6.937374	2.137850	8.237903	-0.271879	-0.569581	0.391115	-0.724854	-0.199707	-0.532959	-0.299902	-0.382230	0.089503	-0.869453
46735		6.922549	2.338288	8.533607	-0.357971	-0.513842	0.379646	-0.737793	-0.180908	-0.527832	-0.297888	-0.384744	0.094615	-0.868495
46736		6.901032	2.251062	8.624830	-0.366369	-0.442184	0.341650	-0.727783	-0.174316	-0.524902	-0.296225	-0.386734	0.099481	-0.867636
46737		6.863425	2.556331	8.692811	-0.369209	-0.364547	0.248732	-0.746338	-0.161133	-0.515869	-0.295300	-0.388220	0.103873	-0.866772
46738		6.744001	2.548072	8.612386	-0.455835	-0.274057	0.161100	-0.753174	-0.154785	-0.509033	-0.295363	-0.388906	0.108378	-0.865891
46739		6.559232	2.029876	8.375554	-0.506920	-0.196747	0.082294	-0.762939	-0.143311	-0.502197	-0.296226	-0.388969	0.112801	-0.865003
46740		6.573763	1.624730	8.272092	-0.454112	-0.162333	0.027405	-0.759766	-0.146240	-0.490479	-0.297342	-0.388957	0.116576	-0.864124
46741		6.599375	1.393063	8.184659	-0.417185	-0.135418	0.020862	-0.755859	-0.137451	-0.498291	-0.298409	-0.388841	0.119994	-0.863340
46742		6.606428	1.316064	7.995934	-0.398002	-0.107698	0.018878	-0.763672	-0.145264	-0.493896	-0.299454	-0.388569	0.123196	-0.862650
46743		6.666567	1.336853	7.908980	-0.394205	-0.075615	-0.015339	-0.757568	-0.133057	-0.497559	-0.300763	-0.388105	0.126177	-0.861972
46744		6.725450	1.409265	7.821284	-0.430246	-0.032813	-0.063477	-0.759521	-0.129883	-0.486572	-0.302576	-0.387288	0.129150	-0.861264
46745		6.866563	1.278138	7.664467	-0.481581	0.007983	-0.118556	-0.754639	-0.132568	-0.494385	-0.304992	-0.386101	0.132208	-0.860481
46746		7.066338	1.212449	7.417169	-0.502168	0.041575	-0.187399	-0.752930	-0.124512	-0.487061	-0.307999	-0.384688	0.135103	-0.859592
46747		7.187542	1.077589	7.067205	-0.512833	0.055573	-0.223732	-0.756592	-0.130859	-0.494385	-0.311312	-0.383179	0.137918	-0.858625
46748		7.236486	0.881749	6.828299	-0.474308	0.031623	-0.237594	-0.756104	-0.117920	-0.489746	-0.314566	-0.381950	0.140471	-0.857572
46749		7.283074	0.603871	6.809722	-0.393543	-0.002536	-0.211753	-0.756836	-0.121094	-0.492920	-0.317334	-0.381140	0.142615	-0.856558
46750		7.359332	0.607595	6.847181	-0.294941	-0.022547	-0.187626	-0.758545	-0.115234	-0.492920	-0.319590	-0.380701	0.144183	-0.855652
46751		7.327681	0.653857	6.809810	-0.264494	-0.037866	-0.144056	-0.752441	-0.120361	-0.498535	-0.321418	-0.380397	0.145711	-0.854843
46752		7.263303	0.545791	6.816909	-0.240403	-0.047349	-0.131987	-0.752930	-0.118896	-0.491699	-0.323070	-0.380208	0.147130	-0.854061
46753		7.309477	0.518015	6.864647	-0.217536	-0.048998	-0.131011	-0.767822	-0.130859	-0.486084	-0.324639	-0.380090	0.148392	-0.853300
46754		7.304003	0.368774	6.882933	-0.200628	-0.043380	-0.108999	-0.753174	-0.119873	-0.488770	-0.326004	-0.379949	0.149587	-0.852634
46755		7.230128	0.144167	6.824713	-0.123119	-0.036514	-0.107990	-0.751953	-0.125488	-0.489990	-0.327125	-0.379966	0.150216	-0.852086
46756		7.175208	0.282899	6.850177	-0.083277	-0.039879	-0.087724	-0.759766	-0.123291	-0.489502	-0.327970	-0.380091	0.150634	-0.851631
46757		7.192879	0.091117	6.931066	-0.056547	-0.053915	-0.038642	-0.760986	-0.121582	-0.486572	-0.328365	-0.380325	0.151056	-0.851300
46758		7.329878	-0.009526	7.033220	0.013841	-0.046993	-0.003134	-0.752686	-0.123779	-0.490234	-0.328294	-0.380658	0.151073	-0.851175
46759		7.254332	0.253641	7.014115	0.035526	-0.027732	0.026957	-0.764404	-0.116699	-0.489502	-0.327965	-0.380876	0.150978	-0.851222
46760		7.153267	0.327654	6.942584	0.015963	-0.019089	0.028047	-0.754150	-0.123047	-0.483398	-0.327702	-0.380976	0.151001	-0.851274
46761		7.182063	0.295315	6.966112	0.002783	-0.018598	0.004899	-0.754395	-0.118652	-0.483643	-0.327646	-0.381067	0.151043	-0.851248
46762		7.272150	0.279008	7.028581	-0.006361	0.004249	-0.003223	-0.754639	-0.124023	-0.481934	-0.327705	-0.380980	0.151060	-0.851261
46763		7.284345	0.237937	6.857782	-0.001295	0.037644	-0.007751	-0.753906	-0.121826	-0.484619	-0.327823	-0.380675	0.150936	-0.851374
46764		7.270981	0.317782	6.725062	0.005090	0.049305	-0.028491	-0.750732	-0.126221	-0.485352	-0.328083	-0.380331	0.150668	-0.851475
46765		7.421333	0.381235	6.543625	-0.013137	0.051210	-0.047485	-0.754150	-0.121826	-0.493164	-0.328537	-0.379947	0.150464	-0.851507
46766		7.464845	0.287530	6.412076	-0.029143	0.050558	-0.078984	-0.754639	-0.128906	-0.488037	-0.329265	-0.379564	0.150274	-0.851430
46767		7.500656	0.057817	6.301121	-0.028031	0.039240	-0.122981	-0.755127	-0.128906	-0.487305	-0.330287	-0.379319	0.149968	-0.851197
46768		7.381402	-0.042278	6.260384	-0.025670	0.030591	-0.157338	-0.746582	-0.125488	-0.492920	-0.331534	-0.379185	0.149561	-0.850844
46769		7.441377	-0.149939	6.274446	-0.049748	0.018519	-0.152503	-0.747559	-0.132324	-0.494385	-0.332807	-0.379064	0.149372	-0.850434
46770		7.494517	-0.404824	6.294559	-0.030986	0.011834	-0.126592	-0.755127	-0.133545	-0.489746	-0.333827	-0.379010	0.149152	-0.850097
46771		7.537539	-0.514539	6.276826	0.018425	0.011656	-0.096118	-0.749512	-0.129883	-0.496826	-0.334474	-0.379056	0.148678	-0.849905
46772		7.411689	-0.400504	6.214953	0.038319	-0.003490	-0.062746	-0.742920	-0.125244	-0.488770	-0.334803	-0.379224	0.148213	-0.849782
46773		7.486843	-0.320649	6.214768	0.032949	-0.022048	-0.014228	-0.749756	-0.131104	-0.491943	-0.334781	-0.379449	0.147991	-0.849729
46774		7.542879	-0.278484	6.226595	0.059413	-0.026243	0.020175	-0.749512	-0.135254	-0.488037	-0.334426	-0.379735	0.147703	-0.849791
46775		7.533740	0.014589	6.225864	0.087391	-0.026363	0.030842	-0.743896	-0.134521	-0.502686	-0.333906	-0.380087	0.147252	-0.849916
46776		7.497075	0.125012	6.231229	0.089706	-0.042922	0.022900	-0.750000	-0.129150	-0.498779	-0.333414	-0.380573	0.146805	-0.849969
46777		7.587752	0.063675	6.278030	0.095293	-0.047496	0.021215	-0.754883	-0.140625	-0.489990	-0.332910	-0.381110	0.146326	-0.850009
46778		7.426494	-0.000532	6.259895	0.109842	-0.059339	0.037755	-0.756104	-0.133057	-0.489746	-0.332228	-0.381751	0.145829	-0.850074
46779		7.368459	0.020857	6.343126	0.161123	-0.090780	0.066708	-0.747803	-0.126221	-0.487549	-0.331138	-0.382721	0.145148	-0.850179
46780		7.390468	0.247635	6.560543	0.199942	-0.109456	0.099297	-0.762207	-0.133789	-0.488281	-0.329670	-0.383890	0.144347	-0.850359
46781		7.439059	0.595657	6.727485	0.215146	-0.105721	0.108962	-0.758301	-0.139404	-0.483398	-0.328087	-0.385062	0.143459	-0.850591
46782		7.368329	0.936358	6.793193	0.201809	-0.095595	0.096584	-0.754395	-0.134033	-0.480957	-0.326647	-0.386138	0.142596	-0.850803
46783		7.333266	1.054996	6.834595	0.203267	-0.092659	0.049172	-0.756592	-0.135010	-0.483154	-0.325540	-0.387253	0.141559	-0.850893
46784		7.290942	1.118674	6.932424	0.201642	-0.091306	-0.008288	-0.763428	-0.139404	-0.473633	-0.324848	-0.388421	0.140343	-0.850827
46785		7.279903	0.980071	7.017673	0.186434	-0.080273	-0.037921	-0.753418	-0.145752	-0.476807	-0.324428	-0.389503	0.139107	-0.850696
46786		7.174871	0.875909	7.050654	0.198060	-0.073833	-0.040187	-0.766113	-0.143311	-0.477295	-0.323994	-0.390572	0.137762	-0.850590
46787		7.110319	0.913205	7.072571	0.238178	-0.069541	-0.032751	-0.756836	-0.145020	-0.472412	-0.323382	-0.391708	0.136142	-0.850561
46788		7.080687	1.205140	7.209006	0.250980	-0.068487	-0.014436	-0.756104	-0.149170	-0.479004	-0.322598	-0.392848	0.134487	-0.850596
46789		7.107813	1.418391	7.389388	0.262174	-0.049972	0.005580	-0.767090	-0.146484	-0.486328	-0.321657	-0.393862	0.132766	-0.850754
46790		7.063544	1.697820	7.612813	0.309824	-0.014276	0.000352	-0.763428	-0.149902	-0.481934	-0.320636	-0.394753	0.130591	-0.851063
46791		7.093689	2.013148	7.803156	0.348777	0.025009	-0.007460	-0.764404	-0.160156	-0.489014	-0.319585	-0.395475	0.128005	-0.851516
46792		7.078868	2.295747	7.806377	0.375571	0.071060	-0.033234	-0.761963	-0.159912	-0.481934	-0.318677	-0.395964	0.125016	-0.852073
46793		6.899986	2.663123	7.801478	0.376553	0.097847	-0.065185	-0.756592	-0.156250	-0.482910	-0.318020	-0.396293	0.121838	-0.852626
46794		6.901494	2.914963	7.998194	0.357758	0.120100	-0.119538	-0.757812	-0.164062	-0.489990	-0.317833	-0.396465	0.118550	-0.853079
46795		7.092738	3.062919	8.219250	0.333930	0.158159	-0.189315	-0.753906	-0.165283	-0.486084	-0.318258	-0.396366	0.115092	-0.853440
46796		7.268981	3.063127	8.213083	0.317207	0.222070	-0.256864	-0.752441	-0.177734	-0.501221	-0.319280	-0.395827	0.111354	-0.853804
46797		7.356818	2.950714	8.114523	0.345664	0.260092	-0.307157	-0.746826	-0.185547	-0.506836	-0.320598	-0.395132	0.107139	-0.854171
46798		7.299474	2.953700	8.056301	0.407624	0.271041	-0.321150	-0.743408	-0.187012	-0.508301	-0.321817	-0.394528	0.102401	-0.854573
46799		7.204498	3.056676	8.279387	0.487764	0.271744	-0.329053	-0.735596	-0.195068	-0.514404	-0.322823	-0.394129	0.097057	-0.855001
46800		7.407772	3.096966	8.545123	0.558210	0.295563	-0.368099	-0.737305	-0.203369	-0.518311	-0.323888	-0.393768	0.091010	-0.855430
46801		7.520044	3.306309	8.657995	0.574695	0.353212	-0.420195	-0.732422	-0.220703	-0.527832	-0.325302	-0.393063	0.084510	-0.855884
46802		7.476944	3.419928	8.569246	0.563674	0.399415	-0.473621	-0.718018	-0.238525	-0.538818	-0.327240	-0.391999	0.077792	-0.856271
46803		7.361723	3.652630	8.572848	0.574149	0.421756	-0.555582	-0.719971	-0.248779	-0.545166	-0.329641	-0.390854	0.070650	-0.856492
46804		7.308019	4.049245	8.840134	0.579105	0.446359	-0.589666	-0.701172	-0.263916	-0.550781	-0.332267	-0.389542	0.063284	-0.856651
46805		7.343059	4.222780	9.239309	0.643387	0.480126	-0.617859	-0.689209	-0.286377	-0.557129	-0.334884	-0.388156	0.055265	-0.856816
46806		7.237713	4.502054	9.605274	0.737462	0.544313	-0.687940	-0.675781	-0.308838	-0.564453	-0.337702	-0.386573	0.046157	-0.856965
46807		7.283627	4.813488	9.944522	0.758256	0.620243	-0.835020	-0.660645	-0.329102	-0.571045	-0.341500	-0.384520	0.036204	-0.856861
46808		7.493376	4.608037	9.987395	0.679754	0.725802	-0.960890	-0.644531	-0.350342	-0.571777	-0.346441	-0.381478	0.026097	-0.856605
46809		7.145775	3.843864	9.709111	0.699827	0.804645	-1.097681	-0.622559	-0.378174	-0.572021	-0.352261	-0.377902	0.015175	-0.856079
46810		6.943779	3.650809	9.482912	0.705266	0.842811	-1.161601	-0.611572	-0.402100	-0.575195	-0.358466	-0.374010	0.003895	-0.855338
46811		6.834687	3.213243	9.485197	0.622455	0.871861	-1.113497	-0.581299	-0.430664	-0.582031	-0.364526	-0.369594	-0.006733	-0.854679
46812		6.883033	2.995009	9.802476	0.606335	0.899234	-1.061611	-0.560303	-0.445312	-0.578369	-0.370205	-0.364873	-0.017170	-0.854120
46813		7.030281	3.093280	9.867971	0.601477	0.958748	-0.953869	-0.542725	-0.478516	-0.572021	-0.375064	-0.359669	-0.027425	-0.853940
46814		7.112885	3.360944	9.633321	0.734630	0.998882	-0.874491	-0.517822	-0.486816	-0.574951	-0.378890	-0.354554	-0.038509	-0.853962
46815		7.199449	4.160264	9.319502	0.890905	1.007134	-0.855803	-0.495605	-0.517090	-0.572510	-0.382053	-0.349818	-0.050668	-0.853871
46816		7.148293	4.938034	9.047428	0.904034	1.002953	-0.918521	-0.478271	-0.541504	-0.570801	-0.385555	-0.345064	-0.063081	-0.853404
46817		7.057886	4.979193	8.913086	0.809441	0.990801	-1.024059	-0.455566	-0.561035	-0.557861	-0.390011	-0.339974	-0.075075	-0.852451
46818		7.030929	4.516220	8.874270	0.727116	0.988483	-1.123980	-0.430420	-0.586914	-0.544922	-0.395335	-0.334506	-0.086745	-0.851053
46819		6.904817	4.114350	8.760503	0.675650	0.981907	-1.174483	-0.406738	-0.597900	-0.537598	-0.401085	-0.328815	-0.098152	-0.849340
46820		7.019928	3.739320	8.509792	0.688008	0.974199	-1.131913	-0.388916	-0.621582	-0.518799	-0.406425	-0.323192	-0.109482	-0.847572
46821		6.751619	3.871277	8.116946	0.779233	0.950058	-1.079436	-0.364746	-0.637939	-0.520752	-0.411090	-0.318038	-0.121209	-0.845674
46822		6.243548	4.328891	8.048952	0.806517	0.872053	-1.047611	-0.350586	-0.662109	-0.489258	-0.415459	-0.313504	-0.132750	-0.843497
46823		6.153527	4.490849	8.327351	0.797866	0.809969	-1.029784	-0.331543	-0.681885	-0.495117	-0.419719	-0.309345	-0.143943	-0.841084
46824		6.003510	4.719844	8.596068	0.821220	0.792734	-1.005815	-0.310303	-0.693604	-0.473633	-0.423699	-0.305368	-0.155150	-0.838545
46825		6.006638	5.164775	8.578495	0.841798	0.824180	-1.049291	-0.294922	-0.715088	-0.464600	-0.427815	-0.301139	-0.166693	-0.835765
46826		5.666673	5.473667	8.214078	0.734969	0.831529	-1.111200	-0.275146	-0.724854	-0.454102	-0.432542	-0.296342	-0.177641	-0.832786
46827		5.446261	4.956661	7.966406	0.683054	0.789780	-1.180068	-0.256592	-0.738525	-0.432861	-0.437858	-0.291497	-0.188214	-0.829388
46828		5.705799	4.731263	7.843819	0.698301	0.782169	-1.222164	-0.232422	-0.760010	-0.422119	-0.443358	-0.286645	-0.198929	-0.825648
46829		5.627168	4.836520	7.267189	0.647528	0.784972	-1.210300	-0.216309	-0.771729	-0.408691	-0.448810	-0.281558	-0.209236	-0.821897
46830		5.374375	4.393686	6.484932	0.642665	0.732587	-1.173241	-0.197021	-0.779541	-0.400635	-0.454030	-0.276832	-0.219186	-0.818033
46831		4.966318	4.074365	6.110101	0.728334	0.626038	-1.132281	-0.174805	-0.795166	-0.380859	-0.458889	-0.273192	-0.229183	-0.813795
46832		4.903487	3.945921	6.126267	0.811975	0.524868	-1.092627	-0.157227	-0.817871	-0.362549	-0.463409	-0.270597	-0.239230	-0.809196
46833		5.160191	4.297105	5.899007	0.784335	0.503480	-1.045635	-0.147949	-0.808838	-0.353516	-0.467645	-0.268098	-0.248861	-0.804674
46834		4.494200	4.369978	5.189973	0.681007	0.438674	-1.000788	-0.118652	-0.823975	-0.343994	-0.471881	-0.265696	-0.257409	-0.800296
46835		3.914375	4.003536	5.141980	0.675209	0.302150	-1.018846	-0.104980	-0.828857	-0.323730	-0.476485	-0.264117	-0.265388	-0.795471
46836		4.099557	3.550623	5.547698	0.709971	0.232845	-1.011191	-0.096680	-0.846191	-0.305664	-0.481057	-0.263127	-0.273272	-0.790361
46837		3.951351	3.468175	5.392364	0.702620	0.236649	-0.958314	-0.078857	-0.849121	-0.293213	-0.485234	-0.262179	-0.280971	-0.785408
46838		3.415462	3.299823	4.841117	0.652857	0.204834	-0.868554	-0.075439	-0.855225	-0.287842	-0.488957	-0.261426	-0.287987	-0.780795
46839		3.104439	2.920307	4.556178	0.659396	0.122422	-0.778881	-0.067139	-0.853027	-0.267822	-0.492239	-0.261434	-0.294485	-0.776294
46840		2.650143	2.802944	4.715275	0.702302	0.035777	-0.712209	-0.046387	-0.861328	-0.263184	-0.495169	-0.262326	-0.300733	-0.771720
46841		2.655998	2.894390	4.852925	0.653991	0.005767	-0.698347	-0.039795	-0.865967	-0.250488	-0.498157	-0.263230	-0.306491	-0.767211
46842		2.475626	2.932352	4.661367	0.458565	0.001211	-0.659181	-0.020996	-0.875244	-0.239990	-0.501306	-0.263438	-0.310872	-0.763316
46843		2.220044	2.367856	4.178808	0.352700	-0.030298	-0.580904	-0.013672	-0.871826	-0.229004	-0.504250	-0.263600	-0.314258	-0.759927
46844		2.059488	2.019941	4.072824	0.373563	-0.091337	-0.529318	-0.011719	-0.872559	-0.221436	-0.506965	-0.264363	-0.317391	-0.756546
46845		2.071012	1.951955	4.031320	0.351645	-0.110458	-0.502797	-0.010254	-0.877441	-0.214844	-0.509597	-0.265218	-0.320232	-0.753274
46846		1.783870	1.798407	3.758757	0.224852	-0.142872	-0.395257	-0.001709	-0.884033	-0.208740	-0.511908	-0.266020	-0.321889	-0.750714
46847		1.534876	1.521739	3.596339	0.150629	-0.214950	-0.239758	-0.001221	-0.885986	-0.206543	-0.513598	-0.267370	-0.322420	-0.748850
46848		1.264038	1.217454	3.910980	0.171306	-0.274639	-0.139757	0.000244	-0.879639	-0.208496	-0.514774	-0.269448	-0.322593	-0.747222
46849		0.982313	1.263255	4.633916	0.139402	-0.284817	-0.097445	-0.000732	-0.890137	-0.204590	-0.515782	-0.271562	-0.322419	-0.745834
46850		0.940604	1.657964	5.113447	-0.022057	-0.229253	-0.026338	0.004639	-0.883545	-0.208252	-0.516563	-0.272825	-0.321311	-0.745311
46851		1.010272	1.546580	4.994550	-0.207567	-0.174928	0.151787	0.005859	-0.880127	-0.201660	-0.516514	-0.273424	-0.318871	-0.746173
46852		0.571917	1.518199	4.962085	-0.124379	-0.186932	0.253157	-0.006104	-0.885010	-0.210938	-0.515675	-0.274720	-0.316655	-0.747220
46853		0.628125	2.044949	5.638908	-0.113170	-0.222777	0.316720	-0.009277	-0.884277	-0.224609	-0.514508	-0.276448	-0.314199	-0.748423
46854		1.132814	1.881853	6.279351	-0.228183	-0.167352	0.399434	-0.011719	-0.876709	-0.216309	-0.512940	-0.277547	-0.311061	-0.750401
46855		1.461432	2.021173	6.056016	-0.324224	-0.063330	0.510909	-0.021973	-0.870361	-0.222900	-0.510619	-0.277862	-0.307493	-0.753332
46856		1.422269	2.625663	5.403552	-0.381653	-0.027145	0.598022	-0.031250	-0.876953	-0.233398	-0.507779	-0.277917	-0.303499	-0.756843
46857		1.706376	3.253821	5.144958	-0.461488	-0.072728	0.630767	-0.045410	-0.871094	-0.249512	-0.505012	-0.277990	-0.298713	-0.760562
46858		2.187079	3.391516	5.313474	-0.554817	-0.110911	0.639885	-0.048096	-0.866455	-0.251465	-0.502476	-0.277920	-0.293134	-0.764428
46859		2.533762	3.094942	5.475277	-0.577734	-0.141765	0.669221	-0.061768	-0.863525	-0.266846	-0.499853	-0.278007	-0.287192	-0.768362
46860		2.980838	3.133421	5.401637	-0.565610	-0.179330	0.778244	-0.078125	-0.860107	-0.287842	-0.496561	-0.278628	-0.280894	-0.772588
46861		3.210534	3.840390	5.288964	-0.593511	-0.220977	0.875385	-0.086670	-0.857910	-0.292480	-0.492767	-0.279608	-0.273993	-0.777128
46862		3.301776	4.236773	5.288087	-0.660479	-0.285026	0.904160	-0.094971	-0.846924	-0.303711	-0.489042	-0.280770	-0.266300	-0.781723
46863		3.349347	4.592311	5.610350	-0.705944	-0.360626	0.876926	-0.115967	-0.837402	-0.320312	-0.485719	-0.282153	-0.258040	-0.786055
46864		3.875960	4.180537	6.057200	-0.720294	-0.422628	0.888363	-0.136963	-0.832031	-0.325195	-0.482436	-0.283881	-0.249380	-0.790238
46865		4.457852	3.872764	6.179940	-0.655879	-0.436092	0.926146	-0.148682	-0.824219	-0.350586	-0.478726	-0.286007	-0.240973	-0.794326
46866		4.404632	4.642644	5.846398	-0.698689	-0.497011	0.986645	-0.160889	-0.814209	-0.353516	-0.474782	-0.288457	-0.231866	-0.798507
46867		4.719713	5.044521	5.786405	-0.786255	-0.615340	1.055079	-0.181396	-0.810547	-0.382080	-0.470755	-0.291443	-0.221512	-0.802735
46868		4.805176	5.157063	6.242409	-0.739548	-0.733401	1.124071	-0.200684	-0.793457	-0.394287	-0.466292	-0.295488	-0.210807	-0.806734
46869		4.578433	5.724652	7.118748	-0.597923	-0.837175	1.123738	-0.219971	-0.788086	-0.400879	-0.461585	-0.300734	-0.200619	-0.810093
46870		4.758159	6.273881	8.348097	-0.580120	-0.889253	1.058639	-0.241699	-0.771484	-0.415527	-0.457283	-0.306244	-0.190484	-0.812910
46871		5.297272	6.765611	8.924262	-0.721218	-0.808627	0.935893	-0.260254	-0.761963	-0.418945	-0.453974	-0.310430	-0.179988	-0.815565
46872		4.997045	6.464587	8.365657	-0.896585	-0.732302	0.835387	-0.279541	-0.753662	-0.432129	-0.451621	-0.313239	-0.168826	-0.818180
46873		4.269168	5.069321	8.143022	-0.798571	-0.800388	0.779094	-0.292236	-0.743164	-0.456299	-0.449428	-0.316759	-0.158203	-0.820152
46874		4.621204	4.195695	9.117293	-0.556717	-0.873354	0.862056	-0.311279	-0.729736	-0.463379	-0.446069	-0.321751	-0.148724	-0.821815
46875		5.398467	4.564117	9.727247	-0.428188	-0.774138	1.061310	-0.326660	-0.709229	-0.464355	-0.440821	-0.326743	-0.139940	-0.824217
46876		5.223737	5.813689	9.483688	-0.495758	-0.639255	1.140640	-0.351807	-0.698730	-0.478760	-0.434995	-0.330605	-0.130954	-0.827243
46877		5.319970	6.370729	8.983863	-0.632021	-0.565987	1.008702	-0.360840	-0.683350	-0.490234	-0.430318	-0.333279	-0.121643	-0.830033
46878		5.002093	5.728482	8.766414	-0.717855	-0.553370	0.849394	-0.368896	-0.659912	-0.505859	-0.426921	-0.335357	-0.112218	-0.832275
46879		5.513684	4.355823	9.107294	-0.611981	-0.553124	0.795166	-0.383545	-0.642578	-0.509766	-0.423562	-0.337724	-0.103673	-0.834140
46880		6.219199	4.261606	8.942599	-0.533359	-0.444268	0.883220	-0.402832	-0.627930	-0.518555	-0.419239	-0.339656	-0.095803	-0.836477
46881		6.046430	4.914390	8.189630	-0.605499	-0.390721	0.976320	-0.422363	-0.618896	-0.524658	-0.414388	-0.341003	-0.087346	-0.839268
46882		6.058159	5.429889	7.815423	-0.676835	-0.433244	0.892184	-0.434082	-0.596680	-0.540771	-0.410317	-0.342305	-0.078477	-0.841611
46883		6.346206	5.095403	8.141610	-0.717820	-0.473654	0.736591	-0.445068	-0.576904	-0.548096	-0.407442	-0.343617	-0.069624	-0.843250
46884		6.684584	4.169971	8.190431	-0.687751	-0.455187	0.697721	-0.457520	-0.548340	-0.562744	-0.404708	-0.344850	-0.061154	-0.844719
46885		6.669107	3.472534	7.659581	-0.574591	-0.442005	0.808107	-0.459229	-0.544434	-0.563721	-0.400832	-0.346401	-0.053204	-0.846469
46886		6.531269	3.976755	7.295173	-0.432342	-0.502013	0.893322	-0.475586	-0.527344	-0.565186	-0.395936	-0.348858	-0.045809	-0.848195
46887		6.743199	4.598299	7.502591	-0.433018	-0.578394	0.918836	-0.499756	-0.511475	-0.579102	-0.390854	-0.351832	-0.038082	-0.849704
46888		6.827885	4.720289	8.156551	-0.437476	-0.608700	0.807177	-0.512695	-0.496582	-0.582520	-0.386551	-0.354941	-0.030553	-0.850683
46889		7.127360	4.520125	8.488497	-0.519135	-0.562411	0.681353	-0.524414	-0.485840	-0.579102	-0.383339	-0.357398	-0.022967	-0.851346
46890		6.975028	3.834252	8.020371	-0.566231	-0.501013	0.646343	-0.539062	-0.456787	-0.590820	-0.380477	-0.359238	-0.015350	-0.852027
46891		6.488274	3.242876	7.518315	-0.491816	-0.523849	0.684622	-0.545898	-0.442383	-0.582520	-0.377098	-0.361457	-0.008076	-0.852690
46892		6.735825	3.290893	7.782824	-0.360520	-0.582540	0.683040	-0.562988	-0.426270	-0.588379	-0.373314	-0.364480	-0.001557	-0.853105
46893		6.985298	3.034685	8.107175	-0.336971	-0.574335	0.718313	-0.574951	-0.411865	-0.588379	-0.369183	-0.367494	0.004875	-0.853597
46894		7.044715	3.014569	8.138079	-0.321537	-0.547627	0.725127	-0.585693	-0.402832	-0.579590	-0.364934	-0.370341	0.011133	-0.854135
46895		7.227557	3.315187	8.006004	-0.371439	-0.527149	0.712483	-0.603516	-0.377686	-0.593262	-0.360908	-0.372867	0.017642	-0.854637
46896		7.266552	3.388757	7.791862	-0.447744	-0.518433	0.661650	-0.613525	-0.364746	-0.582031	-0.357460	-0.375085	0.024507	-0.854947
46897		7.185714	3.120679	7.781887	-0.444259	-0.524478	0.546990	-0.626221	-0.353760	-0.583252	-0.354796	-0.377357	0.031002	-0.854845
46898		7.214212	2.729090	7.829132	-0.468667	-0.506714	0.496489	-0.640381	-0.340332	-0.575195	-0.352556	-0.379425	0.037456	-0.854598
46899		7.293083	2.213026	7.867875	-0.470814	-0.481771	0.487391	-0.638672	-0.333496	-0.575684	-0.350379	-0.381292	0.043820	-0.854360
46900		7.259559	1.839299	7.727575	-0.436491	-0.464026	0.514744	-0.663330	-0.310547	-0.573486	-0.347889	-0.383105	0.049971	-0.854229
46901		7.400139	1.444445	7.472026	-0.354535	-0.475301	0.578612	-0.675049	-0.295898	-0.567627	-0.344661	-0.385189	0.055772	-0.854241
46902		7.454538	1.233141	7.170686	-0.235067	-0.486207	0.668561	-0.681396	-0.287842	-0.550293	-0.340388	-0.387633	0.061039	-0.854489
46903		7.368006	1.338340	7.004750	-0.124343	-0.525964	0.737722	-0.696777	-0.270508	-0.551270	-0.335226	-0.390617	0.065851	-0.854813
46904		7.397045	1.652460	7.125741	-0.093301	-0.554614	0.777498	-0.705566	-0.269531	-0.543945	-0.329644	-0.393845	0.070647	-0.855120
46905		7.475095	2.466048	7.405043	-0.175104	-0.534674	0.758495	-0.722900	-0.244629	-0.539062	-0.324456	-0.396692	0.075904	-0.855337
46906		7.447355	3.038019	7.491932	-0.336042	-0.487207	0.711816	-0.736816	-0.228271	-0.530518	-0.320145	-0.398771	0.082017	-0.855431
46907		7.449311	3.132762	7.535069	-0.368511	-0.453407	0.600944	-0.739990	-0.213379	-0.520020	-0.316739	-0.400577	0.087895	-0.855271
46908		7.567949	3.239451	7.663271	-0.333288	-0.420188	0.477054	-0.753418	-0.200195	-0.516357	-0.314112	-0.402312	0.093014	-0.854885
46909		7.546614	3.138192	7.687606	-0.340463	-0.386251	0.379034	-0.751709	-0.197510	-0.502441	-0.312345	-0.403818	0.097769	-0.854291
46910		7.431555	2.629424	7.688454	-0.321890	-0.378944	0.325639	-0.763428	-0.185303	-0.496826	-0.310776	-0.405384	0.102176	-0.853605
46911		7.462117	2.322048	7.758449	-0.255037	-0.371137	0.291998	-0.769043	-0.182129	-0.485107	-0.309311	-0.407064	0.105978	-0.852874
46912		7.509541	2.210036	7.845514	-0.215542	-0.348345	0.272275	-0.773438	-0.167480	-0.478271	-0.307859	-0.408695	0.109368	-0.852191
46913		7.390580	1.842377	7.668774	-0.185409	-0.332198	0.239204	-0.774902	-0.171875	-0.477539	-0.306472	-0.410331	0.112377	-0.851513
46914		7.227912	1.674964	7.599485	-0.161077	-0.315839	0.184820	-0.788574	-0.157471	-0.463623	-0.305477	-0.411938	0.114991	-0.850745
46915		7.162201	1.681340	7.685665	-0.228513	-0.292304	0.155772	-0.788818	-0.161621	-0.466553	-0.304864	-0.413248	0.117911	-0.849930
46916		7.178847	1.482856	7.685085	-0.293898	-0.255751	0.146353	-0.778564	-0.158691	-0.454590	-0.304619	-0.414125	0.121170	-0.849132
46917		7.150060	1.650035	7.679933	-0.315423	-0.213116	0.097329	-0.789795	-0.150635	-0.458252	-0.304796	-0.414699	0.124296	-0.848336
46918		7.193229	1.816754	7.692724	-0.373956	-0.155095	0.006566	-0.789307	-0.145020	-0.445068	-0.305876	-0.414801	0.127372	-0.847441
46919		7.052342	1.675106	7.590206	-0.451637	-0.091204	-0.083096	-0.793457	-0.139893	-0.444580	-0.307924	-0.414343	0.130519	-0.846444
46920		7.041741	1.464103	7.493888	-0.493639	-0.039770	-0.127166	-0.791504	-0.149170	-0.444580	-0.310480	-0.413453	0.133674	-0.845453
46921		7.025984	1.164733	7.376960	-0.466015	0.006834	-0.133920	-0.795654	-0.141357	-0.443359	-0.313037	-0.412305	0.136485	-0.844621
46922		7.152487	1.040490	7.266012	-0.383570	0.047312	-0.132036	-0.791504	-0.131592	-0.438477	-0.315340	-0.411077	0.138614	-0.844016
46923		7.210566	1.085563	7.112520	-0.342437	0.084614	-0.151191	-0.790527	-0.142334	-0.446289	-0.317679	-0.409711	0.140288	-0.843526
46924		7.209051	1.025580	6.937190	-0.375684	0.112013	-0.185842	-0.783203	-0.152100	-0.446289	-0.320404	-0.408098	0.142000	-0.842990
46925		7.366595	0.856380	6.808505	-0.422264	0.125383	-0.200564	-0.781250	-0.134033	-0.455322	-0.323404	-0.406278	0.143951	-0.842393
46926		7.441708	0.490259	6.706864	-0.403560	0.143891	-0.186062	-0.779297	-0.133301	-0.455566	-0.326255	-0.404354	0.145767	-0.841907
46927		7.478206	0.429054	6.564622	-0.323695	0.148285	-0.156106	-0.781982	-0.141113	-0.456543	-0.328630	-0.402574	0.147108	-0.841603
46928		7.561975	0.328137	6.434454	-0.241426	0.137048	-0.099810	-0.783691	-0.140381	-0.464355	-0.330317	-0.401025	0.148091	-0.841510
46929		7.592682	0.362181	6.351004	-0.143398	0.122329	-0.064695	-0.781494	-0.135010	-0.462158	-0.331410	-0.399804	0.148544	-0.841581
46930		7.559957	0.477904	6.272280	-0.092495	0.100049	-0.021086	-0.783203	-0.131836	-0.466553	-0.332000	-0.398824	0.148845	-0.841760
46931		7.598756	0.589144	6.296060	-0.068008	0.069842	0.006059	-0.773682	-0.129883	-0.464600	-0.332281	-0.398091	0.149148	-0.841943
46932		7.751620	0.763702	6.345384	-0.053671	0.059014	0.023807	-0.772217	-0.130127	-0.467041	-0.332375	-0.397451	0.149439	-0.842156
46933		7.757210	0.866603	6.326303	-0.029753	0.061098	-0.005539	-0.772705	-0.138672	-0.471436	-0.332599	-0.396900	0.149458	-0.842324
46934		7.706722	0.782993	6.229322	-0.015113	0.058939	-0.052072	-0.770508	-0.143066	-0.468506	-0.333098	-0.396464	0.149224	-0.842374
46935		7.660626	0.567263	6.200090	-0.023583	0.051071	-0.083122	-0.771484	-0.135010	-0.468994	-0.333834	-0.396098	0.148969	-0.842300
46936		7.672055	0.320803	6.255654	-0.025133	0.039352	-0.078205	-0.766113	-0.142822	-0.469971	-0.334525	-0.395805	0.148772	-0.842199
46937		7.639295	0.358595	6.235435	-0.007196	0.034735	-0.064775	-0.761230	-0.137939	-0.468018	-0.335056	-0.395577	0.148506	-0.842141
46938		7.634553	0.553630	6.261917	-0.020539	0.031185	-0.077551	-0.767090	-0.140137	-0.466797	-0.335717	-0.395353	0.148302	-0.842019
46939		7.668035	0.470433	6.250826	-0.046200	0.031664	-0.094826	-0.764160	-0.144287	-0.476074	-0.336583	-0.395076	0.148219	-0.841818
46940		7.643731	0.285726	6.189702	-0.024329	0.030288	-0.106247	-0.763916	-0.142090	-0.480713	-0.337456	-0.394884	0.147948	-0.841607
46941		7.625560	0.168264	6.165154	0.022522	0.016278	-0.087169	-0.757324	-0.145996	-0.472900	-0.338023	-0.394899	0.147450	-0.841460
46942		7.637831	0.133435	6.246686	0.068474	0.000628	-0.052297	-0.768799	-0.145264	-0.475586	-0.338174	-0.395110	0.146789	-0.841415
46943		7.563824	0.295366	6.320778	0.102600	-0.002837	-0.020353	-0.763916	-0.147705	-0.475586	-0.337984	-0.395402	0.146004	-0.841491
46944		7.531512	0.502466	6.435750	0.109274	-0.004600	-0.002075	-0.764893	-0.141113	-0.470703	-0.337642	-0.395704	0.145238	-0.841619
46945		7.590775	0.587396	6.528589	0.130565	0.010831	-0.009754	-0.769043	-0.145996	-0.476318	-0.337301	-0.395966	0.144252	-0.841802
46946		7.583805	0.704388	6.491204	0.139306	0.033236	-0.038988	-0.762939	-0.153320	-0.477295	-0.337164	-0.396130	0.143046	-0.841985
46947		7.468441	0.584791	6.352998	0.132122	0.034062	-0.059392	-0.774902	-0.151855	-0.476562	-0.337194	-0.396292	0.141818	-0.842105
46948		7.497171	0.514822	6.389065	0.133583	0.020634	-0.056161	-0.761475	-0.155273	-0.482178	-0.337181	-0.396549	0.140629	-0.842189
46949		7.439833	0.646112	6.429292	0.135438	0.019927	-0.045871	-0.761719	-0.149414	-0.480957	-0.337087	-0.396803	0.139461	-0.842300
46950		7.350024	0.816431	6.518111	0.134475	0.012991	-0.036137	-0.765381	-0.155029	-0.484131	-0.336921	-0.397091	0.138352	-0.842414
46951		7.345162	0.930408	6.637604	0.163715	0.005355	-0.022204	-0.762207	-0.159180	-0.480713	-0.336551	-0.397499	0.137103	-0.842574
46952		7.428457	1.092966	6.793141	0.225335	0.002830	0.010548	-0.766846	-0.158691	-0.474365	-0.335743	-0.398058	0.135536	-0.842886
46953		7.419833	1.351191	6.835785	0.319218	-0.002039	0.042756	-0.762451	-0.165527	-0.478271	-0.334391	-0.398876	0.133428	-0.843373
46954		7.326363	1.859397	7.016890	0.393172	-0.002446	0.044436	-0.761230	-0.171387	-0.486572	-0.332780	-0.399897	0.130804	-0.843937
46955		7.345504	2.248177	7.269478	0.390976	0.003761	0.014178	-0.765137	-0.166260	-0.480713	-0.331392	-0.400898	0.128073	-0.844427
46956		7.445446	2.466474	7.462421	0.370886	0.026209	-0.030280	-0.758057	-0.170654	-0.476807	-0.330408	-0.401728	0.125268	-0.844839
46957		7.319803	2.604747	7.519266	0.374811	0.056086	-0.065627	-0.761475	-0.176514	-0.485107	-0.329688	-0.402392	0.122230	-0.845249
46958		7.239514	2.647832	7.683985	0.417734	0.070447	-0.111331	-0.756348	-0.178955	-0.491211	-0.329160	-0.403114	0.118691	-0.845615
46959		7.280932	2.716017	7.883418	0.460153	0.104476	-0.175461	-0.759277	-0.183105	-0.494629	-0.328972	-0.403770	0.114539	-0.845948
46960		7.111171	2.809878	7.947790	0.437164	0.151611	-0.206597	-0.757080	-0.190186	-0.497070	-0.329122	-0.404051	0.110308	-0.846317
46961		6.995082	2.691958	8.098010	0.429473	0.183181	-0.215570	-0.758057	-0.195312	-0.498779	-0.329387	-0.404089	0.106009	-0.846746
46962		6.935227	2.721203	8.212098	0.493688	0.214182	-0.225070	-0.747314	-0.203857	-0.499268	-0.329587	-0.404067	0.101137	-0.847274
46963		7.002871	3.159577	8.480778	0.529973	0.254517	-0.236152	-0.750977	-0.216553	-0.515625	-0.329710	-0.403873	0.095851	-0.847933
46964		7.293293	3.533828	8.659639	0.513082	0.310141	-0.280004	-0.737549	-0.220459	-0.525635	-0.330345	-0.403232	0.090383	-0.848591
46965		7.422503	3.978627	8.668753	0.486868	0.372662	-0.319685	-0.728516	-0.244873	-0.518555	-0.331280	-0.402121	0.084781	-0.849332
46966		7.390217	4.255801	8.693832	0.504228	0.405799	-0.355298	-0.733154	-0.244385	-0.531738	-0.332423	-0.400834	0.078836	-0.850066
46967		7.321890	4.458896	8.784303	0.597982	0.441476	-0.518724	-0.720947	-0.256104	-0.540283	-0.334421	-0.399641	0.071572	-0.850486
46968		7.502292	4.811215	9.036951	0.526294	0.488751	-0.645965	-0.701172	-0.281494	-0.547607	-0.337571	-0.397964	0.064251	-0.850613
46969		7.631087	4.544867	9.068989	0.453964	0.543797	-0.713097	-0.693604	-0.288818	-0.547119	-0.341445	-0.395700	0.057054	-0.850636
46970		7.820728	4.663549	9.120538	0.515661	0.582860	-0.740257	-0.679688	-0.306396	-0.567871	-0.345302	-0.393317	0.049209	-0.850674
46971		7.777155	5.080740	9.240746	0.644867	0.611321	-0.779440	-0.662598	-0.333740	-0.563477	-0.348997	-0.391083	0.040228	-0.850668
46972		7.563894	5.230578	9.332920	0.762912	0.646201	-0.906376	-0.647705	-0.360107	-0.573975	-0.353181	-0.388944	0.029885	-0.850349
46973		7.609889	5.505901	9.553456	0.712483	0.690606	-1.044024	-0.634521	-0.376709	-0.573730	-0.358468	-0.386321	0.019313	-0.849637
46974		7.621721	4.679573	9.486911	0.597417	0.753701	-1.146733	-0.610352	-0.404053	-0.574219	-0.364810	-0.382865	0.009028	-0.848673
46975		7.529388	4.075244	9.417426	0.570830	0.792385	-1.194281	-0.586426	-0.429688	-0.570801	-0.371518	-0.378995	-0.001342	-0.847547
46976		7.574418	3.543940	9.354863	0.611492	0.816138	-1.177150	-0.578125	-0.451660	-0.571533	-0.377913	-0.375016	-0.012020	-0.846404
46977		7.594617	3.734861	9.299962	0.682999	0.847993	-1.120505	-0.546875	-0.475342	-0.574707	-0.383617	-0.370978	-0.023123	-0.845387
46978		7.399532	3.822670	9.183507	0.753999	0.855466	-1.069954	-0.527344	-0.500732	-0.561768	-0.388678	-0.367059	-0.034590	-0.844394
46979		7.470242	4.495693	9.319409	0.770052	0.867227	-1.155669	-0.503418	-0.523438	-0.552734	-0.394218	-0.363018	-0.046462	-0.843002
46980		7.638883	4.915462	9.273330	0.573341	0.914849	-1.221749	-0.496826	-0.550537	-0.554443	-0.400723	-0.357901	-0.057299	-0.841454
46981		7.465054	4.198464	8.834819	0.502684	0.943602	-1.282522	-0.464600	-0.582764	-0.550537	-0.407773	-0.352250	-0.067908	-0.839660
46982		7.289794	3.971377	8.597886	0.595779	0.935438	-1.349029	-0.430420	-0.602295	-0.542725	-0.414934	-0.346863	-0.079319	-0.837392
46983		7.081010	4.011168	8.596168	0.573593	0.905354	-1.293990	-0.407959	-0.617676	-0.526123	-0.421706	-0.341574	-0.090293	-0.835068
46984		7.101417	3.445737	8.576171	0.644885	0.894172	-1.233698	-0.394775	-0.644287	-0.525879	-0.427779	-0.336593	-0.101531	-0.832708
46985		6.958179	4.251405	8.502655	0.685994	0.921357	-1.224269	-0.360840	-0.659668	-0.512207	-0.433561	-0.331513	-0.113100	-0.830260
46986		6.608192	4.308676	8.151495	0.596500	0.918284	-1.230551	-0.340820	-0.674561	-0.502441	-0.439550	-0.326062	-0.124030	-0.827705
46987		6.595726	4.200843	7.964265	0.561154	0.892978	-1.267871	-0.313965	-0.698486	-0.491943	-0.445831	-0.320557	-0.134697	-0.824824
46988		6.329190	3.916639	7.727127	0.573191	0.864529	-1.265008	-0.306885	-0.709473	-0.479248	-0.452004	-0.315237	-0.145304	-0.821709
46989		6.057798	3.767135	7.596928	0.624756	0.809186	-1.210769	-0.274658	-0.731445	-0.460693	-0.457651	-0.310501	-0.155881	-0.818441
46990		5.977499	3.892270	7.523449	0.684264	0.776481	-1.128807	-0.259521	-0.744629	-0.454834	-0.462546	-0.306270	-0.166495	-0.815186
46991		5.701943	4.459954	7.377291	0.681035	0.760981	-1.082840	-0.240479	-0.759766	-0.436035	-0.467081	-0.302150	-0.176878	-0.811945
46992		5.349789	4.556287	7.228244	0.652040	0.721394	-1.101700	-0.210205	-0.772217	-0.424805	-0.471800	-0.298113	-0.186926	-0.808450
46993		5.358720	4.511423	7.326885	0.635232	0.684774	-1.120216	-0.197021	-0.776367	-0.416748	-0.476669	-0.294186	-0.196731	-0.804698
46994		5.445122	4.516499	7.077965	0.604972	0.692571	-1.091739	-0.178467	-0.793213	-0.407227	-0.481335	-0.290093	-0.206259	-0.801012
46995		4.872737	4.617566	6.367237	0.601299	0.654651	-1.048969	-0.152344	-0.802490	-0.391846	-0.485719	-0.286276	-0.215474	-0.797304
46996		4.820356	4.652762	6.029883	0.674289	0.549688	-1.050023	-0.145508	-0.817139	-0.380859	-0.490058	-0.283415	-0.224719	-0.793108
46997		4.617318	4.728492	6.017355	0.675982	0.457159	-1.016322	-0.125732	-0.819336	-0.352295	-0.494278	-0.281205	-0.233485	-0.788732
46998		4.248038	4.446053	6.173846	0.690614	0.365830	-0.976225	-0.108398	-0.834717	-0.350830	-0.498318	-0.279705	-0.241847	-0.784191
46999		4.437439	4.538915	6.396178	0.708072	0.335255	-0.926526	-0.087891	-0.839844	-0.326660	-0.501998	-0.278550	-0.250049	-0.779669
47000		4.269565	4.899502	6.034842	0.684188	0.345794	-0.876608	-0.076172	-0.844238	-0.320557	-0.505334	-0.277307	-0.257995	-0.775356
47001		3.892901	5.356294	5.508072	0.623586	0.307614	-0.863713	-0.070068	-0.852539	-0.308594	-0.508761	-0.276062	-0.265330	-0.771072
47002		3.653023	5.193699	5.237802	0.636471	0.217500	-0.885160	-0.049072	-0.851074	-0.298584	-0.512447	-0.275383	-0.272390	-0.766398
47003		3.381724	5.133024	5.309894	0.659637	0.127007	-0.865982	-0.041748	-0.873779	-0.286377	-0.516116	-0.275405	-0.279142	-0.761483
47004		3.191243	4.949815	5.524118	0.693655	0.055485	-0.821599	-0.029785	-0.862549	-0.263184	-0.519547	-0.276110	-0.285674	-0.756455
47005		3.114603	4.962639	5.388664	0.696588	0.030384	-0.775880	-0.021729	-0.873047	-0.254395	-0.522699	-0.277077	-0.291985	-0.751505
47006		2.698114	4.953593	5.054130	0.661286	0.001741	-0.769876	-0.012939	-0.876465	-0.229736	-0.525924	-0.278065	-0.297912	-0.746547
47007		2.471040	4.468026	4.950807	0.630578	-0.036048	-0.790673	0.007324	-0.877441	-0.228760	-0.529403	-0.279085	-0.303506	-0.741436
47008		2.113862	3.639883	4.981605	0.616632	-0.055626	-0.785383	0.009766	-0.887695	-0.215332	-0.532893	-0.280160	-0.308891	-0.736289
47009		1.855314	2.981896	5.003506	0.617110	-0.071809	-0.755229	0.018066	-0.892822	-0.209717	-0.536202	-0.281396	-0.314112	-0.731189
47010		1.756861	2.457384	4.795413	0.551067	-0.050313	-0.677569	0.031982	-0.886719	-0.194092	-0.539105	-0.282391	-0.318820	-0.726619
47011		1.198253	2.359401	4.538004	0.414528	-0.051109	-0.566006	0.045654	-0.892090	-0.185547	-0.541634	-0.283061	-0.322415	-0.722881
47012		1.032102	1.616614	4.382346	0.314533	-0.043134	-0.471686	0.054199	-0.883057	-0.180908	-0.543795	-0.283477	-0.325208	-0.719839
47013		0.943095	1.357377	4.322673	0.276943	-0.012122	-0.423172	0.056641	-0.889893	-0.181885	-0.545661	-0.283660	-0.327789	-0.717179
47014		0.787013	1.337698	4.237861	0.156094	0.014809	-0.320832	0.058838	-0.891602	-0.181152	-0.547123	-0.283407	-0.329519	-0.715370
47015		0.942373	1.039443	3.982977	0.051345	0.016572	-0.188068	0.063232	-0.886719	-0.165283	-0.548036	-0.283026	-0.330310	-0.714457
47016		1.056470	1.015367	3.674387	0.036724	0.009437	-0.059530	0.063965	-0.894531	-0.164062	-0.548239	-0.282973	-0.330672	-0.714154
47017		0.681187	1.303360	3.581200	-0.002315	-0.051138	0.013925	0.063965	-0.889893	-0.162109	-0.548266	-0.283303	-0.330346	-0.714154
47018		0.250634	1.195186	4.127097	-0.132170	-0.167745	0.099337	0.057861	-0.898926	-0.163574	-0.548413	-0.283966	-0.328508	-0.714625
47019		0.784761	0.944679	4.932745	-0.145044	-0.197231	0.270086	0.057373	-0.891846	-0.181885	-0.547654	-0.285209	-0.326046	-0.715838
47020		0.802791	1.608858	5.177159	-0.108184	-0.137648	0.430193	0.049072	-0.892822	-0.182861	-0.545687	-0.286692	-0.323685	-0.717817
47021		0.482861	2.437175	5.179034	-0.186533	-0.128026	0.490195	0.033691	-0.890869	-0.179199	-0.543516	-0.287915	-0.320742	-0.720291
47022		0.736526	2.484067	5.473615	-0.310848	-0.149239	0.521474	0.038574	-0.890869	-0.186523	-0.541502	-0.288776	-0.316869	-0.723172
47023		1.012852	2.237936	5.763610	-0.350742	-0.128258	0.576841	0.020264	-0.892090	-0.206055	-0.539182	-0.289464	-0.312701	-0.726438
47024		1.102571	2.298054	5.769113	-0.347250	-0.115366	0.665641	0.011719	-0.894287	-0.206543	-0.536264	-0.290306	-0.308380	-0.730099
47025		1.531694	2.557971	5.691305	-0.392887	-0.102220	0.734320	0.003906	-0.888916	-0.214111	-0.532984	-0.291024	-0.303652	-0.734185
47026		1.830978	2.854474	5.418132	-0.497229	-0.080629	0.796358	-0.001465	-0.887451	-0.224365	-0.529495	-0.291285	-0.298209	-0.738823
47027		2.004639	3.261726	5.216831	-0.603486	-0.114967	0.870166	-0.024414	-0.878662	-0.242188	-0.525857	-0.291448	-0.291753	-0.743917
47028		2.306103	3.091271	5.430422	-0.619612	-0.167870	0.939847	-0.036377	-0.877441	-0.251953	-0.521910	-0.292011	-0.284766	-0.749165
47029		2.750397	3.472751	6.066174	-0.625368	-0.195610	0.958050	-0.053223	-0.871826	-0.268555	-0.517881	-0.292736	-0.277546	-0.754370
47030		3.247727	4.006262	6.407387	-0.764060	-0.156009	0.982868	-0.067871	-0.864258	-0.286621	-0.513888	-0.292640	-0.269529	-0.760023
47031		3.541926	4.436910	6.148837	-0.967463	-0.120926	0.999487	-0.082764	-0.853027	-0.302490	-0.510142	-0.291450	-0.260295	-0.766198
47032		3.662035	4.057492	5.690700	-1.007709	-0.167703	0.991006	-0.096680	-0.845703	-0.319336	-0.506575	-0.290329	-0.250583	-0.772204
47033		3.931214	3.929900	5.900932	-0.903815	-0.277014	1.006267	-0.110840	-0.839844	-0.327637	-0.502814	-0.290342	-0.241003	-0.777687
47034		4.171141	3.837325	6.577765	-0.816410	-0.373652	1.120625	-0.133545	-0.835938	-0.354492	-0.498221	-0.291537	-0.231268	-0.783132
47035		4.537720	4.387581	7.278598	-0.765556	-0.408118	1.241964	-0.159912	-0.830566	-0.362305	-0.492700	-0.293358	-0.221387	-0.788781
47036		5.122178	5.103129	7.510637	-0.773321	-0.393589	1.305796	-0.167236	-0.798828	-0.386230	-0.486665	-0.295119	-0.211317	-0.794611
47037		5.331482	5.732008	7.314490	-0.843467	-0.375558	1.339437	-0.189941	-0.799072	-0.394775	-0.480456	-0.296483	-0.200732	-0.800603
47038		4.774402	5.218806	7.142359	-0.782900	-0.451270	1.283967	-0.210693	-0.778809	-0.414307	-0.474504	-0.298451	-0.190347	-0.805941
47039		5.155615	5.268258	7.841824	-0.653704	-0.547288	1.192238	-0.234619	-0.765869	-0.425293	-0.468917	-0.301381	-0.180647	-0.810341
47040		5.794647	5.754410	8.329068	-0.736277	-0.510652	1.252317	-0.245117	-0.759033	-0.442871	-0.462999	-0.303784	-0.170352	-0.815063
47041		5.525281	5.957964	8.013176	-0.811368	-0.486943	1.278888	-0.266357	-0.741699	-0.451416	-0.456973	-0.305723	-0.159542	-0.819912
47042		5.706943	5.839695	8.018010	-0.760497	-0.534090	1.150626	-0.279053	-0.726318	-0.472900	-0.451677	-0.307957	-0.149201	-0.823948
47043		5.676871	5.333908	8.446031	-0.766865	-0.586773	1.081764	-0.297607	-0.704834	-0.474365	-0.446864	-0.310398	-0.138775	-0.827470
47044		6.011520	4.591799	8.767537	-0.756332	-0.606434	1.126015	-0.318848	-0.686768	-0.500244	-0.441670	-0.313019	-0.128215	-0.830968
47045		6.473906	4.998725	8.699090	-0.708008	-0.571634	1.227938	-0.334229	-0.663574	-0.503174	-0.435535	-0.315636	-0.117831	-0.834745
47046		6.300394	5.760508	8.264608	-0.671451	-0.583471	1.265558	-0.350098	-0.644531	-0.525146	-0.428979	-0.318452	-0.107541	-0.838452
47047		6.137641	6.027548	8.361182	-0.644693	-0.662897	1.178946	-0.368896	-0.628906	-0.525635	-0.422955	-0.321790	-0.097370	-0.841475
47048		6.378283	6.263590	9.067778	-0.672680	-0.700135	1.074197	-0.390869	-0.610107	-0.538818	-0.417704	-0.325159	-0.087143	-0.843920
47049		6.781121	6.100277	9.319391	-0.728756	-0.626526	1.029374	-0.405762	-0.582764	-0.548340	-0.412805	-0.327736	-0.076893	-0.846327
47050		6.612543	6.011708	8.909552	-0.704941	-0.554886	0.984118	-0.417236	-0.568848	-0.559082	-0.408060	-0.329818	-0.067176	-0.848643
47051		6.380839	5.798180	8.525097	-0.621720	-0.576325	0.897090	-0.436523	-0.550293	-0.559082	-0.403665	-0.332249	-0.058213	-0.850457
47052		6.468636	5.310154	8.673966	-0.587846	-0.618154	0.808812	-0.447021	-0.533447	-0.567871	-0.399780	-0.335015	-0.049593	-0.851752
47053		6.669425	4.851585	8.907352	-0.606241	-0.620169	0.776526	-0.456787	-0.517578	-0.576660	-0.396139	-0.337689	-0.040927	-0.852857
47054		6.753981	4.667396	8.778998	-0.631876	-0.603514	0.793837	-0.475342	-0.493896	-0.592041	-0.392402	-0.340134	-0.032086	-0.853991
47055		6.827531	4.654720	8.554613	-0.578792	-0.599242	0.757110	-0.478516	-0.476807	-0.590332	-0.388739	-0.342680	-0.023742	-0.854920
47056		6.738331	4.585661	8.389666	-0.539260	-0.605687	0.699178	-0.495361	-0.459961	-0.592529	-0.385344	-0.345361	-0.015827	-0.855561
47057		6.478535	4.403051	8.480514	-0.525049	-0.633907	0.693293	-0.507568	-0.447021	-0.601562	-0.381923	-0.348260	-0.007944	-0.856029
47058		6.820878	3.996425	8.779902	-0.453586	-0.624483	0.707047	-0.520020	-0.438477	-0.598877	-0.378167	-0.351293	-0.000566	-0.856494
47059		6.976008	3.920081	8.755470	-0.349810	-0.568832	0.689931	-0.536133	-0.419434	-0.594727	-0.374203	-0.354230	0.005843	-0.857006
47060		6.771214	3.514060	8.320042	-0.306108	-0.542333	0.664139	-0.542725	-0.404053	-0.600586	-0.370274	-0.357094	0.011775	-0.857463
47061		6.795869	3.122833	8.153163	-0.285386	-0.555997	0.614240	-0.560791	-0.385742	-0.598389	-0.366618	-0.360103	0.017450	-0.857679
47062		6.869390	2.918794	8.052579	-0.355687	-0.545776	0.632186	-0.566162	-0.367920	-0.602295	-0.363027	-0.362801	0.023645	-0.857921
47063		6.914561	2.643522	7.955661	-0.365635	-0.521869	0.636703	-0.581543	-0.355713	-0.593018	-0.359419	-0.365276	0.029848	-0.858196
47064		7.092933	2.920469	7.893041	-0.365580	-0.485285	0.593466	-0.593018	-0.348633	-0.594238	-0.356110	-0.367479	0.035806	-0.858407
47065		7.046998	2.965520	7.744945	-0.426692	-0.458979	0.572128	-0.610107	-0.344238	-0.583252	-0.353131	-0.369301	0.042052	-0.858572
47066		7.217540	2.397820	7.603609	-0.390035	-0.461790	0.533831	-0.619629	-0.318848	-0.588135	-0.350297	-0.371246	0.047921	-0.858587
47067		7.247493	2.104254	7.528085	-0.325653	-0.468472	0.502666	-0.616455	-0.311279	-0.585938	-0.347469	-0.373424	0.053249	-0.858478
47068		7.198372	1.697763	7.509585	-0.303190	-0.494703	0.511461	-0.632812	-0.296875	-0.587402	-0.344484	-0.375835	0.058514	-0.858286
47069		7.258567	1.529693	7.509444	-0.285899	-0.517175	0.564937	-0.658203	-0.280762	-0.571533	-0.341036	-0.378413	0.063884	-0.858148
47070		7.249826	1.509148	7.570859	-0.231279	-0.514433	0.634810	-0.666748	-0.269531	-0.568604	-0.336901	-0.381070	0.069072	-0.858203
47071		7.161988	2.046527	7.611082	-0.188849	-0.505619	0.661498	-0.674072	-0.254395	-0.566650	-0.332429	-0.383747	0.074012	-0.858342
47072		7.193745	2.360235	7.715257	-0.212949	-0.491132	0.632944	-0.686035	-0.245117	-0.559326	-0.328233	-0.386251	0.078986	-0.858390
47073		7.288913	2.460851	7.807819	-0.243444	-0.458909	0.558861	-0.690186	-0.244141	-0.554199	-0.324673	-0.388473	0.083845	-0.858281
47074		7.290298	2.360800	7.849200	-0.270293	-0.428117	0.512512	-0.698730	-0.220947	-0.547852	-0.321541	-0.390418	0.088656	-0.858094
47075		7.314941	2.213779	7.805665	-0.239361	-0.388845	0.474176	-0.714355	-0.218750	-0.531982	-0.318604	-0.392180	0.093010	-0.857925
47076		7.354171	2.384684	7.752106	-0.233938	-0.343102	0.443347	-0.721924	-0.205322	-0.532715	-0.315897	-0.393641	0.097097	-0.857804
47077		7.306113	2.425677	7.563738	-0.274760	-0.320482	0.380036	-0.723145	-0.201416	-0.525635	-0.313790	-0.394874	0.101202	-0.857537
47078		7.346270	2.234949	7.561497	-0.312473	-0.311311	0.305623	-0.729004	-0.190674	-0.518555	-0.312341	-0.395996	0.105303	-0.857054
47079		7.401976	1.985510	7.590781	-0.328076	-0.288411	0.248309	-0.737305	-0.179932	-0.511230	-0.311369	-0.396956	0.109260	-0.856468
47080		7.345265	1.848117	7.607369	-0.344856	-0.259509	0.226623	-0.739746	-0.173584	-0.515869	-0.310631	-0.397679	0.113186	-0.855891
47081		7.285129	1.816971	7.445775	-0.331193	-0.242089	0.187941	-0.750488	-0.167480	-0.504639	-0.310136	-0.398343	0.116837	-0.855271
47082		7.172482	1.827656	7.469899	-0.343492	-0.234691	0.124843	-0.746826	-0.159180	-0.501465	-0.310137	-0.398977	0.120342	-0.854488
47083		7.145400	1.637709	7.537523	-0.383233	-0.221965	0.076033	-0.755615	-0.149414	-0.493408	-0.310628	-0.399460	0.123931	-0.853571
47084		7.060915	1.306107	7.548084	-0.381960	-0.196875	0.043579	-0.762207	-0.150879	-0.491455	-0.311369	-0.399796	0.127333	-0.852642
47085		7.081799	1.342321	7.624303	-0.363095	-0.166738	0.027712	-0.754395	-0.150879	-0.488525	-0.312190	-0.399976	0.130467	-0.851783
47086		7.090958	1.349520	7.558451	-0.356187	-0.124774	0.026452	-0.758057	-0.145752	-0.489746	-0.313042	-0.399872	0.133434	-0.851060
47087		7.124220	1.415210	7.405488	-0.333518	-0.093032	0.008711	-0.770020	-0.149414	-0.487549	-0.313978	-0.399617	0.136095	-0.850413
47088		7.299633	1.308490	7.304077	-0.313258	-0.072282	-0.030759	-0.757324	-0.147461	-0.476807	-0.315149	-0.399308	0.138424	-0.849749
47089		7.340606	1.302088	7.129126	-0.298045	-0.047051	-0.071082	-0.757568	-0.144043	-0.479248	-0.316584	-0.398904	0.140441	-0.849074
47090		7.352284	1.262178	7.007411	-0.324220	-0.035190	-0.086815	-0.764160	-0.140381	-0.472412	-0.318230	-0.398361	0.142557	-0.848361
47091		7.324709	1.232176	6.935461	-0.327669	-0.034324	-0.136234	-0.763184	-0.131104	-0.483398	-0.320236	-0.397858	0.144528	-0.847508
47092		7.397757	1.065188	6.961045	-0.343801	-0.016836	-0.184035	-0.770264	-0.134766	-0.480469	-0.322652	-0.397242	0.146403	-0.846558
47093		7.369757	0.806961	6.908845	-0.335232	0.005998	-0.211403	-0.766357	-0.134277	-0.482910	-0.325259	-0.396516	0.148063	-0.845612
47094		7.301173	0.484265	6.792073	-0.288126	0.011074	-0.212835	-0.762939	-0.136475	-0.481445	-0.327724	-0.395880	0.149370	-0.844728
47095		7.270296	0.322188	6.749430	-0.220034	0.005826	-0.183934	-0.764893	-0.140869	-0.483643	-0.329752	-0.395427	0.150305	-0.843984
47096		7.301586	0.165221	6.697788	-0.152594	-0.006422	-0.133436	-0.762451	-0.137451	-0.479980	-0.331187	-0.395179	0.150966	-0.843420
47097		7.302441	0.250005	6.663513	-0.106360	-0.008808	-0.079249	-0.750488	-0.131348	-0.472168	-0.332086	-0.395007	0.151485	-0.843054
47098		7.341245	0.469139	6.699056	-0.087645	-0.008004	-0.039137	-0.763672	-0.137939	-0.476318	-0.332642	-0.394829	0.152003	-0.842825
47099		7.383299	0.553775	6.724102	-0.071617	0.002408	-0.034974	-0.763184	-0.133301	-0.471436	-0.333130	-0.394616	0.152392	-0.842662
47100		7.439675	0.622804	6.725330	-0.049156	0.016468	-0.071078	-0.755615	-0.133057	-0.476807	-0.333816	-0.394412	0.152465	-0.842473
47101		7.399607	0.582745	6.639256	-0.060049	0.035363	-0.099829	-0.763184	-0.136230	-0.480713	-0.334764	-0.394082	0.152466	-0.842251
47102		7.343319	0.404443	6.593703	-0.072252	0.043079	-0.101716	-0.763428	-0.136230	-0.485107	-0.335775	-0.393665	0.152524	-0.842033
47103		7.398354	0.214680	6.542633	-0.032348	0.039371	-0.078374	-0.760254	-0.146240	-0.477783	-0.336487	-0.393355	0.152388	-0.841918
47104		7.419625	0.219696	6.514251	0.036485	0.030856	-0.039939	-0.755127	-0.138184	-0.487061	-0.336693	-0.393248	0.151919	-0.841971
47105		7.462602	0.383489	6.580206	0.086772	0.019730	-0.019767	-0.759521	-0.135498	-0.488281	-0.336578	-0.393335	0.151194	-0.842106
47106		7.488524	0.538359	6.540358	0.094176	0.021365	-0.013661	-0.753662	-0.143311	-0.487793	-0.336398	-0.393424	0.150432	-0.842273
47107		7.449913	0.618110	6.535160	0.089971	0.021406	-0.035215	-0.757812	-0.137207	-0.484375	-0.336384	-0.393527	0.149629	-0.842374
47108		7.462861	0.723935	6.594554	0.057512	0.022177	-0.058010	-0.760986	-0.136719	-0.485352	-0.336637	-0.393562	0.148975	-0.842372
47109		7.518035	0.682931	6.661275	0.043127	0.037730	-0.068434	-0.761475	-0.140137	-0.494141	-0.337030	-0.393460	0.148343	-0.842374
47110		7.432310	0.573518	6.627099	0.074104	0.050912	-0.080453	-0.756836	-0.141357	-0.487549	-0.337422	-0.393367	0.147416	-0.842423
47111		7.413314	0.687287	6.628765	0.101071	0.053906	-0.100351	-0.756348	-0.146484	-0.494385	-0.337869	-0.393354	0.146226	-0.842458
47112		7.390037	0.602940	6.630236	0.087626	0.053585	-0.086827	-0.750000	-0.155029	-0.500732	-0.338265	-0.393287	0.145174	-0.842512
47113		7.374971	0.571786	6.593568	0.117263	0.050593	-0.061916	-0.758301	-0.158691	-0.488525	-0.338385	-0.393294	0.144004	-0.842662
47114		7.403425	0.766996	6.635599	0.164436	0.036267	-0.012327	-0.759277	-0.159912	-0.487305	-0.337984	-0.393475	0.142704	-0.842959
47115		7.367591	1.086158	6.756306	0.251283	0.021869	0.037511	-0.750977	-0.146729	-0.496338	-0.336931	-0.393941	0.140997	-0.843450
47116		7.353368	1.443350	6.935874	0.343091	0.007312	0.065570	-0.755859	-0.158447	-0.491699	-0.335361	-0.394731	0.138775	-0.844075
47117		7.342428	1.899603	7.166504	0.417188	0.003710	0.070296	-0.750977	-0.158447	-0.500488	-0.333507	-0.395745	0.136054	-0.844777
47118		7.340260	2.376829	7.368295	0.442749	0.007659	0.053723	-0.751709	-0.161865	-0.498047	-0.331688	-0.396815	0.133082	-0.845464
47119		7.408613	2.729245	7.584424	0.422550	0.025008	0.001136	-0.747559	-0.164795	-0.497803	-0.330322	-0.397761	0.130026	-0.846030
47120		7.357835	2.967209	7.686539	0.391365	0.061393	-0.069762	-0.750000	-0.167725	-0.499023	-0.329597	-0.398437	0.126848	-0.846477
47121		7.188325	3.137718	7.751729	0.394716	0.090947	-0.114716	-0.749268	-0.171143	-0.507324	-0.329208	-0.398957	0.123410	-0.846892
47122		7.091932	3.084494	7.948363	0.467090	0.097303	-0.146318	-0.756592	-0.176514	-0.512695	-0.328805	-0.399656	0.119332	-0.847303
47123		7.168947	3.457127	8.297819	0.549808	0.131576	-0.224405	-0.740479	-0.196777	-0.507568	-0.328825	-0.400375	0.114318	-0.847647
47124		7.125428	3.885477	8.634429	0.490832	0.178364	-0.284944	-0.736816	-0.188965	-0.513184	-0.329391	-0.400683	0.109373	-0.847934
47125		7.174680	4.020833	8.870086	0.406994	0.248463	-0.381288	-0.738281	-0.204834	-0.529785	-0.330978	-0.400342	0.104497	-0.848092
47126		7.288367	4.214377	9.089270	0.332378	0.345698	-0.484940	-0.725342	-0.214111	-0.527344	-0.333624	-0.399185	0.099526	-0.848199
47127		7.460534	4.223238	9.139742	0.297837	0.447887	-0.594092	-0.726074	-0.231689	-0.546143	-0.337232	-0.397282	0.094141	-0.848280
47128		7.520963	4.268118	9.081172	0.321980	0.519820	-0.649019	-0.712158	-0.243164	-0.555664	-0.341191	-0.394961	0.088191	-0.848421
47129		7.528654	3.829379	9.071516	0.489462	0.536334	-0.669214	-0.699707	-0.260986	-0.558594	-0.344735	-0.392987	0.080932	-0.848628
47130		7.562152	4.187556	9.304979	0.693896	0.565527	-0.762656	-0.690186	-0.281982	-0.564697	-0.348263	-0.391424	0.071827	-0.848729
47131		7.632564	4.693793	9.569641	0.644307	0.602393	-0.837218	-0.682373	-0.297119	-0.571289	-0.352471	-0.389460	0.062710	-0.848618
47132		7.603146	4.164943	9.598755	0.565612	0.663819	-0.933589	-0.654297	-0.320068	-0.574463	-0.357611	-0.386837	0.053644	-0.848289
47133		7.478223	3.884626	9.609469	0.565151	0.722477	-1.018144	-0.646973	-0.343262	-0.584961	-0.363335	-0.383787	0.044124	-0.847791
47134		7.344723	3.250440	9.450803	0.593501	0.760270	-1.040585	-0.630127	-0.368896	-0.590332	-0.369092	-0.380508	0.034208	-0.847239
47135		7.433440	3.167609	9.499280	0.627694	0.793337	-1.062742	-0.603760	-0.397217	-0.588379	-0.374853	-0.377050	0.023873	-0.846610
47136		7.495933	2.898519	9.327912	0.605305	0.823415	-1.004281	-0.588379	-0.417725	-0.597412	-0.380224	-0.373240	0.013782	-0.846127
47137		7.474096	2.991921	9.153422	0.673475	0.829827	-0.956322	-0.563965	-0.442871	-0.581543	-0.384990	-0.369540	0.003337	-0.845702
47138		7.532864	3.427979	9.141683	0.740660	0.812995	-0.908023	-0.549316	-0.466797	-0.585449	-0.389153	-0.366119	-0.007377	-0.845259
47139		7.526973	3.883740	9.228081	0.791689	0.811983	-0.934293	-0.526855	-0.483643	-0.591309	-0.393288	-0.362815	-0.018526	-0.844599
47140		7.508528	4.333780	9.286017	0.742608	0.845685	-1.007464	-0.510498	-0.503906	-0.572998	-0.398018	-0.359045	-0.029658	-0.843676
47141		7.607480	4.238282	9.051743	0.642025	0.896013	-1.079140	-0.489258	-0.527588	-0.575684	-0.403475	-0.354511	-0.040459	-0.842552
47142		7.417319	3.994480	8.559850	0.619263	0.912177	-1.129358	-0.467773	-0.555664	-0.561279	-0.409275	-0.349710	-0.051295	-0.841169
47143		7.049605	4.020552	8.326901	0.630549	0.866817	-1.165509	-0.443848	-0.572021	-0.552734	-0.415241	-0.345190	-0.062151	-0.839378
47144		6.924316	4.198824	8.570693	0.570875	0.812274	-1.183750	-0.424805	-0.593994	-0.547852	-0.421460	-0.340778	-0.072440	-0.837254
47145		6.788990	3.942017	8.842660	0.550871	0.804386	-1.185698	-0.396729	-0.611816	-0.538330	-0.427683	-0.336293	-0.082553	-0.834973
47146		6.636099	3.792742	8.938997	0.594872	0.823595	-1.217797	-0.379639	-0.629395	-0.531738	-0.433917	-0.331753	-0.093114	-0.832458
47147		6.380236	3.654970	8.788392	0.579786	0.844819	-1.206017	-0.364014	-0.662109	-0.518066	-0.440016	-0.326962	-0.103594	-0.829910
47148		6.144305	3.311250	8.511672	0.591831	0.840238	-1.147935	-0.335449	-0.677490	-0.504883	-0.445607	-0.322241	-0.113960	-0.827411
47149		6.133236	3.188065	8.282386	0.660371	0.840498	-1.104820	-0.314941	-0.689941	-0.489014	-0.450641	-0.317760	-0.124660	-0.824870
47150		5.802931	3.509081	8.021918	0.696189	0.825726	-1.025133	-0.302734	-0.703857	-0.483887	-0.454972	-0.313549	-0.135313	-0.822422
47151		5.755126	3.660315	7.930331	0.725054	0.780422	-0.965436	-0.288574	-0.720703	-0.470215	-0.458800	-0.309779	-0.145812	-0.819926
47152		5.818345	4.240500	7.883178	0.724963	0.773859	-0.945834	-0.256104	-0.741211	-0.458496	-0.462434	-0.306035	-0.156207	-0.817372
47153		5.526628	4.470042	7.633031	0.680101	0.765219	-0.960837	-0.253418	-0.748779	-0.444092	-0.466228	-0.302117	-0.166276	-0.814683
47154		5.526257	4.571212	7.306637	0.638818	0.743553	-0.990967	-0.214355	-0.760742	-0.427734	-0.470294	-0.298106	-0.176029	-0.811770
47155		5.173091	4.344394	6.874218	0.623816	0.705307	-0.979350	-0.202148	-0.772705	-0.420166	-0.474309	-0.294275	-0.185474	-0.808723
47156		5.106570	4.257606	6.707643	0.673289	0.626961	-0.955274	-0.187988	-0.786377	-0.408691	-0.478098	-0.291171	-0.194857	-0.805402
47157		4.979217	4.380896	6.575796	0.689276	0.564063	-0.856115	-0.174072	-0.781738	-0.391357	-0.481227	-0.288683	-0.203829	-0.802208
47158		4.609558	4.804963	6.467776	0.757582	0.474678	-0.786942	-0.157227	-0.801025	-0.382324	-0.483828	-0.287158	-0.212707	-0.798878
47159		4.631674	5.442026	6.624947	0.790545	0.401446	-0.778552	-0.136719	-0.805908	-0.363525	-0.486373	-0.286244	-0.221465	-0.795273
47160		4.431534	6.000759	6.748066	0.719707	0.382053	-0.821066	-0.133057	-0.819336	-0.352783	-0.489355	-0.285069	-0.229752	-0.791506
47161		4.356941	5.984971	6.712676	0.619870	0.383688	-0.909817	-0.122314	-0.831055	-0.341309	-0.493107	-0.283283	-0.237574	-0.787499
47162		4.145035	5.676768	6.430084	0.556189	0.401415	-0.971904	-0.104004	-0.833496	-0.326660	-0.497331	-0.280972	-0.245173	-0.783331
47163		3.830547	5.246139	6.168757	0.574974	0.384239	-0.952600	-0.077637	-0.836670	-0.306641	-0.501368	-0.278866	-0.252751	-0.779090
47164		3.713724	4.986457	5.944220	0.635557	0.346571	-0.907247	-0.076172	-0.847900	-0.306152	-0.504998	-0.277330	-0.260433	-0.774751
47165		3.737830	5.150352	5.612604	0.670090	0.329002	-0.846298	-0.069580	-0.846436	-0.282227	-0.508144	-0.276163	-0.268095	-0.770486
47166		3.282768	5.117519	5.252265	0.671156	0.279093	-0.830523	-0.050293	-0.852539	-0.264160	-0.511251	-0.275335	-0.275491	-0.766106
47167		3.466734	5.109056	5.197351	0.617951	0.224432	-0.899172	-0.035645	-0.862305	-0.269531	-0.514997	-0.274451	-0.282445	-0.761367
47168		3.364547	4.408863	4.813468	0.490889	0.218878	-0.940328	-0.017090	-0.863037	-0.252441	-0.519261	-0.272941	-0.288637	-0.756677
47169		2.782641	3.295239	4.327545	0.462786	0.180854	-0.987920	-0.002441	-0.866211	-0.241699	-0.523934	-0.271415	-0.294569	-0.751702
47170		2.355863	2.730616	4.121831	0.420147	0.102330	-0.950261	0.013428	-0.871826	-0.241943	-0.528617	-0.270267	-0.299778	-0.746762
47171		2.623612	2.033910	3.899190	0.361633	0.069949	-0.833440	0.023438	-0.878906	-0.230225	-0.532750	-0.269338	-0.304193	-0.742362
47172		2.147776	1.493121	3.368642	0.343119	0.054484	-0.736133	0.033936	-0.880127	-0.215576	-0.536332	-0.268658	-0.308185	-0.738372
47173		1.491413	1.242794	3.063217	0.267487	-0.038074	-0.685955	0.038086	-0.874023	-0.218506	-0.539990	-0.268327	-0.311168	-0.734565
47174		1.530428	0.659671	3.067883	0.113003	-0.110033	-0.605856	0.051758	-0.889404	-0.218018	-0.543673	-0.267942	-0.312689	-0.731336
47175		1.177413	0.299087	3.146228	-0.014153	-0.139362	-0.464365	0.056152	-0.880371	-0.212158	-0.546843	-0.267522	-0.312974	-0.729001
47176		0.818716	-0.395284	3.378239	0.014772	-0.179629	-0.264169	0.065186	-0.874756	-0.212158	-0.548833	-0.267997	-0.312796	-0.727406
47177		0.515735	-0.443484	3.945218	0.156288	-0.234602	-0.062806	0.059814	-0.875244	-0.208008	-0.549429	-0.269973	-0.312766	-0.726237
47178		0.339444	0.489872	4.796684	0.120698	-0.249571	0.104924	0.057617	-0.885742	-0.203613	-0.549129	-0.272309	-0.312066	-0.725892
47179		0.554313	1.073683	5.355740	-0.099817	-0.223743	0.249059	0.045654	-0.877441	-0.211182	-0.548391	-0.273849	-0.309815	-0.726835
47180		0.777965	1.589030	5.339139	-0.227900	-0.172368	0.342961	0.043213	-0.885010	-0.215820	-0.547242	-0.274728	-0.306797	-0.728647
47181		0.522327	1.822156	5.255105	-0.206660	-0.157091	0.401058	0.044922	-0.888916	-0.212646	-0.545648	-0.275752	-0.303833	-0.730695
47182		0.595813	2.001243	5.577432	-0.150411	-0.186880	0.435368	0.037842	-0.886719	-0.225830	-0.543785	-0.277292	-0.300987	-0.732676
47183		1.208331	1.976921	5.838716	-0.198172	-0.156157	0.520565	0.023193	-0.882812	-0.229248	-0.541427	-0.278632	-0.297779	-0.735220
47184		1.601871	2.365759	5.478552	-0.313495	-0.091467	0.630252	0.021240	-0.886230	-0.235352	-0.538491	-0.279317	-0.293886	-0.738675
47185		1.517975	2.649289	4.820303	-0.408266	-0.108792	0.699926	0.008789	-0.873779	-0.242920	-0.535369	-0.279839	-0.289151	-0.742605
47186		1.488697	2.829505	4.843605	-0.451985	-0.217708	0.753200	-0.010986	-0.871582	-0.254639	-0.532253	-0.280953	-0.283515	-0.746586
47187		1.884355	2.542207	5.570594	-0.425740	-0.299900	0.805249	-0.019043	-0.873535	-0.270752	-0.528914	-0.282798	-0.277535	-0.750499
47188		2.564910	2.717886	6.255598	-0.427845	-0.269849	0.872550	-0.038574	-0.872070	-0.276855	-0.525054	-0.284581	-0.271491	-0.754735
47189		3.018076	3.205520	6.124914	-0.552743	-0.200048	0.938092	-0.049316	-0.857910	-0.288574	-0.520879	-0.285502	-0.264782	-0.759647
47190		3.100293	4.114996	5.516994	-0.782124	-0.184707	0.989320	-0.050049	-0.857666	-0.297852	-0.516838	-0.285413	-0.256533	-0.765250
47191		3.002390	3.719116	5.256569	-0.870642	-0.272244	1.040325	-0.070557	-0.837891	-0.310547	-0.512803	-0.285575	-0.247185	-0.770960
47192		3.499026	3.502019	5.841615	-0.662294	-0.375038	1.044066	-0.092773	-0.838135	-0.330078	-0.508393	-0.287260	-0.238693	-0.775915
47193		4.027199	3.988660	6.645750	-0.542932	-0.412471	1.106231	-0.118164	-0.837891	-0.340820	-0.503306	-0.289782	-0.230631	-0.780717
47194		4.448472	4.696862	6.907349	-0.634340	-0.399888	1.199585	-0.140137	-0.819824	-0.352051	-0.497740	-0.291980	-0.221766	-0.786016
47195		4.953676	5.290477	6.585669	-0.760628	-0.376501	1.259492	-0.148438	-0.815430	-0.379150	-0.491967	-0.293569	-0.211987	-0.791737
47196		4.526866	5.144152	6.290305	-0.773047	-0.432054	1.241389	-0.176758	-0.800537	-0.385742	-0.486356	-0.295396	-0.201905	-0.797141
47197		3.799219	4.989624	6.958946	-0.662883	-0.591330	1.123774	-0.188232	-0.794678	-0.393555	-0.481444	-0.298485	-0.192165	-0.801368
47198		4.321956	5.475715	8.639574	-0.681222	-0.641543	1.109415	-0.213135	-0.780518	-0.416016	-0.476680	-0.301770	-0.182108	-0.805325
47199		4.942449	6.427540	9.440107	-0.861513	-0.475643	1.199178	-0.223389	-0.772949	-0.426758	-0.471437	-0.303312	-0.171243	-0.810200
47200		4.806024	7.117272	9.099359	-0.990041	-0.281521	1.128987	-0.247559	-0.745361	-0.445801	-0.466636	-0.302887	-0.160421	-0.815337
47201		4.235908	6.090674	8.459935	-0.998427	-0.239363	0.900588	-0.258789	-0.736572	-0.463379	-0.463282	-0.301793	-0.150261	-0.819581
47202		4.482800	4.178781	8.618078	-0.795639	-0.339162	0.697204	-0.268066	-0.714111	-0.478027	-0.460879	-0.301875	-0.141597	-0.822443
47203		5.793996	3.084039	8.845272	-0.700475	-0.348077	0.837267	-0.274902	-0.704346	-0.494629	-0.457247	-0.302521	-0.133185	-0.825632
47204		6.354494	3.359561	8.296445	-0.679127	-0.304341	1.211378	-0.284912	-0.691162	-0.502441	-0.450882	-0.303325	-0.124122	-0.830237
47205		6.195678	4.294763	7.538056	-0.584423	-0.348539	1.444000	-0.316650	-0.671875	-0.515625	-0.442638	-0.304983	-0.114938	-0.835372
47206		6.444684	5.548768	7.575546	-0.512171	-0.472087	1.380414	-0.327881	-0.652344	-0.520752	-0.434691	-0.307654	-0.105943	-0.839743
47207		6.886759	6.243959	7.800232	-0.607432	-0.555865	1.230686	-0.355469	-0.631836	-0.539062	-0.428036	-0.310388	-0.096349	-0.843304
47208		7.088990	5.928308	7.837488	-0.701655	-0.587679	1.094851	-0.365723	-0.612549	-0.540527	-0.422535	-0.312858	-0.086321	-0.846246
47209		6.877252	5.430632	7.727743	-0.649992	-0.642716	1.026658	-0.387939	-0.591797	-0.556396	-0.417358	-0.315810	-0.076635	-0.848648
47210		6.628600	4.930612	7.900214	-0.510270	-0.736938	0.990009	-0.398682	-0.574951	-0.568115	-0.412076	-0.319854	-0.067701	-0.850473
47211		6.571913	5.291472	8.587796	-0.480993	-0.802999	0.964566	-0.425049	-0.556152	-0.564209	-0.406878	-0.324413	-0.058811	-0.851908
47212		6.750181	5.308540	8.772160	-0.558477	-0.777004	0.959218	-0.435791	-0.543213	-0.576660	-0.401861	-0.328483	-0.049472	-0.853323
47213		6.529253	5.496164	8.818968	-0.572435	-0.743051	0.856135	-0.448975	-0.519531	-0.584961	-0.397551	-0.332184	-0.040429	-0.854384
47214		6.633432	5.221416	8.912969	-0.606508	-0.726082	0.679980	-0.458252	-0.503662	-0.586670	-0.394544	-0.335557	-0.031689	-0.854829
47215		6.510846	3.922434	8.876974	-0.646458	-0.705779	0.633010	-0.470703	-0.493896	-0.588379	-0.391940	-0.338612	-0.022867	-0.855104
47216		6.116647	3.312381	8.939223	-0.544747	-0.718619	0.631765	-0.488525	-0.471924	-0.596924	-0.389026	-0.342059	-0.014732	-0.855241
47217		6.281540	3.235415	9.227328	-0.487212	-0.714769	0.718675	-0.505371	-0.462158	-0.596436	-0.385297	-0.345644	-0.006774	-0.855588
47218		6.720439	3.771026	9.391034	-0.482124	-0.645790	0.753262	-0.508545	-0.432129	-0.605225	-0.381270	-0.348723	0.001023	-0.856168
47219		6.840476	4.050608	8.970701	-0.523686	-0.572660	0.646425	-0.532471	-0.413818	-0.597900	-0.378099	-0.351120	0.008570	-0.856553
47220		6.560747	3.830723	8.581400	-0.613020	-0.553661	0.502696	-0.535156	-0.392578	-0.609375	-0.376192	-0.353085	0.016269	-0.856473
47221		6.548395	3.047839	8.577452	-0.661057	-0.574226	0.419165	-0.550293	-0.393555	-0.616699	-0.374997	-0.355035	0.024123	-0.856006
47222		6.669281	2.358012	8.649179	-0.633030	-0.547740	0.462753	-0.561279	-0.376465	-0.607666	-0.373391	-0.356849	0.031818	-0.855702
47223		6.544814	2.208617	8.434849	-0.499841	-0.510909	0.536739	-0.573730	-0.360107	-0.608887	-0.370850	-0.358773	0.038665	-0.855720
47224		6.681565	2.269746	8.329808	-0.365340	-0.501456	0.617391	-0.590820	-0.354004	-0.610352	-0.367316	-0.360997	0.044760	-0.856012
47225		6.685331	2.755684	8.344717	-0.311542	-0.505399	0.629757	-0.598145	-0.330811	-0.612793	-0.363513	-0.363389	0.050515	-0.856303
47226		6.880337	2.805532	8.474650	-0.350183	-0.486297	0.591283	-0.608887	-0.319092	-0.607910	-0.360093	-0.365523	0.056366	-0.856475
47227		6.798202	2.815091	8.572174	-0.396391	-0.438312	0.540530	-0.616943	-0.305420	-0.610107	-0.357182	-0.367181	0.062241	-0.856577
47228		6.783416	2.604210	8.618503	-0.429120	-0.394095	0.533737	-0.629395	-0.291992	-0.602051	-0.354430	-0.368412	0.068191	-0.856739
47229		7.005582	2.420339	8.455177	-0.373922	-0.344290	0.509180	-0.646973	-0.276367	-0.602295	-0.351700	-0.369448	0.073518	-0.856977
47230		6.982369	2.438291	8.078377	-0.323555	-0.324698	0.519745	-0.645752	-0.270508	-0.601318	-0.348741	-0.370471	0.078454	-0.857307
47231		7.124222	2.072804	7.825932	-0.234824	-0.351475	0.572148	-0.655518	-0.260986	-0.603271	-0.345106	-0.371895	0.082989	-0.857735
47232		7.367336	2.041868	7.631162	-0.067051	-0.368557	0.608175	-0.668457	-0.249512	-0.590820	-0.340671	-0.373884	0.086480	-0.858298
47233		7.359818	2.332804	7.445376	0.025428	-0.382028	0.620363	-0.670410	-0.238770	-0.583740	-0.335839	-0.376210	0.089380	-0.858888
47234		7.250203	2.807190	7.412941	-0.027360	-0.405853	0.561736	-0.682861	-0.225098	-0.580078	-0.331564	-0.378589	0.092534	-0.859170
47235		7.400491	2.859470	7.598035	-0.170157	-0.414317	0.479763	-0.692871	-0.218750	-0.569336	-0.328311	-0.380686	0.096468	-0.859060
47236		7.402401	2.457302	7.688117	-0.223022	-0.396392	0.397605	-0.694336	-0.211670	-0.562988	-0.325820	-0.382566	0.100462	-0.858715
47237		7.299859	2.151166	7.640753	-0.173127	-0.362251	0.313711	-0.704834	-0.206543	-0.556885	-0.323793	-0.384399	0.103734	-0.858274
47238		7.188390	1.975244	7.521092	-0.182651	-0.342057	0.265932	-0.707520	-0.197266	-0.552490	-0.322152	-0.386096	0.106861	-0.857746
47239		7.219991	1.493846	7.321454	-0.197931	-0.337658	0.244080	-0.724609	-0.184082	-0.549072	-0.320718	-0.387734	0.110010	-0.857147
47240		7.232614	1.218200	7.266225	-0.161990	-0.338912	0.224567	-0.723877	-0.194336	-0.543701	-0.319302	-0.389488	0.112839	-0.856512
47241		7.343702	1.006609	7.256672	-0.129721	-0.335208	0.221164	-0.728516	-0.169922	-0.535645	-0.317806	-0.391300	0.115414	-0.855899
47242		7.374474	1.092845	7.254270	-0.143931	-0.321298	0.230816	-0.736328	-0.172119	-0.531738	-0.316298	-0.392959	0.118083	-0.855333
47243		7.396689	1.047685	7.202681	-0.177257	-0.299545	0.231816	-0.747070	-0.167480	-0.527832	-0.314911	-0.394369	0.120931	-0.854798
47244		7.277968	1.135829	7.183274	-0.193078	-0.269677	0.185174	-0.746338	-0.157471	-0.511963	-0.313936	-0.395567	0.123658	-0.854213
47245		7.180418	1.095548	7.196327	-0.223772	-0.251620	0.159375	-0.751221	-0.157471	-0.512695	-0.313263	-0.396578	0.126468	-0.853580
47246		7.126183	0.825062	7.219604	-0.201803	-0.231839	0.144663	-0.753662	-0.154541	-0.515625	-0.312641	-0.397517	0.129019	-0.852989
47247		7.178264	0.837691	7.299103	-0.169937	-0.205909	0.150879	-0.755859	-0.150635	-0.500244	-0.311896	-0.398343	0.131295	-0.852529
47248		7.263676	0.910486	7.335380	-0.163558	-0.163093	0.158724	-0.761475	-0.139404	-0.501221	-0.311121	-0.398869	0.133437	-0.852233
47249		7.258738	1.075933	7.230498	-0.167926	-0.118762	0.137527	-0.760986	-0.136963	-0.499512	-0.310707	-0.399047	0.135444	-0.851984
47250		7.243715	1.157895	7.009899	-0.204046	-0.081201	0.090402	-0.768799	-0.139648	-0.491211	-0.310644	-0.398958	0.137430	-0.851731
47251		7.225296	0.884845	6.808500	-0.222048	-0.075123	0.047490	-0.760742	-0.134766	-0.492920	-0.311097	-0.398785	0.139407	-0.851326
47252		7.265310	0.705603	6.769771	-0.200493	-0.077954	0.007804	-0.765137	-0.138428	-0.493408	-0.311611	-0.398772	0.141080	-0.850868
47253		7.364643	0.622206	6.827363	-0.211134	-0.074890	0.007867	-0.767090	-0.136963	-0.494629	-0.312164	-0.398709	0.142820	-0.850404
47254		7.442607	0.365595	6.801453	-0.179647	-0.069412	0.031586	-0.772949	-0.125977	-0.487793	-0.312451	-0.398658	0.144400	-0.850056
47255		7.472642	0.497301	6.789004	-0.114608	-0.067224	0.060239	-0.772949	-0.124756	-0.485596	-0.312427	-0.398695	0.145623	-0.849839
47256		7.430207	0.808909	6.788598	-0.088211	-0.067174	0.083704	-0.769043	-0.122559	-0.489014	-0.312044	-0.398801	0.146721	-0.849741
47257		7.363672	0.988910	6.801167	-0.071206	-0.076039	0.042176	-0.770264	-0.129883	-0.480713	-0.311888	-0.399064	0.147581	-0.849526
47258		7.452520	1.064659	6.907359	-0.098316	-0.066792	-0.006538	-0.765381	-0.124756	-0.489502	-0.312179	-0.399250	0.148445	-0.849181
47259		7.394999	0.793252	6.876552	-0.117576	-0.047977	-0.036083	-0.778076	-0.124023	-0.480713	-0.312766	-0.399289	0.149296	-0.848797
47260		7.351324	0.660845	6.931048	-0.101387	-0.040994	-0.052656	-0.774658	-0.118408	-0.476807	-0.313535	-0.399310	0.149976	-0.848384
47261		7.463085	0.497036	6.886883	-0.072948	-0.024018	-0.048208	-0.770996	-0.111328	-0.477783	-0.314091	-0.399309	0.150405	-0.848102
47262		7.438897	0.521130	6.798490	-0.030506	-0.004707	-0.048821	-0.785889	-0.121826	-0.481201	-0.314535	-0.399283	0.150481	-0.847936
47263		7.332390	0.684318	6.710943	-0.027637	-0.006122	-0.042409	-0.776611	-0.119385	-0.473145	-0.315005	-0.399242	0.150574	-0.847764
47264		7.333999	0.650055	6.741379	-0.022163	-0.014273	-0.048980	-0.775391	-0.118896	-0.480957	-0.315412	-0.399305	0.150614	-0.847577
47265		7.428636	0.746516	6.851224	-0.006324	-0.005041	-0.071137	-0.780518	-0.120117	-0.476562	-0.315935	-0.399371	0.150442	-0.847381
47266		7.366399	0.651505	6.806593	-0.008580	0.015483	-0.085336	-0.772217	-0.121094	-0.479004	-0.316657	-0.399285	0.150194	-0.847196
47267		7.336657	0.498575	6.704709	0.019919	0.017507	-0.084725	-0.775635	-0.125488	-0.488281	-0.317218	-0.399277	0.149730	-0.847072
47268		7.428118	0.332058	6.708058	0.069186	0.017013	-0.071626	-0.773438	-0.130859	-0.474609	-0.317636	-0.399353	0.148980	-0.847012
47269		7.445623	0.388298	6.707432	0.104371	0.024685	-0.051090	-0.767090	-0.129395	-0.476807	-0.317688	-0.399475	0.148011	-0.847105
47270		7.388627	0.500082	6.788084	0.126765	0.029386	-0.027729	-0.775391	-0.129150	-0.481201	-0.317506	-0.399592	0.146948	-0.847303
47271		7.345528	0.744105	6.811129	0.143411	0.037567	-0.024668	-0.774170	-0.134766	-0.485596	-0.317258	-0.399692	0.145756	-0.847555
47272		7.369812	1.055264	6.942252	0.134923	0.046890	-0.032588	-0.771240	-0.129883	-0.478760	-0.317226	-0.399678	0.144591	-0.847773
47273		7.423682	1.186408	7.004808	0.128369	0.068366	-0.055657	-0.771484	-0.139160	-0.488770	-0.317284	-0.399555	0.143317	-0.848025
47274		7.432326	1.255254	6.941978	0.145117	0.089995	-0.068137	-0.767334	-0.138184	-0.491455	-0.317535	-0.399301	0.141845	-0.848299
47275		7.427121	1.475101	6.928536	0.187045	0.090528	-0.053790	-0.766846	-0.139893	-0.487549	-0.317411	-0.399173	0.140099	-0.848695
47276		7.510684	1.931094	6.960952	0.218796	0.086144	-0.039973	-0.766113	-0.135742	-0.493408	-0.317079	-0.399143	0.138183	-0.849147
47277		7.663366	2.203918	7.081814	0.258861	0.087161	-0.046205	-0.766357	-0.144775	-0.493652	-0.316658	-0.399217	0.135956	-0.849629
47278		7.730022	2.429080	7.169625	0.324968	0.090435	-0.095169	-0.771729	-0.146240	-0.495361	-0.316492	-0.399463	0.133105	-0.850027
47279		7.671004	2.802401	7.284626	0.336612	0.097435	-0.135200	-0.761230	-0.152832	-0.504395	-0.316554	-0.399738	0.130011	-0.850353
47280		7.653479	2.943730	7.389852	0.321922	0.103122	-0.181990	-0.763184	-0.163330	-0.509766	-0.316960	-0.400000	0.126857	-0.850555
47281		7.599826	3.137203	7.475756	0.318625	0.110929	-0.213112	-0.762207	-0.165283	-0.511230	-0.317604	-0.400227	0.123596	-0.850688
47282		7.567556	3.356447	7.694275	0.362969	0.105706	-0.238994	-0.754395	-0.170166	-0.516602	-0.318275	-0.400632	0.119941	-0.850770
47283		7.692362	3.561092	7.973499	0.438030	0.122804	-0.273634	-0.753906	-0.180420	-0.515381	-0.318893	-0.401152	0.115557	-0.850900
47284		7.511115	3.784272	8.224284	0.543822	0.134194	-0.324027	-0.753174	-0.192139	-0.520264	-0.319520	-0.401911	0.110216	-0.851015
47285		7.574809	4.044706	8.506436	0.638608	0.154199	-0.382533	-0.740967	-0.196045	-0.529297	-0.320255	-0.402820	0.103944	-0.851099
47286		7.633444	4.589165	8.880173	0.665138	0.206430	-0.465396	-0.733887	-0.226074	-0.531494	-0.321521	-0.403483	0.097055	-0.851121
47287		7.620920	4.927729	9.092071	0.619077	0.256091	-0.542998	-0.738525	-0.235840	-0.533203	-0.323519	-0.403711	0.090088	-0.851021
47288		7.500636	4.776576	9.221937	0.633409	0.304134	-0.666220	-0.732178	-0.246094	-0.543213	-0.326364	-0.403706	0.082462	-0.850711
47289		7.557116	4.610179	9.524759	0.719052	0.341926	-0.799447	-0.726562	-0.266357	-0.547607	-0.329868	-0.403723	0.073665	-0.850158
47290		7.776216	4.429876	9.774301	0.780771	0.407066	-0.855336	-0.710205	-0.290527	-0.543701	-0.333572	-0.403442	0.064052	-0.849624
47291		7.792279	4.349452	9.625383	0.837700	0.499618	-0.934842	-0.704834	-0.321045	-0.556152	-0.337660	-0.402657	0.053499	-0.849112
47292		7.802098	4.467171	9.375643	0.790840	0.574328	-0.999779	-0.686523	-0.345215	-0.553955	-0.342356	-0.401184	0.042838	-0.848533
47293		7.759274	4.260454	9.270572	0.718503	0.591291	-1.018238	-0.669189	-0.366943	-0.561768	-0.347386	-0.399336	0.032569	-0.847817
47294		7.983349	3.631405	9.414287	0.772114	0.604023	-0.998308	-0.652344	-0.390869	-0.556641	-0.352054	-0.397491	0.021943	-0.847099
47295		8.176862	3.664865	9.399080	0.933098	0.664573	-1.029113	-0.637939	-0.420654	-0.554443	-0.356365	-0.395634	0.009898	-0.846392
47296		8.062517	3.776977	8.949123	0.935581	0.716719	-1.012332	-0.616455	-0.442871	-0.554199	-0.360495	-0.393348	-0.002266	-0.845764
47297		8.018549	3.912433	8.408205	0.899060	0.707232	-1.019132	-0.593750	-0.472900	-0.541016	-0.364731	-0.390952	-0.014166	-0.844942
47298		7.975943	4.092767	8.204322	0.885907	0.667986	-1.025778	-0.578125	-0.507080	-0.533691	-0.369003	-0.388728	-0.025873	-0.843835
47299		7.897533	4.332276	8.281592	0.917347	0.642756	-1.143177	-0.555420	-0.534668	-0.530762	-0.373939	-0.386688	-0.038099	-0.842134
47300		7.891968	4.659151	8.409045	0.774880	0.664225	-1.235759	-0.535645	-0.556885	-0.521973	-0.379909	-0.383954	-0.049683	-0.840107
47301		7.503253	3.928094	8.242324	0.674050	0.694562	-1.319996	-0.522949	-0.586914	-0.509033	-0.386707	-0.380583	-0.060917	-0.837796
47302		7.371956	3.965269	8.326414	0.632820	0.717136	-1.388875	-0.496826	-0.602783	-0.501709	-0.394030	-0.376813	-0.072140	-0.835194
47303		6.990507	3.899228	8.543255	0.533895	0.740369	-1.404625	-0.469971	-0.628906	-0.497314	-0.401679	-0.372471	-0.082783	-0.832506
47304		7.091471	3.699735	8.790563	0.484323	0.790023	-1.438687	-0.449707	-0.645020	-0.488281	-0.409601	-0.367519	-0.093334	-0.829726
47305		7.002413	3.445178	8.583924	0.461336	0.878805	-1.457178	-0.413330	-0.669678	-0.480713	-0.417565	-0.361782	-0.104061	-0.826997
47306		6.584228	3.432396	7.973718	0.435018	0.911903	-1.439446	-0.390625	-0.695312	-0.468750	-0.425365	-0.355661	-0.114640	-0.824274
47307		6.462489	3.216328	7.672531	0.435919	0.881813	-1.385601	-0.361328	-0.701660	-0.457520	-0.432730	-0.349726	-0.124931	-0.821480
47308		6.843692	3.343284	7.531673	0.455893	0.892805	-1.343500	-0.344971	-0.724609	-0.459229	-0.439648	-0.343762	-0.135244	-0.818686
47309		6.691021	3.498879	6.994238	0.415282	0.898040	-1.303651	-0.323975	-0.735352	-0.435791	-0.446318	-0.337594	-0.145153	-0.815942
47310		6.283333	3.368555	6.445442	0.417209	0.826703	-1.271525	-0.288574	-0.744385	-0.436035	-0.452766	-0.331899	-0.154687	-0.812969
47311		6.134012	3.315118	6.404732	0.453330	0.711646	-1.208912	-0.278564	-0.761719	-0.425537	-0.458761	-0.327149	-0.163828	-0.809736
47312		6.103257	3.735472	6.400667	0.458355	0.650380	-1.143613	-0.261475	-0.774170	-0.410156	-0.464316	-0.322876	-0.172561	-0.806464
47313		5.636372	3.880151	6.127602	0.444954	0.590809	-1.063070	-0.239990	-0.786377	-0.402344	-0.469389	-0.319030	-0.180730	-0.803263
47314		5.086216	4.013341	6.116512	0.529408	0.488669	-1.010420	-0.215332	-0.796631	-0.382324	-0.473983	-0.316244	-0.188899	-0.799779
47315		5.206324	4.229982	6.337776	0.613161	0.416882	-0.947549	-0.202148	-0.809814	-0.381348	-0.477998	-0.314337	-0.197153	-0.796141
47316		5.162346	4.937818	6.288410	0.603003	0.396685	-0.873726	-0.191162	-0.805664	-0.363770	-0.481536	-0.312617	-0.205042	-0.792687
47317		5.196033	5.607030	6.024846	0.560737	0.388338	-0.853732	-0.168945	-0.820801	-0.361816	-0.485021	-0.310793	-0.212545	-0.789296
47318		4.550983	5.801552	5.630514	0.557205	0.338321	-0.887410	-0.150391	-0.824463	-0.347656	-0.488780	-0.309202	-0.219889	-0.785580
47319		4.271897	5.713254	5.781023	0.578132	0.246542	-0.973611	-0.138428	-0.838379	-0.335205	-0.493172	-0.308115	-0.227198	-0.781171
47320		4.248732	5.264616	6.221301	0.540724	0.221603	-0.996804	-0.128174	-0.846924	-0.320557	-0.497809	-0.306968	-0.234197	-0.776601
47321		3.962511	5.026677	6.329182	0.486843	0.242273	-0.952161	-0.116699	-0.851074	-0.304199	-0.502209	-0.305525	-0.240796	-0.772307
47322		3.589362	4.699262	6.071580	0.501864	0.245915	-0.912168	-0.096191	-0.855957	-0.298096	-0.506263	-0.304179	-0.247381	-0.768099
47323		3.470090	4.693779	5.926479	0.536012	0.225588	-0.890306	-0.081299	-0.864014	-0.288574	-0.510091	-0.303130	-0.254020	-0.763802
47324		3.338365	4.359879	5.673251	0.534210	0.216657	-0.872108	-0.073730	-0.866455	-0.263916	-0.513786	-0.302146	-0.260540	-0.759507
47325		2.926956	3.963378	5.497504	0.518316	0.180392	-0.805517	-0.056152	-0.873047	-0.256348	-0.517141	-0.301449	-0.266614	-0.755388
47326		2.986846	3.552947	5.321393	0.546924	0.151320	-0.734704	-0.052734	-0.873779	-0.247070	-0.520009	-0.301197	-0.272544	-0.751392
47327		2.894179	3.995909	5.043051	0.511498	0.167864	-0.638554	-0.036377	-0.870117	-0.235352	-0.522299	-0.300891	-0.278063	-0.747897
47328		2.467131	3.923198	4.567180	0.425354	0.148593	-0.575121	-0.026367	-0.873291	-0.229248	-0.524430	-0.300466	-0.282787	-0.744798
47329		2.006244	3.684807	4.464353	0.417590	0.073569	-0.531275	-0.016113	-0.877441	-0.226074	-0.526467	-0.300567	-0.287011	-0.741698
47330		1.943109	3.404608	4.858580	0.445585	-0.003145	-0.470029	-0.021240	-0.886963	-0.208008	-0.528222	-0.301403	-0.290908	-0.738587
47331		1.960259	3.174061	5.068617	0.439396	-0.010196	-0.405978	-0.010498	-0.884766	-0.204102	-0.529602	-0.302402	-0.294562	-0.735736
47332		1.409665	3.418597	4.960449	0.358143	-0.012480	-0.311951	-0.006348	-0.897217	-0.202881	-0.530606	-0.303281	-0.297461	-0.733481
47333		1.147635	3.537240	5.042574	0.273238	-0.054620	-0.174956	-0.007568	-0.891113	-0.190918	-0.531087	-0.304378	-0.299301	-0.731929
47334		1.396895	3.865684	5.359945	0.279250	-0.055276	-0.148304	0.006348	-0.885498	-0.193115	-0.531389	-0.305568	-0.301102	-0.730473
47335		1.474561	4.155484	5.249420	0.168531	-0.013650	-0.150807	0.001709	-0.892334	-0.186035	-0.531883	-0.306006	-0.302414	-0.729388
47336		1.211873	3.414312	4.911417	0.103563	0.006435	-0.167754	-0.002197	-0.897461	-0.184570	-0.532595	-0.305989	-0.303460	-0.728441
47337		1.194493	2.987929	4.851651	0.090385	-0.008641	-0.095451	0.007812	-0.894287	-0.186035	-0.532940	-0.306186	-0.304170	-0.727809
47338		1.340632	2.382261	4.816482	0.090054	0.008106	-0.026747	0.010498	-0.887695	-0.183350	-0.532827	-0.306453	-0.304772	-0.727527
47339		1.915350	2.748259	4.563125	0.003786	0.072997	0.000432	0.007812	-0.887939	-0.185791	-0.532608	-0.306011	-0.305065	-0.727751
47340		1.905297	2.896124	3.706017	-0.227198	0.103305	0.114442	0.011230	-0.889404	-0.185303	-0.532208	-0.304648	-0.303795	-0.729145
47341		1.446727	1.874282	3.215373	-0.195849	0.004012	0.146213	0.012451	-0.885986	-0.191406	-0.531784	-0.304108	-0.302190	-0.730346
47342		1.636613	1.897108	3.779007	-0.110007	-0.127238	0.207023	0.003418	-0.889160	-0.192139	-0.531101	-0.304898	-0.300366	-0.731266
47343		2.093204	1.778207	4.294645	-0.193029	-0.168781	0.388695	-0.010986	-0.891113	-0.193604	-0.529621	-0.306025	-0.297383	-0.733085
47344		2.046961	2.356682	4.364318	-0.268673	-0.165570	0.562031	-0.010742	-0.884766	-0.206543	-0.527255	-0.307221	-0.293497	-0.735851
47345		1.800026	2.721064	4.537434	-0.271406	-0.217872	0.636427	-0.021973	-0.884277	-0.207520	-0.524551	-0.308896	-0.289160	-0.738793
47346		1.780430	3.073756	5.284314	-0.276837	-0.251399	0.625654	-0.032959	-0.887451	-0.211670	-0.521990	-0.310716	-0.284655	-0.741589
47347		2.114037	3.077716	5.914028	-0.388629	-0.222970	0.667057	-0.045410	-0.881836	-0.221436	-0.519373	-0.311957	-0.279459	-0.744874
47348		2.618855	3.009378	5.899818	-0.480622	-0.129376	0.722768	-0.052490	-0.879395	-0.229248	-0.516408	-0.312332	-0.273932	-0.748821
47349		2.467242	3.022995	5.360851	-0.529652	-0.089463	0.765333	-0.067627	-0.875488	-0.237305	-0.513184	-0.312323	-0.268138	-0.753126
47350		2.688106	3.016146	5.409327	-0.564601	-0.148171	0.797356	-0.075439	-0.870361	-0.250732	-0.509948	-0.312584	-0.261768	-0.757444
47351		3.192424	2.945867	5.845758	-0.630111	-0.182776	0.909639	-0.092773	-0.866699	-0.274902	-0.506210	-0.313003	-0.254518	-0.762234
47352		3.380928	3.409569	6.112833	-0.629766	-0.209274	1.036582	-0.118408	-0.853027	-0.285156	-0.501670	-0.313830	-0.246796	-0.767417
47353		3.479858	3.961674	6.267266	-0.641921	-0.236192	1.129143	-0.121094	-0.849609	-0.294922	-0.496568	-0.314931	-0.238608	-0.772855
47354		3.767484	4.258990	6.579686	-0.653062	-0.265588	1.137127	-0.149414	-0.848633	-0.314941	-0.491439	-0.316151	-0.230171	-0.778176
47355		4.623532	4.430900	6.860882	-0.703866	-0.246104	1.130580	-0.156250	-0.833740	-0.330811	-0.486385	-0.316982	-0.221468	-0.783520
47356		5.727347	5.211053	6.419641	-0.790267	-0.169324	1.162623	-0.180908	-0.822998	-0.347412	-0.481141	-0.316978	-0.212392	-0.789252
47357		5.295573	4.913609	5.260893	-0.804649	-0.194939	1.167388	-0.200684	-0.810059	-0.352783	-0.475875	-0.317051	-0.203072	-0.794848
47358		4.492419	4.904854	5.400690	-0.706780	-0.420730	1.095740	-0.222656	-0.807617	-0.371338	-0.471137	-0.318845	-0.193665	-0.799288
47359		5.471757	4.066332	6.796606	-0.647001	-0.572510	1.136024	-0.234131	-0.790283	-0.382812	-0.466147	-0.321908	-0.183927	-0.803277
47360		6.237225	3.979960	7.495844	-0.548584	-0.527723	1.318044	-0.260742	-0.784912	-0.395264	-0.459531	-0.325283	-0.174502	-0.807819
47361		5.402284	5.181076	7.234973	-0.480703	-0.521943	1.467004	-0.286133	-0.762939	-0.409180	-0.451636	-0.329040	-0.165117	-0.812708
47362		5.129436	6.328580	8.017924	-0.505937	-0.624180	1.457551	-0.298828	-0.754883	-0.418701	-0.443926	-0.333318	-0.155171	-0.817160
47363		5.504692	6.045823	9.308020	-0.523950	-0.629931	1.408968	-0.328125	-0.727539	-0.430908	-0.436517	-0.337441	-0.145189	-0.821283
47364		6.274336	5.167682	9.599768	-0.343448	-0.491246	1.349679	-0.347168	-0.723877	-0.432373	-0.428764	-0.341140	-0.137089	-0.825222
47365		6.406656	5.367231	8.710654	-0.188927	-0.333800	1.368353	-0.359131	-0.706787	-0.439941	-0.420199	-0.344277	-0.130541	-0.829376
47366		6.540241	4.875091	7.571335	-0.191664	-0.308194	1.394954	-0.380615	-0.685303	-0.453613	-0.411368	-0.347205	-0.123970	-0.833581
47367		6.610466	5.188700	7.290311	-0.304126	-0.371087	1.350749	-0.393555	-0.667725	-0.455322	-0.403173	-0.350087	-0.116512	-0.837446
47368		6.831715	5.715354	7.801162	-0.595193	-0.457267	1.347602	-0.416504	-0.648193	-0.476318	-0.395867	-0.352536	-0.106728	-0.841200
47369		7.477825	5.959957	8.003231	-0.704503	-0.470147	1.329441	-0.433594	-0.617676	-0.482666	-0.388951	-0.354639	-0.096174	-0.844807
47370		7.730838	6.136237	7.574380	-0.604080	-0.434153	1.255275	-0.450439	-0.613281	-0.495850	-0.382165	-0.356698	-0.086651	-0.848061
47371		7.325253	6.008530	6.895435	-0.473968	-0.473186	1.097073	-0.462646	-0.592285	-0.500244	-0.376086	-0.359289	-0.078387	-0.850486
47372		6.666354	5.305352	7.011617	-0.436670	-0.619865	1.063390	-0.481201	-0.571777	-0.506348	-0.370183	-0.362973	-0.070026	-0.852239
47373		7.223018	4.926734	7.984396	-0.378963	-0.719218	1.088646	-0.493408	-0.543701	-0.517090	-0.363936	-0.367513	-0.061688	-0.853627
47374		7.691920	4.958605	8.361835	-0.358323	-0.650886	1.168751	-0.517822	-0.536621	-0.517578	-0.356972	-0.371621	-0.053455	-0.855343
47375		7.391177	5.789516	7.987732	-0.340477	-0.596545	1.044385	-0.537842	-0.520264	-0.519043	-0.350771	-0.375294	-0.045894	-0.856743
47376		7.050989	6.101325	7.835559	-0.540557	-0.615470	0.874994	-0.542969	-0.500977	-0.521729	-0.346376	-0.378413	-0.037379	-0.857572
47377		6.990542	4.624264	8.214023	-0.646622	-0.647439	0.745196	-0.560059	-0.481201	-0.524658	-0.343219	-0.381378	-0.028428	-0.857872
47378		7.093305	3.619095	8.639972	-0.486660	-0.610240	0.745666	-0.572021	-0.461426	-0.534424	-0.339511	-0.384499	-0.020727	-0.858174
47379		7.211694	3.371709	8.686248	-0.322248	-0.548258	0.847824	-0.588867	-0.444580	-0.535156	-0.334510	-0.387627	-0.014051	-0.858866
47380		7.212249	3.501905	8.333492	-0.220620	-0.502953	0.932616	-0.594971	-0.427979	-0.536133	-0.328543	-0.390690	-0.007956	-0.859859
47381		7.344854	3.601803	7.951248	-0.188949	-0.485118	0.909686	-0.616699	-0.416016	-0.534424	-0.322612	-0.393677	-0.002214	-0.860776
47382		7.548622	3.419091	7.796055	-0.234142	-0.472333	0.880833	-0.620605	-0.403564	-0.527588	-0.317012	-0.396419	0.003721	-0.861592
47383		7.832230	2.669520	7.577579	-0.214796	-0.460497	0.872086	-0.634521	-0.394287	-0.529297	-0.311389	-0.399099	0.009453	-0.862362
47384		7.816971	1.860604	7.129687	-0.097440	-0.470855	0.921441	-0.643311	-0.371094	-0.534668	-0.304998	-0.402123	0.014530	-0.863170
47385		7.581908	1.183095	6.710251	0.109800	-0.528084	1.007648	-0.659424	-0.350586	-0.519775	-0.297260	-0.406040	0.018549	-0.863958
47386		7.746108	1.596942	6.800447	0.245275	-0.585225	1.130914	-0.677490	-0.344971	-0.518311	-0.288136	-0.410642	0.022149	-0.864789
47387		8.101789	2.043783	6.907471	0.197198	-0.587095	1.295355	-0.692139	-0.323486	-0.514404	-0.277953	-0.415057	0.026659	-0.865886
47388		8.258289	2.378385	6.831464	0.209415	-0.553412	1.289956	-0.702881	-0.300781	-0.500977	-0.267734	-0.419199	0.030979	-0.866967
47389		8.346457	2.704698	6.678889	0.208547	-0.509927	1.195420	-0.714844	-0.289307	-0.489258	-0.258178	-0.422993	0.034872	-0.867874
47390		8.242457	2.842988	6.519436	0.148437	-0.481781	1.109550	-0.726807	-0.270752	-0.476562	-0.249434	-0.426432	0.038828	-0.868580
47391		8.265771	2.839777	6.465685	0.062002	-0.470560	1.066721	-0.740967	-0.261719	-0.474609	-0.241287	-0.429581	0.043227	-0.869122
47392		8.298174	3.047702	6.571460	-0.006434	-0.439497	0.979614	-0.747070	-0.235596	-0.465088	-0.234006	-0.432361	0.047740	-0.869497
47393		8.308523	3.495812	6.715537	-0.152500	-0.383377	0.840643	-0.755127	-0.230957	-0.455566	-0.228266	-0.434475	0.052694	-0.869684
47394		8.262268	3.594828	6.751522	-0.338025	-0.322820	0.676852	-0.773193	-0.208740	-0.452881	-0.224401	-0.435845	0.058275	-0.869648
47395		8.325556	3.370889	6.733089	-0.481306	-0.272198	0.525743	-0.779785	-0.185547	-0.444824	-0.222169	-0.436635	0.064244	-0.869404
47396		8.269868	3.078138	6.710771	-0.544746	-0.239000	0.391031	-0.774170	-0.177002	-0.443115	-0.221154	-0.437123	0.070113	-0.868964
47397		8.111650	2.665616	6.751625	-0.565616	-0.230166	0.310020	-0.789795	-0.167969	-0.445068	-0.220803	-0.437541	0.075815	-0.868364
47398		8.039375	2.295724	6.796920	-0.537220	-0.239734	0.277291	-0.793457	-0.152588	-0.429443	-0.220574	-0.438087	0.081203	-0.867660
47399		7.971416	1.949993	6.913037	-0.463514	-0.240654	0.276000	-0.796875	-0.140381	-0.428711	-0.220081	-0.438763	0.086049	-0.866976
47400		7.914140	2.151365	7.027735	-0.401702	-0.239253	0.263074	-0.802246	-0.140869	-0.422119	-0.219454	-0.439542	0.090395	-0.866298
47401		7.903356	2.337110	7.183643	-0.433504	-0.234529	0.254177	-0.806641	-0.128418	-0.411865	-0.219008	-0.440225	0.094924	-0.865579
47402		7.944685	2.599564	7.390151	-0.460853	-0.202257	0.167686	-0.810791	-0.124756	-0.415039	-0.219311	-0.440683	0.099268	-0.864782
47403		7.958136	2.898825	7.557948	-0.553039	-0.131938	0.037354	-0.809326	-0.121826	-0.412109	-0.220948	-0.440563	0.103663	-0.863910
47404		7.767396	2.994270	7.482753	-0.699336	-0.048611	-0.120159	-0.810059	-0.109619	-0.407959	-0.224326	-0.439695	0.108373	-0.862903
47405		7.558132	2.312049	7.262751	-0.803110	-0.003977	-0.253629	-0.809814	-0.114746	-0.411865	-0.229078	-0.438413	0.113246	-0.861680
47406		7.482983	1.204326	7.160957	-0.720501	0.013582	-0.304719	-0.817871	-0.106689	-0.413574	-0.233904	-0.437189	0.117298	-0.860462
47407		7.361772	0.716759	7.138843	-0.573783	0.026664	-0.256049	-0.812500	-0.105957	-0.408447	-0.237980	-0.436066	0.120476	-0.859475
47408		7.357591	0.428130	7.053856	-0.440102	0.036609	-0.145939	-0.816650	-0.108398	-0.408691	-0.240661	-0.435040	0.123041	-0.858885
47409		7.473302	0.556944	6.974931	-0.310945	0.059723	-0.059047	-0.819580	-0.106445	-0.399902	-0.242275	-0.434012	0.124948	-0.858676
47410		7.598386	0.893482	6.728949	-0.275554	0.097651	-0.020227	-0.809082	-0.108643	-0.414795	-0.243523	-0.432738	0.126664	-0.858715
47411		7.644377	1.025189	6.454670	-0.285717	0.122062	-0.058721	-0.807373	-0.101318	-0.414307	-0.245108	-0.431306	0.128262	-0.858747
47412		7.808191	0.962987	6.287865	-0.327908	0.143179	-0.139846	-0.807861	-0.101562	-0.412354	-0.247447	-0.429719	0.129825	-0.858637
47413		7.887297	0.691219	6.109606	-0.395365	0.166948	-0.210844	-0.802490	-0.106934	-0.414795	-0.250559	-0.427893	0.131564	-0.858381
47414		8.034300	0.407771	5.891876	-0.445237	0.182649	-0.254041	-0.800049	-0.109619	-0.417236	-0.254171	-0.425891	0.133469	-0.858021
47415		8.082634	0.148267	5.598557	-0.460484	0.177037	-0.256879	-0.806396	-0.100830	-0.422852	-0.257845	-0.423891	0.135482	-0.857600
47416		8.018622	-0.051546	5.345014	-0.414193	0.133215	-0.246437	-0.794678	-0.095703	-0.423828	-0.261226	-0.422284	0.137292	-0.857081
47417		8.069730	-0.260161	5.235456	-0.347722	0.079161	-0.217745	-0.797119	-0.101807	-0.432129	-0.264101	-0.421170	0.138844	-0.856498
47418		8.163771	-0.280320	5.247260	-0.277877	0.018874	-0.154271	-0.802002	-0.102783	-0.426514	-0.266205	-0.420563	0.140253	-0.855915
47419		8.114493	-0.282963	5.286524	-0.195425	-0.036051	-0.060476	-0.797363	-0.105469	-0.429688	-0.267284	-0.420421	0.141523	-0.855439
47420		8.067523	-0.041561	5.461810	-0.088721	-0.089015	-0.008141	-0.801025	-0.110107	-0.431641	-0.267553	-0.420832	0.142335	-0.855018
47421		8.037403	0.245764	5.758598	-0.037080	-0.112788	-0.005200	-0.805664	-0.109131	-0.421875	-0.267590	-0.421526	0.142841	-0.854581
47422		7.943264	0.398472	5.903267	-0.058454	-0.111960	-0.026927	-0.804443	-0.112549	-0.422363	-0.267857	-0.422191	0.143422	-0.854071
