// Start Time: Unknown
// Update Rate: 60.0Hz
// Filter Profile: human (46.1)
// Firmware Version: 4.6.0
PacketCounter	SampleTimeFine	Acc_X	Acc_Y	Acc_Z	Gyr_X	Gyr_Y	Gyr_Z	Mag_X	Mag_Y	Mag_Z	Quat_q0	Quat_q1	Quat_q2	Quat_q3
46518		9.371368	-0.196339	-3.049398	0.025019	-0.010092	0.000703	-0.725098	0.372559	0.337646	0.358801	-0.650962	-0.480513	-0.465422
46519		9.354021	-0.228986	-2.964337	0.038095	-0.014351	-0.002416	-0.731445	0.377197	0.333252	0.358940	-0.650894	-0.480716	-0.465199
46520		9.387369	-0.177798	-2.908817	0.046922	-0.014979	-0.000876	-0.734131	0.377441	0.339111	0.359139	-0.650804	-0.480946	-0.464935
46521		9.405203	-0.050522	-2.866406	0.036228	-0.017951	0.001903	-0.726562	0.381836	0.332520	0.359272	-0.650771	-0.481129	-0.464688
46522		9.377479	-0.093855	-2.930981	0.011652	-0.018217	0.012319	-0.735352	0.376221	0.333740	0.359310	-0.650852	-0.481162	-0.464512
46523		9.364698	-0.187728	-2.959001	0.015797	-0.023609	0.017282	-0.726807	0.372559	0.339844	0.359369	-0.650957	-0.481200	-0.464280
46524		9.391886	-0.197116	-2.929616	0.035004	-0.024349	0.015332	-0.720459	0.384521	0.326660	0.359522	-0.650998	-0.481323	-0.463975
46525		9.352573	-0.061155	-2.954810	0.046121	-0.025011	0.018405	-0.729004	0.372559	0.331543	0.359749	-0.651016	-0.481473	-0.463618
46526		9.361511	-0.035579	-2.904014	0.012723	-0.027562	0.032740	-0.733398	0.382080	0.334717	0.359836	-0.651196	-0.481426	-0.463347
46527		9.335920	-0.164390	-2.791319	0.022275	-0.028881	0.032297	-0.730713	0.378906	0.334961	0.359964	-0.651341	-0.481425	-0.463044
46528		9.401288	0.023544	-2.840366	0.007440	-0.032318	0.040994	-0.731934	0.382812	0.327637	0.360040	-0.651569	-0.481324	-0.462771
46529		9.390243	-0.013453	-2.998574	-0.050462	-0.032960	0.054741	-0.723877	0.379883	0.340332	0.359847	-0.652011	-0.480931	-0.462707
46530		9.335430	-0.355599	-3.132920	-0.047305	-0.034726	0.058613	-0.727783	0.377441	0.331299	0.359670	-0.652457	-0.480541	-0.462622
46531		9.347421	-0.472063	-3.169479	0.006030	-0.033560	0.048809	-0.721924	0.385254	0.339111	0.359755	-0.652707	-0.480402	-0.462346
46532		9.350378	-0.322022	-3.072769	0.040544	-0.028896	0.043102	-0.722900	0.388672	0.334717	0.360034	-0.652827	-0.480405	-0.461956
46533		9.374699	-0.169383	-3.032108	0.036640	-0.025237	0.045335	-0.725098	0.370361	0.333740	0.360322	-0.652955	-0.480367	-0.461590
46534		9.381131	-0.213392	-2.970164	0.011512	-0.019889	0.051244	-0.722168	0.393555	0.333984	0.360510	-0.653160	-0.480182	-0.461346
46535		9.319705	-0.329652	-3.076769	0.014821	-0.020616	0.048393	-0.720703	0.381348	0.336182	0.360712	-0.653334	-0.480034	-0.461097
46536		9.363526	-0.387077	-3.088729	0.030355	-0.023434	0.047085	-0.718506	0.377441	0.333984	0.360978	-0.653476	-0.479951	-0.460772
46537		9.319945	-0.408095	-3.096701	0.052340	-0.022757	0.044512	-0.718994	0.385498	0.336914	0.361361	-0.653550	-0.479956	-0.460361
46538		9.342429	-0.369400	-2.974870	0.074716	-0.019854	0.036967	-0.729980	0.387939	0.341797	0.361861	-0.653516	-0.480080	-0.459889
46539		9.374970	-0.258881	-2.985959	0.073180	-0.019996	0.040501	-0.720215	0.385986	0.328369	0.362382	-0.653476	-0.480173	-0.459436
46540		9.355131	-0.364691	-3.087089	0.042600	-0.018774	0.043342	-0.718262	0.395508	0.337158	0.362752	-0.653552	-0.480128	-0.459084
46541		9.317011	-0.533540	-3.045814	0.072515	-0.016379	0.036973	-0.718506	0.390137	0.336914	0.363274	-0.653501	-0.480231	-0.458636
46542		9.311573	-0.388589	-2.978174	0.107699	-0.017860	0.028585	-0.723877	0.396240	0.334717	0.363955	-0.653327	-0.480500	-0.458061
46543		9.358568	-0.206900	-2.970173	0.066729	-0.019849	0.033348	-0.713623	0.387207	0.334717	0.364455	-0.653281	-0.480593	-0.457632
46544		9.320593	-0.447897	-2.980930	0.031436	-0.020740	0.035743	-0.716797	0.393066	0.329590	0.364708	-0.653386	-0.480538	-0.457338
46545		9.317403	-0.588595	-3.005035	0.070887	-0.022860	0.025745	-0.720947	0.394775	0.336182	0.365173	-0.653320	-0.480691	-0.456900
46546		9.307804	-0.267252	-3.062709	0.070166	-0.025244	0.024586	-0.726074	0.392090	0.338135	0.365643	-0.653251	-0.480845	-0.456461
46547		9.313487	-0.288409	-3.094528	0.007869	-0.022855	0.029272	-0.722412	0.397217	0.337402	0.365794	-0.653361	-0.480731	-0.456302
46548		9.318384	-0.581671	-3.133274	-0.011090	-0.025416	0.027321	-0.721680	0.391846	0.337158	0.365822	-0.653537	-0.480582	-0.456185
46549		9.287276	-0.632145	-3.119403	0.009814	-0.024837	0.013470	-0.727539	0.401611	0.338379	0.365893	-0.653615	-0.480570	-0.456030
46550		9.342892	-0.452112	-3.122187	0.014848	-0.023927	0.007375	-0.711914	0.399414	0.338867	0.366056	-0.653614	-0.480619	-0.455848
46551		9.341674	-0.306316	-3.120275	-0.012698	-0.021500	0.008840	-0.727051	0.400391	0.330078	0.365995	-0.653780	-0.480557	-0.455724
46552		9.336241	-0.425956	-3.061287	-0.021329	-0.016180	0.010802	-0.712891	0.397217	0.335693	0.365999	-0.653879	-0.480421	-0.455722
46553		9.354976	-0.403705	-3.116413	-0.018950	-0.014877	0.004165	-0.718018	0.397705	0.339844	0.365895	-0.654018	-0.480339	-0.455693
46554		9.337659	-0.386349	-3.101521	-0.034220	-0.014566	0.007101	-0.728271	0.398926	0.334961	0.365745	-0.654187	-0.480185	-0.455732
46555		9.298592	-0.451068	-3.101292	-0.033455	-0.013051	0.002602	-0.720703	0.386719	0.337646	0.365652	-0.654274	-0.480043	-0.455832
46556		9.294915	-0.415800	-3.114517	-0.040127	-0.010851	0.005418	-0.720459	0.398682	0.333008	0.365402	-0.654457	-0.479834	-0.455989
46557		9.309515	-0.510635	-3.009211	-0.033096	-0.013400	0.001608	-0.719482	0.387695	0.333984	0.365270	-0.654581	-0.479708	-0.456051
46558		9.315431	-0.404042	-3.057696	-0.015406	-0.011870	-0.000911	-0.719971	0.395752	0.335205	0.365141	-0.654665	-0.479627	-0.456118
46559		9.331744	-0.319859	-3.099495	-0.028137	-0.013835	0.003664	-0.717041	0.385254	0.337891	0.365023	-0.654790	-0.479504	-0.456163
46560		9.338791	-0.354319	-3.134315	-0.023063	-0.012391	0.004625	-0.717041	0.397705	0.340332	0.364824	-0.654935	-0.479377	-0.456246
46561		9.314992	-0.369660	-3.119016	-0.011669	-0.015357	0.007706	-0.721436	0.395996	0.341309	0.364787	-0.655048	-0.479322	-0.456173
46562		9.320283	-0.365249	-3.145206	0.003251	-0.011885	0.007398	-0.721191	0.396484	0.335449	0.364844	-0.655079	-0.479316	-0.456089
46563		9.322884	-0.447752	-3.164434	-0.001992	-0.014001	0.011711	-0.718262	0.395996	0.334229	0.364897	-0.655141	-0.479266	-0.456010
46564		9.303881	-0.466118	-3.192164	0.013570	-0.007460	0.009661	-0.716064	0.401611	0.338379	0.365039	-0.655139	-0.479263	-0.455901
46565		9.315459	-0.410539	-3.114777	0.031074	-0.007478	0.006802	-0.723389	0.389404	0.337646	0.365292	-0.655089	-0.479362	-0.455667
46566		9.344394	-0.319147	-3.105135	0.025443	-0.005465	0.012308	-0.725098	0.397949	0.337402	0.365451	-0.655048	-0.479380	-0.455578
46567		9.336953	-0.307811	-3.175682	0.009098	-0.003748	0.016751	-0.719238	0.400635	0.333252	0.365633	-0.655038	-0.479331	-0.455499
46568		9.327251	-0.429724	-3.169151	0.011520	-0.004473	0.021133	-0.718018	0.397705	0.331787	0.365853	-0.655059	-0.479268	-0.455359
46569		9.302168	-0.482113	-3.097277	0.041357	-0.004414	0.017183	-0.713379	0.400391	0.334717	0.366187	-0.654982	-0.479329	-0.455137
46570		9.322261	-0.364325	-3.074248	0.050074	-0.003213	0.019914	-0.711426	0.399658	0.331543	0.366579	-0.654920	-0.479411	-0.454825
46571		9.310861	-0.327157	-3.076714	0.020596	-0.000178	0.024532	-0.726074	0.400879	0.338867	0.366835	-0.654954	-0.479335	-0.454649
46572		9.324928	-0.528126	-3.044722	0.005101	0.001512	0.021753	-0.716797	0.390869	0.337402	0.367021	-0.654949	-0.479246	-0.454599
46573		9.311679	-0.522614	-3.090284	0.014147	0.001477	0.017902	-0.715576	0.401367	0.341309	0.367098	-0.654976	-0.479175	-0.454574
46574		9.294020	-0.442029	-3.138458	-0.003885	0.002891	0.017454	-0.714355	0.395752	0.337646	0.367178	-0.655058	-0.479058	-0.454514
46575		9.323787	-0.517424	-3.137474	-0.009005	0.005229	0.016709	-0.714111	0.395508	0.343262	0.367184	-0.655145	-0.478901	-0.454548
46576		9.344433	-0.469982	-3.066994	0.013474	0.007295	0.011922	-0.719971	0.411377	0.331299	0.367261	-0.655169	-0.478857	-0.454498
46577		9.340557	-0.324767	-3.114769	0.000115	0.008288	0.015935	-0.715576	0.399170	0.339600	0.367572	-0.655127	-0.478738	-0.454432
46578		9.304839	-0.379979	-3.169753	-0.032483	0.010228	0.022091	-0.715088	0.400635	0.333252	0.367509	-0.655287	-0.478460	-0.454545
46579		9.309055	-0.530548	-3.217634	-0.023365	0.010724	0.025280	-0.721191	0.398926	0.325928	0.367570	-0.655396	-0.478187	-0.454628
46580		9.321812	-0.522070	-3.165902	-0.004699	0.011484	0.018385	-0.719238	0.410889	0.345215	0.367758	-0.655335	-0.478017	-0.454741
46581		9.364462	-0.419480	-3.103439	-0.004676	0.014920	0.020026	-0.716064	0.402344	0.334473	0.367962	-0.655385	-0.477876	-0.454654
46582		9.327508	-0.387726	-3.120764	-0.019169	0.017664	0.024086	-0.708984	0.401611	0.344971	0.368069	-0.655455	-0.477610	-0.454745
46583		9.319596	-0.455284	-3.063238	-0.020087	0.017173	0.024265	-0.720215	0.402100	0.339355	0.368059	-0.655642	-0.477354	-0.454752
46584		9.314220	-0.557682	-3.093089	-0.015652	0.015536	0.026958	-0.716064	0.395020	0.342041	0.368148	-0.655719	-0.477114	-0.454820
46585		9.312874	-0.593689	-3.035907	0.000362	0.016684	0.019544	-0.711426	0.407959	0.330811	0.368177	-0.655765	-0.476968	-0.454883
46586		9.309257	-0.522058	-3.036201	0.001082	0.012202	0.017379	-0.709473	0.398926	0.338623	0.368435	-0.655776	-0.476803	-0.454832
46587		9.300245	-0.616280	-3.003294	0.000102	0.012051	0.016131	-0.715820	0.402588	0.335938	0.368491	-0.655854	-0.476661	-0.454824
46588		9.332097	-0.658757	-3.055840	0.015633	0.010790	0.005197	-0.715332	0.404541	0.336182	0.368669	-0.655780	-0.476646	-0.454801
46589		9.326433	-0.525003	-3.043680	0.018752	0.011912	0.003666	-0.718506	0.400391	0.338135	0.368884	-0.655696	-0.476643	-0.454751
46590		9.318143	-0.497654	-3.028687	0.023880	0.012123	0.000455	-0.716553	0.400879	0.333496	0.369046	-0.655573	-0.476697	-0.454741
46591		9.365046	-0.421897	-3.033812	0.018972	0.009679	0.003783	-0.717529	0.399170	0.337158	0.369225	-0.655470	-0.476704	-0.454736
46592		9.334672	-0.450540	-3.010544	0.015258	0.005155	0.008483	-0.716064	0.404541	0.339600	0.369323	-0.655434	-0.476703	-0.454710
46593		9.335581	-0.425628	-2.985657	0.009222	0.007013	0.007914	-0.719482	0.393555	0.334717	0.369432	-0.655441	-0.476667	-0.454649
46594		9.330994	-0.473344	-2.969160	-0.000818	0.004363	0.014453	-0.714844	0.400146	0.328125	0.369411	-0.655437	-0.476594	-0.454749
46595		9.350926	-0.453087	-3.021068	-0.007965	0.004190	0.013737	-0.711426	0.416504	0.341064	0.369492	-0.655441	-0.476456	-0.454821
46596		9.328510	-0.490591	-3.105630	-0.020422	0.002271	0.015893	-0.716797	0.405273	0.333496	0.369570	-0.655654	-0.476234	-0.454684
46597		9.313307	-0.609316	-3.054606	-0.006951	0.000567	0.014772	-0.710449	0.405518	0.333008	0.369651	-0.655705	-0.476110	-0.454674
46598		9.316698	-0.525118	-3.061614	0.005721	0.000249	0.012739	-0.716309	0.410645	0.330566	0.369789	-0.655759	-0.476020	-0.454579
46599		9.356101	-0.528773	-2.998199	0.004796	-0.000242	0.012923	-0.708252	0.400635	0.338623	0.370019	-0.655757	-0.475930	-0.454488
46600		9.323142	-0.497018	-2.963827	0.010405	-0.004846	0.011396	-0.708984	0.404053	0.344482	0.370021	-0.655866	-0.475902	-0.454359
46601		9.338799	-0.355608	-2.991470	-0.002706	-0.002611	0.017138	-0.710205	0.400635	0.340332	0.369968	-0.656071	-0.475794	-0.454218
46602		9.327465	-0.456258	-3.078855	-0.036644	-0.003805	0.021310	-0.714844	0.407715	0.331543	0.369740	-0.656347	-0.475546	-0.454265
46603		9.316458	-0.623253	-3.100740	-0.024496	-0.005315	0.019912	-0.713867	0.410645	0.340332	0.369761	-0.656484	-0.475328	-0.454278
46604		9.311898	-0.597138	-3.034335	-0.010746	-0.007047	0.016388	-0.713623	0.409912	0.337402	0.369779	-0.656657	-0.475193	-0.454154
46605		9.320628	-0.486945	-3.062234	-0.027777	-0.005409	0.017143	-0.722900	0.407715	0.344727	0.369734	-0.656853	-0.474979	-0.454132
46606		9.319910	-0.581782	-3.119783	-0.045913	-0.005796	0.017742	-0.722168	0.402832	0.334961	0.369509	-0.657073	-0.474773	-0.454211
46607		9.326839	-0.617493	-3.153689	-0.026801	-0.006131	0.012778	-0.716064	0.409180	0.336426	0.369408	-0.657135	-0.474650	-0.454333
46608		9.324044	-0.537350	-3.137395	-0.008928	-0.003171	0.010623	-0.716309	0.407227	0.343262	0.369464	-0.657200	-0.474547	-0.454301
46609		9.324830	-0.464607	-3.085581	-0.017017	-0.000044	0.010298	-0.711670	0.409912	0.346191	0.369395	-0.657319	-0.474443	-0.454294
46610		9.315601	-0.530570	-3.129251	-0.028629	0.000100	0.014991	-0.711426	0.404053	0.342041	0.369278	-0.657555	-0.474247	-0.454251
46611		9.320888	-0.552698	-3.177363	-0.024245	0.001352	0.012307	-0.718506	0.410889	0.341309	0.369150	-0.657716	-0.474089	-0.454288
46612		9.320784	-0.600501	-3.205206	-0.018258	0.007028	0.013305	-0.709717	0.406982	0.331787	0.369181	-0.657794	-0.473926	-0.454319
46613		9.320753	-0.695183	-3.162136	-0.010783	0.013168	0.009320	-0.713867	0.404297	0.337158	0.369288	-0.657809	-0.473733	-0.454413
46614		9.364250	-0.591619	-3.000272	0.027474	0.019339	0.002732	-0.704346	0.404785	0.343750	0.369528	-0.657652	-0.473760	-0.454417
46615		9.314520	-0.212648	-3.191009	-0.033054	0.064712	0.009343	-0.715332	0.406982	0.342041	0.369560	-0.657669	-0.473360	-0.454782
46616		9.280845	-0.404228	-3.125909	-0.101776	0.073274	0.018310	-0.712646	0.400146	0.338867	0.369339	-0.657801	-0.472666	-0.455493
46617		9.189764	-0.608611	-3.248985	-0.115072	0.074685	0.020722	-0.710693	0.407471	0.340088	0.369007	-0.657959	-0.471914	-0.456312
46618		9.336870	-0.242863	-3.039514	-0.110692	0.057255	0.027721	-0.715332	0.402100	0.343750	0.368725	-0.658258	-0.471138	-0.456911
46619		9.281219	0.315044	-3.010322	-0.237016	0.036066	0.059163	-0.718018	0.411865	0.337402	0.367703	-0.659108	-0.469848	-0.457836
46620		9.300195	-0.009150	-2.970097	-0.309584	0.000045	0.089370	-0.712646	0.403076	0.341553	0.366435	-0.660392	-0.468143	-0.458748
46621		9.299906	-0.726704	-3.044354	-0.308791	-0.024017	0.113785	-0.714111	0.399902	0.335449	0.365048	-0.661875	-0.466419	-0.459471
46622		9.404515	-0.832678	-2.930664	-0.151641	-0.033206	0.107358	-0.709473	0.405762	0.343994	0.364525	-0.662794	-0.465356	-0.459640
46623		9.354454	-0.231820	-2.784283	-0.120592	-0.053119	0.116309	-0.708008	0.403809	0.345947	0.364116	-0.663838	-0.464388	-0.459436
46624		9.312677	-0.413116	-2.934500	-0.161323	-0.047353	0.124843	-0.708740	0.407959	0.342529	0.363499	-0.665008	-0.463217	-0.459415
46625		9.327891	-0.648403	-3.028929	-0.162940	-0.036964	0.125734	-0.709717	0.403564	0.350098	0.363009	-0.666102	-0.461972	-0.459472
46626		9.274556	-0.850544	-3.213875	-0.144630	-0.026580	0.110978	-0.706543	0.407715	0.349609	0.362495	-0.667051	-0.460910	-0.459568
46627		9.315611	-0.997588	-3.053144	-0.064948	-0.025649	0.094559	-0.703613	0.402832	0.356201	0.362418	-0.667714	-0.460196	-0.459380
46628		9.425864	-0.660390	-2.993803	-0.034108	-0.020615	0.082098	-0.705566	0.406250	0.351562	0.362365	-0.668262	-0.459692	-0.459130
46629		9.404660	-0.478241	-2.954170	-0.116001	-0.017560	0.088628	-0.702637	0.410645	0.352783	0.361981	-0.669014	-0.458811	-0.459219
46630		9.394096	-0.858914	-3.000199	-0.128550	0.000963	0.077808	-0.700439	0.401611	0.346436	0.361590	-0.669728	-0.457846	-0.459449
46631		9.337755	-1.076418	-2.926068	-0.069270	0.004273	0.056515	-0.712891	0.408447	0.354980	0.361439	-0.670089	-0.457249	-0.459637
46632		9.378396	-0.869866	-2.870304	-0.061876	0.006226	0.034697	-0.699219	0.407959	0.354492	0.361271	-0.670312	-0.456847	-0.459843
46633		9.242684	-0.730010	-3.330895	-0.155562	0.009251	0.021815	-0.704102	0.404785	0.354492	0.360515	-0.670874	-0.456062	-0.460397
46634		9.214403	-1.308839	-3.672016	-0.158920	0.023972	0.004695	-0.704346	0.399414	0.359619	0.359725	-0.671259	-0.455361	-0.461145
46635		9.204295	-1.393824	-3.643070	-0.007499	0.031272	-0.038630	-0.709229	0.395508	0.364746	0.359553	-0.671023	-0.455496	-0.461490
46636		9.294387	-0.874382	-3.225045	0.080091	0.042686	-0.059560	-0.701660	0.403809	0.346436	0.359758	-0.670397	-0.456105	-0.461639
46637		9.416438	-0.819484	-2.991386	0.101050	0.046215	-0.072232	-0.710693	0.398193	0.346924	0.360304	-0.669606	-0.456727	-0.461746
46638		9.393361	-0.737421	-2.861242	0.111987	0.053125	-0.078463	-0.703369	0.409424	0.354004	0.360861	-0.668648	-0.457496	-0.461938
46639		9.371896	-0.644806	-2.809661	0.092956	0.047566	-0.080160	-0.707520	0.416260	0.347900	0.361286	-0.667961	-0.458090	-0.462012
46640		9.386477	-0.646763	-3.090549	0.055960	0.043682	-0.090972	-0.712891	0.392334	0.349854	0.361586	-0.667306	-0.458591	-0.462227
46641		9.320306	-0.845416	-3.308845	0.057841	0.054447	-0.101688	-0.710938	0.400146	0.347900	0.361633	-0.666461	-0.459294	-0.462709
46642		9.251398	-1.000183	-3.234498	0.131976	0.066855	-0.121319	-0.713379	0.393799	0.344727	0.362158	-0.665323	-0.460282	-0.462955
46643		9.358142	-0.721193	-2.873520	0.205857	0.064975	-0.142658	-0.707520	0.403076	0.343994	0.362964	-0.663843	-0.461714	-0.463022
46644		9.421330	-0.296873	-2.877105	0.161580	0.067257	-0.144951	-0.712158	0.406250	0.346680	0.363592	-0.662592	-0.462876	-0.463162
46645		9.273099	-0.226642	-3.055968	0.045080	0.072152	-0.134734	-0.710938	0.403076	0.343750	0.363632	-0.661733	-0.463519	-0.463714
46646		9.319610	-0.445111	-3.074939	-0.002070	0.066913	-0.117240	-0.716797	0.404297	0.340088	0.363449	-0.661103	-0.463895	-0.464380
46647		9.351782	-0.432517	-2.913701	0.068951	0.061684	-0.116192	-0.716553	0.388916	0.344727	0.363708	-0.660223	-0.464569	-0.464756
46648		9.429876	-0.029836	-2.785236	0.092743	0.068896	-0.100457	-0.722412	0.390869	0.339600	0.363980	-0.659306	-0.465312	-0.465101
46649		9.411208	0.039615	-2.801828	0.040114	0.067486	-0.070148	-0.727295	0.397949	0.328369	0.364153	-0.658602	-0.465702	-0.465572
46650		9.316939	-0.247862	-2.946396	-0.020941	0.064519	-0.052137	-0.714844	0.395752	0.341309	0.364239	-0.658071	-0.465736	-0.466221
46651		9.407931	-0.460102	-2.939920	0.022539	0.065506	-0.045855	-0.716064	0.394531	0.333252	0.364395	-0.657661	-0.465836	-0.466579
46652		9.322486	-0.443492	-2.853075	0.008321	0.055415	-0.045555	-0.721436	0.393555	0.338867	0.364503	-0.657264	-0.465911	-0.466979
46653		9.357165	-0.340141	-2.929060	-0.044158	0.056025	-0.037078	-0.718750	0.387939	0.336670	0.364302	-0.657064	-0.465774	-0.467553
46654		9.326098	-0.616439	-3.028690	-0.046050	0.055769	-0.039645	-0.719727	0.390625	0.335449	0.364041	-0.656855	-0.465651	-0.468172
46655		9.311009	-0.534542	-3.107333	-0.041757	0.043841	-0.041912	-0.726074	0.390381	0.329834	0.363794	-0.656673	-0.465573	-0.468696
46656		9.358468	-0.436204	-2.848645	-0.033501	0.041891	-0.039699	-0.728760	0.392822	0.322998	0.363672	-0.656385	-0.465557	-0.469211
46657		9.332379	-0.555329	-2.457823	0.009068	0.033689	-0.046218	-0.721680	0.384521	0.337158	0.363828	-0.655911	-0.465760	-0.469550
46658		9.436184	-0.365884	-2.136028	-0.024572	-0.003764	-0.033965	-0.720459	0.397461	0.336914	0.363449	-0.655905	-0.465870	-0.469743
46659		9.456617	-0.401161	-2.395376	-0.071322	-0.003019	-0.041994	-0.722656	0.391602	0.340576	0.362922	-0.656057	-0.465758	-0.470050
46660		9.350345	-0.728975	-2.649266	-0.071776	-0.012180	-0.048946	-0.715576	0.391602	0.338867	0.362257	-0.656206	-0.465751	-0.470361
46661		9.366796	-0.749040	-2.827220	0.001882	-0.016018	-0.071897	-0.723633	0.380615	0.332520	0.361904	-0.656108	-0.466112	-0.470413
46662		9.379963	-0.551124	-3.113087	0.038202	-0.026064	-0.076941	-0.726562	0.389648	0.330078	0.361691	-0.655753	-0.466782	-0.470407
46663		9.373006	-0.463096	-3.269976	0.095294	-0.030310	-0.074004	-0.725342	0.385986	0.331787	0.361905	-0.655252	-0.467627	-0.470101
46664		9.439850	-0.205709	-3.027076	0.197998	-0.021794	-0.080842	-0.735107	0.386719	0.339111	0.362627	-0.654400	-0.468896	-0.469467
46665		9.632510	0.395236	-2.861000	0.175284	-0.007304	-0.070648	-0.721191	0.380127	0.329590	0.363272	-0.653584	-0.470042	-0.468958
46666		9.456658	0.342178	-2.878628	-0.002406	0.017815	-0.040005	-0.730957	0.388184	0.330078	0.363142	-0.653360	-0.470187	-0.469226
46667		9.410486	-0.450891	-3.106293	-0.051435	0.031775	-0.032884	-0.726807	0.390137	0.334717	0.362925	-0.653209	-0.470078	-0.469713
46668		9.343540	-0.854278	-3.277238	0.040920	0.034169	-0.041178	-0.730713	0.392822	0.328857	0.363150	-0.652826	-0.470328	-0.469821
46669		9.318985	-0.574925	-3.137150	0.131458	0.032470	-0.060789	-0.727295	0.386719	0.325928	0.363870	-0.652039	-0.471045	-0.469638
46670		9.380834	-0.222274	-2.612266	0.208996	0.030304	-0.071064	-0.731445	0.385010	0.331787	0.364908	-0.650987	-0.472131	-0.469202
46671		9.518777	0.216345	-2.389903	0.152897	0.034308	-0.054389	-0.734863	0.379395	0.335205	0.365644	-0.650172	-0.472937	-0.468947
46672		9.474335	-0.120904	-2.678859	0.006369	0.028193	-0.019451	-0.736816	0.388184	0.319336	0.365612	-0.649952	-0.473055	-0.469158
46673		9.398966	-0.770137	-2.727640	0.086913	0.025239	-0.038548	-0.735352	0.385010	0.333252	0.366155	-0.649326	-0.473540	-0.469113
46674		9.431786	-0.320809	-2.669405	0.149283	0.020572	-0.059208	-0.727295	0.378662	0.332520	0.366771	-0.648560	-0.474419	-0.468803
46675		9.395614	-0.000357	-2.906443	0.028450	0.021172	-0.030776	-0.736572	0.387695	0.324951	0.366760	-0.648328	-0.474646	-0.468902
46676		9.345032	-0.591780	-3.059365	0.017549	0.026848	-0.031973	-0.730957	0.379639	0.319580	0.366882	-0.648003	-0.474823	-0.469077
46677		9.450636	-0.597036	-2.892575	0.122796	0.025010	-0.055767	-0.736328	0.381348	0.320557	0.367429	-0.647260	-0.475536	-0.468952
46678		9.490943	-0.130548	-2.668417	0.134772	0.019524	-0.053417	-0.734863	0.382080	0.332520	0.368041	-0.646491	-0.476324	-0.468733
46679		9.464701	-0.139301	-2.280121	0.105845	0.007389	-0.044072	-0.730713	0.389404	0.321777	0.368366	-0.646010	-0.476985	-0.468469
46680		9.467421	-0.217302	-2.198159	0.074649	0.004722	-0.036953	-0.734131	0.382324	0.327881	0.368683	-0.645647	-0.477419	-0.468278
46681		9.375441	-0.248691	-2.358318	0.009759	-0.012459	-0.029388	-0.729492	0.383057	0.325195	0.368504	-0.645576	-0.477674	-0.468257
46682		9.295630	-0.367211	-2.699836	-0.021076	-0.025800	-0.028075	-0.739014	0.380371	0.327393	0.368131	-0.645679	-0.477800	-0.468279
46683		9.283905	-0.465791	-2.866726	0.003110	-0.036920	-0.034122	-0.730225	0.386963	0.319824	0.367821	-0.645649	-0.478166	-0.468191
46684		9.349803	-0.380980	-2.781327	0.062107	-0.041758	-0.045358	-0.732178	0.389404	0.325195	0.367862	-0.645457	-0.478728	-0.467848
46685		9.415721	-0.083417	-2.701301	0.035646	-0.046766	-0.034896	-0.734619	0.385498	0.321777	0.367763	-0.645438	-0.479152	-0.467518
46686		9.541354	0.016445	-2.722818	-0.002901	-0.041683	-0.021009	-0.727783	0.382324	0.326904	0.367541	-0.645510	-0.479367	-0.467373
46687		9.487567	0.035501	-2.722239	-0.017739	-0.046156	-0.008014	-0.732178	0.384766	0.326660	0.367187	-0.645774	-0.479448	-0.467203
46688		9.375179	0.150425	-2.850125	-0.046372	-0.049281	0.018332	-0.731445	0.381104	0.329102	0.366813	-0.646205	-0.479300	-0.467053
46689		9.406381	0.017090	-3.022836	-0.072655	-0.046238	0.033878	-0.732910	0.381348	0.326416	0.366328	-0.646764	-0.478980	-0.466989
46690		9.468333	-0.296197	-3.192856	-0.066210	-0.042196	0.039683	-0.731445	0.384521	0.323975	0.365954	-0.647269	-0.478647	-0.466923
46691		9.445073	-0.465634	-2.937794	0.044277	-0.036688	0.034021	-0.726318	0.379395	0.327393	0.366222	-0.647394	-0.478726	-0.466459
46692		9.477848	-0.222256	-2.524403	0.104957	-0.029533	0.024294	-0.729248	0.391846	0.323730	0.366722	-0.647306	-0.479078	-0.465826
46693		9.509469	-0.049891	-2.469299	0.031605	-0.029630	0.039177	-0.731934	0.387451	0.327393	0.367007	-0.647496	-0.479015	-0.465402
46694		9.393932	-0.219869	-2.830173	-0.090146	-0.033017	0.054580	-0.729980	0.384521	0.329834	0.366627	-0.648107	-0.478464	-0.465418
46695		9.367629	-0.525288	-3.020136	-0.067792	-0.035359	0.046572	-0.731934	0.386230	0.327637	0.366288	-0.648635	-0.478061	-0.465363
46696		9.296619	-0.470513	-2.976506	0.025480	-0.033375	0.029399	-0.725830	0.385742	0.332764	0.366438	-0.648770	-0.478108	-0.465009
46697		9.368260	-0.037893	-2.931814	0.012770	-0.035617	0.043808	-0.724365	0.384277	0.333008	0.366501	-0.649084	-0.478010	-0.464621
46698		9.434956	-0.051485	-2.938240	-0.051783	-0.032111	0.059060	-0.735840	0.389404	0.333496	0.366270	-0.649643	-0.477574	-0.464472
46699		9.395695	-0.150687	-2.966259	-0.105928	-0.034730	0.073140	-0.725098	0.385498	0.327393	0.365869	-0.650343	-0.476919	-0.464481
46700		9.372026	-0.245706	-3.007340	-0.113711	-0.030469	0.074407	-0.730713	0.393066	0.327393	0.365434	-0.651083	-0.476150	-0.464575
46701		9.371600	-0.098185	-3.083353	-0.142351	-0.027273	0.090734	-0.724365	0.388184	0.326172	0.365002	-0.651928	-0.475174	-0.464728
46702		9.487393	-0.184118	-2.948965	-0.149808	-0.021665	0.102215	-0.726318	0.389160	0.339600	0.364553	-0.652835	-0.474073	-0.464932
46703		9.356929	-0.310433	-2.844571	-0.115860	-0.022657	0.110731	-0.724121	0.390137	0.341064	0.364241	-0.653724	-0.473103	-0.464916
46704		9.385833	-0.268995	-2.846123	-0.124806	-0.031618	0.121995	-0.729004	0.389648	0.326660	0.363882	-0.654731	-0.472053	-0.464847
46705		9.357992	-0.336603	-2.899240	-0.139756	-0.038372	0.131137	-0.720459	0.384766	0.333984	0.363574	-0.655704	-0.470927	-0.464859
46706		9.345511	-0.404610	-3.084111	-0.135953	-0.039410	0.127157	-0.722412	0.391357	0.341553	0.363151	-0.656736	-0.469823	-0.464850
46707		9.363045	-0.565496	-3.274795	-0.118438	-0.034831	0.130227	-0.712402	0.386719	0.342529	0.362865	-0.657732	-0.468766	-0.464733
46708		9.340648	-0.620094	-3.115724	-0.036969	-0.030952	0.111579	-0.723389	0.398438	0.340088	0.362891	-0.658456	-0.468069	-0.464389
46709		9.441284	-0.583605	-2.611425	0.051472	-0.029619	0.097739	-0.721924	0.393311	0.345215	0.363505	-0.658760	-0.467825	-0.463724
46710		9.354115	-0.292372	-2.401169	-0.011517	-0.037127	0.106167	-0.718018	0.402832	0.348389	0.363686	-0.659334	-0.467343	-0.463251
46711		9.354597	-0.392712	-2.762007	-0.145987	-0.051244	0.119093	-0.719482	0.397217	0.348633	0.363157	-0.660478	-0.466263	-0.463125
46712		9.293823	-0.898625	-3.280739	-0.215701	-0.060019	0.103008	-0.711426	0.395752	0.342041	0.362119	-0.661757	-0.465068	-0.463313
46713		9.312277	-1.345631	-3.270343	-0.051467	-0.048647	0.058847	-0.718018	0.400879	0.343994	0.361885	-0.662332	-0.464654	-0.463090
46714		9.423308	-0.676101	-2.932128	0.024455	-0.034147	0.035842	-0.710449	0.402100	0.345215	0.362094	-0.662490	-0.464651	-0.462703
46715		9.521733	-0.115218	-2.408548	-0.044507	-0.042580	0.040522	-0.715332	0.405273	0.343262	0.361879	-0.662973	-0.464330	-0.462502
46716		9.320289	-0.248475	-2.861889	-0.182183	-0.044599	0.060741	-0.706299	0.401855	0.352539	0.361033	-0.663902	-0.463395	-0.462768
46717		9.271983	-0.625988	-3.330842	-0.218709	-0.052769	0.067839	-0.715088	0.399902	0.358643	0.359875	-0.665095	-0.462275	-0.463076
46718		9.197211	-1.166220	-3.363748	-0.087993	-0.043394	0.036440	-0.709473	0.391357	0.348633	0.359353	-0.665677	-0.461886	-0.463034
46719		9.385762	-0.908361	-2.864649	0.083902	-0.044541	0.006590	-0.721191	0.409668	0.353027	0.359653	-0.665607	-0.462291	-0.462498
46720		9.511670	-0.242137	-2.510246	0.048548	-0.038994	0.011112	-0.708984	0.401611	0.355225	0.359944	-0.665599	-0.462552	-0.462022
46721		9.360815	-0.344491	-2.726049	-0.104035	-0.043776	0.032386	-0.711914	0.395752	0.347412	0.359335	-0.666233	-0.462077	-0.462057
46722		9.212462	-0.895299	-2.933317	-0.097641	-0.048288	0.023601	-0.710938	0.401611	0.352295	0.358730	-0.666756	-0.461698	-0.462151
46723		9.162891	-0.914660	-3.203018	-0.003219	-0.058068	0.000921	-0.710449	0.397949	0.356934	0.358550	-0.666977	-0.461830	-0.461841
46724		9.341840	-0.547241	-3.383371	0.049478	-0.052874	-0.004003	-0.704102	0.394775	0.356689	0.358612	-0.667015	-0.462195	-0.461373
46725		9.387098	-0.562911	-3.335585	0.079719	-0.035669	-0.005209	-0.704834	0.403564	0.357910	0.358858	-0.666932	-0.462598	-0.460897
46726		9.260727	-0.436889	-3.142457	0.033930	-0.049833	-0.000402	-0.711426	0.403809	0.356689	0.358875	-0.667068	-0.462832	-0.460451
46727		9.377954	-0.320372	-2.890444	0.042580	-0.048788	0.002438	-0.710693	0.397217	0.360352	0.358986	-0.667125	-0.463122	-0.459991
46728		9.402794	-0.336190	-2.885184	-0.007089	-0.045681	0.018815	-0.707275	0.398193	0.352051	0.358823	-0.667388	-0.463144	-0.459714
46729		9.286369	-0.655823	-3.083336	-0.017253	-0.035588	0.020348	-0.704590	0.402832	0.358887	0.358693	-0.667637	-0.463039	-0.459559
46730		9.264559	-1.064009	-3.305993	0.076127	-0.044028	-0.001155	-0.711670	0.398682	0.363770	0.358959	-0.667605	-0.463432	-0.459001
46731		9.367625	-1.077179	-3.186154	0.203920	-0.037793	-0.024619	-0.705566	0.402100	0.353516	0.359834	-0.667034	-0.464495	-0.458072
46732		9.254591	-0.340574	-3.514781	0.094311	-0.013288	-0.033329	-0.706787	0.392090	0.347412	0.360211	-0.666675	-0.465042	-0.457743
46733		9.241134	-0.563336	-3.297914	-0.000902	-0.014550	-0.026861	-0.698486	0.402832	0.352539	0.360033	-0.666590	-0.465203	-0.457843
46734		9.213355	-0.767019	-3.323524	-0.005281	-0.016599	-0.029839	-0.709717	0.393555	0.359619	0.359843	-0.666609	-0.465314	-0.457851
46735		9.280057	-0.591241	-3.068319	0.086136	-0.022531	-0.036357	-0.712402	0.404053	0.355225	0.360042	-0.666287	-0.465929	-0.457538
46736		9.331298	-0.294193	-3.011297	0.056502	-0.023063	-0.027467	-0.694580	0.400391	0.351807	0.360221	-0.666064	-0.466375	-0.457268
46737		9.355113	-0.444924	-3.091457	0.034416	-0.030943	-0.012297	-0.708008	0.404785	0.350830	0.360234	-0.666114	-0.466559	-0.456997
46738		9.331513	-0.510304	-3.270199	0.047962	-0.033799	-0.009128	-0.712158	0.407227	0.355225	0.360408	-0.666042	-0.466866	-0.456652
46739		9.311611	-0.480995	-3.272053	0.057510	-0.035646	-0.008211	-0.717041	0.411865	0.357178	0.360637	-0.665940	-0.467243	-0.456233
46740		9.286685	-0.488252	-3.077560	0.047957	-0.026255	-0.008614	-0.709229	0.399658	0.364502	0.360886	-0.665803	-0.467590	-0.455880
46741		9.279922	-0.601690	-3.101451	0.020582	-0.028041	-0.002275	-0.700439	0.405029	0.355469	0.360840	-0.665855	-0.467789	-0.455636
46742		9.254551	-0.673465	-3.299108	0.008887	-0.026826	-0.001885	-0.709229	0.396240	0.353271	0.360799	-0.665971	-0.467856	-0.455432
46743		9.222980	-0.568244	-3.213361	0.020216	-0.031106	-0.003009	-0.704346	0.402588	0.349365	0.360770	-0.665986	-0.468036	-0.455247
46744		9.265071	-0.359479	-3.110724	0.015257	-0.024501	0.003553	-0.704102	0.404053	0.356934	0.360821	-0.666038	-0.468101	-0.455064
46745		9.324556	-0.457811	-2.971114	-0.003714	-0.026385	0.010939	-0.701660	0.397705	0.353516	0.360757	-0.666211	-0.468077	-0.454885
46746		9.308154	-0.454979	-3.040126	-0.003406	-0.021799	0.014410	-0.698730	0.404785	0.358887	0.360688	-0.666379	-0.468001	-0.454773
46747		9.348464	-0.464556	-3.142788	-0.023288	-0.024166	0.021974	-0.702637	0.399414	0.354004	0.360546	-0.666687	-0.467808	-0.454633
46748		9.267347	-0.634456	-3.252247	-0.039961	-0.024679	0.022798	-0.699707	0.412598	0.360840	0.360313	-0.666995	-0.467565	-0.454616
46749		9.269834	-0.751277	-3.265572	-0.001401	-0.025316	0.016599	-0.700928	0.409180	0.360107	0.360326	-0.667216	-0.467496	-0.454352
46750		9.286688	-0.497287	-3.229076	0.016293	-0.028446	0.016721	-0.704590	0.413330	0.357178	0.360407	-0.667378	-0.467513	-0.454032
46751		9.287100	-0.514878	-3.218470	-0.003856	-0.028207	0.022789	-0.699951	0.406738	0.350098	0.360456	-0.667587	-0.467431	-0.453771
46752		9.278943	-0.590210	-3.233066	-0.005636	-0.026928	0.020653	-0.699707	0.409180	0.358154	0.360463	-0.667787	-0.467311	-0.453594
46753		9.259185	-0.677367	-3.199277	0.002760	-0.023268	0.021921	-0.712158	0.398438	0.360352	0.360515	-0.667980	-0.467227	-0.453354
46754		9.245949	-0.664509	-3.228283	0.028296	-0.022489	0.015842	-0.698730	0.407959	0.356201	0.360632	-0.667986	-0.467346	-0.453129
46755		9.322217	-0.544087	-3.254121	0.005511	-0.022963	0.017219	-0.698486	0.403320	0.357178	0.360679	-0.668145	-0.467291	-0.452914
46756		9.248087	-0.711099	-3.287757	0.003286	-0.013445	0.015209	-0.704346	0.406494	0.357910	0.360701	-0.668269	-0.467212	-0.452796
46757		9.268750	-0.732793	-3.253211	0.027503	-0.012463	0.008851	-0.703125	0.407471	0.361328	0.360875	-0.668253	-0.467292	-0.452598
46758		9.265119	-0.554255	-3.211337	0.028541	-0.010085	0.007614	-0.699219	0.408447	0.352783	0.361045	-0.668239	-0.467379	-0.452393
46759		9.285181	-0.506633	-3.240475	-0.011991	-0.009647	0.011398	-0.708008	0.416016	0.356201	0.361040	-0.668357	-0.467251	-0.452357
46760		9.278284	-0.734974	-3.227051	-0.009313	-0.007833	0.009454	-0.699463	0.407959	0.361328	0.361114	-0.668405	-0.467196	-0.452283
46761		9.292914	-0.712889	-3.236839	0.021369	-0.009835	0.005473	-0.699707	0.412354	0.362793	0.361229	-0.668422	-0.467253	-0.452106
46762		9.269832	-0.508558	-3.211414	0.024448	-0.008723	0.003968	-0.697998	0.409668	0.363037	0.361388	-0.668420	-0.467338	-0.451894
46763		9.263515	-0.516526	-3.188565	0.000837	-0.007699	0.015314	-0.700195	0.411377	0.361084	0.361433	-0.668541	-0.467259	-0.451761
46764		9.272283	-0.635936	-3.144426	0.002215	-0.009437	0.012823	-0.695557	0.403564	0.361084	0.361495	-0.668634	-0.467209	-0.451625
46765		9.264780	-0.546807	-3.259700	-0.016113	-0.009355	0.014416	-0.699463	0.410889	0.355957	0.361388	-0.668818	-0.467051	-0.451601
46766		9.215084	-0.658790	-3.201711	-0.024053	-0.010297	0.015294	-0.700439	0.404541	0.361328	0.361325	-0.668991	-0.466871	-0.451582
46767		9.277442	-0.735016	-3.197679	-0.006256	-0.012732	0.010142	-0.703369	0.407959	0.364746	0.361264	-0.669108	-0.466809	-0.451522
46768		9.295915	-0.586041	-3.203484	-0.011888	-0.013763	0.012528	-0.694092	0.414551	0.361328	0.361197	-0.669244	-0.466743	-0.451443
46769		9.241812	-0.669525	-3.175922	-0.017152	-0.012890	0.011465	-0.697021	0.406982	0.362305	0.361142	-0.669431	-0.466616	-0.451340
46770		9.275338	-0.631804	-3.160535	-0.009841	-0.015029	0.012251	-0.707520	0.404053	0.361084	0.361069	-0.669593	-0.466525	-0.451253
46771		9.283417	-0.730154	-3.112820	-0.002243	-0.014906	0.008172	-0.698242	0.408203	0.358887	0.361032	-0.669649	-0.466524	-0.451200
46772		9.266123	-0.657951	-3.244393	-0.002433	-0.016438	0.007808	-0.690186	0.414307	0.365967	0.361005	-0.669756	-0.466487	-0.451101
46773		9.251202	-0.636220	-3.209239	-0.008330	-0.018641	0.008417	-0.697266	0.412842	0.363770	0.360938	-0.669956	-0.466423	-0.450924
46774		9.242481	-0.648940	-3.207984	0.001060	-0.019800	0.006455	-0.697510	0.407227	0.364258	0.360926	-0.670073	-0.466432	-0.450749
46775		9.294506	-0.710698	-3.132697	0.006900	-0.021006	0.004139	-0.693604	0.404541	0.354004	0.360891	-0.670169	-0.466475	-0.450590
46776		9.248322	-0.679354	-3.228035	0.007340	-0.019460	0.002106	-0.699219	0.411377	0.357910	0.360868	-0.670245	-0.466475	-0.450495
46777		9.220166	-0.686547	-3.248066	-0.002069	-0.019460	-0.000102	-0.700928	0.402588	0.363770	0.360834	-0.670315	-0.466499	-0.450395
46778		9.254297	-0.708093	-3.247979	0.003447	-0.020321	-0.001444	-0.701660	0.410400	0.359131	0.360738	-0.670374	-0.466564	-0.450317
46779		9.274179	-0.666475	-3.200253	0.006765	-0.019200	-0.005344	-0.695557	0.421631	0.360840	0.360731	-0.670381	-0.466664	-0.450208
46780		9.260173	-0.715364	-3.262933	-0.005926	-0.018073	-0.006118	-0.703125	0.409912	0.359131	0.360717	-0.670452	-0.466715	-0.450060
46781		9.240253	-0.749845	-3.296628	0.011078	-0.017951	-0.008009	-0.700439	0.406006	0.363525	0.360727	-0.670424	-0.466845	-0.449960
46782		9.237885	-0.640427	-3.353477	0.024054	-0.016814	-0.012107	-0.697754	0.409180	0.364502	0.360747	-0.670365	-0.467035	-0.449834
46783		9.267858	-0.600779	-3.294325	0.016098	-0.013984	-0.010927	-0.692871	0.411377	0.361816	0.360753	-0.670339	-0.467180	-0.449717
46784		9.251877	-0.603458	-3.282587	0.011560	-0.009229	-0.008056	-0.701660	0.407959	0.368896	0.360780	-0.670337	-0.467257	-0.449618
46785		9.255614	-0.611113	-3.249024	0.005913	-0.006492	-0.005369	-0.692627	0.403564	0.366211	0.360762	-0.670325	-0.467334	-0.449571
46786		9.233220	-0.583486	-3.364730	-0.006547	-0.006444	-0.001880	-0.702881	0.406006	0.367676	0.360644	-0.670412	-0.467290	-0.449582
46787		9.258015	-0.716745	-3.338732	-0.001624	-0.008133	-0.004030	-0.690186	0.406982	0.367676	0.360577	-0.670424	-0.467334	-0.449571
46788		9.263405	-0.678309	-3.275165	0.023523	0.000482	-0.008659	-0.691895	0.407715	0.363281	0.360645	-0.670382	-0.467420	-0.449490
46789		9.291665	-0.449360	-3.248637	0.000899	0.005335	-0.006534	-0.702881	0.407471	0.355713	0.360640	-0.670376	-0.467394	-0.449530
46790		9.250057	-0.499129	-3.260714	-0.025013	0.010229	0.003667	-0.695557	0.408691	0.359619	0.360602	-0.670385	-0.467233	-0.449716
46791		9.191108	-0.414697	-3.386631	-0.068577	0.020536	0.011352	-0.696533	0.402344	0.356689	0.360366	-0.670567	-0.466814	-0.450068
46792		9.200918	-0.541004	-3.423984	-0.127368	-0.000704	0.023071	-0.697998	0.406738	0.363525	0.359733	-0.671040	-0.466159	-0.450547
46793		9.268053	-0.745295	-3.271564	-0.079904	0.008326	0.021770	-0.692871	0.412354	0.368164	0.359410	-0.671337	-0.465691	-0.450848
46794		9.246833	-0.556773	-3.086588	-0.024109	0.005173	0.025845	-0.697021	0.409180	0.364014	0.359414	-0.671531	-0.465416	-0.450838
46795		9.254473	-0.556001	-3.012755	-0.054432	-0.005165	0.033212	-0.695068	0.410889	0.372070	0.359240	-0.671848	-0.465022	-0.450912
46796		9.338525	-0.818525	-3.031721	-0.075693	-0.000552	0.024725	-0.697266	0.407715	0.358887	0.358909	-0.672210	-0.464588	-0.451084
46797		9.261655	-0.938384	-3.152602	-0.065087	-0.001608	0.010780	-0.695801	0.403809	0.365479	0.358621	-0.672436	-0.464259	-0.451314
46798		9.256566	-0.703368	-3.275752	-0.052027	-0.003487	0.001181	-0.696045	0.407227	0.373291	0.358308	-0.672623	-0.464030	-0.451519
46799		9.227202	-0.537642	-3.332508	-0.059932	-0.004415	0.002036	-0.692871	0.412842	0.371338	0.357947	-0.672860	-0.463788	-0.451702
46800		9.236863	-0.589032	-3.416848	-0.057755	-0.008668	0.007024	-0.698486	0.418213	0.370361	0.357645	-0.673129	-0.463539	-0.451795
46801		9.287138	-0.594296	-3.345509	-0.037859	-0.005576	0.005030	-0.700684	0.412842	0.373779	0.357518	-0.673279	-0.463404	-0.451811
46802		9.303452	-0.659402	-3.295922	-0.009293	0.004562	0.003671	-0.696533	0.406494	0.367920	0.357542	-0.673299	-0.463356	-0.451811
46803		9.263535	-0.692744	-3.205952	-0.016372	0.004483	0.002951	-0.702393	0.412109	0.367920	0.357490	-0.673350	-0.463242	-0.451893
46804		9.282719	-0.667587	-3.257755	-0.027610	0.002403	-0.003116	-0.698730	0.411377	0.371826	0.357397	-0.673383	-0.463164	-0.451998
46805		9.205945	-0.733970	-3.284600	-0.037902	0.001945	-0.005181	-0.695312	0.406982	0.370605	0.357212	-0.673468	-0.463054	-0.452130
46806		9.219519	-0.744301	-3.401365	-0.024764	0.000852	-0.009161	-0.695801	0.403320	0.368408	0.357051	-0.673522	-0.462990	-0.452243
46807		9.192069	-0.687963	-3.402953	-0.014401	0.005837	-0.012006	-0.696045	0.405518	0.365479	0.356939	-0.673512	-0.462950	-0.452386
46808		9.237416	-0.689270	-3.383345	0.001024	0.009536	-0.020788	-0.696777	0.407227	0.370361	0.356922	-0.673397	-0.463011	-0.452508
46809		9.263988	-0.703563	-3.227849	-0.004709	0.010368	-0.017072	-0.693604	0.401367	0.372803	0.356890	-0.673317	-0.463046	-0.452617
46810		9.258393	-0.676882	-3.276169	-0.006568	0.003367	-0.025406	-0.704834	0.404541	0.372803	0.356731	-0.673268	-0.463114	-0.452746
46811		9.180633	-0.785545	-3.171826	-0.004475	-0.009194	-0.026623	-0.698242	0.401367	0.367432	0.356579	-0.673195	-0.463283	-0.452801
46812		9.244114	-0.896631	-3.178694	0.029038	-0.010873	-0.037653	-0.698242	0.407715	0.369385	0.356551	-0.673011	-0.463602	-0.452770
46813		9.284299	-0.701402	-3.130503	0.056240	-0.012539	-0.045793	-0.701904	0.397217	0.376465	0.356680	-0.672717	-0.464101	-0.452594
46814		9.235809	-0.600480	-3.306330	0.053615	-0.008329	-0.046042	-0.697998	0.408203	0.368408	0.356716	-0.672430	-0.464562	-0.452518
46815		9.240475	-0.541231	-3.399432	0.052804	-0.009176	-0.044483	-0.696533	0.403076	0.366455	0.356850	-0.672140	-0.465030	-0.452363
46816		9.221516	-0.604392	-3.520275	0.071205	-0.013372	-0.044987	-0.701660	0.402100	0.358643	0.357035	-0.671820	-0.465556	-0.452152
46817		9.259240	-0.551807	-3.464373	0.080011	-0.016446	-0.041153	-0.699219	0.405029	0.364014	0.357301	-0.671456	-0.466108	-0.451914
46818		9.253756	-0.439099	-3.313151	0.091203	-0.003014	-0.034235	-0.694580	0.396973	0.364014	0.357704	-0.671059	-0.466633	-0.451643
46819		9.297107	-0.457472	-3.235873	0.078065	-0.003059	-0.023618	-0.694580	0.408936	0.362305	0.358000	-0.670780	-0.467000	-0.451443
46820		9.416898	-0.385001	-3.126608	0.023374	0.010659	-0.022753	-0.698730	0.405762	0.370850	0.358138	-0.670594	-0.467165	-0.451440
46821		9.319871	-0.728143	-3.151534	0.019406	0.034238	-0.036414	-0.695557	0.408936	0.359863	0.358246	-0.670288	-0.467328	-0.451639
46822		9.290910	-0.722248	-3.197588	0.022563	0.035000	-0.036516	-0.701416	0.404785	0.378174	0.358431	-0.669952	-0.467494	-0.451820
46823		9.223687	-0.639646	-3.251738	-0.000898	0.036635	-0.041209	-0.699707	0.401367	0.353760	0.358388	-0.669693	-0.467613	-0.452114
46824		9.265065	-0.729144	-3.242613	0.024786	0.037853	-0.051183	-0.699707	0.405518	0.361572	0.358516	-0.669264	-0.467836	-0.452418
46825		9.326928	-0.500765	-3.221531	0.006716	0.035641	-0.049527	-0.702637	0.403564	0.358154	0.358542	-0.668921	-0.468015	-0.452719
46826		9.192053	-0.353305	-3.321402	-0.031997	0.032414	-0.041124	-0.701416	0.407471	0.354736	0.358375	-0.668723	-0.468008	-0.453151
46827		9.240639	-0.506363	-3.435195	-0.067381	0.036343	-0.038830	-0.706787	0.408203	0.364258	0.358076	-0.668614	-0.467857	-0.453703
46828		9.253057	-0.577643	-3.536568	-0.039552	0.045458	-0.037256	-0.703857	0.398193	0.363525	0.357960	-0.668395	-0.467806	-0.454170
46829		9.232929	-0.651616	-3.546845	-0.022035	0.046874	-0.039732	-0.708252	0.401611	0.361816	0.357863	-0.668140	-0.467777	-0.454651
46830		9.277064	-0.639838	-3.554963	0.009578	0.054948	-0.044345	-0.705811	0.398682	0.358887	0.357997	-0.667714	-0.467897	-0.455048
46831		9.270138	-0.468289	-3.399537	0.040975	0.054366	-0.040472	-0.705078	0.398682	0.361572	0.358301	-0.667225	-0.468094	-0.455324
46832		9.291209	-0.426547	-3.197327	0.065039	0.059663	-0.037120	-0.704102	0.387207	0.363525	0.358759	-0.666670	-0.468351	-0.455511
46833		9.300094	-0.481583	-2.823902	0.114174	0.062084	-0.035344	-0.718262	0.404541	0.356445	0.359406	-0.666006	-0.468716	-0.455597
46834		9.385162	-0.217916	-2.791066	0.090536	0.062160	-0.029707	-0.704102	0.398682	0.353271	0.360114	-0.665323	-0.469076	-0.455665
46835		9.327321	-0.227204	-2.969556	-0.012592	0.048540	-0.004796	-0.702148	0.405518	0.358398	0.360228	-0.665170	-0.468876	-0.456004
46836		9.301901	-0.719688	-3.081843	0.013776	0.049524	-0.018078	-0.712402	0.394531	0.359375	0.360471	-0.664892	-0.468882	-0.456212
46837		9.368054	-0.705927	-3.028133	0.089530	0.049581	-0.033602	-0.706055	0.396484	0.359375	0.361002	-0.664310	-0.469232	-0.456279
46838		9.374274	-0.261932	-3.089284	0.047819	0.049243	-0.027386	-0.717041	0.393311	0.353516	0.361324	-0.663908	-0.469381	-0.456456
46839		9.283436	-0.393425	-3.066445	-0.036343	0.042038	-0.014903	-0.718506	0.403809	0.359375	0.361211	-0.663782	-0.469173	-0.456943
46840		9.342205	-0.690527	-2.995508	-0.009442	0.032186	-0.024343	-0.710205	0.398438	0.348389	0.361233	-0.663565	-0.469210	-0.457202
46841		9.385236	-0.663525	-2.902548	0.039014	0.036025	-0.034200	-0.712158	0.397217	0.349854	0.361485	-0.663169	-0.469417	-0.457365
46842		9.335042	-0.265864	-2.947531	-0.001606	0.033903	-0.028081	-0.705811	0.391846	0.350830	0.361515	-0.662929	-0.469441	-0.457665
46843		9.247793	-0.506699	-3.132494	-0.029600	0.031120	-0.022528	-0.708984	0.395264	0.353027	0.361347	-0.662850	-0.469292	-0.458065
46844		9.342407	-0.714123	-2.897188	0.035990	0.025127	-0.030745	-0.710693	0.401123	0.354004	0.361512	-0.662549	-0.469487	-0.458170
46845		9.340901	-0.350868	-2.795914	0.044712	0.028515	-0.030448	-0.715820	0.398193	0.356689	0.361780	-0.662196	-0.469736	-0.458213
46846		9.378053	-0.312358	-2.935560	-0.019659	0.022591	-0.018947	-0.712158	0.394775	0.360596	0.361689	-0.662099	-0.469696	-0.458467
46847		9.325895	-0.601266	-3.142861	-0.030333	0.023506	-0.015896	-0.714600	0.389404	0.354492	0.361513	-0.662076	-0.469572	-0.458767
46848		9.286197	-0.723533	-3.109381	0.019931	0.015559	-0.027188	-0.716797	0.397461	0.352295	0.361530	-0.661869	-0.469707	-0.458913
46849		9.324084	-0.624601	-2.921396	0.064010	0.015135	-0.037463	-0.716309	0.387695	0.351562	0.361817	-0.661462	-0.470110	-0.458860
46850		9.365824	-0.340356	-2.660719	0.061213	0.007993	-0.036160	-0.713135	0.393311	0.347656	0.361998	-0.661116	-0.470472	-0.458845
46851		9.294481	-0.460251	-2.780251	-0.039137	-0.005634	-0.018511	-0.710449	0.394775	0.357910	0.361685	-0.661190	-0.470406	-0.459053
46852		9.223995	-0.859136	-2.978893	0.000525	-0.013796	-0.030950	-0.710938	0.393311	0.352295	0.361481	-0.661168	-0.470583	-0.459064
46853		9.230701	-0.572802	-3.089986	0.038584	-0.022565	-0.046892	-0.711182	0.393066	0.342773	0.361407	-0.660984	-0.471016	-0.458944
46854		9.315203	-0.399515	-2.977730	0.016740	-0.029149	-0.042104	-0.706055	0.395752	0.355469	0.361243	-0.660878	-0.471360	-0.458872
46855		9.404138	-0.493482	-2.903424	0.013835	-0.026151	-0.044193	-0.709473	0.400635	0.356445	0.361025	-0.660824	-0.471685	-0.458787
46856		9.388490	-0.336373	-2.963842	0.001782	-0.027308	-0.038901	-0.713135	0.389893	0.353271	0.360795	-0.660813	-0.471966	-0.458696
46857		9.297354	-0.442619	-3.187903	-0.012785	-0.028778	-0.031291	-0.715820	0.395508	0.351074	0.360466	-0.660860	-0.472136	-0.458711
46858		9.311054	-0.461169	-3.229688	0.049319	-0.026625	-0.032385	-0.710449	0.393066	0.356934	0.360535	-0.660683	-0.472571	-0.458464
46859		9.337467	-0.224528	-3.231936	0.072475	-0.025050	-0.030542	-0.715576	0.393555	0.354004	0.360697	-0.660483	-0.473053	-0.458128
46860		9.333144	-0.088057	-3.266278	-0.003343	-0.023634	-0.016056	-0.719238	0.391846	0.346436	0.360526	-0.660528	-0.473182	-0.458064
46861		9.361139	-0.494058	-3.154885	0.015822	-0.006006	-0.017825	-0.712891	0.390137	0.356201	0.360552	-0.660401	-0.473350	-0.458053
46862		9.332814	-0.469223	-2.987056	0.041028	-0.009073	-0.017932	-0.705322	0.396973	0.354248	0.360644	-0.660272	-0.473596	-0.457912
46863		9.396026	-0.246404	-3.062250	0.020604	-0.010599	-0.012176	-0.712646	0.395996	0.350342	0.360668	-0.660260	-0.473725	-0.457777
46864		9.198176	-0.277681	-3.191344	-0.028619	-0.010593	0.001476	-0.718994	0.397217	0.356689	0.360498	-0.660404	-0.473616	-0.457817
46865		9.269835	-0.658270	-3.232446	-0.007769	-0.015775	-0.001596	-0.718018	0.391113	0.348877	0.360412	-0.660476	-0.473650	-0.457745
46866		9.384164	-0.616931	-3.071253	0.060766	-0.014296	-0.011377	-0.713135	0.395264	0.359863	0.360663	-0.660284	-0.473972	-0.457491
46867		9.395560	-0.267640	-2.975857	0.060999	-0.003679	-0.010171	-0.713135	0.391113	0.345947	0.360935	-0.660107	-0.474254	-0.457239
46868		9.366491	-0.107704	-3.078792	-0.018032	-0.003110	0.004542	-0.712891	0.395508	0.348145	0.360851	-0.660190	-0.474132	-0.457311
46869		9.306871	-0.421996	-3.204618	-0.017567	0.002674	0.009802	-0.712891	0.389160	0.354248	0.360831	-0.660275	-0.473978	-0.457365
46870		9.129821	-0.361284	-3.232283	0.004065	0.001508	0.019142	-0.715332	0.395264	0.345459	0.360903	-0.660355	-0.473846	-0.457329
46871		9.306534	-0.180128	-3.216312	-0.031336	0.000021	0.037768	-0.715088	0.395996	0.355225	0.360915	-0.660581	-0.473502	-0.457350
46872		9.360893	-0.254528	-3.317890	-0.058322	0.007153	0.051178	-0.719482	0.386475	0.355713	0.360827	-0.660939	-0.472966	-0.457456
46873		9.369612	-0.471629	-3.187545	-0.007881	-0.001607	0.054860	-0.715088	0.386230	0.348877	0.360952	-0.661177	-0.472622	-0.457371
46874		9.337910	-0.495636	-3.081599	0.052294	0.012286	0.046639	-0.716553	0.387451	0.348389	0.361442	-0.661149	-0.472490	-0.457160
46875		9.422767	-0.398644	-2.836613	0.054435	0.007280	0.046092	-0.712158	0.397217	0.355225	0.361928	-0.661122	-0.472393	-0.456913
46876		9.336084	-0.397134	-2.755910	-0.007926	0.004821	0.051141	-0.717041	0.391602	0.347900	0.362093	-0.661351	-0.472043	-0.456814
46877		9.298730	-0.465540	-3.093127	-0.078131	-0.006180	0.056538	-0.710449	0.391113	0.348877	0.361855	-0.661808	-0.471436	-0.456968
46878		9.307966	-0.501786	-3.367777	-0.088504	0.000759	0.054927	-0.701660	0.402588	0.345947	0.361559	-0.662297	-0.470748	-0.457202
46879		9.217551	-0.515715	-3.248953	-0.032231	0.007952	0.043972	-0.704590	0.403320	0.354492	0.361616	-0.662568	-0.470312	-0.457213
46880		9.320851	-0.464060	-3.110969	-0.055082	0.002432	0.051736	-0.710449	0.399902	0.355225	0.361531	-0.662972	-0.469771	-0.457251
46881		9.394311	-0.580701	-2.940738	-0.043760	0.007209	0.043004	-0.715820	0.393311	0.358643	0.361488	-0.663260	-0.469324	-0.457327
46882		9.316217	-0.592513	-3.050864	-0.095662	0.010359	0.043575	-0.712158	0.397461	0.354248	0.361137	-0.663680	-0.468672	-0.457663
46883		9.356845	-0.607575	-3.168856	-0.084540	0.008747	0.040893	-0.710449	0.398193	0.356201	0.360864	-0.664062	-0.468078	-0.457933
46884		9.340036	-0.431545	-3.154881	-0.079702	0.017617	0.033927	-0.710449	0.409912	0.349121	0.360619	-0.664379	-0.467509	-0.458246
46885		9.321720	-0.392608	-2.968401	-0.068657	0.013744	0.033765	-0.699463	0.396729	0.355225	0.360511	-0.664647	-0.467027	-0.458434
46886		9.371415	-0.334009	-2.858971	-0.100884	0.010493	0.047508	-0.702393	0.398193	0.360840	0.360144	-0.665157	-0.466275	-0.458749
46887		9.247974	-0.490442	-2.901336	-0.117331	-0.003226	0.056902	-0.714355	0.397217	0.350342	0.359666	-0.665802	-0.465463	-0.459012
46888		9.275555	-0.676770	-3.067757	-0.085466	-0.006764	0.052946	-0.708008	0.393555	0.353027	0.359403	-0.666254	-0.464859	-0.459175
46889		9.317172	-0.546076	-3.177219	-0.065305	-0.003119	0.047193	-0.708984	0.392090	0.360107	0.359200	-0.666647	-0.464318	-0.459311
46890		9.367996	-0.491849	-3.232243	-0.080737	-0.010340	0.043346	-0.714600	0.400879	0.353516	0.358840	-0.667113	-0.463759	-0.459480
46891		9.365569	-0.814513	-3.064216	-0.030378	0.001949	0.031523	-0.705322	0.404053	0.365234	0.358851	-0.667278	-0.463473	-0.459520
46892		9.272743	-0.665805	-2.787890	0.019816	-0.003509	0.024873	-0.707520	0.401367	0.360107	0.359043	-0.667369	-0.463393	-0.459318
46893		9.300675	-0.334665	-2.759079	-0.037872	-0.010663	0.030485	-0.706787	0.399658	0.359131	0.358916	-0.667656	-0.463087	-0.459309
46894		9.281358	-0.623168	-3.109884	-0.125504	-0.020005	0.036134	-0.703857	0.394043	0.369141	0.358281	-0.668261	-0.462436	-0.459582
46895		9.280880	-1.045974	-3.510077	-0.051098	-0.009694	0.015029	-0.708496	0.403809	0.357178	0.357953	-0.668565	-0.462127	-0.459706
46896		9.307271	-0.857723	-3.491198	0.024653	0.006057	-0.006488	-0.703369	0.404541	0.365479	0.358133	-0.668434	-0.462231	-0.459652
46897		9.335434	-0.541996	-3.301656	0.065034	0.012172	-0.013563	-0.704102	0.402832	0.361084	0.358494	-0.668182	-0.462487	-0.459478
46898		9.396509	-0.147025	-3.083128	0.023007	0.017547	-0.003502	-0.708252	0.399414	0.366943	0.358685	-0.668061	-0.462509	-0.459483
46899		9.247287	-0.195403	-3.075606	-0.024709	0.026755	0.013389	-0.694092	0.390137	0.359131	0.358682	-0.668110	-0.462236	-0.459688
46900		9.267535	-0.466304	-3.190715	-0.032152	0.017945	0.031923	-0.709473	0.401855	0.359131	0.358619	-0.668338	-0.461779	-0.459866
46901		9.330516	-0.455089	-3.241069	-0.046861	0.012751	0.041510	-0.710205	0.397461	0.359863	0.358587	-0.668586	-0.461319	-0.459993
46902		9.349831	-0.608604	-3.111617	-0.029410	0.010747	0.037471	-0.702637	0.397705	0.371582	0.358608	-0.668770	-0.460951	-0.460077
46903		9.310530	-0.690954	-2.933282	-0.011012	0.012625	0.034993	-0.707520	0.402832	0.361816	0.358667	-0.668957	-0.460619	-0.460092
46904		9.296123	-0.673714	-2.893692	-0.021599	0.009824	0.037698	-0.705811	0.390869	0.359619	0.358738	-0.669141	-0.460277	-0.460112
46905		9.366578	-0.786810	-2.921015	-0.006107	0.006431	0.026988	-0.709717	0.402344	0.357178	0.358790	-0.669248	-0.460041	-0.460150
46906		9.353199	-0.644828	-2.992945	0.043907	0.008749	0.019616	-0.714844	0.399170	0.360840	0.359172	-0.669143	-0.460067	-0.459980
46907		9.327708	-0.528350	-2.840365	0.069285	0.006552	0.010606	-0.707520	0.403809	0.356689	0.359635	-0.668922	-0.460262	-0.459745
46908		9.308801	-0.662936	-2.832571	0.035722	0.002099	0.012710	-0.711426	0.409180	0.355957	0.359914	-0.668852	-0.460304	-0.459585
46909		9.278821	-0.721255	-2.998275	0.008061	-0.007668	0.013704	-0.700928	0.401611	0.360840	0.360039	-0.668885	-0.460292	-0.459452
46910		9.208335	-0.774085	-3.228626	-0.004662	-0.017137	0.009080	-0.705566	0.404541	0.355957	0.359957	-0.669044	-0.460217	-0.459359
46911		9.281010	-0.757490	-3.253099	0.023267	-0.019422	-0.000792	-0.706055	0.402832	0.361816	0.360030	-0.669049	-0.460343	-0.459168
46912		9.335630	-0.570671	-3.022737	0.041286	-0.019496	0.000166	-0.706299	0.408691	0.363770	0.360178	-0.669019	-0.460528	-0.458910
46913		9.375335	-0.395472	-2.960829	0.007656	-0.015266	0.007077	-0.703857	0.396973	0.355957	0.360202	-0.669104	-0.460543	-0.458754
46914		9.343709	-0.595858	-3.022554	-0.035227	-0.022715	0.012244	-0.712158	0.410156	0.365234	0.359945	-0.669354	-0.460361	-0.458772
46915		9.334505	-0.846630	-3.137518	0.017553	-0.029912	0.001997	-0.709961	0.403809	0.354980	0.359968	-0.669416	-0.460517	-0.458508
46916		9.311121	-0.722544	-3.133389	0.053685	-0.033847	-0.007238	-0.693604	0.398438	0.356201	0.360143	-0.669329	-0.460860	-0.458151
46917		9.293910	-0.608494	-3.254575	0.017590	-0.005054	-0.009572	-0.703613	0.403809	0.354492	0.360145	-0.669319	-0.460904	-0.458122
46918		9.296811	-0.624399	-3.142008	-0.017487	-0.001016	-0.009908	-0.701172	0.404785	0.361328	0.360024	-0.669339	-0.460865	-0.458227
46919		9.290913	-0.665321	-3.226342	-0.002429	0.002313	-0.012435	-0.704590	0.406250	0.361816	0.359964	-0.669325	-0.460871	-0.458289
46920		9.339646	-0.647525	-3.245295	0.038198	0.003471	-0.015578	-0.702148	0.397461	0.361816	0.360138	-0.669157	-0.461064	-0.458203
46921		9.279704	-0.726148	-3.108557	0.099993	-0.001839	-0.019876	-0.705322	0.403564	0.363525	0.360572	-0.668822	-0.461503	-0.457908
46922		9.264342	-0.599844	-3.026578	0.115953	-0.021004	-0.020550	-0.704590	0.411865	0.367432	0.361043	-0.668500	-0.462087	-0.457417
46923		9.300114	-0.482039	-3.034443	0.049761	-0.015464	-0.010863	-0.704834	0.403564	0.361084	0.361219	-0.668412	-0.462350	-0.457141
46924		9.248444	-0.587961	-3.174723	-0.003493	-0.019690	-0.007384	-0.701904	0.393799	0.362549	0.361084	-0.668491	-0.462400	-0.457082
46925		9.267420	-0.899498	-3.206266	0.017543	-0.025432	-0.011376	-0.698730	0.409912	0.354980	0.360977	-0.668530	-0.462541	-0.456967
46926		9.264515	-0.666454	-3.116386	0.073693	-0.028777	-0.018744	-0.700928	0.410156	0.355713	0.361225	-0.668380	-0.462962	-0.456565
46927		9.358511	-0.363154	-2.958366	0.055183	-0.025357	-0.013163	-0.705078	0.402588	0.361084	0.361407	-0.668286	-0.463280	-0.456236
46928		9.341731	-0.366746	-2.949001	-0.016577	-0.025398	0.001619	-0.708252	0.403320	0.354736	0.361208	-0.668456	-0.463249	-0.456175
46929		9.294010	-0.673696	-3.138948	-0.035245	-0.021262	0.004391	-0.708496	0.405029	0.356445	0.360969	-0.668638	-0.463146	-0.456201
46930		9.335762	-0.740549	-3.256395	0.007198	-0.025899	-0.002652	-0.709717	0.411377	0.358887	0.360926	-0.668687	-0.463260	-0.456049
46931		9.310742	-0.563642	-3.159013	0.033169	-0.021204	-0.002359	-0.704590	0.411621	0.358398	0.361067	-0.668642	-0.463469	-0.455791
46932		9.348112	-0.401967	-3.040711	0.025702	-0.022080	0.004534	-0.703613	0.411621	0.359863	0.361178	-0.668673	-0.463591	-0.455534
46933		9.308630	-0.414388	-3.091922	-0.016505	-0.022288	0.015584	-0.703369	0.403076	0.356934	0.361086	-0.668882	-0.463486	-0.455406
46934		9.303541	-0.580384	-3.208865	-0.040711	-0.023330	0.021889	-0.703613	0.403076	0.362793	0.360855	-0.669183	-0.463246	-0.455392
46935		9.272789	-0.755978	-3.244860	-0.011447	-0.020911	0.016566	-0.704102	0.409668	0.364746	0.360759	-0.669379	-0.463135	-0.455293
46936		9.290263	-0.578773	-3.064741	0.015275	-0.021042	0.016021	-0.700195	0.402344	0.360352	0.360833	-0.669493	-0.463142	-0.455058
46937		9.300859	-0.483212	-3.076374	-0.025504	-0.016935	0.022402	-0.693848	0.409180	0.364258	0.360693	-0.669745	-0.462921	-0.455024
46938		9.289378	-0.635545	-3.163900	-0.043263	-0.018318	0.027217	-0.704590	0.406738	0.367920	0.360466	-0.670115	-0.462586	-0.454999
46939		9.257237	-0.750973	-3.185132	-0.029923	-0.021245	0.021900	-0.699707	0.403320	0.358154	0.360291	-0.670389	-0.462386	-0.454938
46940		9.293436	-0.673987	-3.204231	-0.005020	-0.016349	0.019508	-0.699707	0.406982	0.354980	0.360274	-0.670552	-0.462265	-0.454834
46941		9.313491	-0.569080	-3.121076	-0.006615	-0.013535	0.017742	-0.694824	0.405029	0.363525	0.360278	-0.670691	-0.462152	-0.454741
46942		9.294928	-0.667275	-3.169512	-0.019698	-0.016603	0.022831	-0.703125	0.406494	0.360352	0.360165	-0.670950	-0.461930	-0.454674
46943		9.302814	-0.738672	-3.196065	0.000175	-0.016855	0.019150	-0.699707	0.403809	0.362549	0.360190	-0.671081	-0.461856	-0.454536
46944		9.267741	-0.694629	-3.177332	0.028799	-0.021332	0.015194	-0.698730	0.415283	0.368896	0.360316	-0.671150	-0.461901	-0.454287
46945		9.303311	-0.578831	-3.186564	0.012406	-0.020658	0.017818	-0.704102	0.412354	0.365234	0.360381	-0.671302	-0.461869	-0.454044
46946		9.268843	-0.681230	-3.222119	0.005109	-0.018525	0.017015	-0.700195	0.403564	0.364258	0.360427	-0.671424	-0.461837	-0.453860
46947		9.293088	-0.711954	-3.154183	0.012814	-0.021361	0.018248	-0.708984	0.407471	0.368652	0.360470	-0.671550	-0.461807	-0.453670
46948		9.250471	-0.679656	-3.131425	0.013848	-0.018981	0.017018	-0.699463	0.407959	0.363281	0.360547	-0.671628	-0.461823	-0.453477
46949		9.288158	-0.683811	-3.170062	0.004190	-0.020159	0.013003	-0.696777	0.416260	0.362793	0.360544	-0.671754	-0.461792	-0.453324
46950		9.299115	-0.722799	-3.152491	0.004518	-0.020501	0.012022	-0.702148	0.411377	0.361084	0.360565	-0.671887	-0.461772	-0.453131
46951		9.221354	-0.794372	-3.181982	0.015008	-0.019630	0.010260	-0.698486	0.409912	0.364990	0.360643	-0.671944	-0.461821	-0.452934
46952		9.221102	-0.722018	-3.228643	0.020236	-0.017888	0.007433	-0.700928	0.409668	0.370605	0.360717	-0.671998	-0.461873	-0.452742
46953		9.284702	-0.637627	-3.230623	0.004356	-0.020930	0.005010	-0.697266	0.407715	0.367920	0.360669	-0.672104	-0.461890	-0.452605
46954		9.297894	-0.690031	-3.198058	0.008763	-0.018881	0.007948	-0.696533	0.401855	0.359619	0.360657	-0.672210	-0.461884	-0.452463
46955		9.236575	-0.671356	-3.200607	0.016656	-0.010403	0.007646	-0.700684	0.411133	0.366943	0.360724	-0.672236	-0.461887	-0.452369
46956		9.268184	-0.631552	-3.282908	-0.007810	-0.013700	0.008070	-0.694580	0.409180	0.371826	0.360665	-0.672351	-0.461829	-0.452305
46957		9.251729	-0.762168	-3.320725	-0.015705	-0.012391	0.006482	-0.696533	0.407959	0.364746	0.360520	-0.672523	-0.461701	-0.452295
46958		9.234196	-0.812172	-3.338885	-0.000030	-0.012038	0.004351	-0.691895	0.408936	0.362061	0.360483	-0.672605	-0.461668	-0.452236
46959		9.275338	-0.730775	-3.238417	0.033053	-0.006236	-0.001387	-0.700439	0.411621	0.360840	0.360632	-0.672557	-0.461760	-0.452095
46960		9.348208	-0.536482	-3.119721	0.035347	-0.002561	0.000403	-0.698486	0.413818	0.361572	0.360854	-0.672447	-0.461892	-0.451946
46961		9.240845	-0.519789	-3.159130	0.000128	-0.007830	0.011653	-0.702637	0.414307	0.364990	0.360898	-0.672519	-0.461836	-0.451861
46962		9.215030	-0.681185	-3.295010	-0.017815	-0.010697	0.016169	-0.695068	0.415771	0.370361	0.360849	-0.672663	-0.461709	-0.451815
46963		9.286791	-0.863628	-3.162864	0.012358	-0.011657	0.010284	-0.702393	0.410400	0.362549	0.360910	-0.672751	-0.461686	-0.451659
46964		9.247888	-0.757921	-3.084560	0.022336	-0.011983	0.009116	-0.696289	0.417969	0.357422	0.361048	-0.672743	-0.461751	-0.451494
46965		9.217792	-0.641080	-3.314839	-0.023840	-0.015942	0.013663	-0.692383	0.401367	0.369629	0.360959	-0.672918	-0.461630	-0.451428
46966		9.179454	-0.669746	-3.512708	-0.057782	-0.024816	0.023469	-0.704102	0.410645	0.363770	0.360564	-0.673329	-0.461262	-0.451508
46967		9.218077	-0.789445	-3.421092	-0.031603	-0.033399	0.021409	-0.698730	0.416992	0.362305	0.360369	-0.673600	-0.461132	-0.451392
46968		9.250719	-0.574628	-3.266539	-0.003537	-0.032694	0.025178	-0.690674	0.407227	0.364990	0.360367	-0.673814	-0.461083	-0.451124
46969		9.332698	-0.436507	-3.234823	-0.060288	-0.026910	0.037604	-0.695557	0.417969	0.375000	0.360045	-0.674274	-0.460660	-0.451125
46970		9.298602	-0.647506	-3.217447	-0.074013	-0.017944	0.045548	-0.692383	0.416016	0.359375	0.359736	-0.674772	-0.460145	-0.451153
46971		9.245484	-0.719083	-3.249455	-0.039628	-0.012417	0.040039	-0.693115	0.411621	0.367920	0.359662	-0.675083	-0.459801	-0.451097
46972		9.215992	-0.640431	-3.327553	-0.074737	-0.011600	0.049085	-0.693848	0.408447	0.363281	0.359383	-0.675556	-0.459240	-0.451184
46973		9.243141	-0.973770	-3.333377	-0.030148	-0.004168	0.037594	-0.695068	0.415771	0.371094	0.359347	-0.675801	-0.458900	-0.451191
46974		9.210420	-0.844482	-3.272884	0.004429	-0.008445	0.031589	-0.690674	0.415039	0.370117	0.359475	-0.675950	-0.458744	-0.451025
46975		9.243867	-0.678903	-3.143052	0.000490	-0.007774	0.030797	-0.686279	0.413818	0.377686	0.359568	-0.676121	-0.458555	-0.450886
46976		9.322296	-0.844503	-3.093932	0.000472	-0.002896	0.024474	-0.697998	0.414307	0.371338	0.359612	-0.676296	-0.458340	-0.450807
46977		9.290306	-0.876892	-3.234279	-0.030431	0.000683	0.022851	-0.689209	0.417725	0.365479	0.359544	-0.676466	-0.458082	-0.450869
46978		9.190337	-1.102518	-3.278512	-0.017458	-0.002370	0.009094	-0.691406	0.414307	0.376221	0.359497	-0.676574	-0.457949	-0.450879
46979		9.237049	-1.080751	-3.235258	0.030746	0.001627	-0.016895	-0.691162	0.417969	0.375244	0.359595	-0.676451	-0.458098	-0.450835
46980		9.285829	-0.931163	-3.140646	0.041858	0.012672	-0.029089	-0.705566	0.415771	0.369385	0.359768	-0.676204	-0.458335	-0.450826
46981		9.306939	-0.788423	-3.224146	-0.006127	0.015390	-0.034430	-0.697998	0.408203	0.370117	0.359708	-0.675987	-0.458489	-0.451043
46982		9.252179	-0.657143	-3.382791	-0.040326	0.017832	-0.032182	-0.689209	0.409668	0.366943	0.359419	-0.675917	-0.458430	-0.451437
46983		9.234976	-0.745570	-3.425967	-0.026009	0.025895	-0.033973	-0.689941	0.415527	0.375732	0.359232	-0.675797	-0.458387	-0.451810
46984		9.290726	-0.841952	-3.353572	0.053957	0.032554	-0.046047	-0.697754	0.409912	0.363525	0.359471	-0.675390	-0.458688	-0.451923
46985		9.321081	-0.622215	-3.099026	0.073922	0.036781	-0.043918	-0.689453	0.413574	0.362793	0.359884	-0.674844	-0.459094	-0.451997
46986		9.313302	-0.575633	-3.093365	0.022515	0.039058	-0.037462	-0.692627	0.417236	0.368408	0.360032	-0.674508	-0.459234	-0.452238
46987		9.271367	-0.793860	-3.179977	0.004401	0.038449	-0.033057	-0.687744	0.411377	0.363037	0.360094	-0.674252	-0.459287	-0.452517
46988		9.243192	-0.835757	-3.157797	0.014625	0.029456	-0.041383	-0.702393	0.415527	0.363281	0.360128	-0.673978	-0.459426	-0.452757
46989		9.275769	-0.627178	-3.193927	-0.007997	0.030925	-0.041045	-0.694824	0.406006	0.369629	0.360093	-0.673702	-0.459550	-0.453069
46990		9.317718	-0.537535	-3.346569	-0.051621	0.041968	-0.036318	-0.700439	0.410156	0.364258	0.359793	-0.673601	-0.459357	-0.453654
46991		9.239174	-0.684994	-3.362831	-0.041899	0.045392	-0.034796	-0.701416	0.406250	0.370117	0.359618	-0.673416	-0.459243	-0.454182
46992		9.199292	-0.686124	-3.198356	-0.007239	0.043504	-0.032366	-0.689453	0.407471	0.364990	0.359605	-0.673167	-0.459220	-0.454586
46993		9.345911	-0.597661	-3.001866	0.008565	0.041993	-0.035813	-0.699463	0.415527	0.364746	0.359653	-0.672901	-0.459246	-0.454914
46994		9.307017	-0.412328	-3.076576	-0.069041	0.045560	-0.018736	-0.701416	0.407227	0.358154	0.359401	-0.672872	-0.458944	-0.455461
46995		9.280174	-0.601137	-3.270412	-0.130415	0.045764	-0.008911	-0.694336	0.407959	0.361328	0.358840	-0.673036	-0.458357	-0.456251
46996		9.179320	-0.698598	-3.657622	-0.122340	0.046364	-0.008433	-0.705811	0.400879	0.360840	0.358306	-0.673218	-0.457759	-0.457003
46997		9.150289	-0.773935	-3.581740	-0.067633	0.049165	-0.007448	-0.698486	0.406006	0.372803	0.358097	-0.673180	-0.457385	-0.457596
46998		9.397799	-1.082278	-2.964805	0.138119	0.056912	-0.040012	-0.699219	0.399902	0.358887	0.358908	-0.672448	-0.457895	-0.457527
46999		9.417846	-0.350581	-2.636914	0.130452	0.056383	-0.032287	-0.694336	0.404785	0.368408	0.359722	-0.671729	-0.458358	-0.457480
47000		9.471633	-0.244323	-2.750568	-0.020405	0.043519	-0.000243	-0.698730	0.405762	0.364746	0.359726	-0.671697	-0.458049	-0.457833
47001		9.265862	-0.842717	-3.136699	-0.039515	0.041587	-0.001372	-0.704834	0.406738	0.360107	0.359639	-0.671692	-0.457716	-0.458242
47002		9.243972	-0.902973	-3.143225	0.067229	0.034839	-0.022624	-0.697754	0.411133	0.354004	0.360080	-0.671267	-0.457981	-0.458254
47003		9.307541	-0.483385	-3.014966	0.054653	0.039353	-0.021822	-0.703369	0.393799	0.354004	0.360487	-0.670877	-0.458180	-0.458306
47004		9.310972	-0.542358	-3.023366	0.010219	0.041902	-0.016364	-0.700928	0.410156	0.362305	0.360619	-0.670620	-0.458133	-0.458624
47005		9.267914	-0.869849	-3.111533	0.008850	0.042486	-0.018069	-0.707275	0.403320	0.356689	0.360762	-0.670397	-0.458093	-0.458878
47006		9.336836	-0.680443	-3.121984	0.046536	0.034961	-0.031163	-0.709717	0.406250	0.367920	0.361046	-0.669996	-0.458321	-0.459014
47007		9.308894	-0.506512	-2.990917	-0.000990	0.033738	-0.020357	-0.698486	0.407227	0.354492	0.361072	-0.669819	-0.458277	-0.459295
47008		9.341636	-0.562150	-3.047102	-0.017817	0.029063	-0.016079	-0.710938	0.402344	0.357666	0.361026	-0.669729	-0.458165	-0.459574
47009		9.371894	-0.468566	-3.147409	-0.031655	0.028162	-0.006347	-0.708252	0.398438	0.352783	0.360940	-0.669680	-0.457977	-0.459901
47010		9.323097	-0.402807	-3.103763	-0.022878	0.028498	-0.000682	-0.709717	0.406494	0.357666	0.360922	-0.669621	-0.457786	-0.460191
47011		9.309260	-0.486914	-2.845735	0.012820	0.035117	-0.001401	-0.700928	0.404541	0.355957	0.361141	-0.669436	-0.457727	-0.460347
47012		9.485339	-0.580460	-2.837734	-0.007579	0.032665	0.010829	-0.700439	0.409668	0.355469	0.361255	-0.669407	-0.457482	-0.460542
47013		9.322025	-0.611493	-3.071262	-0.051825	0.030313	0.020153	-0.703125	0.407715	0.354248	0.361169	-0.669555	-0.457038	-0.460836
47014		9.246886	-0.928710	-3.131640	-0.020702	0.025029	0.009946	-0.706299	0.406494	0.346924	0.361200	-0.669574	-0.456798	-0.461021
47015		9.284643	-1.026865	-2.863925	0.084552	0.024967	-0.012432	-0.705811	0.411377	0.360596	0.361765	-0.669150	-0.457130	-0.460866
47016		9.383386	-0.748541	-2.385701	0.127822	0.016625	-0.026749	-0.705078	0.401611	0.361816	0.362442	-0.668630	-0.457679	-0.460543
47017		9.339345	-0.542846	-2.397395	-0.013992	-0.000626	-0.010974	-0.704102	0.406250	0.363525	0.362273	-0.668685	-0.457595	-0.460680
47018		9.207186	-0.953108	-2.852539	-0.113453	-0.019554	-0.007320	-0.708740	0.400635	0.364746	0.361500	-0.669135	-0.457168	-0.461057
47019		9.249142	-1.303031	-3.135146	-0.020877	-0.030977	-0.044143	-0.704346	0.406250	0.351562	0.361053	-0.669190	-0.457345	-0.461152
47020		9.278840	-1.015291	-2.845478	0.065405	-0.038198	-0.070810	-0.705566	0.403564	0.355957	0.361020	-0.668877	-0.458080	-0.460903
47021		9.430197	-0.593609	-2.734652	0.045763	-0.042145	-0.077020	-0.711426	0.405029	0.363281	0.360816	-0.668627	-0.458764	-0.460745
47022		9.398552	-0.437456	-2.900895	-0.034350	-0.045613	-0.065327	-0.701172	0.404053	0.361572	0.360192	-0.668678	-0.459085	-0.460839
47023		9.248474	-0.493542	-3.169526	-0.037055	-0.049702	-0.060961	-0.712402	0.400635	0.353516	0.359533	-0.668808	-0.459342	-0.460908
47024		9.303373	-0.590132	-3.172156	0.035308	-0.050476	-0.065212	-0.709473	0.395996	0.360107	0.359317	-0.668620	-0.459995	-0.460699
47025		9.326803	-0.469640	-3.117015	0.062290	-0.044798	-0.057990	-0.708252	0.398682	0.358154	0.359254	-0.668396	-0.460640	-0.460429
47026		9.354239	-0.396591	-3.134874	0.048830	-0.042680	-0.047520	-0.702637	0.396240	0.361084	0.359179	-0.668241	-0.461178	-0.460173
47027		9.332192	-0.384706	-3.260235	0.035547	-0.033006	-0.038859	-0.709717	0.403564	0.355713	0.359065	-0.668162	-0.461541	-0.460013
47028		9.217248	-0.462599	-3.340271	0.042754	-0.032434	-0.031085	-0.706055	0.398193	0.357910	0.359089	-0.668032	-0.461967	-0.459756
47029		9.344664	-0.571910	-3.484119	0.038917	-0.024206	-0.022890	-0.708252	0.400879	0.352295	0.359120	-0.667939	-0.462267	-0.459565
47030		9.306414	-0.584404	-3.176434	0.106517	-0.018652	-0.030236	-0.709473	0.400879	0.350586	0.359557	-0.667560	-0.462895	-0.459141
47031		9.248512	-0.319869	-3.090346	0.055570	-0.012650	-0.021474	-0.709229	0.402588	0.357910	0.359774	-0.667334	-0.463272	-0.458919
47032		9.399726	-0.302004	-3.185034	-0.030256	-0.007273	-0.001833	-0.708740	0.403809	0.356689	0.359585	-0.667452	-0.463163	-0.459006
47033		9.328094	-0.715841	-3.109658	0.008677	-0.004593	-0.007290	-0.706055	0.398682	0.363770	0.359611	-0.667418	-0.463234	-0.458963
47034		9.325336	-0.672612	-3.198994	0.015681	-0.007485	-0.009681	-0.711914	0.392578	0.354980	0.359604	-0.667406	-0.463295	-0.458925
47035		9.331154	-0.628501	-3.114833	0.044895	0.006044	-0.012747	-0.718994	0.388184	0.361816	0.359829	-0.667183	-0.463497	-0.458869
47036		9.248183	-0.578142	-3.067538	0.037279	0.007306	-0.016793	-0.708740	0.408691	0.357910	0.359978	-0.666958	-0.463680	-0.458894
47037		9.398442	-0.454358	-3.115884	0.025950	0.002885	-0.009537	-0.708740	0.399170	0.362061	0.360129	-0.666842	-0.463811	-0.458812
47038		9.348218	-0.504068	-3.138931	0.053530	0.010951	-0.009709	-0.710693	0.404785	0.357422	0.360413	-0.666632	-0.463977	-0.458726
47039		9.324663	-0.360222	-3.124995	0.037421	0.009711	0.000036	-0.716064	0.403564	0.360596	0.360680	-0.666486	-0.464074	-0.458630
47040		9.373925	-0.401972	-2.995450	0.040455	0.013174	0.006906	-0.706787	0.395752	0.355469	0.361001	-0.666333	-0.464142	-0.458531
47041		9.350061	-0.501450	-2.950760	0.036795	0.015777	0.013487	-0.708252	0.397217	0.362549	0.361299	-0.666236	-0.464101	-0.458479
47042		9.247058	-0.355864	-2.964175	-0.004561	0.012071	0.024153	-0.701172	0.396484	0.353027	0.361373	-0.666340	-0.463832	-0.458541
47043		9.301700	-0.458470	-3.251408	-0.085773	0.010054	0.034056	-0.702393	0.399414	0.362305	0.361039	-0.666731	-0.463206	-0.458868
47044		9.321763	-0.717559	-3.282073	-0.069445	0.011378	0.032736	-0.707520	0.399414	0.353027	0.360775	-0.667090	-0.462622	-0.459144
47045		9.296360	-0.729299	-3.199740	0.003092	0.012235	0.020081	-0.703613	0.406738	0.360352	0.360924	-0.667113	-0.462457	-0.459159
47046		9.451922	-0.422912	-2.912880	0.014210	0.017428	0.020841	-0.701660	0.406738	0.350342	0.361138	-0.667136	-0.462273	-0.459143
47047		9.411763	-0.346993	-2.757691	-0.031648	0.013552	0.029820	-0.702148	0.403076	0.358154	0.361147	-0.667317	-0.461909	-0.459241
47048		9.314208	-0.511475	-2.981691	-0.121259	0.010598	0.045232	-0.708984	0.401611	0.355469	0.360665	-0.667864	-0.461084	-0.459652
47049		9.254104	-0.776108	-3.223249	-0.087342	0.002406	0.039259	-0.708740	0.406494	0.355469	0.360348	-0.668269	-0.460498	-0.459899
47050		9.283685	-0.871753	-3.230263	0.004833	0.004108	0.018826	-0.702881	0.402344	0.358154	0.360489	-0.668311	-0.460386	-0.459840
47051		9.380855	-0.768963	-2.954106	0.066148	0.008018	0.011688	-0.708252	0.401367	0.359619	0.360918	-0.668164	-0.460485	-0.459618
47052		9.315371	-0.554251	-2.806973	0.037840	0.003682	0.008395	-0.705566	0.401855	0.358887	0.361165	-0.668087	-0.460524	-0.459497
47053		9.359809	-0.436311	-2.900287	-0.051040	0.002381	0.019321	-0.702393	0.398682	0.357178	0.360948	-0.668336	-0.460153	-0.459677
47054		9.244235	-0.635859	-3.059859	-0.074071	-0.005403	0.021022	-0.710205	0.403809	0.349854	0.360568	-0.668696	-0.459695	-0.459909
47055		9.260769	-0.747409	-3.300632	-0.063180	-0.008577	0.018021	-0.699951	0.402588	0.356201	0.360296	-0.668955	-0.459395	-0.460046
47056		9.286554	-0.785947	-3.314540	-0.031409	-0.005767	0.010465	-0.705078	0.406250	0.358887	0.360126	-0.669151	-0.459165	-0.460124
47057		9.483404	-0.730286	-3.000795	0.066050	-0.001945	-0.005665	-0.703857	0.398193	0.351074	0.360469	-0.668963	-0.459411	-0.459883
47058		9.394891	-0.312728	-2.631026	0.044304	-0.006163	-0.003420	-0.702393	0.393799	0.354980	0.360685	-0.668839	-0.459588	-0.459716
47059		9.343246	-0.227230	-2.946171	-0.096211	-0.006284	0.018916	-0.709473	0.399902	0.362549	0.360169	-0.669246	-0.459067	-0.460050
47060		9.226042	-0.884148	-3.187330	-0.129960	-0.005200	0.022740	-0.701416	0.397461	0.351074	0.359497	-0.669757	-0.458410	-0.460487
47061		9.301401	-1.010277	-3.265824	-0.009773	-0.006517	-0.004725	-0.707031	0.401611	0.359863	0.359405	-0.669795	-0.458385	-0.460528
47062		9.338784	-0.449403	-3.196592	0.004138	-0.007421	-0.004994	-0.701904	0.412598	0.351562	0.359380	-0.669804	-0.458412	-0.460507
47063		9.250101	-0.586429	-3.128031	0.025132	-0.001019	-0.002513	-0.703857	0.407227	0.360596	0.359556	-0.669727	-0.458519	-0.460375
47064		9.283779	-0.643831	-3.071090	0.028489	-0.003963	0.005587	-0.707031	0.404053	0.359375	0.359723	-0.669710	-0.458559	-0.460230
47065		9.385025	-0.595699	-3.050878	0.048979	0.001248	0.008666	-0.707520	0.394287	0.368164	0.360041	-0.669603	-0.458661	-0.460036
47066		9.272585	-0.570540	-2.963669	0.054576	-0.007111	0.006780	-0.707031	0.407227	0.360352	0.360288	-0.669534	-0.458762	-0.459841
47067		9.294645	-0.443411	-3.015913	0.011322	-0.007187	0.015069	-0.698486	0.404053	0.363281	0.360388	-0.669603	-0.458706	-0.459718
47068		9.311354	-0.692304	-2.966769	-0.009950	-0.006434	0.017000	-0.699463	0.400879	0.352783	0.360333	-0.669792	-0.458488	-0.459704
47069		9.375825	-0.524262	-3.088736	-0.034694	-0.006106	0.019974	-0.711182	0.410645	0.365234	0.360191	-0.670014	-0.458213	-0.459766
47070		9.373220	-0.548111	-3.212935	-0.077942	-0.003541	0.024346	-0.708740	0.408691	0.360596	0.359845	-0.670369	-0.457759	-0.459971
47071		9.286358	-0.803192	-3.272100	-0.032717	0.003942	0.020541	-0.707031	0.406738	0.356934	0.359776	-0.670533	-0.457488	-0.460055
47072		9.281763	-0.682181	-3.079792	0.028522	0.007732	0.013464	-0.707520	0.404541	0.357910	0.360042	-0.670464	-0.457488	-0.459949
47073		9.374636	-0.511670	-2.822730	0.038394	0.012733	0.015409	-0.701904	0.397705	0.354004	0.360379	-0.670354	-0.457494	-0.459839
47074		9.338961	-0.473730	-2.819899	-0.012639	0.002677	0.021184	-0.699219	0.408203	0.355957	0.360393	-0.670469	-0.457276	-0.459878
47075		9.343192	-0.665412	-3.046461	-0.068994	-0.005004	0.028611	-0.706055	0.402100	0.367676	0.360102	-0.670834	-0.456814	-0.460031
47076		9.259369	-0.822164	-3.286952	-0.074800	0.004826	0.024772	-0.708740	0.406250	0.359863	0.359763	-0.671173	-0.456298	-0.460314
47077		9.255467	-0.909145	-3.282505	-0.001173	0.007800	0.008747	-0.700684	0.400146	0.361572	0.359839	-0.671173	-0.456209	-0.460344
47078		9.304821	-0.658756	-3.088146	0.027460	0.010560	0.006915	-0.702881	0.401123	0.360840	0.360030	-0.671113	-0.456168	-0.460321
47079		9.362611	-0.473945	-3.016193	-0.020908	0.007285	0.015180	-0.705078	0.406982	0.362061	0.359981	-0.671231	-0.455921	-0.460434
47080		9.319760	-0.580570	-2.981807	-0.043256	-0.003741	0.018772	-0.700928	0.407959	0.352539	0.359795	-0.671467	-0.455616	-0.460536
47081		9.307613	-0.717188	-3.083108	-0.027308	-0.005934	0.018244	-0.708008	0.406250	0.360596	0.359718	-0.671641	-0.455410	-0.460546
47082		9.309050	-0.683849	-3.137406	-0.033045	0.000908	0.019748	-0.701172	0.406494	0.356934	0.359627	-0.671808	-0.455153	-0.460628
47083		9.318939	-0.736855	-3.058041	-0.015310	0.006082	0.015292	-0.705078	0.414795	0.363037	0.359633	-0.671902	-0.454955	-0.460683
47084		9.324720	-0.761314	-3.008129	-0.008534	0.001625	0.012558	-0.708496	0.408447	0.363525	0.359659	-0.671990	-0.454815	-0.460672
47085		9.274276	-0.735736	-3.076953	-0.020038	-0.002797	0.011283	-0.699707	0.406982	0.361084	0.359591	-0.672107	-0.454659	-0.460707
47086		9.262547	-0.690125	-3.176476	-0.026328	-0.001685	0.007507	-0.698242	0.406738	0.358398	0.359457	-0.672256	-0.454459	-0.460792
47087		9.297797	-0.760978	-3.105662	0.002655	-0.006832	0.004146	-0.712158	0.397705	0.355957	0.359460	-0.672320	-0.454410	-0.460744
47088		9.289369	-0.717003	-2.989664	0.031451	-0.013511	0.000414	-0.697021	0.401123	0.365723	0.359613	-0.672229	-0.454591	-0.460579
47089		9.347869	-0.678677	-2.975608	0.017245	-0.014853	0.005532	-0.693115	0.400391	0.362793	0.359625	-0.672319	-0.454562	-0.460468
47090		9.274441	-0.709039	-3.039185	0.004475	-0.015653	0.005696	-0.699219	0.404053	0.368652	0.359560	-0.672457	-0.454477	-0.460401
47091		9.280605	-0.715079	-3.148590	0.006359	-0.012414	0.002889	-0.700195	0.410400	0.360352	0.359514	-0.672560	-0.454417	-0.460346
47092		9.295281	-0.712736	-3.164128	0.023507	-0.020505	0.003395	-0.708252	0.407959	0.357178	0.359586	-0.672608	-0.454501	-0.460135
47093		9.320175	-0.581521	-3.099754	0.034458	-0.020680	0.003550	-0.703857	0.409180	0.358398	0.359754	-0.672568	-0.454691	-0.459875
47094		9.304262	-0.569914	-2.986314	0.010998	-0.020135	0.005350	-0.699463	0.406982	0.359619	0.359782	-0.672630	-0.454749	-0.459705
47095		9.318679	-0.682721	-2.968991	0.005303	-0.020825	0.006284	-0.703369	0.405029	0.358887	0.359757	-0.672740	-0.454748	-0.459566
47096		9.297493	-0.695486	-3.096733	-0.027418	-0.017254	0.008949	-0.697510	0.406250	0.361084	0.359583	-0.672918	-0.454623	-0.459564
47097		9.282075	-0.816776	-3.214812	-0.008662	-0.019509	0.005135	-0.687988	0.409668	0.371338	0.359469	-0.673071	-0.454556	-0.459496
47098		9.275577	-0.642233	-3.192871	0.017240	-0.023164	-0.000692	-0.702393	0.408447	0.364502	0.359404	-0.673227	-0.454528	-0.459346
47099		9.324117	-0.572951	-3.004689	0.016210	-0.023264	0.008886	-0.701172	0.409668	0.370117	0.359439	-0.673321	-0.454564	-0.459145
47100		9.350312	-0.617066	-2.922278	0.006041	-0.020726	0.009912	-0.694092	0.412842	0.368652	0.359408	-0.673469	-0.454513	-0.459003
47101		9.309455	-0.625689	-3.071562	-0.029279	-0.019337	0.015950	-0.698486	0.410400	0.366211	0.359197	-0.673770	-0.454257	-0.458981
47102		9.272448	-0.748326	-3.231380	-0.037054	-0.022164	0.015436	-0.701416	0.410156	0.362793	0.358950	-0.674066	-0.454023	-0.458969
47103		9.276829	-0.858035	-3.225530	-0.008626	-0.022131	0.009006	-0.700439	0.402588	0.371582	0.358865	-0.674220	-0.453975	-0.458857
47104		9.302625	-0.775170	-3.093058	0.018534	-0.018481	0.004020	-0.693359	0.413330	0.366211	0.358879	-0.674288	-0.454000	-0.458721
47105		9.325608	-0.609072	-3.038439	0.016709	-0.019454	0.004355	-0.698730	0.413330	0.359131	0.358896	-0.674394	-0.454002	-0.458550
47106		9.309257	-0.604842	-3.106493	-0.019912	-0.017835	0.010146	-0.693848	0.407227	0.364014	0.358780	-0.674568	-0.453899	-0.458487
47107		9.262905	-0.773867	-3.208193	-0.022577	-0.019660	0.012066	-0.696289	0.411377	0.367432	0.358608	-0.674797	-0.453730	-0.458452
47108		9.299245	-0.810771	-3.193102	0.011909	-0.015890	0.005414	-0.699219	0.416504	0.366943	0.358621	-0.674889	-0.453717	-0.458320
47109		9.287579	-0.749524	-3.190981	0.021796	-0.015833	0.002880	-0.699463	0.414795	0.358887	0.358699	-0.674931	-0.453774	-0.458139
47110		9.287457	-0.685269	-3.158206	0.024289	-0.014398	0.004761	-0.697510	0.413818	0.367188	0.358833	-0.674931	-0.453872	-0.457939
47111		9.296341	-0.689519	-3.149577	0.013744	-0.014914	0.005069	-0.700684	0.412109	0.365967	0.358868	-0.675005	-0.453876	-0.457798
47112		9.311851	-0.727259	-3.174611	-0.003528	-0.008702	0.005681	-0.692627	0.406982	0.361084	0.358845	-0.675084	-0.453820	-0.457754
47113		9.279951	-0.821366	-3.189066	0.006547	-0.007117	0.003511	-0.702637	0.403320	0.371094	0.358864	-0.675130	-0.453792	-0.457699
47114		9.265551	-0.791070	-3.230357	0.019639	-0.007815	-0.001865	-0.702637	0.402832	0.372070	0.358924	-0.675103	-0.453858	-0.457627
47115		9.279576	-0.737086	-3.151181	0.034458	-0.008293	-0.002359	-0.696533	0.420898	0.365479	0.359059	-0.675034	-0.453979	-0.457503
47116		9.259491	-0.607022	-3.123759	0.026728	-0.007712	-0.001140	-0.699951	0.408203	0.369141	0.359183	-0.675024	-0.454049	-0.457350
47117		9.283284	-0.652981	-3.156798	0.011963	-0.003831	0.001066	-0.695312	0.408691	0.365234	0.359230	-0.675028	-0.454048	-0.457309
47118		9.287251	-0.788719	-3.172211	0.016157	-0.004462	-0.000526	-0.694580	0.414062	0.368652	0.359292	-0.675024	-0.454066	-0.457248
47119		9.270475	-0.733089	-3.144540	0.028827	-0.005570	0.000293	-0.694824	0.410645	0.369385	0.359415	-0.675016	-0.454105	-0.457126
47120		9.315002	-0.623357	-3.160094	0.014858	-0.003097	0.003382	-0.695068	0.409668	0.367920	0.359474	-0.675047	-0.454065	-0.457072
47121		9.299562	-0.763467	-3.118015	0.016037	-0.001441	0.004993	-0.696289	0.415527	0.365967	0.359557	-0.675065	-0.454027	-0.457017
47122		9.277090	-0.608281	-3.022000	0.029018	-0.008915	0.007002	-0.705322	0.417969	0.364990	0.359708	-0.675079	-0.454059	-0.456847
47123		9.242654	-0.554649	-3.080294	-0.006472	-0.011640	0.016672	-0.692139	0.405029	0.370850	0.359719	-0.675201	-0.453967	-0.456748
47124		9.259388	-0.800832	-3.174565	-0.008149	-0.013336	0.019847	-0.691650	0.419434	0.371094	0.359656	-0.675406	-0.453765	-0.456696
47125		9.287063	-0.782944	-3.218534	0.018859	-0.019888	0.020462	-0.696289	0.410889	0.356201	0.359730	-0.675589	-0.453660	-0.456472
47126		9.269174	-0.587002	-3.300753	0.019281	-0.019442	0.025072	-0.695068	0.417480	0.368408	0.359892	-0.675683	-0.453651	-0.456212
47127		9.212004	-0.766895	-3.333933	0.001391	-0.024939	0.033426	-0.697754	0.414307	0.360107	0.359920	-0.675949	-0.453466	-0.455981
47128		9.204009	-0.873227	-3.274230	0.013042	-0.018648	0.033564	-0.693359	0.408691	0.359375	0.360077	-0.676101	-0.453374	-0.455724
47129		9.285451	-0.976140	-3.093006	0.041335	-0.017954	0.024183	-0.691406	0.414307	0.362549	0.360348	-0.676132	-0.453431	-0.455407
47130		9.325258	-0.850161	-3.061790	0.020887	-0.013620	0.020739	-0.692383	0.413818	0.368408	0.360492	-0.676226	-0.453382	-0.455202
47131		9.232352	-0.937008	-3.159863	-0.023041	-0.007574	0.012614	-0.700928	0.418457	0.368896	0.360363	-0.676414	-0.453170	-0.455236
47132		9.244655	-1.180800	-3.209501	0.001898	-0.009230	-0.007866	-0.686768	0.417480	0.370361	0.360318	-0.676425	-0.453217	-0.455208
47133		9.332061	-1.034484	-3.055602	0.046247	-0.008962	-0.029757	-0.697021	0.411865	0.367920	0.360393	-0.676290	-0.453465	-0.455102
47134		9.336521	-0.766408	-2.918462	0.052949	-0.008216	-0.040321	-0.699463	0.414062	0.366211	0.360505	-0.676023	-0.453876	-0.455001
47135		9.302313	-0.550828	-3.001211	-0.003104	-0.012230	-0.033242	-0.693848	0.408936	0.371582	0.360325	-0.675956	-0.454063	-0.455057
47136		9.292889	-0.606922	-3.190264	-0.030880	-0.011737	-0.024451	-0.695557	0.413086	0.363037	0.359985	-0.676040	-0.454037	-0.455225
47137		9.232636	-0.748159	-3.251257	-0.005193	-0.009442	-0.030220	-0.689453	0.411133	0.378174	0.359817	-0.675985	-0.454186	-0.455292
47138		9.240284	-0.751920	-3.262074	-0.005469	-0.011711	-0.025363	-0.696533	0.403809	0.370117	0.359581	-0.676043	-0.454196	-0.455383
47139		9.276109	-0.820528	-3.353565	-0.021686	-0.004634	-0.028678	-0.696777	0.413818	0.359375	0.359320	-0.676025	-0.454244	-0.455566
47140		9.319753	-0.844575	-3.359768	-0.007098	0.005760	-0.035360	-0.698486	0.415283	0.371826	0.359199	-0.675881	-0.454397	-0.455724
47141		9.298916	-0.796516	-3.227900	0.029584	0.010154	-0.043521	-0.698242	0.414062	0.363525	0.359227	-0.675627	-0.454657	-0.455819
47142		9.298681	-0.698928	-3.122735	0.026534	0.015058	-0.044209	-0.697754	0.408936	0.368896	0.359282	-0.675329	-0.454937	-0.455937
47143		9.295369	-0.759026	-3.111018	-0.005147	0.013474	-0.043149	-0.695068	0.413818	0.372314	0.359132	-0.675152	-0.455066	-0.456189
47144		9.302685	-0.754398	-3.054167	0.003340	0.017881	-0.047132	-0.701172	0.412842	0.368652	0.359009	-0.674959	-0.455189	-0.456448
47145		9.276683	-0.638803	-3.102958	-0.012009	0.015989	-0.050174	-0.690186	0.414062	0.369141	0.358811	-0.674766	-0.455330	-0.456749
47146		9.232937	-0.790605	-3.276135	-0.034947	0.019953	-0.051319	-0.698242	0.414062	0.361572	0.358457	-0.674684	-0.455302	-0.457175
47147		9.242548	-0.961959	-3.361348	-0.020425	0.018710	-0.055079	-0.703125	0.402344	0.368652	0.358216	-0.674486	-0.455440	-0.457520
47148		9.293569	-0.717170	-3.270038	0.039696	0.021928	-0.070792	-0.698242	0.405029	0.369873	0.358255	-0.674012	-0.455897	-0.457733
47149		9.323263	-0.568841	-3.180074	0.028690	0.024743	-0.063965	-0.697998	0.407471	0.372314	0.358243	-0.673628	-0.456215	-0.457989
47150		9.267686	-0.661155	-3.205447	0.004253	0.029646	-0.057389	-0.704346	0.407227	0.365723	0.358125	-0.673348	-0.456361	-0.458349
47151		9.266710	-0.756283	-3.038815	0.048144	0.033985	-0.063415	-0.712646	0.408936	0.364502	0.358288	-0.672844	-0.456764	-0.458559
47152		9.285251	-0.624248	-3.061097	0.034136	0.032987	-0.062043	-0.702393	0.401367	0.364746	0.358399	-0.672359	-0.457152	-0.458798
47153		9.387821	-0.639839	-3.252383	-0.033410	0.038094	-0.050794	-0.715332	0.405518	0.362793	0.358157	-0.672134	-0.457150	-0.459318
47154		9.363152	-0.871214	-3.311824	0.031091	0.049955	-0.067164	-0.693848	0.406982	0.366699	0.358304	-0.671557	-0.457522	-0.459678
47155		9.306101	-0.606636	-3.092501	0.097973	0.059171	-0.078141	-0.700928	0.404297	0.361816	0.358732	-0.670831	-0.458025	-0.459903
47156		9.302080	-0.311754	-2.996031	0.068019	0.052782	-0.065900	-0.702637	0.398926	0.360596	0.359046	-0.670216	-0.458422	-0.460159
47157		9.323191	-0.260431	-3.035360	-0.028910	0.050290	-0.042921	-0.707275	0.413574	0.360352	0.358901	-0.669969	-0.458345	-0.460708
47158		9.384209	-0.629971	-3.178220	-0.035829	0.052822	-0.039124	-0.702148	0.406250	0.357910	0.358751	-0.669771	-0.458199	-0.461256
47159		9.258892	-0.587867	-3.245789	0.014007	0.059603	-0.045689	-0.699463	0.405518	0.361084	0.358871	-0.669374	-0.458254	-0.461686
47160		9.312996	-0.485962	-3.183013	-0.009935	0.055799	-0.037860	-0.708496	0.399902	0.353760	0.358847	-0.669122	-0.458145	-0.462176
47161		9.328966	-0.701485	-3.270751	-0.001155	0.058842	-0.036151	-0.710449	0.396973	0.353760	0.358944	-0.668757	-0.458151	-0.462624
47162		9.307709	-0.680247	-3.155587	0.073251	0.060905	-0.049179	-0.711914	0.400391	0.359375	0.359415	-0.668100	-0.458522	-0.462840
47163		9.318222	-0.405740	-3.076351	0.089123	0.065302	-0.042568	-0.698975	0.404541	0.360107	0.359993	-0.667437	-0.458862	-0.463011
47164		9.351658	-0.458774	-2.964357	0.097955	0.062349	-0.038676	-0.713135	0.396973	0.350830	0.360574	-0.666855	-0.459124	-0.463137
47165		9.293625	-0.401750	-2.749953	0.088764	0.056317	-0.030292	-0.718994	0.406738	0.361328	0.361185	-0.666239	-0.459462	-0.463212
47166		9.442732	-0.225763	-2.599864	0.058818	0.047953	-0.019370	-0.716553	0.407959	0.361816	0.361609	-0.665838	-0.459590	-0.463332
47167		9.369846	-0.250441	-2.590701	-0.002313	0.038961	0.000386	-0.714600	0.402100	0.348389	0.361722	-0.665752	-0.459372	-0.463583
47168		9.395873	-0.439012	-2.822131	-0.053158	0.028964	0.010977	-0.711914	0.401367	0.354736	0.361596	-0.665843	-0.458997	-0.463921
47169		9.318656	-0.591352	-3.135070	-0.079011	0.024129	0.019136	-0.708252	0.401611	0.355225	0.361310	-0.666095	-0.458448	-0.464326
47170		9.343167	-0.651024	-3.006705	-0.015937	0.017955	0.004766	-0.707764	0.398438	0.344482	0.361283	-0.666144	-0.458218	-0.464502
47171		9.411716	-0.299737	-2.856134	-0.022278	0.020953	0.010790	-0.708984	0.394531	0.350098	0.361292	-0.666178	-0.457979	-0.464682
47172		9.428693	-0.196204	-2.886166	-0.088852	0.021839	0.032573	-0.712646	0.398193	0.355469	0.361007	-0.666493	-0.457353	-0.465069
47173		9.311689	-0.523233	-3.100582	-0.130232	0.028616	0.046653	-0.715820	0.405273	0.348389	0.360564	-0.666973	-0.456451	-0.465611
47174		9.268240	-0.984632	-3.052838	-0.052690	0.019018	0.031243	-0.713379	0.389160	0.348389	0.360484	-0.667181	-0.455993	-0.465824
47175		9.401994	-1.026828	-2.819247	0.060602	0.021186	0.008704	-0.711914	0.397949	0.352051	0.360960	-0.666909	-0.456138	-0.465702
47176		9.444716	-0.691163	-2.487140	0.082738	0.017564	-0.003547	-0.705811	0.405762	0.350586	0.361472	-0.666589	-0.456388	-0.465518
47177		9.435940	-0.617908	-2.441692	0.007631	0.007395	-0.002098	-0.711914	0.406982	0.352295	0.361513	-0.666590	-0.456311	-0.465559
47178		9.299411	-0.718927	-2.618047	-0.041413	-0.002805	-0.004710	-0.713135	0.395508	0.356934	0.361243	-0.666753	-0.456109	-0.465734
47179		9.263860	-0.859605	-2.736372	-0.051101	-0.013971	-0.015318	-0.718994	0.402832	0.351807	0.360834	-0.666919	-0.455988	-0.465933
47180		9.281068	-0.789891	-2.782704	-0.033986	-0.029607	-0.032222	-0.715576	0.396729	0.355957	0.360424	-0.667011	-0.456104	-0.466005
47181		9.358739	-0.707334	-3.000822	-0.045756	-0.034955	-0.036713	-0.707275	0.391846	0.361084	0.359893	-0.667151	-0.456199	-0.466121
47182		9.363669	-0.738967	-3.060566	-0.045003	-0.040195	-0.044594	-0.706299	0.390869	0.350342	0.359278	-0.667319	-0.456303	-0.466254
47183		9.321004	-0.864459	-2.958406	0.024951	-0.039414	-0.063167	-0.717041	0.391846	0.355225	0.359018	-0.667167	-0.456827	-0.466157
47184		9.389433	-0.519192	-2.799524	0.050926	-0.038668	-0.070156	-0.703125	0.389404	0.354492	0.358895	-0.666881	-0.457523	-0.465980
47185		9.392301	-0.363311	-2.839709	0.005813	-0.043840	-0.061849	-0.705566	0.399414	0.355225	0.358492	-0.666839	-0.457938	-0.465943
47186		9.239436	-0.426308	-3.063599	-0.045191	-0.043713	-0.043892	-0.714600	0.397705	0.354736	0.357875	-0.667042	-0.458030	-0.466036
47187		9.326851	-0.585462	-3.242673	-0.007405	-0.038705	-0.050641	-0.710693	0.388916	0.346924	0.357494	-0.667037	-0.458354	-0.466017
47188		9.343913	-0.480057	-3.343950	0.050884	-0.028637	-0.052878	-0.718750	0.387939	0.353271	0.357489	-0.666771	-0.458933	-0.465831
47189		9.387363	-0.405768	-3.274333	0.062110	-0.023284	-0.043621	-0.711914	0.397217	0.354248	0.357605	-0.666471	-0.459507	-0.465606
47190		9.402795	-0.383082	-3.088587	0.079213	-0.013008	-0.038908	-0.698730	0.393066	0.357666	0.357843	-0.666164	-0.460012	-0.465364
47191		9.348370	-0.386529	-2.943366	0.075644	-0.011947	-0.035116	-0.705078	0.401123	0.359131	0.358028	-0.665940	-0.460397	-0.465160
47192		9.328709	-0.326203	-3.015625	0.034299	-0.010293	-0.025289	-0.712158	0.391846	0.351318	0.358035	-0.665875	-0.460563	-0.465084
47193		9.298120	-0.468945	-3.176599	-0.000200	-0.009615	-0.016477	-0.717285	0.390381	0.356934	0.357943	-0.665853	-0.460654	-0.465097
47194		9.308772	-0.741716	-3.180728	0.018742	-0.010166	-0.028501	-0.720703	0.398926	0.355713	0.357906	-0.665720	-0.460898	-0.465073
47195		9.359500	-0.690863	-3.058470	0.079562	-0.002702	-0.036368	-0.708984	0.392822	0.346924	0.358211	-0.665358	-0.461390	-0.464869
47196		9.316185	-0.309750	-2.867995	0.092635	0.002085	-0.038802	-0.718506	0.395020	0.352539	0.358592	-0.664935	-0.461920	-0.464654
47197		9.415605	-0.162569	-3.148085	-0.029790	0.001438	-0.014257	-0.709717	0.391846	0.356201	0.358394	-0.664960	-0.461861	-0.464830
47198		9.490862	-0.494024	-3.156488	-0.008685	0.019085	-0.012086	-0.717529	0.393066	0.350342	0.358352	-0.664905	-0.461764	-0.465037
47199		9.489271	-0.530963	-2.760060	0.086542	0.025235	-0.023564	-0.709961	0.386475	0.352051	0.358858	-0.664447	-0.462144	-0.464923
47200		9.416461	0.026400	-2.469243	0.030200	0.010533	-0.003623	-0.717773	0.398926	0.350586	0.359044	-0.664315	-0.462207	-0.464906
47201		9.233744	0.234802	-2.898956	-0.193312	0.022586	0.037816	-0.715820	0.387451	0.351562	0.358219	-0.664964	-0.461141	-0.465672
47202		8.933217	-0.571662	-3.851206	-0.366472	0.023309	0.063234	-0.713135	0.397705	0.352783	0.356534	-0.666195	-0.459286	-0.467038
47203		9.010018	-1.568542	-4.473579	-0.210185	0.024795	0.028945	-0.707520	0.393066	0.350342	0.355577	-0.666863	-0.458175	-0.467904
47204		9.518786	-1.361279	-3.708500	0.162027	0.054337	-0.039918	-0.702881	0.386963	0.356445	0.356529	-0.666049	-0.458808	-0.467718
47205		9.536767	-0.226494	-2.436121	0.252783	0.069310	-0.051985	-0.713135	0.394287	0.347900	0.357957	-0.664888	-0.459778	-0.467328
47206		9.525184	0.302551	-2.054756	0.046068	0.064014	-0.011567	-0.707031	0.396240	0.354004	0.358419	-0.664474	-0.459788	-0.467552
47207		9.475749	-0.095851	-2.669086	-0.122908	0.047182	0.020801	-0.721680	0.391846	0.344238	0.357964	-0.664814	-0.458937	-0.468254
47208		9.329231	-0.506212	-3.340853	-0.061297	0.041613	0.017102	-0.714111	0.389893	0.353760	0.357891	-0.664865	-0.458497	-0.468667
47209		9.345057	-0.615934	-3.464791	0.102252	0.047649	0.006331	-0.719727	0.396484	0.346436	0.358653	-0.664424	-0.458664	-0.468546
47210		9.405601	-0.367456	-2.865017	0.248217	0.057737	-0.000669	-0.716064	0.395264	0.336670	0.360264	-0.663454	-0.459441	-0.467923
47211		9.478215	-0.127961	-2.220969	0.206937	0.045471	0.014378	-0.719482	0.398682	0.348633	0.361672	-0.662696	-0.460026	-0.467337
47212		9.443958	-0.063676	-2.170657	0.012137	0.024888	0.045801	-0.721436	0.391602	0.339111	0.362010	-0.662762	-0.459695	-0.467307
47213		9.317066	-0.439987	-2.576608	-0.125230	0.012320	0.055378	-0.718262	0.399414	0.342041	0.361616	-0.663265	-0.458884	-0.467694
47214		9.238549	-0.812393	-3.108396	-0.158880	0.003528	0.048775	-0.710938	0.400391	0.344238	0.360958	-0.663922	-0.457954	-0.468183
47215		9.328102	-0.936240	-3.153355	-0.048734	-0.004486	0.022080	-0.710693	0.390869	0.350098	0.360751	-0.664213	-0.457580	-0.468295
47216		9.473760	-0.451918	-2.835713	0.033262	-0.004821	0.013114	-0.713623	0.396729	0.346436	0.360947	-0.664214	-0.457587	-0.468135
47217		9.544556	0.204484	-2.458892	-0.010425	-0.011264	0.034525	-0.719238	0.393066	0.347656	0.360978	-0.664446	-0.457335	-0.468029
47218		9.316966	0.034032	-2.666419	-0.165834	-0.008333	0.080281	-0.708496	0.405029	0.347412	0.360352	-0.665274	-0.456254	-0.468391
47219		9.302878	-0.683230	-2.992962	-0.160759	-0.012168	0.080515	-0.714600	0.405273	0.355225	0.359712	-0.666173	-0.455115	-0.468712
47220		9.423103	-0.926197	-3.051276	-0.058790	-0.006974	0.067201	-0.708496	0.415527	0.351318	0.359603	-0.666689	-0.454441	-0.468716
47221		9.497969	-0.657691	-2.945810	-0.014973	-0.004635	0.055549	-0.713379	0.399658	0.344727	0.359693	-0.667061	-0.453944	-0.468600
47222		9.321678	-0.670081	-2.912629	-0.043980	-0.011518	0.050942	-0.711914	0.395996	0.357178	0.359619	-0.667436	-0.453490	-0.468562
47223		9.351661	-0.766176	-3.019110	-0.032279	-0.003606	0.042997	-0.713623	0.401611	0.356689	0.359575	-0.667740	-0.453075	-0.468563
47224		9.255044	-0.828571	-2.888694	0.036253	-0.015117	0.021738	-0.716309	0.391602	0.353516	0.359790	-0.667811	-0.453071	-0.468302
47225		9.273447	-0.760184	-3.010588	0.026354	-0.007413	0.012423	-0.711914	0.406494	0.350098	0.359968	-0.667789	-0.453127	-0.468142
47226		9.332165	-1.032559	-3.117284	0.027838	0.004755	-0.004100	-0.709473	0.400635	0.350342	0.360122	-0.667710	-0.453171	-0.468093
47227		9.343004	-1.200898	-3.217198	0.124511	0.005182	-0.029978	-0.710938	0.399170	0.346924	0.360710	-0.667233	-0.453745	-0.467764
47228		9.327244	-0.603949	-2.962335	0.195956	-0.009265	-0.038457	-0.712891	0.403564	0.352051	0.361620	-0.666546	-0.454710	-0.467104
47229		9.318669	-0.113711	-2.797593	0.131566	0.005839	-0.019985	-0.720947	0.407471	0.350586	0.362284	-0.666086	-0.455249	-0.466720
47230		9.369633	-0.232193	-2.884315	0.035715	-0.004698	0.002255	-0.713867	0.401855	0.345459	0.362482	-0.666018	-0.455350	-0.466564
47231		9.367613	-0.634229	-3.000308	0.036901	-0.008576	0.013178	-0.711914	0.397949	0.341553	0.362715	-0.665998	-0.455412	-0.466352
47232		9.355930	-0.713864	-3.183964	0.053337	-0.014731	0.011437	-0.714600	0.397705	0.346680	0.363017	-0.665928	-0.455587	-0.466047
47233		9.337190	-0.735871	-3.112564	0.071613	-0.000668	0.006721	-0.709717	0.398193	0.349121	0.363448	-0.665731	-0.455817	-0.465767
47234		9.345209	-0.632644	-2.743592	0.094235	-0.001580	-0.003446	-0.713135	0.405518	0.344238	0.363941	-0.665457	-0.456160	-0.465436
47235		9.435775	-0.315127	-2.643440	0.073110	0.001041	0.005848	-0.713135	0.405762	0.345703	0.364380	-0.665269	-0.456365	-0.465162
47236		9.459141	-0.275587	-2.734620	-0.024170	-0.000987	0.023287	-0.708252	0.403320	0.348145	0.364333	-0.665455	-0.456096	-0.465195
47237		9.352385	-0.600930	-3.017750	-0.057136	-0.000334	0.029879	-0.708984	0.400391	0.350830	0.364115	-0.665781	-0.455641	-0.465347
47238		9.356107	-0.657621	-3.011735	-0.011236	0.005604	0.022228	-0.702637	0.405518	0.347656	0.364143	-0.665907	-0.455398	-0.465381
47239		9.345437	-0.666539	-2.844879	-0.011222	0.008198	0.018278	-0.717285	0.407715	0.346924	0.364155	-0.666041	-0.455127	-0.465446
47240		9.375141	-0.693426	-2.914038	-0.048817	0.009336	0.020357	-0.708008	0.394287	0.343994	0.364008	-0.666237	-0.454764	-0.465634
47241		9.327452	-0.755967	-3.020739	-0.069586	0.013399	0.019106	-0.708008	0.410889	0.348145	0.363752	-0.666459	-0.454336	-0.465935
47242		9.334075	-0.751170	-2.944906	-0.028425	0.014119	0.007846	-0.710205	0.404541	0.346191	0.363661	-0.666577	-0.454044	-0.466122
47243		9.367488	-0.664283	-2.896159	-0.039305	0.012665	0.004912	-0.716309	0.401367	0.342529	0.363508	-0.666688	-0.453774	-0.466346
47244		9.381573	-0.645687	-2.922740	-0.035692	0.012402	0.006717	-0.712646	0.408936	0.354980	0.363410	-0.666749	-0.453566	-0.466537
47245		9.370859	-0.723447	-2.907509	-0.015040	0.005625	0.003425	-0.710693	0.402100	0.348877	0.363339	-0.666837	-0.453387	-0.466641
47246		9.341331	-0.697196	-2.935557	0.002837	-0.005243	0.004602	-0.706299	0.405029	0.342285	0.363347	-0.666886	-0.453341	-0.466610
47247		9.329985	-0.584939	-2.785920	0.033134	-0.004704	0.003136	-0.707764	0.400635	0.356201	0.363525	-0.666844	-0.453404	-0.466469
47248		9.384874	-0.585337	-2.736438	0.013478	-0.008389	0.004074	-0.712891	0.410400	0.346680	0.363552	-0.666896	-0.453383	-0.466394
47249		9.368038	-0.687696	-2.900914	-0.016081	-0.009150	0.010642	-0.708252	0.406982	0.347168	0.363469	-0.667052	-0.453225	-0.466390
47250		9.302856	-0.806619	-3.045912	-0.002604	-0.005967	0.003136	-0.713623	0.403320	0.354492	0.363435	-0.667132	-0.453143	-0.466381
47251		9.329218	-0.726687	-2.976040	0.026243	-0.011356	-0.004838	-0.706055	0.404785	0.345947	0.363508	-0.667101	-0.453258	-0.466257
47252		9.387848	-0.589715	-2.687535	0.031103	-0.014886	-0.005861	-0.707520	0.400146	0.347168	0.363592	-0.667077	-0.453387	-0.466100
47253		9.396919	-0.398456	-2.641336	-0.010374	-0.016066	0.000731	-0.709961	0.399170	0.343994	0.363472	-0.667189	-0.453350	-0.466070
47254		9.362590	-0.508566	-2.814038	-0.068512	-0.018260	0.009528	-0.713135	0.406250	0.349365	0.363072	-0.667495	-0.453072	-0.466213
47255		9.314780	-0.726968	-3.116102	-0.067934	-0.023435	0.012563	-0.711914	0.406494	0.350586	0.362656	-0.667856	-0.452763	-0.466320
47256		9.323788	-0.748151	-3.114273	-0.025567	-0.025178	0.004108	-0.705078	0.406738	0.344727	0.362432	-0.668071	-0.452663	-0.466284
47257		9.360442	-0.663918	-3.016222	0.002441	-0.021170	0.002771	-0.705811	0.398926	0.354004	0.362373	-0.668191	-0.452649	-0.466171
47258		9.396523	-0.560358	-2.912895	0.002336	-0.019646	0.005529	-0.699951	0.402100	0.342285	0.362315	-0.668310	-0.452629	-0.466065
47259		9.355608	-0.632853	-2.934601	-0.015059	-0.019616	0.008265	-0.709961	0.399902	0.351807	0.362186	-0.668492	-0.452519	-0.466011
47260		9.326125	-0.674879	-2.901687	-0.018163	-0.024172	0.008076	-0.706055	0.411865	0.355713	0.362025	-0.668677	-0.452448	-0.465940
47261		9.365016	-0.696110	-2.945782	-0.016175	-0.028475	0.004705	-0.705566	0.412598	0.351807	0.361815	-0.668926	-0.452327	-0.465862
47262		9.372575	-0.724235	-2.963964	-0.017942	-0.027215	0.002542	-0.716553	0.406006	0.354492	0.361602	-0.669161	-0.452215	-0.465800
47263		9.344972	-0.703210	-3.059145	-0.007970	-0.021058	-0.002233	-0.709717	0.406006	0.357910	0.361479	-0.669259	-0.452237	-0.465732
47264		9.300814	-0.693524	-3.062411	-0.007006	-0.024334	-0.002669	-0.709961	0.405029	0.348389	0.361322	-0.669402	-0.452228	-0.465658
47265		9.326139	-0.713425	-2.974801	0.013135	-0.022881	-0.005947	-0.711182	0.407715	0.355957	0.361298	-0.669434	-0.452350	-0.465512
47266		9.368572	-0.575219	-2.969861	0.008838	-0.027945	-0.003556	-0.706299	0.407715	0.352783	0.361221	-0.669533	-0.452426	-0.465355
47267		9.330154	-0.634485	-2.953150	-0.011859	-0.026821	0.000608	-0.706299	0.403809	0.346680	0.361046	-0.669715	-0.452381	-0.465273
47268		9.334901	-0.748951	-2.965949	0.008044	-0.026546	-0.004468	-0.704590	0.398438	0.358398	0.360985	-0.669784	-0.452482	-0.465123
47269		9.324819	-0.692414	-3.029813	0.017434	-0.023831	-0.006125	-0.700439	0.404297	0.357422	0.360953	-0.669825	-0.452605	-0.464969
47270		9.333973	-0.640298	-3.072002	0.018002	-0.026407	-0.007017	-0.709961	0.406006	0.355469	0.360895	-0.669907	-0.452693	-0.464810
47271		9.326172	-0.672153	-3.076068	0.026932	-0.022636	-0.010560	-0.707520	0.404297	0.354004	0.360918	-0.669894	-0.452875	-0.464633
47272		9.350318	-0.624064	-3.052396	0.023286	-0.021200	-0.008174	-0.708008	0.404785	0.360352	0.360935	-0.669895	-0.453027	-0.464471
47273		9.322833	-0.705939	-3.027916	0.036909	-0.019080	-0.011437	-0.707275	0.401611	0.350098	0.361008	-0.669850	-0.453225	-0.464286
47274		9.344123	-0.624356	-3.014019	0.056675	-0.019519	-0.011295	-0.706299	0.404297	0.350342	0.361220	-0.669710	-0.453546	-0.464010
47275		9.345269	-0.472423	-2.987982	0.039764	-0.017129	-0.004937	-0.704346	0.404297	0.357910	0.361364	-0.669650	-0.453740	-0.463795
47276		9.305822	-0.492809	-2.960136	0.019054	-0.022027	0.001532	-0.702637	0.411377	0.353027	0.361374	-0.669723	-0.453798	-0.463624
47277		9.302931	-0.675182	-2.917642	0.027722	-0.020865	0.004311	-0.707520	0.408691	0.355957	0.361448	-0.669796	-0.453841	-0.463419
47278		9.328259	-0.642153	-2.977467	0.039525	-0.025747	0.003624	-0.716309	0.409424	0.353760	0.361575	-0.669825	-0.453982	-0.463139
47279		9.371191	-0.665940	-3.065026	0.009351	-0.026991	0.008126	-0.703857	0.407959	0.351074	0.361576	-0.669926	-0.454039	-0.462936
47280		9.297823	-1.005491	-3.229654	0.037376	-0.028390	-0.004877	-0.707031	0.404541	0.351562	0.361656	-0.669934	-0.454233	-0.462672
47281		9.291325	-0.847235	-3.098371	0.086663	-0.033724	-0.010743	-0.707764	0.406250	0.352051	0.361980	-0.669765	-0.454702	-0.462202
47282		9.344974	-0.501922	-2.846717	0.089097	-0.038723	-0.013721	-0.702637	0.412598	0.350830	0.362287	-0.669600	-0.455207	-0.461703
47283		9.332361	-0.535202	-2.808662	0.053432	-0.039515	-0.006408	-0.705322	0.410156	0.349854	0.362402	-0.669613	-0.455481	-0.461324
47284		9.349010	-0.613868	-2.846048	0.024687	-0.041661	0.001300	-0.706055	0.408447	0.354736	0.362390	-0.669726	-0.455640	-0.461012
47285		9.335430	-0.538109	-3.006854	-0.015892	-0.042350	0.008063	-0.697266	0.416260	0.351807	0.362169	-0.669990	-0.455609	-0.460832
47286		9.266968	-0.638197	-3.053260	-0.043726	-0.047419	0.013927	-0.696533	0.400879	0.352539	0.361774	-0.670434	-0.455378	-0.460726
47287		9.313234	-0.902186	-3.155207	0.002225	-0.043064	0.003168	-0.701904	0.404785	0.355957	0.361631	-0.670623	-0.455453	-0.460489
47288		9.380834	-0.697642	-3.025421	0.039084	-0.040588	-0.002665	-0.701660	0.413086	0.353516	0.361682	-0.670670	-0.455694	-0.460142
47289		9.321719	-0.520255	-2.985628	0.017162	-0.043382	0.002578	-0.709229	0.412109	0.353516	0.361616	-0.670838	-0.455793	-0.459851
47290		9.281578	-0.639848	-3.180051	-0.019080	-0.038171	0.012592	-0.703613	0.412354	0.360596	0.361426	-0.671097	-0.455730	-0.459685
47291		9.315869	-0.896310	-3.227436	0.037875	-0.033896	0.001814	-0.707031	0.406006	0.352783	0.361501	-0.671166	-0.455884	-0.459373
47292		9.264927	-0.615568	-3.133190	0.081972	-0.037591	0.000265	-0.704834	0.406494	0.358887	0.361840	-0.671048	-0.456308	-0.458857
47293		9.354063	-0.504988	-3.018894	0.071572	-0.033253	0.002675	-0.705078	0.411865	0.354736	0.362126	-0.670978	-0.456635	-0.458408
47294		9.301508	-0.711687	-3.215097	0.019605	-0.024083	0.009973	-0.702637	0.414062	0.360107	0.362190	-0.671063	-0.456684	-0.458184
47295		9.252192	-0.951491	-3.399691	0.034447	-0.022674	-0.000217	-0.705811	0.413330	0.358643	0.362281	-0.671090	-0.456805	-0.457953
47296		9.214892	-1.079331	-3.412517	0.076259	-0.017898	-0.020435	-0.705811	0.417236	0.355225	0.362561	-0.670874	-0.457210	-0.457643
47297		9.227346	-1.009169	-3.492367	0.089669	-0.015598	-0.033796	-0.698242	0.413574	0.362793	0.362875	-0.670564	-0.457725	-0.457333
47298		9.286167	-1.020725	-3.427986	0.112355	-0.005274	-0.045964	-0.699707	0.408691	0.362061	0.363277	-0.670134	-0.458320	-0.457048
47299		9.282351	-0.630147	-3.171388	0.145233	-0.000286	-0.051552	-0.698242	0.406250	0.354492	0.363870	-0.669539	-0.459091	-0.456675
47300		9.414636	-0.299073	-2.710927	0.157959	0.001893	-0.045479	-0.703369	0.411621	0.352295	0.364581	-0.668897	-0.459895	-0.456238
47301		9.432510	-0.048509	-2.642016	0.082486	0.003822	-0.015527	-0.709229	0.406494	0.353516	0.364999	-0.668591	-0.460239	-0.456007
47302		9.339162	-0.253087	-2.752273	-0.005203	-0.005665	0.015031	-0.705566	0.416504	0.353760	0.365024	-0.668665	-0.460162	-0.455955
47303		9.307732	-0.717855	-2.826212	-0.010911	-0.012391	0.018367	-0.700928	0.413574	0.349121	0.364982	-0.668849	-0.459991	-0.455893
47304		9.323222	-0.490234	-2.863346	-0.010622	-0.017176	0.022425	-0.709229	0.419678	0.353516	0.364944	-0.669057	-0.459821	-0.455788
47305		9.302441	-0.288054	-2.933717	-0.135727	-0.027961	0.044859	-0.696045	0.415771	0.351562	0.364253	-0.669774	-0.459082	-0.456033
47306		9.235245	-0.643748	-3.264489	-0.224178	-0.032605	0.055130	-0.700195	0.408203	0.354248	0.363073	-0.670840	-0.457928	-0.456567
47307		9.327701	-0.960768	-3.437261	-0.225660	-0.020022	0.051028	-0.695068	0.415039	0.361328	0.361935	-0.671800	-0.456812	-0.457176
47308		9.328572	-0.897473	-3.232603	-0.113679	-0.012118	0.030193	-0.703857	0.409668	0.351318	0.361339	-0.672372	-0.456133	-0.457485
47309		9.361459	-0.341086	-3.099596	-0.140928	0.000300	0.038302	-0.703613	0.414551	0.366455	0.360723	-0.672927	-0.455376	-0.457910
47310		9.297627	-0.586288	-3.190371	-0.216193	0.006949	0.052971	-0.694580	0.419922	0.359131	0.359722	-0.673793	-0.454154	-0.458636
47311		9.261461	-1.102118	-3.482829	-0.175374	0.008331	0.040572	-0.703613	0.413818	0.361572	0.358901	-0.674516	-0.453103	-0.459256
47312		9.250980	-1.081696	-3.651003	-0.110533	0.019581	0.026534	-0.706543	0.411621	0.365723	0.358457	-0.674896	-0.452417	-0.459720
47313		9.197766	-1.249403	-3.612281	-0.017849	0.035034	-0.001274	-0.704834	0.409180	0.363525	0.358487	-0.674825	-0.452212	-0.460004
47314		9.257693	-1.221880	-3.532597	0.063544	0.040069	-0.019473	-0.698486	0.409424	0.368652	0.358928	-0.674415	-0.452416	-0.460060
47315		9.256353	-1.077275	-3.328858	0.171013	0.051416	-0.045780	-0.702148	0.406494	0.355957	0.359885	-0.673580	-0.453094	-0.459868
47316		9.264986	-0.708251	-2.988391	0.217292	0.050112	-0.058414	-0.707275	0.417969	0.360840	0.361086	-0.672509	-0.454091	-0.459509
47317		9.368148	-0.417140	-2.513462	0.181986	0.044085	-0.054206	-0.697266	0.410889	0.350830	0.362058	-0.671626	-0.454886	-0.459251
47318		9.432304	-0.521624	-2.542608	0.079831	0.039633	-0.041024	-0.696289	0.414795	0.349609	0.362499	-0.671105	-0.455243	-0.459310
47319		9.347522	-0.520050	-2.877893	0.014053	0.032299	-0.031836	-0.698730	0.408203	0.346924	0.362571	-0.670866	-0.455291	-0.459556
47320		9.225963	-0.562696	-3.349659	-0.054117	0.028765	-0.023899	-0.701904	0.406494	0.351562	0.362298	-0.670838	-0.455096	-0.460005
47321		9.216021	-0.708407	-3.383226	0.001336	0.027273	-0.030324	-0.707275	0.407959	0.359131	0.362302	-0.670620	-0.455160	-0.460256
47322		9.325048	-0.412980	-3.241292	0.046561	0.032499	-0.028327	-0.702148	0.408936	0.356445	0.362574	-0.670263	-0.455360	-0.460364
47323		9.357881	-0.237746	-2.912686	0.012707	0.032132	-0.007466	-0.699463	0.408203	0.350342	0.362728	-0.670106	-0.455291	-0.460539
47324		9.395820	-0.292151	-2.750903	-0.017455	0.035975	0.010140	-0.705566	0.408691	0.364746	0.362805	-0.670085	-0.455004	-0.460793
47325		9.423238	-0.312090	-2.752861	-0.080979	0.031758	0.034762	-0.703613	0.408203	0.362549	0.362581	-0.670384	-0.454327	-0.461202
47326		9.396148	-0.373696	-3.151871	-0.127616	0.038705	0.051044	-0.710205	0.408691	0.354248	0.362187	-0.670857	-0.453359	-0.461776
47327		9.299435	-0.660904	-3.451154	-0.138254	0.040816	0.058257	-0.703857	0.414551	0.359619	0.361803	-0.671336	-0.452359	-0.462361
47328		9.211960	-1.092382	-3.487764	-0.066332	0.050787	0.044767	-0.699707	0.412842	0.359619	0.361773	-0.671566	-0.451604	-0.462789
47329		9.344681	-1.147698	-3.049248	0.073441	0.054650	0.015863	-0.700195	0.412354	0.352295	0.362421	-0.671258	-0.451528	-0.462802
47330		9.390003	-0.729951	-2.696662	0.087635	0.063965	0.009611	-0.711670	0.409180	0.362305	0.363177	-0.670826	-0.451541	-0.462824
47331		9.307803	-0.589310	-2.683115	-0.029781	0.050451	0.025879	-0.706055	0.409668	0.352783	0.363291	-0.670836	-0.451089	-0.463160
47332		9.344681	-1.125047	-2.988867	-0.035426	0.047357	0.018465	-0.709961	0.401367	0.349365	0.363343	-0.670846	-0.450666	-0.463518
47333		9.285933	-1.098359	-3.160014	0.038107	0.044420	-0.010361	-0.712158	0.406494	0.352051	0.363714	-0.670480	-0.450774	-0.463651
47334		9.329489	-0.841108	-2.920853	0.097278	0.045036	-0.029512	-0.700684	0.414307	0.348389	0.364328	-0.669885	-0.451180	-0.463633
47335		9.249857	-0.635669	-2.938758	0.033826	0.053136	-0.022100	-0.705078	0.408691	0.353516	0.364617	-0.669543	-0.451186	-0.463894
47336		9.349753	-0.833899	-3.016314	0.011702	0.038200	-0.020881	-0.713867	0.405762	0.349121	0.364733	-0.669310	-0.451174	-0.464150
47337		9.362784	-0.900945	-3.031304	0.086125	0.046546	-0.035403	-0.705811	0.410889	0.346191	0.365271	-0.668715	-0.451573	-0.464198
47338		9.300745	-0.787046	-2.727327	0.120856	0.041883	-0.044582	-0.706055	0.413086	0.343506	0.365927	-0.668041	-0.452109	-0.464129
47339		9.399182	-0.758722	-2.484862	0.124641	0.027252	-0.046677	-0.708252	0.413086	0.343506	0.366540	-0.667409	-0.452707	-0.463972
47340		9.396266	-0.607754	-2.429890	0.058900	0.017995	-0.039194	-0.705322	0.413818	0.344971	0.366782	-0.667038	-0.453041	-0.463988
47341		9.281853	-0.893740	-2.674909	-0.028437	-0.003201	-0.032060	-0.700928	0.416748	0.342773	0.366473	-0.667063	-0.453035	-0.464203
47342		9.332177	-1.251526	-2.843753	0.055242	-0.007446	-0.063867	-0.705566	0.408936	0.345703	0.366481	-0.666751	-0.453509	-0.464181
47343		9.340435	-0.791174	-2.730926	0.114204	-0.014243	-0.078761	-0.715332	0.405762	0.347412	0.366745	-0.666194	-0.454365	-0.463936
47344		9.426029	-0.486138	-2.519725	0.107328	-0.022324	-0.078581	-0.707520	0.409912	0.337158	0.366960	-0.665651	-0.455270	-0.463658
47345		9.387829	-0.316918	-2.541416	0.019788	-0.030646	-0.059386	-0.706055	0.410889	0.347412	0.366730	-0.665502	-0.455721	-0.463611
47346		9.372955	-0.547215	-2.773249	-0.039444	-0.043638	-0.046360	-0.710449	0.403809	0.348877	0.366142	-0.665671	-0.455862	-0.463695
47347		9.268766	-0.799817	-2.971433	-0.010324	-0.051848	-0.049194	-0.710938	0.407227	0.349609	0.365691	-0.665732	-0.456211	-0.463619
47348		9.319124	-0.549552	-3.063821	0.025293	-0.053466	-0.050258	-0.708008	0.410645	0.346924	0.365422	-0.665703	-0.456686	-0.463406
47349		9.400173	-0.299171	-3.005513	0.008601	-0.047168	-0.037513	-0.709717	0.407959	0.352051	0.365127	-0.665766	-0.456980	-0.463257
47350		9.390474	-0.353254	-3.134705	-0.039875	-0.043961	-0.019246	-0.703369	0.407227	0.354736	0.364643	-0.666030	-0.456983	-0.463256
47351		9.415215	-0.488079	-3.228451	-0.041313	-0.037921	-0.009476	-0.708740	0.404297	0.341309	0.364195	-0.666337	-0.456875	-0.463274
47352		9.383062	-0.445493	-3.080332	-0.013326	-0.021901	-0.003391	-0.716309	0.413574	0.349854	0.364038	-0.666453	-0.456882	-0.463223
47353		9.377319	-0.376354	-2.908451	-0.039026	-0.009998	0.012417	-0.699463	0.408203	0.350830	0.363821	-0.666697	-0.456616	-0.463305
47354		9.329349	-0.608646	-3.125404	-0.055355	-0.007500	0.022551	-0.710693	0.401855	0.343506	0.363537	-0.667054	-0.456176	-0.463447
47355		9.250949	-0.821872	-3.291209	-0.033347	0.002258	0.020584	-0.705566	0.407227	0.343994	0.363461	-0.667211	-0.455924	-0.463528
47356		9.291534	-0.998308	-3.258490	0.030207	0.000364	0.002062	-0.709717	0.408203	0.345947	0.363638	-0.667155	-0.455967	-0.463428
47357		9.388126	-0.751550	-2.964127	0.085559	0.000491	-0.010033	-0.713623	0.409668	0.354736	0.364077	-0.666879	-0.456299	-0.463154
47358		9.390235	-0.446325	-2.813425	0.057613	0.001294	-0.006396	-0.717529	0.401123	0.346436	0.364361	-0.666713	-0.456481	-0.462990
47359		9.406746	-0.431735	-2.983596	-0.003910	0.001100	0.006272	-0.711914	0.406006	0.347900	0.364398	-0.666710	-0.456458	-0.462988
47360		9.413071	-0.601692	-3.037225	0.015087	0.003370	0.009581	-0.714844	0.401367	0.351318	0.364535	-0.666698	-0.456420	-0.462935
47361		9.423942	-0.638623	-2.773804	0.063901	0.008404	0.004855	-0.717529	0.410645	0.345703	0.364952	-0.666478	-0.456614	-0.462732
47362		9.201581	-0.543000	-2.537706	0.014952	-0.004158	0.011544	-0.708252	0.404297	0.349121	0.365074	-0.666497	-0.456592	-0.462629
47363		9.317092	-0.722559	-2.872004	-0.086518	-0.017740	0.021409	-0.711914	0.412109	0.343750	0.364606	-0.666927	-0.456152	-0.462814
47364		9.249410	-0.911213	-3.343511	-0.064063	-0.012976	0.012550	-0.713623	0.402344	0.352295	0.364253	-0.667241	-0.455821	-0.462964
47365		9.331191	-1.041005	-3.462295	0.036136	-0.017576	-0.010065	-0.704590	0.404053	0.353516	0.364355	-0.667157	-0.456059	-0.462772
47366		9.447714	-0.676407	-2.969817	0.168557	-0.008630	-0.027231	-0.711182	0.413330	0.343750	0.365137	-0.666609	-0.456820	-0.462192
47367		9.524792	-0.030809	-2.514031	0.119316	-0.006219	-0.007348	-0.703369	0.410156	0.350342	0.365749	-0.666269	-0.457280	-0.461744
47368		9.454960	0.219427	-2.529043	-0.053693	-0.003122	0.036334	-0.709961	0.409180	0.342041	0.365555	-0.666639	-0.456785	-0.461854
47369		9.349724	-0.234576	-3.126788	-0.211661	-0.013264	0.069743	-0.707275	0.418945	0.349121	0.364608	-0.667606	-0.455591	-0.462385
47370		9.229791	-0.934747	-3.599832	-0.162175	-0.004487	0.060180	-0.706055	0.404297	0.345459	0.363896	-0.668413	-0.454526	-0.462828
47371		9.278746	-1.240084	-3.559418	-0.001272	0.010483	0.025587	-0.704590	0.405273	0.349609	0.364040	-0.668472	-0.454330	-0.462822
47372		9.475726	-0.900910	-2.798530	0.113666	0.022470	0.002242	-0.709473	0.409424	0.346924	0.364766	-0.668066	-0.454646	-0.462526
47373		9.454562	-0.596701	-2.204576	0.040761	0.027037	0.002244	-0.701904	0.420410	0.340332	0.365109	-0.667858	-0.454673	-0.462529
47374		9.377583	-0.796261	-2.522827	-0.083383	0.021379	0.004888	-0.709961	0.408447	0.348389	0.364731	-0.668114	-0.454142	-0.462980
47375		9.217142	-1.391513	-3.273160	-0.014710	0.018753	-0.022519	-0.715576	0.405518	0.348145	0.364636	-0.668013	-0.454117	-0.463225
47376		9.097663	-1.004749	-3.649341	0.070602	0.019622	-0.043911	-0.708252	0.406738	0.352295	0.364951	-0.667541	-0.454577	-0.463206
47377		9.348375	-0.615463	-3.267684	0.071931	0.006922	-0.046142	-0.711670	0.411377	0.353027	0.365189	-0.667146	-0.455037	-0.463135
47378		9.383139	-0.362307	-2.738621	0.057745	0.011305	-0.033197	-0.708984	0.414062	0.343750	0.365409	-0.666839	-0.455339	-0.463107
47379		9.371512	-0.377160	-2.609841	0.006177	0.010845	-0.009378	-0.712891	0.412842	0.345215	0.365443	-0.666781	-0.455307	-0.463195
47380		9.353780	-0.508148	-2.891269	-0.014086	0.010172	-0.000255	-0.708740	0.413574	0.346436	0.365401	-0.666809	-0.455167	-0.463326
47381		9.356524	-0.637075	-3.228423	-0.000658	0.027427	-0.002754	-0.714600	0.410400	0.343018	0.365478	-0.666739	-0.455013	-0.463516
47382		9.324755	-0.782839	-3.140260	0.011500	0.025155	-0.009843	-0.710938	0.406250	0.354980	0.365609	-0.666576	-0.455006	-0.463654
47383		9.461358	-0.812849	-2.903978	0.042559	0.042605	-0.027635	-0.709473	0.401611	0.348877	0.365884	-0.666207	-0.455138	-0.463839
47384		9.403538	-0.382650	-2.869791	-0.056092	0.056899	-0.021748	-0.705322	0.408447	0.341309	0.365706	-0.666080	-0.454847	-0.464447
47385		9.299939	-0.609189	-2.985522	-0.139570	0.043195	-0.007496	-0.712158	0.409912	0.350586	0.365061	-0.666342	-0.454151	-0.465260
47386		9.357519	-0.899624	-3.158509	-0.096144	0.046618	-0.019227	-0.712402	0.402588	0.344238	0.364611	-0.666423	-0.453665	-0.465969
47387		9.306517	-0.942455	-3.033425	0.011842	0.049694	-0.035259	-0.711914	0.406982	0.339111	0.364737	-0.666061	-0.453738	-0.466317
47388		9.359491	-0.733903	-2.878111	0.042450	0.039446	-0.039094	-0.709717	0.408203	0.342773	0.364978	-0.665643	-0.453962	-0.466507
47389		9.453445	-0.413584	-2.741082	0.015674	0.045008	-0.030862	-0.710938	0.406494	0.347656	0.365107	-0.665340	-0.453986	-0.466814
47390		9.404553	-0.338683	-2.677783	-0.049589	0.039657	-0.020818	-0.708740	0.406250	0.350342	0.364884	-0.665300	-0.453712	-0.467313
47391		9.343142	-0.401433	-2.766619	-0.089104	0.028084	-0.006504	-0.708740	0.395996	0.343750	0.364443	-0.665494	-0.453218	-0.467860
47392		9.347833	-0.557572	-2.853350	-0.097920	0.017590	0.002251	-0.707031	0.406006	0.344727	0.363981	-0.665731	-0.452754	-0.468330
47393		9.366777	-0.690826	-2.950164	-0.058608	0.014262	0.000386	-0.707031	0.396484	0.348633	0.363692	-0.665907	-0.452387	-0.468660
47394		9.343817	-0.631074	-2.976672	-0.032239	0.014196	0.006104	-0.714600	0.401611	0.343994	0.363581	-0.665994	-0.452139	-0.468862
47395		9.346239	-0.544599	-2.882881	-0.042483	0.013654	0.012519	-0.714111	0.409424	0.350830	0.363450	-0.666126	-0.451831	-0.469073
47396		9.351575	-0.519495	-2.803009	-0.054957	0.006797	0.021135	-0.704346	0.406738	0.347168	0.363225	-0.666405	-0.451374	-0.469290
47397		9.392148	-0.542435	-2.744150	-0.048232	-0.000869	0.027675	-0.715820	0.404053	0.341309	0.363031	-0.666729	-0.450916	-0.469421
47398		9.432011	-0.465608	-2.805620	-0.055988	-0.003336	0.034276	-0.712891	0.408691	0.352295	0.362851	-0.667046	-0.450487	-0.469520
47399		9.368140	-0.435197	-2.922412	-0.074002	-0.006831	0.040196	-0.710449	0.410889	0.345459	0.362543	-0.667507	-0.449891	-0.469675
47400		9.365665	-0.650876	-2.920957	-0.088607	0.000275	0.041538	-0.713379	0.402100	0.349609	0.362192	-0.667988	-0.449206	-0.469918
47401		9.358550	-0.839020	-2.851804	-0.082576	-0.002015	0.035004	-0.713379	0.406982	0.352051	0.361859	-0.668393	-0.448652	-0.470127
47402		9.354436	-0.832547	-2.888185	-0.072086	-0.003698	0.028682	-0.713867	0.402832	0.349121	0.361537	-0.668776	-0.448141	-0.470319
47403		9.402531	-0.787854	-2.982642	-0.077998	0.002975	0.021584	-0.713867	0.401611	0.346191	0.361199	-0.669094	-0.447668	-0.470577
47404		9.367032	-0.739096	-3.060795	-0.052797	0.005503	0.012224	-0.708008	0.408691	0.348145	0.360984	-0.669277	-0.447356	-0.470777
47405		9.364881	-0.726380	-2.977413	-0.015031	0.002611	0.008829	-0.709473	0.402832	0.348633	0.360924	-0.669401	-0.447139	-0.470854
47406		9.383989	-0.533294	-2.799718	0.007085	0.001023	0.006400	-0.714355	0.405029	0.343018	0.360988	-0.669424	-0.447074	-0.470833
47407		9.369792	-0.505716	-2.742824	-0.018188	-0.004206	0.011168	-0.711426	0.410156	0.345947	0.360926	-0.669543	-0.446923	-0.470855
47408		9.340108	-0.752531	-2.882619	-0.032798	-0.003105	0.014811	-0.717529	0.406250	0.349365	0.360778	-0.669753	-0.446634	-0.470943
47409		9.299993	-0.849834	-3.025220	-0.022470	-0.010102	0.007937	-0.718994	0.403076	0.362061	0.360648	-0.669905	-0.446491	-0.470963
47410		9.299163	-0.877635	-2.953043	0.008077	-0.009902	-0.003025	-0.709961	0.400146	0.347656	0.360629	-0.669932	-0.446522	-0.470910
47411		9.347546	-0.607907	-2.867885	0.012550	-0.016134	-0.006186	-0.709717	0.409912	0.347656	0.360623	-0.669939	-0.446630	-0.470802
47412		9.388002	-0.577534	-2.763227	0.008876	-0.020731	-0.001540	-0.715088	0.404785	0.350586	0.360574	-0.670038	-0.446642	-0.470687
47413		9.379620	-0.589801	-2.762505	0.012886	-0.025096	-0.000958	-0.706299	0.400635	0.352051	0.360549	-0.670109	-0.446732	-0.470519
47414		9.379343	-0.610371	-2.771235	0.004811	-0.028046	0.000967	-0.708008	0.399414	0.355469	0.360469	-0.670233	-0.446778	-0.470361
47415		9.360431	-0.744544	-2.982374	0.012093	-0.023701	-0.001875	-0.716309	0.409668	0.349854	0.360433	-0.670304	-0.446862	-0.470207
47416		9.363051	-0.725428	-3.024715	0.041373	-0.022841	-0.006094	-0.705811	0.414795	0.352295	0.360550	-0.670275	-0.447064	-0.469967
47417		9.384325	-0.692136	-2.941974	0.056342	-0.020865	-0.009078	-0.709473	0.409668	0.347412	0.360712	-0.670241	-0.447249	-0.469715
47418		9.385446	-0.561874	-2.822609	0.073558	-0.018585	-0.011981	-0.713379	0.410645	0.349854	0.360996	-0.670090	-0.447576	-0.469401
47419		9.398205	-0.546747	-2.755295	0.041128	-0.022841	-0.003715	-0.709229	0.406494	0.346680	0.361113	-0.670082	-0.447747	-0.469159
47420		9.356464	-0.598866	-2.870487	0.017109	-0.024492	0.001645	-0.711426	0.400391	0.345947	0.361123	-0.670156	-0.447823	-0.468973
47421		9.352598	-0.685101	-2.966979	0.023889	-0.028183	-0.003952	-0.713135	0.401855	0.352295	0.361157	-0.670164	-0.448027	-0.468740
47422		9.359430	-0.620950	-2.926775	0.028713	-0.027921	-0.004750	-0.712891	0.397461	0.349854	0.361203	-0.670169	-0.448234	-0.468500
47423		9.381577	-0.652645	-2.976880	0.026478	-0.024802	-0.003173	-0.710205	0.404053	0.348633	0.361269	-0.670148	-0.448452	-0.468270
47424		9.351620	-0.674894	-2.938855	0.026310	-0.022918	-0.001849	-0.709961	0.411865	0.352051	0.361329	-0.670160	-0.448603	-0.468062
47425		9.337331	-0.620187	-2.860591	0.025049	-0.020482	-0.004648	-0.707275	0.406250	0.349365	0.361356	-0.670198	-0.448695	-0.467899
47426		9.354989	-0.623785	-2.940337	0.001992	-0.021985	0.002021	-0.705322	0.401611	0.347656	0.361289	-0.670311	-0.448700	-0.467783
47427		9.377004	-0.627467	-3.064150	-0.012234	-0.022410	0.000561	-0.705566	0.412109	0.352051	0.361148	-0.670444	-0.448690	-0.467712
