// Start Time: Unknown
// Update Rate: 60.0Hz
// Filter Profile: human (46.1)
// Firmware Version: 4.6.0
PacketCounter	SampleTimeFine	Acc_X	Acc_Y	Acc_Z	Gyr_X	Gyr_Y	Gyr_Z	Mag_X	Mag_Y	Mag_Z	Quat_q0	Quat_q1	Quat_q2	Quat_q3
46517		7.783072	-2.181690	5.745858	0.074817	-0.110911	-0.060687	-0.753174	-0.041260	-0.520264	-0.557639	-0.265594	0.373463	-0.692116
46518		7.746423	-2.145656	5.792796	0.087032	-0.107231	-0.068093	-0.748291	-0.051025	-0.511963	-0.557504	-0.266828	0.373308	-0.691833
46519		7.720185	-2.065055	5.860390	0.078579	-0.100904	-0.079999	-0.753174	-0.047852	-0.515137	-0.557480	-0.268033	0.373140	-0.691477
46520		7.760192	-2.011854	5.910095	0.058724	-0.085528	-0.088572	-0.761230	-0.051514	-0.510498	-0.557594	-0.269074	0.372999	-0.691057
46521		7.686172	-1.929961	5.848795	0.036775	-0.065893	-0.107433	-0.751221	-0.050049	-0.512695	-0.557929	-0.269957	0.372845	-0.690526
46522		7.676233	-1.876173	5.721774	0.024683	-0.053029	-0.141818	-0.760742	-0.057129	-0.513428	-0.558532	-0.270816	0.372615	-0.689825
46523		7.744410	-1.770993	5.612926	0.013089	-0.040723	-0.177542	-0.757812	-0.061523	-0.502441	-0.559408	-0.271664	0.372304	-0.688949
46524		7.921347	-1.746227	5.505901	0.011332	-0.019329	-0.218095	-0.750000	-0.055664	-0.517090	-0.560591	-0.272517	0.371803	-0.687921
46525		7.851962	-1.685755	5.360060	0.004887	-0.004045	-0.250312	-0.756836	-0.071533	-0.510498	-0.562023	-0.273370	0.371189	-0.686744
46526		7.874623	-1.707434	5.206363	0.003905	-0.014338	-0.293566	-0.765869	-0.063965	-0.509277	-0.563673	-0.274434	0.370529	-0.685323
46527		7.933932	-1.802197	5.097527	-0.002837	-0.031273	-0.328700	-0.764160	-0.073975	-0.507812	-0.565481	-0.275699	0.369914	-0.683656
46528		7.982059	-1.935039	4.980031	-0.000552	-0.049970	-0.367846	-0.765137	-0.076660	-0.514893	-0.567436	-0.277228	0.369304	-0.681744
46529		8.045603	-2.056007	4.992142	-0.005415	-0.065065	-0.394315	-0.760986	-0.081055	-0.502197	-0.569482	-0.278927	0.368770	-0.679632
46530		8.183965	-2.251485	5.016042	-0.034067	-0.073692	-0.383763	-0.765625	-0.089600	-0.511230	-0.571476	-0.280518	0.368511	-0.677439
46531		8.046548	-2.401615	4.984079	-0.067995	-0.079511	-0.361284	-0.761475	-0.087646	-0.503906	-0.573361	-0.281923	0.368591	-0.675217
46532		8.080117	-2.496047	4.957523	-0.106724	-0.087253	-0.346902	-0.761963	-0.087891	-0.500488	-0.575191	-0.283114	0.369032	-0.672917
46533		8.258557	-2.352940	4.770714	-0.156553	-0.069496	-0.340110	-0.766357	-0.108154	-0.502441	-0.577105	-0.283924	0.369765	-0.670530
46534		8.213741	-2.125632	4.619012	-0.243241	-0.078209	-0.348797	-0.764893	-0.093018	-0.501709	-0.579153	-0.284419	0.371084	-0.667820
46535		8.447810	-2.212768	4.367241	-0.304552	-0.084961	-0.334985	-0.762451	-0.105713	-0.496094	-0.581243	-0.284609	0.372917	-0.664897
46536		8.210666	-2.259888	4.249663	-0.275971	-0.126322	-0.307212	-0.764404	-0.111816	-0.498535	-0.582914	-0.285111	0.374877	-0.662110
46537		8.281692	-2.226341	4.477140	-0.220752	-0.186482	-0.247230	-0.765869	-0.106201	-0.492676	-0.583830	-0.286067	0.377086	-0.659632
46538		8.101891	-1.963486	4.891687	-0.195143	-0.228391	-0.174088	-0.780273	-0.105713	-0.486816	-0.584153	-0.287137	0.379600	-0.657436
46539		8.084666	-1.947481	5.311982	-0.185019	-0.234142	-0.136528	-0.772949	-0.112061	-0.493896	-0.584050	-0.288282	0.382324	-0.655445
46540		8.092381	-1.756617	5.629085	-0.162746	-0.185967	-0.101106	-0.775391	-0.101807	-0.480713	-0.583884	-0.289057	0.384712	-0.653852
46541		7.956511	-1.458565	5.778381	-0.178775	-0.149382	-0.081320	-0.774414	-0.107422	-0.480713	-0.583973	-0.289396	0.386881	-0.652341
46542		8.211125	-1.500243	5.817976	-0.202948	-0.093401	-0.081422	-0.779297	-0.104492	-0.479248	-0.584299	-0.289292	0.388740	-0.650989
46543		8.064519	-1.471574	5.667659	-0.223567	-0.031243	-0.089234	-0.770508	-0.114746	-0.476318	-0.584889	-0.288802	0.390412	-0.649675
46544		8.109499	-1.778996	5.480975	-0.244063	-0.017473	-0.084928	-0.775635	-0.107422	-0.479492	-0.585681	-0.288044	0.391673	-0.648537
46545		8.122927	-1.903407	5.294974	-0.227548	-0.006330	-0.055840	-0.776367	-0.102295	-0.474365	-0.586265	-0.287215	0.393112	-0.647506
46546		8.146456	-1.921865	5.151790	-0.189630	-0.029107	-0.024663	-0.783691	-0.104004	-0.472900	-0.586589	-0.286547	0.394472	-0.646681
46547		8.272930	-1.915475	5.221305	-0.128787	-0.056524	0.014524	-0.780273	-0.101807	-0.471680	-0.586257	-0.286301	0.395820	-0.646267
46548		8.297610	-1.936823	5.246965	-0.068212	-0.083489	0.057341	-0.780029	-0.106445	-0.469482	-0.585585	-0.286273	0.396985	-0.646175
46549		8.306644	-2.043767	5.290948	0.006246	-0.087088	0.078694	-0.787598	-0.095459	-0.472168	-0.584561	-0.286587	0.397719	-0.646511
46550		8.208951	-2.134708	5.343517	0.051198	-0.097958	0.103214	-0.769775	-0.099121	-0.468262	-0.583250	-0.287030	0.398598	-0.646957
46551		8.229167	-2.217488	5.348501	0.064321	-0.097051	0.141947	-0.789795	-0.097900	-0.474609	-0.582081	-0.287233	0.399073	-0.647626
46552		8.175927	-2.095272	5.311419	0.048521	-0.088969	0.166968	-0.772949	-0.097168	-0.464600	-0.580406	-0.287358	0.400067	-0.648460
46553		8.188899	-1.986604	5.221413	0.014443	-0.071004	0.170031	-0.780273	-0.095703	-0.463135	-0.579225	-0.287091	0.400770	-0.649200
46554		8.134044	-1.828874	5.110878	-0.038598	-0.055435	0.167259	-0.783447	-0.091064	-0.469482	-0.578082	-0.286551	0.401781	-0.649832
46555		8.156068	-1.799785	5.051440	-0.081260	-0.053881	0.162946	-0.778809	-0.098145	-0.461426	-0.577064	-0.285775	0.403106	-0.650258
46556		8.219491	-1.633903	5.094361	-0.094360	-0.068598	0.184555	-0.779297	-0.082275	-0.468506	-0.575925	-0.285045	0.404418	-0.650773
46557		8.237693	-1.327309	5.034194	-0.051763	-0.088622	0.187294	-0.777344	-0.089844	-0.460693	-0.574724	-0.284495	0.405735	-0.651256
46558		8.404345	-1.111486	5.066586	0.009313	-0.110314	0.163616	-0.775146	-0.084717	-0.461182	-0.573408	-0.284583	0.406598	-0.651839
46559		8.346239	-0.982095	5.083758	0.070591	-0.129020	0.138312	-0.775879	-0.088379	-0.458740	-0.572103	-0.285154	0.407142	-0.652396
46560		8.358296	-0.762666	5.159478	0.123630	-0.162993	0.110672	-0.776855	-0.076660	-0.452393	-0.570706	-0.286335	0.407432	-0.652921
46561		8.428160	-0.715121	5.208341	0.160574	-0.174779	0.074931	-0.780273	-0.079102	-0.451416	-0.569419	-0.287883	0.407494	-0.653326
46562		8.424647	-0.689489	5.228011	0.160868	-0.163659	0.014015	-0.782715	-0.078857	-0.455811	-0.568501	-0.289634	0.407315	-0.653462
46563		8.478883	-0.900329	5.176730	0.118452	-0.158439	-0.031118	-0.783447	-0.084717	-0.450928	-0.567983	-0.291315	0.407205	-0.653235
46564		8.603469	-1.338317	4.983861	0.091958	-0.133766	-0.060328	-0.781982	-0.080566	-0.448975	-0.567779	-0.292901	0.406987	-0.652838
46565		8.578760	-1.565076	4.881267	0.095635	-0.088698	-0.077706	-0.790771	-0.092285	-0.444092	-0.567822	-0.294295	0.406511	-0.652470
46566		8.395231	-1.728999	4.826460	0.094336	-0.062233	-0.078077	-0.793457	-0.087158	-0.447754	-0.567932	-0.295636	0.405903	-0.652147
46567		8.309517	-1.785294	4.737067	0.094193	-0.063238	-0.082525	-0.787598	-0.085449	-0.447266	-0.568055	-0.296953	0.405323	-0.651803
46568		8.341601	-1.731246	4.679440	0.087825	-0.061856	-0.087516	-0.784912	-0.091309	-0.450195	-0.568215	-0.298192	0.404773	-0.651438
46569		8.478499	-1.685236	4.702892	0.073179	-0.077703	-0.072453	-0.782471	-0.092041	-0.443848	-0.568260	-0.299403	0.404378	-0.651089
46570		8.368208	-1.738820	4.586310	0.084058	-0.092987	-0.057922	-0.781494	-0.092285	-0.446289	-0.568141	-0.300679	0.404077	-0.650792
46571		8.386057	-1.847996	4.601850	0.093178	-0.114932	-0.063895	-0.799072	-0.093262	-0.435059	-0.567933	-0.302122	0.403807	-0.650472
46572		8.352251	-2.068624	4.686904	0.105559	-0.102902	-0.055891	-0.791016	-0.102539	-0.434082	-0.567730	-0.303587	0.403559	-0.650121
46573		8.229314	-2.217557	4.746978	0.112860	-0.104256	-0.064171	-0.790039	-0.095947	-0.431396	-0.567527	-0.305111	0.403206	-0.649804
46574		8.214271	-2.256789	4.802584	0.096245	-0.105368	-0.058326	-0.788818	-0.103027	-0.433350	-0.567303	-0.306448	0.403039	-0.649474
46575		8.179453	-2.165637	4.825534	0.065620	-0.109789	-0.051019	-0.791016	-0.104736	-0.428223	-0.567082	-0.307647	0.403020	-0.649112
46576		8.334455	-2.091092	4.879323	0.028980	-0.102048	-0.052776	-0.795166	-0.090820	-0.433350	-0.566994	-0.308620	0.403199	-0.648616
46577		8.333250	-2.136568	4.954095	0.003152	-0.080076	-0.043907	-0.795898	-0.103760	-0.427979	-0.566951	-0.309216	0.403497	-0.648183
46578		8.249458	-2.186528	4.911834	-0.003849	-0.059122	-0.039038	-0.793701	-0.104492	-0.429932	-0.566997	-0.309721	0.403700	-0.647776
46579		8.294541	-2.093238	4.812488	-0.009955	-0.056936	-0.027009	-0.801270	-0.104736	-0.434570	-0.566984	-0.310110	0.403933	-0.647455
46580		8.382434	-1.921187	4.777465	0.004136	-0.058871	-0.013478	-0.796631	-0.089111	-0.417480	-0.566847	-0.310541	0.404119	-0.647254
46581		8.568407	-1.608928	4.780314	0.019382	-0.069335	-0.002934	-0.795166	-0.100342	-0.426758	-0.566552	-0.310935	0.404532	-0.647064
46582		8.663751	-1.491041	4.776234	0.017325	-0.052206	0.031696	-0.787598	-0.101318	-0.418213	-0.566150	-0.311177	0.404788	-0.647140
46583		8.450516	-1.317635	4.676283	0.023777	-0.047073	0.034678	-0.798340	-0.103271	-0.420898	-0.565741	-0.311417	0.405010	-0.647243
46584		8.643472	-1.165664	4.692000	0.018568	-0.049531	0.020707	-0.793213	-0.107422	-0.421143	-0.565416	-0.311758	0.405215	-0.647234
46585		8.703617	-1.127000	4.661138	-0.000777	-0.022393	0.006313	-0.789307	-0.092529	-0.431396	-0.565336	-0.311929	0.405295	-0.647172
46586		8.617841	-1.117223	4.585520	-0.017594	0.002333	-0.046420	-0.789551	-0.104492	-0.422607	-0.565643	-0.311902	0.405231	-0.646957
46587		8.680901	-1.215837	4.479115	-0.057467	0.025993	-0.098604	-0.796875	-0.097900	-0.426758	-0.566449	-0.311884	0.405104	-0.646339
46588		8.774479	-1.379567	4.413075	-0.080403	0.049473	-0.120071	-0.794189	-0.097900	-0.423096	-0.567476	-0.311673	0.404988	-0.645612
46589		8.731811	-1.450195	4.215692	-0.110297	0.049908	-0.105432	-0.795166	-0.104980	-0.425049	-0.568491	-0.311285	0.405101	-0.644835
46590		8.590405	-1.581082	4.011135	-0.125510	0.026464	-0.097267	-0.797607	-0.104492	-0.429688	-0.569446	-0.310986	0.405383	-0.643959
46591		8.624020	-1.717528	3.981002	-0.113691	-0.009929	-0.088183	-0.793701	-0.109375	-0.423096	-0.570191	-0.310896	0.405799	-0.643081
46592		8.613982	-1.715183	4.017086	-0.088958	-0.028325	-0.070493	-0.794189	-0.101318	-0.421631	-0.570715	-0.311026	0.406228	-0.642282
46593		8.501119	-1.438765	4.231166	-0.078159	-0.080077	-0.048283	-0.797607	-0.114258	-0.423584	-0.570872	-0.311344	0.406995	-0.641502
46594		8.864561	-1.255902	4.587933	-0.071738	-0.109719	-0.057491	-0.797852	-0.109619	-0.427490	-0.571005	-0.312005	0.407725	-0.640599
46595		8.676493	-1.081795	4.584746	-0.078521	-0.035701	-0.109613	-0.792480	-0.093750	-0.414551	-0.571682	-0.312340	0.408001	-0.639655
46596		8.491812	-1.383408	4.403946	-0.092820	-0.049519	-0.139472	-0.796875	-0.105957	-0.424072	-0.572447	-0.312656	0.408567	-0.638454
46597		8.696761	-1.328499	4.475682	-0.093128	-0.056463	-0.129735	-0.794678	-0.108643	-0.421875	-0.573182	-0.313058	0.409021	-0.637306
46598		8.398361	-1.462933	4.495688	-0.062968	-0.077468	-0.122193	-0.800049	-0.100342	-0.422363	-0.573736	-0.313704	0.409419	-0.636233
46599		8.606110	-1.469139	4.730380	-0.009357	-0.073769	-0.140553	-0.796387	-0.116455	-0.414307	-0.574218	-0.314560	0.409569	-0.635278
46600		8.655967	-1.207047	5.475631	-0.075541	-0.037033	-0.097592	-0.789795	-0.113525	-0.405762	-0.574804	-0.314940	0.409891	-0.634352
46601		8.115437	-1.396548	5.578909	-0.180705	0.014926	-0.097412	-0.794434	-0.116943	-0.412598	-0.575844	-0.314500	0.410578	-0.633182
46602		8.085189	-1.909372	5.097093	-0.171762	0.018021	-0.124250	-0.799072	-0.108398	-0.418457	-0.577026	-0.314188	0.411044	-0.631957
46603		8.378907	-2.093642	5.080583	-0.061470	0.019258	-0.099398	-0.802002	-0.108398	-0.409912	-0.577769	-0.314174	0.411063	-0.631272
46604		8.334186	-1.831569	5.258064	0.046800	0.022057	-0.067428	-0.802246	-0.112549	-0.414307	-0.578021	-0.314613	0.410673	-0.631077
46605		8.315318	-1.702034	5.526551	0.088041	-0.000679	-0.023853	-0.810059	-0.110840	-0.407715	-0.577876	-0.315216	0.410213	-0.631208
46606		8.258859	-1.748808	5.799771	0.128226	-0.001497	0.011201	-0.811279	-0.116455	-0.416504	-0.577377	-0.315941	0.409732	-0.631614
46607		8.165466	-1.643698	6.136626	0.165625	0.010985	0.026643	-0.805664	-0.111816	-0.418701	-0.576784	-0.316705	0.408890	-0.632319
46608		8.140631	-1.540901	6.330054	0.186244	0.050778	0.026784	-0.805176	-0.117188	-0.410889	-0.576315	-0.317208	0.407751	-0.633229
46609		8.157656	-1.489350	6.416613	0.184404	0.093640	0.023545	-0.800049	-0.113281	-0.413818	-0.575994	-0.317583	0.406385	-0.634210
46610		8.197558	-1.556722	6.356125	0.205064	0.137226	0.029179	-0.797607	-0.115479	-0.419189	-0.575772	-0.317683	0.404712	-0.635431
46611		8.212890	-1.572993	6.237612	0.254250	0.175062	0.041288	-0.802002	-0.113770	-0.423584	-0.575514	-0.317737	0.402561	-0.637002
46612		8.157804	-1.431552	6.110994	0.296012	0.192520	0.059637	-0.792480	-0.114746	-0.438477	-0.575090	-0.317798	0.400167	-0.638860
46613		8.057532	-1.275720	6.110126	0.310385	0.200301	0.060351	-0.795654	-0.119629	-0.439209	-0.574760	-0.317720	0.397540	-0.640833
46614		8.017106	-1.106044	6.314755	0.282700	0.214796	0.044467	-0.784668	-0.116211	-0.436523	-0.574623	-0.317547	0.394928	-0.642654
46615		8.031215	-1.009121	6.583696	0.234850	0.253964	0.027903	-0.790283	-0.113037	-0.440674	-0.574799	-0.316954	0.392355	-0.644363
46616		8.083417	-0.865198	6.766861	0.191715	0.313388	0.012823	-0.786133	-0.118652	-0.451416	-0.575312	-0.315865	0.389720	-0.646036
46617		8.089401	-0.645352	6.899832	0.160114	0.370855	-0.019696	-0.779785	-0.114746	-0.456787	-0.576376	-0.314366	0.386799	-0.647573
46618		8.064909	-0.427262	7.106156	0.127013	0.395971	-0.040079	-0.780273	-0.114014	-0.462891	-0.577674	-0.312586	0.383872	-0.649018
46619		8.043519	-0.296762	7.426150	0.127909	0.441277	-0.060547	-0.775146	-0.107178	-0.477539	-0.579197	-0.310619	0.380660	-0.650496
46620		8.120977	-0.291838	7.648705	0.142241	0.496327	-0.100463	-0.766846	-0.114258	-0.489014	-0.581052	-0.308402	0.376963	-0.652048
46621		8.335009	-0.363883	7.717566	0.157835	0.582058	-0.140993	-0.766357	-0.115234	-0.503906	-0.583486	-0.305898	0.372579	-0.653571
46622		8.212313	-0.223523	7.663382	0.110839	0.656479	-0.168855	-0.751953	-0.110107	-0.507568	-0.586400	-0.302913	0.368009	-0.654942
46623		8.070417	-0.201538	7.731530	0.012629	0.683716	-0.207258	-0.745605	-0.113770	-0.522705	-0.589703	-0.299632	0.363748	-0.655864
46624		8.111471	-0.323068	7.939987	-0.052453	0.718747	-0.241284	-0.738037	-0.115723	-0.541748	-0.593488	-0.295989	0.359573	-0.656407
46625		8.192720	-0.470840	8.082766	-0.062348	0.794424	-0.269984	-0.729736	-0.119141	-0.553223	-0.597655	-0.291963	0.354982	-0.656927
46626		8.302392	-0.628824	8.032364	-0.068913	0.883254	-0.297250	-0.715820	-0.118652	-0.568359	-0.602217	-0.287479	0.349887	-0.657472
46627		8.256591	-0.861078	7.954377	-0.113182	0.936549	-0.298885	-0.705078	-0.124756	-0.582275	-0.607008	-0.282462	0.344734	-0.657963
46628		8.100676	-1.150404	8.177090	-0.147319	0.899984	-0.243165	-0.696777	-0.119629	-0.599121	-0.611424	-0.277288	0.340059	-0.658508
46629		8.381255	-1.657482	8.199925	-0.011387	0.944764	-0.207906	-0.674561	-0.122559	-0.616455	-0.615414	-0.272435	0.334468	-0.659679
46630		8.118928	-1.379258	8.249092	0.101134	1.053745	-0.215050	-0.659180	-0.134766	-0.640869	-0.619437	-0.267551	0.327665	-0.661325
46631		7.519724	-0.930077	8.715695	-0.005853	1.090275	-0.222744	-0.654297	-0.130859	-0.648438	-0.623779	-0.261905	0.321221	-0.662663
46632		7.946833	-1.264168	9.432054	-0.176135	1.034310	-0.165759	-0.623291	-0.135498	-0.663818	-0.627972	-0.255501	0.316103	-0.663664
46633		8.476329	-1.380410	9.735131	-0.151320	1.210473	-0.182243	-0.609375	-0.141357	-0.682129	-0.632602	-0.248262	0.309859	-0.664958
46634		8.173706	-0.595772	9.796081	-0.226900	1.358493	-0.199638	-0.586670	-0.147217	-0.693115	-0.637781	-0.239812	0.303181	-0.666189
46635		8.003644	-0.683567	9.604765	-0.331789	1.395573	-0.195682	-0.568115	-0.151611	-0.704834	-0.643144	-0.230553	0.296849	-0.667152
46636		8.292982	-1.333559	9.271924	-0.260111	1.422705	-0.164092	-0.534912	-0.149170	-0.736328	-0.648157	-0.221415	0.289989	-0.668412
46637		7.847236	-1.324935	9.067974	-0.106097	1.486772	-0.137078	-0.516846	-0.161377	-0.746826	-0.652778	-0.212655	0.281940	-0.670201
46638		7.662375	-1.006541	9.196899	-0.107833	1.409098	-0.054525	-0.484863	-0.155273	-0.754395	-0.656649	-0.204096	0.274437	-0.672191
46639		7.747780	-0.855207	9.550196	-0.101607	1.346443	0.022555	-0.466064	-0.156738	-0.767090	-0.659836	-0.195724	0.267343	-0.674415
46640		8.060205	-0.566748	9.627519	0.037277	1.394971	0.057504	-0.444336	-0.185791	-0.774902	-0.662611	-0.187747	0.259229	-0.677124
46641		7.541864	0.283460	9.587600	0.105460	1.476191	0.005422	-0.413818	-0.192383	-0.787842	-0.665643	-0.179789	0.250171	-0.679713
46642		7.348061	0.246532	9.481060	0.031927	1.449043	-0.062015	-0.394775	-0.203857	-0.796631	-0.669003	-0.171708	0.241542	-0.681622
46643		7.165922	-0.425960	9.466158	0.074063	1.428226	-0.103099	-0.363037	-0.206055	-0.804688	-0.672389	-0.164056	0.232699	-0.683249
46644		7.069291	-0.595346	9.561183	0.184376	1.453811	-0.140751	-0.343506	-0.220459	-0.811523	-0.675780	-0.156940	0.223007	-0.684806
46645		6.807168	-0.164756	9.610518	0.169938	1.453915	-0.169064	-0.314209	-0.234619	-0.814941	-0.679240	-0.149783	0.213337	-0.686065
46646		6.784930	-0.154765	9.561305	0.144894	1.425044	-0.201267	-0.293213	-0.241211	-0.824219	-0.682753	-0.142699	0.203911	-0.686953
46647		7.004232	-0.500273	9.369868	0.238146	1.475548	-0.248885	-0.270020	-0.273682	-0.825684	-0.686401	-0.135932	0.193585	-0.687677
46648		6.364643	-0.543942	9.166882	0.335234	1.534811	-0.304098	-0.249268	-0.287109	-0.829102	-0.690225	-0.129464	0.182286	-0.688187
46649		6.476761	-0.582525	9.035631	0.339972	1.496413	-0.311423	-0.224854	-0.296631	-0.846191	-0.693897	-0.123244	0.171156	-0.688494
46650		6.341163	-0.538012	8.885346	0.289607	1.465384	-0.264398	-0.188965	-0.315674	-0.832275	-0.697181	-0.116839	0.160533	-0.688851
46651		6.042549	-0.524775	8.725346	0.233126	1.420886	-0.258883	-0.166260	-0.325439	-0.843506	-0.700313	-0.110350	0.150493	-0.689011
46652		6.287714	-0.407789	8.706810	0.211528	1.421757	-0.296748	-0.144531	-0.335449	-0.838867	-0.703569	-0.103777	0.140534	-0.688818
46653		5.862961	-0.019608	8.638422	0.138773	1.427319	-0.319373	-0.114746	-0.352051	-0.836670	-0.706911	-0.096773	0.130941	-0.688307
46654		5.365674	-0.328343	8.449581	0.078272	1.391576	-0.371594	-0.094482	-0.357910	-0.842773	-0.710451	-0.089679	0.121862	-0.687290
46655		5.363104	-1.113256	8.487056	0.103249	1.358641	-0.390507	-0.075928	-0.367188	-0.847900	-0.713939	-0.082941	0.112822	-0.686064
46656		5.090486	-1.274803	8.565072	0.160596	1.380146	-0.354788	-0.055664	-0.374756	-0.853271	-0.717096	-0.076385	0.103358	-0.685023
46657		4.915948	-0.939090	8.543770	0.148854	1.341140	-0.274947	-0.025879	-0.391113	-0.836670	-0.719666	-0.069910	0.094255	-0.684331
46658		4.491084	-0.446920	8.430447	0.140860	1.324871	-0.261305	-0.002197	-0.383789	-0.832031	-0.722052	-0.063470	0.085312	-0.683618
46659		4.440761	-0.487708	8.336115	0.152255	1.298985	-0.302186	0.020752	-0.394043	-0.827637	-0.724552	-0.057277	0.076445	-0.682569
46660		4.083960	-0.653648	8.140493	0.172210	1.281949	-0.317877	0.047363	-0.403564	-0.827637	-0.727027	-0.051315	0.067568	-0.681347
46661		3.964744	-0.744810	7.908161	0.206458	1.213137	-0.286145	0.060059	-0.421143	-0.826172	-0.729180	-0.045936	0.058936	-0.680230
46662		3.668291	-0.503039	7.797913	0.288484	1.155909	-0.254688	0.075928	-0.417725	-0.825439	-0.731016	-0.041368	0.050211	-0.679252
46663		3.476482	-0.282536	7.620061	0.374017	1.100586	-0.235535	0.094971	-0.431641	-0.816650	-0.732615	-0.037629	0.041357	-0.678343
46664		3.204438	-0.335266	7.377293	0.444272	1.050957	-0.254658	0.102051	-0.440430	-0.805420	-0.734210	-0.034611	0.032413	-0.677264
46665		3.041132	-0.124707	7.085195	0.460894	1.018164	-0.271055	0.133057	-0.452881	-0.806885	-0.735815	-0.031888	0.023582	-0.676020
46666		2.461261	0.171006	6.816475	0.430982	0.917740	-0.275674	0.137695	-0.456299	-0.796875	-0.737371	-0.029553	0.015544	-0.674662
46667		2.324789	0.141152	6.836282	0.438495	0.791409	-0.292639	0.156250	-0.460938	-0.787842	-0.738951	-0.027981	0.008243	-0.673127
46668		2.427397	-0.085235	6.866016	0.496218	0.761192	-0.325302	0.162354	-0.468750	-0.782227	-0.740652	-0.026940	0.000804	-0.671348
46669		2.070322	-0.200895	6.766604	0.481841	0.772487	-0.375262	0.183594	-0.484619	-0.778076	-0.742585	-0.025750	-0.006626	-0.669223
46670		1.966739	-0.189261	6.510723	0.391166	0.743975	-0.370184	0.191162	-0.490967	-0.765625	-0.744465	-0.024160	-0.013363	-0.667091
46671		2.033448	-0.169644	6.098611	0.271688	0.654748	-0.279450	0.199707	-0.503906	-0.759033	-0.745837	-0.022335	-0.018855	-0.665487
46672		1.941246	-0.024742	5.351668	0.226590	0.636584	-0.262848	0.206055	-0.495605	-0.766602	-0.747100	-0.020334	-0.023970	-0.663968
46673		1.589253	-0.156451	4.815203	0.172823	0.610547	-0.343606	0.220947	-0.501709	-0.749512	-0.748797	-0.018130	-0.028631	-0.661932
46674		1.360175	-0.469899	4.646365	0.062403	0.526384	-0.364082	0.237793	-0.510254	-0.743408	-0.750621	-0.015696	-0.032153	-0.659764
46675		1.619712	-1.096594	4.399554	-0.029995	0.369600	-0.287691	0.233643	-0.501465	-0.752441	-0.752064	-0.013566	-0.034169	-0.658065
46676		1.832799	-1.581785	3.885953	0.024764	0.350746	-0.241299	0.249756	-0.508545	-0.750977	-0.753242	-0.011892	-0.036350	-0.656631
46677		1.464320	-1.635885	3.264290	0.039479	0.328524	-0.256148	0.245850	-0.505371	-0.746582	-0.754498	-0.010423	-0.038460	-0.655091
46678		1.016431	-1.490567	3.066670	-0.123756	0.171381	-0.213019	0.257568	-0.504395	-0.736084	-0.755579	-0.008794	-0.038675	-0.653856
46679		0.964262	-1.807902	3.210368	-0.272425	-0.116637	-0.044904	0.259277	-0.492432	-0.750732	-0.755843	-0.007845	-0.036245	-0.653702
46680		1.807918	-2.212134	3.325905	-0.132608	-0.239234	0.064639	0.253906	-0.501953	-0.748535	-0.755535	-0.008470	-0.033788	-0.654182
46681		1.397230	-1.281572	3.472936	0.006710	-0.248807	0.072372	0.251709	-0.498779	-0.750732	-0.755173	-0.010018	-0.032014	-0.654667
46682		1.371222	-1.127303	3.460172	-0.089678	-0.417996	0.082707	0.237549	-0.496094	-0.753418	-0.754800	-0.011882	-0.028640	-0.655222
46683		1.735579	-1.591275	3.669801	-0.095688	-0.574682	0.128412	0.236084	-0.488770	-0.764160	-0.754199	-0.014571	-0.024234	-0.656036
46684		2.287848	-1.475381	3.897614	0.023921	-0.637449	0.163361	0.228271	-0.487061	-0.761475	-0.753382	-0.018357	-0.020072	-0.657020
46685		2.277299	-0.844242	4.057710	0.004359	-0.701664	0.181666	0.211670	-0.486572	-0.770508	-0.752451	-0.022373	-0.015383	-0.658089
46686		2.192972	-0.771393	4.287630	-0.152320	-0.849656	0.181385	0.204346	-0.487305	-0.768799	-0.751530	-0.026217	-0.008897	-0.659117
46687		2.545137	-1.210301	4.925068	-0.235520	-0.990551	0.191734	0.183838	-0.480225	-0.779541	-0.750529	-0.030314	-0.001060	-0.660142
46688		3.350759	-1.443290	5.490900	-0.222874	-1.065191	0.243117	0.171631	-0.479248	-0.779541	-0.749176	-0.034899	0.007199	-0.661412
46689		3.378011	-0.921645	5.716544	-0.240784	-1.098862	0.272326	0.151611	-0.468750	-0.792725	-0.747592	-0.039554	0.015790	-0.662792
46690		3.132990	-0.686697	6.149848	-0.333182	-1.230973	0.285608	0.133057	-0.459473	-0.803711	-0.745861	-0.044359	0.025728	-0.664125
46691		3.548887	-1.058998	6.825937	-0.317961	-1.354774	0.305872	0.112061	-0.455078	-0.807617	-0.743881	-0.049937	0.036365	-0.665451
46692		3.819418	-0.874261	7.604369	-0.178507	-1.397347	0.358762	0.086914	-0.439697	-0.816895	-0.741421	-0.056593	0.046520	-0.667030
46693		3.776999	-0.477667	8.341628	-0.085622	-1.466383	0.393681	0.059814	-0.441650	-0.817627	-0.738572	-0.064186	0.056605	-0.668721
46694		4.611448	0.338368	8.835232	-0.078801	-1.462964	0.385781	0.039062	-0.440186	-0.824219	-0.735637	-0.071797	0.066623	-0.670257
46695		4.248303	1.285131	9.177013	-0.183052	-1.500534	0.396927	0.009033	-0.430420	-0.828125	-0.732551	-0.078967	0.077452	-0.671666
46696		4.410846	0.971330	9.249881	-0.194147	-1.531698	0.309243	-0.013428	-0.421875	-0.826904	-0.729808	-0.086293	0.088453	-0.672391
46697		4.427329	0.160542	9.930588	-0.095620	-1.524503	0.196796	-0.035645	-0.416748	-0.826904	-0.727499	-0.094248	0.098749	-0.672392
46698		5.275146	-0.015609	10.241034	-0.040347	-1.481345	0.205923	-0.072021	-0.402832	-0.832764	-0.725009	-0.102269	0.108451	-0.672414
46699		4.766775	0.560557	10.523666	-0.137655	-1.493787	0.252865	-0.090332	-0.399170	-0.836182	-0.722208	-0.109710	0.118782	-0.672510
46700		5.104273	0.427814	10.619070	-0.218034	-1.517859	0.200766	-0.119629	-0.382568	-0.839355	-0.719627	-0.116829	0.129621	-0.672076
46701		5.178094	-0.243090	10.588923	-0.163944	-1.429208	0.111104	-0.138916	-0.376465	-0.843018	-0.717478	-0.123848	0.139496	-0.671140
46702		4.848330	-0.686048	10.913587	-0.145460	-1.450840	0.104982	-0.167480	-0.364014	-0.829834	-0.715212	-0.131078	0.149350	-0.670063
46703		5.633106	-0.549267	11.135965	-0.141179	-1.441608	0.196649	-0.190430	-0.357910	-0.829590	-0.712335	-0.138136	0.159184	-0.669446
46704		5.393247	0.338768	11.239510	-0.132433	-1.403693	0.271422	-0.216064	-0.348877	-0.839355	-0.708977	-0.144904	0.168788	-0.669227
46705		5.573841	0.679437	11.204324	-0.158240	-1.344989	0.192338	-0.238037	-0.343506	-0.830811	-0.706078	-0.151275	0.178050	-0.668482
46706		5.971637	0.403174	11.027739	-0.216097	-1.231337	0.101083	-0.259521	-0.327148	-0.822754	-0.703847	-0.156783	0.186808	-0.667174
46707		6.060389	0.164464	10.559005	-0.275684	-1.177430	0.102585	-0.270508	-0.320312	-0.821045	-0.701697	-0.161616	0.195546	-0.665781
46708		6.017801	0.454066	10.153650	-0.331223	-1.136668	0.101120	-0.302734	-0.297363	-0.822021	-0.699628	-0.165877	0.204317	-0.664274
46709		5.935740	0.182108	9.856212	-0.377568	-1.144267	0.068291	-0.322266	-0.290527	-0.812256	-0.697724	-0.169945	0.213308	-0.662419
46710		6.388952	-0.392467	9.534862	-0.308012	-1.085193	0.000397	-0.338379	-0.269287	-0.807373	-0.696139	-0.174191	0.221442	-0.660312
46711		6.949396	-0.559778	8.978724	-0.227810	-1.011773	0.006713	-0.357422	-0.266602	-0.803467	-0.694482	-0.178467	0.228690	-0.658442
46712		6.659546	0.040219	8.446099	-0.215718	-1.039544	0.070566	-0.367676	-0.259521	-0.803711	-0.692352	-0.182825	0.236103	-0.656871
46713		7.087424	0.089662	8.276877	-0.192081	-1.130974	0.086341	-0.398193	-0.245361	-0.795654	-0.689861	-0.187771	0.243910	-0.655242
46714		7.116682	0.219877	8.358493	-0.119451	-1.101599	0.029477	-0.409180	-0.234375	-0.788086	-0.687567	-0.193072	0.251034	-0.653420
46715		7.146235	0.066588	8.486495	-0.128767	-1.132886	0.035554	-0.435303	-0.221680	-0.782715	-0.685129	-0.198458	0.258369	-0.651504
46716		7.539359	-0.353956	8.274365	-0.078462	-1.084972	0.025606	-0.444824	-0.216553	-0.766357	-0.682708	-0.203873	0.265112	-0.649663
46717		7.327241	-0.268705	7.952490	-0.010644	-1.066220	0.041274	-0.472900	-0.213135	-0.754395	-0.680073	-0.209519	0.271382	-0.648039
46718		7.642230	-0.326262	7.721982	0.042245	-1.095503	0.064583	-0.484863	-0.213623	-0.755371	-0.677099	-0.215550	0.277547	-0.646562
46719		7.479855	-0.056513	7.949520	0.085919	-1.114503	0.081053	-0.522217	-0.193848	-0.738281	-0.673856	-0.221873	0.283586	-0.645190
46720		7.475971	0.183893	8.394310	0.055081	-1.134914	0.084933	-0.526123	-0.195557	-0.727051	-0.670542	-0.228100	0.289883	-0.643670
46721		7.544905	0.271195	8.785685	0.002520	-1.099416	0.059662	-0.551025	-0.194824	-0.725098	-0.667492	-0.233883	0.296185	-0.641894
46722		7.763684	0.286317	8.897009	-0.039785	-1.005787	0.003765	-0.567627	-0.186035	-0.709473	-0.665004	-0.239048	0.302055	-0.639835
46723		7.917005	0.197927	8.589543	-0.091726	-0.925498	-0.039330	-0.582031	-0.185059	-0.694336	-0.663010	-0.243587	0.307647	-0.637524
46724		8.058997	-0.080025	7.878145	-0.125022	-0.871348	-0.059094	-0.596191	-0.188232	-0.683838	-0.661290	-0.247690	0.313055	-0.635092
46725		7.787355	-0.201975	7.485428	-0.122629	-0.881858	-0.080909	-0.611084	-0.175293	-0.672363	-0.659618	-0.251903	0.318443	-0.632489
46726		7.953381	-0.481716	7.322867	-0.067117	-0.921025	-0.060198	-0.631836	-0.176270	-0.659424	-0.657580	-0.256558	0.323776	-0.630029
46727		8.050037	-0.393135	7.221946	0.063566	-0.909636	-0.030798	-0.646484	-0.175781	-0.644043	-0.655100	-0.261772	0.328403	-0.628069
46728		7.833792	0.145360	7.382794	0.125173	-0.939128	-0.023136	-0.663086	-0.183594	-0.635254	-0.652326	-0.267439	0.332864	-0.626218
46729		8.024381	0.293012	7.635347	0.107919	-0.956038	-0.068181	-0.674561	-0.177734	-0.615234	-0.649738	-0.273207	0.337382	-0.623997
46730		8.251980	0.150331	7.824118	0.095503	-0.913883	-0.106204	-0.692627	-0.183105	-0.598877	-0.647456	-0.278778	0.341626	-0.621591
46731		8.101959	-0.055976	7.783588	0.077945	-0.859986	-0.119305	-0.700928	-0.186279	-0.592285	-0.645568	-0.283874	0.345659	-0.619013
46732		8.083241	-0.308189	7.617708	0.088367	-0.824955	-0.119607	-0.714111	-0.199951	-0.580566	-0.643732	-0.288824	0.349434	-0.616511
46733		8.128030	-0.490628	7.422187	0.129480	-0.763923	-0.140441	-0.716553	-0.198975	-0.562744	-0.642029	-0.293743	0.352598	-0.614157
46734		7.909142	-0.446223	7.410732	0.104398	-0.717928	-0.153628	-0.736816	-0.208252	-0.543457	-0.640539	-0.298334	0.355591	-0.611769
46735		7.880172	-0.534840	7.715339	0.001032	-0.722892	-0.124412	-0.751221	-0.205566	-0.533691	-0.639048	-0.302350	0.359176	-0.609257
46736		8.143531	-0.728677	7.956256	-0.044973	-0.663086	-0.100508	-0.743164	-0.208008	-0.523682	-0.637688	-0.305749	0.362716	-0.606885
46737		7.972810	-0.469356	8.012776	-0.100335	-0.550742	-0.107054	-0.760986	-0.204834	-0.515625	-0.636845	-0.308278	0.365917	-0.604564
46738		7.841432	-0.444837	7.866419	-0.245084	-0.493337	-0.108233	-0.768555	-0.206299	-0.502441	-0.636511	-0.309768	0.369519	-0.601958
46739		7.859944	-0.870846	7.601691	-0.340128	-0.419456	-0.113453	-0.777832	-0.202393	-0.489990	-0.636634	-0.310412	0.373174	-0.599236
46740		7.897663	-1.124911	7.333281	-0.329906	-0.338359	-0.121213	-0.777344	-0.212646	-0.475830	-0.636979	-0.310744	0.376310	-0.596730
46741		7.882576	-1.148705	7.058541	-0.308091	-0.299142	-0.104828	-0.770264	-0.210449	-0.482422	-0.637274	-0.310959	0.379157	-0.594497
46742		7.897831	-1.073459	6.849913	-0.302442	-0.273628	-0.085951	-0.780029	-0.219971	-0.475830	-0.637576	-0.310980	0.381895	-0.592406
46743		7.995717	-0.882899	6.682881	-0.322813	-0.230683	-0.084869	-0.777100	-0.213379	-0.477539	-0.638028	-0.310693	0.384495	-0.590384
46744		7.949146	-0.691153	6.599052	-0.386446	-0.195596	-0.090158	-0.776611	-0.212402	-0.464355	-0.638796	-0.309891	0.387207	-0.588198
46745		8.114372	-0.636373	6.464856	-0.462834	-0.160183	-0.101522	-0.774902	-0.214844	-0.468262	-0.639896	-0.308561	0.390061	-0.585812
46746		8.233095	-0.439610	6.270667	-0.518213	-0.106404	-0.125562	-0.776855	-0.204834	-0.460449	-0.641432	-0.306734	0.392832	-0.583235
46747		8.238005	-0.297347	6.050673	-0.546930	-0.083267	-0.143238	-0.779541	-0.211670	-0.466309	-0.643239	-0.304652	0.395577	-0.580474
46748		8.221554	-0.355190	5.864917	-0.508236	-0.066338	-0.164586	-0.778076	-0.199219	-0.459717	-0.645031	-0.302810	0.397963	-0.577812
46749		8.352872	-0.548857	5.795144	-0.417935	-0.063153	-0.168010	-0.779053	-0.200928	-0.459961	-0.646674	-0.301394	0.399899	-0.575375
46750		8.361513	-0.496974	5.704621	-0.316760	-0.042395	-0.161231	-0.778076	-0.199951	-0.464355	-0.648019	-0.300457	0.401229	-0.573422
46751		8.297237	-0.362803	5.592265	-0.271857	-0.062736	-0.140475	-0.777344	-0.204102	-0.468018	-0.649090	-0.299780	0.402505	-0.571667
46752		8.352848	-0.454616	5.530223	-0.243917	-0.063295	-0.138960	-0.774902	-0.203369	-0.459717	-0.650086	-0.299244	0.403653	-0.570004
46753		8.368665	-0.498984	5.529043	-0.222111	-0.054647	-0.135584	-0.790283	-0.216064	-0.454102	-0.651093	-0.298725	0.404672	-0.568402
46754		8.453713	-0.605466	5.520660	-0.202925	-0.055030	-0.117327	-0.777832	-0.203125	-0.458740	-0.651850	-0.298344	0.405614	-0.567063
46755		8.535010	-0.769807	5.370994	-0.136838	-0.016971	-0.108755	-0.775635	-0.209229	-0.460449	-0.652641	-0.298017	0.406087	-0.565985
46756		8.277790	-0.691792	5.345353	-0.093576	-0.007901	-0.092045	-0.782959	-0.208984	-0.459961	-0.653275	-0.297826	0.406347	-0.565166
46757		8.424746	-0.915064	5.363909	-0.051615	-0.035878	-0.067764	-0.781738	-0.208496	-0.455566	-0.653513	-0.297983	0.406599	-0.564628
46758		8.606663	-0.945569	5.379873	0.021489	-0.016567	-0.036470	-0.778809	-0.211426	-0.459229	-0.653481	-0.298346	0.406478	-0.564561
46759		8.451173	-0.705566	5.353273	0.046265	-0.013220	0.000742	-0.786133	-0.203857	-0.460693	-0.653234	-0.298691	0.406317	-0.564779
46760		8.403235	-0.608838	5.342579	0.022224	-0.022482	0.004873	-0.775391	-0.211914	-0.448242	-0.652998	-0.298935	0.406330	-0.564914
46761		8.442497	-0.685896	5.364917	0.001669	-0.011257	-0.006851	-0.775391	-0.205566	-0.452148	-0.652983	-0.298988	0.406369	-0.564875
46762		8.517878	-0.694822	5.387375	-0.019687	0.000649	-0.000827	-0.775391	-0.212158	-0.453857	-0.653034	-0.298847	0.406458	-0.564827
46763		8.543627	-0.636275	5.334438	-0.025324	0.025238	0.017041	-0.776367	-0.206543	-0.454590	-0.653098	-0.298499	0.406484	-0.564918
46764		8.442419	-0.427598	5.217764	-0.032787	0.049213	0.014966	-0.774658	-0.212402	-0.455322	-0.653272	-0.298004	0.406408	-0.565033
46765		8.491048	-0.219229	5.106961	-0.053774	0.053776	0.002956	-0.775146	-0.204590	-0.462402	-0.653570	-0.297414	0.406376	-0.565022
46766		8.591284	-0.126846	5.016951	-0.076322	0.064248	-0.021025	-0.775146	-0.210449	-0.457520	-0.654072	-0.296734	0.406332	-0.564830
46767		8.671730	-0.235355	4.821954	-0.088849	0.088685	-0.057909	-0.778076	-0.210449	-0.456299	-0.654861	-0.295995	0.406122	-0.564454
46768		8.540493	-0.319363	4.641513	-0.096340	0.103246	-0.086831	-0.768311	-0.202881	-0.464111	-0.655853	-0.295245	0.405795	-0.563930
46769		8.499820	-0.398394	4.604046	-0.108467	0.084410	-0.094294	-0.767822	-0.211670	-0.464355	-0.656845	-0.294543	0.405609	-0.563276
46770		8.697931	-0.608708	4.547652	-0.083921	0.072319	-0.080815	-0.776855	-0.209473	-0.465088	-0.657671	-0.293987	0.405406	-0.562748
46771		8.731743	-0.614379	4.424005	-0.028624	0.075261	-0.059251	-0.770020	-0.206055	-0.468750	-0.658183	-0.293722	0.404960	-0.562610
46772		8.558689	-0.556107	4.404205	0.005797	0.058008	-0.044078	-0.764404	-0.199707	-0.463135	-0.658567	-0.293602	0.404506	-0.562549
46773		8.548614	-0.481471	4.457406	0.023637	0.013097	-0.024278	-0.767822	-0.207764	-0.465820	-0.658663	-0.293724	0.404264	-0.562548
46774		8.670039	-0.447848	4.589819	0.059859	0.002689	-0.002178	-0.770752	-0.210449	-0.462402	-0.658531	-0.294020	0.403964	-0.562763
46775		8.599931	-0.205860	4.710479	0.089139	0.007287	0.006778	-0.764160	-0.209961	-0.477051	-0.658300	-0.294425	0.403524	-0.563137
46776		8.523612	-0.148830	4.794296	0.095284	0.005015	-0.012121	-0.769043	-0.203857	-0.473877	-0.658135	-0.294939	0.403020	-0.563422
46777		8.588721	-0.204286	4.801460	0.095130	0.010511	-0.016001	-0.775146	-0.218018	-0.462891	-0.658007	-0.295441	0.402476	-0.563697
46778		8.482178	-0.358766	4.817339	0.122218	-0.000880	-0.014259	-0.777588	-0.212646	-0.466553	-0.657665	-0.296225	0.401848	-0.564132
46779		8.458236	-0.487370	4.898921	0.187089	-0.016274	-0.009560	-0.766602	-0.205811	-0.463867	-0.657100	-0.297411	0.401013	-0.564761
46780		8.448674	-0.440636	5.172744	0.239483	-0.025506	-0.001734	-0.777344	-0.211914	-0.466553	-0.656423	-0.298826	0.400020	-0.565505
46781		8.430611	-0.223405	5.421488	0.254113	-0.022356	0.010187	-0.775391	-0.223389	-0.462646	-0.655581	-0.300333	0.398950	-0.566438
46782		8.346238	-0.055781	5.697207	0.234856	-0.015959	0.008394	-0.772705	-0.218750	-0.461670	-0.654805	-0.301717	0.397926	-0.567320
46783		8.376493	-0.038815	5.850188	0.218169	0.018673	-0.022864	-0.769043	-0.219482	-0.465332	-0.654422	-0.302873	0.396730	-0.567983
46784		8.271790	-0.056788	5.905088	0.193808	0.057009	-0.061435	-0.778809	-0.224854	-0.455811	-0.654408	-0.303842	0.395340	-0.568451
46785		8.296109	-0.262949	5.916634	0.171073	0.071979	-0.077962	-0.766357	-0.231445	-0.461670	-0.654475	-0.304756	0.393906	-0.568880
46786		8.213301	-0.468238	5.957812	0.176238	0.083223	-0.070596	-0.778076	-0.230957	-0.463135	-0.654633	-0.305531	0.392426	-0.569305
46787		8.169060	-0.500537	5.992733	0.210559	0.098878	-0.059384	-0.765381	-0.230957	-0.461426	-0.654609	-0.306457	0.390702	-0.570020
46788		7.999757	-0.395956	6.207055	0.226636	0.095826	-0.046443	-0.766602	-0.233398	-0.467529	-0.654562	-0.307364	0.388969	-0.570771
46789		8.064821	-0.439076	6.597546	0.234700	0.098640	-0.018970	-0.777588	-0.232422	-0.478271	-0.654302	-0.308267	0.387232	-0.571762
46790		8.032924	-0.422846	6.940373	0.263310	0.147988	0.004655	-0.770752	-0.232666	-0.475342	-0.654022	-0.309003	0.385147	-0.573092
46791		7.978429	-0.318583	7.255126	0.276012	0.194049	0.028125	-0.770752	-0.240967	-0.483398	-0.653741	-0.309508	0.382805	-0.574706
46792		7.924297	-0.133184	7.437079	0.277733	0.253107	0.046215	-0.767822	-0.236816	-0.479248	-0.653563	-0.309669	0.380174	-0.576566
46793		7.623469	0.047470	7.629484	0.255621	0.288256	0.044407	-0.762695	-0.230713	-0.483154	-0.653546	-0.309548	0.377443	-0.578442
46794		7.657419	0.122840	7.865044	0.213207	0.326170	0.021765	-0.764893	-0.233887	-0.492676	-0.653872	-0.309070	0.374644	-0.580146
46795		7.843291	0.156380	8.127853	0.153170	0.378741	0.000579	-0.759521	-0.232422	-0.494873	-0.654619	-0.308067	0.371785	-0.581674
46796		7.980249	0.168526	8.208275	0.090446	0.454591	-0.000271	-0.759521	-0.232422	-0.514648	-0.655759	-0.306349	0.368803	-0.583194
46797		8.010615	0.132748	8.205664	0.085926	0.521941	-0.004447	-0.754639	-0.234863	-0.520264	-0.657153	-0.304264	0.365457	-0.584820
46798		7.951163	0.089103	8.240479	0.131553	0.570792	-0.003846	-0.749023	-0.224854	-0.524170	-0.658562	-0.302181	0.361608	-0.586705
46799		7.976797	-0.016061	8.419127	0.196745	0.616053	-0.005566	-0.739014	-0.224854	-0.536377	-0.659933	-0.300230	0.357173	-0.588879
46800		8.221737	0.010038	8.617672	0.234176	0.688703	-0.013717	-0.736328	-0.219727	-0.548828	-0.661464	-0.298125	0.352119	-0.591269
46801		8.232482	0.177860	8.679991	0.211130	0.765448	-0.003442	-0.729492	-0.224854	-0.564697	-0.663207	-0.295464	0.346762	-0.593813
46802		8.207377	0.298200	8.715378	0.171199	0.819669	-0.014327	-0.714111	-0.229980	-0.583252	-0.665243	-0.292318	0.341257	-0.596276
46803		8.029679	0.349082	8.908851	0.140699	0.890720	-0.046838	-0.710938	-0.226562	-0.596436	-0.667717	-0.288697	0.335411	-0.598588
46804		7.750011	0.288593	9.405580	0.119690	0.927100	-0.054953	-0.691406	-0.225342	-0.612549	-0.670341	-0.284783	0.329421	-0.600852
46805		7.999848	0.091981	10.011617	0.152250	0.995720	-0.048008	-0.673584	-0.233154	-0.630859	-0.673031	-0.280640	0.322877	-0.603341
46806		8.058046	0.113237	10.361126	0.186600	1.128843	-0.043526	-0.658447	-0.240479	-0.647705	-0.675959	-0.275954	0.315397	-0.606180
46807		8.106885	0.293434	10.471720	0.127878	1.278239	-0.088036	-0.636719	-0.237061	-0.668213	-0.679595	-0.270249	0.307232	-0.608872
46808		8.334164	0.184172	10.380477	-0.020343	1.380980	-0.102843	-0.614014	-0.243164	-0.685303	-0.683668	-0.263299	0.299135	-0.611384
46809		8.308960	-0.369325	9.860777	-0.073799	1.524399	-0.140345	-0.584961	-0.251221	-0.700195	-0.688303	-0.255363	0.290361	-0.613775
46810		7.726889	-0.419980	9.275572	-0.108870	1.591498	-0.157251	-0.567139	-0.250244	-0.722168	-0.693140	-0.246875	0.281293	-0.616022
46811		7.684607	-0.800759	9.045563	-0.178779	1.532347	-0.106566	-0.531982	-0.254883	-0.744141	-0.697600	-0.238122	0.272979	-0.618170
46812		7.844936	-1.173112	9.152206	-0.187029	1.508123	-0.049199	-0.501465	-0.252930	-0.756592	-0.701608	-0.229271	0.264917	-0.620484
46813		7.950948	-1.246520	9.498203	-0.176527	1.468597	0.065724	-0.478760	-0.268555	-0.763184	-0.704799	-0.220393	0.257212	-0.623319
46814		8.154281	-0.981129	9.834112	-0.046955	1.509843	0.155123	-0.447510	-0.258057	-0.777832	-0.707263	-0.211831	0.248716	-0.626935
46815		7.915097	-0.075637	9.955958	0.095371	1.583493	0.179231	-0.416504	-0.271240	-0.793701	-0.709378	-0.203635	0.239045	-0.631009
46816		7.543464	0.814129	9.955172	0.085415	1.625548	0.135903	-0.389160	-0.281494	-0.809570	-0.711689	-0.195208	0.229061	-0.634762
46817		7.493571	0.943716	9.783585	-0.027495	1.639842	0.053082	-0.354248	-0.289795	-0.812256	-0.714513	-0.186159	0.219410	-0.637711
46818		7.536778	0.599099	9.485553	-0.134842	1.662022	-0.022466	-0.322510	-0.302734	-0.819092	-0.717806	-0.176457	0.210038	-0.639923
46819		7.348462	0.252521	9.233966	-0.195236	1.662361	-0.064712	-0.290283	-0.300537	-0.828857	-0.721270	-0.166435	0.200884	-0.641650
46820		7.411462	0.056639	9.052492	-0.167935	1.638259	-0.041859	-0.264893	-0.309326	-0.824707	-0.724390	-0.156637	0.191726	-0.643401
46821		7.117330	0.235994	8.878114	-0.055452	1.637573	-0.017337	-0.229248	-0.317383	-0.842285	-0.727092	-0.147457	0.181969	-0.645354
46822		6.509813	0.453964	8.950635	0.004118	1.585555	-0.049307	-0.204834	-0.327148	-0.827148	-0.729678	-0.138943	0.172139	-0.647018
46823		6.392492	0.298608	9.275906	0.023052	1.530361	-0.082179	-0.177002	-0.339111	-0.848633	-0.732214	-0.130869	0.162479	-0.648334
46824		6.321632	0.141582	9.696277	0.059777	1.515467	-0.078592	-0.152344	-0.345947	-0.843994	-0.734549	-0.123078	0.152693	-0.649596
46825		6.268925	0.594319	9.732556	0.054830	1.577846	-0.085055	-0.123047	-0.358398	-0.846191	-0.736878	-0.114910	0.142524	-0.650764
46826		5.683016	0.951957	9.575045	-0.060287	1.567500	-0.132002	-0.097656	-0.358154	-0.849854	-0.739429	-0.106132	0.132978	-0.651382
46827		5.733662	0.519981	9.289726	-0.112433	1.558412	-0.208206	-0.073730	-0.364502	-0.843750	-0.742299	-0.097153	0.123683	-0.651349
46828		5.802335	0.571570	9.014140	-0.110390	1.590501	-0.240871	-0.042969	-0.379395	-0.844238	-0.745245	-0.088035	0.114136	-0.651024
46829		5.342628	0.943281	8.548563	-0.146835	1.562285	-0.234587	-0.020996	-0.380615	-0.843018	-0.748022	-0.078829	0.104953	-0.650565
46830		5.207013	0.918243	8.006948	-0.120465	1.504408	-0.245997	0.005615	-0.384277	-0.842773	-0.750665	-0.070105	0.095968	-0.649906
46831		4.821677	0.733003	7.644006	0.008376	1.460095	-0.291027	0.034912	-0.392090	-0.834229	-0.753320	-0.062460	0.086526	-0.648938
46832		4.817698	0.625710	7.394616	0.129832	1.416229	-0.331887	0.063965	-0.411133	-0.829102	-0.755987	-0.055842	0.076676	-0.647677
46833		4.619171	1.318306	7.178110	0.133402	1.362194	-0.319013	0.074707	-0.399170	-0.829102	-0.758440	-0.049530	0.067149	-0.646380
46834		4.045135	1.508676	6.801240	0.082954	1.244517	-0.341261	0.107666	-0.411377	-0.825195	-0.760871	-0.043549	0.058625	-0.644781
46835		3.745469	0.916206	6.709180	0.115669	1.171179	-0.445568	0.129395	-0.412109	-0.816650	-0.763728	-0.038224	0.050351	-0.642436
46836		4.041618	0.435380	6.604403	0.179185	1.141061	-0.495390	0.140381	-0.425537	-0.808838	-0.766734	-0.033489	0.041913	-0.639719
46837		3.692858	0.433764	6.295325	0.193301	1.108837	-0.453072	0.162842	-0.430908	-0.802246	-0.769419	-0.029006	0.033620	-0.637199
46838		3.137338	0.413125	5.786244	0.190449	1.008415	-0.417923	0.172852	-0.438232	-0.802246	-0.771819	-0.025031	0.026000	-0.634818
46839		2.980832	0.107828	5.528836	0.252769	0.904556	-0.416002	0.184814	-0.436035	-0.791260	-0.774111	-0.022011	0.018722	-0.632390
46840		2.797706	-0.187425	5.441335	0.346981	0.835209	-0.430998	0.208984	-0.443848	-0.792969	-0.776400	-0.019970	0.011398	-0.629821
46841		2.723442	0.011688	5.206426	0.322195	0.779705	-0.446851	0.221191	-0.450195	-0.788574	-0.778720	-0.018064	0.004568	-0.627095
46842		2.333015	0.116603	4.999614	0.172069	0.658601	-0.434011	0.240234	-0.458252	-0.779541	-0.780949	-0.015821	-0.000684	-0.624394
46843		2.259577	-0.288600	4.683576	0.115200	0.537592	-0.403524	0.248779	-0.454834	-0.773193	-0.782999	-0.013841	-0.004842	-0.621851
46844		2.373966	-0.529983	4.423866	0.172261	0.477708	-0.413392	0.258057	-0.456543	-0.772217	-0.785072	-0.012546	-0.008899	-0.619214
46845		2.209844	-0.385636	4.071746	0.173277	0.436689	-0.411754	0.259033	-0.462402	-0.768066	-0.787118	-0.011472	-0.012685	-0.616565
46846		1.713031	-0.503154	3.728848	0.109695	0.287456	-0.365598	0.269287	-0.462891	-0.759766	-0.788934	-0.010756	-0.015154	-0.614197
46847		1.624719	-0.835362	3.675037	0.123462	0.107144	-0.313932	0.270020	-0.470459	-0.760010	-0.790498	-0.011062	-0.016497	-0.612142
46848		1.860419	-1.324924	3.748917	0.195595	0.016206	-0.284616	0.271484	-0.466797	-0.763672	-0.791913	-0.012311	-0.017600	-0.610257
46849		1.730492	-1.693258	3.930822	0.183488	-0.036866	-0.266238	0.273682	-0.471924	-0.763916	-0.793238	-0.013753	-0.018280	-0.608482
46850		1.338205	-1.745142	4.210025	0.051249	-0.127365	-0.186278	0.276367	-0.468262	-0.764893	-0.794183	-0.014790	-0.017673	-0.607242
46851		1.508071	-1.977843	4.541128	-0.072680	-0.306632	-0.030180	0.276611	-0.463379	-0.757812	-0.794377	-0.015935	-0.015226	-0.607025
46852		1.536224	-2.244597	4.793513	0.040509	-0.331617	0.034692	0.266113	-0.467285	-0.769043	-0.794226	-0.017960	-0.013167	-0.607214
46853		1.399150	-2.115384	5.190798	0.082081	-0.391261	0.053565	0.263672	-0.466553	-0.776611	-0.793973	-0.020560	-0.010912	-0.607507
46854		1.945320	-2.365525	5.461427	-0.010448	-0.470110	0.140672	0.260254	-0.460938	-0.769775	-0.793291	-0.022951	-0.007642	-0.608361
46855		2.134955	-2.090997	5.528513	-0.087942	-0.526894	0.288003	0.247070	-0.456055	-0.772461	-0.791865	-0.025122	-0.003564	-0.610168
46856		1.912187	-1.253644	5.522240	-0.123619	-0.589609	0.373264	0.231689	-0.462158	-0.779541	-0.789992	-0.027375	0.001139	-0.612505
46857		1.895244	-0.512525	5.761178	-0.163712	-0.675235	0.356160	0.219238	-0.454834	-0.789062	-0.788183	-0.029799	0.006614	-0.614683
46858		2.357741	-0.308652	6.040656	-0.233654	-0.755095	0.336271	0.210205	-0.451904	-0.788086	-0.786452	-0.032172	0.012974	-0.616676
46859		2.722719	-0.593638	6.141457	-0.231608	-0.804329	0.328845	0.192139	-0.447266	-0.796143	-0.784710	-0.034813	0.019651	-0.618572
46860		2.966955	-0.385380	6.184644	-0.165478	-0.887585	0.379590	0.175781	-0.447266	-0.808105	-0.782625	-0.038305	0.026554	-0.620746
46861		2.914702	0.406345	6.420321	-0.140927	-0.986746	0.410769	0.159668	-0.441406	-0.805420	-0.780290	-0.042464	0.033993	-0.623048
46862		3.151326	0.737583	6.752269	-0.168611	-1.078589	0.384582	0.149902	-0.430176	-0.813232	-0.778005	-0.046926	0.042168	-0.625083
46863		3.065786	0.777620	7.187511	-0.187954	-1.128121	0.308377	0.125244	-0.426270	-0.819580	-0.776031	-0.051548	0.050737	-0.626534
46864		3.826383	0.350237	7.485734	-0.176741	-1.179699	0.271441	0.096191	-0.419434	-0.820312	-0.774142	-0.056527	0.059564	-0.627663
46865		4.408189	0.349828	7.336964	-0.092296	-1.173484	0.288814	0.078613	-0.417969	-0.833008	-0.772043	-0.062008	0.067918	-0.628881
46866		3.860756	1.191922	7.329573	-0.087514	-1.270509	0.286526	0.060303	-0.411377	-0.829590	-0.769811	-0.068026	0.076869	-0.629964
46867		4.005446	1.506352	7.758468	-0.107149	-1.431486	0.243736	0.035889	-0.409424	-0.845215	-0.767606	-0.074787	0.086923	-0.630581
46868		4.438470	1.120290	8.566109	0.002663	-1.520150	0.210143	0.009033	-0.400391	-0.845459	-0.765321	-0.082733	0.096934	-0.630906
46869		4.392072	0.906515	9.467249	0.161931	-1.510630	0.138803	-0.012451	-0.403076	-0.840576	-0.763181	-0.091692	0.105981	-0.630805
46870		4.760419	0.822800	10.291199	0.174152	-1.488464	0.060051	-0.040527	-0.395020	-0.848877	-0.761339	-0.100668	0.114745	-0.630129
46871		5.145599	1.189794	10.692300	-0.012566	-1.432815	0.023918	-0.065186	-0.387207	-0.843506	-0.759778	-0.108188	0.124087	-0.628996
46872		4.878968	0.997588	10.453706	-0.224936	-1.405975	0.000528	-0.093506	-0.384766	-0.840088	-0.758447	-0.114232	0.134330	-0.627427
46873		4.782466	-0.489706	10.033917	-0.141432	-1.364878	-0.076679	-0.113525	-0.378662	-0.854248	-0.757381	-0.120659	0.143780	-0.625414
46874		5.154249	-1.640442	10.070810	0.122153	-1.341622	-0.066428	-0.139893	-0.373779	-0.851318	-0.755922	-0.128596	0.151699	-0.623724
46875		5.711137	-1.194579	10.261148	0.275920	-1.347206	0.147746	-0.159424	-0.365234	-0.839600	-0.753077	-0.137235	0.159064	-0.623490
46876		5.440744	0.056787	10.607502	0.193301	-1.348192	0.296619	-0.187988	-0.362793	-0.843750	-0.749447	-0.145138	0.167014	-0.623996
46877		5.587515	0.946092	10.612104	0.001199	-1.290246	0.253055	-0.205078	-0.357910	-0.838135	-0.746257	-0.151578	0.175522	-0.623952
46878		5.441190	0.263566	10.398655	-0.139936	-1.227546	0.151529	-0.220947	-0.339600	-0.841553	-0.743779	-0.156942	0.184219	-0.623078
46879		6.201020	-0.837950	9.989458	-0.064716	-1.139192	0.119487	-0.243408	-0.331055	-0.833740	-0.741427	-0.162343	0.191911	-0.622174
46880		6.357240	-0.296483	9.466517	0.003803	-1.089003	0.258903	-0.273682	-0.322266	-0.827393	-0.738272	-0.167664	0.199107	-0.622253
46881		6.040218	0.701891	9.234500	-0.052377	-1.150539	0.358399	-0.300049	-0.323730	-0.822510	-0.734506	-0.172774	0.207091	-0.622706
46882		6.214639	1.393809	9.431832	-0.125032	-1.163346	0.268909	-0.321045	-0.308105	-0.821533	-0.731212	-0.177640	0.215374	-0.622405
46883		6.614501	1.009535	9.519375	-0.204827	-1.112996	0.132125	-0.338867	-0.297363	-0.816406	-0.728764	-0.181986	0.223535	-0.621141
46884		6.821080	0.275127	9.139784	-0.193375	-1.053419	0.116740	-0.358887	-0.273193	-0.818848	-0.726427	-0.186105	0.231226	-0.619842
46885		6.920900	0.051516	8.510980	-0.062507	-1.061357	0.208344	-0.370361	-0.278320	-0.806641	-0.723338	-0.190864	0.238408	-0.619286
46886		6.507769	0.706290	8.369547	0.112368	-1.075912	0.231533	-0.392090	-0.269531	-0.794189	-0.719760	-0.196688	0.244790	-0.619142
46887		6.764746	1.277345	8.758319	0.144127	-1.145444	0.192824	-0.426514	-0.267334	-0.795410	-0.716123	-0.203120	0.251334	-0.618661
46888		7.209944	1.123367	9.199721	0.111356	-1.089682	0.090737	-0.443359	-0.263428	-0.785400	-0.713118	-0.209265	0.257513	-0.617542
46889		7.403177	0.930652	9.180891	-0.013284	-1.021443	0.036640	-0.460693	-0.260254	-0.768555	-0.710700	-0.214416	0.263807	-0.615903
46890		7.162179	0.517380	8.635927	-0.090300	-0.988322	0.057172	-0.487061	-0.241211	-0.771240	-0.708336	-0.218880	0.270313	-0.614233
46891		7.108495	0.094185	8.222093	-0.003889	-0.986357	0.064341	-0.495850	-0.236572	-0.750244	-0.705734	-0.223811	0.276355	-0.612761
46892		7.145838	0.140029	8.176644	0.127835	-0.955983	0.032477	-0.515625	-0.233887	-0.747559	-0.703071	-0.229417	0.281465	-0.611422
46893		7.569719	-0.014223	8.139591	0.157856	-0.960910	0.062816	-0.535400	-0.231445	-0.737305	-0.700138	-0.235136	0.286487	-0.610282
46894		7.637888	0.031195	8.057475	0.165434	-0.943186	0.086647	-0.550293	-0.235352	-0.717529	-0.697065	-0.240734	0.291391	-0.609294
46895		7.700675	0.508659	8.040505	0.112269	-0.948413	0.088916	-0.570801	-0.224854	-0.717773	-0.694029	-0.246026	0.296580	-0.608141
46896		7.855437	0.714286	8.072288	0.021692	-0.949960	0.057892	-0.588135	-0.222168	-0.698975	-0.691288	-0.250862	0.302150	-0.606543
46897		7.886226	0.507328	7.917511	-0.012504	-0.876237	-0.025137	-0.602783	-0.223633	-0.691162	-0.689184	-0.255322	0.307273	-0.604500
46898		7.863856	0.192879	7.631451	-0.050815	-0.849670	-0.048256	-0.619385	-0.222168	-0.674561	-0.687309	-0.259472	0.312367	-0.602251
46899		8.092409	-0.174920	7.388948	-0.071972	-0.827178	-0.033679	-0.620605	-0.233398	-0.668213	-0.685433	-0.263336	0.317453	-0.600050
46900		8.100402	-0.407640	7.103207	-0.032566	-0.817399	-0.003044	-0.651611	-0.218994	-0.656494	-0.683309	-0.267281	0.322335	-0.598121
46901		8.210996	-0.503174	6.807825	0.062363	-0.822001	0.037737	-0.666992	-0.221191	-0.643555	-0.680726	-0.271665	0.326846	-0.596642
46902		8.299541	-0.420227	6.507318	0.201383	-0.825652	0.094885	-0.675293	-0.227539	-0.617188	-0.677702	-0.276510	0.330825	-0.595666
46903		8.140192	-0.216033	6.338710	0.332722	-0.838527	0.122011	-0.689453	-0.227295	-0.613770	-0.674101	-0.282128	0.334263	-0.595198
46904		8.128051	0.075656	6.428662	0.382509	-0.863983	0.128236	-0.701416	-0.240234	-0.601318	-0.670252	-0.288104	0.337593	-0.594802
46905		7.965749	0.671000	6.827248	0.296208	-0.886932	0.124129	-0.718994	-0.233398	-0.585938	-0.666509	-0.293718	0.341448	-0.594061
46906		7.892533	0.860424	7.428425	0.120548	-0.908320	0.120237	-0.736328	-0.233887	-0.569824	-0.663074	-0.298488	0.346252	-0.592746
46907		8.128138	0.791437	7.828720	0.046916	-0.833074	0.071222	-0.739014	-0.232666	-0.551514	-0.660204	-0.302639	0.350852	-0.591137
46908		8.169398	0.874947	7.971362	0.023743	-0.716980	0.005407	-0.753418	-0.232422	-0.541260	-0.658014	-0.306282	0.354741	-0.589379
46909		8.060224	0.721949	7.831796	-0.027256	-0.633208	-0.035424	-0.749268	-0.240234	-0.523926	-0.656359	-0.309363	0.358296	-0.587462
46910		8.163986	0.257297	7.689907	-0.033661	-0.587534	-0.064675	-0.762207	-0.242432	-0.515381	-0.654971	-0.312273	0.361541	-0.585479
46911		8.299217	0.037231	7.533147	0.011651	-0.528593	-0.080197	-0.770508	-0.248047	-0.501709	-0.653684	-0.315200	0.364188	-0.583706
46912		8.304146	-0.014541	7.380759	0.027540	-0.481753	-0.076173	-0.770020	-0.243652	-0.488525	-0.652436	-0.317991	0.366497	-0.582141
46913		8.411411	-0.193019	7.046393	0.042156	-0.438669	-0.083102	-0.777344	-0.257568	-0.485107	-0.651298	-0.320673	0.368472	-0.580696
46914		8.251248	-0.227148	6.744285	0.032492	-0.377807	-0.110224	-0.787354	-0.249512	-0.471436	-0.650492	-0.323090	0.370082	-0.579235
46915		8.076609	-0.251946	6.621704	-0.040917	-0.381789	-0.115477	-0.787598	-0.260742	-0.472412	-0.649859	-0.325164	0.372044	-0.577525
46916		8.226644	-0.429791	6.652169	-0.113857	-0.390489	-0.099067	-0.774658	-0.267578	-0.460693	-0.649328	-0.326814	0.374442	-0.575637
46917		8.262270	-0.271467	6.723243	-0.165478	-0.342464	-0.104070	-0.790039	-0.265381	-0.461426	-0.649111	-0.327959	0.376808	-0.573684
46918		8.268693	-0.080352	6.707444	-0.268222	-0.281623	-0.126063	-0.787598	-0.260498	-0.447754	-0.649459	-0.328327	0.379268	-0.571455
46919		8.132417	-0.205859	6.595186	-0.391072	-0.226423	-0.147631	-0.791504	-0.260498	-0.445312	-0.650393	-0.327845	0.381945	-0.568880
46920		8.038625	-0.445145	6.498803	-0.464648	-0.187392	-0.141464	-0.788574	-0.272461	-0.441406	-0.651608	-0.326758	0.384766	-0.566208
46921		8.127526	-0.669956	6.423579	-0.458111	-0.143806	-0.112381	-0.792725	-0.266113	-0.439209	-0.652786	-0.325409	0.387386	-0.563836
46922		8.258608	-0.619818	6.271304	-0.397081	-0.082660	-0.079060	-0.791504	-0.255371	-0.432861	-0.653826	-0.323996	0.389470	-0.562006
46923		8.233913	-0.312490	5.995898	-0.380924	-0.024013	-0.063328	-0.791748	-0.260986	-0.437744	-0.654927	-0.322346	0.391196	-0.560472
46924		8.215821	-0.132268	5.703970	-0.433776	-0.000675	-0.065233	-0.783936	-0.266846	-0.441162	-0.656252	-0.320297	0.393031	-0.558811
46925		8.280435	-0.193944	5.573943	-0.486042	-0.010150	-0.068473	-0.781982	-0.252197	-0.445312	-0.657702	-0.318002	0.395145	-0.556923
46926		8.489112	-0.416665	5.497324	-0.471109	0.000252	-0.047088	-0.783936	-0.247559	-0.447998	-0.659057	-0.315649	0.397189	-0.555203
46927		8.405483	-0.394355	5.388590	-0.394634	0.025793	-0.017492	-0.786377	-0.252441	-0.446289	-0.660151	-0.313496	0.398811	-0.553960
46928		8.506120	-0.365971	5.264635	-0.300364	0.025395	0.018798	-0.791992	-0.248779	-0.450928	-0.660807	-0.311754	0.400088	-0.553239
46929		8.531658	-0.222972	5.195537	-0.197064	0.038722	0.039150	-0.788330	-0.244385	-0.449219	-0.661144	-0.310449	0.400867	-0.553006
46930		8.437886	-0.080634	5.134324	-0.130557	0.024260	0.051689	-0.790039	-0.237061	-0.451904	-0.661202	-0.309535	0.401451	-0.553026
46931		8.417948	0.066651	5.206942	-0.088093	0.001579	0.048747	-0.782227	-0.233154	-0.451416	-0.661095	-0.308962	0.401958	-0.553105
46932		8.545871	0.210259	5.356898	-0.068977	-0.004840	0.055585	-0.782227	-0.234863	-0.453369	-0.660897	-0.308491	0.402431	-0.553260
46933		8.631142	0.329170	5.407670	-0.056767	0.023856	0.038847	-0.784424	-0.236572	-0.455322	-0.660844	-0.308010	0.402645	-0.553436
46934		8.581986	0.325761	5.240690	-0.059072	0.062366	0.006986	-0.782471	-0.241455	-0.449951	-0.661072	-0.307446	0.402574	-0.553529
46935		8.532463	0.174579	5.035011	-0.072863	0.072765	-0.025402	-0.784180	-0.231934	-0.453369	-0.661502	-0.306883	0.402422	-0.553438
46936		8.551347	-0.054466	4.957117	-0.070900	0.062457	-0.025277	-0.774902	-0.239258	-0.454834	-0.661902	-0.306369	0.402320	-0.553319
46937		8.578857	-0.020032	4.970923	-0.045242	0.060398	-0.024512	-0.771973	-0.235352	-0.453369	-0.662233	-0.305998	0.402112	-0.553279
46938		8.508935	0.206628	5.022287	-0.062791	0.059917	-0.028960	-0.778076	-0.232178	-0.452637	-0.662629	-0.305546	0.401977	-0.553154
46939		8.597055	0.112560	5.003775	-0.094215	0.056658	-0.046508	-0.775635	-0.233398	-0.462891	-0.663164	-0.305004	0.401958	-0.552825
46940		8.606402	-0.054240	4.954104	-0.075016	0.073060	-0.052308	-0.775879	-0.229736	-0.468262	-0.663754	-0.304492	0.401748	-0.552552
46941		8.546851	-0.164065	4.881628	-0.024072	0.076121	-0.048861	-0.773682	-0.234375	-0.459473	-0.664219	-0.304227	0.401296	-0.552467
46942		8.583139	-0.208046	4.891964	0.034851	0.070198	-0.031728	-0.780273	-0.234131	-0.462646	-0.664414	-0.304278	0.400645	-0.552678
46943		8.495258	-0.158516	4.998063	0.074745	0.065517	-0.011456	-0.777344	-0.238525	-0.467041	-0.664395	-0.304507	0.399888	-0.553123
46944		8.460708	-0.107219	5.169815	0.087098	0.054298	0.003189	-0.775879	-0.227051	-0.458252	-0.664248	-0.304798	0.399173	-0.553655
46945		8.601795	-0.061466	5.353619	0.097746	0.078066	0.008890	-0.779297	-0.229004	-0.466309	-0.664117	-0.305028	0.398292	-0.554319
46946		8.514555	0.076340	5.329566	0.085985	0.119011	0.005324	-0.771973	-0.239746	-0.468506	-0.664178	-0.305006	0.397229	-0.555021
46947		8.412494	-0.020648	5.156580	0.075276	0.123787	-0.008503	-0.784180	-0.231934	-0.467041	-0.664348	-0.304944	0.396152	-0.555620
46948		8.400378	-0.056661	5.160455	0.078339	0.118701	-0.016679	-0.773193	-0.235107	-0.475586	-0.664515	-0.304964	0.395067	-0.556183
46949		8.341181	-0.045099	5.256060	0.086258	0.108089	-0.011037	-0.770020	-0.231689	-0.473877	-0.664626	-0.305034	0.394019	-0.556755
46950		8.183009	-0.055176	5.453315	0.090466	0.099265	-0.007872	-0.773682	-0.234375	-0.479004	-0.664682	-0.305157	0.393008	-0.557334
46951		8.227346	-0.156543	5.728482	0.122624	0.101465	-0.002826	-0.770508	-0.237549	-0.477539	-0.664641	-0.305429	0.391847	-0.558051
46952		8.234474	-0.155857	6.003190	0.187703	0.108644	0.021848	-0.773193	-0.239990	-0.471191	-0.664339	-0.305948	0.390403	-0.559137
46953		8.224439	-0.075285	6.278633	0.283341	0.130007	0.042518	-0.770508	-0.240723	-0.478271	-0.663743	-0.306846	0.388442	-0.560718
46954		8.039944	0.207543	6.611519	0.346943	0.171675	0.046089	-0.769043	-0.245605	-0.488037	-0.663113	-0.307869	0.385958	-0.562613
46955		8.027132	0.370949	6.928021	0.331153	0.189675	0.030274	-0.772217	-0.238037	-0.484131	-0.662668	-0.308752	0.383403	-0.564399
46956		8.074134	0.403188	7.268538	0.288936	0.220379	0.019642	-0.762207	-0.241455	-0.485596	-0.662461	-0.309297	0.380842	-0.566074
46957		7.963697	0.317586	7.464316	0.271572	0.263836	0.015316	-0.766113	-0.245605	-0.496826	-0.662461	-0.309543	0.378104	-0.567772
46958		8.003988	0.203793	7.639386	0.289172	0.325145	-0.004185	-0.759033	-0.243896	-0.501953	-0.662704	-0.309644	0.374886	-0.569566
46959		8.016878	0.199245	7.699496	0.289202	0.405262	-0.022527	-0.761963	-0.242920	-0.513428	-0.663285	-0.309404	0.371169	-0.571450
46960		7.751233	0.087023	7.781562	0.240713	0.440287	-0.011469	-0.757568	-0.242188	-0.516357	-0.664044	-0.308682	0.367509	-0.573322
46961		7.736319	-0.196981	7.928841	0.217034	0.461086	0.007650	-0.759277	-0.240234	-0.523438	-0.664823	-0.307664	0.363885	-0.575275
46962		7.806530	-0.331203	8.123532	0.257539	0.515218	0.025360	-0.744141	-0.241455	-0.527344	-0.665560	-0.306551	0.359800	-0.577581
46963		7.756748	-0.120298	8.440645	0.272411	0.567957	0.046832	-0.747803	-0.245117	-0.548340	-0.666308	-0.305182	0.355393	-0.580167
46964		7.896820	0.220413	8.748672	0.222234	0.615146	0.056573	-0.735107	-0.239014	-0.562744	-0.667275	-0.303249	0.350979	-0.582751
46965		7.852711	0.465995	9.149072	0.163974	0.669442	0.075158	-0.721924	-0.254639	-0.562744	-0.668463	-0.300637	0.346578	-0.585370
46966		7.991063	0.542604	9.593629	0.152070	0.716126	0.075062	-0.727783	-0.238037	-0.583008	-0.669785	-0.297726	0.341957	-0.588059
46967		8.064427	0.718219	9.629793	0.168441	0.893343	-0.006802	-0.710938	-0.233887	-0.600098	-0.671950	-0.294245	0.336039	-0.590746
46968		7.829913	0.985877	9.696770	0.044293	0.962135	-0.063264	-0.688965	-0.244629	-0.616943	-0.674878	-0.289841	0.330184	-0.592883
46969		7.976676	0.662427	9.826346	-0.067715	1.002387	-0.074485	-0.676758	-0.234863	-0.627441	-0.678234	-0.284585	0.324604	-0.594679
46970		8.215511	0.593216	10.269869	-0.035995	1.070037	-0.061981	-0.656982	-0.236572	-0.654053	-0.681584	-0.279112	0.318482	-0.596748
46971		8.144965	0.750924	10.696244	0.053350	1.182042	-0.059367	-0.641113	-0.246338	-0.665527	-0.684837	-0.273657	0.311243	-0.599365
46972		8.190388	0.867147	10.681861	0.103655	1.342290	-0.119309	-0.618164	-0.250732	-0.692871	-0.688610	-0.267810	0.302660	-0.602072
46973		7.857453	1.139947	10.486824	-0.006361	1.431074	-0.181059	-0.594482	-0.247803	-0.704346	-0.693067	-0.261002	0.293935	-0.604266
46974		8.178956	0.582656	10.046653	-0.162912	1.476986	-0.213130	-0.563721	-0.256836	-0.723633	-0.698032	-0.253096	0.285615	-0.605903
46975		8.151211	0.017254	9.740377	-0.215747	1.515236	-0.217161	-0.532227	-0.262939	-0.736572	-0.703103	-0.244655	0.277282	-0.607376
46976		8.357068	-0.348029	9.499230	-0.184736	1.538697	-0.188232	-0.515625	-0.266846	-0.753174	-0.707898	-0.236165	0.268666	-0.609036
46977		8.075590	-0.207002	9.552831	-0.114920	1.556873	-0.122454	-0.475098	-0.269043	-0.775635	-0.712139	-0.227804	0.259674	-0.611174
46978		8.205146	-0.085166	9.598903	-0.038286	1.560930	-0.077770	-0.446289	-0.280762	-0.778320	-0.715891	-0.219738	0.250310	-0.613645
46979		8.068130	0.598477	9.676405	-0.055366	1.633905	-0.130408	-0.414551	-0.285400	-0.789551	-0.719965	-0.211266	0.240458	-0.615790
46980		7.834831	1.008003	9.721871	-0.269365	1.605329	-0.148241	-0.397949	-0.295410	-0.807861	-0.724313	-0.201652	0.231801	-0.617232
46981		8.111821	0.446205	9.540283	-0.359667	1.623485	-0.171634	-0.359131	-0.307617	-0.817139	-0.728828	-0.191406	0.223417	-0.618271
46982		7.810923	0.358530	9.157978	-0.295290	1.712753	-0.222219	-0.316406	-0.313477	-0.829590	-0.733516	-0.181145	0.214037	-0.619136
46983		7.222059	0.247379	9.058290	-0.289442	1.645242	-0.204020	-0.284424	-0.312500	-0.829102	-0.737827	-0.171199	0.205026	-0.619892
46984		7.792262	-0.202500	8.997123	-0.204168	1.638552	-0.167833	-0.260742	-0.326904	-0.846436	-0.741674	-0.161717	0.195633	-0.620883
46985		7.166833	0.524723	9.044624	-0.173094	1.664753	-0.142115	-0.220459	-0.328857	-0.848389	-0.745242	-0.152218	0.185920	-0.621995
46986		6.965781	0.653251	8.827417	-0.251850	1.626433	-0.150657	-0.193115	-0.328857	-0.848389	-0.748750	-0.142415	0.176810	-0.622759
46987		6.875569	0.634083	8.740354	-0.288489	1.616555	-0.196337	-0.159424	-0.343018	-0.855713	-0.752381	-0.132476	0.167870	-0.623051
46988		6.584220	0.351458	8.493582	-0.261819	1.603531	-0.214809	-0.141113	-0.340088	-0.858887	-0.755917	-0.122775	0.158827	-0.623129
46989		6.272774	0.119053	8.377144	-0.180792	1.562870	-0.213554	-0.103760	-0.358154	-0.850830	-0.759172	-0.113775	0.149597	-0.623164
46990		6.114049	0.238032	8.348041	-0.091351	1.518894	-0.181174	-0.080322	-0.359131	-0.857666	-0.761992	-0.105512	0.140193	-0.623364
46991		5.699006	0.698833	8.462608	-0.069177	1.481918	-0.160561	-0.056152	-0.369385	-0.847656	-0.764520	-0.097544	0.130910	-0.623584
46992		5.502360	0.695315	8.465611	-0.086282	1.454319	-0.202297	-0.017822	-0.371338	-0.855469	-0.767132	-0.089644	0.121843	-0.623399
46993		5.370411	0.575394	8.436529	-0.095164	1.438359	-0.242161	-0.001709	-0.369873	-0.851318	-0.769828	-0.081802	0.112882	-0.622841
46994		5.235153	0.735138	8.288976	-0.111755	1.406072	-0.218832	0.023193	-0.380859	-0.856934	-0.772273	-0.073991	0.104218	-0.622301
46995		4.712132	0.890303	8.070359	-0.084520	1.360222	-0.219715	0.052002	-0.383545	-0.851074	-0.774561	-0.066588	0.095700	-0.621662
46996		4.541163	1.122632	7.844593	0.015933	1.338126	-0.292866	0.066650	-0.395996	-0.845459	-0.777054	-0.060003	0.086754	-0.620533
46997		4.199231	1.132130	7.732376	0.062441	1.261930	-0.333423	0.092041	-0.392090	-0.826172	-0.779582	-0.054140	0.078035	-0.619056
46998		4.061258	0.604852	7.745934	0.119194	1.187242	-0.372449	0.117432	-0.407471	-0.835449	-0.782151	-0.049056	0.069486	-0.617256
46999		4.112610	0.622661	7.824947	0.167290	1.147919	-0.360449	0.139893	-0.410400	-0.822510	-0.784534	-0.044479	0.060948	-0.615478
47000		3.826103	1.058541	7.757260	0.160460	1.113476	-0.318659	0.158203	-0.411621	-0.822021	-0.786613	-0.040014	0.052684	-0.613892
47001		3.222930	1.539079	7.736292	0.126860	1.051070	-0.341395	0.167480	-0.418945	-0.818359	-0.788722	-0.035659	0.044994	-0.612064
47002		3.113204	1.380720	7.631366	0.161892	1.017945	-0.420554	0.193604	-0.416992	-0.815918	-0.791145	-0.031737	0.037317	-0.609664
47003		2.779264	1.125900	7.637678	0.222068	0.964414	-0.469844	0.206543	-0.438721	-0.810059	-0.793721	-0.028501	0.029674	-0.606889
47004		2.632849	0.752478	7.589359	0.295013	0.914120	-0.490835	0.223877	-0.430176	-0.794189	-0.796309	-0.026009	0.021991	-0.603930
47005		2.614050	0.906516	7.414656	0.325425	0.872976	-0.476614	0.235840	-0.439453	-0.791016	-0.798751	-0.023926	0.014432	-0.601013
47006		2.217225	0.993352	7.084691	0.305694	0.832237	-0.493501	0.248291	-0.444824	-0.773193	-0.801218	-0.021920	0.007241	-0.597927
47007		2.158496	0.604436	6.703180	0.284463	0.809113	-0.537508	0.271729	-0.447754	-0.780273	-0.803852	-0.019893	0.000305	-0.594497
47008		2.143300	-0.148409	6.181965	0.281813	0.784557	-0.548197	0.274170	-0.458008	-0.768311	-0.806483	-0.017972	-0.006452	-0.590949
47009		1.988513	-0.636268	5.598047	0.300737	0.758283	-0.539413	0.291748	-0.464600	-0.770020	-0.809017	-0.016308	-0.013120	-0.587413
47010		1.899349	-0.823719	4.945846	0.261653	0.688700	-0.475019	0.303955	-0.460449	-0.760498	-0.811201	-0.014729	-0.019113	-0.584269
47011		1.283536	-0.951040	4.560133	0.178772	0.545755	-0.406801	0.322510	-0.465332	-0.751465	-0.813052	-0.013297	-0.023721	-0.581555
47012		1.594669	-1.421984	4.158297	0.121359	0.441434	-0.339755	0.330811	-0.455811	-0.749756	-0.814583	-0.011993	-0.027332	-0.579278
47013		1.492691	-1.532538	3.832683	0.096937	0.407821	-0.286573	0.336914	-0.461182	-0.752686	-0.815853	-0.010697	-0.030585	-0.577351
47014		1.135077	-1.531796	3.565765	0.015958	0.295984	-0.201295	0.339355	-0.464844	-0.756104	-0.816739	-0.009409	-0.032674	-0.576005
47015		1.403529	-1.603546	3.420880	-0.030330	0.156623	-0.114741	0.341553	-0.458496	-0.739502	-0.817247	-0.008497	-0.033581	-0.575246
47016		1.532446	-1.384676	3.337572	0.007042	0.065483	-0.033276	0.342773	-0.465820	-0.739258	-0.817388	-0.008297	-0.034034	-0.575022
47017		1.135670	-1.122597	3.199176	0.012748	-0.033973	-0.029506	0.342529	-0.463867	-0.735596	-0.817540	-0.008612	-0.033831	-0.574813
47018		0.815459	-1.932017	3.557324	-0.031374	-0.230972	-0.055668	0.336670	-0.467285	-0.740723	-0.817875	-0.009563	-0.032071	-0.574421
47019		1.520798	-2.566335	4.262025	0.025117	-0.363383	0.037733	0.337646	-0.463623	-0.753418	-0.817790	-0.011553	-0.029667	-0.574636
47020		1.484424	-2.151619	4.751816	0.098434	-0.407424	0.186893	0.327148	-0.468262	-0.753174	-0.816985	-0.014287	-0.027290	-0.575836
47021		1.075609	-1.551530	5.029477	0.046432	-0.482125	0.234355	0.313477	-0.467285	-0.750000	-0.815962	-0.017033	-0.024142	-0.577349
47022		1.378468	-1.693853	5.368014	-0.048670	-0.577801	0.236702	0.316162	-0.462402	-0.755371	-0.814943	-0.019590	-0.019880	-0.578869
47023		1.761783	-2.046268	5.636951	-0.072247	-0.621115	0.287351	0.292969	-0.465088	-0.771973	-0.813665	-0.022200	-0.015194	-0.580711
47024		1.766444	-1.936363	5.642474	-0.037652	-0.667532	0.353659	0.284424	-0.469727	-0.769043	-0.812038	-0.025274	-0.010340	-0.582965
47025		2.061444	-1.411202	5.645969	-0.061435	-0.728062	0.411015	0.274902	-0.463379	-0.771484	-0.810107	-0.028482	-0.004942	-0.585569
47026		2.120089	-0.891750	5.626666	-0.135297	-0.803121	0.460530	0.265381	-0.463867	-0.777344	-0.807911	-0.031556	0.001344	-0.588458
47027		2.014274	-0.481554	5.861292	-0.189582	-0.930966	0.487569	0.242188	-0.452148	-0.789795	-0.805539	-0.034887	0.008770	-0.591450
47028		2.649353	-0.679489	6.135986	-0.165816	-1.013415	0.493068	0.223389	-0.456543	-0.796875	-0.803058	-0.038781	0.016638	-0.594405
47029		3.015749	-0.488150	6.598263	-0.154837	-1.043749	0.487281	0.205566	-0.446533	-0.805176	-0.800524	-0.042894	0.024659	-0.597254
47030		3.250852	-0.006111	6.966259	-0.274424	-1.106558	0.521358	0.185547	-0.443604	-0.812744	-0.797770	-0.046512	0.033710	-0.600220
47031		3.365893	0.523305	7.155032	-0.459836	-1.199377	0.550159	0.163574	-0.430908	-0.817871	-0.794819	-0.049348	0.044320	-0.603211
47032		3.749181	0.370266	7.168414	-0.482830	-1.239767	0.509004	0.141602	-0.421387	-0.823486	-0.791959	-0.052245	0.055295	-0.605816
47033		3.876768	0.161881	7.297316	-0.345512	-1.258837	0.447842	0.121338	-0.416504	-0.822266	-0.789231	-0.056167	0.065673	-0.607986
47034		4.185748	-0.224082	7.668016	-0.198780	-1.348195	0.461324	0.090088	-0.415283	-0.836914	-0.786207	-0.061492	0.075899	-0.610194
47035		4.512130	-0.060077	8.407804	-0.099124	-1.420579	0.520265	0.060303	-0.413818	-0.833496	-0.782665	-0.067792	0.086118	-0.612718
47036		4.913514	0.619908	8.918966	-0.088955	-1.455987	0.571754	0.043701	-0.389404	-0.845459	-0.778699	-0.074292	0.096535	-0.615459
47037		4.905068	1.266154	9.267695	-0.143895	-1.498290	0.605817	0.013672	-0.388672	-0.845459	-0.774418	-0.080612	0.107517	-0.618239
47038		5.096362	0.637189	9.253916	-0.085663	-1.479287	0.517996	-0.016357	-0.376221	-0.851807	-0.770427	-0.087276	0.118001	-0.620404
47039		5.179904	0.523860	9.430096	0.034048	-1.412174	0.391823	-0.043945	-0.369385	-0.846191	-0.766942	-0.094472	0.127326	-0.621822
47040		5.314553	0.911035	9.806133	-0.031283	-1.470356	0.453808	-0.064209	-0.370605	-0.851074	-0.763002	-0.101472	0.137393	-0.623421
47041		5.461500	1.053750	10.046915	-0.098055	-1.509717	0.486260	-0.092773	-0.362305	-0.845459	-0.758772	-0.108197	0.148061	-0.625009
47042		5.820514	1.129197	10.002970	-0.075810	-1.431228	0.369951	-0.112305	-0.353271	-0.853271	-0.755098	-0.114780	0.157987	-0.625854
47043		5.803847	0.473646	9.868342	-0.090597	-1.417395	0.281548	-0.139160	-0.336914	-0.840576	-0.751801	-0.121298	0.167794	-0.626042
47044		6.249282	-0.179469	9.744651	-0.054658	-1.456395	0.295832	-0.171143	-0.331787	-0.851807	-0.748222	-0.128205	0.177646	-0.626234
47045		6.422933	0.302738	9.960215	0.010836	-1.474203	0.393781	-0.193848	-0.315430	-0.837646	-0.743915	-0.135446	0.187345	-0.627014
47046		6.205491	1.134955	10.173559	0.059488	-1.487078	0.414850	-0.220947	-0.307373	-0.844482	-0.739298	-0.142999	0.196862	-0.627882
47047		6.261335	1.284201	10.389052	0.079505	-1.462236	0.299377	-0.248535	-0.300781	-0.827393	-0.735179	-0.150711	0.205949	-0.627999
47048		6.265322	1.137170	10.819633	0.030377	-1.433088	0.199662	-0.275635	-0.292969	-0.826904	-0.731580	-0.158117	0.214953	-0.627363
47049		6.753076	0.948743	11.025758	-0.059288	-1.390315	0.218966	-0.303711	-0.276855	-0.822021	-0.727968	-0.164695	0.224155	-0.626652
47050		6.657025	0.975049	10.900504	-0.071937	-1.304014	0.236160	-0.323486	-0.272705	-0.813721	-0.724347	-0.170691	0.232888	-0.626059
47051		6.525578	1.057183	10.491039	-0.022260	-1.218005	0.168983	-0.350098	-0.262695	-0.801514	-0.721087	-0.176646	0.240716	-0.625208
47052		6.700644	0.764792	10.129872	-0.012046	-1.169891	0.081384	-0.368652	-0.256104	-0.795654	-0.718291	-0.182570	0.248042	-0.623860
47053		6.892703	0.461012	9.817797	-0.036562	-1.160935	0.054555	-0.390625	-0.250732	-0.789062	-0.715619	-0.188336	0.255372	-0.622257
47054		7.030215	0.393415	9.739682	-0.063450	-1.176240	0.077363	-0.415039	-0.236572	-0.795166	-0.712768	-0.193954	0.262939	-0.620650
47055		7.214285	0.559448	9.678070	-0.027188	-1.122134	0.055806	-0.425049	-0.225098	-0.776855	-0.710021	-0.199534	0.269934	-0.619025
47056		7.061560	0.628293	9.428040	-0.010148	-1.069973	0.017369	-0.449951	-0.217285	-0.767822	-0.707500	-0.205014	0.276440	-0.617247
47057		6.779051	0.270030	9.370210	0.005837	-1.072581	-0.004981	-0.466797	-0.219482	-0.764404	-0.705002	-0.210635	0.282815	-0.615322
47058		7.427243	-0.115952	9.495090	0.074203	-1.043189	0.008634	-0.483154	-0.221436	-0.752441	-0.702327	-0.216457	0.288663	-0.613642
47059		7.520399	0.038678	9.326316	0.137677	-0.942733	0.046507	-0.510498	-0.212891	-0.734131	-0.699535	-0.222028	0.293643	-0.612478
47060		7.475432	0.029725	8.655093	0.163476	-0.893501	0.046099	-0.518311	-0.208008	-0.734863	-0.696773	-0.227483	0.298181	-0.611430
47061		7.445129	0.027947	8.096291	0.164825	-0.855293	0.003583	-0.539551	-0.205078	-0.721680	-0.694281	-0.232842	0.302390	-0.610179
47062		7.377608	-0.030836	7.838498	0.103415	-0.898592	0.023882	-0.551514	-0.194092	-0.718262	-0.691657	-0.238001	0.307182	-0.608774
47063		7.739313	-0.136001	7.771201	0.090015	-0.893446	0.040795	-0.565918	-0.195068	-0.697754	-0.688946	-0.242998	0.312026	-0.607409
47064		7.768088	0.214463	7.730661	0.059772	-0.845973	0.037128	-0.583252	-0.195312	-0.690186	-0.686401	-0.247576	0.316724	-0.606009
47065		7.573881	0.336979	7.710183	-0.005954	-0.845676	0.040013	-0.602783	-0.202393	-0.672119	-0.683942	-0.251755	0.321739	-0.604423
47066		8.059914	0.029851	7.478890	0.009130	-0.801469	0.012800	-0.615723	-0.189941	-0.671631	-0.681674	-0.255857	0.326351	-0.602787
47067		8.049535	-0.071148	7.127453	0.058545	-0.754113	-0.008531	-0.619873	-0.197266	-0.656006	-0.679507	-0.260049	0.330383	-0.601241
47068		8.063776	-0.297013	6.784518	0.089902	-0.764569	-0.020498	-0.637695	-0.196045	-0.652100	-0.677276	-0.264491	0.334277	-0.599668
47069		8.047914	-0.470876	6.729349	0.130153	-0.804965	0.001442	-0.661133	-0.191650	-0.632080	-0.674702	-0.269288	0.338230	-0.598215
47070		8.162833	-0.518758	6.823484	0.200622	-0.818889	0.052704	-0.672607	-0.192871	-0.620605	-0.671643	-0.274392	0.342007	-0.597190
47071		7.946652	-0.154098	7.023714	0.243254	-0.809330	0.078683	-0.680420	-0.194580	-0.613281	-0.668349	-0.279597	0.345560	-0.596425
47072		8.049300	0.123031	7.249639	0.208940	-0.796231	0.070051	-0.692871	-0.200684	-0.594971	-0.665183	-0.284555	0.349172	-0.595516
47073		8.119566	0.154009	7.370713	0.140835	-0.747976	0.036851	-0.701904	-0.206787	-0.585693	-0.662629	-0.288816	0.352781	-0.594183
47074		8.122238	-0.020656	7.437766	0.090501	-0.708729	0.030239	-0.708252	-0.199707	-0.578125	-0.660311	-0.292620	0.356393	-0.592746
47075		8.193537	-0.098641	7.403389	0.092743	-0.649853	0.033977	-0.720947	-0.211914	-0.552490	-0.658119	-0.296122	0.359663	-0.591468
47076		8.114404	0.134756	7.313940	0.069720	-0.597027	0.045668	-0.734375	-0.208008	-0.552002	-0.655988	-0.299268	0.362762	-0.590358
47077		8.087329	0.310781	7.181008	0.005985	-0.565224	0.019001	-0.735107	-0.216553	-0.537354	-0.654232	-0.301976	0.365923	-0.588975
47078		8.207487	0.218528	7.111140	-0.055542	-0.530897	-0.030990	-0.742920	-0.215820	-0.527832	-0.652948	-0.304343	0.369060	-0.587221
47079		8.234078	0.006161	6.966818	-0.098222	-0.489256	-0.054303	-0.750488	-0.210693	-0.515625	-0.651984	-0.306355	0.372107	-0.585320
47080		8.244460	-0.107502	6.924072	-0.129477	-0.467731	-0.050861	-0.752686	-0.214355	-0.517090	-0.651113	-0.308098	0.375185	-0.583407
47081		8.243271	-0.076902	6.817422	-0.138252	-0.426521	-0.064578	-0.765625	-0.215576	-0.500977	-0.650472	-0.309610	0.378042	-0.581475
47082		8.169964	-0.057842	6.688556	-0.173848	-0.383865	-0.100558	-0.761230	-0.217529	-0.500977	-0.650171	-0.310877	0.380731	-0.579377
47083		8.131672	-0.262703	6.626220	-0.232807	-0.369674	-0.127648	-0.771240	-0.213623	-0.487549	-0.650214	-0.311814	0.383553	-0.576958
47084		8.251145	-0.594674	6.549689	-0.246986	-0.333828	-0.134921	-0.777832	-0.218750	-0.481201	-0.650398	-0.312554	0.386216	-0.574569
47085		8.129409	-0.616238	6.570822	-0.249084	-0.296944	-0.120818	-0.770752	-0.221680	-0.477783	-0.650613	-0.313071	0.388717	-0.572354
47086		8.151542	-0.568747	6.556728	-0.259508	-0.267145	-0.092769	-0.772705	-0.223877	-0.478027	-0.650823	-0.313282	0.391174	-0.570322
47087		8.207044	-0.428546	6.520632	-0.258348	-0.226398	-0.079698	-0.787598	-0.230713	-0.472656	-0.651101	-0.313252	0.393433	-0.568463
47088		8.356328	-0.271251	6.387802	-0.259794	-0.173113	-0.088958	-0.773438	-0.230225	-0.460205	-0.651563	-0.313020	0.395374	-0.566713
47089		8.303231	-0.146718	6.168493	-0.269264	-0.131687	-0.098497	-0.772217	-0.229004	-0.464844	-0.652222	-0.312573	0.397103	-0.564990
47090		8.279948	-0.042255	6.056251	-0.302275	-0.124231	-0.105538	-0.780518	-0.227783	-0.453857	-0.653038	-0.311916	0.398927	-0.563123
47091		8.337073	-0.029592	5.968245	-0.322319	-0.094474	-0.134283	-0.781494	-0.218994	-0.460938	-0.654097	-0.311138	0.400596	-0.561136
47092		8.376045	-0.120608	5.867238	-0.360118	-0.060537	-0.153200	-0.788086	-0.222900	-0.461182	-0.655473	-0.310034	0.402207	-0.558985
47093		8.418447	-0.341392	5.751721	-0.369751	-0.028969	-0.158867	-0.784668	-0.223633	-0.465332	-0.656987	-0.308757	0.403667	-0.556858
47094		8.427017	-0.577241	5.589873	-0.332556	0.000602	-0.151078	-0.778809	-0.225342	-0.459473	-0.658474	-0.307506	0.404808	-0.554961
47095		8.379873	-0.657581	5.405776	-0.260062	0.013177	-0.132907	-0.785645	-0.225830	-0.463379	-0.659719	-0.306540	0.405586	-0.553448
47096		8.413039	-0.717933	5.270260	-0.183963	0.003592	-0.103086	-0.778809	-0.224365	-0.459473	-0.660593	-0.305936	0.406139	-0.552332
47097		8.366015	-0.605003	5.205561	-0.118564	-0.003835	-0.067763	-0.767822	-0.219238	-0.452393	-0.661110	-0.305607	0.406521	-0.551614
47098		8.327083	-0.429686	5.338552	-0.098942	-0.024933	-0.035069	-0.782959	-0.225830	-0.455078	-0.661420	-0.305308	0.407022	-0.551038
47099		8.496853	-0.337452	5.470328	-0.078162	-0.011201	-0.027680	-0.781006	-0.220703	-0.452393	-0.661607	-0.305115	0.407356	-0.550674
47100		8.519680	-0.199860	5.441426	-0.077007	0.031554	-0.039267	-0.772949	-0.220947	-0.455811	-0.661990	-0.304769	0.407420	-0.550359
47101		8.401148	-0.193099	5.297712	-0.105294	0.055553	-0.045728	-0.780273	-0.221436	-0.461426	-0.662572	-0.304163	0.407465	-0.549960
47102		8.415954	-0.366838	5.210855	-0.120790	0.054773	-0.045127	-0.782227	-0.221680	-0.464111	-0.663187	-0.303473	0.407585	-0.549510
47103		8.458016	-0.527256	5.185506	-0.075779	0.057791	-0.027796	-0.780273	-0.228271	-0.459961	-0.663619	-0.302958	0.407526	-0.549317
47104		8.494253	-0.492695	5.154346	-0.001053	0.061960	-0.005721	-0.773682	-0.219482	-0.464844	-0.663760	-0.302776	0.407154	-0.549523
47105		8.500187	-0.310159	5.207730	0.053241	0.068067	0.004775	-0.779053	-0.217529	-0.468506	-0.663761	-0.302806	0.406530	-0.549967
47106		8.490886	-0.164035	5.244795	0.060298	0.070922	0.013040	-0.773193	-0.226562	-0.468018	-0.663717	-0.302833	0.405879	-0.550486
47107		8.417967	-0.044373	5.284296	0.052445	0.081536	-0.007703	-0.775146	-0.218018	-0.468506	-0.663821	-0.302839	0.405150	-0.550894
47108		8.401680	-0.039131	5.341137	0.013452	0.081104	-0.021210	-0.779053	-0.215088	-0.469482	-0.664087	-0.302675	0.404569	-0.551091
47109		8.472231	-0.151898	5.506791	-0.008892	0.090032	-0.018891	-0.777832	-0.213623	-0.476074	-0.664424	-0.302341	0.404046	-0.551251
47110		8.530273	-0.245907	5.450916	0.012893	0.119127	-0.014501	-0.775146	-0.212891	-0.468750	-0.664798	-0.301966	0.403273	-0.551571
47111		8.363464	-0.156799	5.375968	0.026660	0.148634	-0.025767	-0.775635	-0.219971	-0.477295	-0.665271	-0.301585	0.402242	-0.551962
47112		8.338087	-0.265357	5.356166	0.017151	0.135913	-0.015364	-0.767578	-0.224121	-0.481689	-0.665685	-0.301165	0.401350	-0.552341
47113		8.326858	-0.337831	5.432132	0.054341	0.127320	-0.002602	-0.777588	-0.225830	-0.475098	-0.665930	-0.300936	0.400367	-0.552884
47114		8.243021	-0.281580	5.665440	0.116099	0.114148	0.024591	-0.775635	-0.228760	-0.475586	-0.665816	-0.301049	0.399235	-0.553778
47115		8.205717	-0.223808	5.978834	0.211808	0.113316	0.054890	-0.768555	-0.209717	-0.486572	-0.665316	-0.301596	0.397739	-0.555156
47116		8.173535	-0.097930	6.460129	0.306728	0.136087	0.068693	-0.774414	-0.221191	-0.484375	-0.664629	-0.302475	0.395715	-0.556945
47117		8.085629	0.097322	6.779534	0.376323	0.166783	0.071473	-0.766602	-0.219238	-0.492920	-0.663826	-0.303603	0.393195	-0.559068
47118		7.997620	0.332101	7.142954	0.388489	0.194170	0.062380	-0.763184	-0.221191	-0.490234	-0.663144	-0.304671	0.390439	-0.561224
47119		8.031120	0.487401	7.434503	0.346091	0.226754	0.039447	-0.764404	-0.219727	-0.491455	-0.662769	-0.305427	0.387634	-0.563197
47120		7.964947	0.547563	7.718442	0.280952	0.281517	0.017010	-0.762939	-0.224121	-0.499756	-0.662831	-0.305638	0.384765	-0.564974
47121		7.693785	0.374757	8.015301	0.254244	0.323283	0.007696	-0.760986	-0.220215	-0.511475	-0.663141	-0.305521	0.381759	-0.566710
47122		7.891387	0.129512	8.323456	0.305841	0.383922	-0.007881	-0.766602	-0.221436	-0.519775	-0.663596	-0.305429	0.378126	-0.568660
47123		7.826807	0.288103	8.521609	0.343826	0.496645	-0.035895	-0.750000	-0.232422	-0.519775	-0.664426	-0.305095	0.373605	-0.570854
47124		7.702569	0.441830	8.821342	0.248304	0.532450	-0.041952	-0.744629	-0.218994	-0.529785	-0.665624	-0.304070	0.369309	-0.572797
47125		7.803450	0.403184	9.114604	0.117725	0.593643	-0.060906	-0.745361	-0.226807	-0.553955	-0.667431	-0.302062	0.365236	-0.574367
47126		7.905139	0.408210	9.460382	-0.018738	0.674859	-0.064582	-0.733398	-0.223145	-0.559082	-0.669854	-0.298881	0.361342	-0.575672
47127		8.110539	0.373157	9.610503	-0.122131	0.792892	-0.069246	-0.729736	-0.225098	-0.581299	-0.672887	-0.294555	0.357252	-0.576915
47128		7.975713	0.272963	9.850407	-0.148745	0.880986	-0.054182	-0.716797	-0.224854	-0.597168	-0.676165	-0.289572	0.352812	-0.578336
47129		8.435765	-0.163596	9.922210	-0.017951	0.984764	-0.043529	-0.701416	-0.223633	-0.613281	-0.679358	-0.284755	0.347158	-0.580404
47130		8.373210	0.206634	9.939417	0.126591	1.171485	-0.081463	-0.684570	-0.226074	-0.628418	-0.682900	-0.279913	0.339626	-0.583052
47131		8.112237	0.618166	9.987553	0.038944	1.211448	-0.103414	-0.673828	-0.221191	-0.647461	-0.686816	-0.274394	0.332204	-0.585348
47132		8.514115	0.174327	9.833863	-0.086417	1.271331	-0.133571	-0.640137	-0.227295	-0.664795	-0.691152	-0.268026	0.324943	-0.587267
47133		8.257502	-0.177577	9.721000	-0.138269	1.357908	-0.148229	-0.627197	-0.228516	-0.685303	-0.695780	-0.260965	0.317341	-0.589137
47134		8.483039	-0.606225	9.265094	-0.133587	1.407129	-0.134301	-0.607422	-0.232422	-0.707520	-0.700363	-0.253613	0.309416	-0.591129
47135		8.301280	-0.589015	9.045356	-0.120648	1.457982	-0.123291	-0.570801	-0.239258	-0.720215	-0.704891	-0.246017	0.301109	-0.593244
47136		8.406607	-0.688978	8.884810	-0.134270	1.425080	-0.062931	-0.548584	-0.240479	-0.747314	-0.708960	-0.238313	0.293143	-0.595525
47137		8.361596	-0.622285	8.947319	-0.058816	1.435915	-0.021712	-0.514893	-0.246826	-0.748535	-0.712597	-0.230863	0.284780	-0.598171
47138		8.323961	-0.264769	9.280482	0.018544	1.427684	0.002978	-0.490479	-0.259521	-0.769287	-0.715838	-0.223819	0.276089	-0.601046
47139		8.318727	0.116503	9.467635	0.056360	1.466607	-0.015163	-0.461670	-0.258057	-0.789062	-0.719082	-0.216812	0.266903	-0.603884
47140		8.102932	0.492189	9.555910	-0.023713	1.512119	-0.043694	-0.434082	-0.263428	-0.787842	-0.722603	-0.209125	0.257757	-0.606361
47141		8.110421	0.589708	9.393452	-0.154103	1.535795	-0.060414	-0.406738	-0.271729	-0.807129	-0.726367	-0.200534	0.249057	-0.608398
47142		7.912497	0.502085	9.105305	-0.193737	1.567758	-0.084280	-0.374756	-0.284668	-0.812744	-0.730259	-0.191555	0.240284	-0.610157
47143		7.530434	0.537747	8.873498	-0.180494	1.572015	-0.140719	-0.341797	-0.284424	-0.818604	-0.734296	-0.182715	0.231289	-0.611498
47144		7.285377	0.438462	9.018592	-0.222080	1.518539	-0.195578	-0.316895	-0.291504	-0.826904	-0.738447	-0.173967	0.222713	-0.612234
47145		7.465439	-0.075463	9.264618	-0.238460	1.505866	-0.204567	-0.279541	-0.298096	-0.834717	-0.742521	-0.165171	0.214252	-0.612762
47146		7.381332	-0.261583	9.161589	-0.214216	1.562026	-0.211185	-0.255859	-0.302734	-0.844238	-0.746568	-0.156221	0.205278	-0.613263
47147		6.967654	-0.394042	8.870004	-0.224197	1.556410	-0.186841	-0.228027	-0.321777	-0.846191	-0.750363	-0.147169	0.196391	-0.613781
47148		6.866716	-0.638143	8.630629	-0.199691	1.528774	-0.148501	-0.194824	-0.323730	-0.847412	-0.753758	-0.138322	0.187571	-0.614437
47149		6.808023	-0.584355	8.436422	-0.122650	1.532504	-0.117656	-0.164062	-0.328613	-0.845459	-0.756787	-0.129869	0.178343	-0.615306
47150		6.208217	-0.378836	8.323191	-0.062453	1.488152	-0.070919	-0.144043	-0.334717	-0.854492	-0.759324	-0.121933	0.169115	-0.616408
47151		6.304610	-0.209832	8.433010	-0.000279	1.438420	-0.062584	-0.125488	-0.342529	-0.854492	-0.761573	-0.114617	0.159871	-0.617504
47152		6.064646	0.306134	8.634166	0.009986	1.424033	-0.050752	-0.085693	-0.356201	-0.854980	-0.763623	-0.107410	0.150660	-0.618582
47153		5.754741	0.536402	8.555041	-0.031662	1.403878	-0.074383	-0.076172	-0.358887	-0.855713	-0.765703	-0.100058	0.141754	-0.619349
47154		5.526838	0.749837	8.462094	-0.069660	1.391261	-0.108777	-0.029541	-0.363037	-0.844727	-0.767873	-0.092559	0.133082	-0.619752
47155		5.195376	0.555737	8.182513	-0.061381	1.353975	-0.130792	-0.009766	-0.369629	-0.849365	-0.770009	-0.085320	0.124575	-0.619909
47156		4.989434	0.543860	8.006720	0.017145	1.316768	-0.168312	0.007568	-0.380127	-0.850586	-0.772150	-0.078810	0.115863	-0.619798
47157		4.705498	0.618835	8.059928	0.088105	1.226212	-0.146320	0.027588	-0.367920	-0.841309	-0.773956	-0.073197	0.107373	-0.619762
47158		4.390025	0.768222	8.308760	0.203884	1.162526	-0.158741	0.051025	-0.386719	-0.838867	-0.775622	-0.068666	0.098682	-0.619643
47159		4.289662	1.214846	8.644407	0.261846	1.131570	-0.204404	0.075684	-0.391357	-0.831543	-0.777390	-0.064705	0.089859	-0.619195
47160		3.961834	1.529791	8.906050	0.194726	1.112916	-0.253206	0.088379	-0.403809	-0.832275	-0.779361	-0.060440	0.081471	-0.618309
47161		3.935320	1.501864	8.914088	0.077983	1.122495	-0.314942	0.103271	-0.411865	-0.828125	-0.781644	-0.055408	0.073586	-0.616885
47162		3.649708	1.254402	8.627965	-0.007192	1.138703	-0.346130	0.123779	-0.412842	-0.817871	-0.784063	-0.049756	0.066013	-0.615152
47163		3.381692	0.818104	8.302857	0.023100	1.125808	-0.350277	0.156006	-0.410645	-0.809082	-0.786409	-0.044371	0.058364	-0.613339
47164		3.263344	0.718250	8.019611	0.106599	1.107121	-0.340496	0.162842	-0.421875	-0.815430	-0.788593	-0.039623	0.050412	-0.611564
47165		3.026407	1.112138	7.751015	0.166157	1.076873	-0.312264	0.172363	-0.418945	-0.796387	-0.790530	-0.035409	0.042363	-0.609930
47166		2.891461	1.214883	7.424853	0.189185	1.035707	-0.335612	0.195068	-0.424072	-0.785889	-0.792497	-0.031565	0.034460	-0.608083
47167		2.925325	1.552536	7.091887	0.142529	1.023880	-0.425805	0.214600	-0.430664	-0.795898	-0.794864	-0.027501	0.026847	-0.605569
47168		2.949438	1.247297	6.420692	0.018512	0.979410	-0.463969	0.236816	-0.432861	-0.789551	-0.797378	-0.022852	0.020146	-0.602710
47169		2.717845	0.511747	5.459516	-0.003720	0.979805	-0.525493	0.254639	-0.433838	-0.776855	-0.800142	-0.018066	0.013544	-0.599386
47170		2.190541	0.019493	4.793425	-0.004326	0.885235	-0.556329	0.271240	-0.437988	-0.784424	-0.802986	-0.013755	0.007573	-0.595790
47171		2.488092	-0.156094	4.171019	0.001227	0.760833	-0.502650	0.279053	-0.439697	-0.775879	-0.805505	-0.010097	0.002416	-0.592499
47172		2.319245	-0.308332	3.394660	0.028066	0.686302	-0.451082	0.292480	-0.440430	-0.765137	-0.807725	-0.006988	-0.002365	-0.589513
47173		1.687255	-0.444120	2.780425	0.010555	0.558860	-0.487403	0.297607	-0.431152	-0.769775	-0.810095	-0.004389	-0.006199	-0.586249
47174		1.798773	-0.724184	2.336697	-0.070343	0.385547	-0.491216	0.311279	-0.443604	-0.768799	-0.812472	-0.002092	-0.008465	-0.582935
47175		1.436520	-1.411188	2.303866	-0.126745	0.211945	-0.418985	0.317627	-0.433105	-0.763672	-0.814494	-0.000262	-0.009276	-0.580097
47176		1.606305	-2.411123	2.407806	-0.016613	0.073464	-0.311935	0.324219	-0.426270	-0.763672	-0.816002	0.000144	-0.009675	-0.577968
47177		1.549610	-2.877783	2.667951	0.192439	-0.012932	-0.203506	0.317627	-0.426025	-0.760498	-0.816991	-0.001294	-0.010487	-0.576554
47178		1.167171	-2.586009	3.217881	0.220926	-0.151414	-0.102730	0.318115	-0.439453	-0.757324	-0.817504	-0.003597	-0.010485	-0.575816
47179		1.429604	-2.436878	4.039936	0.072639	-0.341247	0.001433	0.308105	-0.433594	-0.765137	-0.817533	-0.005806	-0.008469	-0.575790
47180		1.578664	-2.211499	4.730620	-0.024161	-0.435624	0.101625	0.304199	-0.438965	-0.766113	-0.817085	-0.007811	-0.005334	-0.576440
47181		1.521273	-2.235232	5.109280	0.009516	-0.450246	0.149109	0.305176	-0.444824	-0.764404	-0.816395	-0.010116	-0.002252	-0.577400
47182		1.484066	-2.228685	5.311837	0.076811	-0.462322	0.155402	0.296631	-0.439209	-0.776123	-0.815658	-0.012933	0.000596	-0.578390
47183		1.892391	-2.071763	5.297516	0.056207	-0.524388	0.234019	0.282715	-0.441895	-0.777100	-0.814528	-0.015906	0.003980	-0.579893
47184		1.983463	-1.329707	5.208908	-0.024427	-0.611762	0.351076	0.279297	-0.445068	-0.779297	-0.812817	-0.018746	0.008368	-0.582157
47185		1.836084	-0.782316	5.164139	-0.081269	-0.716424	0.379869	0.266113	-0.432617	-0.783447	-0.810936	-0.021705	0.013752	-0.584570
47186		1.750267	-0.807613	5.435972	-0.069308	-0.836305	0.338259	0.242676	-0.429199	-0.790039	-0.809201	-0.025331	0.019884	-0.586648
47187		2.493765	-1.316455	5.837151	0.007325	-0.909569	0.316299	0.232422	-0.436035	-0.802246	-0.807497	-0.029833	0.026134	-0.588537
47188		3.010504	-1.232902	6.186911	0.017864	-0.934329	0.381230	0.208008	-0.437256	-0.801514	-0.805411	-0.034510	0.032520	-0.590817
47189		3.200274	-0.402664	6.196891	-0.087268	-0.993870	0.467806	0.196045	-0.427246	-0.808350	-0.802852	-0.038748	0.039854	-0.593581
47190		2.678331	0.572780	6.369651	-0.275060	-1.134699	0.508113	0.187988	-0.421387	-0.809082	-0.800029	-0.042408	0.049075	-0.596445
47191		3.119546	0.049914	6.678383	-0.311645	-1.267113	0.476179	0.162354	-0.406006	-0.815430	-0.797226	-0.046492	0.059346	-0.598956
47192		3.836154	-0.365628	7.207867	-0.088783	-1.221928	0.413066	0.134033	-0.411621	-0.826660	-0.794573	-0.051856	0.068178	-0.601096
47193		4.025351	-0.112650	7.611020	0.050744	-1.221235	0.432772	0.107666	-0.409912	-0.827148	-0.791670	-0.058124	0.076315	-0.603371
47194		4.130530	0.555113	7.989806	-0.000867	-1.324300	0.501111	0.079102	-0.399658	-0.832275	-0.788281	-0.064519	0.085420	-0.605932
47195		4.370417	1.328370	8.287989	-0.095754	-1.407466	0.555223	0.067139	-0.398926	-0.844727	-0.784492	-0.070664	0.095573	-0.608641
47196		4.523792	1.122060	8.387976	-0.096189	-1.434357	0.501522	0.030762	-0.391113	-0.840576	-0.780829	-0.076976	0.105861	-0.610880
47197		4.169364	0.282449	8.749900	0.013352	-1.398095	0.314917	0.013916	-0.386719	-0.839600	-0.777957	-0.083971	0.115223	-0.611927
47198		4.260483	-0.193414	9.741624	0.008747	-1.432023	0.266147	-0.017090	-0.382080	-0.847168	-0.775191	-0.091143	0.124782	-0.612537
47199		4.703814	0.204093	10.843168	-0.174957	-1.481733	0.436561	-0.037598	-0.377686	-0.849121	-0.771517	-0.097188	0.135711	-0.613920
47200		4.844229	0.893678	11.251698	-0.375173	-1.385804	0.521560	-0.070068	-0.355713	-0.851074	-0.767550	-0.101341	0.147096	-0.615597
47201		5.047556	0.269086	10.624023	-0.473633	-1.211656	0.399000	-0.092285	-0.348389	-0.854736	-0.764394	-0.104104	0.157746	-0.616425
47202		5.483753	-1.097432	9.564879	-0.332654	-1.042272	0.198176	-0.108643	-0.326904	-0.858154	-0.762286	-0.107148	0.166402	-0.616238
47203		6.094024	-1.459746	8.714223	-0.198878	-1.089469	0.288555	-0.122070	-0.321533	-0.858154	-0.759461	-0.111145	0.174738	-0.616712
47204		6.078125	-0.743045	8.526850	-0.065465	-1.295183	0.577872	-0.140381	-0.316895	-0.850342	-0.754635	-0.116606	0.183944	-0.618945
47205		6.333965	0.433325	8.852001	0.107876	-1.419252	0.708198	-0.178467	-0.302002	-0.846924	-0.748658	-0.123576	0.193136	-0.622044
47206		6.463875	1.709387	9.390401	0.193885	-1.415883	0.581095	-0.201660	-0.298828	-0.841797	-0.743127	-0.131247	0.201700	-0.624383
47207		6.561537	2.348846	9.798551	0.089261	-1.418880	0.412398	-0.237305	-0.288330	-0.843994	-0.738462	-0.138550	0.210608	-0.625397
47208		6.858319	2.033877	9.902509	-0.024154	-1.394317	0.292556	-0.259033	-0.280762	-0.831543	-0.734486	-0.145220	0.219783	-0.625410
47209		6.725534	1.467856	9.818660	0.017611	-1.358914	0.208383	-0.286377	-0.265625	-0.830811	-0.730859	-0.152096	0.228389	-0.624940
47210		6.839136	0.946177	9.614130	0.162904	-1.316986	0.120770	-0.305176	-0.258545	-0.830322	-0.727489	-0.159787	0.235838	-0.624186
47211		6.503148	0.913187	9.871969	0.200132	-1.323517	0.057366	-0.335693	-0.252441	-0.812256	-0.724293	-0.167842	0.243016	-0.623035
47212		6.885982	0.849281	10.055234	0.123669	-1.349410	0.070780	-0.355713	-0.252930	-0.811035	-0.720986	-0.175520	0.250732	-0.621696
47213		6.955911	0.940301	10.271191	0.067333	-1.267002	0.018226	-0.375244	-0.240967	-0.803467	-0.718116	-0.182520	0.258133	-0.619970
47214		7.020776	0.839756	9.978584	-0.027091	-1.158295	-0.087507	-0.392578	-0.234131	-0.793457	-0.716093	-0.188601	0.265178	-0.617512
47215		7.237163	-0.247098	9.393702	-0.089558	-1.136583	-0.106503	-0.413330	-0.235107	-0.784180	-0.714245	-0.194221	0.272354	-0.614781
47216		6.997284	-0.977361	9.006717	0.005270	-1.094399	-0.112211	-0.436523	-0.223633	-0.778564	-0.712302	-0.200182	0.278758	-0.612247
47217		7.161126	-1.082778	9.071136	0.082109	-1.121242	-0.050067	-0.461670	-0.220215	-0.767334	-0.709787	-0.206570	0.285006	-0.610166
47218		7.538576	-0.428413	9.358835	0.072800	-1.096633	0.021606	-0.470703	-0.204590	-0.764648	-0.706919	-0.212586	0.291253	-0.608478
47219		7.747683	0.243424	9.190600	-0.025096	-1.003548	0.005810	-0.499268	-0.196777	-0.746338	-0.704472	-0.217572	0.297393	-0.606580
47220		7.393848	0.240746	8.761501	-0.159204	-0.949416	-0.087124	-0.512451	-0.183838	-0.747070	-0.702823	-0.221711	0.303701	-0.603863
47221		7.386826	-0.467577	8.391176	-0.225349	-0.931644	-0.161072	-0.536377	-0.194824	-0.740479	-0.701665	-0.225544	0.310076	-0.600541
47222		7.706656	-1.117110	8.182753	-0.191881	-0.931246	-0.109658	-0.548828	-0.187744	-0.721680	-0.700141	-0.229420	0.316354	-0.597570
47223		7.511165	-1.192574	8.041850	-0.064927	-0.889817	-0.025419	-0.565186	-0.180664	-0.711670	-0.698019	-0.233592	0.321898	-0.595471
47224		7.691522	-0.907822	7.937301	0.074007	-0.868077	0.041247	-0.586426	-0.189941	-0.702881	-0.695315	-0.238269	0.326737	-0.594145
47225		7.581447	-0.394802	8.006287	0.127382	-0.851639	0.051180	-0.597900	-0.177246	-0.694092	-0.692462	-0.243131	0.331216	-0.593026
47226		7.855818	-0.269465	8.037823	0.072479	-0.834563	0.033764	-0.610840	-0.174805	-0.681885	-0.689817	-0.247626	0.335813	-0.591662
47227		7.649405	-0.407964	8.068971	-0.001245	-0.797141	0.035295	-0.625732	-0.177734	-0.675049	-0.687388	-0.251494	0.340542	-0.590153
47228		7.823787	-0.656902	8.128109	-0.050755	-0.786230	0.058842	-0.642090	-0.171631	-0.658203	-0.684946	-0.254945	0.345482	-0.588638
47229		8.052769	-0.629211	8.028983	-0.026539	-0.708436	0.081811	-0.662354	-0.166260	-0.650391	-0.682535	-0.258074	0.349891	-0.587469
47230		7.773806	-0.435327	7.773217	0.013858	-0.683063	0.103678	-0.665039	-0.170654	-0.641357	-0.679980	-0.261234	0.353990	-0.586579
47231		8.005545	-0.543558	7.577759	0.114481	-0.687785	0.126663	-0.674805	-0.172607	-0.638428	-0.677055	-0.264908	0.357657	-0.586090
47232		8.200339	-0.330869	7.438898	0.280546	-0.637290	0.146092	-0.688721	-0.173096	-0.617676	-0.673795	-0.269204	0.360256	-0.586298
47233		8.054026	0.225251	7.221603	0.372809	-0.601341	0.150171	-0.694092	-0.177734	-0.607910	-0.670390	-0.273819	0.362196	-0.586868
47234		7.843310	0.759514	7.185210	0.311304	-0.607867	0.091353	-0.706299	-0.172607	-0.598145	-0.667370	-0.278289	0.364323	-0.586891
47235		7.991323	0.700773	7.366850	0.160159	-0.634575	0.018643	-0.716309	-0.177490	-0.586426	-0.664954	-0.282262	0.367152	-0.585972
47236		8.261949	0.234902	7.433717	0.081714	-0.595193	-0.023340	-0.719971	-0.181641	-0.570068	-0.663177	-0.285591	0.370063	-0.584540
47237		8.273523	0.003916	7.234721	0.086884	-0.496857	-0.055530	-0.728027	-0.187500	-0.561523	-0.661807	-0.288586	0.372312	-0.583192
47238		8.014022	-0.009099	6.818311	0.053642	-0.457459	-0.074396	-0.730957	-0.187744	-0.555908	-0.660703	-0.291276	0.374449	-0.581737
47239		8.221778	-0.273025	6.557485	0.030777	-0.452275	-0.086214	-0.750977	-0.186768	-0.548096	-0.659717	-0.293846	0.376631	-0.580153
47240		8.293720	-0.400536	6.339619	0.056069	-0.421693	-0.099474	-0.746582	-0.201660	-0.542480	-0.658782	-0.296478	0.378474	-0.578675
47241		8.420342	-0.454540	6.103446	0.080729	-0.396294	-0.096155	-0.751465	-0.187988	-0.532471	-0.657852	-0.299099	0.380066	-0.577340
47242		8.314059	-0.325454	6.045852	0.067897	-0.407185	-0.081572	-0.758057	-0.197266	-0.524658	-0.656825	-0.301664	0.381805	-0.576025
47243		8.479741	-0.285036	6.014465	0.029618	-0.407668	-0.067682	-0.771484	-0.200928	-0.520508	-0.655804	-0.303986	0.383757	-0.574669
47244		8.375072	-0.258047	6.018809	-0.006624	-0.370854	-0.080094	-0.771729	-0.201660	-0.500488	-0.655028	-0.305985	0.385641	-0.573230
47245		8.212361	-0.404007	6.043705	-0.052287	-0.360774	-0.084390	-0.771973	-0.208252	-0.501221	-0.654378	-0.307730	0.387664	-0.571672
47246		8.319553	-0.659731	5.990097	-0.047326	-0.328225	-0.078253	-0.774658	-0.211670	-0.498779	-0.653800	-0.309309	0.389500	-0.570231
47247		8.277576	-0.677374	5.992580	-0.025345	-0.298782	-0.054057	-0.777588	-0.216553	-0.480225	-0.653145	-0.310782	0.391130	-0.569064
47248		8.362948	-0.574069	6.063519	-0.031827	-0.279638	-0.019030	-0.783203	-0.210938	-0.483398	-0.652354	-0.312052	0.392764	-0.568150
47249		8.354647	-0.363063	5.988475	-0.062327	-0.237293	0.002191	-0.782959	-0.210938	-0.477539	-0.651693	-0.312869	0.394367	-0.567348
47250		8.257915	-0.090436	5.920765	-0.119017	-0.209786	-0.006076	-0.788330	-0.214111	-0.468750	-0.651303	-0.313277	0.396063	-0.566389
47251		8.315756	-0.244745	5.710214	-0.155719	-0.180313	-0.035917	-0.784912	-0.214844	-0.471191	-0.651219	-0.313466	0.397684	-0.565243
47252		8.362011	-0.300134	5.524940	-0.147001	-0.148542	-0.061194	-0.788086	-0.218506	-0.470215	-0.651353	-0.313618	0.399027	-0.564057
47253		8.368495	-0.362915	5.485367	-0.157640	-0.152272	-0.059474	-0.791748	-0.221436	-0.470947	-0.651488	-0.313727	0.400441	-0.562838
47254		8.549227	-0.546482	5.443402	-0.125556	-0.149575	-0.037394	-0.796631	-0.214844	-0.460205	-0.651442	-0.313921	0.401745	-0.561852
47255		8.505587	-0.452147	5.524817	-0.061411	-0.136297	-0.013290	-0.796875	-0.213135	-0.460938	-0.651133	-0.314342	0.402733	-0.561267
47256		8.416767	-0.205597	5.697107	-0.027244	-0.133058	0.002325	-0.790771	-0.216064	-0.458740	-0.650680	-0.314873	0.403585	-0.560883
47257		8.436790	-0.055007	5.756013	-0.028122	-0.105601	-0.027345	-0.794922	-0.224854	-0.451172	-0.650467	-0.315363	0.404212	-0.560402
47258		8.408233	-0.016276	5.771605	-0.067182	-0.084245	-0.058744	-0.788574	-0.222412	-0.458984	-0.650548	-0.315670	0.404815	-0.559700
47259		8.444884	-0.271341	5.654296	-0.104621	-0.060094	-0.066030	-0.798096	-0.227295	-0.449463	-0.650877	-0.315655	0.405448	-0.558867
47260		8.445698	-0.427114	5.618546	-0.096733	-0.041532	-0.070021	-0.797607	-0.215820	-0.444092	-0.651226	-0.315644	0.405921	-0.558123
47261		8.586886	-0.491451	5.595152	-0.077909	-0.017834	-0.055349	-0.791748	-0.212646	-0.446533	-0.651534	-0.315578	0.406215	-0.557587
47262		8.507854	-0.403904	5.462941	-0.047806	0.013123	-0.038401	-0.805176	-0.221191	-0.448730	-0.651805	-0.315459	0.406249	-0.557313
47263		8.333396	-0.257198	5.445225	-0.043516	0.010386	-0.035843	-0.798828	-0.219727	-0.443359	-0.652024	-0.315383	0.406278	-0.557079
47264		8.444957	-0.306946	5.502730	-0.040638	0.011445	-0.046945	-0.797607	-0.220947	-0.453125	-0.652286	-0.315359	0.406257	-0.556801
47265		8.453011	-0.277794	5.597169	-0.035784	0.042676	-0.052799	-0.798828	-0.221680	-0.446289	-0.652692	-0.315213	0.406032	-0.556571
47266		8.427396	-0.343282	5.545358	-0.048272	0.056872	-0.046114	-0.793945	-0.219971	-0.452393	-0.653128	-0.314929	0.405798	-0.556391
47267		8.429522	-0.444501	5.431872	-0.026835	0.078662	-0.043314	-0.795410	-0.225830	-0.463867	-0.653588	-0.314633	0.405358	-0.556340
47268		8.526761	-0.471950	5.342548	0.022891	0.092829	-0.035928	-0.792725	-0.228271	-0.449707	-0.653949	-0.314498	0.404632	-0.556520
47269		8.478744	-0.463933	5.310994	0.056193	0.100741	-0.013109	-0.788574	-0.223877	-0.448975	-0.654107	-0.314462	0.403758	-0.556989
47270		8.444206	-0.426940	5.437789	0.080518	0.100336	0.010374	-0.795654	-0.225342	-0.456787	-0.654094	-0.314478	0.402836	-0.557663
47271		8.377648	-0.296087	5.612567	0.095199	0.109628	0.015820	-0.791260	-0.225586	-0.460449	-0.654052	-0.314506	0.401809	-0.558437
47272		8.319080	-0.139505	5.878680	0.079517	0.116053	0.020551	-0.792725	-0.218262	-0.458252	-0.654062	-0.314391	0.400833	-0.559191
47273		8.382173	-0.096332	6.014888	0.055966	0.141584	0.016548	-0.791016	-0.222412	-0.469238	-0.654230	-0.314047	0.399814	-0.559917
47274		8.292340	-0.135574	6.127046	0.061016	0.170063	0.023020	-0.786133	-0.223877	-0.470459	-0.654468	-0.313557	0.398634	-0.560753
47275		8.146474	0.021753	6.308542	0.099488	0.185273	0.037761	-0.785156	-0.223633	-0.468262	-0.654587	-0.313154	0.397228	-0.561836
47276		8.087636	0.317957	6.607407	0.137643	0.184240	0.045765	-0.783936	-0.215332	-0.474609	-0.654553	-0.312944	0.395663	-0.563096
47277		8.296269	0.486929	6.970603	0.166919	0.211936	0.043142	-0.783936	-0.216553	-0.480469	-0.654558	-0.312758	0.393801	-0.564497
47278		8.348844	0.620263	7.176879	0.206155	0.277617	0.016445	-0.790527	-0.217041	-0.482178	-0.654803	-0.312558	0.391321	-0.566046
47279		8.104554	0.801425	7.355741	0.198616	0.315275	-0.006483	-0.776611	-0.220947	-0.495605	-0.655277	-0.312223	0.388601	-0.567554
47280		8.076237	0.818499	7.529172	0.168662	0.339113	-0.033246	-0.778809	-0.222656	-0.501953	-0.656065	-0.311662	0.385822	-0.568847
47281		7.976038	0.773124	7.841401	0.153373	0.363145	-0.049975	-0.779297	-0.223877	-0.510254	-0.657040	-0.310955	0.382931	-0.570060
47282		8.000031	0.701480	8.234031	0.179449	0.399503	-0.064617	-0.766846	-0.219238	-0.515869	-0.658130	-0.310257	0.379671	-0.571363
47283		8.145906	0.683487	8.651171	0.231601	0.466899	-0.080692	-0.769043	-0.220703	-0.522705	-0.659381	-0.309553	0.375742	-0.572898
47284		8.022327	0.547191	8.975978	0.298216	0.558344	-0.096966	-0.760010	-0.226074	-0.532471	-0.660802	-0.308826	0.370935	-0.574782
47285		8.134313	0.568005	9.309893	0.354316	0.656991	-0.118190	-0.747803	-0.225586	-0.549561	-0.662478	-0.307976	0.365245	-0.576950
47286		7.994744	0.871235	9.675415	0.332368	0.755869	-0.137909	-0.735840	-0.242432	-0.562012	-0.664614	-0.306539	0.359050	-0.579142
47287		7.970245	0.924961	10.049445	0.242625	0.807767	-0.155446	-0.735840	-0.243408	-0.573975	-0.667210	-0.304372	0.352938	-0.581054
47288		8.236448	0.609100	10.264253	0.196422	0.921898	-0.204802	-0.725098	-0.239990	-0.593506	-0.670453	-0.301526	0.346259	-0.582820
47289		8.275551	0.272858	10.371975	0.211669	1.076783	-0.265848	-0.716553	-0.245117	-0.614746	-0.674384	-0.298132	0.338461	-0.584610
47290		8.486246	0.065416	10.379392	0.225247	1.176805	-0.251570	-0.691162	-0.252197	-0.623047	-0.678455	-0.294232	0.330036	-0.586688
47291		8.556120	0.233332	10.101824	0.210735	1.316933	-0.236097	-0.677979	-0.264404	-0.652832	-0.682665	-0.289604	0.320871	-0.589187
47292		8.242947	0.579809	9.762507	0.127171	1.373414	-0.232603	-0.650879	-0.270264	-0.666992	-0.687117	-0.284172	0.311757	-0.591544
47293		8.184814	0.354525	9.700967	0.043653	1.359455	-0.232942	-0.625488	-0.272949	-0.691895	-0.691594	-0.278314	0.303067	-0.593624
47294		8.861887	-0.205638	9.800876	0.090276	1.377741	-0.208414	-0.598389	-0.277832	-0.704834	-0.695793	-0.272530	0.294057	-0.595928
47295		8.900055	-0.009234	9.621769	0.205143	1.520127	-0.176505	-0.575928	-0.291260	-0.720947	-0.699812	-0.266582	0.283678	-0.598935
47296		8.532492	0.468560	9.125506	0.191072	1.539169	-0.128726	-0.542725	-0.298096	-0.740234	-0.703550	-0.260295	0.273317	-0.602130
47297		8.304324	0.895089	8.888047	0.161059	1.518443	-0.143433	-0.510498	-0.308594	-0.744629	-0.707260	-0.253924	0.263153	-0.605026
47298		8.349024	1.050414	9.008667	0.159580	1.492330	-0.178550	-0.482666	-0.331543	-0.759521	-0.710977	-0.247708	0.253035	-0.607557
47299		8.363978	1.284359	9.025359	0.156753	1.572765	-0.275084	-0.448486	-0.341309	-0.778076	-0.715236	-0.241228	0.242214	-0.609572
47300		7.924557	1.494614	9.020897	-0.005501	1.570306	-0.328036	-0.420654	-0.349365	-0.790283	-0.719956	-0.233855	0.232084	-0.610829
47301		8.026152	0.828500	8.712794	-0.131444	1.592207	-0.370135	-0.393555	-0.363770	-0.797119	-0.725045	-0.225652	0.222342	-0.611518
47302		7.702309	0.724143	8.624297	-0.200170	1.630792	-0.401297	-0.357422	-0.363037	-0.804688	-0.730353	-0.216849	0.212619	-0.611844
47303		7.465160	0.363196	8.732193	-0.300835	1.601355	-0.400931	-0.322021	-0.372559	-0.816895	-0.735644	-0.207538	0.203553	-0.611818
47304		7.695059	0.031131	8.849497	-0.373657	1.624563	-0.390919	-0.292969	-0.374268	-0.823975	-0.740901	-0.197602	0.194698	-0.611646
47305		7.656456	-0.045849	8.566286	-0.424703	1.683694	-0.340388	-0.248291	-0.382324	-0.831787	-0.745925	-0.186924	0.185788	-0.611669
47306		6.916214	0.080280	8.112434	-0.460296	1.677926	-0.305274	-0.221191	-0.390625	-0.835938	-0.750654	-0.175957	0.177116	-0.611709
47307		6.913961	0.034381	7.915777	-0.425554	1.619174	-0.287220	-0.184814	-0.384521	-0.836426	-0.754996	-0.165442	0.168631	-0.611697
47308		7.044636	0.433208	7.820239	-0.402974	1.612225	-0.255705	-0.163330	-0.392090	-0.850342	-0.758988	-0.155027	0.160093	-0.611779
47309		6.727117	0.858465	7.532715	-0.422455	1.571018	-0.221432	-0.136963	-0.389160	-0.843262	-0.762632	-0.144625	0.151936	-0.611876
47310		6.323964	0.837366	7.245569	-0.386285	1.508065	-0.253506	-0.095703	-0.387695	-0.851562	-0.766180	-0.134790	0.143935	-0.611623
47311		6.159832	0.713828	7.170330	-0.291256	1.417586	-0.292168	-0.082031	-0.395264	-0.849609	-0.769588	-0.126049	0.135968	-0.611031
47312		5.828191	1.027570	7.295286	-0.243607	1.344745	-0.290001	-0.062012	-0.400635	-0.843262	-0.772744	-0.117966	0.128214	-0.610337
47313		5.425442	0.935467	7.382227	-0.200675	1.250217	-0.281194	-0.031982	-0.401367	-0.847412	-0.775618	-0.110620	0.120849	-0.609570
47314		4.937091	0.714747	7.567537	-0.074104	1.202624	-0.313973	-0.006592	-0.407715	-0.833740	-0.778409	-0.104356	0.113111	-0.608601
47315		4.932845	0.801100	7.759878	0.044744	1.162871	-0.317033	0.011963	-0.415771	-0.843018	-0.780996	-0.099060	0.105017	-0.607621
47316		4.582603	1.319952	8.053781	0.072415	1.097147	-0.284539	0.030029	-0.409180	-0.833008	-0.783266	-0.094241	0.097233	-0.606760
47317		4.408023	1.954913	8.304490	0.046671	1.058906	-0.278738	0.058350	-0.424316	-0.840088	-0.785431	-0.089437	0.089828	-0.605830
47318		3.940780	2.030577	8.336031	0.049006	1.051210	-0.336781	0.077881	-0.424316	-0.839355	-0.787818	-0.084728	0.082413	-0.604460
47319		3.714501	1.748967	8.253254	0.069688	1.064119	-0.461459	0.093750	-0.434326	-0.830566	-0.790759	-0.080172	0.074716	-0.602237
47320		3.736855	1.147763	8.125860	0.038453	1.043237	-0.497135	0.114014	-0.440186	-0.827148	-0.793816	-0.075534	0.067284	-0.599687
47321		3.485003	0.745683	8.053256	-0.000674	1.001898	-0.453997	0.125977	-0.438721	-0.815674	-0.796590	-0.070815	0.060346	-0.597317
47322		3.419225	0.443637	7.833087	0.029759	0.984593	-0.424250	0.148193	-0.444092	-0.812988	-0.799127	-0.066365	0.053386	-0.595098
47323		3.199455	0.571824	7.621685	0.073840	0.978897	-0.421428	0.169922	-0.444336	-0.810547	-0.801562	-0.062234	0.046248	-0.592863
47324		3.088916	0.454846	7.172536	0.082846	0.958987	-0.413942	0.181152	-0.449463	-0.793945	-0.803887	-0.058255	0.039201	-0.590623
47325		2.715258	0.091602	6.803768	0.101458	0.887404	-0.395129	0.201172	-0.455322	-0.791504	-0.806032	-0.054746	0.032552	-0.588434
47326		2.895847	-0.086944	6.461418	0.164759	0.838157	-0.367783	0.208008	-0.456299	-0.791992	-0.807953	-0.051894	0.025938	-0.586384
47327		2.368654	0.496649	6.254743	0.159063	0.769702	-0.292521	0.226074	-0.451904	-0.783936	-0.809451	-0.049320	0.019849	-0.584775
47328		2.088644	0.529606	6.004354	0.113428	0.675707	-0.267078	0.241455	-0.457031	-0.778320	-0.810796	-0.046894	0.014628	-0.583264
47329		1.822246	0.105136	5.925617	0.146499	0.595461	-0.289488	0.250000	-0.462402	-0.777588	-0.812201	-0.045084	0.009782	-0.581551
47330		1.916028	-0.317097	5.960547	0.216970	0.526381	-0.302892	0.250244	-0.470947	-0.763916	-0.813616	-0.044086	0.005060	-0.579707
47331		2.007165	-0.503603	5.781035	0.238692	0.482133	-0.266788	0.260742	-0.470459	-0.765625	-0.814826	-0.043448	0.000549	-0.578075
47332		1.195074	-0.540020	5.696655	0.202337	0.375701	-0.206615	0.269287	-0.485596	-0.766846	-0.815744	-0.043075	-0.003038	-0.576799
47333		1.130921	-0.775424	6.066199	0.188687	0.219391	-0.145519	0.272461	-0.479980	-0.759277	-0.816368	-0.043361	-0.005472	-0.575875
47334		1.519734	-0.459194	6.427331	0.206587	0.206300	-0.130671	0.285400	-0.479736	-0.763428	-0.816911	-0.043831	-0.007894	-0.575042
47335		1.422382	-0.118915	6.366236	0.093172	0.178370	-0.104675	0.285156	-0.484619	-0.756836	-0.817369	-0.043664	-0.009570	-0.574378
47336		1.360646	-0.639281	5.865772	0.027226	0.165651	-0.106618	0.279053	-0.486084	-0.756348	-0.817859	-0.043109	-0.010841	-0.573699
47337		1.246501	-0.926664	5.542166	0.040763	0.105474	-0.070182	0.290771	-0.483643	-0.755859	-0.818176	-0.042937	-0.011751	-0.573242
47338		1.796621	-1.145263	5.144304	0.057858	0.069190	-0.004270	0.291992	-0.480469	-0.755371	-0.818176	-0.043059	-0.012467	-0.573218
47339		1.793012	-0.218573	4.706889	-0.025751	0.048090	0.048457	0.293213	-0.482910	-0.757080	-0.817957	-0.042717	-0.012616	-0.573553
47340		1.458173	0.305219	4.444706	-0.201228	-0.124893	0.142626	0.291260	-0.478760	-0.755127	-0.817368	-0.042016	-0.010710	-0.574482
47341		1.885182	-0.512007	4.030450	-0.126989	-0.188855	0.093585	0.290527	-0.474609	-0.760742	-0.816991	-0.042124	-0.008738	-0.575043
47342		1.591201	-0.637379	4.026276	0.013773	-0.261491	0.045054	0.283447	-0.478516	-0.760010	-0.816801	-0.043535	-0.006959	-0.575233
47343		2.083822	-0.798537	4.155642	0.020106	-0.442683	0.134747	0.267334	-0.484375	-0.760986	-0.816182	-0.045862	-0.003940	-0.575959
47344		1.949252	-0.547555	4.716759	0.009608	-0.593781	0.251973	0.264893	-0.480225	-0.772461	-0.814993	-0.048845	0.000207	-0.577409
47345		2.133577	-0.552332	5.235175	0.055453	-0.670330	0.263975	0.253174	-0.477783	-0.769531	-0.813702	-0.052506	0.004663	-0.578888
47346		2.094664	-0.677407	5.713800	0.054790	-0.688456	0.236232	0.239014	-0.482666	-0.767334	-0.812515	-0.056249	0.009238	-0.580147
47347		2.359875	-0.940737	6.085535	-0.037145	-0.759089	0.276799	0.227295	-0.478271	-0.775146	-0.811137	-0.059704	0.014760	-0.581613
47348		2.902575	-0.769257	6.168946	-0.130526	-0.776792	0.377427	0.216553	-0.476807	-0.778320	-0.809277	-0.062597	0.020908	-0.583707
47349		2.734461	-0.542740	5.925558	-0.169234	-0.807000	0.434356	0.197998	-0.470947	-0.782959	-0.807111	-0.065362	0.027484	-0.586126
47350		2.830590	-0.423033	5.879230	-0.172522	-0.882841	0.411539	0.188477	-0.465576	-0.786865	-0.804990	-0.068474	0.034577	-0.588308
47351		3.288868	-0.612287	6.263291	-0.179676	-1.008549	0.460198	0.163086	-0.466064	-0.804199	-0.802536	-0.072135	0.042580	-0.590694
47352		3.418200	-0.465142	6.816908	-0.123449	-1.104435	0.530094	0.133789	-0.452881	-0.805908	-0.799594	-0.076612	0.050991	-0.593447
47353		3.547465	-0.093698	7.291373	-0.094730	-1.190292	0.571712	0.128906	-0.451416	-0.810303	-0.796302	-0.081676	0.059859	-0.596363
47354		3.882592	0.098392	7.646711	-0.091217	-1.211026	0.555590	0.095215	-0.451660	-0.821045	-0.792979	-0.086863	0.068835	-0.599083
47355		4.647520	0.439686	7.936358	-0.142223	-1.225220	0.560019	0.081787	-0.443848	-0.826172	-0.789564	-0.091770	0.078160	-0.601713
47356		4.837226	1.713494	8.128158	-0.231613	-1.240420	0.634654	0.052734	-0.435059	-0.831055	-0.785729	-0.096105	0.088086	-0.604678
47357		4.897124	2.026127	7.615565	-0.228694	-1.263974	0.620423	0.023438	-0.426025	-0.826904	-0.781836	-0.100575	0.098131	-0.607443
47358		4.198191	1.511931	7.643200	-0.096408	-1.302271	0.411387	-0.004639	-0.426270	-0.834717	-0.778755	-0.106261	0.107571	-0.608834
47359		5.273977	0.421032	8.075361	0.022749	-1.390837	0.337179	-0.024170	-0.418213	-0.835938	-0.775757	-0.113223	0.116903	-0.609685
47360		5.896108	0.158667	8.492094	0.161326	-1.428837	0.495043	-0.052002	-0.418701	-0.831787	-0.771671	-0.121101	0.125912	-0.611559
47361		5.160687	0.895270	9.003952	0.267906	-1.482010	0.602802	-0.084961	-0.406250	-0.834961	-0.766739	-0.129800	0.134813	-0.614075
47362		4.847648	1.138121	10.098249	0.273759	-1.556082	0.524903	-0.105713	-0.408447	-0.835205	-0.761970	-0.138977	0.144051	-0.615903
47363		5.777742	0.152918	11.106922	0.240326	-1.539828	0.490258	-0.137939	-0.395020	-0.835205	-0.757290	-0.147870	0.153289	-0.617373
47364		6.897269	-0.436339	11.058587	0.334318	-1.321286	0.555810	-0.163086	-0.402344	-0.824463	-0.752305	-0.156120	0.160722	-0.619542
47365		6.189714	0.472277	10.203012	0.428018	-1.161746	0.685140	-0.181396	-0.394287	-0.818848	-0.746632	-0.163934	0.166819	-0.622766
47366		6.511951	1.210813	8.921001	0.422638	-1.164621	0.723597	-0.208740	-0.384766	-0.821777	-0.740656	-0.171650	0.172992	-0.626130
47367		6.176257	1.912295	8.482938	0.328476	-1.232602	0.642444	-0.227783	-0.380615	-0.811035	-0.735032	-0.179230	0.179936	-0.628671
47368		6.299950	2.028869	9.152023	0.095525	-1.433639	0.566251	-0.259033	-0.368896	-0.812988	-0.729739	-0.186522	0.189190	-0.629998
47369		7.063341	1.956807	10.128402	0.002454	-1.484955	0.538596	-0.286865	-0.351562	-0.802246	-0.724528	-0.193529	0.199167	-0.630823
47370		7.375612	2.418013	10.261244	0.064934	-1.361174	0.513504	-0.312988	-0.356934	-0.797607	-0.719435	-0.200271	0.207994	-0.631699
47371		6.795475	2.698002	9.614818	0.134754	-1.211522	0.386921	-0.335449	-0.346924	-0.792725	-0.715054	-0.206837	0.215314	-0.632105
47372		6.335768	1.789708	9.123644	0.201253	-1.261210	0.259787	-0.361816	-0.339844	-0.784668	-0.711053	-0.214265	0.222331	-0.631714
47373		6.816006	1.167352	9.416702	0.294564	-1.306841	0.208552	-0.380615	-0.323486	-0.780273	-0.706980	-0.222553	0.229004	-0.631036
47374		7.656874	1.196639	9.802763	0.323525	-1.309398	0.310683	-0.411865	-0.326416	-0.766602	-0.702216	-0.230799	0.235697	-0.630930
47375		7.247116	2.210045	9.731991	0.282438	-1.180629	0.264437	-0.436523	-0.325195	-0.758057	-0.697938	-0.238188	0.241732	-0.630646
47376		6.731516	2.490034	9.541926	0.050428	-1.187544	0.129020	-0.451904	-0.315918	-0.745117	-0.694744	-0.244511	0.248728	-0.629030
47377		7.311640	0.851309	9.439881	-0.079569	-1.182694	0.014637	-0.472656	-0.307373	-0.735107	-0.692353	-0.250269	0.256112	-0.626434
47378		7.587819	-0.330727	9.304805	0.048263	-1.075247	0.043527	-0.491943	-0.296143	-0.734375	-0.689709	-0.256117	0.262243	-0.624448
47379		7.652007	-0.366274	9.053132	0.211284	-1.019792	0.169290	-0.512207	-0.291992	-0.722656	-0.686126	-0.262314	0.267452	-0.623613
47380		7.669128	0.109662	8.733411	0.308073	-0.997621	0.262917	-0.527588	-0.288330	-0.710938	-0.681837	-0.268716	0.272212	-0.623531
47381		7.820058	0.661504	8.366518	0.321651	-0.956709	0.260927	-0.553711	-0.286621	-0.699951	-0.677565	-0.274963	0.276642	-0.623515
47382		7.838079	0.773657	8.086278	0.266708	-0.954483	0.250155	-0.563232	-0.284180	-0.679932	-0.673427	-0.280890	0.281297	-0.623272
47383		8.340742	0.414228	7.668124	0.273655	-0.932010	0.255302	-0.575928	-0.288086	-0.676270	-0.669249	-0.286706	0.285779	-0.623086
47384		8.410494	0.044614	7.029249	0.397728	-0.907525	0.287147	-0.592041	-0.276855	-0.671387	-0.664617	-0.292988	0.289535	-0.623387
47385		8.323475	-0.306917	6.351259	0.632247	-0.897044	0.314439	-0.611816	-0.277100	-0.646729	-0.659240	-0.300423	0.292057	-0.624381
47386		7.968790	0.180322	6.203333	0.806427	-0.940248	0.363893	-0.627686	-0.286133	-0.633545	-0.652995	-0.308885	0.294004	-0.625898
47387		8.272695	0.691032	6.483970	0.817492	-1.072833	0.472834	-0.647705	-0.281494	-0.621094	-0.645742	-0.317791	0.296859	-0.627615
47388		8.707740	1.100041	6.784835	0.816679	-1.044182	0.492207	-0.659180	-0.282471	-0.599854	-0.638369	-0.326448	0.299572	-0.629423
47389		8.661378	1.556145	6.779633	0.769390	-0.958533	0.461521	-0.674316	-0.284668	-0.580811	-0.631415	-0.334438	0.301954	-0.631103
47390		8.286897	1.738512	6.630017	0.678335	-0.915074	0.422305	-0.688477	-0.286621	-0.558105	-0.624958	-0.341781	0.304441	-0.632400
47391		8.316314	1.724947	6.670586	0.580369	-0.926216	0.394155	-0.701416	-0.297119	-0.548096	-0.618837	-0.348710	0.307388	-0.633209
47392		8.428932	1.922186	6.841777	0.483863	-0.885391	0.352693	-0.713379	-0.282715	-0.529541	-0.613266	-0.355002	0.310484	-0.633624
47393		8.363755	2.262412	7.036057	0.287523	-0.835738	0.291640	-0.725586	-0.293945	-0.509521	-0.608681	-0.360160	0.314156	-0.633323
47394		8.331594	2.269820	7.175765	0.050528	-0.793463	0.213442	-0.744385	-0.284424	-0.500000	-0.605298	-0.364079	0.318606	-0.632100
47395		8.492712	2.046331	7.191538	-0.146785	-0.735699	0.137981	-0.754150	-0.276611	-0.484375	-0.603036	-0.366883	0.323556	-0.630123
47396		8.506119	1.729670	7.113578	-0.256896	-0.661864	0.069106	-0.752930	-0.278320	-0.473877	-0.601842	-0.368782	0.328554	-0.627565
47397		8.423749	1.324226	6.930620	-0.305392	-0.617570	0.017946	-0.770752	-0.275879	-0.471924	-0.601166	-0.370330	0.333413	-0.624733
47398		8.429225	0.867849	6.835203	-0.288737	-0.585705	-0.009885	-0.773926	-0.270264	-0.447754	-0.600632	-0.371871	0.337917	-0.621904
47399		8.575444	0.548098	6.751196	-0.224904	-0.549574	-0.009184	-0.781494	-0.267822	-0.441895	-0.599907	-0.373583	0.341872	-0.619412
47400		8.385365	0.648070	6.776740	-0.174357	-0.510273	-0.011741	-0.789551	-0.277832	-0.432373	-0.599125	-0.375348	0.345347	-0.617170
47401		8.449753	0.762688	6.931006	-0.205851	-0.515264	-0.017051	-0.794434	-0.275635	-0.419434	-0.598423	-0.377001	0.348976	-0.614798
47402		8.591062	0.907198	7.164430	-0.274747	-0.455080	-0.055317	-0.799072	-0.278564	-0.415283	-0.598263	-0.378126	0.352514	-0.612238
47403		8.566586	1.110290	7.326691	-0.423794	-0.379087	-0.094737	-0.802246	-0.279297	-0.410889	-0.598984	-0.378226	0.356298	-0.609274
47404		8.380781	1.167909	7.249434	-0.633831	-0.299494	-0.154594	-0.799561	-0.269043	-0.406006	-0.600882	-0.377045	0.360543	-0.605629
47405		8.313879	0.506880	6.955346	-0.785810	-0.240852	-0.214958	-0.802246	-0.277100	-0.402100	-0.603703	-0.374976	0.365048	-0.601395
47406		8.530744	-0.413444	6.483288	-0.738041	-0.154302	-0.232941	-0.809082	-0.270264	-0.404297	-0.606682	-0.372763	0.368794	-0.597474
47407		8.316689	-0.828099	6.090842	-0.600269	-0.106621	-0.184561	-0.806396	-0.266113	-0.396973	-0.609108	-0.370851	0.371745	-0.594359
47408		8.368962	-0.950200	5.887561	-0.450363	-0.102810	-0.096299	-0.810791	-0.272949	-0.396973	-0.610608	-0.369416	0.374188	-0.592177
47409		8.477058	-0.635452	5.750596	-0.317425	-0.081818	-0.010983	-0.813477	-0.271240	-0.385254	-0.611325	-0.368288	0.376122	-0.590913
47410		8.428995	-0.035057	5.650069	-0.284845	-0.067006	0.039174	-0.806641	-0.272705	-0.397217	-0.611695	-0.367124	0.377954	-0.590085
47411		8.567651	0.345904	5.454521	-0.319028	-0.033638	0.032316	-0.805664	-0.262939	-0.399170	-0.612354	-0.365602	0.379778	-0.589174
47412		8.652950	0.565587	5.218291	-0.386522	0.011026	-0.009518	-0.806641	-0.261963	-0.393311	-0.613567	-0.363641	0.381576	-0.587963
47413		8.698983	0.531007	4.900244	-0.479619	0.034625	-0.041784	-0.799805	-0.264404	-0.398193	-0.615261	-0.361207	0.383595	-0.586377
47414		8.802864	0.509278	4.636438	-0.545429	0.047395	-0.065836	-0.801514	-0.263184	-0.396484	-0.617316	-0.358431	0.385797	-0.584473
47415		8.825845	0.471833	4.390998	-0.556170	0.035646	-0.071615	-0.808105	-0.249512	-0.402588	-0.619363	-0.355682	0.388078	-0.582474
47416		8.777148	0.413920	4.178172	-0.499954	0.027746	-0.092828	-0.798584	-0.242920	-0.399170	-0.621311	-0.353323	0.390058	-0.580509
47417		8.817453	0.355680	3.988599	-0.407819	0.014046	-0.114671	-0.801270	-0.248047	-0.410889	-0.623038	-0.351575	0.391594	-0.578682
47418		8.768832	0.351489	3.990473	-0.305728	-0.027567	-0.101379	-0.806152	-0.248535	-0.405518	-0.624284	-0.350493	0.392896	-0.577110
47419		8.798937	0.262599	4.117522	-0.181406	-0.082626	-0.078177	-0.802490	-0.250977	-0.404785	-0.624845	-0.350267	0.393944	-0.575925
47420		8.833657	0.363933	4.334809	-0.054605	-0.088729	-0.075223	-0.805176	-0.259766	-0.407959	-0.625005	-0.350717	0.394425	-0.575148
47421		8.821322	0.499849	4.526515	0.001956	-0.078992	-0.087855	-0.808105	-0.260742	-0.400146	-0.625098	-0.351451	0.394548	-0.574515
47422		8.709965	0.461216	4.625342	-0.025795	-0.075191	-0.101569	-0.806396	-0.269043	-0.398193	-0.625324	-0.352089	0.394733	-0.573750
