// Start Time: Unknown
// Update Rate: 60.0Hz
// Filter Profile: human (46.1)
// Firmware Version: 4.6.0
PacketCounter	SampleTimeFine	Acc_X	Acc_Y	Acc_Z	Gyr_X	Gyr_Y	Gyr_Z	Mag_X	Mag_Y	Mag_Z	Quat_q0	Quat_q1	Quat_q2	Quat_q3
41360		8.231858	-2.538191	4.681579	-0.005665	-0.014160	0.006820	-0.425781	0.488770	-0.149414	0.580160	-0.461978	-0.218559	-0.634211
41361		8.257111	-2.563313	4.667168	-0.007632	-0.018150	0.008753	-0.425781	0.483643	-0.152100	0.580144	-0.462126	-0.218573	-0.634112
41362		8.251061	-2.572406	4.646290	-0.007443	-0.017047	0.010778	-0.427979	0.488281	-0.147461	0.580141	-0.462267	-0.218578	-0.634011
41363		8.264283	-2.585465	4.620088	-0.005495	-0.012348	0.004055	-0.423340	0.491455	-0.139648	0.580118	-0.462367	-0.218593	-0.633953
41364		8.251248	-2.588377	4.648010	-0.006128	-0.009773	0.004771	-0.430176	0.494141	-0.146484	0.580102	-0.462459	-0.218589	-0.633902
41365		8.252943	-2.576052	4.640925	-0.006045	-0.005262	0.003919	-0.428955	0.489502	-0.143799	0.580089	-0.462527	-0.218567	-0.633872
41366		8.241318	-2.564970	4.627941	-0.004221	-0.006389	0.003762	-0.409668	0.476318	-0.144287	0.580081	-0.462594	-0.218560	-0.633833
41367		8.250948	-2.604532	4.650481	-0.002682	-0.005925	0.003502	-0.428467	0.489746	-0.138184	0.580077	-0.462652	-0.218561	-0.633794
41368		8.235743	-2.560808	4.637909	-0.005163	-0.006129	0.004304	-0.421875	0.491943	-0.146973	0.580068	-0.462728	-0.218544	-0.633753
41369		8.245645	-2.599979	4.624876	-0.003541	-0.001154	0.003190	-0.414795	0.488037	-0.143311	0.580069	-0.462769	-0.218516	-0.633732
41370		8.240673	-2.581526	4.630802	-0.002944	-0.000429	0.003469	-0.425781	0.488770	-0.139648	0.580074	-0.462808	-0.218486	-0.633709
41371		8.229479	-2.557304	4.648752	-0.002944	-0.000429	0.003469	-0.425049	0.485352	-0.143799	0.580079	-0.462850	-0.218454	-0.633684
41372		8.253765	-2.581763	4.636286	-0.004912	-0.004420	0.005403	-0.429443	0.480713	-0.143311	0.580080	-0.462928	-0.218425	-0.633637
41373		8.252521	-2.596134	4.641420	-0.002717	-0.002626	0.004497	-0.424805	0.481445	-0.149902	0.580087	-0.462986	-0.218401	-0.633596
41374		8.260435	-2.588695	4.587494	-0.000522	-0.000832	0.003591	-0.427734	0.483643	-0.138916	0.580101	-0.463026	-0.218382	-0.633561
41375		8.240376	-2.585133	4.629317	-0.000033	0.003300	0.000995	-0.424561	0.482910	-0.134521	0.580109	-0.463045	-0.218358	-0.633548
41376		8.232564	-2.592977	4.647508	-0.000975	0.003561	0.001536	-0.431152	0.486816	-0.147705	0.580116	-0.463071	-0.218324	-0.633534
41377		8.271020	-2.601976	4.636423	-0.000916	0.004167	0.000612	-0.428711	0.484863	-0.149902	0.580120	-0.463094	-0.218288	-0.633525
41378		8.231903	-2.593356	4.648467	-0.001513	0.003442	0.000333	-0.424072	0.485840	-0.146484	0.580120	-0.463125	-0.218253	-0.633515
41379		8.239980	-2.572573	4.661404	0.000607	0.005343	-0.004443	-0.422607	0.493164	-0.147705	0.580109	-0.463126	-0.218235	-0.633531
41380		8.231548	-2.592608	4.649513	-0.002784	0.002100	-0.004095	-0.421631	0.486816	-0.137451	0.580082	-0.463164	-0.218206	-0.633538
41381		8.263240	-2.608030	4.620254	-0.000874	0.005485	-0.005104	-0.427979	0.485840	-0.144043	0.580063	-0.463173	-0.218181	-0.633557
41382		8.227766	-2.558943	4.650882	-0.002666	0.003311	-0.005942	-0.416504	0.488037	-0.146240	0.580025	-0.463206	-0.218162	-0.633574
41383		8.214044	-2.560218	4.680959	-0.003550	0.004177	-0.006324	-0.430176	0.487305	-0.149658	0.579992	-0.463226	-0.218127	-0.633603
41384		8.242296	-2.615377	4.633176	-0.006318	0.005564	-0.005625	-0.433105	0.490723	-0.138672	0.579947	-0.463258	-0.218075	-0.633637
41385		8.249583	-2.607045	4.616210	-0.004485	0.009056	-0.010502	-0.427246	0.488770	-0.143799	0.579886	-0.463277	-0.218032	-0.633695
41386		8.252749	-2.565971	4.635964	-0.001887	0.010470	-0.013148	-0.423584	0.486572	-0.152832	0.579829	-0.463258	-0.218003	-0.633771
41387		8.210304	-2.595410	4.630206	-0.003487	0.009399	-0.011963	-0.423584	0.486572	-0.146240	0.579775	-0.463234	-0.217966	-0.633850
41388		8.233034	-2.558697	4.643881	-0.002030	0.005353	-0.011373	-0.431885	0.489746	-0.137451	0.579722	-0.463235	-0.217955	-0.633902
41389		8.237954	-2.576785	4.638275	-0.003494	0.004780	-0.007244	-0.424561	0.489746	-0.150879	0.579669	-0.463285	-0.217929	-0.633922
41390		8.237941	-2.576142	4.638653	-0.005631	0.003590	-0.007262	-0.420410	0.487793	-0.146729	0.579623	-0.463316	-0.217884	-0.633957
41391		8.240227	-2.621034	4.644689	-0.000184	0.008132	-0.011454	-0.422852	0.490234	-0.140381	0.579587	-0.463285	-0.217864	-0.634020
41392		8.250858	-2.571943	4.646907	-0.001183	0.012403	-0.014705	-0.423096	0.481689	-0.141846	0.579532	-0.463256	-0.217828	-0.634104
41393		8.236108	-2.584822	4.648010	-0.002377	0.010952	-0.015263	-0.421875	0.480713	-0.142090	0.579462	-0.463215	-0.217821	-0.634200
41394		8.255307	-2.587127	4.643783	-0.003148	0.013026	-0.017488	-0.422852	0.487549	-0.138672	0.579383	-0.463159	-0.217807	-0.634318
41395		8.242954	-2.572848	4.633864	-0.003902	0.019005	-0.019635	-0.421387	0.485352	-0.138184	0.579300	-0.463102	-0.217748	-0.634456
41396		8.260615	-2.588101	4.636127	-0.002385	0.015564	-0.019967	-0.420898	0.481934	-0.146729	0.579214	-0.463050	-0.217721	-0.634581
41397		8.230210	-2.555606	4.626274	0.000151	0.016374	-0.021684	-0.427734	0.488770	-0.145020	0.579141	-0.462942	-0.217716	-0.634728
41398		8.261026	-2.568788	4.635189	0.000871	0.022211	-0.023165	-0.417725	0.488281	-0.155029	0.579060	-0.462835	-0.217683	-0.634892
41399		8.252810	-2.572865	4.656127	0.002923	0.023506	-0.027001	-0.417236	0.489746	-0.147949	0.579011	-0.462648	-0.217645	-0.635086
41400		8.241430	-2.543364	4.641939	0.001314	0.027043	-0.030521	-0.432861	0.487305	-0.149414	0.578935	-0.462476	-0.217592	-0.635299
41401		8.218716	-2.561995	4.662628	0.000369	0.022684	-0.025268	-0.428467	0.489258	-0.150879	0.578833	-0.462352	-0.217580	-0.635486
41402		8.210066	-2.494341	4.701913	0.000013	0.015150	-0.019818	-0.434814	0.487793	-0.148438	0.578762	-0.462271	-0.217561	-0.635615
41403		8.230711	-2.567777	4.642848	-0.004857	0.008132	-0.020223	-0.431885	0.478760	-0.146484	0.578633	-0.462261	-0.217577	-0.635735
41404		8.251610	-2.556339	4.632318	-0.001416	0.007375	-0.016771	-0.426025	0.487793	-0.145020	0.578528	-0.462219	-0.217634	-0.635841
41405		8.257294	-2.559970	4.657613	0.001589	0.012316	-0.021065	-0.424561	0.487305	-0.144775	0.578447	-0.462158	-0.217643	-0.635956
41406		8.238184	-2.552177	4.629626	0.001891	0.018530	-0.020800	-0.423096	0.482422	-0.144531	0.578385	-0.462061	-0.217620	-0.636091
41407		8.251980	-2.522029	4.698628	-0.001132	0.018195	-0.021204	-0.420410	0.482178	-0.142334	0.578307	-0.461965	-0.217602	-0.636238
41408		8.238324	-2.521206	4.694468	-0.003065	0.013494	-0.014506	-0.420166	0.482910	-0.147949	0.578253	-0.461922	-0.217563	-0.636332
41409		8.243724	-2.537946	4.654036	0.000542	0.010651	-0.013895	-0.423096	0.484375	-0.137451	0.578231	-0.461845	-0.217549	-0.636412
41410		8.219586	-2.500326	4.696999	-0.004943	0.005495	-0.008811	-0.429199	0.490234	-0.141357	0.578161	-0.461910	-0.217513	-0.636440
41411		8.211640	-2.520590	4.684495	-0.003021	-0.004236	-0.000490	-0.425537	0.491699	-0.153076	0.578121	-0.462036	-0.217492	-0.636394
41412		8.237977	-2.530897	4.665708	-0.005265	-0.010542	0.001242	-0.426514	0.479980	-0.143799	0.578128	-0.462125	-0.217460	-0.636333
41413		8.231367	-2.551500	4.615685	-0.002007	-0.012400	0.002670	-0.421387	0.479004	-0.148193	0.578096	-0.462231	-0.217520	-0.636265
41414		8.227933	-2.520681	4.649428	-0.003162	-0.023073	0.011505	-0.426514	0.494629	-0.149658	0.578128	-0.462372	-0.217577	-0.636113
41415		8.202568	-2.526509	4.668659	-0.005991	-0.034720	0.017662	-0.426270	0.483887	-0.145752	0.578171	-0.462655	-0.217584	-0.635866
41416		8.262997	-2.542059	4.646399	-0.007726	-0.036300	0.015908	-0.424072	0.484375	-0.144043	0.578159	-0.462935	-0.217658	-0.635648
41417		8.269276	-2.564058	4.671519	0.001205	-0.027998	0.014349	-0.423096	0.483887	-0.142578	0.578196	-0.463134	-0.217734	-0.635444
41418		8.266206	-2.546312	4.638355	-0.002049	-0.022237	0.013007	-0.431396	0.486572	-0.145020	0.578221	-0.463323	-0.217769	-0.635270
41419		8.274038	-2.540978	4.653891	-0.001631	-0.014810	0.011427	-0.420166	0.486816	-0.149658	0.578220	-0.463467	-0.217799	-0.635156
41420		8.253089	-2.564499	4.633742	0.000329	-0.006913	0.009587	-0.425537	0.479980	-0.145996	0.578326	-0.463498	-0.217760	-0.635051
41421		8.246185	-2.560381	4.681108	-0.000326	0.000273	0.005602	-0.419434	0.488525	-0.141846	0.578349	-0.463499	-0.217764	-0.635028
41422		8.264618	-2.577968	4.645622	0.001144	0.004751	0.001560	-0.423828	0.471924	-0.144287	0.578410	-0.463528	-0.217686	-0.634978
41423		8.243401	-2.586943	4.658150	-0.001239	0.010364	-0.004187	-0.428223	0.483398	-0.138184	0.578371	-0.463440	-0.217717	-0.635067
41424		8.245890	-2.546545	4.678289	-0.004868	0.013919	-0.009574	-0.420410	0.488037	-0.142334	0.578263	-0.463460	-0.217671	-0.635166
41425		8.282021	-2.579903	4.644824	-0.000024	0.021647	-0.013949	-0.426514	0.481445	-0.144043	0.578267	-0.463374	-0.217565	-0.635262
41426		8.230008	-2.557288	4.647548	-0.002468	0.026651	-0.018769	-0.427002	0.484375	-0.144531	0.578184	-0.463227	-0.217516	-0.635461
41427		8.273664	-2.568691	4.628460	-0.000352	0.036358	-0.023358	-0.419189	0.480225	-0.141846	0.578112	-0.463021	-0.217431	-0.635706
41428		8.225153	-2.492189	4.645822	-0.002008	0.038575	-0.021170	-0.424072	0.487061	-0.151855	0.578082	-0.462821	-0.217301	-0.635923
41429		8.245644	-2.527160	4.680611	-0.004129	0.036664	-0.016406	-0.430420	0.486084	-0.153564	0.578118	-0.462573	-0.217142	-0.636125
41430		8.222245	-2.547262	4.666755	-0.001768	0.035663	-0.015352	-0.425781	0.489990	-0.146729	0.578118	-0.462307	-0.217039	-0.636354
41431		8.214049	-2.539598	4.683060	-0.002073	0.029444	-0.015612	-0.421387	0.484131	-0.144775	0.578111	-0.462171	-0.216902	-0.636506
41432		8.205214	-2.545551	4.703929	-0.004318	0.019235	-0.013965	-0.423828	0.498047	-0.150391	0.578087	-0.462096	-0.216810	-0.636613
41433		8.214583	-2.509419	4.676761	-0.006097	0.013154	-0.014895	-0.429443	0.486328	-0.138184	0.578118	-0.462060	-0.216663	-0.636661
41434		8.237327	-2.544145	4.672844	0.000157	0.020143	-0.017661	-0.427490	0.484375	-0.151611	0.577983	-0.462052	-0.216627	-0.636801
41435		8.266105	-2.583554	4.658146	0.004742	0.026159	-0.023107	-0.421875	0.481934	-0.152100	0.577952	-0.461804	-0.216623	-0.637011
41436		8.193024	-2.484160	4.721314	-0.000224	0.021826	-0.021607	-0.426514	0.483887	-0.147705	0.577950	-0.461586	-0.216592	-0.637182
41437		8.262209	-2.518767	4.689176	-0.003358	0.020277	-0.020178	-0.429932	0.483398	-0.148682	0.577871	-0.461466	-0.216551	-0.637353
41438		8.270724	-2.579678	4.619854	-0.000023	0.028135	-0.025179	-0.437256	0.480957	-0.153076	0.577765	-0.461270	-0.216533	-0.637598
41439		8.223131	-2.562224	4.683549	0.005133	0.038775	-0.030240	-0.426025	0.482178	-0.155762	0.577619	-0.460928	-0.216575	-0.637963
41440		8.203168	-2.539780	4.688971	0.005101	0.039472	-0.034997	-0.422363	0.482910	-0.152832	0.577595	-0.460536	-0.216559	-0.638274
41441		8.216105	-2.519739	4.694748	0.001489	0.034498	-0.035771	-0.433350	0.483398	-0.143311	0.577563	-0.460231	-0.216516	-0.638537
41442		8.246106	-2.543021	4.676109	0.009330	0.034764	-0.039847	-0.432129	0.480469	-0.150146	0.577343	-0.460031	-0.216567	-0.638862
41443		8.227752	-2.505849	4.675691	0.011367	0.039249	-0.038789	-0.430420	0.486084	-0.155273	0.577203	-0.459694	-0.216626	-0.639211
41444		8.243760	-2.517736	4.717537	0.009278	0.038641	-0.039724	-0.433350	0.489258	-0.154785	0.577142	-0.459329	-0.216635	-0.639525
41445		8.242271	-2.511128	4.723658	0.013718	0.043443	-0.043293	-0.427246	0.474365	-0.152344	0.577067	-0.458944	-0.216646	-0.639866
41446		8.222114	-2.499298	4.699905	0.013266	0.044509	-0.046303	-0.428223	0.475098	-0.152100	0.576945	-0.458511	-0.216727	-0.640259
41447		8.168754	-2.459599	4.771236	0.010585	0.043167	-0.047519	-0.424561	0.481689	-0.149902	0.576795	-0.458113	-0.216799	-0.640654
41448		8.180811	-2.450923	4.783023	0.004257	0.031757	-0.047804	-0.421143	0.483643	-0.152832	0.576661	-0.457872	-0.216812	-0.640943
41449		8.188034	-2.449209	4.739333	0.001028	0.025794	-0.049407	-0.435059	0.478027	-0.151611	0.576578	-0.457641	-0.216812	-0.641183
41450		8.205315	-2.473139	4.748941	-0.000954	0.026384	-0.052173	-0.431641	0.482666	-0.148438	0.576263	-0.457425	-0.216922	-0.641583
41451		8.182946	-2.416024	4.752234	0.000370	0.021246	-0.053597	-0.423828	0.470947	-0.154785	0.575981	-0.457296	-0.217002	-0.641901
41452		8.196668	-2.407126	4.761201	-0.002627	0.016989	-0.054099	-0.426758	0.477295	-0.148926	0.575771	-0.457040	-0.217144	-0.642223
41453		8.204009	-2.405735	4.751482	0.000169	0.014931	-0.050005	-0.431885	0.477539	-0.154541	0.575538	-0.456919	-0.217242	-0.642485
41454		8.235281	-2.428218	4.765880	0.000004	0.013121	-0.047253	-0.425537	0.479980	-0.157715	0.575314	-0.456738	-0.217375	-0.642770
41455		8.197062	-2.414050	4.778257	-0.000428	0.009001	-0.044695	-0.432373	0.480957	-0.148926	0.575231	-0.456541	-0.217466	-0.642953
41456		8.182022	-2.364327	4.767025	-0.006133	0.001514	-0.039873	-0.430420	0.471924	-0.150146	0.574969	-0.456576	-0.217548	-0.643134
41457		8.207391	-2.408874	4.731135	-0.003102	0.001178	-0.034688	-0.432861	0.472900	-0.148193	0.574729	-0.456539	-0.217684	-0.643329
41458		8.241263	-2.406694	4.732257	-0.001454	0.002166	-0.031998	-0.431885	0.483398	-0.152832	0.574471	-0.456535	-0.217811	-0.643520
41459		8.246668	-2.434683	4.732441	0.005735	0.004346	-0.030567	-0.427734	0.473145	-0.156006	0.574388	-0.456465	-0.217884	-0.643619
41460		8.255993	-2.395409	4.740617	0.007496	0.012316	-0.036176	-0.436035	0.482178	-0.154785	0.574323	-0.456226	-0.218014	-0.643802
41461		8.261678	-2.408919	4.736992	0.009722	0.018528	-0.034013	-0.434326	0.477539	-0.155273	0.574227	-0.456030	-0.218087	-0.644002
41462		8.265774	-2.409955	4.800041	0.012455	0.021066	-0.034583	-0.438477	0.475098	-0.148438	0.574141	-0.455778	-0.218189	-0.644223
41463		8.215348	-2.384289	4.766273	0.013028	0.021792	-0.034287	-0.432861	0.477539	-0.157715	0.573917	-0.455628	-0.218308	-0.644487
41464		8.234791	-2.382329	4.764088	0.012537	0.017763	-0.035571	-0.426025	0.470947	-0.151123	0.573872	-0.455359	-0.218420	-0.644680
41465		8.210586	-2.340370	4.772719	0.013552	0.017424	-0.032256	-0.432373	0.479248	-0.154785	0.573827	-0.455160	-0.218515	-0.644828
41466		8.178837	-2.320348	4.768308	0.007231	0.011812	-0.021994	-0.434326	0.474365	-0.154541	0.573813	-0.455039	-0.218543	-0.644917
41467		8.098841	-2.204359	4.833524	0.001569	-0.007216	-0.004264	-0.441162	0.474854	-0.145020	0.573776	-0.455063	-0.218611	-0.644909
41468		8.243263	-2.323527	4.840582	-0.005208	-0.021339	0.005514	-0.438232	0.472900	-0.158203	0.573550	-0.455378	-0.218681	-0.644864
41469		8.365111	-2.470444	4.667545	0.007794	-0.000279	-0.003119	-0.431396	0.474121	-0.151611	0.573543	-0.455265	-0.218794	-0.644912
41470		8.249911	-2.380391	4.743626	0.005292	0.008467	-0.003981	-0.438232	0.473877	-0.149170	0.573563	-0.455225	-0.218781	-0.644927
41471		8.228367	-2.363431	4.816314	0.003887	0.008500	-0.000818	-0.436035	0.477783	-0.145996	0.573472	-0.455248	-0.218782	-0.644991
41472		8.248538	-2.366338	4.776388	0.003886	0.008499	-0.000817	-0.435791	0.469482	-0.150635	0.573396	-0.455342	-0.218723	-0.645012
41473		8.215076	-2.351336	4.806510	0.001227	0.005871	0.003592	-0.432129	0.472168	-0.152832	0.573344	-0.455344	-0.218737	-0.645053
41474		8.253002	-2.398672	4.742250	0.001808	0.006603	0.003879	-0.440186	0.464600	-0.152344	0.573386	-0.455314	-0.218709	-0.645046
41475		8.226182	-2.376714	4.790071	0.000123	0.000516	0.002922	-0.427734	0.472168	-0.156738	0.573250	-0.455301	-0.218822	-0.645138
41476		8.246754	-2.380051	4.749284	0.001561	0.005571	-0.001965	-0.439453	0.468018	-0.157715	0.573372	-0.455195	-0.218810	-0.645108
41477		8.272327	-2.388931	4.733511	0.003918	0.013586	-0.002541	-0.438232	0.476562	-0.149170	0.573336	-0.455015	-0.218884	-0.645242
41478		8.211984	-2.350443	4.812226	0.007784	0.018275	-0.007282	-0.435547	0.478027	-0.158691	0.573246	-0.454982	-0.218846	-0.645358
41479		8.215551	-2.394224	4.784653	0.006299	0.018389	-0.007950	-0.435303	0.486084	-0.161377	0.573317	-0.454796	-0.218817	-0.645436
41480		8.215454	-2.378755	4.781840	0.006938	0.020996	-0.014222	-0.437012	0.464844	-0.151367	0.573431	-0.454589	-0.218734	-0.645508
41481		8.183711	-2.334696	4.801940	0.003849	0.014942	-0.012018	-0.425293	0.472168	-0.152344	0.573278	-0.454487	-0.218816	-0.645688
41482		8.215002	-2.361131	4.780694	0.005392	0.010936	-0.011441	-0.433105	0.469727	-0.146973	0.573342	-0.454408	-0.218791	-0.645696
41483		8.233172	-2.376090	4.783025	0.007055	0.013212	-0.014407	-0.431641	0.471191	-0.159912	0.573203	-0.454398	-0.218815	-0.645818
41484		8.239181	-2.366666	4.802971	0.001708	0.008638	-0.010340	-0.433594	0.475830	-0.157227	0.573262	-0.454229	-0.218855	-0.645870
41485		8.194171	-2.338505	4.820598	0.001191	0.004016	-0.010724	-0.436035	0.466797	-0.157715	0.573266	-0.454168	-0.218869	-0.645906
41486		8.234801	-2.331495	4.804206	-0.000499	-0.003346	-0.006034	-0.425293	0.470215	-0.150879	0.573198	-0.454109	-0.218986	-0.645968
41487		8.182692	-2.311902	4.838096	-0.001356	-0.001902	-0.007327	-0.430176	0.473389	-0.146973	0.573207	-0.454162	-0.218974	-0.645927
41488		8.241460	-2.349093	4.797073	-0.003323	-0.007088	-0.003643	-0.443359	0.471436	-0.149902	0.573110	-0.454352	-0.218940	-0.645890
41489		8.225977	-2.390721	4.807143	-0.001448	-0.003098	-0.005508	-0.433350	0.469238	-0.159668	0.572862	-0.454465	-0.219008	-0.646008
41490		8.273571	-2.402369	4.748650	0.000885	0.001107	-0.010005	-0.433105	0.478760	-0.159912	0.572882	-0.454335	-0.219103	-0.646049
41491		8.268716	-2.381069	4.720622	0.006174	0.022952	-0.012580	-0.436768	0.468262	-0.158447	0.573001	-0.454111	-0.219042	-0.646122
41492		8.277247	-2.429316	4.718975	0.016460	0.037565	-0.020695	-0.431396	0.482178	-0.153564	0.573008	-0.453723	-0.219099	-0.646369
41493		8.171051	-2.334643	4.842369	0.017181	0.045165	-0.024842	-0.432373	0.479736	-0.156738	0.573092	-0.453445	-0.218961	-0.646537
41494		8.144042	-2.281580	4.883826	0.010149	0.033227	-0.016091	-0.430664	0.477051	-0.156982	0.573184	-0.453221	-0.218848	-0.646650
41495		8.197222	-2.284024	4.812280	0.004461	0.025147	-0.010408	-0.436768	0.464844	-0.162354	0.573278	-0.453062	-0.218734	-0.646716
41496		8.170297	-2.259917	4.826890	0.005625	0.020855	-0.003369	-0.431396	0.473877	-0.164551	0.573317	-0.452792	-0.218780	-0.646856
41497		8.173668	-2.252843	4.883724	-0.000012	0.017186	0.005323	-0.435791	0.467041	-0.159180	0.573529	-0.452592	-0.218684	-0.646840
41498		8.184376	-2.265844	4.897498	-0.005991	0.006204	0.011711	-0.440430	0.468994	-0.159424	0.573550	-0.452558	-0.218636	-0.646861
41499		8.175780	-2.315700	4.860509	-0.010978	-0.004430	0.016666	-0.447998	0.472900	-0.164795	0.573508	-0.452629	-0.218602	-0.646861
41500		8.213323	-2.366379	4.830077	-0.014865	-0.008441	0.016654	-0.437012	0.473633	-0.162109	0.573431	-0.452683	-0.218598	-0.646893
41501		8.208940	-2.350188	4.798820	-0.011515	-0.004568	0.015473	-0.436279	0.469482	-0.159424	0.573497	-0.452724	-0.218528	-0.646829
41502		8.226181	-2.383519	4.804410	-0.009554	0.000613	0.011800	-0.426270	0.467041	-0.159424	0.573508	-0.452742	-0.218476	-0.646824
41503		8.195585	-2.317718	4.845395	-0.010063	-0.004007	0.011411	-0.429932	0.471436	-0.156250	0.573639	-0.452755	-0.218420	-0.646717
41504		8.198329	-2.379297	4.855249	-0.011360	-0.011072	0.009630	-0.432617	0.474121	-0.151367	0.573671	-0.452890	-0.218365	-0.646614
41505		8.227535	-2.376932	4.794692	-0.010737	-0.009743	0.009012	-0.430664	0.472168	-0.156738	0.573615	-0.453110	-0.218278	-0.646538
41506		8.208373	-2.375107	4.798141	-0.010902	-0.010859	0.007001	-0.437500	0.474609	-0.168701	0.573637	-0.453227	-0.218238	-0.646451
41507		8.202250	-2.371380	4.808097	-0.012709	-0.009167	0.006235	-0.436035	0.474854	-0.152588	0.573724	-0.453168	-0.218256	-0.646409
41508		8.234632	-2.401258	4.783488	-0.008034	-0.006522	0.003711	-0.428955	0.472168	-0.156738	0.573629	-0.453330	-0.218208	-0.646395
41509		8.215342	-2.398567	4.787591	-0.009470	-0.005810	0.002130	-0.431885	0.478760	-0.149658	0.573665	-0.453395	-0.218167	-0.646331
41510		8.187446	-2.291910	4.846366	-0.014312	-0.009571	0.002644	-0.436523	0.473877	-0.156006	0.573589	-0.453654	-0.218048	-0.646257
41511		8.243412	-2.384746	4.791489	-0.014078	-0.008541	0.008490	-0.439453	0.470459	-0.153564	0.573530	-0.453795	-0.217991	-0.646230
41512		8.199887	-2.347292	4.800489	-0.015748	-0.010821	0.011455	-0.435303	0.474121	-0.155518	0.573383	-0.453988	-0.217950	-0.646239
41513		8.199195	-2.364025	4.804031	-0.018203	-0.011742	0.016961	-0.438477	0.476807	-0.157959	0.573366	-0.454180	-0.217848	-0.646154
41514		8.255516	-2.432225	4.773081	-0.013087	-0.010160	0.017452	-0.437500	0.481934	-0.157959	0.573377	-0.454316	-0.217771	-0.646074
41515		8.281931	-2.456843	4.724898	-0.005576	0.002002	0.006082	-0.430176	0.473389	-0.154785	0.573420	-0.454349	-0.217678	-0.646043
41516		8.218129	-2.362102	4.826061	-0.003790	0.004795	0.006041	-0.435547	0.479248	-0.156250	0.573486	-0.454356	-0.217601	-0.646006
41517		8.215600	-2.390252	4.837657	-0.006784	-0.000061	0.006413	-0.422607	0.480713	-0.151367	0.573510	-0.454418	-0.217518	-0.645970
41518		8.189564	-2.395481	4.823840	-0.011936	-0.006730	0.007642	-0.431885	0.479004	-0.150391	0.573633	-0.454602	-0.217346	-0.645789
41519		8.239323	-2.395985	4.722764	-0.013068	-0.003107	0.005350	-0.424561	0.475830	-0.157959	0.573600	-0.454785	-0.217214	-0.645734
41520		8.244075	-2.390925	4.776610	-0.008701	0.004921	0.006664	-0.430908	0.469238	-0.159912	0.573770	-0.454761	-0.217084	-0.645643
41521		8.178530	-2.349120	4.829304	-0.008930	0.007698	0.004755	-0.437500	0.475098	-0.156006	0.573828	-0.454672	-0.217030	-0.645673
41522		8.150681	-2.355322	4.851985	-0.010593	-0.004847	0.014979	-0.432373	0.479492	-0.156738	0.573814	-0.454774	-0.216962	-0.645637
41523		8.209054	-2.396417	4.809599	-0.021134	-0.015409	0.015526	-0.433350	0.474121	-0.155029	0.573848	-0.454981	-0.216837	-0.645502
41524		8.218583	-2.391939	4.753287	-0.021022	-0.014902	0.018455	-0.436768	0.473145	-0.157471	0.573832	-0.455190	-0.216737	-0.645402
41525		8.230910	-2.420387	4.733157	-0.014705	-0.006773	0.017810	-0.433838	0.482422	-0.156738	0.573829	-0.455285	-0.216667	-0.645362
41526		8.215825	-2.400466	4.821612	-0.011339	-0.002898	0.016625	-0.429688	0.470947	-0.147461	0.573926	-0.455385	-0.216525	-0.645252
41527		8.228547	-2.402101	4.826937	-0.009360	-0.007976	0.020208	-0.439209	0.473633	-0.160400	0.573919	-0.455588	-0.216432	-0.645146
41528		8.203475	-2.383198	4.836253	-0.013722	-0.016696	0.023641	-0.428223	0.472900	-0.149414	0.573934	-0.455697	-0.216417	-0.645060
41529		8.203404	-2.413974	4.808207	-0.014922	-0.027742	0.025583	-0.431396	0.475342	-0.154785	0.573952	-0.456014	-0.216359	-0.644840
41530		8.212476	-2.424423	4.755647	-0.024151	-0.031939	0.032687	-0.431885	0.479492	-0.149414	0.574000	-0.456340	-0.216267	-0.644598
41531		8.226641	-2.442297	4.726804	-0.022765	-0.029474	0.039134	-0.430664	0.478516	-0.152588	0.574049	-0.456748	-0.216102	-0.644320
41532		8.215008	-2.425078	4.740243	-0.025953	-0.022667	0.039845	-0.432617	0.475830	-0.151367	0.574148	-0.457075	-0.215905	-0.644066
41533		8.272811	-2.470552	4.695786	-0.020498	-0.018889	0.044371	-0.432861	0.480469	-0.151123	0.574243	-0.457368	-0.215728	-0.643834
41534		8.220221	-2.459545	4.726556	-0.018547	-0.023986	0.047967	-0.427002	0.482910	-0.154541	0.574372	-0.457703	-0.215546	-0.643540
41535		8.218347	-2.396730	4.740544	-0.026578	-0.040312	0.061932	-0.435303	0.479248	-0.159180	0.574639	-0.458136	-0.215324	-0.643069
41536		8.219407	-2.434087	4.672382	-0.024356	-0.058718	0.082420	-0.430420	0.488770	-0.149170	0.574910	-0.458616	-0.215206	-0.642523
41537		8.151687	-2.360962	4.780966	-0.030189	-0.082470	0.104887	-0.427246	0.487549	-0.148193	0.575241	-0.459456	-0.214976	-0.641703
41538		8.280995	-2.480283	4.667239	-0.041470	-0.096642	0.124345	-0.426514	0.482422	-0.148193	0.575624	-0.460448	-0.214682	-0.640747
41539		8.339667	-2.625342	4.633667	-0.032878	-0.090909	0.130518	-0.424561	0.487793	-0.144287	0.576057	-0.461338	-0.214427	-0.639802
41540		8.228178	-2.614773	4.744235	-0.021035	-0.075757	0.118331	-0.427734	0.490479	-0.140381	0.576504	-0.462126	-0.214167	-0.638917
41541		8.325194	-2.702833	4.585061	-0.015582	-0.064801	0.106902	-0.420898	0.490479	-0.146973	0.576864	-0.462861	-0.213925	-0.638141
41542		8.190514	-2.721779	4.687624	-0.002262	-0.040395	0.082091	-0.425537	0.490967	-0.141113	0.577316	-0.463251	-0.213729	-0.637515
41543		8.260499	-2.694075	4.596577	0.010225	-0.018281	0.051971	-0.427979	0.486816	-0.141602	0.577587	-0.463487	-0.213621	-0.637134
41544		8.261882	-2.672592	4.584114	0.016339	-0.007155	0.041630	-0.437012	0.496338	-0.150879	0.577798	-0.463592	-0.213577	-0.636880
41545		8.169969	-2.550947	4.710163	0.027829	-0.009713	0.038120	-0.425781	0.486328	-0.147461	0.578050	-0.463576	-0.213624	-0.636648
41546		8.171296	-2.612782	4.684672	0.022658	-0.011253	0.037689	-0.420410	0.487549	-0.142090	0.578319	-0.463586	-0.213660	-0.636384
41547		8.264026	-2.618067	4.625592	0.021773	-0.023540	0.046582	-0.425537	0.483643	-0.142090	0.578623	-0.463752	-0.213671	-0.635983
41548		8.164112	-2.628533	4.662224	0.029938	-0.034108	0.051939	-0.422119	0.487549	-0.140381	0.578894	-0.463929	-0.213813	-0.635559
41549		8.248182	-2.584429	4.643276	0.030564	-0.042037	0.060705	-0.422363	0.491943	-0.140625	0.579232	-0.464194	-0.213917	-0.635023
41550		8.262768	-2.673387	4.559613	0.040954	-0.047043	0.069163	-0.416260	0.489746	-0.145508	0.579656	-0.464463	-0.214043	-0.634396
41551		8.222099	-2.684492	4.608624	0.050750	-0.038919	0.063269	-0.416260	0.488770	-0.141357	0.580188	-0.464554	-0.214206	-0.633787
41552		8.125231	-2.570747	4.748951	0.034296	-0.038612	0.057843	-0.423340	0.500732	-0.136475	0.580585	-0.464761	-0.214305	-0.633239
41553		8.221374	-2.624722	4.691329	0.025810	-0.051421	0.065333	-0.422607	0.493652	-0.147461	0.580895	-0.465202	-0.214339	-0.632619
41554		8.150335	-2.632728	4.666149	0.018673	-0.048421	0.062236	-0.418945	0.488770	-0.142334	0.581226	-0.465485	-0.214405	-0.632084
41555		8.170862	-2.643793	4.654745	0.013373	-0.045817	0.054181	-0.415039	0.489258	-0.139404	0.581478	-0.465800	-0.214476	-0.631597
41556		8.174625	-2.694379	4.619410	0.010925	-0.031440	0.036072	-0.415527	0.495361	-0.148926	0.581664	-0.466049	-0.214508	-0.631230
41557		8.277736	-2.738389	4.545706	0.013161	-0.020404	0.025755	-0.412842	0.496338	-0.143311	0.581903	-0.466121	-0.214517	-0.630954
41558		8.290912	-2.738519	4.551089	0.023079	-0.003758	0.015137	-0.415039	0.495117	-0.149414	0.582139	-0.466108	-0.214513	-0.630747
41559		8.258711	-2.722373	4.581505	0.030593	-0.002550	0.011818	-0.418213	0.492920	-0.143066	0.582404	-0.465971	-0.214586	-0.630579
41560		8.145006	-2.655188	4.671507	0.029701	-0.000246	0.001845	-0.426270	0.482422	-0.144287	0.582536	-0.465877	-0.214708	-0.630484
41561		8.159212	-2.567021	4.727538	0.013813	-0.003654	-0.002488	-0.417480	0.495361	-0.147949	0.582480	-0.465816	-0.214898	-0.630516
41562		8.240396	-2.700512	4.619465	0.005376	0.000740	-0.008143	-0.419678	0.496826	-0.150635	0.582512	-0.465774	-0.214909	-0.630514
41563		8.290781	-2.731210	4.555718	0.013816	0.017520	-0.019440	-0.416260	0.494873	-0.141846	0.582549	-0.465561	-0.214932	-0.630630
41564		8.205405	-2.716045	4.564483	0.022221	0.029675	-0.026009	-0.423584	0.501221	-0.145508	0.582574	-0.465324	-0.214949	-0.630776
41565		8.189747	-2.640425	4.654399	0.029087	0.033448	-0.028593	-0.420654	0.496826	-0.145996	0.582595	-0.465022	-0.214992	-0.630965
41566		8.231794	-2.604864	4.629633	0.016959	0.009695	-0.007548	-0.420410	0.495605	-0.144287	0.582651	-0.464922	-0.215016	-0.630979
41567		8.233274	-2.734149	4.587181	0.020542	-0.005695	0.001506	-0.417480	0.495117	-0.141602	0.582729	-0.464916	-0.215105	-0.630880
41568		8.237937	-2.693187	4.569258	0.023203	-0.016921	0.011179	-0.410156	0.491211	-0.139404	0.582856	-0.465001	-0.215211	-0.630664
41569		8.232572	-2.687161	4.579762	0.040182	-0.024485	0.020676	-0.427246	0.488770	-0.146729	0.583120	-0.465066	-0.215393	-0.630310
41570		8.198995	-2.625405	4.637964	0.045640	-0.028592	0.025031	-0.411377	0.488281	-0.147461	0.583319	-0.465046	-0.215727	-0.630026
41571		8.231202	-2.499476	4.713992	0.032921	-0.049146	0.045923	-0.419189	0.490967	-0.135498	0.583663	-0.465225	-0.215928	-0.629506
41572		8.292920	-2.734170	4.526288	0.034812	-0.071656	0.070573	-0.422363	0.488037	-0.145264	0.583985	-0.465692	-0.216173	-0.628778
41573		8.235423	-2.669102	4.595362	0.045856	-0.078094	0.076557	-0.412354	0.491211	-0.151123	0.584386	-0.466028	-0.216535	-0.628031
41574		8.273938	-2.783690	4.532710	0.057766	-0.077503	0.079191	-0.421631	0.498291	-0.147949	0.584959	-0.466256	-0.216877	-0.627209
41575		8.278516	-2.762938	4.549372	0.072270	-0.074820	0.074364	-0.415283	0.494873	-0.142578	0.585490	-0.466453	-0.217305	-0.626420
41576		8.293386	-2.778829	4.482835	0.089600	-0.077672	0.076558	-0.419678	0.491455	-0.144775	0.586102	-0.466623	-0.217818	-0.625542
41577		8.168979	-2.657697	4.619154	0.095181	-0.080149	0.082135	-0.415283	0.500732	-0.145020	0.586727	-0.466751	-0.218407	-0.624655
41578		8.115387	-2.561815	4.713889	0.081466	-0.077159	0.072246	-0.414795	0.497803	-0.144043	0.587297	-0.466949	-0.218860	-0.623812
41579		8.272504	-2.675644	4.569567	0.065453	-0.081137	0.068966	-0.425781	0.495361	-0.151611	0.587768	-0.467236	-0.219286	-0.623004
41580		8.284713	-2.719741	4.548792	0.063567	-0.088753	0.081737	-0.414795	0.493164	-0.145996	0.588235	-0.467503	-0.219779	-0.622187
41581		8.280689	-2.792188	4.462225	0.076291	-0.085110	0.080917	-0.416504	0.500977	-0.144287	0.588798	-0.467734	-0.220278	-0.621305
41582		8.230814	-2.670354	4.579752	0.069908	-0.076141	0.072373	-0.411377	0.502686	-0.143555	0.589294	-0.467982	-0.220690	-0.620501
41583		8.294018	-2.780944	4.459951	0.062696	-0.062273	0.059529	-0.415283	0.494141	-0.147949	0.589751	-0.468184	-0.221008	-0.619801
41584		8.159408	-2.644241	4.622191	0.061737	-0.046702	0.049464	-0.413330	0.497314	-0.152100	0.590160	-0.468208	-0.221378	-0.619261
41585		8.218653	-2.661491	4.600028	0.039189	-0.048564	0.046058	-0.420898	0.501709	-0.154053	0.590491	-0.468322	-0.221624	-0.618770
41586		8.146639	-2.618658	4.642477	0.019463	-0.047237	0.037137	-0.408691	0.498779	-0.148682	0.590663	-0.468507	-0.221812	-0.618399
41587		8.288932	-2.663323	4.546892	-0.006569	-0.042150	0.029183	-0.414551	0.497070	-0.151611	0.590754	-0.468820	-0.221823	-0.618071
41588		8.312317	-2.764338	4.476255	-0.013134	-0.028110	0.017430	-0.416504	0.497559	-0.153076	0.590757	-0.469029	-0.221828	-0.617909
41589		8.265962	-2.777489	4.473059	-0.017813	-0.010612	0.000700	-0.412842	0.499023	-0.149658	0.590681	-0.469125	-0.221798	-0.617919
41590		8.272317	-2.783560	4.496213	-0.013663	0.009937	-0.015917	-0.412842	0.497803	-0.152588	0.590587	-0.469102	-0.221722	-0.618054
41591		8.368348	-2.747026	4.491279	-0.018498	0.022226	-0.026875	-0.406982	0.500977	-0.146484	0.590451	-0.468987	-0.221612	-0.618309
41592		8.296423	-2.789144	4.519363	-0.019970	0.045123	-0.045047	-0.408203	0.501465	-0.144775	0.590278	-0.468801	-0.221395	-0.618694
41593		8.403339	-2.865140	4.444306	-0.030680	0.094708	-0.077128	-0.410156	0.493652	-0.152588	0.589974	-0.468371	-0.221005	-0.619448
41594		8.329144	-2.885653	4.407389	-0.023691	0.164840	-0.128070	-0.410156	0.495850	-0.153809	0.589572	-0.467352	-0.220569	-0.620755
41595		8.146723	-2.719888	4.573782	-0.023166	0.197149	-0.146759	-0.421143	0.497314	-0.149170	0.589142	-0.466138	-0.220025	-0.622267
41596		8.114880	-2.604507	4.700849	-0.017243	0.196639	-0.150301	-0.412598	0.488525	-0.155273	0.588624	-0.464949	-0.219561	-0.623808
41597		8.169517	-2.619772	4.666255	-0.013827	0.175487	-0.136761	-0.416260	0.502197	-0.154297	0.588220	-0.463802	-0.219174	-0.625178
41598		8.058194	-2.514833	4.787727	-0.014206	0.147066	-0.120329	-0.419678	0.491211	-0.157471	0.587839	-0.462912	-0.218775	-0.626335
41599		8.181681	-2.541681	4.710358	-0.027494	0.108582	-0.095612	-0.417969	0.490723	-0.166260	0.587437	-0.462270	-0.218483	-0.627288
41600		8.259427	-2.668537	4.544933	-0.020045	0.089141	-0.078717	-0.421387	0.492188	-0.150391	0.587159	-0.461653	-0.218251	-0.628082
41601		8.136194	-2.587295	4.689922	-0.024396	0.065708	-0.061586	-0.421387	0.493408	-0.156982	0.586836	-0.461361	-0.218040	-0.628672
41602		8.244668	-2.602990	4.674303	-0.023063	0.040684	-0.047702	-0.420898	0.485107	-0.153076	0.586572	-0.461171	-0.217895	-0.629108
41603		8.271878	-2.668628	4.600385	-0.018607	0.020486	-0.034303	-0.415527	0.484863	-0.157959	0.586339	-0.461090	-0.217869	-0.629393
41604		8.261041	-2.640912	4.619047	-0.017052	0.004483	-0.022216	-0.418457	0.492676	-0.157227	0.586203	-0.461066	-0.217861	-0.629540
41605		8.272334	-2.677435	4.571056	-0.006961	-0.001532	-0.019566	-0.425049	0.490479	-0.160889	0.586098	-0.461067	-0.217885	-0.629629
41606		8.274633	-2.661638	4.564874	0.000639	0.000150	-0.019897	-0.418945	0.494141	-0.146729	0.585988	-0.460982	-0.217987	-0.629758
41607		8.208907	-2.652431	4.635518	0.006523	0.000263	-0.021995	-0.422363	0.486816	-0.158936	0.585889	-0.461000	-0.218063	-0.629811
41608		8.214815	-2.595783	4.647430	0.007545	-0.007292	-0.019689	-0.425293	0.488770	-0.152588	0.585803	-0.460925	-0.218245	-0.629883
41609		8.260118	-2.620574	4.629551	0.014942	-0.011304	-0.017295	-0.422607	0.493896	-0.151611	0.585711	-0.460901	-0.218469	-0.629908
41610		8.258642	-2.571260	4.658771	0.020721	-0.009166	-0.012688	-0.426514	0.485596	-0.153564	0.585693	-0.460876	-0.218646	-0.629881
41611		8.199743	-2.568614	4.716267	0.016152	-0.019104	-0.003367	-0.415039	0.489502	-0.151611	0.585661	-0.460894	-0.218885	-0.629816
41612		8.235755	-2.557251	4.673237	0.008877	-0.015257	0.001985	-0.422363	0.487061	-0.159180	0.585710	-0.460969	-0.218967	-0.629686
41613		8.220393	-2.599075	4.646738	0.003736	-0.022015	0.011082	-0.421387	0.488525	-0.148193	0.585752	-0.461047	-0.219076	-0.629552
41614		8.240269	-2.605235	4.674085	0.001858	-0.022162	0.016948	-0.418457	0.489502	-0.157227	0.585783	-0.461243	-0.219128	-0.629361
41615		8.249389	-2.586998	4.683336	-0.000718	-0.019649	0.019642	-0.420898	0.491943	-0.150879	0.585879	-0.461370	-0.219137	-0.629177
41616		8.206178	-2.561954	4.697810	-0.005765	-0.017324	0.023122	-0.419434	0.497070	-0.154297	0.585939	-0.461575	-0.219083	-0.628989
41617		8.250088	-2.606785	4.612572	-0.007161	-0.012003	0.016775	-0.416504	0.498779	-0.156250	0.585996	-0.461738	-0.218984	-0.628850
41618		8.222417	-2.540405	4.687935	-0.010734	-0.009820	0.020929	-0.418945	0.487549	-0.148682	0.586090	-0.461904	-0.218820	-0.628698
41619		8.252588	-2.646761	4.645021	-0.015470	-0.005181	0.024577	-0.411133	0.493652	-0.159424	0.586144	-0.462088	-0.218679	-0.628561
41620		8.199379	-2.643522	4.684545	-0.013251	-0.006709	0.022702	-0.420654	0.488281	-0.156006	0.586282	-0.462204	-0.218499	-0.628410
41621		8.246888	-2.635956	4.647614	-0.014408	-0.011462	0.021170	-0.418213	0.485840	-0.155273	0.586321	-0.462350	-0.218420	-0.628294
41622		8.265567	-2.657513	4.609828	-0.010655	-0.012535	0.019038	-0.415771	0.495117	-0.160400	0.586372	-0.462475	-0.218381	-0.628167
41623		8.203404	-2.614950	4.660423	-0.011660	-0.012869	0.020503	-0.416504	0.490479	-0.150635	0.586467	-0.462603	-0.218268	-0.628023
41624		8.234795	-2.635334	4.664392	-0.015388	-0.015105	0.021667	-0.417480	0.490234	-0.147949	0.586509	-0.462820	-0.218170	-0.627859
41625		8.216301	-2.634969	4.631217	-0.013420	-0.019034	0.023501	-0.409180	0.493408	-0.151123	0.586544	-0.463068	-0.218100	-0.627668
41626		8.230872	-2.625406	4.663483	-0.020658	-0.026384	0.031679	-0.419434	0.493896	-0.149902	0.586649	-0.463389	-0.217948	-0.627385
41627		8.262519	-2.661201	4.599328	-0.023459	-0.028892	0.032318	-0.415039	0.495850	-0.153076	0.586670	-0.463744	-0.217831	-0.627144
41628		8.249636	-2.740513	4.570822	-0.015981	-0.019837	0.025246	-0.421387	0.496094	-0.148438	0.586739	-0.463982	-0.217713	-0.626944
41629		8.151194	-2.662138	4.657013	-0.010744	-0.004565	0.011418	-0.421631	0.495850	-0.147705	0.586729	-0.464122	-0.217624	-0.626881
41630		8.141595	-2.625454	4.667985	-0.014912	-0.001031	0.000886	-0.410400	0.489746	-0.149414	0.586650	-0.464247	-0.217539	-0.626892
41631		8.227766	-2.696410	4.602747	-0.012530	0.002551	-0.002805	-0.413330	0.496826	-0.155762	0.586638	-0.464300	-0.217459	-0.626892
41632		8.262226	-2.686464	4.561333	-0.007581	0.002925	-0.004393	-0.414795	0.495361	-0.156250	0.586643	-0.464301	-0.217381	-0.626913
41633		8.195253	-2.693432	4.602007	-0.003795	-0.002142	-0.002713	-0.415771	0.494141	-0.157959	0.586653	-0.464304	-0.217357	-0.626910
41634		8.241371	-2.695187	4.608140	-0.002918	-0.003011	-0.002322	-0.415771	0.491211	-0.156006	0.586663	-0.464292	-0.217354	-0.626911
41635		8.287039	-2.709335	4.549019	0.003321	0.004009	-0.009035	-0.410156	0.495361	-0.156006	0.586667	-0.464204	-0.217392	-0.626958
41636		8.253733	-2.704246	4.585964	0.010001	0.013851	-0.012630	-0.412109	0.486572	-0.153320	0.586739	-0.464041	-0.217386	-0.627014
41637		8.247324	-2.623224	4.618401	0.011000	0.014183	-0.014092	-0.414062	0.494141	-0.151855	0.586777	-0.463860	-0.217448	-0.627091
41638		8.248104	-2.679884	4.596437	0.013315	0.008572	-0.008274	-0.416504	0.499023	-0.152832	0.586837	-0.463746	-0.217487	-0.627106
41639		8.213853	-2.687735	4.603697	0.014315	0.008904	-0.009736	-0.417969	0.495605	-0.159912	0.586886	-0.463634	-0.217515	-0.627133
41640		8.235228	-2.663298	4.623854	0.012841	0.009048	-0.010405	-0.418701	0.495117	-0.150635	0.586927	-0.463468	-0.217565	-0.627200
41641		8.197511	-2.638190	4.631407	0.014278	0.012895	-0.013556	-0.416260	0.487061	-0.148438	0.586937	-0.463335	-0.217617	-0.627271
41642		8.259780	-2.667884	4.611532	0.012237	0.024116	-0.018223	-0.416504	0.494385	-0.153809	0.586936	-0.463133	-0.217657	-0.627407
41643		8.268769	-2.688749	4.634733	0.014348	0.041767	-0.030538	-0.421875	0.493408	-0.158203	0.586932	-0.462796	-0.217630	-0.627669
41644		8.252806	-2.683583	4.637267	0.017422	0.074837	-0.047027	-0.416504	0.486328	-0.159180	0.586885	-0.462212	-0.217544	-0.628172
41645		8.214254	-2.684234	4.656254	0.027915	0.109040	-0.066751	-0.416748	0.488525	-0.156738	0.586867	-0.461336	-0.217443	-0.628868
41646		8.183343	-2.648100	4.720971	0.029766	0.126098	-0.081881	-0.417725	0.491699	-0.156006	0.586803	-0.460367	-0.217309	-0.629683
41647		8.133428	-2.520454	4.804261	0.024809	0.127520	-0.086833	-0.419434	0.489502	-0.151367	0.586692	-0.459431	-0.217139	-0.630529
41648		8.143811	-2.578786	4.701623	0.010272	0.106340	-0.080210	-0.416260	0.484375	-0.157715	0.586495	-0.458722	-0.216978	-0.631282
41649		8.179925	-2.563246	4.698061	0.002269	0.086022	-0.075442	-0.415771	0.493408	-0.160645	0.586287	-0.458114	-0.216876	-0.631952
41650		8.200494	-2.576772	4.733321	0.002136	0.069131	-0.069916	-0.414795	0.485352	-0.158936	0.586102	-0.457621	-0.216781	-0.632514
41651		8.152919	-2.553216	4.764496	-0.001857	0.056015	-0.060396	-0.421387	0.485596	-0.162842	0.585921	-0.457222	-0.216730	-0.632987
41652		8.164724	-2.544320	4.777013	-0.010400	0.038303	-0.055024	-0.418945	0.484863	-0.169189	0.585668	-0.456949	-0.216716	-0.633423
41653		8.231675	-2.543691	4.711318	-0.013469	0.028908	-0.049867	-0.420166	0.490967	-0.163574	0.585448	-0.456706	-0.216712	-0.633803
41654		8.218863	-2.513329	4.767881	-0.017724	0.025852	-0.045155	-0.422607	0.489502	-0.163818	0.585221	-0.456569	-0.216646	-0.634134
41655		8.240000	-2.598153	4.682214	-0.013823	0.034367	-0.049867	-0.415527	0.482910	-0.157959	0.584982	-0.456354	-0.216589	-0.634528
41656		8.192474	-2.603972	4.685179	-0.008612	0.037737	-0.055978	-0.424805	0.489258	-0.165771	0.584765	-0.456103	-0.216577	-0.634913
41657		8.208075	-2.528876	4.774101	-0.011864	0.035677	-0.057492	-0.426514	0.490234	-0.155273	0.584487	-0.455850	-0.216557	-0.635357
41658		8.183017	-2.498506	4.789440	-0.008925	0.031509	-0.056178	-0.421875	0.477051	-0.161377	0.584190	-0.455683	-0.216555	-0.635751
41659		8.178734	-2.571812	4.721314	-0.006952	0.030827	-0.049496	-0.427002	0.488037	-0.159668	0.583962	-0.455439	-0.216603	-0.636119
41660		8.168203	-2.513520	4.766652	-0.005943	0.027929	-0.055767	-0.422607	0.475586	-0.161621	0.583679	-0.455244	-0.216643	-0.636504
41661		8.187835	-2.510713	4.764926	-0.004910	0.028180	-0.053335	-0.426270	0.489746	-0.164795	0.583432	-0.454996	-0.216733	-0.636877
41662		8.200871	-2.528801	4.715142	-0.004404	0.028300	-0.052111	-0.422852	0.491943	-0.165527	0.583200	-0.454774	-0.216753	-0.637241
41663		8.207289	-2.501258	4.767006	-0.001479	0.028035	-0.050730	-0.423096	0.479248	-0.164062	0.583017	-0.454545	-0.216762	-0.637569
41664		8.208246	-2.468182	4.794762	0.001394	0.026510	-0.043668	-0.424561	0.482666	-0.161377	0.582857	-0.454294	-0.216833	-0.637869
41665		8.205709	-2.502188	4.780046	0.001891	0.022151	-0.041611	-0.427002	0.486084	-0.161377	0.582693	-0.454100	-0.216900	-0.638135
41666		8.227610	-2.474015	4.766066	0.003407	0.021949	-0.037070	-0.426758	0.483643	-0.165771	0.582549	-0.453920	-0.216944	-0.638380
41667		8.180243	-2.467873	4.797734	0.005826	0.026044	-0.037739	-0.426270	0.482910	-0.160645	0.582426	-0.453673	-0.216998	-0.638650
41668		8.181909	-2.422699	4.819499	0.002818	0.025028	-0.033413	-0.428955	0.482178	-0.156982	0.582306	-0.453485	-0.217021	-0.638884
41669		8.160300	-2.427285	4.834372	-0.000236	0.028565	-0.033772	-0.429688	0.482422	-0.165771	0.582153	-0.453317	-0.217017	-0.639145
41670		8.169932	-2.434634	4.886213	-0.004510	0.025567	-0.032957	-0.423340	0.481201	-0.162598	0.581997	-0.453133	-0.217008	-0.639419
41671		8.210346	-2.465130	4.783123	-0.006258	0.023376	-0.033814	-0.425293	0.480957	-0.168945	0.581864	-0.452983	-0.216990	-0.639652
41672		8.174930	-2.484777	4.796833	-0.002223	0.025312	-0.040463	-0.424561	0.482422	-0.171143	0.581715	-0.452753	-0.217020	-0.639941
41673		8.181335	-2.485032	4.788347	-0.004396	0.024171	-0.044350	-0.422119	0.484375	-0.166016	0.581548	-0.452525	-0.217048	-0.640245
41674		8.155969	-2.442644	4.832369	-0.001204	0.022409	-0.046710	-0.424561	0.483887	-0.165527	0.581389	-0.452325	-0.217088	-0.640517
41675		8.144032	-2.411814	4.852557	-0.005527	0.018809	-0.044984	-0.427490	0.475830	-0.164795	0.581198	-0.452173	-0.217121	-0.640786
41676		8.124238	-2.428833	4.835343	-0.004262	0.008007	-0.043728	-0.425781	0.480225	-0.160889	0.580968	-0.452058	-0.217256	-0.641029
41677		8.149391	-2.360571	4.837094	-0.002790	0.003402	-0.042205	-0.425293	0.475342	-0.161133	0.580758	-0.452001	-0.217383	-0.641218
41678		8.234283	-2.416990	4.786393	-0.003359	-0.002471	-0.036904	-0.431396	0.472656	-0.168701	0.580562	-0.451971	-0.217538	-0.641364
41679		8.221723	-2.427248	4.785577	0.001363	0.000072	-0.035577	-0.432129	0.473389	-0.162354	0.580365	-0.451857	-0.217732	-0.641557
41680		8.222221	-2.448511	4.762084	0.009230	0.004755	-0.036538	-0.428711	0.479492	-0.160889	0.580185	-0.451721	-0.217938	-0.641745
41681		8.190895	-2.400903	4.815988	0.008163	0.008299	-0.035015	-0.424316	0.478271	-0.157715	0.580050	-0.451600	-0.218074	-0.641906
41682		8.204830	-2.353977	4.878079	0.010844	0.009577	-0.029913	-0.429932	0.477051	-0.172607	0.579979	-0.451484	-0.218190	-0.642012
41683		8.192612	-2.364544	4.843143	0.005803	0.007943	-0.026583	-0.435547	0.478516	-0.158447	0.579896	-0.451315	-0.218307	-0.642166
41684		8.193136	-2.361182	4.843897	0.001744	0.000924	-0.018200	-0.436279	0.481201	-0.168945	0.579761	-0.451316	-0.218391	-0.642259
41685		8.192895	-2.372189	4.849533	-0.001331	-0.005103	-0.015997	-0.423584	0.478027	-0.167236	0.579639	-0.451313	-0.218477	-0.642342
41686		8.111001	-2.322455	4.868775	-0.003232	-0.014146	-0.012385	-0.429688	0.476807	-0.169678	0.579597	-0.451365	-0.218572	-0.642310
41687		8.204424	-2.335601	4.851871	-0.008279	-0.021505	-0.002572	-0.435303	0.476562	-0.164307	0.579536	-0.451485	-0.218659	-0.642252
41688		8.268137	-2.433139	4.785571	-0.006525	-0.014241	-0.003445	-0.429688	0.476807	-0.167480	0.579439	-0.451591	-0.218731	-0.642241
41689		8.211012	-2.394983	4.823125	-0.006320	-0.012525	-0.002346	-0.434326	0.475586	-0.157959	0.579400	-0.451664	-0.218782	-0.642206
41690		8.186221	-2.398959	4.807921	-0.005196	-0.016135	-0.000025	-0.424561	0.475586	-0.170166	0.579315	-0.451814	-0.218854	-0.642153
41691		8.165627	-2.336857	4.798249	-0.007884	-0.023805	0.006119	-0.433594	0.470215	-0.166260	0.579341	-0.451945	-0.218921	-0.642015
41692		8.089748	-2.284072	4.867865	-0.013227	-0.048110	0.020076	-0.434326	0.477539	-0.158447	0.579293	-0.452272	-0.219065	-0.641779
41693		8.210221	-2.325441	4.834089	-0.015836	-0.064820	0.031741	-0.428467	0.475342	-0.161377	0.579252	-0.452789	-0.219185	-0.641410
41694		8.291451	-2.445118	4.834363	-0.002501	-0.049992	0.027893	-0.431396	0.477051	-0.163086	0.579318	-0.453121	-0.219327	-0.641068
41695		8.399388	-2.551487	4.612869	0.016547	-0.006684	0.003653	-0.434814	0.489990	-0.163330	0.579389	-0.453079	-0.219453	-0.640990
41696		8.356921	-2.542135	4.697093	0.022539	0.022779	-0.007036	-0.428955	0.476807	-0.168701	0.579469	-0.452872	-0.219446	-0.641066
41697		8.213551	-2.426364	4.822180	0.016663	0.028316	-0.011494	-0.430420	0.476807	-0.168457	0.579556	-0.452582	-0.219465	-0.641187
41698		8.154990	-2.372054	4.859871	0.009792	0.019474	-0.011103	-0.428223	0.476074	-0.165771	0.579589	-0.452379	-0.219489	-0.641291
41699		8.168568	-2.368430	4.832645	0.000364	0.009225	-0.008137	-0.429688	0.476562	-0.169434	0.579593	-0.452295	-0.219497	-0.641344
41700		8.216238	-2.354627	4.799603	-0.001812	0.006176	-0.001618	-0.428467	0.474365	-0.156982	0.579617	-0.452232	-0.219488	-0.641370
41701		8.200568	-2.383430	4.805721	-0.002690	0.006368	0.002737	-0.428955	0.474854	-0.163086	0.579636	-0.452248	-0.219451	-0.641354
41702		8.211847	-2.395482	4.818985	-0.002066	0.007692	0.002112	-0.437500	0.477783	-0.168213	0.579669	-0.452217	-0.219419	-0.641357
41703		8.249838	-2.443121	4.756017	0.000046	0.014629	-0.004325	-0.423584	0.482422	-0.163086	0.579639	-0.452114	-0.219393	-0.641466
41704		8.222402	-2.432176	4.775598	0.003196	0.022497	-0.013106	-0.429932	0.479980	-0.163818	0.579685	-0.451969	-0.219327	-0.641549
41705		8.217559	-2.456179	4.826954	0.007562	0.027938	-0.021386	-0.426025	0.483154	-0.169189	0.579665	-0.451755	-0.219312	-0.641723
41706		8.191271	-2.441935	4.812672	0.008054	0.035105	-0.036157	-0.433594	0.477295	-0.177246	0.579625	-0.451448	-0.219303	-0.641977
41707		8.230797	-2.456499	4.742508	0.015008	0.046365	-0.043991	-0.430664	0.470947	-0.166260	0.579545	-0.450980	-0.219353	-0.642362
41708		8.239803	-2.486542	4.739083	0.016066	0.063142	-0.056274	-0.426514	0.468994	-0.166748	0.579425	-0.450443	-0.219390	-0.642835
41709		8.174254	-2.366323	4.841861	0.018035	0.065036	-0.064744	-0.429932	0.480469	-0.166748	0.579303	-0.449862	-0.219461	-0.643327
41710		8.147394	-2.320037	4.855954	0.013503	0.059688	-0.064098	-0.429932	0.474121	-0.172607	0.579147	-0.449372	-0.219474	-0.643805
41711		8.147713	-2.257602	4.876144	0.007963	0.052767	-0.056386	-0.429688	0.473389	-0.167969	0.579005	-0.448913	-0.219497	-0.644245
41712		8.179411	-2.239031	4.878283	0.005025	0.040907	-0.040045	-0.428955	0.477539	-0.159668	0.578910	-0.448590	-0.219495	-0.644556
41713		8.149131	-2.251255	4.912109	0.002947	0.033332	-0.028889	-0.436523	0.474365	-0.167480	0.578847	-0.448399	-0.219445	-0.644762
41714		8.191447	-2.314740	4.882042	0.000171	0.023258	-0.015306	-0.440674	0.476807	-0.171631	0.578783	-0.448257	-0.219409	-0.644931
41715		8.198976	-2.292262	4.861395	-0.000613	0.018929	-0.006313	-0.433838	0.480957	-0.171387	0.578737	-0.448146	-0.219353	-0.645068
41716		8.132866	-2.261998	4.884253	-0.006195	0.010849	0.003162	-0.428955	0.474609	-0.166016	0.578763	-0.448129	-0.219240	-0.645095
41717		8.115959	-2.266014	4.949464	-0.013869	-0.003508	0.014301	-0.427002	0.470703	-0.170898	0.578812	-0.448255	-0.219135	-0.644999
41718		8.207464	-2.309183	4.910150	-0.012777	-0.012761	0.019259	-0.425781	0.471436	-0.167969	0.578896	-0.448393	-0.219085	-0.644845
41719		8.202880	-2.347212	4.829723	-0.012872	-0.013945	0.021081	-0.429688	0.466309	-0.171875	0.578989	-0.448557	-0.219027	-0.644667
41720		8.163517	-2.343559	4.837850	-0.009442	-0.009552	0.022833	-0.431641	0.471680	-0.168457	0.579083	-0.448651	-0.218994	-0.644529
41721		8.143667	-2.304128	4.894724	-0.015863	-0.014966	0.025367	-0.431396	0.472412	-0.168213	0.579138	-0.448846	-0.218916	-0.644369
41722		8.161809	-2.339748	4.898197	-0.015733	-0.023976	0.030846	-0.430908	0.477295	-0.172852	0.579209	-0.449100	-0.218860	-0.644148
41723		8.190239	-2.341929	4.871090	-0.023159	-0.029733	0.034818	-0.432129	0.479492	-0.163086	0.579284	-0.449410	-0.218759	-0.643898
41724		8.203773	-2.413129	4.794728	-0.021653	-0.029261	0.034605	-0.428711	0.476562	-0.172363	0.579333	-0.449771	-0.218648	-0.643639
41725		8.224703	-2.396652	4.809269	-0.019030	-0.022849	0.034150	-0.433594	0.476318	-0.162109	0.579445	-0.450017	-0.218543	-0.643403
41726		8.211064	-2.378028	4.859030	-0.017177	-0.018882	0.032301	-0.436523	0.476807	-0.165527	0.579496	-0.450291	-0.218435	-0.643202
41727		8.191131	-2.406328	4.836826	-0.014870	-0.019783	0.029554	-0.432861	0.469727	-0.165771	0.579525	-0.450536	-0.218360	-0.643030
41728		8.242507	-2.469941	4.782323	-0.010628	-0.011047	0.022299	-0.435059	0.478271	-0.162598	0.579566	-0.450675	-0.218325	-0.642907
41729		8.203953	-2.452146	4.785467	-0.010230	-0.001235	0.013285	-0.428467	0.481934	-0.166748	0.579562	-0.450785	-0.218236	-0.642863
41730		8.265564	-2.550169	4.722935	0.007162	0.016810	-0.002797	-0.423584	0.478516	-0.163574	0.579636	-0.450662	-0.218194	-0.642898
41731		8.207007	-2.456135	4.814172	0.014947	0.028613	-0.023535	-0.430664	0.473389	-0.170654	0.579675	-0.450405	-0.218224	-0.643032
41732		8.180875	-2.402205	4.853699	0.014938	0.028608	-0.023527	-0.426270	0.466553	-0.161377	0.579671	-0.450106	-0.218293	-0.643221
41733		8.184710	-2.442826	4.828528	0.014579	0.031487	-0.033100	-0.428711	0.475098	-0.169922	0.579624	-0.449808	-0.218399	-0.643437
41734		8.174739	-2.345533	4.857401	0.015234	0.033396	-0.034616	-0.432617	0.478271	-0.173828	0.579587	-0.449472	-0.218474	-0.643679
41735		8.180242	-2.345638	4.850533	0.009988	0.030035	-0.032398	-0.429932	0.480713	-0.165771	0.579520	-0.449178	-0.218518	-0.643930
41736		8.218947	-2.361666	4.814999	0.011661	0.030981	-0.025865	-0.423828	0.472900	-0.170410	0.579500	-0.448932	-0.218518	-0.644119
41737		8.176722	-2.323792	4.889500	0.008106	0.028575	-0.017132	-0.426514	0.481934	-0.169189	0.579562	-0.448681	-0.218514	-0.644240
41738		8.078408	-2.262877	4.935859	0.001057	0.011060	-0.005792	-0.430664	0.479248	-0.166992	0.579612	-0.448614	-0.218472	-0.644256
41739		8.154408	-2.331909	4.903722	-0.009538	-0.003139	0.007801	-0.426025	0.478760	-0.167236	0.579628	-0.448710	-0.218405	-0.644198
41740		8.213688	-2.345282	4.887387	-0.011923	-0.007250	0.008452	-0.425049	0.471924	-0.169922	0.579666	-0.448831	-0.218341	-0.644100
41741		8.214520	-2.400544	4.802398	-0.009390	-0.002017	0.009813	-0.432861	0.478516	-0.171387	0.579734	-0.448882	-0.218294	-0.644019
41742		8.214840	-2.349667	4.850275	-0.009176	0.004112	0.013925	-0.433350	0.475586	-0.158203	0.579786	-0.448923	-0.218182	-0.643982
41743		8.160627	-2.320756	4.913122	-0.014560	-0.006086	0.020583	-0.433594	0.474854	-0.172363	0.579798	-0.449123	-0.218069	-0.643870
41744		8.178287	-2.395415	4.863902	-0.016718	-0.012957	0.023156	-0.428467	0.483154	-0.167236	0.579829	-0.449295	-0.217985	-0.643751
41745		8.160399	-2.395545	4.830860	-0.012260	-0.012051	0.019565	-0.432861	0.485107	-0.171875	0.579900	-0.449473	-0.217887	-0.643596
41746		8.167752	-2.417732	4.787600	-0.012059	-0.004617	0.014203	-0.427490	0.479004	-0.171143	0.579932	-0.449584	-0.217774	-0.643527
41747		8.161306	-2.388076	4.822336	-0.010068	-0.003936	0.011351	-0.424316	0.480713	-0.162842	0.579988	-0.449660	-0.217704	-0.643448
41748		8.128532	-2.349233	4.873495	-0.012549	-0.009888	0.018563	-0.426025	0.480225	-0.169189	0.580074	-0.449835	-0.217607	-0.643281
41749		8.116052	-2.355998	4.863742	-0.020531	-0.027230	0.034259	-0.424561	0.486328	-0.161865	0.580178	-0.450137	-0.217500	-0.643011
41750		8.183123	-2.380101	4.831347	-0.023201	-0.039383	0.041202	-0.433105	0.480713	-0.167236	0.580294	-0.450577	-0.217382	-0.642638
41751		8.194477	-2.426030	4.848919	-0.024145	-0.043620	0.042559	-0.430664	0.474854	-0.166748	0.580340	-0.451014	-0.217313	-0.642313
41752		8.246903	-2.491878	4.791332	-0.014202	-0.027511	0.034405	-0.422119	0.476074	-0.160889	0.580417	-0.451285	-0.217277	-0.642066
41753		8.225835	-2.407070	4.805877	-0.002717	-0.010918	0.026009	-0.429199	0.482910	-0.165283	0.580578	-0.451416	-0.217238	-0.641841
41754		8.190010	-2.422404	4.845090	-0.006713	-0.002074	0.024444	-0.422119	0.480469	-0.166260	0.580693	-0.451518	-0.217120	-0.641706
41755		8.200630	-2.424972	4.886756	-0.008390	-0.004336	0.027408	-0.427490	0.479004	-0.169434	0.580862	-0.451625	-0.216998	-0.641519
41756		8.223120	-2.446155	4.778927	-0.007020	-0.005644	0.029917	-0.424805	0.479736	-0.166260	0.581007	-0.451724	-0.216894	-0.641353
41757		8.187394	-2.475423	4.788255	-0.004974	-0.005035	0.030896	-0.429688	0.481201	-0.173340	0.581182	-0.451825	-0.216790	-0.641158
41758		8.172558	-2.494835	4.786586	-0.002287	-0.006914	0.027324	-0.416504	0.483643	-0.166748	0.581316	-0.451891	-0.216723	-0.641013
41759		8.148054	-2.462321	4.790437	0.000147	-0.011767	0.028308	-0.422607	0.476562	-0.161865	0.581550	-0.451993	-0.216668	-0.640747
41760		8.151658	-2.426695	4.770259	0.000607	-0.026931	0.038546	-0.429932	0.476318	-0.167236	0.581746	-0.452210	-0.216686	-0.640410
41761		8.120125	-2.377806	4.848049	0.001114	-0.046656	0.053457	-0.425049	0.488037	-0.160156	0.581935	-0.452537	-0.216754	-0.639984
41762		8.185558	-2.430299	4.824902	-0.007474	-0.062907	0.062380	-0.423340	0.485352	-0.166260	0.582156	-0.453060	-0.216771	-0.639407
41763		8.306976	-2.464245	4.749044	-0.007944	-0.060072	0.077593	-0.425781	0.489014	-0.164062	0.582475	-0.453556	-0.216727	-0.638780
41764		8.260221	-2.514678	4.715370	-0.000623	-0.047262	0.078574	-0.419922	0.484131	-0.165283	0.582830	-0.453968	-0.216646	-0.638190
41765		8.254752	-2.492951	4.745375	0.010395	-0.041150	0.080103	-0.419189	0.482422	-0.163086	0.583279	-0.454271	-0.216606	-0.637578
41766		8.239076	-2.518821	4.775142	0.014390	-0.045724	0.088594	-0.425781	0.479004	-0.156250	0.583774	-0.454599	-0.216587	-0.636897
41767		8.204017	-2.566981	4.750163	0.020757	-0.045452	0.087811	-0.422607	0.479492	-0.159668	0.584219	-0.454927	-0.216624	-0.636242
41768		8.151483	-2.557527	4.779031	0.020389	-0.043902	0.087764	-0.418457	0.488525	-0.166748	0.584689	-0.455227	-0.216650	-0.635587
41769		8.133115	-2.549779	4.773267	0.020539	-0.045356	0.080215	-0.416260	0.485840	-0.168213	0.585168	-0.455497	-0.216678	-0.634943
41770		8.181754	-2.618985	4.751454	0.017074	-0.044657	0.076779	-0.425781	0.489258	-0.156006	0.585624	-0.455758	-0.216710	-0.634323
41771		8.196328	-2.638689	4.686952	0.015800	-0.040809	0.062921	-0.416992	0.499268	-0.155029	0.585925	-0.456055	-0.216761	-0.633814
41772		8.187658	-2.666359	4.705978	0.014814	-0.035320	0.054005	-0.410156	0.494141	-0.163330	0.586265	-0.456323	-0.216772	-0.633302
41773		8.210122	-2.649184	4.685296	0.020905	-0.028227	0.043594	-0.417236	0.490234	-0.155762	0.586632	-0.456447	-0.216838	-0.632850
41774		8.152203	-2.528265	4.770601	0.024249	-0.028891	0.043239	-0.422607	0.490967	-0.162842	0.586941	-0.456593	-0.216949	-0.632421
41775		8.151516	-2.545980	4.773124	0.019179	-0.034393	0.046555	-0.416992	0.486328	-0.157227	0.587201	-0.456774	-0.217049	-0.632014
41776		8.171751	-2.569246	4.733242	0.011920	-0.042357	0.055535	-0.427490	0.484375	-0.146240	0.587492	-0.457058	-0.217130	-0.631511
41777		8.202419	-2.618425	4.711039	0.017894	-0.041717	0.056441	-0.416260	0.490723	-0.165039	0.587719	-0.457368	-0.217253	-0.631032
41778		8.142299	-2.624982	4.764082	0.014455	-0.040992	0.052981	-0.418457	0.488037	-0.151611	0.588021	-0.457597	-0.217336	-0.630557
41779		8.137809	-2.623797	4.735907	0.015632	-0.029057	0.034568	-0.416992	0.488281	-0.156250	0.588217	-0.457781	-0.217448	-0.630201
41780		8.151144	-2.638419	4.709855	0.012097	-0.016475	0.023565	-0.418945	0.491943	-0.161621	0.588377	-0.457873	-0.217521	-0.629959
41781		8.158008	-2.632150	4.727095	0.015175	-0.005736	0.008856	-0.417969	0.492432	-0.163086	0.588488	-0.457852	-0.217603	-0.629843
41782		8.188274	-2.588998	4.722085	0.012118	-0.002086	0.004622	-0.414795	0.483643	-0.156494	0.588579	-0.457813	-0.217666	-0.629765
41783		8.193068	-2.621230	4.686378	0.008002	-0.003260	0.002694	-0.421387	0.490967	-0.160889	0.588642	-0.457807	-0.217747	-0.629682
41784		8.181667	-2.595477	4.704272	0.014772	-0.000100	0.001085	-0.416260	0.478027	-0.163330	0.588699	-0.457749	-0.217835	-0.629640
41785		8.193540	-2.607017	4.716529	0.010874	-0.008702	0.009700	-0.417480	0.494141	-0.160645	0.588784	-0.457733	-0.217956	-0.629531
41786		8.214840	-2.598963	4.703902	0.009042	-0.016042	0.014494	-0.406494	0.487061	-0.165527	0.588894	-0.457815	-0.218025	-0.629344
41787		8.196169	-2.596540	4.706791	0.001673	-0.024497	0.020549	-0.412598	0.492676	-0.160156	0.589063	-0.457941	-0.218098	-0.629070
41788		8.219991	-2.649692	4.668201	0.002072	-0.025567	0.023609	-0.416260	0.489014	-0.158203	0.589207	-0.458116	-0.218148	-0.628789
41789		8.175334	-2.637901	4.687963	0.001013	-0.018032	0.021326	-0.416504	0.490723	-0.154053	0.589311	-0.458259	-0.218178	-0.628578
41790		8.195641	-2.631573	4.710226	0.000371	-0.014783	0.017241	-0.419434	0.491455	-0.156494	0.589393	-0.458401	-0.218197	-0.628391
41791		8.229631	-2.637019	4.673120	-0.005045	-0.014700	0.016659	-0.414795	0.491211	-0.163818	0.589433	-0.458561	-0.218191	-0.628239
41792		8.195935	-2.650276	4.676075	-0.006698	-0.012458	0.018817	-0.421631	0.491699	-0.150635	0.589522	-0.458683	-0.218160	-0.628076
41793		8.170630	-2.629581	4.721363	-0.008929	-0.010263	0.015898	-0.414307	0.482910	-0.163086	0.589528	-0.458863	-0.218112	-0.627955
41794		8.227447	-2.671994	4.679319	-0.005920	-0.009268	0.011540	-0.423584	0.491455	-0.161133	0.589571	-0.458939	-0.218127	-0.627855
41795		8.221366	-2.681406	4.624598	-0.002084	0.001279	0.013481	-0.424805	0.492188	-0.151611	0.589607	-0.458977	-0.218076	-0.627811
41796		8.209668	-2.644402	4.672746	0.001057	0.007367	0.007336	-0.415527	0.499023	-0.152344	0.589613	-0.458999	-0.218026	-0.627806
41797		8.191224	-2.614778	4.702725	-0.001205	0.000415	0.013877	-0.420654	0.487305	-0.156494	0.589710	-0.459080	-0.217942	-0.627686
41798		8.206928	-2.661632	4.678863	-0.002229	-0.004493	0.020064	-0.414062	0.494141	-0.156982	0.589775	-0.459169	-0.217906	-0.627572
41799		8.193455	-2.666458	4.671220	-0.001794	-0.013440	0.026870	-0.417969	0.492920	-0.156250	0.589918	-0.459318	-0.217860	-0.627345
41800		8.169394	-2.633291	4.710445	-0.000102	-0.015769	0.028589	-0.412354	0.492432	-0.161377	0.590040	-0.459478	-0.217836	-0.627121
41801		8.204659	-2.699200	4.649349	0.001249	-0.016429	0.026326	-0.422119	0.491943	-0.153564	0.590198	-0.459601	-0.217836	-0.626882
41802		8.217816	-2.701349	4.653547	0.007586	-0.017473	0.031180	-0.415039	0.498291	-0.153809	0.590324	-0.459749	-0.217856	-0.626648
41803		8.227309	-2.670629	4.658099	0.009137	-0.012443	0.026203	-0.418213	0.502197	-0.159668	0.590494	-0.459857	-0.217849	-0.626411
41804		8.212113	-2.701768	4.626288	0.009230	-0.015828	0.029096	-0.417480	0.492920	-0.153320	0.590665	-0.459972	-0.217844	-0.626167
41805		8.191141	-2.713684	4.636097	0.010819	-0.014778	0.027930	-0.412842	0.495605	-0.164551	0.590820	-0.460080	-0.217877	-0.625930
41806		8.196515	-2.722283	4.658692	0.017517	-0.016138	0.027172	-0.405762	0.500732	-0.160400	0.591041	-0.460115	-0.217953	-0.625668
41807		8.155647	-2.669989	4.661974	0.018067	-0.019999	0.032207	-0.414062	0.490967	-0.151123	0.591328	-0.460198	-0.218001	-0.625320
41808		8.196802	-2.728261	4.654688	0.020652	-0.027183	0.038152	-0.414551	0.502686	-0.161377	0.591563	-0.460341	-0.218112	-0.624953
41809		8.177314	-2.740676	4.627218	0.026708	-0.033856	0.041868	-0.409424	0.502930	-0.167725	0.591853	-0.460477	-0.218241	-0.624534
41810		8.146141	-2.727192	4.653137	0.033053	-0.033564	0.037130	-0.409668	0.499023	-0.159668	0.592178	-0.460543	-0.218421	-0.624114
41811		8.138277	-2.677646	4.691297	0.040034	-0.040516	0.040328	-0.415039	0.498535	-0.164062	0.592517	-0.460641	-0.218668	-0.623633
41812		8.236552	-2.644936	4.646598	0.029669	-0.052644	0.048951	-0.411377	0.492432	-0.163330	0.592807	-0.460855	-0.218900	-0.623118
41813		8.207024	-2.706289	4.615805	0.033112	-0.061475	0.064036	-0.405029	0.491699	-0.159668	0.593183	-0.461114	-0.219156	-0.622478
41814		8.204705	-2.752236	4.626567	0.038049	-0.068433	0.065385	-0.411865	0.499512	-0.162109	0.593605	-0.461393	-0.219463	-0.621760
41815		8.209610	-2.803465	4.589462	0.045169	-0.068971	0.057185	-0.410645	0.495850	-0.159668	0.593979	-0.461634	-0.219822	-0.621097
41816		8.242300	-2.778321	4.546661	0.052270	-0.070192	0.053797	-0.410889	0.496826	-0.165039	0.594357	-0.461841	-0.220249	-0.620430
41817		8.202621	-2.667209	4.639531	0.054513	-0.072598	0.064577	-0.410645	0.491455	-0.157715	0.594798	-0.462050	-0.220660	-0.619705
41818		8.193501	-2.733810	4.565695	0.047316	-0.082707	0.074847	-0.410156	0.498535	-0.152832	0.595228	-0.462383	-0.221058	-0.618901
41819		8.191907	-2.707015	4.663717	0.050296	-0.085846	0.078282	-0.413818	0.496826	-0.157959	0.595688	-0.462752	-0.221443	-0.618045
41820		8.173390	-2.735929	4.635725	0.041565	-0.091071	0.075339	-0.406250	0.502930	-0.150635	0.596064	-0.463165	-0.221837	-0.617231
41821		8.168393	-2.763201	4.613422	0.043357	-0.091000	0.069530	-0.408447	0.506592	-0.157715	0.596463	-0.463586	-0.222227	-0.616389
41822		8.130972	-2.593993	4.726432	0.025387	-0.084194	0.058413	-0.403564	0.499512	-0.158691	0.596744	-0.464022	-0.222534	-0.615678
41823		8.296229	-2.824485	4.516619	0.010565	-0.076559	0.050654	-0.413818	0.504150	-0.156738	0.596960	-0.464457	-0.222781	-0.615051
41824		8.314391	-2.816350	4.471161	0.009740	-0.067811	0.046428	-0.401855	0.500488	-0.153564	0.597108	-0.464862	-0.222988	-0.614525
41825		8.234068	-2.795214	4.533648	0.011720	-0.063208	0.039630	-0.406250	0.500977	-0.148438	0.597300	-0.465217	-0.223211	-0.613990
41826		8.261993	-2.692412	4.554456	0.001785	-0.057158	0.040865	-0.403564	0.496826	-0.156006	0.597439	-0.465612	-0.223345	-0.613506
41827		8.239002	-2.805745	4.518154	-0.004878	-0.051746	0.037799	-0.401123	0.501953	-0.148193	0.597560	-0.465970	-0.223452	-0.613076
41828		8.293841	-2.865044	4.477282	-0.005721	-0.028212	0.019841	-0.408203	0.500000	-0.151611	0.597646	-0.466211	-0.223481	-0.612799
41829		8.238574	-2.780191	4.508956	-0.011704	-0.010769	0.010189	-0.404785	0.498535	-0.158691	0.597648	-0.466362	-0.223446	-0.612695
41830		8.221259	-2.764156	4.542230	-0.022767	-0.012164	0.008026	-0.411621	0.499023	-0.151367	0.597616	-0.466544	-0.223383	-0.612611
41831		8.245487	-2.792045	4.491746	-0.029769	-0.013041	0.008696	-0.408691	0.504639	-0.153320	0.597511	-0.466794	-0.223279	-0.612560
41832		8.251576	-2.860867	4.453865	-0.025948	-0.006936	0.007508	-0.411621	0.507812	-0.151367	0.597457	-0.466991	-0.223153	-0.612510
41833		8.226592	-2.852449	4.469635	-0.020487	-0.006501	0.007110	-0.406982	0.497070	-0.152588	0.597408	-0.467169	-0.223044	-0.612460
41834		8.239990	-2.853039	4.474317	-0.014793	-0.000273	-0.000002	-0.412842	0.500732	-0.154785	0.597366	-0.467250	-0.222995	-0.612458
41835		8.297824	-2.809744	4.479257	-0.013727	-0.000035	0.002422	-0.410400	0.500244	-0.149414	0.597315	-0.467330	-0.222936	-0.612468
41836		8.213559	-2.799188	4.483760	-0.018166	-0.007546	0.008188	-0.406250	0.501953	-0.156738	0.597270	-0.467497	-0.222860	-0.612412
41837		8.218100	-2.820627	4.511972	-0.018633	-0.007066	0.006040	-0.411621	0.509277	-0.159180	0.597248	-0.467634	-0.222794	-0.612353
41838		8.219736	-2.868344	4.480896	-0.016816	-0.003546	-0.002830	-0.405273	0.508301	-0.153809	0.597176	-0.467734	-0.222738	-0.612367
41839		8.205572	-2.823439	4.503545	-0.013394	0.001014	-0.012908	-0.403564	0.499268	-0.147705	0.597105	-0.467787	-0.222707	-0.612408
41840		8.241664	-2.799713	4.526838	-0.019518	0.003253	-0.015719	-0.403320	0.506592	-0.153564	0.596990	-0.467857	-0.222662	-0.612482
41841		8.202309	-2.802552	4.508286	-0.026455	0.003655	-0.020821	-0.410889	0.501709	-0.153076	0.596842	-0.467943	-0.222586	-0.612588
41842		8.256079	-2.856909	4.471945	-0.030933	0.002847	-0.017046	-0.399414	0.504639	-0.150391	0.596643	-0.468060	-0.222496	-0.612726
41843		8.259822	-2.829685	4.459005	-0.026796	0.005333	-0.024835	-0.415771	0.503174	-0.159424	0.596495	-0.468134	-0.222426	-0.612838
41844		8.238513	-2.790774	4.499785	-0.028287	0.001488	-0.021614	-0.406982	0.509277	-0.152588	0.596262	-0.468220	-0.222383	-0.613015
41845		8.230645	-2.811074	4.486196	-0.032727	-0.006040	-0.015853	-0.404785	0.500488	-0.154297	0.596084	-0.468402	-0.222297	-0.613080
41846		8.316018	-2.882817	4.418868	-0.026849	-0.002679	-0.017049	-0.405518	0.500977	-0.153564	0.595929	-0.468515	-0.222260	-0.613158
41847		8.239888	-2.862500	4.441581	-0.021421	0.004482	-0.019436	-0.404053	0.504639	-0.159912	0.595794	-0.468562	-0.222222	-0.613267
41848		8.234306	-2.854739	4.453939	-0.013717	0.014008	-0.023696	-0.402588	0.504639	-0.141113	0.595705	-0.468501	-0.222194	-0.613410
41849		8.210902	-2.769331	4.525895	-0.019289	0.005637	-0.019426	-0.410400	0.501953	-0.156738	0.595598	-0.468572	-0.222128	-0.613484
41850		8.301526	-2.846078	4.448613	-0.022685	0.009056	-0.017111	-0.411621	0.500977	-0.154053	0.595455	-0.468600	-0.222056	-0.613627
41851		8.245485	-2.817034	4.496471	-0.023229	0.009626	-0.023148	-0.398193	0.500977	-0.150391	0.595271	-0.468625	-0.222001	-0.613807
41852		8.239808	-2.808939	4.509181	-0.026093	0.018546	-0.033157	-0.406006	0.505859	-0.150635	0.595119	-0.468602	-0.221918	-0.614002
41853		8.293268	-2.860075	4.475480	-0.034111	0.030013	-0.047425	-0.405762	0.502441	-0.154297	0.594850	-0.468544	-0.221781	-0.614356
41854		8.282803	-2.889177	4.401629	-0.032181	0.048685	-0.059086	-0.402832	0.495850	-0.153076	0.594561	-0.468344	-0.221622	-0.614845
41855		8.226545	-2.840805	4.521532	-0.024211	0.065911	-0.076643	-0.399414	0.498779	-0.155762	0.594249	-0.467978	-0.221501	-0.615469
41856		8.256489	-2.847774	4.429407	-0.016478	0.084630	-0.090383	-0.402344	0.498779	-0.147217	0.593965	-0.467447	-0.221378	-0.616190
41857		8.226140	-2.793384	4.457684	-0.010938	0.078256	-0.084858	-0.407471	0.499268	-0.148193	0.593702	-0.466957	-0.221276	-0.616852
41858		8.224099	-2.782731	4.503450	0.002184	0.068941	-0.074954	-0.397949	0.498535	-0.155762	0.593497	-0.466471	-0.221247	-0.617427
41859		8.232124	-2.810730	4.465188	0.011899	0.064425	-0.072388	-0.416260	0.498535	-0.158936	0.593399	-0.465939	-0.221298	-0.617905
41860		8.231067	-2.727961	4.527786	0.010950	0.056677	-0.064111	-0.408203	0.496094	-0.149902	0.593214	-0.465471	-0.221345	-0.618418
41861		8.257618	-2.776015	4.487564	0.012132	0.041526	-0.047222	-0.409912	0.491455	-0.155029	0.593138	-0.465124	-0.221399	-0.618732
41862		8.280717	-2.720612	4.570825	0.014270	0.026805	-0.035703	-0.401123	0.499512	-0.149170	0.593080	-0.464848	-0.221507	-0.618956
41863		8.271226	-2.677093	4.585608	0.011973	0.007945	-0.021438	-0.410889	0.493164	-0.156982	0.593135	-0.464726	-0.221622	-0.618954
41864		8.250226	-2.696629	4.567596	0.004747	-0.011274	-0.005590	-0.413574	0.498779	-0.154785	0.593128	-0.464747	-0.221751	-0.618899
41865		8.256269	-2.715387	4.559649	0.003542	-0.021301	0.002471	-0.407715	0.499512	-0.157959	0.593141	-0.464854	-0.221878	-0.618761
41866		8.285270	-2.772113	4.545101	-0.001596	-0.022783	0.002046	-0.407959	0.491943	-0.155762	0.593170	-0.464982	-0.221997	-0.618594
41867		8.273814	-2.773518	4.500570	0.005301	-0.015145	-0.000539	-0.412842	0.503418	-0.153320	0.593198	-0.465029	-0.222130	-0.618484
41868		8.248161	-2.775044	4.487576	0.010488	-0.001175	-0.008689	-0.406738	0.493896	-0.154053	0.593240	-0.464983	-0.222231	-0.618442
41869		8.247938	-2.772523	4.524680	0.011606	0.011560	-0.014852	-0.414551	0.493896	-0.153809	0.593283	-0.464841	-0.222316	-0.618476
41870		8.203019	-2.681912	4.568479	0.011626	0.018775	-0.013843	-0.410889	0.494141	-0.151855	0.593295	-0.464670	-0.222353	-0.618580
41871		8.219269	-2.711060	4.541433	0.003709	0.014113	-0.008820	-0.408936	0.499268	-0.151123	0.593318	-0.464575	-0.222353	-0.618630
41872		8.226566	-2.689245	4.626459	0.002254	0.002374	-0.001844	-0.408936	0.503418	-0.153076	0.593383	-0.464565	-0.222371	-0.618569
41873		8.240380	-2.688229	4.596220	-0.005485	-0.008385	0.004187	-0.404053	0.498779	-0.154541	0.593445	-0.464658	-0.222378	-0.618437
41874		8.260300	-2.766466	4.535249	-0.005805	-0.010701	0.004031	-0.411133	0.487061	-0.152100	0.593513	-0.464754	-0.222408	-0.618288
41875		8.281652	-2.758241	4.522094	-0.005308	-0.005907	-0.003414	-0.412109	0.490723	-0.152832	0.593459	-0.464811	-0.222444	-0.618285
41876		8.286782	-2.777095	4.515769	0.000054	0.001280	-0.005741	-0.405029	0.499512	-0.156006	0.593436	-0.464801	-0.222479	-0.618301
41877		8.257018	-2.746362	4.503847	0.000497	0.004794	-0.007445	-0.404541	0.495361	-0.145264	0.593497	-0.464762	-0.222511	-0.618261
41878		8.235000	-2.694916	4.575523	0.001678	-0.001657	-0.003089	-0.411377	0.499756	-0.146729	0.593558	-0.464781	-0.222551	-0.618174
41879		8.253707	-2.712895	4.539278	-0.002357	-0.006882	0.002738	-0.411621	0.495117	-0.147705	0.593599	-0.464860	-0.222566	-0.618069
41880		8.257985	-2.746703	4.501865	-0.002361	-0.015461	0.011353	-0.408203	0.498047	-0.155029	0.593645	-0.464995	-0.222595	-0.617913
41881		8.225646	-2.745522	4.534953	0.000206	-0.019352	0.018282	-0.410645	0.508057	-0.151367	0.593764	-0.465132	-0.222643	-0.617678
41882		8.209268	-2.716454	4.562228	0.002519	-0.016380	0.015508	-0.414795	0.499756	-0.153564	0.593914	-0.465251	-0.222690	-0.617428
41883		8.283525	-2.777160	4.483504	0.004102	-0.012702	0.020098	-0.410889	0.496338	-0.152344	0.594033	-0.465345	-0.222710	-0.617235
41884		8.255176	-2.795652	4.511836	0.004081	-0.009395	0.021069	-0.408447	0.499023	-0.143555	0.594170	-0.465422	-0.222712	-0.617044
41885		8.213973	-2.742501	4.552322	0.011549	-0.008254	0.017749	-0.411621	0.501953	-0.156738	0.594350	-0.465470	-0.222750	-0.616821
41886		8.234353	-2.735196	4.575578	0.008684	-0.010669	0.014512	-0.411377	0.502441	-0.145264	0.594487	-0.465512	-0.222813	-0.616634
41887		8.268925	-2.726572	4.532762	0.005481	-0.012090	0.012086	-0.407715	0.502441	-0.154541	0.594605	-0.465598	-0.222861	-0.616439
41888		8.274526	-2.806045	4.502459	0.008233	-0.002294	0.008563	-0.404053	0.504150	-0.152588	0.594750	-0.465591	-0.222904	-0.616288
41889		8.233413	-2.750940	4.544063	0.005670	0.001599	0.001630	-0.408936	0.493896	-0.158691	0.594890	-0.465566	-0.222944	-0.616158
41890		8.262261	-2.793416	4.491553	0.010113	0.006426	-0.005952	-0.403564	0.501221	-0.150635	0.594925	-0.465468	-0.223010	-0.616174
41891		8.240394	-2.740649	4.528915	0.013280	0.012516	-0.012185	-0.412598	0.494385	-0.159424	0.595033	-0.465327	-0.223086	-0.616148
41892		8.252024	-2.750175	4.507693	0.008513	0.017262	-0.012419	-0.413574	0.496582	-0.148682	0.595030	-0.465171	-0.223112	-0.616260
41893		8.232805	-2.729567	4.546555	0.009341	0.023688	-0.014902	-0.409912	0.500000	-0.158203	0.595045	-0.464996	-0.223109	-0.616378
41894		8.247493	-2.698953	4.544653	0.006699	0.029606	-0.015119	-0.412109	0.496582	-0.162598	0.595096	-0.464783	-0.223080	-0.616501
41895		8.195638	-2.734156	4.596326	0.004965	0.028033	-0.016871	-0.404297	0.499512	-0.158691	0.595092	-0.464576	-0.223056	-0.616668
41896		8.194805	-2.731574	4.564270	0.001166	0.025885	-0.019572	-0.410889	0.492432	-0.158203	0.595125	-0.464399	-0.223040	-0.616776
41897		8.286714	-2.791221	4.521911	0.006789	0.032148	-0.026582	-0.415283	0.503418	-0.163818	0.595076	-0.464152	-0.223037	-0.617010
41898		8.267254	-2.768731	4.527151	0.009574	0.042529	-0.031014	-0.410400	0.496582	-0.152344	0.595067	-0.463823	-0.223022	-0.617272
41899		8.258081	-2.769514	4.517050	0.020215	0.062213	-0.049089	-0.409668	0.492676	-0.156494	0.595045	-0.463326	-0.223022	-0.617666
41900		8.260750	-2.694245	4.604562	0.013020	0.071924	-0.054203	-0.418945	0.496582	-0.153564	0.594971	-0.462797	-0.222960	-0.618156
41901		8.195611	-2.697619	4.681394	0.013576	0.092962	-0.066233	-0.405273	0.496582	-0.161865	0.594846	-0.462146	-0.222830	-0.618810
41902		8.211204	-2.749494	4.668174	0.005187	0.135233	-0.098480	-0.412109	0.499756	-0.163818	0.594684	-0.461237	-0.222597	-0.619727
41903		8.161996	-2.777903	4.617735	0.005595	0.182324	-0.133134	-0.412354	0.494873	-0.160400	0.594411	-0.460019	-0.222261	-0.621014
41904		8.099641	-2.618535	4.689746	0.022175	0.192997	-0.146030	-0.415771	0.495117	-0.153564	0.594136	-0.458647	-0.221999	-0.622384
41905		8.025749	-2.451781	4.951698	0.003043	0.172219	-0.145118	-0.405273	0.497559	-0.166748	0.593750	-0.457493	-0.221724	-0.623698
41906		8.261235	-2.690894	4.671233	-0.006447	0.160276	-0.137796	-0.408447	0.496338	-0.170654	0.593419	-0.456434	-0.221458	-0.624883
41907		8.311728	-2.779297	4.503244	-0.002603	0.149711	-0.139654	-0.410889	0.491699	-0.168945	0.593051	-0.455402	-0.221270	-0.626050
41908		8.130292	-2.582359	4.736962	-0.000151	0.129551	-0.128013	-0.417236	0.486816	-0.163818	0.592685	-0.454489	-0.221143	-0.627104
41909		8.192808	-2.558276	4.748866	-0.007265	0.101980	-0.111530	-0.414795	0.489014	-0.162598	0.592275	-0.453798	-0.221036	-0.628029
41910		8.195583	-2.590607	4.695569	-0.008279	0.080246	-0.099846	-0.417236	0.478760	-0.174561	0.591921	-0.453249	-0.220992	-0.628774
41911		8.205907	-2.602836	4.688066	-0.002852	0.067834	-0.094575	-0.421631	0.493164	-0.177979	0.591502	-0.452728	-0.221014	-0.629535
41912		8.224076	-2.580525	4.722104	0.000225	0.069908	-0.096797	-0.420166	0.488770	-0.168701	0.591157	-0.452173	-0.221065	-0.630240
41913		8.164351	-2.514507	4.801193	0.004921	0.072983	-0.096311	-0.417236	0.489014	-0.165527	0.590839	-0.451596	-0.221114	-0.630935
41914		8.169679	-2.520462	4.769462	0.004787	0.067873	-0.094474	-0.423340	0.485352	-0.171387	0.590551	-0.451054	-0.221181	-0.631568
41915		8.134720	-2.464551	4.866578	0.003041	0.061762	-0.095345	-0.420898	0.478516	-0.166504	0.590182	-0.450544	-0.221269	-0.632247
41916		8.153005	-2.496169	4.815963	0.004025	0.056887	-0.087274	-0.418213	0.485596	-0.178467	0.589836	-0.450077	-0.221348	-0.632874
41917		8.225522	-2.480597	4.808829	0.005719	0.050738	-0.089419	-0.424561	0.481934	-0.171387	0.589524	-0.449608	-0.221494	-0.633446
41918		8.133491	-2.454205	4.829362	0.005730	0.046184	-0.084690	-0.429443	0.477783	-0.170654	0.589187	-0.449187	-0.221630	-0.634011
41919		8.166502	-2.417679	4.861086	0.003536	0.044364	-0.083796	-0.417725	0.481445	-0.170898	0.588797	-0.448793	-0.221754	-0.634609
41920		8.178803	-2.471102	4.796335	0.005901	0.043967	-0.083572	-0.421631	0.474121	-0.171875	0.588513	-0.448383	-0.221903	-0.635109
41921		8.172248	-2.426309	4.838447	0.009276	0.048960	-0.086517	-0.421387	0.476318	-0.170898	0.588176	-0.447924	-0.222051	-0.635694
41922		8.150118	-2.436028	4.862362	0.011811	0.046491	-0.092927	-0.428955	0.472900	-0.173828	0.587832	-0.447456	-0.222250	-0.636272
41923		8.159261	-2.401577	4.845226	0.011269	0.041847	-0.093241	-0.431396	0.483887	-0.177002	0.587416	-0.447013	-0.222466	-0.636891
41924		8.178387	-2.404648	4.852482	0.012194	0.042777	-0.099341	-0.433350	0.482178	-0.169922	0.587027	-0.446546	-0.222711	-0.637491
41925		8.165572	-2.378389	4.881436	0.006956	0.036188	-0.105733	-0.426025	0.474854	-0.180908	0.586566	-0.446143	-0.222975	-0.638106
41926		8.149099	-2.360050	4.855332	0.002487	0.031418	-0.106004	-0.419922	0.473633	-0.180176	0.586078	-0.445760	-0.223255	-0.638724
41927		8.075811	-2.349896	4.909179	0.000836	0.024679	-0.102173	-0.434814	0.475586	-0.177979	0.585629	-0.445425	-0.223548	-0.639266
41928		8.139715	-2.320604	4.884606	-0.005140	0.009362	-0.102588	-0.427002	0.472168	-0.171387	0.585063	-0.445213	-0.223875	-0.639818
41929		8.188828	-2.280327	4.917011	-0.009198	-0.002655	-0.096312	-0.428467	0.473633	-0.171143	0.584532	-0.445104	-0.224212	-0.640261
41930		8.215133	-2.258969	4.869561	-0.005696	-0.003388	-0.085151	-0.430176	0.472900	-0.179688	0.584079	-0.445004	-0.224529	-0.640633
41931		8.268053	-2.319642	4.860479	0.007201	0.002283	-0.076929	-0.427734	0.472656	-0.173584	0.583715	-0.444809	-0.224867	-0.640981
41932		8.252931	-2.278290	4.853773	0.009286	-0.001560	-0.075092	-0.432861	0.477051	-0.181396	0.583384	-0.444638	-0.225222	-0.641276
41933		8.236642	-2.223933	4.876780	0.008557	0.000363	-0.069653	-0.428955	0.470459	-0.173340	0.583077	-0.444460	-0.225549	-0.641564
41934		8.245336	-2.286780	4.824203	0.010962	0.003820	-0.061751	-0.432861	0.466797	-0.182861	0.582828	-0.444278	-0.225838	-0.641815
41935		8.175206	-2.202533	4.875203	0.013410	0.007867	-0.054760	-0.430176	0.468750	-0.183350	0.582589	-0.444057	-0.226102	-0.642091
41936		8.200707	-2.243351	4.878417	0.014590	0.009304	-0.050354	-0.428955	0.465088	-0.175293	0.582412	-0.443830	-0.226352	-0.642321
41937		8.194613	-2.203572	4.915248	0.011408	0.004785	-0.040677	-0.436523	0.468750	-0.176270	0.582266	-0.443674	-0.226565	-0.642486
41938		8.215680	-2.228047	4.887522	0.007612	0.004576	-0.033027	-0.424072	0.468506	-0.178711	0.582123	-0.443557	-0.226725	-0.642640
41939		8.176911	-2.122392	4.963386	0.009285	0.000576	-0.028608	-0.437256	0.457520	-0.182129	0.582074	-0.443448	-0.226907	-0.642695
41940		8.243223	-2.241744	4.878425	0.006032	0.005544	-0.017696	-0.435303	0.459961	-0.178955	0.581952	-0.443347	-0.227007	-0.642840
41941		8.237585	-2.273328	4.837978	0.013020	0.012279	-0.016986	-0.439453	0.463867	-0.183105	0.581903	-0.443182	-0.227109	-0.642962
41942		8.234123	-2.255946	4.906016	0.013719	0.015348	-0.020308	-0.430176	0.473633	-0.176758	0.581841	-0.442987	-0.227214	-0.643115
41943		8.209170	-2.203210	4.906980	0.011787	0.015257	-0.018388	-0.435547	0.467529	-0.182129	0.581880	-0.442818	-0.227291	-0.643169
41944		8.195149	-2.175695	4.926759	0.011193	0.017763	-0.010090	-0.429443	0.468018	-0.177246	0.581910	-0.442644	-0.227331	-0.643248
41945		8.180979	-2.176579	4.922892	0.008040	0.018276	0.001639	-0.429688	0.467285	-0.175537	0.582031	-0.442512	-0.227304	-0.643239
41946		8.227124	-2.202694	4.874588	0.005795	0.019150	0.008155	-0.435791	0.460693	-0.174805	0.582175	-0.442402	-0.227235	-0.643209
41947		8.217197	-2.184400	4.918470	0.003056	0.015431	0.010498	-0.436279	0.458984	-0.180176	0.582249	-0.442334	-0.227161	-0.643214
41948		8.166884	-2.173111	4.977662	0.004385	0.013009	0.014808	-0.436523	0.463379	-0.180176	0.582337	-0.442267	-0.227099	-0.643202
41949		8.175487	-2.195051	4.901998	-0.003196	0.008781	0.022389	-0.432861	0.461914	-0.180420	0.582447	-0.442277	-0.226986	-0.643136
41950		8.219921	-2.224193	4.887677	-0.003411	0.006472	0.022206	-0.437012	0.467529	-0.182373	0.582567	-0.442295	-0.226889	-0.643049
41951		8.170400	-2.241650	4.921461	-0.006220	0.002779	0.020746	-0.431885	0.468018	-0.178711	0.582657	-0.442346	-0.226795	-0.642966
41952		8.163914	-2.186198	4.944362	-0.010160	-0.003580	0.024312	-0.428467	0.471191	-0.181641	0.582770	-0.442462	-0.226693	-0.642820
41953		8.163731	-2.217762	4.919347	-0.014874	-0.007968	0.029477	-0.437500	0.466553	-0.182861	0.582916	-0.442625	-0.226572	-0.642618
41954		8.182481	-2.239915	4.918484	-0.017764	-0.012827	0.029829	-0.429443	0.468262	-0.180664	0.582970	-0.442831	-0.226460	-0.642466
41955		8.197846	-2.323502	4.816260	-0.014101	-0.003737	0.024354	-0.430664	0.467041	-0.179199	0.583079	-0.442959	-0.226344	-0.642320
41956		8.196390	-2.273001	4.863809	-0.007292	0.009279	0.010120	-0.433350	0.475830	-0.178711	0.583146	-0.442961	-0.226253	-0.642289
41957		8.209743	-2.272372	4.836543	-0.000986	0.020336	0.005014	-0.427490	0.471924	-0.183594	0.583244	-0.442874	-0.226146	-0.642299
41958		8.157241	-2.259588	4.932435	0.003514	0.022414	-0.000333	-0.425781	0.468506	-0.184326	0.583356	-0.442723	-0.226088	-0.642321
41959		8.156062	-2.218952	4.953289	0.001900	0.021367	-0.003019	-0.429443	0.462891	-0.185791	0.583444	-0.442576	-0.226043	-0.642358
41960		8.168830	-2.230040	4.932336	-0.001527	0.010150	-0.000339	-0.437500	0.464600	-0.178711	0.583470	-0.442506	-0.226031	-0.642387
41961		8.174479	-2.275472	4.904542	0.004410	0.011551	-0.004088	-0.422363	0.461914	-0.186768	0.583453	-0.442422	-0.226040	-0.642457
41962		8.174160	-2.207943	4.947237	-0.003041	0.004646	-0.002207	-0.427734	0.468994	-0.176758	0.583499	-0.442374	-0.226064	-0.642440
41963		8.181918	-2.227087	4.906625	-0.002266	0.007689	-0.001724	-0.434326	0.467041	-0.184326	0.583540	-0.442345	-0.226045	-0.642429
41964		8.151855	-2.231348	4.965224	-0.003443	-0.000577	0.002127	-0.434570	0.467285	-0.187012	0.583537	-0.442360	-0.226055	-0.642419
41965		8.186645	-2.233797	4.930725	-0.007176	-0.004627	0.005874	-0.437744	0.464600	-0.184326	0.583534	-0.442414	-0.226055	-0.642384
41966		8.168736	-2.205126	4.922541	-0.007776	-0.005948	0.006485	-0.421631	0.468994	-0.177734	0.583499	-0.442488	-0.226054	-0.642365
41967		8.172296	-2.238953	4.957536	-0.006070	-0.009362	0.009997	-0.426025	0.470215	-0.181396	0.583596	-0.442581	-0.226063	-0.642210
41968		8.201548	-2.250673	4.903607	-0.009106	-0.011538	0.016038	-0.435547	0.471191	-0.175049	0.583688	-0.442707	-0.226044	-0.642046
41969		8.214006	-2.291273	4.890977	-0.007231	-0.006408	0.012399	-0.441162	0.464600	-0.176758	0.583712	-0.442818	-0.226003	-0.641962
41970		8.195735	-2.263533	4.882989	-0.004845	-0.002322	0.015572	-0.429688	0.473389	-0.181152	0.583711	-0.442900	-0.225953	-0.641925
41971		8.198432	-2.298225	4.918966	-0.005541	0.000815	0.015364	-0.432129	0.470947	-0.179932	0.583819	-0.442948	-0.225887	-0.641816
41972		8.172137	-2.278090	4.928848	-0.006636	-0.005089	0.011791	-0.426025	0.470703	-0.183105	0.583867	-0.443030	-0.225858	-0.641726
41973		8.167319	-2.274608	4.903396	-0.006991	-0.008533	0.009604	-0.424316	0.467041	-0.179199	0.583937	-0.443112	-0.225863	-0.641604
41974		8.188332	-2.266597	4.891191	-0.007863	-0.007117	0.008302	-0.428955	0.471680	-0.182861	0.583994	-0.443194	-0.225862	-0.641495
41975		8.166594	-2.237758	4.954355	-0.008003	-0.008255	0.006305	-0.434570	0.479980	-0.177490	0.584025	-0.443278	-0.225868	-0.641407
41976		8.173478	-2.285770	4.923065	-0.012808	-0.013813	0.013279	-0.427734	0.476318	-0.181885	0.584049	-0.443456	-0.225824	-0.641278
41977		8.161164	-2.263707	4.937737	-0.012527	-0.015351	0.009578	-0.425537	0.468994	-0.174072	0.584087	-0.443610	-0.225820	-0.641138
41978		8.191185	-2.302177	4.858854	-0.015692	-0.017467	0.008009	-0.426270	0.465576	-0.177979	0.584084	-0.443800	-0.225817	-0.641010
41979		8.225715	-2.319349	4.828426	-0.011533	-0.010005	0.010254	-0.430908	0.472168	-0.177490	0.584109	-0.443922	-0.225802	-0.640908
41980		8.223902	-2.321164	4.863048	-0.007919	-0.002077	0.006586	-0.430420	0.479492	-0.177490	0.584133	-0.443989	-0.225768	-0.640852
41981		8.189068	-2.294421	4.920177	-0.008138	-0.004383	0.006397	-0.435059	0.465088	-0.169678	0.584179	-0.444072	-0.225736	-0.640764
41982		8.156294	-2.268183	4.941186	-0.008718	-0.006325	0.011724	-0.429688	0.470703	-0.179932	0.584162	-0.444196	-0.225696	-0.640708
41983		8.205110	-2.310220	4.858898	-0.009707	-0.006663	0.013138	-0.434814	0.472168	-0.172119	0.584209	-0.444298	-0.225658	-0.640607
41984		8.232507	-2.308509	4.835749	-0.007500	0.001329	0.012590	-0.432617	0.463135	-0.185547	0.584242	-0.444373	-0.225578	-0.640553
41985		8.196869	-2.282406	4.894018	-0.002565	0.006820	0.013232	-0.437988	0.470459	-0.174316	0.584304	-0.444351	-0.225532	-0.640529
41986		8.167194	-2.275401	4.946804	-0.004417	0.002268	0.015973	-0.430420	0.467285	-0.181396	0.584342	-0.444410	-0.225455	-0.640480
41987		8.168712	-2.305212	4.886755	-0.006913	-0.004191	0.020231	-0.432861	0.468750	-0.176758	0.584428	-0.444491	-0.225404	-0.640362
41988		8.180582	-2.320048	4.897847	-0.013628	-0.013062	0.020522	-0.431641	0.471191	-0.175049	0.584457	-0.444671	-0.225347	-0.640232
41989		8.193945	-2.348353	4.878300	-0.012784	-0.013861	0.017111	-0.426758	0.473145	-0.182861	0.584480	-0.444848	-0.225306	-0.640102
41990		8.184137	-2.286988	4.875270	-0.015129	-0.012344	0.015122	-0.429199	0.468750	-0.172852	0.584533	-0.444998	-0.225266	-0.639963
41991		8.204178	-2.267252	4.892059	-0.013558	-0.011897	0.018722	-0.433105	0.471436	-0.173340	0.584570	-0.445172	-0.225209	-0.639829
41992		8.185458	-2.201470	4.936092	-0.016551	-0.019762	0.031224	-0.429932	0.469727	-0.169189	0.584629	-0.445432	-0.225121	-0.639625
41993		8.160386	-2.212912	4.918381	-0.024382	-0.033202	0.050724	-0.425537	0.471680	-0.178223	0.584746	-0.445843	-0.224983	-0.639279
41994		8.159647	-2.276244	4.900049	-0.023478	-0.046588	0.065847	-0.434082	0.471436	-0.179443	0.584967	-0.446318	-0.224877	-0.638783
41995		8.154919	-2.348959	4.826324	-0.027224	-0.050711	0.073471	-0.424561	0.475586	-0.175293	0.585150	-0.446853	-0.224740	-0.638290
41996		8.171807	-2.444139	4.813879	-0.025061	-0.041475	0.063510	-0.429688	0.468994	-0.172119	0.585366	-0.447311	-0.224600	-0.637820
41997		8.139032	-2.438738	4.835987	-0.024601	-0.033797	0.047930	-0.423096	0.468018	-0.174561	0.585458	-0.447706	-0.224488	-0.637498
41998		8.226516	-2.479825	4.769459	-0.020651	-0.026170	0.034909	-0.424805	0.476074	-0.170166	0.585553	-0.447998	-0.224422	-0.637228
41999		8.178978	-2.445672	4.847273	-0.016878	-0.015832	0.023780	-0.426514	0.480469	-0.166748	0.585620	-0.448218	-0.224341	-0.637040
42000		8.202252	-2.413442	4.821399	-0.013472	-0.020271	0.019536	-0.425537	0.474365	-0.173340	0.585660	-0.448453	-0.224299	-0.636854
42001		8.209903	-2.422646	4.806608	-0.010398	-0.018716	0.018191	-0.423584	0.485107	-0.171387	0.585711	-0.448634	-0.224298	-0.636679
42002		8.191860	-2.408920	4.802796	-0.009833	-0.017985	0.018487	-0.422852	0.487549	-0.171631	0.585800	-0.448822	-0.224271	-0.636474
42003		8.251441	-2.449536	4.761303	-0.002537	-0.013405	0.016371	-0.428467	0.483887	-0.174316	0.585924	-0.448945	-0.224266	-0.636275
42004		8.227016	-2.415610	4.764725	0.003435	-0.007591	0.015572	-0.416748	0.479248	-0.170654	0.586036	-0.449003	-0.224276	-0.636128
42005		8.194448	-2.389089	4.786456	0.009524	-0.006300	0.019414	-0.428223	0.472168	-0.159912	0.586250	-0.449023	-0.224309	-0.635905
42006		8.251316	-2.428803	4.782908	0.012706	-0.004208	0.020978	-0.427490	0.488770	-0.171631	0.586380	-0.449060	-0.224330	-0.635752
42007		8.288862	-2.477971	4.755068	0.020398	-0.001258	0.022784	-0.427002	0.485596	-0.178467	0.586616	-0.449025	-0.224359	-0.635548
42008		8.271097	-2.435677	4.743332	0.026192	0.002191	0.025621	-0.422119	0.476074	-0.171875	0.586897	-0.448927	-0.224409	-0.635339
42009		8.162943	-2.386464	4.841084	0.028818	-0.002155	0.033363	-0.430176	0.484131	-0.164551	0.587218	-0.448860	-0.224476	-0.635067
42010		8.145425	-2.345997	4.828056	0.029894	-0.018335	0.050444	-0.428955	0.481201	-0.166260	0.587561	-0.448943	-0.224533	-0.634671
42011		8.113854	-2.296570	4.870902	0.022199	-0.047871	0.066815	-0.422119	0.477539	-0.162842	0.587905	-0.449241	-0.224642	-0.634102
42012		8.187492	-2.426839	4.856215	0.019045	-0.056373	0.080339	-0.421875	0.475586	-0.169922	0.588318	-0.449623	-0.224730	-0.633417
42013		8.186022	-2.528786	4.784562	0.024642	-0.042685	0.068244	-0.423584	0.479248	-0.171387	0.588715	-0.449861	-0.224842	-0.632840
42014		8.227383	-2.542081	4.735064	0.032382	-0.025912	0.045793	-0.428223	0.469971	-0.175293	0.589051	-0.449930	-0.224992	-0.632425
42015		8.130423	-2.445406	4.830680	0.039912	-0.018425	0.039110	-0.420898	0.487549	-0.176025	0.589348	-0.449898	-0.225193	-0.632099
42016		8.139296	-2.386395	4.859821	0.037849	-0.019054	0.038151	-0.424805	0.480957	-0.169678	0.589713	-0.449881	-0.225357	-0.631712
42017		8.189083	-2.448056	4.842863	0.035394	-0.023757	0.039748	-0.420654	0.486328	-0.176514	0.590018	-0.449922	-0.225527	-0.631336
42018		8.241555	-2.496639	4.783898	0.033201	-0.020452	0.035027	-0.427979	0.488525	-0.174561	0.590341	-0.449929	-0.225689	-0.630972
42019		8.210131	-2.483255	4.775185	0.025709	-0.015955	0.027838	-0.414062	0.489746	-0.168457	0.590563	-0.449951	-0.225806	-0.630707
42020		8.178928	-2.429423	4.820150	0.010681	-0.013234	0.020858	-0.423096	0.483887	-0.175293	0.590770	-0.450022	-0.225848	-0.630447
42021		8.216594	-2.479652	4.790901	0.001370	-0.008260	0.018522	-0.431152	0.489258	-0.165039	0.590882	-0.450095	-0.225847	-0.630290
42022		8.217176	-2.508666	4.730705	0.004006	-0.001217	0.013280	-0.419434	0.486816	-0.173828	0.590942	-0.450150	-0.225817	-0.630206
42023		8.124193	-2.469000	4.804348	0.002108	-0.000067	0.009562	-0.420898	0.480957	-0.171143	0.591049	-0.450162	-0.225805	-0.630102
42024		8.156733	-2.472553	4.805201	-0.002156	-0.008126	0.012112	-0.416992	0.482910	-0.171387	0.591113	-0.450246	-0.225810	-0.629979
42025		8.229724	-2.510934	4.735787	0.004386	-0.006046	0.008574	-0.418945	0.480225	-0.167725	0.591213	-0.450276	-0.225850	-0.629850
42026		8.236500	-2.517157	4.723791	0.011453	-0.003825	0.006238	-0.418945	0.482910	-0.170410	0.591309	-0.450266	-0.225925	-0.629739
42027		8.182862	-2.470576	4.817061	0.010712	-0.001848	0.007847	-0.423096	0.491943	-0.175781	0.591424	-0.450247	-0.225978	-0.629626
42028		8.194571	-2.481968	4.829904	0.010333	-0.000224	0.003901	-0.422852	0.492676	-0.175781	0.591521	-0.450212	-0.226024	-0.629544
42029		8.188800	-2.462375	4.836077	0.005753	0.003467	-0.001017	-0.430908	0.483398	-0.163330	0.591583	-0.450172	-0.226044	-0.629507
42030		8.210493	-2.492972	4.736404	0.004636	0.007068	-0.003357	-0.419678	0.481445	-0.167236	0.591562	-0.450146	-0.226053	-0.629542
42031		8.169454	-2.443692	4.837209	0.003642	0.006738	-0.001926	-0.423096	0.486816	-0.170410	0.591603	-0.450107	-0.226062	-0.629528
42032		8.181521	-2.468377	4.820466	0.002364	-0.000963	0.001088	-0.421875	0.482422	-0.170898	0.591636	-0.450121	-0.226082	-0.629480
42033		8.215153	-2.497733	4.761923	0.001962	-0.005036	0.003654	-0.421631	0.486084	-0.178467	0.591672	-0.450156	-0.226122	-0.629407
42034		8.223630	-2.504143	4.713829	0.005795	-0.006115	0.005431	-0.416504	0.484131	-0.172852	0.591745	-0.450165	-0.226182	-0.629310
42035		8.222341	-2.504035	4.749186	0.007362	-0.005055	0.004290	-0.416260	0.488770	-0.177734	0.591837	-0.450166	-0.226246	-0.629200
42036		8.219016	-2.445582	4.771366	0.004421	-0.015626	0.015031	-0.419678	0.482422	-0.180420	0.591968	-0.450249	-0.226303	-0.628997
42037		8.167326	-2.428588	4.801792	0.002336	-0.032110	0.027942	-0.423828	0.477539	-0.170654	0.592099	-0.450445	-0.226400	-0.628698
42038		8.142661	-2.423164	4.813495	0.004102	-0.044619	0.040879	-0.419189	0.484863	-0.168701	0.592241	-0.450745	-0.226518	-0.628307
42039		8.196180	-2.461954	4.779601	0.001636	-0.049953	0.047251	-0.419189	0.482178	-0.163086	0.592431	-0.451103	-0.226608	-0.627838
42040		8.216832	-2.499455	4.744076	-0.000436	-0.046738	0.050204	-0.411621	0.490479	-0.169922	0.592623	-0.451471	-0.226660	-0.627374
42041		8.210407	-2.499894	4.785342	0.000683	-0.044655	0.046045	-0.425537	0.487061	-0.175537	0.592860	-0.451796	-0.226714	-0.626896
42042		8.146316	-2.488245	4.806802	-0.001279	-0.040258	0.047162	-0.417480	0.491455	-0.168213	0.593029	-0.452105	-0.226749	-0.626500
42043		8.145395	-2.534307	4.783998	-0.005508	-0.032434	0.035834	-0.422119	0.483643	-0.169922	0.593179	-0.452386	-0.226748	-0.626156
42044		8.206433	-2.551267	4.728702	-0.009570	-0.018354	0.020886	-0.419189	0.484375	-0.164795	0.593224	-0.452578	-0.226732	-0.625980
42045		8.205643	-2.567413	4.732563	-0.010475	-0.007269	0.009251	-0.417480	0.487793	-0.166260	0.593237	-0.452705	-0.226693	-0.625890
42046		8.193879	-2.543922	4.748579	-0.009439	-0.005711	0.002137	-0.420410	0.482178	-0.173340	0.593234	-0.452803	-0.226674	-0.625829
42047		8.150736	-2.477298	4.816514	-0.012333	-0.013839	0.001565	-0.431396	0.486816	-0.172119	0.593184	-0.452936	-0.226703	-0.625769
42048		8.191394	-2.500244	4.773424	-0.017274	-0.018095	-0.000834	-0.423584	0.487061	-0.166748	0.593049	-0.453128	-0.226727	-0.625750
42049		8.252029	-2.541298	4.694530	-0.021467	-0.021136	0.003825	-0.420166	0.480469	-0.168701	0.592950	-0.453370	-0.226717	-0.625672
42050		8.211969	-2.575176	4.683842	-0.016592	-0.016831	0.002385	-0.418457	0.488037	-0.167480	0.592878	-0.453549	-0.226736	-0.625603
42051		8.215315	-2.536691	4.698701	-0.018377	-0.015130	0.001592	-0.414551	0.490967	-0.171143	0.592818	-0.453734	-0.226720	-0.625532
42052		8.170540	-2.510698	4.747958	-0.018857	-0.014680	-0.000526	-0.412109	0.485107	-0.169434	0.592773	-0.453904	-0.226705	-0.625457
42053		8.202186	-2.567645	4.699047	-0.019757	-0.008705	-0.006539	-0.417236	0.480469	-0.168945	0.592706	-0.454033	-0.226691	-0.625432
42054		8.253826	-2.600738	4.670410	-0.015816	0.009955	-0.014791	-0.417969	0.493408	-0.175293	0.592613	-0.454030	-0.226647	-0.625538
42055		8.221905	-2.583606	4.664823	-0.011208	0.021562	-0.022876	-0.421143	0.488037	-0.163086	0.592542	-0.453925	-0.226580	-0.625705
42056		8.169709	-2.521090	4.754972	-0.010750	0.021752	-0.025510	-0.421387	0.491943	-0.166748	0.592425	-0.453839	-0.226521	-0.625901
42057		8.150768	-2.487858	4.785882	-0.015223	0.012556	-0.024931	-0.422607	0.488770	-0.174561	0.592285	-0.453819	-0.226477	-0.626063
42058		8.156691	-2.518575	4.750787	-0.019479	0.005079	-0.023263	-0.416992	0.486572	-0.169922	0.592121	-0.453843	-0.226459	-0.626208
42059		8.203335	-2.544137	4.698571	-0.017598	0.004559	-0.024297	-0.415039	0.481689	-0.167969	0.591977	-0.453861	-0.226454	-0.626332
42060		8.224621	-2.519518	4.716969	-0.018232	0.003235	-0.023663	-0.421631	0.484131	-0.176025	0.591832	-0.453890	-0.226459	-0.626447
42061		8.171985	-2.525217	4.726425	-0.020007	-0.000197	-0.018845	-0.415771	0.488037	-0.165527	0.591680	-0.453942	-0.226459	-0.626552
42062		8.212133	-2.532000	4.715030	-0.023915	0.000944	-0.024440	-0.415527	0.492432	-0.168701	0.591512	-0.454020	-0.226431	-0.626664
42063		8.243547	-2.572086	4.698103	-0.024908	0.011455	-0.035115	-0.414307	0.484863	-0.170654	0.591318	-0.454024	-0.226381	-0.626863
42064		8.270427	-2.591811	4.652402	-0.026904	0.021630	-0.044345	-0.420166	0.490723	-0.178955	0.591082	-0.453954	-0.226324	-0.627157
42065		8.225507	-2.546644	4.700944	-0.022866	0.028624	-0.052737	-0.421387	0.480469	-0.166504	0.590821	-0.453802	-0.226284	-0.627526
42066		8.252587	-2.523975	4.711047	-0.026542	0.032059	-0.058127	-0.423584	0.483398	-0.175537	0.590492	-0.453662	-0.226233	-0.627955
42067		8.219586	-2.516114	4.713484	-0.023523	0.036826	-0.054656	-0.413330	0.489014	-0.168213	0.590206	-0.453472	-0.226166	-0.628386
42068		8.228596	-2.463040	4.717667	-0.024845	0.033574	-0.052466	-0.420166	0.483154	-0.173828	0.589977	-0.453323	-0.226079	-0.628740
42069		8.253425	-2.481427	4.709864	-0.027711	0.028604	-0.044392	-0.420166	0.485840	-0.165283	0.589731	-0.453217	-0.225988	-0.629079
42070		8.226122	-2.495077	4.705062	-0.025981	0.020591	-0.036187	-0.427246	0.480957	-0.160400	0.589522	-0.453181	-0.225900	-0.629333
42071		8.258783	-2.494281	4.707850	-0.021061	0.015314	-0.031187	-0.423828	0.478271	-0.167236	0.589301	-0.453171	-0.225847	-0.629566
42072		8.219287	-2.524069	4.665440	-0.015882	0.012349	-0.026009	-0.416504	0.485840	-0.161621	0.589138	-0.453141	-0.225829	-0.629747
42073		8.245802	-2.530746	4.649847	-0.005489	0.013392	-0.027801	-0.428467	0.489746	-0.162598	0.589053	-0.453063	-0.225847	-0.629876
42074		8.245114	-2.500899	4.711205	-0.004686	0.011361	-0.025582	-0.422119	0.486816	-0.163574	0.588934	-0.453006	-0.225864	-0.630022
42075		8.220280	-2.488397	4.693622	-0.000770	0.010232	-0.019995	-0.422607	0.483887	-0.170654	0.588882	-0.452936	-0.225893	-0.630110
42076		8.200191	-2.468950	4.729907	-0.000999	0.007272	-0.015439	-0.420654	0.491211	-0.175049	0.588844	-0.452875	-0.225931	-0.630176
42077		8.186890	-2.455981	4.753923	-0.001892	0.002396	-0.009352	-0.429443	0.487549	-0.165039	0.588853	-0.452850	-0.225957	-0.630177
42078		8.253264	-2.485546	4.696931	-0.001870	0.001746	-0.004612	-0.419434	0.484131	-0.162842	0.588833	-0.452862	-0.225965	-0.630184
42079		8.194305	-2.473581	4.712569	0.000878	-0.000194	-0.004347	-0.423096	0.482422	-0.171143	0.588858	-0.452867	-0.225998	-0.630145
42080		8.186446	-2.467976	4.759555	-0.003674	-0.007356	0.002820	-0.422363	0.484131	-0.169678	0.588874	-0.452928	-0.226028	-0.630075
42081		8.220057	-2.483546	4.729905	-0.000216	-0.006787	0.000643	-0.422363	0.487305	-0.162842	0.588899	-0.452969	-0.226077	-0.630005
42082		8.241597	-2.487524	4.688061	-0.003336	-0.003863	0.001185	-0.415771	0.483643	-0.169678	0.588924	-0.453028	-0.226081	-0.629937
42083		8.239786	-2.514524	4.699345	-0.000294	-0.002901	0.000725	-0.416016	0.482666	-0.169434	0.588984	-0.453045	-0.226110	-0.629859
42084		8.183504	-2.449972	4.726688	-0.002716	-0.002538	0.000563	-0.415283	0.486084	-0.165283	0.589032	-0.453070	-0.226127	-0.629790
42085		8.227353	-2.477257	4.745669	-0.003471	-0.005639	0.003917	-0.423340	0.488037	-0.172363	0.589098	-0.453133	-0.226134	-0.629681
42086		8.228282	-2.451915	4.768425	-0.008216	-0.009449	0.008251	-0.419922	0.481445	-0.175293	0.589132	-0.453239	-0.226123	-0.629577
42087		8.201216	-2.497754	4.735324	-0.011025	-0.013172	0.010638	-0.423828	0.488770	-0.158447	0.589160	-0.453370	-0.226117	-0.629458
42088		8.226684	-2.509538	4.752201	-0.009786	-0.010524	0.009395	-0.418701	0.480957	-0.172363	0.589189	-0.453520	-0.226088	-0.629334
42089		8.240075	-2.562351	4.673641	-0.008349	-0.000433	0.002770	-0.416504	0.479980	-0.174316	0.589211	-0.453560	-0.226062	-0.629292
42090		8.241504	-2.522701	4.691943	-0.001416	0.005776	-0.003329	-0.414551	0.490234	-0.161377	0.589248	-0.453517	-0.226069	-0.629288
42091		8.227487	-2.511128	4.716560	-0.001658	0.012364	-0.001341	-0.418457	0.487305	-0.163086	0.589339	-0.453474	-0.226012	-0.629253
42092		8.226548	-2.510892	4.718323	0.005238	0.012257	-0.000050	-0.418457	0.493652	-0.165771	0.589439	-0.453398	-0.225992	-0.629221
42093		8.204992	-2.479916	4.785495	0.003041	0.015581	-0.004763	-0.418213	0.484375	-0.159180	0.589530	-0.453305	-0.225958	-0.629215
42094		8.250829	-2.518312	4.706223	0.004551	0.021783	-0.011468	-0.423096	0.487061	-0.169922	0.589580	-0.453167	-0.225933	-0.629277
42095		8.209024	-2.522033	4.726023	0.004560	0.026851	-0.013201	-0.429688	0.481201	-0.164551	0.589614	-0.452984	-0.225893	-0.629391
42096		8.221552	-2.504328	4.730504	0.006865	0.025952	-0.015951	-0.425781	0.480957	-0.161865	0.589597	-0.452801	-0.225884	-0.629542
42097		8.207279	-2.503634	4.727600	0.005621	0.023300	-0.014705	-0.425781	0.478271	-0.167969	0.589594	-0.452643	-0.225875	-0.629661
42098		8.203994	-2.527495	4.743091	0.009740	0.025783	-0.018405	-0.412109	0.481445	-0.162354	0.589584	-0.452433	-0.225895	-0.629815
42099		8.207024	-2.470778	4.722995	0.004815	0.021494	-0.020820	-0.424805	0.482666	-0.161621	0.589603	-0.452269	-0.225909	-0.629910
42100		8.199510	-2.462267	4.737493	0.002492	0.017320	-0.016329	-0.425293	0.485352	-0.168213	0.589579	-0.452157	-0.225916	-0.630010
42101		8.173049	-2.424379	4.780077	0.001551	0.006788	-0.007607	-0.426758	0.489746	-0.165527	0.589583	-0.452110	-0.225937	-0.630032
42102		8.177543	-2.455959	4.781027	0.000424	0.004674	-0.003451	-0.419922	0.484131	-0.163818	0.589608	-0.452096	-0.225942	-0.630017
42103		8.217823	-2.449953	4.765216	-0.001849	0.001094	0.000125	-0.420410	0.478271	-0.173096	0.589649	-0.452115	-0.225941	-0.629965
42104		8.221849	-2.509245	4.741612	-0.001979	0.004387	0.001120	-0.415283	0.483643	-0.163818	0.589679	-0.452100	-0.225930	-0.629952
42105		8.234379	-2.506913	4.749130	0.000892	0.009939	-0.007809	-0.419189	0.486328	-0.172363	0.589723	-0.452041	-0.225930	-0.629953
42106		8.203207	-2.477468	4.737253	-0.000519	0.009991	-0.004665	-0.418945	0.479492	-0.174805	0.589768	-0.451983	-0.225913	-0.629959
42107		8.195367	-2.457635	4.780209	0.001793	0.009096	-0.007415	-0.419678	0.481445	-0.165283	0.589785	-0.451905	-0.225930	-0.629993
42108		8.213640	-2.474016	4.782120	-0.001756	0.007342	-0.003426	-0.419434	0.483154	-0.168457	0.589812	-0.451881	-0.225916	-0.629990
42109		8.220487	-2.492436	4.741639	0.000426	0.009739	-0.005180	-0.422607	0.479248	-0.173096	0.589848	-0.451825	-0.225909	-0.629999
42110		8.227042	-2.470528	4.755585	0.001705	0.012978	-0.007326	-0.427979	0.493896	-0.167480	0.589857	-0.451733	-0.225906	-0.630057
42111		8.231465	-2.514742	4.728151	0.004791	0.019597	-0.010417	-0.425781	0.488037	-0.168457	0.589900	-0.451605	-0.225886	-0.630117
42112		8.189652	-2.478821	4.801193	0.003929	0.021029	-0.011716	-0.425781	0.478516	-0.173340	0.589926	-0.451466	-0.225863	-0.630200
42113		8.198066	-2.469118	4.750494	0.004918	0.016303	-0.011408	-0.425049	0.480225	-0.171387	0.589918	-0.451335	-0.225877	-0.630296
42114		8.163268	-2.438787	4.811355	0.005488	0.017034	-0.011114	-0.422119	0.478516	-0.172363	0.589924	-0.451203	-0.225887	-0.630382
42115		8.203119	-2.470785	4.743903	0.002624	0.018431	-0.014297	-0.418701	0.487793	-0.169678	0.589912	-0.451067	-0.225888	-0.630489
42116		8.212464	-2.479600	4.795230	0.004451	0.023046	-0.020878	-0.418701	0.478027	-0.165283	0.589924	-0.450893	-0.225890	-0.630602
42117		8.219349	-2.508132	4.727825	0.006421	0.033847	-0.027176	-0.423828	0.490967	-0.170410	0.589903	-0.450645	-0.225879	-0.630803
42118		8.175178	-2.509207	4.785717	0.009322	0.049455	-0.035707	-0.428955	0.483398	-0.171387	0.589896	-0.450283	-0.225832	-0.631084
42119		8.200908	-2.445558	4.818471	0.011354	0.051945	-0.045076	-0.425293	0.481201	-0.168701	0.589810	-0.449880	-0.225826	-0.631454
42120		8.184006	-2.440608	4.854990	0.008099	0.049247	-0.045706	-0.423584	0.491211	-0.172363	0.589714	-0.449508	-0.225818	-0.631812
42121		8.175849	-2.441295	4.843758	0.009021	0.048983	-0.046196	-0.430908	0.480225	-0.169189	0.589656	-0.449129	-0.225809	-0.632139
42122		8.183599	-2.426265	4.797289	0.007797	0.047552	-0.050577	-0.424805	0.478271	-0.180420	0.589509	-0.448761	-0.225828	-0.632530
42123		8.214872	-2.420340	4.805173	0.009797	0.038105	-0.049949	-0.419678	0.478516	-0.173340	0.589369	-0.448411	-0.225903	-0.632881
42124		8.225529	-2.477515	4.775529	0.007580	0.040751	-0.049910	-0.425049	0.482666	-0.175293	0.589252	-0.448069	-0.225949	-0.633216
42125		8.186769	-2.409441	4.803330	0.006421	0.039270	-0.050476	-0.426270	0.479004	-0.175049	0.589119	-0.447741	-0.225996	-0.633556
42126		8.192565	-2.407619	4.797373	0.006440	0.039845	-0.051360	-0.419678	0.476807	-0.178711	0.588968	-0.447408	-0.226047	-0.633913
42127		8.223160	-2.441255	4.787104	0.011086	0.043056	-0.054701	-0.427490	0.479736	-0.175049	0.588843	-0.447019	-0.226120	-0.634278
42128		8.214868	-2.426983	4.805403	0.012919	0.047596	-0.057409	-0.429443	0.474609	-0.177002	0.588701	-0.446603	-0.226188	-0.634677
42129		8.188312	-2.382083	4.817341	0.012280	0.051893	-0.059386	-0.421875	0.475586	-0.179199	0.588533	-0.446161	-0.226245	-0.635124
42130		8.165498	-2.356411	4.859618	0.009354	0.052029	-0.056922	-0.426025	0.473389	-0.175537	0.588402	-0.445730	-0.226272	-0.635538
42131		8.183310	-2.351038	4.862460	0.009559	0.055530	-0.062311	-0.435059	0.475098	-0.176514	0.588230	-0.445278	-0.226305	-0.636002
42132		8.173661	-2.376200	4.863899	0.012814	0.053746	-0.060794	-0.430664	0.479980	-0.178711	0.588048	-0.444827	-0.226360	-0.636466
42133		8.158764	-2.341961	4.888711	0.007600	0.052185	-0.068938	-0.430420	0.473145	-0.181641	0.587834	-0.444391	-0.226419	-0.636948
42134		8.196101	-2.418549	4.850443	0.009790	0.050727	-0.074521	-0.429932	0.475830	-0.182129	0.587579	-0.443933	-0.226524	-0.637465
42135		8.122387	-2.305496	4.930971	0.004997	0.048754	-0.084361	-0.424316	0.469727	-0.172607	0.587262	-0.443491	-0.226646	-0.638021
42136		8.177858	-2.311942	4.868994	0.002162	0.044420	-0.081094	-0.431396	0.477783	-0.175537	0.586953	-0.443104	-0.226761	-0.638533
42137		8.187722	-2.338336	4.899695	0.002970	0.043600	-0.084456	-0.436523	0.477295	-0.181641	0.586626	-0.442714	-0.226891	-0.639057
42138		8.170989	-2.310011	4.868112	-0.002185	0.035765	-0.085287	-0.430176	0.466309	-0.176025	0.586244	-0.442381	-0.227040	-0.639586
42139		8.135740	-2.270828	4.930528	-0.003707	0.035828	-0.085936	-0.437744	0.472168	-0.176025	0.585850	-0.442056	-0.227188	-0.640119
42140		8.152110	-2.243459	4.900170	0.000803	0.032286	-0.088610	-0.427979	0.466553	-0.182617	0.585443	-0.441729	-0.227383	-0.640647
42141		8.137077	-2.166832	4.975267	0.002392	0.028305	-0.087975	-0.429932	0.473145	-0.175781	0.585061	-0.441397	-0.227607	-0.641145
42142		8.090322	-2.117093	5.023165	0.000109	0.016145	-0.073561	-0.432861	0.465576	-0.180176	0.584739	-0.441186	-0.227814	-0.641510
42143		8.092937	-2.174837	4.982348	-0.002437	0.001137	-0.062261	-0.429932	0.466797	-0.193359	0.584412	-0.441079	-0.228050	-0.641798
42144		8.111249	-2.151683	4.946647	-0.007657	-0.010230	-0.053953	-0.429688	0.462158	-0.191650	0.584104	-0.441048	-0.228286	-0.642017
42145		8.198865	-2.204074	4.931935	-0.012482	-0.016989	-0.045248	-0.436768	0.465332	-0.178223	0.583804	-0.441092	-0.228502	-0.642182
42146		8.234771	-2.239621	4.913364	-0.007084	-0.016898	-0.044559	-0.432129	0.467773	-0.175049	0.583512	-0.441143	-0.228735	-0.642329
42147		8.195749	-2.228149	4.955694	-0.009808	-0.020638	-0.042246	-0.433105	0.468750	-0.182129	0.583241	-0.441235	-0.228955	-0.642434
42148		8.194153	-2.217661	4.928214	-0.011298	-0.020565	-0.042926	-0.435547	0.461670	-0.186523	0.582962	-0.441319	-0.229173	-0.642551
42149		8.174860	-2.204209	4.869608	-0.011766	-0.020758	-0.040321	-0.433105	0.467773	-0.185303	0.582671	-0.441400	-0.229392	-0.642681
42150		8.215898	-2.192591	4.887385	-0.007172	-0.013107	-0.036840	-0.438477	0.472900	-0.182617	0.582456	-0.441429	-0.229576	-0.642791
42151		8.259678	-2.207411	4.846240	-0.001577	-0.010698	-0.035961	-0.439453	0.463379	-0.179199	0.582266	-0.441430	-0.229769	-0.642894
42152		8.212902	-2.178039	4.895956	-0.000606	-0.005959	-0.030578	-0.435547	0.459961	-0.178955	0.582091	-0.441412	-0.229934	-0.643005
42153		8.221524	-2.126072	4.896416	0.005603	0.002762	-0.024424	-0.436279	0.464600	-0.181152	0.581997	-0.441326	-0.230071	-0.643101
42154		8.147177	-2.117029	4.939856	0.002223	-0.001429	-0.005588	-0.434082	0.469482	-0.185791	0.581993	-0.441313	-0.230136	-0.643090
42155		8.173839	-2.151895	4.934236	-0.006143	-0.014927	-0.002667	-0.432129	0.462646	-0.182129	0.581969	-0.441412	-0.230205	-0.643019
42156		8.222314	-2.164592	4.910337	-0.014324	-0.021722	0.007231	-0.436279	0.465332	-0.174805	0.581945	-0.441607	-0.230234	-0.642896
42157		8.231621	-2.159186	4.889257	-0.013384	-0.023738	0.013204	-0.434570	0.471191	-0.180908	0.581942	-0.441838	-0.230249	-0.642735
42158		8.227772	-2.156912	4.861705	-0.009844	-0.018173	0.020760	-0.431396	0.462402	-0.179932	0.582024	-0.442026	-0.230224	-0.642540
42159		8.257233	-2.188113	4.909267	-0.005578	-0.008365	0.023235	-0.441895	0.468262	-0.179688	0.582144	-0.442140	-0.230176	-0.642370
42160		8.257585	-2.218231	4.884696	-0.000857	0.001630	0.023116	-0.441406	0.463623	-0.179443	0.582273	-0.442188	-0.230101	-0.642247
42161		8.183947	-2.174732	4.910172	-0.005544	-0.001608	0.022647	-0.431396	0.464111	-0.177246	0.582366	-0.442272	-0.230025	-0.642132
42162		8.129167	-2.122375	4.959440	-0.018087	-0.013791	0.033080	-0.443604	0.467773	-0.176270	0.582483	-0.442500	-0.229897	-0.641914
42163		8.169431	-2.135824	4.946069	-0.024613	-0.031336	0.047969	-0.441162	0.471924	-0.176758	0.582582	-0.442894	-0.229764	-0.641601
42164		8.338700	-2.388011	4.771220	-0.019001	-0.022760	0.049153	-0.437744	0.468262	-0.183105	0.582741	-0.443216	-0.229608	-0.641290
42165		8.298310	-2.348280	4.796419	-0.006744	-0.006066	0.030351	-0.434570	0.471191	-0.186768	0.582882	-0.443335	-0.229517	-0.641112
42166		8.270815	-2.329674	4.807204	0.008109	0.010246	0.019298	-0.439453	0.468750	-0.179199	0.583068	-0.443266	-0.229463	-0.641011
42167		8.196957	-2.190703	4.865435	0.011439	0.015895	0.015494	-0.436279	0.465576	-0.177002	0.583229	-0.443160	-0.229415	-0.640954
42168		8.138187	-2.148803	4.959983	0.007059	0.008728	0.022501	-0.429688	0.461426	-0.173340	0.583403	-0.443129	-0.229355	-0.640839
42169		8.171873	-2.252088	4.992285	-0.004941	-0.000916	0.026763	-0.432373	0.468506	-0.171875	0.583549	-0.443216	-0.229263	-0.640678
42170		8.243420	-2.336307	4.852213	0.000910	-0.003815	0.012460	-0.433105	0.465332	-0.170898	0.583637	-0.443273	-0.229258	-0.640561
42171		8.199635	-2.298484	4.826079	0.003151	0.007730	0.002779	-0.430420	0.462402	-0.178223	0.583693	-0.443238	-0.229249	-0.640536
42172		8.183856	-2.260425	4.874683	0.005270	0.011345	-0.004513	-0.438965	0.462402	-0.174561	0.583734	-0.443142	-0.229270	-0.640559
42173		8.166018	-2.261887	4.941126	0.003626	0.009707	-0.006299	-0.433838	0.473877	-0.175537	0.583722	-0.443071	-0.229298	-0.640608
42174		8.163177	-2.254846	4.881871	-0.002055	0.001747	-0.012155	-0.443359	0.467041	-0.181641	0.583682	-0.443064	-0.229334	-0.640637
42175		8.179639	-2.184372	4.859451	-0.003267	0.004102	-0.008853	-0.434814	0.472168	-0.174072	0.583618	-0.443043	-0.229361	-0.640700
42176		8.197239	-2.226773	4.873121	-0.004357	0.008795	-0.009141	-0.440674	0.466797	-0.182129	0.583593	-0.443017	-0.229341	-0.640748
42177		8.162616	-2.171944	4.919984	-0.005008	0.006300	-0.006745	-0.438477	0.461670	-0.179199	0.583549	-0.442994	-0.229341	-0.640804
42178		8.168288	-2.204454	4.920207	-0.008528	-0.002857	0.002443	-0.437256	0.466309	-0.178711	0.583522	-0.443055	-0.229338	-0.640787
42179		8.189860	-2.222294	4.884632	-0.012033	-0.004637	0.006353	-0.437256	0.467041	-0.178955	0.583511	-0.443155	-0.229301	-0.640741
42180		8.229881	-2.230629	4.873825	-0.012685	-0.007133	0.008749	-0.428467	0.467041	-0.170410	0.583507	-0.443275	-0.229263	-0.640676
42181		8.195161	-2.232157	4.906317	-0.010092	-0.005735	0.010033	-0.429199	0.475586	-0.178467	0.583546	-0.443391	-0.229215	-0.640577
42182		8.215901	-2.264206	4.876402	-0.010487	-0.004756	0.010836	-0.433838	0.468994	-0.177246	0.583606	-0.443494	-0.229150	-0.640475
42183		8.224506	-2.245120	4.851938	-0.007695	-0.006643	0.011115	-0.429443	0.463379	-0.177246	0.583646	-0.443594	-0.229122	-0.640379
42184		8.196006	-2.265300	4.879187	-0.005401	-0.002510	0.010508	-0.430908	0.477539	-0.183594	0.583708	-0.443652	-0.229097	-0.640291
42185		8.235170	-2.286565	4.874675	-0.005834	-0.006500	0.005417	-0.433838	0.466797	-0.186523	0.583753	-0.443722	-0.229089	-0.640204
42186		8.226110	-2.302850	4.801645	-0.000322	0.000943	0.004593	-0.430176	0.468018	-0.173340	0.583804	-0.443711	-0.229101	-0.640161
42187		8.203709	-2.260399	4.860562	-0.003217	0.002281	0.001422	-0.442383	0.469971	-0.183350	0.583834	-0.443728	-0.229086	-0.640127
42188		8.195635	-2.269063	4.878061	-0.005742	0.000847	0.003932	-0.433838	0.470459	-0.174805	0.583832	-0.443757	-0.229067	-0.640116
42189		8.209099	-2.294446	4.860431	-0.006529	-0.002785	0.004331	-0.435547	0.466553	-0.171387	0.583846	-0.443824	-0.229048	-0.640064
42190		8.241873	-2.296231	4.861846	-0.004594	-0.002677	0.002422	-0.429932	0.471436	-0.181396	0.583841	-0.443883	-0.229050	-0.640026
42191		8.258010	-2.307144	4.803346	0.001800	0.010154	-0.001492	-0.432373	0.470947	-0.175293	0.583902	-0.443812	-0.229036	-0.640024
42192		8.208729	-2.241861	4.874096	-0.000073	0.011217	-0.001377	-0.426758	0.470215	-0.178711	0.583942	-0.443761	-0.229003	-0.640035
42193		8.226939	-2.298304	4.858818	0.002687	0.014333	0.001005	-0.426514	0.471436	-0.171875	0.584034	-0.443672	-0.228964	-0.640027
42194		8.172971	-2.214320	4.900020	-0.000139	0.015634	0.001626	-0.425781	0.473633	-0.177002	0.584116	-0.443608	-0.228891	-0.640022
42195		8.165391	-2.196871	4.907019	-0.006624	0.005429	0.015021	-0.426025	0.465088	-0.182617	0.584237	-0.443646	-0.228785	-0.639924
42196		8.237683	-2.313509	4.839630	-0.006526	0.005976	0.017917	-0.432129	0.466309	-0.180908	0.584366	-0.443667	-0.228687	-0.639827
42197		8.245530	-2.281221	4.811808	0.000593	0.015673	0.014200	-0.433350	0.462891	-0.182373	0.584496	-0.443602	-0.228592	-0.639787
42198		8.207254	-2.309089	4.859680	0.000292	0.018407	0.012314	-0.429199	0.467773	-0.176270	0.584611	-0.443516	-0.228498	-0.639775
42199		8.136997	-2.242697	4.935842	-0.001482	0.014429	0.014115	-0.429932	0.470947	-0.181885	0.584738	-0.443479	-0.228391	-0.639723
42200		8.176605	-2.264662	4.898187	-0.003487	0.013149	0.017820	-0.427490	0.470947	-0.175781	0.584882	-0.443455	-0.228266	-0.639652
42201		8.179239	-2.286886	4.929319	-0.007069	0.004608	0.022315	-0.428955	0.479736	-0.176758	0.585022	-0.443516	-0.228141	-0.639527
42202		8.220394	-2.336075	4.866008	-0.006969	0.001988	0.012826	-0.438965	0.471436	-0.181641	0.585115	-0.443578	-0.228051	-0.639431
42203		8.222713	-2.324399	4.824621	-0.003815	0.005332	0.008823	-0.431885	0.466797	-0.180420	0.585159	-0.443587	-0.227998	-0.639403
42204		8.219932	-2.352010	4.838107	0.001772	0.020736	0.001842	-0.425293	0.463623	-0.171143	0.585233	-0.443469	-0.227931	-0.639441
42205		8.168238	-2.313692	4.921834	0.001639	0.019603	-0.000155	-0.429199	0.463135	-0.179443	0.585302	-0.443368	-0.227870	-0.639469
42206		8.090820	-2.253451	5.014850	-0.006308	0.006908	-0.000744	-0.429688	0.470703	-0.176270	0.585309	-0.443357	-0.227840	-0.639482
42207		8.129567	-2.228636	4.933063	-0.017745	-0.008193	0.007266	-0.428467	0.467529	-0.186523	0.585293	-0.443510	-0.227778	-0.639413
42208		8.212684	-2.271030	4.852120	-0.022355	-0.012080	0.015272	-0.437012	0.471436	-0.183594	0.585307	-0.443694	-0.227697	-0.639301
42209		8.226873	-2.285663	4.827429	-0.017397	0.000198	0.015384	-0.422852	0.473389	-0.172852	0.585333	-0.443804	-0.227575	-0.639244
42210		8.191615	-2.314300	4.837484	-0.004644	0.012282	0.012552	-0.427246	0.475586	-0.184570	0.585457	-0.443798	-0.227454	-0.639177
42211		8.185501	-2.316610	4.910756	-0.004510	0.014627	0.008965	-0.436035	0.464600	-0.175293	0.585568	-0.443750	-0.227347	-0.639147
42212		8.145830	-2.285136	4.910021	-0.006290	0.010649	0.010761	-0.433594	0.468018	-0.172119	0.585610	-0.443755	-0.227252	-0.639139
42213		8.183027	-2.320520	4.913033	-0.009710	0.005042	0.010762	-0.426025	0.476074	-0.182617	0.585639	-0.443815	-0.227157	-0.639105
42214		8.211529	-2.331003	4.861446	-0.005174	0.006541	0.010143	-0.433838	0.471924	-0.171875	0.585739	-0.443819	-0.227078	-0.639038
42215		8.217598	-2.338140	4.850908	-0.002872	0.010668	0.009547	-0.426270	0.476318	-0.180908	0.585802	-0.443817	-0.226990	-0.639013
42216		8.208247	-2.347052	4.870226	0.005909	0.016403	0.006423	-0.432373	0.475830	-0.172363	0.585937	-0.443713	-0.226934	-0.638982
42217		8.178946	-2.311910	4.913035	0.006769	0.015619	0.003021	-0.426758	0.472900	-0.183594	0.586021	-0.443626	-0.226892	-0.638980
42218		8.216566	-2.331378	4.912012	0.009303	0.017052	0.000517	-0.423340	0.467285	-0.176514	0.586134	-0.443482	-0.226881	-0.638980
42219		8.171329	-2.305618	4.893753	0.007183	0.014010	0.006911	-0.433350	0.477051	-0.172852	0.586262	-0.443388	-0.226851	-0.638939
42220		8.191433	-2.322494	4.861197	0.009507	0.011923	0.009790	-0.434082	0.479248	-0.177490	0.586382	-0.443322	-0.226814	-0.638887
42221		8.211347	-2.339517	4.828930	0.015771	0.015590	0.013873	-0.426514	0.474854	-0.179199	0.586559	-0.443206	-0.226780	-0.638818
42222		8.187189	-2.337497	4.872069	0.021063	0.012696	0.022834	-0.423096	0.469727	-0.176758	0.586821	-0.443084	-0.226761	-0.638668
42223		8.143269	-2.293282	4.937381	0.023381	0.003179	0.034786	-0.430176	0.477783	-0.173096	0.587138	-0.443024	-0.226763	-0.638418
42224		8.158021	-2.281107	4.902902	0.019913	-0.010438	0.044758	-0.428955	0.472412	-0.177734	0.587448	-0.443092	-0.226760	-0.638086
42225		8.125732	-2.312302	4.874582	0.013061	-0.029698	0.058537	-0.415527	0.473633	-0.178711	0.587771	-0.443306	-0.226779	-0.637633
42226		8.161729	-2.281477	4.853884	0.011209	-0.054125	0.077304	-0.429199	0.475830	-0.178467	0.588189	-0.443685	-0.226833	-0.636965
42227		8.169005	-2.356719	4.919134	0.017768	-0.053911	0.091830	-0.427734	0.470947	-0.175781	0.588660	-0.444068	-0.226870	-0.636249
42228		8.202407	-2.394317	4.892191	0.021930	-0.031030	0.075095	-0.421143	0.477783	-0.174561	0.589093	-0.444277	-0.226885	-0.635697
42229		8.116868	-2.290127	4.949968	0.013538	-0.024709	0.069578	-0.434570	0.470703	-0.177490	0.589507	-0.444488	-0.226829	-0.635186
42230		8.213945	-2.502270	4.827503	0.013297	-0.015813	0.068020	-0.430908	0.474121	-0.181152	0.589871	-0.444645	-0.226756	-0.634763
42231		8.127087	-2.410110	4.892703	0.016503	-0.016278	0.056301	-0.421875	0.476562	-0.179443	0.590206	-0.444758	-0.226744	-0.634377
42232		8.071546	-2.318399	4.995043	0.007319	-0.024774	0.052551	-0.423828	0.480469	-0.181885	0.590501	-0.444955	-0.226730	-0.633970
42233		8.064991	-2.319929	5.002487	-0.011346	-0.035225	0.050863	-0.421387	0.479248	-0.175049	0.590697	-0.445294	-0.226672	-0.633570
42234		8.175608	-2.430299	4.853915	-0.021215	-0.033725	0.038710	-0.419434	0.473145	-0.176758	0.590792	-0.445662	-0.226593	-0.633250
42235		8.249892	-2.431991	4.835475	-0.018730	-0.027269	0.034502	-0.424072	0.479248	-0.177734	0.590886	-0.445966	-0.226524	-0.632973
42236		8.225296	-2.495410	4.769980	-0.015542	-0.018946	0.032593	-0.420166	0.484131	-0.173340	0.590990	-0.446210	-0.226432	-0.632737
42237		8.246291	-2.490133	4.756555	-0.001136	-0.015877	0.024373	-0.418945	0.478271	-0.178955	0.591123	-0.446364	-0.226417	-0.632510
42238		8.078124	-2.405928	4.888657	-0.001670	-0.009752	0.015857	-0.427246	0.479736	-0.175293	0.591224	-0.446452	-0.226418	-0.632352
42239		8.089122	-2.406414	4.929515	-0.005486	-0.013767	0.015783	-0.419678	0.473145	-0.172607	0.591271	-0.446595	-0.226416	-0.632208
42240		8.157057	-2.411438	4.895787	-0.006665	-0.009550	0.008773	-0.420410	0.483887	-0.177246	0.591298	-0.446704	-0.226417	-0.632106
42241		8.201802	-2.473157	4.765003	-0.006017	-0.007640	0.007265	-0.426758	0.479736	-0.174316	0.591340	-0.446795	-0.226406	-0.632005
42242		8.192775	-2.469007	4.811526	-0.001638	-0.002892	0.007638	-0.418457	0.477051	-0.176025	0.591379	-0.446847	-0.226400	-0.631935
42243		8.176879	-2.511274	4.822655	0.008232	0.004351	-0.002569	-0.431152	0.482178	-0.172363	0.591441	-0.446782	-0.226452	-0.631904
42244		8.166435	-2.471731	4.799859	0.011004	0.013709	-0.007498	-0.417725	0.481201	-0.176758	0.591463	-0.446665	-0.226482	-0.631956
42245		8.206976	-2.423514	4.804919	0.014513	0.014242	-0.005815	-0.424316	0.479004	-0.178467	0.591558	-0.446513	-0.226523	-0.631959
42246		8.131968	-2.440522	4.826195	0.013740	0.004292	0.005725	-0.418457	0.482422	-0.177002	0.591670	-0.446437	-0.226575	-0.631889
42247		8.118272	-2.363145	4.891607	0.013960	-0.010951	0.018460	-0.420410	0.480225	-0.180908	0.591842	-0.446468	-0.226644	-0.631682
42248		8.194272	-2.361001	4.840003	0.006204	-0.027652	0.033067	-0.417969	0.489746	-0.175049	0.592026	-0.446643	-0.226712	-0.631361
42249		8.159320	-2.377832	4.876002	0.006028	-0.031286	0.046131	-0.425049	0.481201	-0.177490	0.592282	-0.446882	-0.226722	-0.630948
42250		8.174448	-2.422213	4.823922	-0.001326	-0.042113	0.051727	-0.417969	0.481201	-0.180420	0.592488	-0.447215	-0.226749	-0.630509
42251		8.113274	-2.431730	4.874437	-0.002305	-0.041239	0.047538	-0.422607	0.478516	-0.179932	0.592696	-0.447530	-0.226784	-0.630078
42252		8.158326	-2.491053	4.865199	-0.011466	-0.037833	0.037686	-0.421143	0.476807	-0.181396	0.592803	-0.447854	-0.226798	-0.629741
42253		8.229034	-2.552489	4.744531	-0.009414	-0.024648	0.024009	-0.424316	0.477051	-0.179688	0.592875	-0.448066	-0.226813	-0.629517
42254		8.172383	-2.492015	4.768032	-0.007928	-0.019114	0.022090	-0.420166	0.486816	-0.174072	0.592941	-0.448244	-0.226816	-0.629328
42255		8.151169	-2.465655	4.829757	-0.008974	-0.020046	0.024417	-0.414307	0.488281	-0.177002	0.593031	-0.448453	-0.226784	-0.629106
42256		8.157855	-2.488647	4.820707	-0.010297	-0.023231	0.022727	-0.414307	0.483398	-0.178711	0.593125	-0.448673	-0.226766	-0.628865
42257		8.200396	-2.473097	4.795546	-0.011732	-0.022540	0.021138	-0.426514	0.484375	-0.173828	0.593203	-0.448886	-0.226755	-0.628644
42258		8.175570	-2.481364	4.778328	-0.010058	-0.026633	0.029375	-0.421143	0.489014	-0.170898	0.593277	-0.449144	-0.226741	-0.628395
42259		8.128424	-2.447442	4.854741	-0.015493	-0.038010	0.037796	-0.415039	0.485352	-0.180176	0.593372	-0.449511	-0.226710	-0.628054
42260		8.151157	-2.470917	4.813109	-0.015901	-0.052154	0.039940	-0.422852	0.489502	-0.168945	0.593477	-0.449931	-0.226754	-0.627638
42261		8.189010	-2.538324	4.819255	-0.013177	-0.049038	0.038521	-0.418701	0.487549	-0.172852	0.593555	-0.450348	-0.226787	-0.627253
42262		8.132154	-2.571854	4.774545	-0.013539	-0.024701	0.016482	-0.417969	0.493164	-0.174805	0.593578	-0.450586	-0.226787	-0.627061
42263		8.171723	-2.567956	4.792036	-0.015640	-0.003141	-0.005547	-0.419189	0.487549	-0.176025	0.593531	-0.450678	-0.226746	-0.627054
42264		8.244445	-2.615892	4.730530	-0.014235	0.023998	-0.027618	-0.416016	0.494873	-0.173828	0.593415	-0.450573	-0.226672	-0.627266
42265		8.225815	-2.555699	4.751455	-0.015898	0.038154	-0.035441	-0.413086	0.485596	-0.173096	0.593296	-0.450397	-0.226533	-0.627555
42266		8.108005	-2.449778	4.822251	-0.011542	0.037883	-0.037187	-0.427979	0.484863	-0.179443	0.593180	-0.450191	-0.226437	-0.627848
42267		8.096103	-2.440960	4.909276	-0.016130	0.025715	-0.032195	-0.421387	0.483398	-0.166992	0.593010	-0.450073	-0.226373	-0.628115
42268		8.136975	-2.524495	4.793547	-0.015978	0.018015	-0.036212	-0.423096	0.484619	-0.176514	0.592811	-0.450010	-0.226347	-0.628357
42269		8.192635	-2.538892	4.726117	-0.009167	0.012341	-0.036082	-0.424805	0.482178	-0.170166	0.592635	-0.449925	-0.226394	-0.628567
