// Start Time: Unknown
// Update Rate: 60.0Hz
// Filter Profile: human (46.1)
// Firmware Version: 4.6.0
PacketCounter	SampleTimeFine	Acc_X	Acc_Y	Acc_Z	Gyr_X	Gyr_Y	Gyr_Z	Mag_X	Mag_Y	Mag_Z	Quat_q0	Quat_q1	Quat_q2	Quat_q3
35465		9.713409	1.131527	-0.905577	-0.019683	0.008272	0.014848	-0.790771	0.408447	0.700195	0.171962	-0.686596	-0.271365	-0.652208
35466		9.704468	1.157360	-0.857572	-0.003025	0.009917	0.011307	-0.786865	0.406494	0.707031	0.172043	-0.686565	-0.271270	-0.652259
35467		9.683453	1.196588	-0.926776	-0.000746	0.005028	0.008344	-0.781982	0.409180	0.702637	0.172096	-0.686558	-0.271211	-0.652277
35468		9.687125	1.187719	-0.906766	-0.001968	0.006685	0.009793	-0.781738	0.403076	0.704102	0.172152	-0.686547	-0.271136	-0.652306
35469		9.658267	1.213966	-0.923526	-0.010385	0.004928	0.008868	-0.789551	0.403320	0.704834	0.172150	-0.686555	-0.271024	-0.652344
35470		9.684975	1.172077	-0.920637	-0.010019	0.004401	0.007900	-0.788818	0.408447	0.704834	0.172141	-0.686565	-0.270922	-0.652378
35471		9.665038	1.122565	-0.890101	-0.003174	0.004367	0.004832	-0.776611	0.403076	0.707031	0.172153	-0.686559	-0.270877	-0.652400
35472		9.663631	1.163100	-0.896226	0.009470	-0.001477	-0.000586	-0.782715	0.407471	0.702881	0.172196	-0.686555	-0.270939	-0.652367
35473		9.670559	1.172747	-0.905006	0.013832	0.005184	-0.004983	-0.778809	0.417236	0.709229	0.172253	-0.686499	-0.271041	-0.652368
35474		9.671408	1.176961	-0.948807	0.017835	-0.001670	-0.003593	-0.784668	0.410889	0.698975	0.172324	-0.686479	-0.271169	-0.652318
35475		9.702378	1.183177	-0.918515	0.017193	0.002688	-0.004439	-0.788818	0.412109	0.697021	0.172393	-0.686437	-0.271295	-0.652291
35476		9.679938	1.196649	-0.898502	0.021160	-0.000786	-0.007276	-0.783691	0.406738	0.706055	0.172459	-0.686404	-0.271466	-0.652238
35477		9.648741	1.191488	-0.929788	0.024157	-0.002754	-0.005765	-0.785156	0.410156	0.694092	0.172543	-0.686380	-0.271651	-0.652164
35478		9.687342	1.186739	-0.905735	0.032094	-0.000393	-0.005336	-0.782715	0.412598	0.701416	0.172677	-0.686333	-0.271877	-0.652083
35479		9.683817	1.194469	-0.925698	0.039037	-0.002157	-0.005578	-0.781738	0.410889	0.697021	0.172843	-0.686288	-0.272145	-0.651975
35480		9.703617	1.219184	-0.909683	0.041596	-0.001870	-0.005949	-0.775146	0.408447	0.690186	0.173019	-0.686237	-0.272434	-0.651862
35481		9.724336	1.247246	-0.937623	0.047941	-0.002652	-0.002815	-0.792969	0.412842	0.692627	0.173246	-0.686184	-0.272745	-0.651727
35482		9.698427	1.242506	-0.890940	0.039913	-0.004326	0.005935	-0.779785	0.409424	0.690186	0.173452	-0.686173	-0.272972	-0.651588
35483		9.667368	1.235400	-0.923136	0.042293	-0.005925	0.000185	-0.784180	0.416260	0.684814	0.173644	-0.686151	-0.273251	-0.651443
35484		9.667159	1.210487	-0.878086	0.042883	-0.008249	0.003501	-0.782959	0.416992	0.690186	0.173849	-0.686141	-0.273525	-0.651284
35485		9.648940	1.194469	-0.837637	0.047139	-0.006546	0.003239	-0.790771	0.418457	0.692871	0.174076	-0.686119	-0.273818	-0.651124
35486		9.669718	1.221584	-0.866230	0.045421	-0.004598	-0.001129	-0.787354	0.413818	0.686768	0.174254	-0.686074	-0.274125	-0.650994
35487		9.679972	1.223282	-0.857636	0.035634	-0.004625	-0.002034	-0.786621	0.415771	0.679443	0.174382	-0.686031	-0.274392	-0.650893
35488		9.697900	1.213997	-0.854680	0.032921	-0.006487	-0.001729	-0.783936	0.412109	0.686035	0.174508	-0.685986	-0.274654	-0.650796
35489		9.685452	1.178593	-0.878969	0.028837	-0.006934	-0.006743	-0.781250	0.418213	0.678711	0.174570	-0.685951	-0.274909	-0.650709
35490		9.690507	1.205889	-0.849198	0.022819	-0.008340	-0.009450	-0.783691	0.416748	0.679443	0.174619	-0.685909	-0.275158	-0.650634
35491		9.709022	1.177634	-0.842854	0.016895	-0.006133	-0.009629	-0.784180	0.407959	0.682861	0.174622	-0.685861	-0.275371	-0.650594
35492		9.705322	1.186331	-0.863098	0.013890	-0.004173	-0.011143	-0.783936	0.409668	0.676270	0.174573	-0.685816	-0.275554	-0.650577
35493		9.665439	1.189596	-0.844916	0.011012	-0.002282	-0.011204	-0.778564	0.419189	0.680908	0.174540	-0.685746	-0.275734	-0.650583
35494		9.700513	1.193613	-0.839801	0.013936	-0.002527	-0.012543	-0.779785	0.404297	0.675293	0.174555	-0.685679	-0.275927	-0.650568
35495		9.719142	1.189476	-0.879853	0.015055	-0.003798	-0.010126	-0.785156	0.416992	0.674561	0.174538	-0.685625	-0.276103	-0.650556
35496		9.690459	1.173882	-0.848100	0.016141	-0.001384	-0.006634	-0.774902	0.410645	0.671631	0.174592	-0.685530	-0.276287	-0.650563
35497		9.711781	1.158495	-0.825186	0.016838	-0.004093	-0.007171	-0.779785	0.417725	0.668701	0.174651	-0.685481	-0.276458	-0.650526
35498		9.730529	1.153481	-0.865080	0.018996	0.000410	-0.005506	-0.788086	0.415771	0.679932	0.174762	-0.685377	-0.276641	-0.650528
35499		9.695060	1.127937	-0.823867	0.021314	0.001160	-0.003464	-0.787598	0.414307	0.677979	0.174837	-0.685279	-0.276794	-0.650546
35500		9.694986	1.128370	-0.824147	0.020528	0.000252	-0.005456	-0.781494	0.415283	0.670898	0.174904	-0.685185	-0.276948	-0.650562
35501		9.716453	1.136165	-0.848106	0.015007	-0.001433	-0.002346	-0.780518	0.421143	0.674561	0.174990	-0.685120	-0.277058	-0.650559
35502		9.725204	1.179075	-0.845210	0.006600	-0.001227	0.000707	-0.786133	0.417725	0.664795	0.175060	-0.685078	-0.277104	-0.650565
35503		9.734810	1.201038	-0.838867	-0.005437	-0.003395	0.005964	-0.788330	0.410156	0.670898	0.175080	-0.685054	-0.277061	-0.650604
35504		9.733034	1.142365	-0.804248	-0.011402	-0.002504	0.012511	-0.783936	0.417725	0.667969	0.175058	-0.685063	-0.276922	-0.650659
35505		9.710295	1.196782	-0.834784	-0.014920	-0.000931	0.022551	-0.783203	0.412842	0.663818	0.175118	-0.685093	-0.276717	-0.650699
35506		9.744207	1.161638	-0.841397	-0.008062	-0.002296	0.026156	-0.775879	0.417725	0.664551	0.175218	-0.685129	-0.276522	-0.650717
35507		9.721787	1.189860	-0.824346	-0.001983	0.005100	0.039150	-0.786621	0.423828	0.667236	0.175451	-0.685157	-0.276275	-0.650730
35508		9.686604	1.201285	-0.832499	0.002297	0.007130	0.044190	-0.779053	0.415771	0.671143	0.175745	-0.685162	-0.276026	-0.650751
35509		9.712018	1.213597	-0.838785	0.005673	0.012661	0.057487	-0.790283	0.422607	0.666748	0.176114	-0.685178	-0.275696	-0.650773
35510		9.705066	1.235196	-0.834623	0.008040	0.013735	0.064816	-0.778320	0.427246	0.665527	0.176558	-0.685183	-0.275352	-0.650793
35511		9.730980	1.244572	-0.840187	0.004314	0.015448	0.071912	-0.787598	0.424316	0.662842	0.177021	-0.685214	-0.274945	-0.650808
35512		9.689728	1.241721	-0.837836	0.003260	0.017046	0.074767	-0.780273	0.428955	0.668701	0.177485	-0.685233	-0.274516	-0.650843
35513		9.734842	1.243592	-0.882054	-0.001115	0.017790	0.081309	-0.779541	0.428223	0.662354	0.177957	-0.685279	-0.274026	-0.650872
35514		9.711201	1.250879	-0.878006	-0.001384	0.019965	0.080832	-0.783936	0.417480	0.670654	0.178426	-0.685309	-0.273539	-0.650916
35515		9.720186	1.247199	-0.883623	-0.003486	0.020797	0.078802	-0.783203	0.429932	0.667969	0.178842	-0.685338	-0.273045	-0.650979
35516		9.703576	1.264708	-0.888056	-0.010069	0.021730	0.072752	-0.783447	0.428955	0.667480	0.179213	-0.685353	-0.272566	-0.651062
35517		9.670554	1.231078	-0.886689	-0.010785	0.022469	0.069342	-0.785400	0.425293	0.669434	0.179553	-0.685358	-0.272106	-0.651155
35518		9.703796	1.250229	-0.899551	-0.008496	0.022548	0.060763	-0.774658	0.435547	0.665771	0.179842	-0.685343	-0.271705	-0.651259
35519		9.652455	1.228584	-0.903047	-0.003256	0.020322	0.048415	-0.774414	0.435303	0.669922	0.180118	-0.685311	-0.271421	-0.651335
35520		9.657016	1.258321	-0.931579	0.007302	0.016847	0.039624	-0.779297	0.430664	0.663574	0.180381	-0.685269	-0.271247	-0.651379
35521		9.648915	1.189847	-0.929164	0.011764	0.015362	0.023929	-0.781494	0.431152	0.663574	0.180568	-0.685179	-0.271199	-0.651441
35522		9.652924	1.223692	-0.958462	0.025376	0.016543	0.009652	-0.781738	0.431885	0.666992	0.180754	-0.685031	-0.271308	-0.651500
35523		9.648907	1.226729	-0.932086	0.023584	0.010799	-0.002091	-0.784424	0.426025	0.676514	0.180841	-0.684901	-0.271480	-0.651541
35524		9.656330	1.217083	-0.936797	0.025079	0.005562	-0.022797	-0.781494	0.427734	0.674072	0.180758	-0.684771	-0.271764	-0.651582
35525		9.686823	1.227181	-0.906195	0.016159	0.000053	-0.034351	-0.782959	0.427979	0.681152	0.180566	-0.684659	-0.272083	-0.651620
35526		9.671396	1.144315	-0.938148	0.009278	-0.004921	-0.052051	-0.781006	0.427246	0.681641	0.180197	-0.684563	-0.272454	-0.651668
35527		9.667233	1.096860	-0.904596	0.009915	-0.010672	-0.070920	-0.781494	0.417969	0.682861	0.179717	-0.684463	-0.272940	-0.651703
35528		9.658499	1.100463	-0.897782	0.015031	-0.013174	-0.090028	-0.781250	0.416016	0.687256	0.179119	-0.684331	-0.273558	-0.651747
35529		9.633627	1.149803	-0.884028	0.019101	-0.017756	-0.107348	-0.788330	0.405762	0.675293	0.178410	-0.684199	-0.274278	-0.651777
35530		9.643701	1.202976	-0.864749	0.001654	-0.018902	-0.112496	-0.773193	0.408936	0.681152	0.177620	-0.684008	-0.275021	-0.651880
35531		9.637737	1.228715	-0.887313	-0.015817	-0.025391	-0.117315	-0.782959	0.406738	0.686768	0.176705	-0.683941	-0.275649	-0.651934
35532		9.656943	1.211075	-0.863983	-0.033438	-0.029455	-0.115826	-0.778076	0.403076	0.688721	0.175603	-0.683931	-0.276147	-0.652032
35533		9.688978	1.157804	-0.867685	-0.048186	-0.031748	-0.113215	-0.783203	0.393555	0.694824	0.174424	-0.683981	-0.276541	-0.652128
35534		9.697027	1.083941	-0.863661	-0.050459	-0.030462	-0.112898	-0.785156	0.396484	0.693359	0.173127	-0.684041	-0.276888	-0.652263
35535		9.740934	1.063276	-0.800660	-0.051857	-0.024984	-0.113391	-0.790283	0.379883	0.698730	0.171884	-0.684058	-0.277228	-0.652431
35536		9.738439	1.008188	-0.809233	-0.045682	-0.022256	-0.117519	-0.780273	0.385742	0.698486	0.170560	-0.684027	-0.277629	-0.652640
35537		9.743906	1.016704	-0.817710	-0.029622	-0.021183	-0.117909	-0.783447	0.377197	0.690430	0.169474	-0.683990	-0.278099	-0.652761
35538		9.733002	1.066905	-0.818393	-0.018815	-0.019965	-0.108334	-0.783447	0.382568	0.694336	0.168654	-0.683851	-0.278703	-0.652862
35539		9.737684	1.093364	-0.830593	-0.015273	-0.023838	-0.099673	-0.780762	0.371582	0.705811	0.167889	-0.683788	-0.279208	-0.652909
35540		9.737243	1.142123	-0.821510	-0.015568	-0.020698	-0.084148	-0.782715	0.362549	0.698730	0.167167	-0.683769	-0.279585	-0.652952
35541		9.723612	1.119102	-0.847198	-0.019536	-0.021923	-0.070335	-0.776611	0.366699	0.707520	0.166582	-0.683746	-0.279917	-0.652984
35542		9.736067	1.124308	-0.820828	-0.019107	-0.017875	-0.052761	-0.789062	0.366943	0.701416	0.166117	-0.683755	-0.280125	-0.653005
35543		9.745323	1.134089	-0.813173	-0.022831	-0.017598	-0.037397	-0.784912	0.356201	0.708984	0.165729	-0.683791	-0.280230	-0.653020
35544		9.750248	1.090899	-0.789666	-0.018889	-0.014447	-0.019190	-0.790771	0.350586	0.704346	0.165467	-0.683852	-0.280240	-0.653018
35545		9.715965	1.124123	-0.784637	-0.010334	-0.010409	-0.007553	-0.776611	0.360840	0.710938	0.165336	-0.683905	-0.280223	-0.653003
35546		9.726195	1.126332	-0.775970	-0.007330	-0.009746	0.008606	-0.788574	0.356689	0.718994	0.165315	-0.683990	-0.280124	-0.652962
35547		9.713508	1.108749	-0.802815	-0.003689	-0.003095	0.019648	-0.778320	0.349121	0.715576	0.165394	-0.684058	-0.279970	-0.652937
35548		9.714957	1.084423	-0.800064	-0.000941	-0.004260	0.028937	-0.782227	0.345459	0.704346	0.165540	-0.684150	-0.279776	-0.652886
35549		9.723333	1.068209	-0.806058	-0.001009	-0.000261	0.035366	-0.789551	0.352783	0.716064	0.165734	-0.684236	-0.279536	-0.652850
35550		9.711935	1.076856	-0.775664	-0.007634	-0.000401	0.041390	-0.783447	0.342041	0.715088	0.165926	-0.684346	-0.279223	-0.652820
35551		9.693521	1.099603	-0.782894	-0.013245	0.004922	0.041325	-0.775146	0.342285	0.707520	0.166100	-0.684434	-0.278870	-0.652834
35552		9.661275	1.127360	-0.819004	-0.021943	0.001921	0.044252	-0.784424	0.349854	0.713623	0.166236	-0.684558	-0.278455	-0.652847
35553		9.669924	1.109810	-0.823542	-0.026920	0.006262	0.040784	-0.773682	0.347412	0.710938	0.166337	-0.684656	-0.278025	-0.652901
35554		9.683433	1.142742	-0.843356	-0.036762	0.002888	0.042672	-0.781006	0.343994	0.720459	0.166384	-0.684791	-0.277535	-0.652956
35555		9.680756	1.143737	-0.861096	-0.050966	0.003191	0.043038	-0.781250	0.347412	0.714111	0.166354	-0.684945	-0.276964	-0.653045
35556		9.733401	1.097775	-0.862225	-0.062184	-0.000411	0.040962	-0.784668	0.346436	0.720703	0.166241	-0.685130	-0.276348	-0.653141
35557		9.728175	1.062568	-0.849110	-0.061652	-0.001321	0.036075	-0.783936	0.358154	0.721191	0.166102	-0.685308	-0.275764	-0.653236
35558		9.720157	1.015478	-0.852109	-0.054519	-0.002091	0.025189	-0.778076	0.350830	0.717285	0.165945	-0.685455	-0.275281	-0.653325
35559		9.716250	1.016387	-0.826841	-0.043952	-0.001734	0.017407	-0.780029	0.347168	0.719482	0.165808	-0.685570	-0.274897	-0.653402
35560		9.715346	1.059497	-0.876697	-0.029621	-0.002732	0.007816	-0.776367	0.346924	0.716553	0.165700	-0.685648	-0.274647	-0.653452
35561		9.728386	1.074349	-0.850309	-0.024829	0.001391	-0.000059	-0.774658	0.343994	0.725098	0.165586	-0.685680	-0.274461	-0.653526
35562		9.709329	1.104234	-0.857715	-0.017841	-0.004025	-0.001406	-0.779785	0.345947	0.729492	0.165493	-0.685729	-0.274328	-0.653554
35563		9.691082	1.113991	-0.862567	-0.013163	-0.004856	-0.005106	-0.775879	0.352783	0.719971	0.165405	-0.685767	-0.274243	-0.653571
35564		9.693655	1.053498	-0.853634	-0.000695	-0.002924	-0.004492	-0.784424	0.359131	0.725342	0.165396	-0.685780	-0.274219	-0.653570
35565		9.704669	1.110588	-0.834259	0.014842	0.000061	-0.010482	-0.775879	0.353760	0.723145	0.165451	-0.685742	-0.274310	-0.653558
35566		9.679280	1.136064	-0.876988	0.029978	0.001918	-0.014117	-0.773682	0.357422	0.719482	0.165575	-0.685665	-0.274502	-0.653526
35567		9.664654	1.242752	-0.947299	0.056250	0.001513	-0.027531	-0.768799	0.351562	0.719238	0.165777	-0.685523	-0.274914	-0.653451
35568		9.677316	1.464999	-0.900270	0.040474	-0.001926	-0.035131	-0.775146	0.359619	0.722900	0.165835	-0.685405	-0.275290	-0.653402
35569		9.661630	1.268575	-0.908815	0.020908	-0.003410	-0.030222	-0.779297	0.352295	0.712891	0.165803	-0.685332	-0.275538	-0.653382
35570		9.624942	1.369783	-0.956688	0.023235	-0.008597	-0.038551	-0.776123	0.360352	0.718506	0.165724	-0.685264	-0.275855	-0.653340
35571		9.673810	1.274216	-0.882784	0.009281	-0.008441	-0.035272	-0.780518	0.352539	0.716553	0.165583	-0.685224	-0.276079	-0.653323
35572		9.634705	1.185674	-0.868679	0.018344	-0.012643	-0.032141	-0.780762	0.363281	0.718018	0.165496	-0.685199	-0.276341	-0.653260
35573		9.655944	1.252073	-0.884988	0.029224	-0.008508	-0.029128	-0.782959	0.359375	0.720947	0.165505	-0.685145	-0.276642	-0.653187
35574		9.579973	1.380013	-1.005433	0.012605	-0.013304	-0.015939	-0.777832	0.358643	0.720703	0.165470	-0.685171	-0.276782	-0.653110
35575		9.542591	1.295108	-1.079819	0.004427	-0.021930	-0.006887	-0.779297	0.358887	0.718506	0.165416	-0.685278	-0.276840	-0.652986
35576		9.569477	1.489711	-1.195596	-0.023869	-0.040711	-0.000965	-0.777100	0.352783	0.723389	0.165190	-0.685538	-0.276739	-0.652814
35577		9.742467	1.305651	-1.022491	-0.061878	-0.036066	0.013614	-0.777100	0.353027	0.725098	0.164823	-0.685864	-0.276343	-0.652732
35578		9.782931	0.872136	-0.851147	-0.033764	-0.020511	0.009010	-0.776367	0.356201	0.716064	0.164633	-0.686055	-0.276107	-0.652679
35579		9.814523	0.622218	-0.707290	0.058153	-0.005895	0.006529	-0.781006	0.351318	0.712646	0.165003	-0.686029	-0.276367	-0.652503
35580		9.841634	0.679972	-0.600467	0.139495	0.001431	0.011969	-0.775879	0.348877	0.707275	0.165880	-0.685860	-0.277021	-0.652180
35581		9.890045	0.766232	-0.563213	0.148679	0.016737	0.044706	-0.777832	0.363037	0.703857	0.167024	-0.685674	-0.277509	-0.651877
35582		9.950904	0.752793	-0.515867	0.122186	0.034180	0.098350	-0.780273	0.358154	0.703369	0.168378	-0.685548	-0.277524	-0.651654
35583		9.972879	0.607168	-0.504655	0.094179	0.049878	0.147931	-0.771973	0.365479	0.704346	0.169859	-0.685488	-0.277073	-0.651525
35584		9.910091	0.454463	-0.531708	0.101955	0.053494	0.186270	-0.779297	0.379395	0.700439	0.171609	-0.685498	-0.276428	-0.651330
35585		9.943980	0.405462	-0.490120	0.101557	0.049951	0.225375	-0.781250	0.390381	0.710693	0.173607	-0.685595	-0.275573	-0.651061
35586		9.896108	0.363444	-0.471619	0.088772	0.073566	0.269913	-0.780029	0.387939	0.704834	0.175841	-0.685693	-0.274359	-0.650871
35587		9.892071	0.237711	-0.543058	0.096882	0.082652	0.304466	-0.776367	0.405518	0.694336	0.178306	-0.685795	-0.272965	-0.650678
35588		9.944983	0.098278	-0.479261	0.097967	0.098096	0.346346	-0.780518	0.414551	0.693359	0.181124	-0.685887	-0.271319	-0.650492
35589		9.915833	-0.009204	-0.485050	0.117024	0.115169	0.377122	-0.774902	0.430908	0.685547	0.184291	-0.685900	-0.269587	-0.650308
35590		9.884380	-0.047748	-0.606066	0.152076	0.126208	0.406144	-0.776123	0.433594	0.681152	0.187923	-0.685852	-0.267863	-0.650032
35591		9.875660	-0.015429	-0.657484	0.166417	0.125941	0.429102	-0.772217	0.456543	0.671875	0.191721	-0.685813	-0.266070	-0.649700
35592		9.869172	-0.066781	-0.737563	0.163809	0.134393	0.459426	-0.771973	0.471191	0.670166	0.195740	-0.685789	-0.264077	-0.649340
35593		9.820882	-0.070982	-0.825006	0.162882	0.138202	0.479530	-0.768799	0.484619	0.662109	0.199711	-0.685816	-0.261916	-0.648978
35594		9.851214	-0.159729	-0.830716	0.143618	0.137824	0.505786	-0.760986	0.497559	0.649658	0.203653	-0.685933	-0.259474	-0.648610
35595		9.871862	-0.301411	-0.819115	0.142582	0.139775	0.518912	-0.763672	0.513184	0.636230	0.207659	-0.686057	-0.256941	-0.648216
35596		9.945714	-0.394437	-0.807602	0.160067	0.132513	0.523176	-0.768555	0.528320	0.617432	0.211770	-0.686186	-0.254482	-0.647719
35597		9.988627	-0.589428	-0.605044	0.147988	0.143380	0.543189	-0.755615	0.546631	0.604004	0.215941	-0.686306	-0.251817	-0.647257
35598		9.934195	-0.725202	-0.544593	0.164774	0.141819	0.553343	-0.757080	0.561523	0.588379	0.220256	-0.686409	-0.249177	-0.646716
35599		9.988959	-0.946245	-0.603941	0.203713	0.135859	0.560962	-0.754639	0.566406	0.565430	0.224820	-0.686471	-0.246704	-0.646027
35600		10.049640	-1.224427	-0.560308	0.246114	0.134590	0.566710	-0.752441	0.581299	0.545166	0.229653	-0.686454	-0.244419	-0.645213
35601		10.064414	-1.294358	-0.436645	0.286990	0.138628	0.578636	-0.745117	0.592041	0.520508	0.234789	-0.686342	-0.242265	-0.644295
35602		9.977983	-1.254775	-0.328899	0.306567	0.148959	0.607353	-0.745117	0.596436	0.497070	0.240210	-0.686172	-0.240019	-0.643318
35603		9.852278	-1.261412	-0.341589	0.318967	0.151327	0.640526	-0.739014	0.607910	0.473877	0.245878	-0.686005	-0.237632	-0.642239
35604		9.946180	-1.240286	-0.429233	0.314339	0.148088	0.677358	-0.735596	0.620850	0.458496	0.251704	-0.685910	-0.235004	-0.641050
35605		9.990087	-1.332979	-0.252192	0.242589	0.155897	0.731344	-0.729980	0.621826	0.428711	0.257414	-0.686000	-0.231656	-0.639904
35606		9.974513	-1.497590	-0.156827	0.186582	0.164670	0.769119	-0.727783	0.624268	0.409180	0.263013	-0.686204	-0.227762	-0.638806
35607		9.976264	-1.770900	-0.216290	0.169532	0.157837	0.785738	-0.715820	0.627197	0.382568	0.268578	-0.686479	-0.223684	-0.637634
35608		9.991063	-1.993029	-0.215220	0.143265	0.167566	0.800123	-0.705078	0.628174	0.365479	0.274077	-0.686754	-0.219348	-0.636503
35609		9.979749	-2.074588	-0.220211	0.138944	0.177845	0.808389	-0.710938	0.631348	0.344482	0.279603	-0.686965	-0.214905	-0.635387
35610		10.003936	-2.144869	-0.016202	0.121038	0.178148	0.799109	-0.695801	0.618408	0.317383	0.284966	-0.687165	-0.210407	-0.634293
35611		10.106154	-2.130665	-0.071987	0.142077	0.171585	0.774347	-0.692871	0.626953	0.303467	0.290296	-0.687272	-0.206164	-0.633152
35612		10.184715	-2.273081	-0.076638	0.146327	0.182245	0.761475	-0.690186	0.618408	0.302490	0.295588	-0.687258	-0.201981	-0.632067
35613		10.151912	-2.543197	0.046916	0.153214	0.185742	0.747794	-0.683594	0.618896	0.280762	0.300840	-0.687153	-0.197893	-0.630995
35614		10.058428	-2.541647	0.080764	0.157722	0.184827	0.721267	-0.683838	0.608643	0.274902	0.305965	-0.686967	-0.193973	-0.629949
35615		10.085999	-2.624504	0.063724	0.150151	0.183594	0.702472	-0.672363	0.610596	0.263916	0.310935	-0.686747	-0.190115	-0.628931
35616		10.092311	-2.545330	0.127472	0.135123	0.188686	0.692899	-0.670410	0.609131	0.239990	0.315765	-0.686497	-0.186211	-0.627965
35617		10.005630	-2.595983	0.098208	0.132522	0.191856	0.703889	-0.666504	0.602783	0.232666	0.320630	-0.686225	-0.182215	-0.626968
35618		9.984629	-2.836748	0.025364	0.149003	0.198760	0.714881	-0.661133	0.605469	0.222412	0.325643	-0.685861	-0.178216	-0.625931
35619		10.009208	-2.947051	0.092697	0.173650	0.211649	0.729612	-0.662109	0.595459	0.206299	0.330879	-0.685355	-0.174220	-0.624864
35620		9.944329	-3.047307	0.144093	0.205708	0.222433	0.748392	-0.652344	0.598389	0.203369	0.336395	-0.684700	-0.170246	-0.623732
35621		9.878337	-3.142976	0.059986	0.233786	0.224416	0.774952	-0.647949	0.593994	0.197998	0.342195	-0.683959	-0.166252	-0.622465
35622		9.757542	-3.150052	-0.010154	0.260728	0.219479	0.802016	-0.642578	0.592529	0.187500	0.348262	-0.683169	-0.162249	-0.621022
35623		9.732851	-2.953955	-0.074682	0.227282	0.222709	0.836113	-0.639160	0.596191	0.174561	0.354299	-0.682467	-0.157862	-0.619509
35624		9.707542	-2.968530	-0.016142	0.155846	0.222521	0.875411	-0.640625	0.597900	0.172363	0.360108	-0.681988	-0.152876	-0.617934
35625		9.687810	-3.351169	0.082545	0.113202	0.223432	0.891467	-0.629883	0.595947	0.170166	0.365733	-0.681612	-0.147571	-0.616333
35626		9.766944	-3.610080	0.253209	0.102849	0.215666	0.894244	-0.625488	0.600586	0.157471	0.371278	-0.681270	-0.142214	-0.614654
35627		9.620965	-3.673435	0.340904	0.103628	0.220119	0.879522	-0.618408	0.601074	0.150391	0.376733	-0.680844	-0.136923	-0.613006
35628		9.592774	-3.564939	0.329851	0.106216	0.216848	0.846906	-0.617676	0.607666	0.158447	0.382008	-0.680349	-0.131835	-0.611404
35629		9.573420	-3.617232	0.372896	0.107496	0.217545	0.824283	-0.612549	0.611816	0.154053	0.387153	-0.679784	-0.126875	-0.609843
35630		9.576950	-3.743043	0.560534	0.118416	0.222702	0.803648	-0.607178	0.610840	0.154541	0.392236	-0.679101	-0.122067	-0.608336
35631		9.631791	-3.658132	0.601522	0.098386	0.218074	0.780565	-0.602783	0.611572	0.145508	0.397062	-0.678448	-0.117300	-0.606869
35632		9.429608	-3.746321	0.429011	0.079898	0.218360	0.747115	-0.592773	0.623047	0.137207	0.401592	-0.677791	-0.112627	-0.605507
35633		9.431873	-4.022693	0.401963	0.062381	0.210764	0.727807	-0.594971	0.623291	0.134766	0.405898	-0.677183	-0.108000	-0.604157
35634		9.472338	-4.236574	0.652890	0.064213	0.223781	0.713602	-0.582520	0.635498	0.129883	0.410135	-0.676463	-0.103416	-0.602903
35635		9.509494	-4.350637	0.865133	0.055260	0.227128	0.712468	-0.577393	0.631592	0.137451	0.414298	-0.675729	-0.098782	-0.601656
35636		9.333156	-4.445935	0.871897	0.085441	0.232962	0.701250	-0.572510	0.639404	0.124268	0.418561	-0.674823	-0.094341	-0.600433
35637		9.224613	-4.615263	0.647649	0.145661	0.234604	0.694865	-0.563965	0.642578	0.120850	0.423113	-0.673666	-0.090230	-0.599172
35638		9.165440	-4.329832	0.827994	0.166416	0.246462	0.709540	-0.569336	0.656006	0.115967	0.427844	-0.672361	-0.086097	-0.597886
35639		9.108092	-4.112215	0.828436	0.097670	0.237642	0.724625	-0.560059	0.651123	0.119629	0.432237	-0.671326	-0.081570	-0.596522
35640		9.167608	-4.294979	0.934860	-0.014253	0.239562	0.739546	-0.549805	0.661621	0.107178	0.436057	-0.670666	-0.076397	-0.595168
35641		8.959322	-4.472736	0.917717	-0.064766	0.243929	0.734782	-0.557129	0.668213	0.115967	0.439551	-0.670136	-0.070986	-0.593864
35642		8.848348	-4.500255	0.784248	-0.050809	0.225464	0.712487	-0.546631	0.669678	0.108643	0.442980	-0.669604	-0.065838	-0.592507
35643		8.890048	-4.614546	0.850127	-0.071609	0.220920	0.697917	-0.539551	0.673096	0.111084	0.446197	-0.669138	-0.060687	-0.591168
35644		8.722978	-4.860919	0.792072	-0.083564	0.220548	0.680351	-0.539551	0.680908	0.108398	0.449241	-0.668684	-0.055579	-0.589877
35645		8.725387	-5.138685	0.877721	-0.043609	0.214001	0.649452	-0.521729	0.682617	0.102539	0.452333	-0.668076	-0.050866	-0.588627
35646		8.519538	-5.302580	0.592312	0.047789	0.205585	0.605423	-0.520020	0.697754	0.102783	0.455697	-0.667126	-0.046879	-0.587440
35647		8.601396	-4.971380	0.621460	0.065772	0.179438	0.571666	-0.523682	0.698975	0.103516	0.458970	-0.666206	-0.043269	-0.586211
35648		8.567375	-4.756377	0.733257	-0.069625	0.177309	0.555096	-0.500244	0.702393	0.100342	0.461395	-0.665793	-0.039101	-0.585069
35649		8.444905	-4.995665	0.881121	-0.187083	0.165837	0.536531	-0.499268	0.708496	0.098877	0.463057	-0.665867	-0.034511	-0.583960
35650		8.211067	-5.283517	0.898376	-0.162077	0.141407	0.490047	-0.501221	0.711426	0.104736	0.464611	-0.665935	-0.030399	-0.582875
35651		8.101609	-5.220319	0.896748	-0.081893	0.135059	0.443779	-0.496338	0.719238	0.097168	0.466372	-0.665701	-0.026960	-0.581904
35652		7.987692	-4.874112	0.823780	-0.038869	0.113902	0.404647	-0.484131	0.717529	0.094971	0.468168	-0.665385	-0.024032	-0.580951
35653		7.972923	-4.783745	0.793224	-0.063341	0.111843	0.388458	-0.480957	0.725098	0.099854	0.469741	-0.665164	-0.021088	-0.580048
35654		7.870251	-4.814354	0.745740	-0.082329	0.105838	0.371485	-0.481689	0.731934	0.102295	0.471115	-0.665036	-0.018174	-0.579177
35655		7.731083	-4.861365	0.607920	-0.041773	0.091275	0.354427	-0.472168	0.732666	0.103516	0.472622	-0.664812	-0.015611	-0.578282
35656		7.712782	-4.958001	0.575996	0.001938	0.073644	0.334041	-0.466553	0.730225	0.102051	0.474261	-0.664493	-0.013446	-0.577360
35657		7.611903	-4.652828	0.759357	0.014422	0.071712	0.318662	-0.463379	0.734863	0.101074	0.475888	-0.664130	-0.011438	-0.576482
35658		7.524640	-4.517269	0.700675	-0.027453	0.059456	0.310714	-0.459717	0.743652	0.103516	0.477237	-0.663986	-0.009326	-0.575569
35659		7.413213	-4.471572	0.787092	-0.049876	0.058239	0.283022	-0.457031	0.740479	0.084961	0.478321	-0.663933	-0.007270	-0.574760
35660		7.390749	-4.518949	0.787047	-0.041372	0.051231	0.246374	-0.451660	0.738281	0.098145	0.479270	-0.663874	-0.005491	-0.574057
35661		7.275823	-4.243087	0.915205	-0.007299	0.042832	0.194099	-0.451416	0.745850	0.101807	0.480151	-0.663716	-0.004202	-0.573515
35662		7.147043	-3.893867	0.844674	-0.000601	0.027860	0.137836	-0.446289	0.753174	0.086670	0.480795	-0.663599	-0.003322	-0.573116
35663		6.972615	-3.680251	0.828641	-0.009753	0.022592	0.079931	-0.440430	0.746826	0.100586	0.481107	-0.663542	-0.002746	-0.572923
35664		6.959069	-3.502254	0.897443	-0.017786	0.018827	0.006289	-0.444824	0.744141	0.094727	0.481019	-0.663533	-0.002561	-0.573008
35665		6.823675	-3.309773	0.956502	-0.004543	0.017948	-0.074337	-0.447754	0.748047	0.093262	0.480614	-0.663474	-0.002896	-0.573414
35666		6.558516	-2.844991	0.827235	0.026638	-0.003708	-0.166985	-0.447266	0.749023	0.092285	0.479933	-0.663390	-0.003986	-0.574075
35667		6.720603	-2.476950	0.631020	0.007104	-0.023129	-0.248331	-0.441162	0.747559	0.108154	0.478748	-0.663472	-0.005517	-0.574956
35668		6.829736	-2.558384	0.727619	-0.054396	-0.013836	-0.321943	-0.460449	0.750000	0.093994	0.476861	-0.663748	-0.007133	-0.576186
35669		6.558269	-2.698290	0.306841	-0.004531	-0.047362	-0.413341	-0.463623	0.744629	0.105957	0.474799	-0.663975	-0.009637	-0.577590
35670		6.373460	-2.225689	-0.154931	0.034952	-0.119570	-0.503642	-0.471924	0.739258	0.098145	0.472501	-0.664377	-0.013123	-0.578942
35671		6.939483	-1.917155	-0.023947	-0.077797	-0.126820	-0.561211	-0.477539	0.734375	0.103760	0.469283	-0.665241	-0.016420	-0.580482
35672		6.938886	-2.232335	0.177457	-0.155574	-0.081937	-0.623071	-0.481445	0.726807	0.101807	0.465319	-0.666167	-0.019518	-0.582511
35673		6.891806	-2.791224	0.071445	0.010581	-0.106957	-0.726196	-0.493408	0.715820	0.100586	0.461750	-0.666533	-0.024100	-0.584757
35674		7.246832	-2.635085	0.053803	0.209852	-0.140643	-0.819319	-0.497559	0.715820	0.097900	0.458800	-0.666249	-0.030306	-0.587109
35675		7.394180	-2.521156	0.032690	0.317346	-0.136227	-0.870720	-0.508057	0.709961	0.099854	0.456164	-0.665483	-0.037311	-0.589622
35676		7.521296	-2.626824	-0.107924	0.346958	-0.175417	-0.889787	-0.524170	0.696289	0.099121	0.453550	-0.664751	-0.044723	-0.591944
35677		7.810815	-2.526649	-0.111300	0.278374	-0.223296	-0.896153	-0.537598	0.706543	0.099365	0.450471	-0.664470	-0.052016	-0.594011
35678		8.197664	-2.393620	0.029769	0.142308	-0.238487	-0.905329	-0.547363	0.681396	0.097900	0.446549	-0.664731	-0.058748	-0.596050
35679		8.527238	-3.184696	0.262550	0.047562	-0.229222	-0.894719	-0.553711	0.679199	0.099121	0.442124	-0.665264	-0.064920	-0.598110
35680		8.592825	-3.550086	0.442332	0.155923	-0.253333	-0.913130	-0.562744	0.668457	0.096191	0.438163	-0.665467	-0.071825	-0.600008
35681		8.867969	-3.224699	0.390035	0.303765	-0.291445	-0.955821	-0.570312	0.661865	0.095947	0.434749	-0.665247	-0.079843	-0.601718
35682		9.297797	-2.956571	0.550521	0.289616	-0.306236	-0.973057	-0.589600	0.651611	0.110840	0.431123	-0.665090	-0.087938	-0.603370
35683		9.734068	-3.203736	0.805466	0.162798	-0.299152	-0.961245	-0.599609	0.648926	0.107666	0.426819	-0.665311	-0.095303	-0.605066
35684		9.978321	-3.576767	0.798546	0.129347	-0.307365	-0.992113	-0.605469	0.638184	0.106201	0.422132	-0.665615	-0.102697	-0.606807
35685		9.837720	-3.660001	0.592689	0.133950	-0.345183	-1.037965	-0.614258	0.627686	0.106689	0.417169	-0.665999	-0.110497	-0.608446
35686		9.859061	-3.243141	0.662050	0.137319	-0.365995	-1.073157	-0.621094	0.611328	0.110107	0.411987	-0.666384	-0.118573	-0.610032
35687		10.493781	-3.195211	1.061124	0.026812	-0.333281	-1.068190	-0.626221	0.599854	0.108887	0.406208	-0.666926	-0.125939	-0.611837
35688		10.415302	-3.542431	1.268495	-0.011777	-0.301042	-1.097666	-0.636719	0.595215	0.115479	0.400059	-0.667339	-0.133155	-0.613906
35689		10.639969	-3.837347	1.147145	0.049653	-0.322936	-1.160054	-0.647705	0.584961	0.126465	0.393870	-0.667521	-0.141092	-0.615934
35690		10.513655	-3.732292	0.856252	0.097998	-0.344178	-1.225985	-0.651855	0.565430	0.122070	0.387543	-0.667500	-0.149696	-0.617936
35691		10.862182	-3.325208	1.025290	0.052334	-0.341605	-1.254404	-0.660645	0.571045	0.124512	0.380775	-0.667497	-0.158196	-0.620025
35692		10.849305	-3.131612	1.205960	-0.077134	-0.309611	-1.277683	-0.676514	0.556396	0.134033	0.373162	-0.667625	-0.166035	-0.622462
35693		10.565197	-3.120680	0.943278	-0.069762	-0.312621	-1.333418	-0.679932	0.543701	0.130859	0.365251	-0.667578	-0.174209	-0.624966
35694		10.344763	-2.832581	0.439451	-0.001313	-0.360949	-1.380331	-0.688477	0.538330	0.145508	0.357357	-0.667411	-0.183121	-0.627156
35695		10.811168	-1.989979	0.594257	-0.084345	-0.378130	-1.341647	-0.697021	0.524170	0.147217	0.349127	-0.667545	-0.191406	-0.629173
35696		10.923051	-1.726995	0.640340	-0.239276	-0.329211	-1.296159	-0.703857	0.520020	0.161377	0.340304	-0.667852	-0.198458	-0.631491
35697		10.752860	-2.101059	0.459087	-0.260056	-0.308218	-1.291596	-0.712158	0.516602	0.154297	0.331379	-0.668025	-0.205290	-0.633867
35698		10.670551	-1.885586	0.410485	-0.236700	-0.312215	-1.304494	-0.722412	0.508789	0.169678	0.322467	-0.668042	-0.212299	-0.636132
35699		10.706057	-1.604768	0.324834	-0.224407	-0.352924	-1.291831	-0.728760	0.506836	0.180664	0.313577	-0.668174	-0.219382	-0.638031
35700		10.973007	-1.744718	0.281751	-0.279094	-0.339858	-1.263451	-0.742188	0.492920	0.184814	0.304518	-0.668343	-0.225951	-0.639947
35701		10.596676	-1.807756	0.125809	-0.180113	-0.318382	-1.280663	-0.738037	0.490967	0.199463	0.295923	-0.668028	-0.233058	-0.641757
35702		10.430369	-1.037348	0.037761	-0.106929	-0.322219	-1.282813	-0.750000	0.489990	0.201660	0.287682	-0.667464	-0.240543	-0.643327
35703		10.303256	-0.283410	-0.146162	-0.119120	-0.324655	-1.268909	-0.762451	0.485840	0.214600	0.279408	-0.666886	-0.247859	-0.644794
35704		10.495299	0.016854	-0.350446	-0.136781	-0.324542	-1.248326	-0.772949	0.482910	0.226562	0.271113	-0.666309	-0.254935	-0.646172
35705		10.487817	-0.075846	-0.165421	-0.206497	-0.325253	-1.217900	-0.779785	0.491455	0.247070	0.262560	-0.665878	-0.261438	-0.647548
35706		10.418333	-0.457044	-0.201959	-0.187218	-0.336536	-1.201939	-0.782715	0.479736	0.267090	0.254146	-0.665423	-0.267950	-0.648710
35707		10.384267	-0.170678	-0.463685	-0.077781	-0.333554	-1.228512	-0.796875	0.494385	0.281494	0.246175	-0.664584	-0.275160	-0.649625
35708		10.562088	0.614689	-0.376176	-0.031175	-0.317257	-1.242630	-0.809082	0.497314	0.302246	0.238396	-0.663451	-0.282633	-0.650476
35709		10.686486	0.603234	-0.275538	-0.017025	-0.266159	-1.236323	-0.815186	0.501465	0.322266	0.230822	-0.661951	-0.290012	-0.651487
35710		10.512900	0.652035	-0.165148	0.049918	-0.248027	-1.234679	-0.825439	0.509033	0.365723	0.223646	-0.660151	-0.297675	-0.652359
35711		10.417111	1.252293	-0.210576	0.094937	-0.263332	-1.214748	-0.848633	0.514404	0.393555	0.216765	-0.658326	-0.305467	-0.652925
35712		10.479312	1.827001	-0.338819	0.004455	-0.273941	-1.162295	-0.864746	0.509766	0.447021	0.209623	-0.656783	-0.312463	-0.653499
35713		10.653418	1.974009	-0.339913	-0.183365	-0.277106	-1.091000	-0.871582	0.503174	0.499268	0.201813	-0.655706	-0.318022	-0.654357
35714		10.658120	1.440086	-0.352004	-0.349979	-0.267334	-1.016164	-0.881348	0.492188	0.568115	0.193508	-0.654992	-0.322217	-0.655527
35715		10.687995	1.143872	-0.249507	-0.439761	-0.263302	-0.961255	-0.883789	0.463623	0.638428	0.185009	-0.654491	-0.325586	-0.656816
35716		10.640834	1.203285	-0.408888	-0.488487	-0.260281	-0.925539	-0.872803	0.408936	0.701416	0.176437	-0.654089	-0.328456	-0.658144
35717		10.684052	1.042012	-0.444058	-0.529576	-0.244466	-0.890680	-0.881836	0.343018	0.750488	0.167865	-0.653703	-0.330856	-0.659567
35718		10.717189	1.018813	-0.327830	-0.581048	-0.221231	-0.855345	-0.875488	0.265625	0.788086	0.159263	-0.653306	-0.332716	-0.661156
35719		10.699172	0.867500	-0.275782	-0.573984	-0.181833	-0.831933	-0.872803	0.197510	0.801025	0.150932	-0.652696	-0.334403	-0.662859
35720		10.611882	0.518294	-0.493660	-0.483290	-0.144248	-0.816740	-0.866211	0.128662	0.801514	0.143278	-0.651762	-0.336431	-0.664448
35721		10.423880	0.387361	-0.547196	-0.302740	-0.109933	-0.818740	-0.857666	0.061279	0.774170	0.136691	-0.650380	-0.339400	-0.665679
35722		10.304348	0.610857	-0.636500	-0.125378	-0.089369	-0.809756	-0.857666	0.011475	0.753418	0.131173	-0.648677	-0.343255	-0.666475
35723		10.165197	1.022255	-0.706250	0.004622	-0.075741	-0.785534	-0.851807	-0.038818	0.719482	0.126535	-0.646798	-0.347662	-0.666913
35724		10.026957	1.312834	-0.798746	0.076914	-0.063064	-0.755974	-0.838135	-0.055664	0.694824	0.122488	-0.644833	-0.352277	-0.667149
35725		9.856073	1.434572	-0.942894	0.121443	-0.068434	-0.724399	-0.839844	-0.091064	0.649414	0.118841	-0.642923	-0.356955	-0.667166
35726		9.658539	1.598066	-1.067771	0.152458	-0.073189	-0.685358	-0.833984	-0.100830	0.620605	0.115565	-0.641105	-0.361582	-0.666999
35727		9.635774	1.913343	-0.968967	0.116843	-0.078087	-0.640304	-0.838135	-0.106689	0.575684	0.112336	-0.639466	-0.365759	-0.666847
35728		9.576612	1.976254	-0.996190	0.067859	-0.078145	-0.602139	-0.836182	-0.122314	0.552734	0.109060	-0.637975	-0.369445	-0.666787
35729		9.535938	1.877053	-1.046473	0.009853	-0.086480	-0.551607	-0.832031	-0.114502	0.531006	0.105732	-0.636726	-0.372534	-0.666798
35730		9.538870	1.562904	-1.030032	-0.010517	-0.102220	-0.481071	-0.837646	-0.114502	0.511719	0.102642	-0.635792	-0.375137	-0.666712
35731		9.506878	1.759754	-1.007911	-0.005240	-0.100867	-0.422874	-0.837402	-0.110596	0.487793	0.099913	-0.635022	-0.377449	-0.666556
35732		9.425992	2.102045	-1.063436	-0.032331	-0.097627	-0.351662	-0.833740	-0.108398	0.478027	0.097451	-0.634478	-0.379221	-0.666433
35733		9.320901	2.466972	-1.092374	-0.034197	-0.097032	-0.313919	-0.836914	-0.104004	0.455811	0.095195	-0.634048	-0.380775	-0.666282
35734		9.166786	3.046151	-1.172393	-0.048175	-0.106382	-0.307017	-0.839844	-0.093262	0.447510	0.092877	-0.633702	-0.382215	-0.666114
35735		9.184135	3.307194	-1.139086	-0.107209	-0.124537	-0.312901	-0.836426	-0.095459	0.443848	0.090158	-0.633480	-0.383369	-0.666036
35736		9.301883	3.116317	-0.999217	-0.163100	-0.139455	-0.341244	-0.846436	-0.094971	0.429932	0.086940	-0.633287	-0.384367	-0.666071
35737		9.135877	2.883444	-0.829787	-0.142719	-0.143773	-0.381818	-0.847900	-0.090820	0.416016	0.083592	-0.632967	-0.385689	-0.666040
35738		9.102780	3.290966	-0.852799	-0.106207	-0.174742	-0.443586	-0.846680	-0.089355	0.410889	0.079996	-0.632587	-0.387552	-0.665761
35739		9.169078	3.748134	-0.762457	-0.153828	-0.176486	-0.494890	-0.849365	-0.088379	0.414551	0.075860	-0.632073	-0.389413	-0.665648
35740		9.130498	3.865614	-0.642733	-0.236407	-0.169952	-0.524407	-0.840088	-0.093994	0.413574	0.071146	-0.631463	-0.390958	-0.665841
35741		9.211301	3.874536	-0.696366	-0.268505	-0.168031	-0.559575	-0.849121	-0.086426	0.406250	0.066074	-0.630731	-0.392496	-0.666153
35742		9.272773	3.771473	-0.687133	-0.297088	-0.172160	-0.589883	-0.848633	-0.092529	0.401855	0.060670	-0.629918	-0.394023	-0.666534
35743		9.189665	3.822947	-0.716062	-0.305805	-0.172286	-0.610367	-0.843994	-0.097656	0.404053	0.055107	-0.629023	-0.395594	-0.666932
35744		9.153003	3.735917	-0.685118	-0.328673	-0.167660	-0.623493	-0.841309	-0.101074	0.393799	0.049366	-0.628047	-0.397089	-0.667413
35745		9.199825	3.791368	-0.571219	-0.333616	-0.148677	-0.629390	-0.846924	-0.114258	0.403809	0.043631	-0.626926	-0.398562	-0.667988
35746		9.151626	3.878415	-0.492499	-0.344744	-0.120518	-0.630791	-0.852539	-0.124512	0.392822	0.037925	-0.625626	-0.399952	-0.668725
35747		9.152131	3.681369	-0.438797	-0.330090	-0.090802	-0.627054	-0.861816	-0.129395	0.398193	0.032417	-0.624145	-0.401378	-0.669543
35748		9.066344	3.290294	-0.512632	-0.294225	-0.076077	-0.604297	-0.854736	-0.131104	0.389404	0.027276	-0.622629	-0.402864	-0.670291
35749		8.838478	3.170229	-0.812808	-0.186225	-0.075402	-0.584532	-0.857910	-0.124268	0.389648	0.022812	-0.621135	-0.404834	-0.670657
35750		8.728681	3.925772	-1.060353	-0.138137	-0.102337	-0.536683	-0.845215	-0.143311	0.393799	0.018778	-0.619931	-0.406816	-0.670696
35751		8.810664	4.190581	-0.804910	-0.295968	-0.083686	-0.429307	-0.855713	-0.148438	0.386475	0.014594	-0.619002	-0.407347	-0.671336
35752		8.626044	3.524267	-0.712292	-0.352610	-0.045028	-0.344563	-0.847412	-0.147705	0.382324	0.010727	-0.618142	-0.407110	-0.672345
35753		8.591533	3.354753	-0.877281	-0.211363	-0.042456	-0.320052	-0.850342	-0.156494	0.384766	0.007738	-0.617331	-0.407527	-0.672877
35754		8.387535	4.001464	-1.202300	-0.025985	-0.056201	-0.300731	-0.858887	-0.153809	0.388672	0.005769	-0.616650	-0.408879	-0.672702
35755		8.444362	4.316627	-1.144507	0.001303	-0.070176	-0.267327	-0.861084	-0.157471	0.384766	0.004083	-0.616158	-0.410207	-0.672356
35756		8.454781	4.264467	-1.042798	0.013504	-0.069461	-0.231641	-0.853516	-0.154541	0.392334	0.002664	-0.615784	-0.411417	-0.671967
35757		8.361846	4.241919	-1.038263	-0.027049	-0.055441	-0.186522	-0.863770	-0.156250	0.390625	0.001341	-0.615486	-0.412165	-0.671785
35758		8.362281	4.036777	-1.130075	0.016615	-0.052435	-0.170177	-0.864502	-0.162598	0.389160	0.000346	-0.615228	-0.413070	-0.671467
35759		8.519288	4.261674	-1.305409	0.079701	-0.064690	-0.165608	-0.859619	-0.157471	0.384033	-0.000339	-0.615055	-0.414302	-0.670866
35760		8.515403	4.280154	-1.196372	0.041598	-0.060550	-0.145273	-0.856445	-0.157959	0.389648	-0.001088	-0.614930	-0.415213	-0.670416
35761		8.467707	3.867894	-0.948742	-0.008005	-0.048766	-0.087262	-0.853760	-0.162842	0.386963	-0.001723	-0.614941	-0.415547	-0.670198
35762		8.477619	3.777439	-0.861757	-0.036057	-0.042005	-0.028120	-0.859131	-0.162842	0.388916	-0.002144	-0.615121	-0.415418	-0.670111
35763		8.442043	3.571782	-0.899397	-0.028564	-0.029694	0.054683	-0.859375	-0.165771	0.396973	-0.002018	-0.615521	-0.414903	-0.670064
35764		8.433338	3.438279	-0.945135	0.038335	-0.023991	0.124335	-0.850342	-0.165039	0.395508	-0.001135	-0.616133	-0.414399	-0.669815
35765		8.505476	3.505257	-0.890460	0.077413	-0.008398	0.203942	-0.850342	-0.161133	0.394287	0.000452	-0.616935	-0.413701	-0.669510
35766		8.622591	3.864251	-0.864477	0.068317	-0.000584	0.280289	-0.852783	-0.155762	0.392090	0.002450	-0.617955	-0.412552	-0.669273
35767		8.660665	3.926686	-0.841563	0.024798	0.011788	0.346697	-0.842773	-0.154053	0.392090	0.004641	-0.619132	-0.410812	-0.669244
35768		8.710735	3.719956	-0.942677	0.043849	0.017814	0.379172	-0.851074	-0.151367	0.392578	0.007135	-0.620381	-0.409004	-0.669173
35769		8.830385	3.633514	-0.838775	0.109007	0.031418	0.390029	-0.848877	-0.140381	0.387939	0.010077	-0.621583	-0.407493	-0.668942
35770		8.903869	3.485870	-0.725390	0.175933	0.043633	0.400976	-0.852051	-0.142090	0.402344	0.013473	-0.622741	-0.406288	-0.668537
35771		8.992970	3.467210	-0.728396	0.242879	0.061805	0.421555	-0.851318	-0.135498	0.403320	0.017396	-0.623851	-0.405337	-0.667989
35772		8.978650	3.367619	-0.807726	0.302997	0.084293	0.444650	-0.848389	-0.142334	0.396484	0.021841	-0.624894	-0.404586	-0.667339
35773		9.041531	3.422064	-0.855937	0.329630	0.097608	0.473410	-0.848877	-0.136719	0.404053	0.026634	-0.625941	-0.403816	-0.666649
35774		9.021481	3.379617	-0.922718	0.337300	0.108947	0.500736	-0.838867	-0.125244	0.400635	0.031660	-0.627000	-0.402930	-0.665970
35775		9.063667	3.338644	-0.916494	0.316480	0.113138	0.529223	-0.841064	-0.133545	0.407715	0.036753	-0.628120	-0.401764	-0.665357
35776		9.197060	3.234377	-0.954952	0.300851	0.123683	0.554358	-0.846191	-0.122803	0.407471	0.041942	-0.629253	-0.400360	-0.664826
35777		9.275135	2.927019	-1.061614	0.325512	0.131492	0.554811	-0.840088	-0.112305	0.414062	0.047291	-0.630317	-0.399073	-0.664233
35778		9.252155	3.024742	-1.035151	0.375982	0.126431	0.534521	-0.838867	-0.119629	0.424561	0.052779	-0.631303	-0.398156	-0.663433
35779		9.115257	3.666568	-0.963528	0.346239	0.108715	0.552275	-0.832275	-0.113037	0.434082	0.058152	-0.632439	-0.396974	-0.662609
35780		9.146573	3.788128	-1.086530	0.244333	0.094716	0.597366	-0.826172	-0.115479	0.432861	0.063191	-0.633831	-0.394983	-0.662008
35781		9.178499	3.453202	-1.180654	0.182486	0.087272	0.621290	-0.820801	-0.112549	0.447754	0.068009	-0.635354	-0.392515	-0.661537
35782		9.303728	3.363476	-1.134980	0.170321	0.086213	0.625287	-0.824463	-0.109863	0.454590	0.072781	-0.636884	-0.389947	-0.661077
35783		9.383825	3.409167	-0.992924	0.160036	0.089349	0.631307	-0.817139	-0.109619	0.468750	0.077542	-0.638402	-0.387273	-0.660643
35784		9.363799	3.494809	-0.797871	0.146307	0.087180	0.630870	-0.821289	-0.104248	0.482178	0.082218	-0.639919	-0.384515	-0.660221
35785		9.513627	3.544123	-0.808175	0.121715	0.078873	0.623011	-0.822998	-0.097168	0.490479	0.086693	-0.641453	-0.381655	-0.659819
35786		9.629395	3.391176	-0.760180	0.096023	0.092891	0.609172	-0.812500	-0.096191	0.514648	0.090996	-0.642864	-0.378707	-0.659566
35787		9.581338	3.608675	-0.664040	0.092839	0.098974	0.574543	-0.812988	-0.095215	0.521729	0.095109	-0.644116	-0.375910	-0.659364
35788		9.643947	3.800129	-0.828487	0.045187	0.095606	0.555222	-0.813965	-0.083740	0.553955	0.098848	-0.645346	-0.372948	-0.659293
35789		9.715530	3.584531	-0.849709	0.016576	0.090029	0.518125	-0.815186	-0.085449	0.573975	0.102208	-0.646499	-0.370026	-0.659298
35790		9.724550	3.452916	-0.832231	0.015167	0.096345	0.483743	-0.809570	-0.072998	0.593506	0.105389	-0.647498	-0.367269	-0.659358
35791		9.685089	3.579223	-0.809986	0.029182	0.101347	0.448135	-0.815918	-0.071045	0.624268	0.108462	-0.648337	-0.364771	-0.659422
35792		9.624988	3.608030	-0.933934	0.050254	0.100447	0.418722	-0.822510	-0.049805	0.662354	0.111482	-0.649060	-0.362543	-0.659435
35793		9.592303	3.538185	-0.862888	0.071366	0.099048	0.393749	-0.818604	-0.046875	0.677002	0.114472	-0.649686	-0.360564	-0.659392
35794		9.449975	3.694916	-0.947095	0.108220	0.108386	0.370092	-0.827637	-0.030273	0.693604	0.117556	-0.650145	-0.358904	-0.659303
35795		9.269216	3.924284	-1.070614	0.119692	0.104758	0.361038	-0.831299	-0.010498	0.720215	0.120638	-0.650575	-0.357357	-0.659162
35796		9.196546	3.936759	-1.172561	0.109705	0.104974	0.361763	-0.841797	0.010010	0.738770	0.123666	-0.651008	-0.355750	-0.659043
35797		9.183100	3.962036	-1.185600	0.083261	0.099456	0.371661	-0.834473	0.041260	0.760986	0.126582	-0.651518	-0.353949	-0.658955
35798		9.185476	3.927723	-1.183632	0.040650	0.100877	0.382388	-0.846436	0.058594	0.779541	0.129325	-0.652087	-0.351853	-0.658981
35799		9.156964	3.585470	-1.201890	0.013224	0.099724	0.395875	-0.849609	0.086670	0.788818	0.131984	-0.652723	-0.349535	-0.659059
35800		9.159324	3.321392	-1.094808	0.025672	0.105843	0.408900	-0.853027	0.120605	0.798340	0.134794	-0.653339	-0.347206	-0.659110
35801		9.145908	3.283527	-1.119913	0.058541	0.105432	0.418971	-0.860352	0.146973	0.808838	0.137833	-0.653940	-0.345001	-0.659044
35802		9.212292	3.281305	-1.154218	0.090050	0.111347	0.422686	-0.863037	0.170654	0.812744	0.141076	-0.654473	-0.342939	-0.658905
35803		9.152516	3.140288	-1.199273	0.115782	0.111994	0.423606	-0.867188	0.199463	0.806396	0.144461	-0.654964	-0.341010	-0.658684
35804		9.197328	2.879893	-1.147676	0.152404	0.119125	0.433443	-0.877197	0.236328	0.806152	0.148114	-0.655388	-0.339218	-0.658376
35805		9.212350	2.878225	-1.073372	0.222633	0.126572	0.425578	-0.870850	0.257324	0.801025	0.152125	-0.655651	-0.337841	-0.657908
35806		9.187828	3.252308	-1.120720	0.252756	0.119464	0.422588	-0.874512	0.291992	0.790527	0.156258	-0.655893	-0.336650	-0.657308
35807		9.219048	3.255915	-1.173433	0.203490	0.108765	0.433270	-0.876953	0.315430	0.776611	0.160143	-0.656275	-0.335143	-0.656762
35808		9.324200	2.820647	-1.072680	0.156865	0.108722	0.453701	-0.875732	0.328125	0.766113	0.163879	-0.656763	-0.333266	-0.656308
35809		9.433501	2.499206	-0.981771	0.137872	0.113673	0.468785	-0.885254	0.363037	0.755371	0.167601	-0.657279	-0.331193	-0.655900
35810		9.455745	2.467116	-0.881048	0.113098	0.114730	0.471064	-0.877441	0.383545	0.738770	0.171198	-0.657818	-0.328966	-0.655551
35811		9.460384	2.461448	-0.921896	0.086261	0.109631	0.471925	-0.869385	0.404785	0.735596	0.174633	-0.658413	-0.326591	-0.655236
35812		9.488243	2.331827	-1.000397	0.043189	0.098543	0.462653	-0.876221	0.412354	0.719238	0.177746	-0.659094	-0.324045	-0.654978
35813		9.564207	2.056661	-1.007832	0.031778	0.093854	0.443355	-0.870850	0.414062	0.711182	0.180673	-0.659754	-0.321546	-0.654744
35814		9.709456	1.599069	-0.805641	0.066275	0.101394	0.413729	-0.864014	0.441162	0.697266	0.183644	-0.660233	-0.319383	-0.654494
35815		9.670612	1.372758	-0.640724	0.156181	0.107040	0.382206	-0.870605	0.447754	0.681641	0.186950	-0.660450	-0.317872	-0.654074
35816		9.551640	1.750434	-0.664000	0.226578	0.092474	0.366304	-0.865723	0.467529	0.670898	0.190516	-0.660585	-0.316850	-0.653404
35817		9.497442	2.057138	-0.831965	0.215029	0.074159	0.359272	-0.861084	0.476562	0.662109	0.193928	-0.660810	-0.315829	-0.652667
35818		9.523185	2.160607	-1.025603	0.157399	0.062855	0.363027	-0.863037	0.479492	0.651367	0.197009	-0.661190	-0.314491	-0.652005
35819		9.631141	2.060946	-1.034255	0.059787	0.060561	0.378533	-0.862305	0.489990	0.631592	0.199626	-0.661776	-0.312540	-0.651553
35820		9.643847	1.908012	-0.886862	-0.027392	0.052370	0.381540	-0.859375	0.495605	0.630371	0.201751	-0.662551	-0.310112	-0.651270
35821		9.647770	1.824857	-0.882840	-0.089032	0.034366	0.371868	-0.850586	0.503662	0.622559	0.203433	-0.663496	-0.307431	-0.651056
35822		9.628687	1.831935	-0.952007	-0.134584	0.008772	0.350876	-0.848877	0.502197	0.620117	0.204679	-0.664595	-0.304662	-0.650846
35823		9.708189	1.680227	-0.897412	-0.165624	0.005310	0.312411	-0.833740	0.499268	0.610840	0.205532	-0.665662	-0.301943	-0.650755
35824		9.704648	1.266197	-0.784548	-0.132724	0.005893	0.269223	-0.841064	0.504150	0.608154	0.206330	-0.666555	-0.299641	-0.650652
35825		9.733763	1.278895	-0.673686	-0.051211	0.006797	0.216990	-0.838867	0.515381	0.609619	0.207298	-0.667169	-0.298068	-0.650437
35826		9.800105	1.336288	-0.593225	0.007702	-0.004693	0.165019	-0.829346	0.500488	0.606445	0.208282	-0.667613	-0.297124	-0.650099
35827		9.780150	1.343057	-0.517540	0.057016	0.000543	0.111166	-0.833496	0.504395	0.607178	0.209261	-0.667807	-0.296738	-0.649762
35828		9.773618	1.214362	-0.581400	0.096355	-0.000715	0.071458	-0.830078	0.508545	0.602051	0.210238	-0.667840	-0.296789	-0.649389
35829		9.810634	1.163998	-0.458826	0.116245	0.002497	0.036168	-0.826172	0.515869	0.596680	0.211143	-0.667732	-0.297139	-0.649047
35830		9.830678	1.071950	-0.388798	0.142068	0.015245	0.007457	-0.824951	0.497559	0.590576	0.212066	-0.667436	-0.297766	-0.648762
35831		9.805392	1.016068	-0.388453	0.153178	0.020456	-0.005788	-0.828613	0.508545	0.597412	0.212992	-0.667058	-0.298518	-0.648502
35832		9.801082	0.963441	-0.302520	0.128311	0.029742	-0.004122	-0.826660	0.502686	0.590576	0.213812	-0.666677	-0.299109	-0.648352
35833		9.759900	0.931223	-0.290103	0.116238	0.039996	0.003046	-0.837646	0.512695	0.588623	0.214628	-0.666277	-0.299577	-0.648277
35834		9.790427	0.938189	-0.254211	0.076005	0.044603	0.025121	-0.825439	0.509277	0.582764	0.215352	-0.665979	-0.299696	-0.648289
35835		9.809825	0.816586	-0.355731	0.039617	0.048376	0.050695	-0.823242	0.520508	0.595703	0.216021	-0.665787	-0.299470	-0.648367
35836		9.908472	0.568166	-0.325871	0.005218	0.055784	0.082934	-0.837891	0.512939	0.596191	0.216692	-0.665697	-0.298865	-0.648515
35837		9.904026	0.170013	-0.294500	0.002663	0.071330	0.116662	-0.833740	0.513916	0.590088	0.217571	-0.665611	-0.298030	-0.648693
35838		9.990922	-0.003205	-0.213933	0.018638	0.085230	0.162194	-0.828369	0.514404	0.588623	0.218821	-0.665532	-0.297001	-0.648826
35839		9.964953	-0.147159	-0.137226	0.019045	0.105972	0.208056	-0.824707	0.522461	0.589600	0.220373	-0.665452	-0.295679	-0.648987
35840		9.948718	-0.252279	-0.165727	0.047701	0.123769	0.244059	-0.830322	0.523926	0.582031	0.222324	-0.665308	-0.294275	-0.649107
35841		9.965524	-0.412274	-0.251636	0.077086	0.136241	0.287754	-0.817139	0.534912	0.577393	0.224706	-0.665145	-0.292760	-0.649139
35842		9.929382	-0.507301	-0.223690	0.091980	0.140765	0.341340	-0.834473	0.541260	0.575684	0.227473	-0.665054	-0.291014	-0.649053
35843		9.938818	-0.526985	-0.243794	0.091808	0.147940	0.391801	-0.822510	0.550293	0.559814	0.230529	-0.665040	-0.288968	-0.648903
35844		9.912560	-0.540632	-0.212142	0.078654	0.149648	0.439499	-0.822021	0.563965	0.549072	0.233773	-0.665147	-0.286576	-0.648694
35845		10.031494	-0.833451	-0.223491	0.051154	0.155797	0.489686	-0.809570	0.568359	0.549316	0.237149	-0.665383	-0.283738	-0.648474
35846		10.039721	-1.143623	-0.190354	0.059044	0.166221	0.527918	-0.812500	0.579590	0.538330	0.240797	-0.665624	-0.280700	-0.648204
35847		10.064077	-1.216686	-0.095668	0.077340	0.168307	0.558284	-0.806641	0.599854	0.517578	0.244714	-0.665874	-0.277579	-0.647825
35848		10.053346	-1.439359	-0.054648	0.070870	0.175122	0.589048	-0.798096	0.597412	0.501465	0.248774	-0.666153	-0.274227	-0.647419
35849		10.059611	-1.783982	-0.044092	0.101899	0.178349	0.604866	-0.797363	0.609131	0.479004	0.253095	-0.666369	-0.270936	-0.646908
35850		10.052204	-1.925396	-0.032460	0.154727	0.172406	0.612514	-0.794922	0.626465	0.464600	0.257733	-0.666503	-0.267887	-0.646208
35851		10.070323	-1.840323	0.024664	0.181605	0.176296	0.617589	-0.793701	0.628662	0.437744	0.262553	-0.666549	-0.264933	-0.645437
35852		10.064076	-1.799241	0.116292	0.166684	0.176910	0.634483	-0.775146	0.636963	0.426025	0.267377	-0.666641	-0.261791	-0.644643
35853		10.084774	-2.078523	0.170661	0.150453	0.188052	0.652870	-0.775146	0.634521	0.391357	0.272228	-0.666726	-0.258422	-0.643884
35854		10.136020	-2.367217	0.254804	0.142344	0.185646	0.668830	-0.774902	0.639648	0.363770	0.277109	-0.666853	-0.254914	-0.643068
35855		10.132367	-2.436401	0.301239	0.150245	0.187417	0.675974	-0.768799	0.633057	0.343506	0.282069	-0.666943	-0.251389	-0.642205
35856		10.200949	-2.449719	0.388720	0.108412	0.181879	0.694873	-0.753418	0.628418	0.323730	0.286879	-0.667176	-0.247535	-0.641329
35857		10.293717	-2.731355	0.378589	0.059110	0.189715	0.712087	-0.740479	0.621338	0.295654	0.291515	-0.667494	-0.243290	-0.640532
35858		10.372134	-3.063654	0.466647	0.071312	0.201539	0.724238	-0.739990	0.626953	0.277588	0.296301	-0.667716	-0.238999	-0.639719
35859		10.331350	-3.051790	0.486971	0.120031	0.216491	0.730932	-0.730957	0.613770	0.261475	0.301414	-0.667724	-0.234878	-0.638848
35860		10.403712	-2.961766	0.515051	0.140914	0.219497	0.759316	-0.729736	0.617676	0.249023	0.306791	-0.667689	-0.230688	-0.637851
35861		10.441811	-3.022931	0.597777	0.125038	0.236540	0.810037	-0.722656	0.597656	0.227539	0.312369	-0.667667	-0.226072	-0.636818
35862		10.493442	-3.176895	0.579127	0.122112	0.253124	0.872428	-0.709717	0.594727	0.214111	0.318279	-0.667644	-0.221034	-0.635684
35863		10.458914	-3.217753	0.584316	0.169653	0.269360	0.922317	-0.705811	0.592773	0.198730	0.324729	-0.667457	-0.215910	-0.634378
35864		10.342523	-2.979352	0.455884	0.179762	0.269371	0.986844	-0.691406	0.587646	0.179199	0.331556	-0.667309	-0.210461	-0.632832
35865		10.408669	-2.868787	0.415376	0.103633	0.272587	1.060714	-0.690430	0.584473	0.174561	0.338328	-0.667428	-0.204171	-0.631180
35866		10.530378	-3.165815	0.434721	-0.006063	0.288715	1.136231	-0.684082	0.592285	0.172852	0.344884	-0.667837	-0.196819	-0.629533
35867		10.533962	-3.420259	0.601843	-0.079238	0.301356	1.187838	-0.669922	0.585205	0.159180	0.351289	-0.668405	-0.188737	-0.627860
35868		10.515456	-3.605118	0.679038	-0.080656	0.304497	1.206554	-0.665771	0.587402	0.152100	0.357751	-0.668917	-0.180513	-0.626083
35869		10.523072	-3.746100	0.864744	-0.072591	0.308736	1.219696	-0.667480	0.596680	0.148926	0.364293	-0.669326	-0.172224	-0.624205
35870		10.508637	-3.785273	0.895520	-0.048382	0.322578	1.230293	-0.649902	0.594482	0.148926	0.371004	-0.669527	-0.163938	-0.622266
35871		10.410366	-3.786217	0.869928	-0.000302	0.327821	1.220018	-0.638184	0.593262	0.136719	0.377894	-0.669459	-0.155923	-0.620249
35872		10.348096	-3.736575	0.879674	0.014100	0.326496	1.198922	-0.634277	0.605469	0.136963	0.384711	-0.669249	-0.148087	-0.618202
35873		10.278657	-3.710356	0.786470	0.015757	0.326570	1.184825	-0.624023	0.612305	0.130127	0.391421	-0.668941	-0.140323	-0.616131
35874		10.199989	-3.733925	0.722499	0.027119	0.327457	1.159254	-0.617920	0.619141	0.130859	0.398022	-0.668489	-0.132743	-0.614069
35875		10.114762	-3.628193	0.715635	0.037837	0.322992	1.123437	-0.608398	0.618896	0.120117	0.404451	-0.667916	-0.125420	-0.612027
35876		10.078889	-3.585354	0.782138	0.017023	0.322475	1.095610	-0.606689	0.632568	0.115234	0.410581	-0.667322	-0.118138	-0.610039
35877		9.944129	-3.673142	0.859565	-0.002844	0.328008	1.068050	-0.593750	0.628906	0.108887	0.416425	-0.666679	-0.110882	-0.608140
35878		9.856398	-3.792973	0.859606	0.021352	0.330282	1.039948	-0.585693	0.640869	0.111084	0.422224	-0.665855	-0.103890	-0.606276
35879		9.642402	-3.629244	0.771292	0.062825	0.317437	1.004439	-0.574707	0.646973	0.103271	0.428025	-0.664864	-0.097345	-0.604380
35880		9.557782	-3.331120	0.700747	0.052949	0.300773	0.979632	-0.567383	0.660889	0.104492	0.433595	-0.663919	-0.090943	-0.602442
35881		9.460695	-3.172054	0.806359	-0.038159	0.299417	0.992209	-0.562012	0.665527	0.097900	0.438686	-0.663269	-0.084017	-0.600474
35882		9.292692	-3.505061	0.883317	-0.091710	0.311783	1.010730	-0.546631	0.681396	0.101562	0.443543	-0.662713	-0.076675	-0.598499
35883		9.079655	-3.838838	0.985344	-0.010841	0.318335	0.992007	-0.539795	0.680420	0.088623	0.448719	-0.661761	-0.069814	-0.596532
35884		9.001760	-3.702027	1.185701	0.085059	0.314184	0.972047	-0.529053	0.678955	0.095947	0.454284	-0.660407	-0.063555	-0.594516
35885		8.854322	-3.629147	1.211792	0.136198	0.321137	0.957933	-0.519531	0.686768	0.083984	0.460026	-0.658769	-0.057600	-0.592522
35886		8.699615	-3.903620	1.141178	0.172883	0.346100	0.947543	-0.501221	0.708740	0.073486	0.465892	-0.656811	-0.051789	-0.590645
35887		8.394985	-3.708607	1.020166	0.231823	0.353726	0.926923	-0.494141	0.714844	0.071533	0.471945	-0.654528	-0.046352	-0.588823
35888		8.225427	-3.392375	0.909335	0.231607	0.342099	0.902056	-0.487793	0.718262	0.059570	0.477831	-0.652246	-0.041097	-0.586995
35889		8.155846	-3.208519	1.023172	0.109959	0.333776	0.890365	-0.480957	0.718262	0.061523	0.482960	-0.650442	-0.035347	-0.585171
35890		7.926035	-3.652947	0.966544	-0.006275	0.330683	0.877242	-0.466309	0.730713	0.059814	0.487358	-0.649075	-0.029118	-0.583383
35891		7.723143	-4.290127	1.010257	0.009083	0.319539	0.831205	-0.452637	0.745117	0.064941	0.491580	-0.647650	-0.023261	-0.581685
35892		7.566043	-4.468923	1.040022	0.077542	0.312427	0.762474	-0.442139	0.744873	0.053711	0.495807	-0.645933	-0.018140	-0.580187
35893		7.514245	-4.218067	1.093725	0.081642	0.287546	0.706835	-0.445801	0.748535	0.046387	0.499758	-0.644282	-0.013443	-0.578758
35894		7.333984	-4.345378	0.951608	0.017045	0.264300	0.680577	-0.423096	0.754395	0.049561	0.503210	-0.642984	-0.008677	-0.577300
35895		7.300896	-5.035671	0.847205	-0.006137	0.243381	0.653138	-0.411133	0.762451	0.051270	0.506383	-0.641860	-0.004037	-0.575826
35896		7.134598	-5.451289	1.008205	0.050114	0.256302	0.630662	-0.406006	0.768066	0.046631	0.509729	-0.640416	0.000264	-0.574495
35897		6.978683	-5.158981	1.109175	0.090053	0.225648	0.611365	-0.399658	0.760986	0.040039	0.513177	-0.638929	0.004138	-0.573064
35898		6.899591	-5.139654	1.088930	0.012367	0.199379	0.593596	-0.388916	0.777832	0.044678	0.516110	-0.637883	0.008174	-0.571549
35899		6.743359	-5.153210	0.922221	-0.029706	0.161416	0.550742	-0.377930	0.779541	0.037842	0.518603	-0.637187	0.012016	-0.570000
35900		6.667495	-5.218859	0.827643	-0.072359	0.137336	0.508107	-0.380127	0.775391	0.039062	0.520655	-0.636781	0.015728	-0.568490
35901		6.632973	-4.774988	1.006334	-0.112436	0.084818	0.426993	-0.366699	0.775879	0.038818	0.522106	-0.636799	0.018968	-0.567039
35902		6.687534	-4.849771	1.307971	-0.194266	0.062197	0.350572	-0.362305	0.777588	0.051514	0.522755	-0.637285	0.022087	-0.565780
35903		6.388826	-4.895770	1.237556	-0.158127	0.042304	0.259961	-0.359375	0.782715	0.043457	0.523165	-0.637719	0.024464	-0.564813
35904		6.487684	-4.847822	1.362068	-0.071151	-0.005181	0.149414	-0.362305	0.778076	0.049316	0.523523	-0.638018	0.025635	-0.564091
35905		6.575830	-4.561636	1.293475	-0.047357	-0.007000	0.026917	-0.351074	0.783691	0.042480	0.523430	-0.638248	0.026031	-0.563901
35906		6.544014	-3.927109	1.294511	-0.030102	-0.045151	-0.108479	-0.355225	0.773438	0.042969	0.522797	-0.638611	0.025456	-0.564103
35907		6.617857	-4.353226	1.531294	-0.048761	-0.038944	-0.192007	-0.367432	0.781494	0.050781	0.521667	-0.639043	0.024546	-0.564699
35908		6.422020	-4.213238	1.488604	0.047905	-0.031004	-0.312656	-0.364014	0.780762	0.051270	0.520479	-0.639039	0.022569	-0.565881
35909		6.355131	-3.695316	1.252887	0.164006	-0.081355	-0.444060	-0.373779	0.780273	0.038086	0.519290	-0.638787	0.019122	-0.567383
35910		6.455863	-3.287422	0.938964	0.195296	-0.117406	-0.573787	-0.386719	0.777344	0.046875	0.517647	-0.638578	0.014676	-0.569249
35911		6.408543	-2.736340	0.789482	0.155999	-0.140585	-0.686035	-0.385010	0.765137	0.042725	0.515246	-0.638643	0.009713	-0.571457
35912		6.533370	-2.721928	0.882222	0.047846	-0.160864	-0.757983	-0.396240	0.765137	0.042725	0.511904	-0.639252	0.004789	-0.573837
35913		6.693108	-3.350954	0.810793	0.001855	-0.177683	-0.834337	-0.411377	0.762207	0.041260	0.507926	-0.640111	-0.000399	-0.576427
35914		6.606151	-3.694554	0.201789	0.160572	-0.244853	-0.968237	-0.425293	0.758545	0.042236	0.504117	-0.640584	-0.007353	-0.579192
35915		6.744368	-3.264867	-0.129805	0.279640	-0.315541	-1.085846	-0.441162	0.750000	0.047607	0.500327	-0.640840	-0.015809	-0.582019
35916		6.947473	-2.607333	0.055196	0.171012	-0.357288	-1.151586	-0.452393	0.745605	0.045898	0.495579	-0.641683	-0.024267	-0.584855
35917		7.411702	-2.603510	0.327351	-0.052315	-0.362406	-1.186071	-0.467041	0.731201	0.053467	0.489411	-0.643402	-0.031845	-0.587790
35918		7.549739	-3.278405	0.279399	-0.092651	-0.398820	-1.235998	-0.482666	0.722168	0.047852	0.482714	-0.645379	-0.039643	-0.590679
35919		7.761025	-3.763252	0.307006	0.044632	-0.434661	-1.294936	-0.499268	0.712891	0.061035	0.476389	-0.646883	-0.048578	-0.593494
35920		8.030033	-3.708451	0.396691	0.189905	-0.452831	-1.338457	-0.513184	0.704834	0.057617	0.470558	-0.647797	-0.058535	-0.596245
35921		8.308227	-3.398660	0.558517	0.235671	-0.471255	-1.339677	-0.535889	0.694824	0.054199	0.464888	-0.648531	-0.068792	-0.598794
35922		8.597922	-2.985598	0.516021	0.185720	-0.502216	-1.349862	-0.548340	0.682373	0.060791	0.458810	-0.649515	-0.078969	-0.601156
35923		8.952741	-2.865137	0.615218	0.079877	-0.544523	-1.346850	-0.562744	0.672607	0.071289	0.452075	-0.651022	-0.088754	-0.603259
35924		9.200965	-3.302279	0.875350	-0.038912	-0.532102	-1.314941	-0.580566	0.654541	0.069092	0.444796	-0.652845	-0.097714	-0.605312
35925		9.374574	-3.730705	1.039518	-0.071662	-0.521054	-1.271259	-0.583252	0.650635	0.072510	0.437506	-0.654679	-0.106219	-0.607207
35926		9.574896	-3.411657	1.097150	-0.051341	-0.537196	-1.247204	-0.598389	0.633057	0.086426	0.430376	-0.656457	-0.114742	-0.608830
35927		9.832466	-3.065512	1.045570	-0.081961	-0.558562	-1.223169	-0.603027	0.628418	0.090576	0.423124	-0.658392	-0.123043	-0.610202
35928		10.160824	-3.288292	0.722420	-0.113581	-0.557137	-1.207591	-0.624756	0.618896	0.102539	0.415723	-0.660363	-0.131079	-0.611484
35929		10.311027	-3.480773	0.898438	-0.106870	-0.523241	-1.189422	-0.629395	0.607422	0.115723	0.408437	-0.662078	-0.138918	-0.612808
35930		10.604406	-3.253360	1.284462	-0.200303	-0.488778	-1.126652	-0.636719	0.600342	0.117676	0.400949	-0.663931	-0.145801	-0.614148
35931		10.705062	-3.493734	1.190685	-0.238083	-0.461757	-1.103604	-0.642578	0.586670	0.120117	0.393359	-0.665728	-0.152258	-0.615542
35932		10.480376	-3.663902	0.767718	-0.149536	-0.475765	-1.135809	-0.652100	0.585205	0.126465	0.386036	-0.667194	-0.159377	-0.616788
35933		10.743538	-3.432213	0.725220	-0.104696	-0.492869	-1.136117	-0.656006	0.584961	0.138916	0.378897	-0.668531	-0.166766	-0.617813
35934		11.382702	-3.652048	0.924687	-0.144906	-0.425858	-1.128066	-0.670898	0.563232	0.147461	0.371629	-0.669590	-0.173672	-0.619177
35935		10.915182	-3.748482	1.284483	-0.137183	-0.371333	-1.151961	-0.675537	0.555420	0.146973	0.364322	-0.670238	-0.180564	-0.620844
35936		10.504440	-3.085610	0.974152	-0.047268	-0.398316	-1.186808	-0.684326	0.558594	0.156982	0.357260	-0.670628	-0.188176	-0.622265
35937		10.580316	-2.287870	0.792963	-0.034811	-0.425645	-1.206552	-0.695557	0.541260	0.168945	0.350083	-0.671015	-0.196021	-0.623504
35938		11.042366	-2.150981	1.021472	-0.185964	-0.386224	-1.164732	-0.703857	0.539307	0.172852	0.342305	-0.671630	-0.202710	-0.625019
35939		11.039051	-2.854040	0.982845	-0.212829	-0.317041	-1.133976	-0.702637	0.545898	0.185059	0.334619	-0.671942	-0.208867	-0.626816
35940		10.880816	-2.776472	0.732598	-0.087905	-0.309633	-1.178270	-0.716553	0.539307	0.194580	0.327382	-0.671720	-0.215881	-0.628498
35941		10.786222	-1.981647	0.494282	-0.029083	-0.354760	-1.225830	-0.717773	0.536621	0.202148	0.320110	-0.671414	-0.223566	-0.629882
35942		11.037606	-1.541697	0.681349	-0.170878	-0.359201	-1.213681	-0.726074	0.537354	0.211182	0.312066	-0.671455	-0.230423	-0.631402
35943		10.692762	-1.584845	0.665259	-0.343093	-0.334996	-1.166146	-0.736572	0.526611	0.236572	0.303320	-0.671831	-0.236018	-0.633195
35944		10.553464	-1.990689	0.338882	-0.344410	-0.316625	-1.128679	-0.745361	0.535645	0.241211	0.294770	-0.672113	-0.241323	-0.634932
35945		10.455602	-1.509889	-0.137877	-0.172109	-0.286997	-1.161371	-0.760010	0.535889	0.256592	0.287043	-0.671679	-0.247622	-0.636503
35946		10.392451	-0.571204	-0.318668	-0.042922	-0.278820	-1.189509	-0.763672	0.535156	0.266602	0.279879	-0.670767	-0.254716	-0.637855
35947		10.533384	-0.055527	-0.131708	-0.097056	-0.252580	-1.159018	-0.775635	0.537598	0.294678	0.272602	-0.669837	-0.261265	-0.639333
35948		10.295426	0.101691	-0.184220	-0.185284	-0.241871	-1.099266	-0.788086	0.538818	0.320801	0.265148	-0.669118	-0.266962	-0.640866
35949		10.121892	0.449188	-0.394568	-0.262664	-0.253676	-1.047915	-0.795410	0.540771	0.353271	0.257488	-0.668686	-0.271961	-0.642337
35950		10.090042	0.916299	-0.620178	-0.370968	-0.275247	-1.007256	-0.808105	0.550537	0.377197	0.249370	-0.668637	-0.276177	-0.643791
35951		10.250281	0.929182	-0.664702	-0.508227	-0.266910	-0.935150	-0.820557	0.552979	0.424561	0.240870	-0.668936	-0.279215	-0.645403
35952		10.330651	0.465573	-0.699873	-0.573648	-0.239772	-0.872479	-0.833008	0.540283	0.478027	0.232386	-0.669312	-0.281475	-0.647140
35953		10.416909	0.164597	-0.716387	-0.537641	-0.210067	-0.841047	-0.836914	0.536377	0.531494	0.224324	-0.669480	-0.283674	-0.648848
35954		10.425417	0.333974	-0.768967	-0.462047	-0.198483	-0.845452	-0.844971	0.504639	0.586670	0.216674	-0.669387	-0.286263	-0.650405
35955		10.622654	0.527666	-0.676498	-0.397839	-0.174661	-0.843514	-0.852783	0.474365	0.646729	0.209435	-0.669011	-0.289127	-0.651895
35956		10.632516	0.189612	-0.483696	-0.357251	-0.143035	-0.825999	-0.852539	0.420654	0.687500	0.202583	-0.668394	-0.292040	-0.653393
35957		10.507235	0.120310	-0.570429	-0.248130	-0.121565	-0.820690	-0.854248	0.371338	0.727295	0.196410	-0.667452	-0.295462	-0.654701
35958		10.403909	0.583919	-0.788601	-0.144821	-0.123842	-0.823965	-0.857666	0.313721	0.740723	0.190781	-0.666312	-0.299452	-0.655713
35959		10.452479	0.837864	-0.819854	-0.140463	-0.125178	-0.807109	-0.851074	0.257080	0.750977	0.185258	-0.665183	-0.303358	-0.656647
35960		10.620427	0.765793	-0.834615	-0.164855	-0.115785	-0.785802	-0.845215	0.204590	0.746094	0.179732	-0.664063	-0.306983	-0.657630
35961		10.656864	0.666052	-0.853858	-0.165195	-0.102476	-0.780760	-0.837402	0.142578	0.725098	0.174260	-0.662855	-0.310542	-0.658650
35962		10.587635	0.777614	-0.823607	-0.155348	-0.101182	-0.790008	-0.843750	0.106445	0.704102	0.168790	-0.661573	-0.314187	-0.659635
35963		10.400109	0.728420	-0.894199	-0.142491	-0.114795	-0.795719	-0.844238	0.058105	0.678467	0.163317	-0.660303	-0.317937	-0.660488
35964		10.381972	0.808367	-0.840904	-0.135717	-0.118082	-0.799201	-0.843018	0.036133	0.637939	0.157850	-0.659003	-0.321731	-0.661278
35965		10.386881	0.955613	-0.795460	-0.167012	-0.124540	-0.798143	-0.824707	0.014160	0.612061	0.152194	-0.657753	-0.325337	-0.662083
35966		10.252302	0.890790	-0.848333	-0.166393	-0.130889	-0.794238	-0.828125	-0.002197	0.582520	0.146541	-0.656519	-0.328915	-0.662815
35967		10.215303	0.902427	-0.878516	-0.115875	-0.136307	-0.796767	-0.833008	-0.015625	0.554688	0.141132	-0.655216	-0.332774	-0.663351
35968		10.030360	1.167201	-0.880297	-0.071804	-0.149349	-0.794821	-0.828125	-0.029053	0.526123	0.135935	-0.653911	-0.336864	-0.663660
35969		9.933440	1.642803	-0.942540	-0.092351	-0.169695	-0.776154	-0.825928	-0.027344	0.514648	0.130669	-0.652767	-0.340743	-0.663864
35970		9.841080	1.733702	-0.951086	-0.157937	-0.186623	-0.733870	-0.834961	-0.030029	0.485596	0.125228	-0.651881	-0.344032	-0.664087
35971		9.910820	1.775724	-0.900302	-0.187724	-0.179703	-0.707813	-0.834717	-0.031494	0.463867	0.119787	-0.651037	-0.346991	-0.664379
35972		9.918244	1.577520	-0.843672	-0.176472	-0.154774	-0.679538	-0.835205	-0.043457	0.460205	0.114633	-0.650103	-0.349819	-0.664720
35973		9.818313	1.596747	-0.614345	-0.125102	-0.139482	-0.668999	-0.840088	-0.037354	0.449463	0.109860	-0.649045	-0.352845	-0.664960
35974		9.679247	1.819881	-0.534156	-0.091272	-0.123920	-0.638512	-0.829834	-0.044189	0.436768	0.105483	-0.647940	-0.355865	-0.665137
35975		9.652181	2.016603	-0.720942	-0.111866	-0.111231	-0.592547	-0.835449	-0.042236	0.438721	0.101288	-0.646902	-0.358499	-0.665385
35976		9.539422	2.094524	-0.767586	-0.153197	-0.096290	-0.548072	-0.840576	-0.053223	0.421387	0.097162	-0.645934	-0.360641	-0.665783
35977		9.497737	2.147503	-0.846860	-0.175543	-0.092701	-0.499272	-0.834473	-0.045654	0.426514	0.093197	-0.645098	-0.362383	-0.666214
35978		9.421397	2.417677	-0.793127	-0.196006	-0.083732	-0.453379	-0.840576	-0.038818	0.413574	0.089404	-0.644356	-0.363749	-0.666707
35979		9.415030	2.652308	-0.831507	-0.242624	-0.090125	-0.387738	-0.843262	-0.044678	0.410889	0.085708	-0.643875	-0.364501	-0.667247
35980		9.387773	2.667305	-0.822590	-0.291341	-0.097743	-0.345396	-0.852783	-0.045410	0.402100	0.081962	-0.643590	-0.364753	-0.667854
35981		9.342176	2.849919	-0.756081	-0.300073	-0.094183	-0.343857	-0.851318	-0.041260	0.400146	0.078190	-0.643288	-0.364939	-0.668496
35982		9.348289	2.994649	-0.757714	-0.336056	-0.078625	-0.346215	-0.847656	-0.048584	0.405518	0.074259	-0.642906	-0.364919	-0.669322
35983		9.273789	3.075347	-0.626015	-0.345796	-0.060933	-0.357384	-0.851318	-0.058594	0.406738	0.070268	-0.642387	-0.364887	-0.670268
35984		9.247029	3.443361	-0.644567	-0.359946	-0.074496	-0.370692	-0.848877	-0.063965	0.395508	0.066086	-0.641901	-0.364847	-0.671180
35985		9.217300	3.558376	-0.570647	-0.389659	-0.078553	-0.393517	-0.850830	-0.065918	0.403564	0.061604	-0.641372	-0.364757	-0.672161
35986		9.230662	3.608207	-0.394909	-0.381423	-0.073041	-0.424599	-0.863770	-0.066650	0.396973	0.057008	-0.640699	-0.364867	-0.673147
35987		9.246861	3.718844	-0.316047	-0.351611	-0.060978	-0.475696	-0.862793	-0.066650	0.398926	0.052322	-0.639774	-0.365403	-0.674116
35988		9.359632	3.765058	-0.247138	-0.330808	-0.050379	-0.528472	-0.852051	-0.077881	0.397217	0.047481	-0.638603	-0.366321	-0.675086
35989		9.210395	3.681343	-0.274203	-0.280350	-0.017666	-0.557342	-0.858398	-0.084961	0.391846	0.042846	-0.637123	-0.367654	-0.676069
35990		9.019817	3.614269	-0.294116	-0.206614	-0.000860	-0.565585	-0.864014	-0.082520	0.394287	0.038608	-0.635480	-0.369428	-0.676903
35991		9.019071	3.952197	-0.509524	-0.108660	0.012337	-0.575861	-0.863037	-0.093750	0.390381	0.034871	-0.633684	-0.371796	-0.677492
35992		8.914195	4.677717	-0.680945	-0.058864	0.012334	-0.580753	-0.864258	-0.098389	0.390381	0.031370	-0.631845	-0.374461	-0.677914
35993		8.892253	4.835692	-0.920706	-0.108535	0.004650	-0.551882	-0.860840	-0.103516	0.393066	0.027745	-0.630137	-0.376687	-0.678428
35994		8.932292	4.186916	-0.832123	-0.176380	0.010005	-0.499280	-0.871338	-0.113281	0.394287	0.024077	-0.628568	-0.378245	-0.679157
35995		8.896930	3.996589	-0.543772	-0.217119	0.032786	-0.417877	-0.876221	-0.114502	0.382080	0.020728	-0.627124	-0.379134	-0.680105
35996		8.791594	3.505599	-0.548649	-0.247620	0.051179	-0.314991	-0.869141	-0.119629	0.386230	0.017863	-0.625899	-0.379303	-0.681220
35997		8.774677	2.908302	-0.591953	-0.171682	0.063799	-0.247330	-0.875977	-0.120850	0.385742	0.015819	-0.624801	-0.379544	-0.682144
35998		8.750024	2.816708	-0.578927	-0.052508	0.070578	-0.196988	-0.878418	-0.127686	0.377930	0.014705	-0.623806	-0.380195	-0.682717
35999		8.688552	2.878136	-0.603307	-0.035564	0.076934	-0.122447	-0.872070	-0.121582	0.377197	0.014127	-0.623009	-0.380550	-0.683259
36000		8.657818	2.899517	-0.612609	-0.058813	0.078243	-0.071615	-0.875732	-0.124023	0.373535	0.013724	-0.622369	-0.380505	-0.683874
36001		8.632365	2.621878	-0.628527	-0.063021	0.079537	-0.040739	-0.887451	-0.124268	0.374512	0.013482	-0.621822	-0.380274	-0.684505
36002		8.702413	2.266423	-0.600371	-0.034860	0.072624	-0.030262	-0.882324	-0.130127	0.376709	0.013427	-0.621346	-0.380147	-0.685009
36003		8.696328	2.194176	-0.626466	0.054286	0.063746	-0.042752	-0.875000	-0.137695	0.386475	0.013738	-0.620872	-0.380591	-0.685186
36004		8.618747	2.585855	-0.811911	0.144393	0.047180	-0.055625	-0.874756	-0.122314	0.377686	0.014392	-0.620443	-0.381614	-0.684992
36005		8.533104	3.322504	-1.025201	0.171585	0.022710	-0.035961	-0.875000	-0.132080	0.375488	0.015224	-0.620214	-0.382690	-0.684581
36006		8.511996	3.364146	-1.079852	0.123794	-0.003032	0.010049	-0.873291	-0.135010	0.367676	0.015992	-0.620286	-0.383257	-0.684181
36007		8.523758	3.517847	-1.165077	0.127648	-0.010266	0.060265	-0.870605	-0.128662	0.372314	0.017044	-0.620559	-0.383585	-0.683724
36008		8.537338	3.709910	-1.236210	0.153331	-0.011521	0.136542	-0.872803	-0.130859	0.373779	0.018661	-0.621079	-0.383664	-0.683165
36009		8.546116	3.747953	-1.180744	0.182562	-0.015578	0.214145	-0.873779	-0.126221	0.379395	0.020859	-0.621865	-0.383506	-0.682475
36010		8.536682	3.746356	-1.071586	0.207323	-0.018194	0.291581	-0.875244	-0.121094	0.377930	0.023618	-0.622905	-0.383084	-0.681673
36011		8.587993	3.499968	-0.921526	0.216117	-0.035212	0.359778	-0.874268	-0.125732	0.381348	0.026757	-0.624252	-0.382356	-0.680733
36012		8.633268	3.340146	-0.819798	0.237706	-0.039540	0.418335	-0.871094	-0.120117	0.380127	0.030328	-0.625797	-0.381441	-0.679678
36013		8.807030	3.005961	-0.712951	0.284113	-0.044459	0.439506	-0.867920	-0.106934	0.383545	0.034246	-0.627414	-0.380670	-0.678432
36014		8.931556	2.970503	-0.610728	0.345838	-0.035231	0.443089	-0.853027	-0.105225	0.388916	0.038538	-0.628959	-0.380218	-0.677023
36015		9.081467	3.146249	-0.566563	0.374288	-0.023897	0.440786	-0.862793	-0.105957	0.395508	0.043003	-0.630410	-0.379923	-0.675568
36016		9.083869	3.523504	-0.549329	0.365230	-0.014896	0.438081	-0.858887	-0.103027	0.402588	0.047435	-0.631790	-0.379578	-0.674175
36017		9.083861	3.946501	-0.572895	0.275605	-0.015944	0.469047	-0.851318	-0.098145	0.395508	0.051565	-0.633295	-0.378557	-0.673033
36018		9.169547	3.579204	-0.557900	0.164257	-0.011888	0.494717	-0.852051	-0.087891	0.408447	0.055265	-0.634892	-0.376765	-0.672239
36019		9.349622	3.293857	-0.565824	0.166388	-0.000745	0.499820	-0.852295	-0.095215	0.408936	0.059039	-0.636429	-0.374946	-0.671483
36020		9.331698	3.491684	-0.431768	0.197545	0.025666	0.507060	-0.843750	-0.092285	0.417236	0.063101	-0.637811	-0.373240	-0.670751
36021		9.411048	3.572320	-0.337695	0.202070	0.043167	0.532675	-0.837891	-0.093262	0.426514	0.067385	-0.639158	-0.371404	-0.670071
36022		9.403470	3.648798	-0.416027	0.222921	0.070013	0.559173	-0.833252	-0.089111	0.426025	0.072010	-0.640408	-0.369519	-0.669439
36023		9.515907	3.639754	-0.382972	0.207226	0.082815	0.586209	-0.836670	-0.084473	0.427490	0.076739	-0.641660	-0.367383	-0.668889
36024		9.571273	3.506516	-0.441940	0.195753	0.103530	0.603110	-0.840576	-0.076416	0.432861	0.081563	-0.642836	-0.365068	-0.668456
36025		9.673999	3.011902	-0.413795	0.217169	0.131236	0.592131	-0.846680	-0.081299	0.448975	0.086523	-0.643790	-0.362902	-0.668095
36026		9.698818	2.777025	-0.432611	0.301271	0.146244	0.544003	-0.831543	-0.078369	0.458984	0.091710	-0.644434	-0.361438	-0.667575
36027		9.571915	3.262508	-0.541807	0.370906	0.146053	0.490461	-0.827881	-0.075195	0.467041	0.096971	-0.644845	-0.360639	-0.666867
36028		9.508885	3.784969	-0.597794	0.295845	0.141882	0.488721	-0.820312	-0.075684	0.480957	0.101804	-0.645316	-0.359424	-0.666347
36029		9.598681	3.320762	-0.700948	0.192619	0.153136	0.512821	-0.830566	-0.085693	0.498291	0.106246	-0.645867	-0.357489	-0.666160
36030		9.498984	2.886387	-0.770167	0.197875	0.165517	0.521126	-0.831543	-0.078369	0.511719	0.110797	-0.646353	-0.355520	-0.666001
36031		9.520030	2.821395	-0.801907	0.247259	0.172945	0.529751	-0.831787	-0.071777	0.529785	0.115680	-0.646761	-0.353761	-0.665711
36032		9.636585	2.792854	-0.791858	0.259379	0.188781	0.534422	-0.827148	-0.071045	0.550537	0.120699	-0.647065	-0.352019	-0.665448
36033		9.705980	2.752911	-0.859529	0.269409	0.188747	0.527061	-0.825928	-0.061768	0.572266	0.125727	-0.647318	-0.350363	-0.665145
36034		9.701695	2.611611	-0.935910	0.279413	0.190174	0.521294	-0.830322	-0.055664	0.597656	0.130777	-0.647518	-0.348782	-0.664807
36035		9.674294	2.425080	-0.798538	0.285211	0.185832	0.528473	-0.832764	-0.046387	0.613525	0.135883	-0.647738	-0.347189	-0.664403
36036		9.690984	2.317027	-0.893032	0.321914	0.190082	0.540137	-0.830811	-0.035889	0.649414	0.141259	-0.647907	-0.345720	-0.663882
36037		9.616631	2.485654	-1.061733	0.356932	0.169572	0.521169	-0.847656	-0.010742	0.688232	0.146656	-0.648073	-0.344561	-0.663152
36038		9.719427	2.656819	-1.144001	0.344239	0.156679	0.506664	-0.847656	0.020020	0.700928	0.151863	-0.648265	-0.343417	-0.662386
36039		9.753366	2.779203	-1.092617	0.288166	0.161821	0.499013	-0.849609	0.041504	0.734619	0.156734	-0.648459	-0.341988	-0.661800
36040		9.668203	2.552535	-1.012646	0.238148	0.163371	0.505127	-0.860352	0.072021	0.747803	0.161368	-0.648711	-0.340242	-0.661339
36041		9.668745	2.341124	-0.956920	0.229676	0.160251	0.502373	-0.863281	0.108154	0.768311	0.165927	-0.648968	-0.338460	-0.660874
36042		9.665618	2.570909	-0.979674	0.240825	0.155530	0.480952	-0.871094	0.151123	0.774170	0.170411	-0.649159	-0.336854	-0.660365
36043		9.645239	2.949946	-1.097595	0.192935	0.128457	0.463872	-0.870361	0.188965	0.784668	0.174461	-0.649505	-0.335110	-0.659854
36044		9.683105	2.982293	-1.170986	0.098303	0.100435	0.472286	-0.875000	0.221191	0.789307	0.177961	-0.650154	-0.332836	-0.659431
36045		9.663295	2.733640	-0.995546	0.023268	0.090506	0.478245	-0.874512	0.264648	0.792725	0.181055	-0.650973	-0.330129	-0.659142
36046		9.564139	2.807701	-0.912704	0.001546	0.080361	0.465230	-0.878174	0.310303	0.782227	0.183927	-0.651834	-0.327385	-0.658865
36047		9.532793	2.983763	-0.874104	-0.013992	0.069306	0.447063	-0.872559	0.338623	0.770996	0.186579	-0.652718	-0.324667	-0.658588
36048		9.567347	2.932470	-0.882693	-0.022218	0.055536	0.431727	-0.884766	0.376221	0.750977	0.189060	-0.653640	-0.322007	-0.658273
36049		9.556144	2.771627	-0.760037	-0.003391	0.057733	0.416861	-0.877930	0.402588	0.749268	0.191563	-0.654470	-0.319526	-0.657933
36050		9.507534	2.639565	-0.679365	0.032123	0.064173	0.406593	-0.877197	0.425781	0.726318	0.194217	-0.655171	-0.317283	-0.657543
36051		9.429662	2.756766	-0.674909	0.071411	0.071395	0.386209	-0.875000	0.453857	0.701416	0.196987	-0.655707	-0.315353	-0.657113
36052		9.393858	2.945024	-0.759058	0.079215	0.073390	0.375141	-0.871582	0.470947	0.683838	0.199741	-0.656181	-0.313522	-0.656684
36053		9.413723	3.018054	-0.783448	0.051361	0.074733	0.364559	-0.879639	0.481445	0.664062	0.202283	-0.656658	-0.311594	-0.656346
36054		9.400332	2.935132	-0.773891	0.008101	0.078096	0.357310	-0.869873	0.498291	0.648438	0.204552	-0.657164	-0.309463	-0.656145
36055		9.449628	2.720290	-0.686750	-0.020477	0.078615	0.349413	-0.872803	0.509033	0.637939	0.206618	-0.657688	-0.307217	-0.656028
36056		9.482074	2.561652	-0.669845	-0.014831	0.077529	0.329653	-0.868408	0.510498	0.630859	0.208600	-0.658150	-0.305113	-0.655919
36057		9.562041	2.409951	-0.661205	0.012849	0.072743	0.296098	-0.863281	0.516113	0.615479	0.210534	-0.658500	-0.303352	-0.655767
36058		9.568795	2.317367	-0.586455	0.034989	0.065683	0.269729	-0.857422	0.534424	0.609131	0.212424	-0.658777	-0.301870	-0.655563
36059		9.621405	2.255404	-0.589784	0.055323	0.060218	0.238973	-0.858398	0.527344	0.607178	0.214241	-0.658967	-0.300678	-0.655329
36060		9.639915	2.169341	-0.531013	0.049302	0.060800	0.209707	-0.853271	0.542969	0.600098	0.215864	-0.659087	-0.299613	-0.655163
36061		9.676591	2.006366	-0.418676	0.034447	0.065372	0.193616	-0.855469	0.538818	0.602783	0.217326	-0.659166	-0.298549	-0.655086
36062		9.664449	1.865304	-0.455850	0.028372	0.062253	0.165221	-0.858887	0.545166	0.598633	0.218590	-0.659200	-0.297613	-0.655057
36063		9.719845	1.684793	-0.438363	0.022224	0.062906	0.140713	-0.854492	0.556152	0.606201	0.219686	-0.659179	-0.296778	-0.655091
36064		9.750526	1.451230	-0.419739	-0.003806	0.063163	0.131240	-0.856689	0.555420	0.603027	0.220586	-0.659178	-0.295854	-0.655207
36065		9.765955	1.205974	-0.445241	0.004279	0.063382	0.115469	-0.860107	0.564453	0.613770	0.221444	-0.659121	-0.295060	-0.655333
36066		9.801355	0.847105	-0.470185	0.023435	0.067313	0.086487	-0.857178	0.559570	0.611084	0.222257	-0.658936	-0.294524	-0.655485
36067		9.814218	0.637061	-0.358878	0.065109	0.071699	0.066278	-0.853760	0.562500	0.607910	0.223200	-0.658599	-0.294317	-0.655597
36068		9.859787	0.631301	-0.266967	0.092674	0.070437	0.056884	-0.857178	0.569092	0.606934	0.224239	-0.658193	-0.294314	-0.655650
36069		9.816375	0.690916	-0.385494	0.108858	0.057219	0.040469	-0.856445	0.579102	0.615723	0.225245	-0.657789	-0.294514	-0.655621
36070		9.780750	0.764838	-0.310610	0.061277	0.041601	0.052588	-0.853271	0.571045	0.618164	0.226018	-0.657589	-0.294416	-0.655600
36071		9.748613	0.633042	-0.457905	0.018546	0.048286	0.055896	-0.856934	0.578857	0.616211	0.226591	-0.657440	-0.294054	-0.655714
36072		9.703196	0.802881	-0.574238	-0.013763	0.033586	0.036388	-0.858154	0.573486	0.627441	0.226845	-0.657385	-0.293650	-0.655863
36073		9.773039	0.427939	-0.440676	-0.044728	0.040370	0.037437	-0.857666	0.575439	0.624756	0.226951	-0.657354	-0.293058	-0.656122
36074		9.967226	0.048578	-0.193822	-0.067526	0.054726	0.054409	-0.862549	0.586426	0.631836	0.227060	-0.657329	-0.292221	-0.656483
36075		9.893164	-0.276371	-0.025368	-0.004381	0.064025	0.063937	-0.857178	0.583008	0.619629	0.227590	-0.657156	-0.291658	-0.656722
36076		9.967879	-0.552902	-0.013025	0.072546	0.071088	0.073367	-0.861084	0.592773	0.628662	0.228612	-0.656822	-0.291449	-0.656795
36077		9.872321	-0.573218	-0.011712	0.196710	0.068536	0.062518	-0.857666	0.594971	0.614502	0.230249	-0.656237	-0.291981	-0.656571
36078		9.848441	-0.222682	-0.123921	0.255850	0.070691	0.072897	-0.859131	0.598389	0.605957	0.232273	-0.655550	-0.292772	-0.656192
36079		9.936266	-0.420508	-0.046171	0.218956	0.077998	0.121273	-0.855469	0.598389	0.602051	0.234377	-0.655010	-0.293080	-0.655846
36080		10.007309	-0.849618	-0.056884	0.216939	0.098677	0.161652	-0.860107	0.610107	0.585205	0.236742	-0.654455	-0.293114	-0.655535
36081		10.002237	-1.111016	-0.013115	0.283413	0.108427	0.190317	-0.857422	0.618408	0.566406	0.239650	-0.653782	-0.293330	-0.655053
36082		10.000295	-1.095366	0.032580	0.338335	0.111330	0.226159	-0.856445	0.635742	0.551758	0.243060	-0.653065	-0.293639	-0.654373
36083		9.979263	-0.859196	0.075671	0.330376	0.104973	0.273967	-0.846924	0.626465	0.520508	0.246671	-0.652507	-0.293651	-0.653573
36084		9.954918	-0.680633	0.075231	0.231361	0.124615	0.366882	-0.843750	0.633545	0.510010	0.250296	-0.652264	-0.292571	-0.652921
36085		9.970799	-0.814679	0.060951	0.119777	0.128095	0.453295	-0.844238	0.642334	0.481445	0.253791	-0.652435	-0.290401	-0.652370
36086		10.047434	-1.230596	0.122884	0.047837	0.135481	0.524903	-0.831055	0.640137	0.458496	0.257298	-0.652879	-0.287428	-0.651868
36087		10.110600	-1.482766	0.255556	0.026737	0.148036	0.579091	-0.825684	0.650146	0.431641	0.261011	-0.653415	-0.284009	-0.651354
36088		10.169823	-1.763860	0.333963	0.045458	0.164497	0.628244	-0.812744	0.647949	0.403809	0.265126	-0.653919	-0.280377	-0.650758
36089		10.262348	-2.118484	0.420512	0.091740	0.173610	0.671183	-0.811279	0.651367	0.383057	0.269742	-0.654351	-0.276731	-0.649988
36090		10.322055	-2.313304	0.421552	0.167682	0.183146	0.692335	-0.813721	0.647949	0.350586	0.274901	-0.654585	-0.273345	-0.649023
36091		10.293175	-2.043768	0.445546	0.236711	0.191916	0.711211	-0.792236	0.643555	0.317627	0.280550	-0.654630	-0.270195	-0.647878
36092		10.360158	-1.828659	0.463350	0.218056	0.199254	0.743160	-0.786621	0.635986	0.301270	0.286277	-0.654722	-0.266738	-0.646711
36093		10.323341	-1.981699	0.500968	0.161967	0.211019	0.787849	-0.779297	0.624756	0.278564	0.291952	-0.654953	-0.262692	-0.645596
36094		10.363366	-2.284044	0.463279	0.134696	0.210509	0.820875	-0.756592	0.621826	0.260010	0.297642	-0.655291	-0.258304	-0.644424
36095		10.372629	-2.419142	0.504313	0.134457	0.216557	0.833683	-0.753906	0.605469	0.237793	0.303399	-0.655589	-0.253814	-0.643219
36096		10.411563	-2.319954	0.537379	0.126991	0.213939	0.840041	-0.756104	0.595703	0.216309	0.309129	-0.655899	-0.249239	-0.641963
36097		10.425130	-2.351475	0.546660	0.103299	0.218326	0.863214	-0.739990	0.585693	0.201416	0.314846	-0.656256	-0.244384	-0.640684
36098		10.427909	-2.547942	0.663289	0.062717	0.231162	0.884577	-0.738525	0.587646	0.189209	0.320464	-0.656656	-0.239145	-0.639464
36099		10.430088	-2.762494	0.619084	0.050082	0.229202	0.897933	-0.728271	0.577637	0.172852	0.326063	-0.657087	-0.233755	-0.638184
36100		10.524390	-2.890914	0.589594	0.038584	0.231187	0.905793	-0.719482	0.577393	0.165527	0.331625	-0.657513	-0.228238	-0.636875
36101		10.623979	-3.053191	0.638982	0.010954	0.229971	0.913651	-0.719482	0.568359	0.157471	0.337055	-0.657994	-0.222519	-0.635549
36102		10.667538	-3.137617	0.641945	0.015579	0.232113	0.931459	-0.705322	0.564209	0.146240	0.342589	-0.658442	-0.216705	-0.634135
36103		10.569217	-2.921565	0.685573	0.087521	0.245891	0.947674	-0.699707	0.557373	0.149414	0.348605	-0.658595	-0.211127	-0.632576
36104		10.515668	-2.453510	0.643217	0.139739	0.253669	0.972335	-0.692627	0.558350	0.135986	0.355027	-0.658552	-0.205649	-0.630851
36105		10.519804	-2.302796	0.744012	0.110484	0.266313	1.028099	-0.691162	0.565186	0.134766	0.361576	-0.658573	-0.199659	-0.629031
36106		10.533530	-2.488865	0.744468	0.067492	0.289990	1.087676	-0.688477	0.558594	0.113770	0.368209	-0.658641	-0.193028	-0.627180
36107		10.492444	-2.587080	0.723088	0.064037	0.316717	1.122731	-0.682129	0.568115	0.117676	0.375013	-0.658573	-0.186088	-0.625314
36108		10.365222	-2.478421	0.855252	0.046215	0.329235	1.157181	-0.673828	0.571533	0.109619	0.381880	-0.658483	-0.178808	-0.623375
36109		10.270065	-2.369826	0.925651	0.008098	0.343042	1.190055	-0.657959	0.569092	0.113281	0.388688	-0.658420	-0.171088	-0.621397
36110		10.224182	-2.550511	0.936494	-0.043335	0.350560	1.221929	-0.660889	0.589844	0.113037	0.395344	-0.658455	-0.162885	-0.619361
36111		10.123366	-2.726264	1.006739	-0.086396	0.347798	1.232091	-0.639893	0.597900	0.095459	0.401765	-0.658583	-0.154397	-0.617264
36112		10.105428	-3.104773	1.043841	-0.122410	0.343337	1.231922	-0.628174	0.602783	0.103516	0.407933	-0.658776	-0.145722	-0.615118
36113		10.009739	-3.364308	1.114685	-0.130885	0.343088	1.197147	-0.622803	0.603027	0.105469	0.413828	-0.658881	-0.137181	-0.613028
36114		9.933276	-3.373338	1.111734	-0.126121	0.324037	1.152232	-0.613770	0.611084	0.096436	0.419453	-0.658944	-0.128963	-0.610918
36115		9.878218	-3.234944	1.004661	-0.144553	0.303393	1.112141	-0.607910	0.628418	0.094971	0.424707	-0.659068	-0.120932	-0.608793
36116		9.828270	-3.404663	1.071019	-0.191823	0.310254	1.080887	-0.586914	0.631836	0.093750	0.429508	-0.659229	-0.112800	-0.606808
36117		9.769934	-3.839592	1.235127	-0.184907	0.320476	1.033430	-0.593018	0.629395	0.086914	0.434076	-0.659211	-0.104919	-0.604989
36118		9.571408	-4.255232	1.353899	-0.107737	0.326295	0.963610	-0.577393	0.649414	0.090576	0.438686	-0.658769	-0.097783	-0.603338
36119		9.602810	-4.382778	1.248405	-0.023474	0.315075	0.881917	-0.575928	0.651367	0.086182	0.443306	-0.657963	-0.091555	-0.601815
36120		9.579759	-4.138853	1.264079	-0.051860	0.300422	0.833640	-0.562500	0.665771	0.085693	0.447491	-0.657260	-0.085500	-0.600376
36121		9.384555	-4.244391	1.260495	-0.102349	0.309213	0.836015	-0.547852	0.674316	0.080078	0.451390	-0.656664	-0.079143	-0.598979
36122		8.982855	-4.440954	1.300007	-0.108266	0.309939	0.856040	-0.554199	0.679443	0.075928	0.455328	-0.656062	-0.072643	-0.597479
36123		8.757342	-4.289536	1.291210	-0.045553	0.313100	0.913618	-0.545898	0.680908	0.076416	0.459869	-0.655199	-0.066124	-0.595704
36124		8.699406	-3.898078	1.185922	-0.046472	0.324478	1.001025	-0.515625	0.694580	0.074707	0.464809	-0.654283	-0.059078	-0.593612
36125		8.721319	-3.921398	1.343237	-0.154045	0.343108	1.086277	-0.513184	0.704346	0.069092	0.469552	-0.653677	-0.050959	-0.591295
36126		8.912541	-4.530744	1.668588	-0.278814	0.385577	1.180577	-0.503906	0.713867	0.079346	0.474047	-0.653322	-0.041545	-0.588833
36127		8.900003	-5.650825	1.739623	-0.334776	0.408936	1.237572	-0.490234	0.727295	0.073242	0.478466	-0.653013	-0.031450	-0.586221
36128		8.354784	-6.062737	1.481674	-0.195481	0.394023	1.212537	-0.474854	0.734131	0.073730	0.483458	-0.652134	-0.022229	-0.583520
36129		8.305163	-5.596717	1.293779	-0.117788	0.372674	1.183338	-0.455811	0.736572	0.079346	0.488670	-0.650966	-0.013629	-0.580740
36130		8.081750	-5.324627	1.272322	-0.243415	0.374267	1.188336	-0.433594	0.747070	0.072266	0.493169	-0.650231	-0.004388	-0.577897
36131		7.801903	-5.163557	1.093387	-0.377957	0.354725	1.204668	-0.425049	0.751709	0.076416	0.496958	-0.650066	0.005508	-0.574818
36132		7.621532	-5.504517	1.269040	-0.481965	0.350777	1.204199	-0.396973	0.760986	0.079590	0.500118	-0.650271	0.015880	-0.571644
36133		7.540864	-5.685810	1.559429	-0.445051	0.361097	1.148986	-0.390869	0.767334	0.079590	0.503151	-0.650202	0.025816	-0.568691
36134		7.432593	-5.716414	1.776403	-0.336137	0.359785	1.074782	-0.371826	0.772461	0.084473	0.506368	-0.649628	0.034823	-0.566005
36135		7.075130	-5.619203	1.643231	-0.212724	0.335305	0.977671	-0.363281	0.778320	0.083496	0.509756	-0.648619	0.042614	-0.563583
36136		6.870268	-5.320332	1.235222	-0.173719	0.316425	0.900800	-0.340576	0.783203	0.082520	0.512963	-0.647513	0.049721	-0.561359
36137		6.836021	-5.144493	1.130956	-0.264068	0.308208	0.858197	-0.335205	0.798584	0.088867	0.515451	-0.646807	0.056980	-0.559200
36138		6.597856	-5.212248	1.150203	-0.324919	0.292498	0.811915	-0.320312	0.795410	0.096680	0.517370	-0.646418	0.064199	-0.557091
36139		6.402709	-5.384406	1.101068	-0.266205	0.275893	0.737920	-0.311279	0.802246	0.099365	0.519240	-0.645858	0.070670	-0.555215
36140		6.229993	-4.906453	0.822583	-0.149121	0.242001	0.611862	-0.300537	0.804688	0.097412	0.521154	-0.644997	0.075768	-0.553748
36141		5.968575	-4.559320	0.893755	-0.168057	0.203866	0.583737	-0.295654	0.805664	0.094238	0.522844	-0.644392	0.080632	-0.552170
36142		5.901788	-4.328423	0.556131	-0.212363	0.201276	0.507163	-0.286133	0.801758	0.100830	0.523928	-0.644028	0.085272	-0.550868
36143		5.505171	-4.572514	0.586149	-0.238001	0.157795	0.473325	-0.279541	0.806152	0.101074	0.524737	-0.643986	0.089654	-0.549451
36144		5.574776	-4.848780	0.643993	-0.169941	0.150589	0.388522	-0.275635	0.806152	0.102783	0.525517	-0.643731	0.093233	-0.548407
36145		5.379777	-4.577634	0.576307	-0.100944	0.110196	0.284250	-0.270020	0.808105	0.101074	0.526214	-0.643435	0.095757	-0.547651
36146		5.206630	-4.196071	0.320417	-0.048761	0.070262	0.196280	-0.259521	0.808838	0.098145	0.526817	-0.643159	0.097393	-0.547106
36147		5.223699	-3.974428	0.408649	-0.086535	0.046488	0.113066	-0.264404	0.815674	0.102295	0.526854	-0.643225	0.098648	-0.546768
36148		5.215608	-4.096853	0.581676	-0.178340	0.033056	0.035089	-0.262695	0.803467	0.104004	0.526052	-0.643820	0.099842	-0.546624
36149		5.077821	-4.938650	0.395174	-0.101584	0.007699	-0.079452	-0.257080	0.812012	0.104004	0.525158	-0.644288	0.099958	-0.546910
36150		5.048651	-4.351763	0.365532	0.049374	-0.031223	-0.214266	-0.261963	0.805420	0.107666	0.524490	-0.644386	0.098490	-0.547701
36151		5.175934	-4.036422	0.281020	-0.003953	-0.054239	-0.280748	-0.263916	0.803711	0.112061	0.523247	-0.644875	0.096805	-0.548614
36152		5.253750	-4.483767	0.108951	-0.082895	-0.094471	-0.332410	-0.280518	0.798828	0.110596	0.521371	-0.645930	0.095024	-0.549470
36153		5.446241	-4.893614	-0.160531	-0.047021	-0.133893	-0.423921	-0.281982	0.803711	0.107178	0.519293	-0.647077	0.092413	-0.550533
36154		5.831896	-4.917049	-0.206419	-0.043964	-0.189872	-0.547576	-0.291504	0.799805	0.112793	0.516695	-0.648553	0.088875	-0.551821
36155		5.927533	-5.165083	-0.248759	-0.129837	-0.240106	-0.648770	-0.300781	0.792725	0.112793	0.513189	-0.650688	0.084963	-0.553194
36156		5.884110	-5.342882	-0.375159	-0.164671	-0.296946	-0.741809	-0.312012	0.803955	0.117920	0.509082	-0.653277	0.080460	-0.554609
36157		5.987053	-5.230022	-0.301196	-0.153476	-0.340486	-0.826400	-0.318359	0.786377	0.124512	0.504646	-0.656044	0.075254	-0.556125
36158		6.316920	-5.236396	-0.067783	-0.149515	-0.372467	-0.894227	-0.330322	0.784424	0.133057	0.499905	-0.658947	0.069518	-0.557719
36159		6.485569	-5.068329	0.002966	-0.095870	-0.385355	-0.951470	-0.344238	0.782227	0.130615	0.495163	-0.661676	0.063159	-0.559473
36160		6.870599	-5.022764	-0.193925	-0.041067	-0.428531	-1.002872	-0.359131	0.778320	0.133057	0.490466	-0.664356	0.056075	-0.561185
36161		7.266612	-5.301023	0.070633	-0.118371	-0.455004	-1.062597	-0.374023	0.765625	0.140625	0.485029	-0.667448	0.048907	-0.562910
36162		7.545034	-5.881301	0.533623	-0.214368	-0.433247	-1.103281	-0.388916	0.756348	0.146240	0.478810	-0.670778	0.042043	-0.564827
36163		7.594789	-6.341639	0.763408	-0.109709	-0.424089	-1.192441	-0.404053	0.755859	0.151855	0.472701	-0.673609	0.034220	-0.567128
36164		7.733052	-5.987540	1.036174	0.128845	-0.453130	-1.298673	-0.424072	0.742432	0.155762	0.467380	-0.675585	0.024553	-0.569683
36165		7.985421	-4.999871	1.005910	0.201173	-0.461630	-1.354635	-0.435303	0.734375	0.150391	0.462137	-0.677237	0.014190	-0.572344
36166		8.317838	-4.724351	0.895301	0.080767	-0.457963	-1.352641	-0.449219	0.719727	0.153809	0.456156	-0.679238	0.004423	-0.574924
36167		8.626450	-5.150472	1.067521	-0.061767	-0.430800	-1.324784	-0.468262	0.715820	0.154785	0.449437	-0.681556	-0.004403	-0.577467
36168		8.739230	-5.434484	1.173238	-0.073612	-0.405918	-1.343743	-0.489502	0.703613	0.166992	0.442499	-0.683704	-0.013188	-0.580146
36169		8.782411	-5.239196	0.930393	0.063467	-0.427864	-1.419861	-0.497314	0.697998	0.161377	0.435907	-0.685344	-0.023150	-0.582883
36170		8.933350	-5.095634	0.857893	0.126894	-0.435395	-1.474541	-0.516113	0.687012	0.171631	0.429341	-0.686670	-0.033757	-0.585671
36171		9.345853	-4.913974	1.084254	0.080104	-0.394963	-1.483531	-0.534912	0.673584	0.182373	0.422404	-0.687851	-0.044037	-0.588640
36172		9.358980	-4.799246	1.318006	-0.009689	-0.336239	-1.467579	-0.548096	0.660400	0.173828	0.414984	-0.688954	-0.053573	-0.591829
36173		9.199388	-4.391272	1.054979	0.046649	-0.351788	-1.470860	-0.560059	0.639648	0.182129	0.407799	-0.689827	-0.063452	-0.594822
36174		9.442986	-4.048606	0.648088	0.068664	-0.382290	-1.497832	-0.580566	0.634033	0.177246	0.400524	-0.690648	-0.073689	-0.597625
36175		9.778293	-3.536458	0.636234	-0.034433	-0.393691	-1.507345	-0.599121	0.627441	0.191895	0.392534	-0.691749	-0.083494	-0.600358
36176		10.229028	-4.140133	0.588068	-0.169341	-0.305736	-1.456025	-0.602539	0.609375	0.196045	0.384020	-0.692773	-0.092028	-0.603427
36177		10.100654	-4.737024	0.972752	-0.145343	-0.254043	-1.484153	-0.614502	0.598389	0.198486	0.375482	-0.693330	-0.100667	-0.606773
36178		9.862919	-4.464704	0.912045	0.099899	-0.254848	-1.570396	-0.628174	0.586670	0.197510	0.367863	-0.692933	-0.111028	-0.610076
36179		9.835753	-3.079573	0.789780	0.225645	-0.283171	-1.637362	-0.644531	0.576904	0.201172	0.360536	-0.692104	-0.122481	-0.613193
36180		10.017981	-2.199354	0.567680	0.057366	-0.305335	-1.617455	-0.654297	0.565674	0.193848	0.352248	-0.691779	-0.133003	-0.616176
36181		10.485757	-1.941171	0.479237	-0.175124	-0.280070	-1.522638	-0.659180	0.547607	0.212158	0.343071	-0.691988	-0.141688	-0.619176
36182		10.810180	-3.280545	0.198515	-0.304646	-0.202562	-1.456573	-0.671875	0.530273	0.217041	0.333523	-0.692131	-0.149080	-0.622488
36183		10.533882	-3.022277	0.281281	-0.123066	-0.182488	-1.520740	-0.689209	0.520508	0.224609	0.324662	-0.691475	-0.157705	-0.625769
36184		10.671858	-2.134001	0.099069	-0.034246	-0.213424	-1.538466	-0.694336	0.517578	0.222168	0.316126	-0.690601	-0.166951	-0.628699
36185		10.809794	-2.323595	0.412638	-0.150636	-0.195555	-1.476014	-0.704590	0.504883	0.239014	0.307221	-0.689914	-0.175155	-0.631628
36186		10.540162	-2.180124	0.140052	-0.156128	-0.190863	-1.455732	-0.710693	0.491943	0.231934	0.298352	-0.689140	-0.183173	-0.634445
36187		10.714622	-1.805396	-0.391605	-0.172536	-0.215388	-1.436973	-0.720947	0.486084	0.240479	0.289406	-0.688461	-0.191030	-0.637003
36188		11.181889	-1.931784	-0.321222	-0.208616	-0.194719	-1.419724	-0.729980	0.479492	0.251221	0.280335	-0.687685	-0.198518	-0.639603
36189		10.993098	-1.888545	-0.054743	-0.207810	-0.149674	-1.405004	-0.740479	0.473389	0.262207	0.271382	-0.686593	-0.205792	-0.642333
36190		10.733711	-1.790497	0.016104	-0.156770	-0.153203	-1.391388	-0.755127	0.466797	0.262939	0.262751	-0.685332	-0.213238	-0.644834
36191		10.483267	-1.201357	-0.218639	-0.035232	-0.181849	-1.393756	-0.759521	0.458740	0.278320	0.254716	-0.683860	-0.221383	-0.646873
36192		10.405116	-0.159031	-0.639706	-0.016515	-0.203747	-1.361290	-0.775879	0.454102	0.282471	0.246889	-0.682435	-0.229460	-0.648596
36193		10.565507	0.343622	-0.617660	-0.195174	-0.220840	-1.271206	-0.776123	0.445312	0.288818	0.238469	-0.681556	-0.236065	-0.650298
36194		10.702073	0.110016	-0.620538	-0.406768	-0.204691	-1.157933	-0.788574	0.449219	0.309326	0.229465	-0.681156	-0.240822	-0.652209
36195		10.520667	0.258162	-0.615724	-0.498093	-0.180437	-1.088710	-0.799561	0.449951	0.322754	0.220343	-0.680867	-0.244619	-0.654240
36196		10.377618	0.533643	-0.573974	-0.596857	-0.180371	-1.024767	-0.803955	0.462646	0.351807	0.210988	-0.680820	-0.247489	-0.656291
36197		10.562760	0.473705	-0.443156	-0.683869	-0.156351	-0.950706	-0.813477	0.461426	0.372314	0.201573	-0.680880	-0.249396	-0.658462
36198		10.497929	0.404179	-0.538568	-0.657329	-0.125403	-0.908246	-0.815430	0.468018	0.403564	0.192588	-0.680750	-0.251132	-0.660622
36199		10.580750	0.427549	-0.733313	-0.592371	-0.118450	-0.881454	-0.831055	0.466797	0.444336	0.184118	-0.680477	-0.253041	-0.662587
36200		10.642860	0.241800	-0.710823	-0.545676	-0.093825	-0.855541	-0.836426	0.475830	0.471436	0.176094	-0.679999	-0.255003	-0.664504
36201		10.628074	0.131390	-0.584728	-0.467029	-0.050556	-0.818991	-0.850342	0.469727	0.510254	0.168800	-0.679199	-0.257111	-0.666400
36202		10.518417	0.223540	-0.534086	-0.353179	-0.006512	-0.824190	-0.850586	0.468994	0.561523	0.162207	-0.677943	-0.259802	-0.668270
36203		10.411988	0.517537	-0.534952	-0.203642	0.008445	-0.854037	-0.871338	0.451172	0.613281	0.156318	-0.676301	-0.263459	-0.669904
36204		10.315528	0.764671	-0.577929	-0.095202	0.009293	-0.859684	-0.872070	0.435303	0.667480	0.151004	-0.674465	-0.267736	-0.671277
36205		10.377764	1.015580	-0.447901	-0.035526	0.016668	-0.855477	-0.878174	0.410400	0.718994	0.146058	-0.672488	-0.272299	-0.672518
36206		10.466640	1.031529	-0.461709	0.010985	0.018131	-0.862120	-0.880615	0.375000	0.764893	0.141333	-0.670397	-0.277142	-0.673635
36207		10.283569	1.049739	-0.509017	0.049574	0.010070	-0.887036	-0.872559	0.330811	0.815430	0.136659	-0.668214	-0.282335	-0.674612
36208		10.216137	1.426429	-0.741714	0.064800	-0.011493	-0.893847	-0.871338	0.279541	0.844971	0.131974	-0.666082	-0.287660	-0.675403
36209		10.248070	1.721163	-0.659912	0.036507	-0.023180	-0.913357	-0.868408	0.211914	0.867920	0.126988	-0.663963	-0.292928	-0.676180
36210		10.158058	1.930797	-0.710208	-0.052500	-0.049973	-0.906795	-0.863037	0.145752	0.869873	0.121475	-0.662068	-0.297669	-0.676980
36211		10.062066	2.170668	-0.668549	-0.163025	-0.069827	-0.885883	-0.860107	0.083008	0.864258	0.115414	-0.660412	-0.301674	-0.677885
36212		10.034962	2.328369	-0.787180	-0.238795	-0.099479	-0.869496	-0.851562	0.026123	0.851074	0.108948	-0.659000	-0.305171	-0.678763
36213		10.008506	2.479618	-0.784309	-0.318811	-0.125204	-0.850152	-0.853027	-0.024902	0.834473	0.102082	-0.657819	-0.308115	-0.679646
36214		9.905987	2.576587	-0.835843	-0.422456	-0.131088	-0.819708	-0.839355	-0.075928	0.807617	0.094799	-0.656798	-0.310291	-0.680697
36215		9.755457	2.554236	-0.670782	-0.520345	-0.120129	-0.757332	-0.832031	-0.107666	0.770752	0.087357	-0.655916	-0.311542	-0.681971
36216		9.814900	2.130789	-0.757083	-0.533988	-0.111159	-0.712628	-0.832764	-0.145508	0.736572	0.080114	-0.655071	-0.312447	-0.683258
36217		9.819682	2.282515	-0.776450	-0.451685	-0.101031	-0.691458	-0.820068	-0.180908	0.696045	0.073464	-0.654136	-0.313679	-0.684335
36218		9.803334	2.619184	-0.690704	-0.419193	-0.102151	-0.656084	-0.829590	-0.196045	0.663330	0.067188	-0.653251	-0.314890	-0.685269
36219		9.731855	2.473577	-0.487526	-0.404553	-0.085441	-0.606214	-0.814209	-0.201416	0.627686	0.061319	-0.652368	-0.315889	-0.686200
36220		9.726088	1.966867	-0.542817	-0.300946	-0.072710	-0.593993	-0.812256	-0.220215	0.598877	0.056116	-0.651370	-0.317395	-0.686898
36221		9.631735	2.062036	-0.500424	-0.146000	-0.055743	-0.593778	-0.817871	-0.215088	0.579590	0.051801	-0.650185	-0.319768	-0.687258
36222		9.656972	2.387352	-0.519504	-0.051290	-0.052053	-0.587601	-0.811035	-0.218506	0.555908	0.048045	-0.648940	-0.322639	-0.687366
36223		9.672241	2.644777	-0.506219	-0.035447	-0.039048	-0.579996	-0.812988	-0.223877	0.528076	0.044453	-0.647620	-0.325544	-0.687483
36224		9.617324	2.789812	-0.385489	-0.066238	-0.035632	-0.562794	-0.814453	-0.229248	0.518555	0.040804	-0.646325	-0.328170	-0.687680
36225		9.561867	2.845481	-0.367157	-0.094976	-0.025124	-0.548795	-0.813232	-0.210693	0.502686	0.037110	-0.645005	-0.330543	-0.687992
36226		9.489008	2.777058	-0.379121	-0.096154	-0.021313	-0.561353	-0.822021	-0.215820	0.479980	0.033348	-0.643615	-0.332967	-0.688317
36227		9.406244	2.953265	-0.430452	-0.099602	-0.028558	-0.581740	-0.813232	-0.221436	0.485596	0.029432	-0.642198	-0.335473	-0.688603
36228		9.311972	3.245231	-0.383377	-0.174629	-0.032160	-0.565444	-0.816895	-0.220703	0.464355	0.025199	-0.640850	-0.337453	-0.689059
36229		9.211909	3.281023	-0.313970	-0.261819	-0.027084	-0.554430	-0.821777	-0.230469	0.453369	0.020578	-0.639507	-0.338862	-0.689768
36230		9.196932	3.066028	-0.278637	-0.283049	-0.032199	-0.566616	-0.821777	-0.230469	0.453613	0.015761	-0.638147	-0.340205	-0.690493
36231		9.124402	3.144647	-0.270169	-0.243390	-0.031835	-0.573588	-0.826904	-0.235107	0.445557	0.011116	-0.636742	-0.341802	-0.691091
36232		8.963352	3.526080	-0.273214	-0.197519	-0.037720	-0.568491	-0.818359	-0.237793	0.441406	0.006729	-0.635367	-0.343627	-0.691509
36233		8.910904	3.808968	-0.284517	-0.206164	-0.037031	-0.535678	-0.825195	-0.234863	0.438232	0.002488	-0.634067	-0.345218	-0.691937
36234		8.847516	3.889253	-0.394040	-0.228835	-0.038948	-0.494820	-0.822266	-0.237549	0.435059	-0.001642	-0.632884	-0.346455	-0.692405
36235		8.813112	4.276618	-0.492132	-0.218634	-0.027934	-0.485472	-0.824951	-0.247559	0.424072	-0.005631	-0.631652	-0.347694	-0.692888
36236		8.812600	4.520391	-0.591399	-0.202328	-0.032305	-0.495703	-0.822266	-0.245361	0.418457	-0.009605	-0.630405	-0.349073	-0.693286
36237		8.697096	4.384680	-0.518324	-0.172191	-0.029616	-0.481413	-0.817139	-0.254150	0.425293	-0.013331	-0.629175	-0.350544	-0.693599
36238		8.578529	4.286351	-0.402429	-0.141461	-0.024002	-0.431527	-0.818359	-0.250732	0.414551	-0.016590	-0.628052	-0.351927	-0.693846
36239		8.529153	4.479038	-0.405948	-0.090885	-0.011848	-0.400607	-0.817871	-0.265137	0.419189	-0.019369	-0.626949	-0.353436	-0.694004
36240		8.465299	4.800985	-0.565910	-0.055166	-0.009737	-0.388878	-0.821533	-0.252930	0.416992	-0.021886	-0.625869	-0.355087	-0.694063
36241		8.361403	4.664799	-0.551652	-0.032415	-0.009105	-0.359664	-0.819824	-0.265381	0.417236	-0.024114	-0.624869	-0.356713	-0.694055
36242		8.347776	4.650863	-0.390634	0.000351	-0.006130	-0.322739	-0.824463	-0.263428	0.407227	-0.025948	-0.623964	-0.358335	-0.693968
36243		8.291175	4.952215	-0.415964	0.003728	0.002513	-0.284587	-0.821533	-0.264404	0.413086	-0.027518	-0.623121	-0.359777	-0.693919
36244		8.174472	4.993183	-0.362582	-0.020501	0.007463	-0.259636	-0.830078	-0.269287	0.402100	-0.029054	-0.622315	-0.360948	-0.693971
36245		8.127494	5.107420	-0.462357	0.003431	-0.003137	-0.248021	-0.829102	-0.268555	0.408691	-0.030430	-0.621609	-0.362193	-0.693896
36246		8.158727	5.307475	-0.549789	-0.008889	-0.013693	-0.246732	-0.821533	-0.265625	0.407471	-0.031895	-0.620962	-0.363357	-0.693801
36247		8.291085	5.342429	-0.528164	-0.079107	-0.016883	-0.247993	-0.828369	-0.270508	0.394287	-0.033740	-0.620309	-0.364119	-0.693899
36248		8.210836	5.451983	-0.393430	-0.143674	-0.007650	-0.233944	-0.823486	-0.269287	0.396973	-0.035809	-0.619624	-0.364436	-0.694241
36249		8.161173	5.538626	-0.467088	-0.154942	-0.010946	-0.226054	-0.828369	-0.271973	0.392578	-0.037901	-0.618976	-0.364644	-0.694599
36250		8.169651	5.382911	-0.402550	-0.090535	-0.008840	-0.259980	-0.833740	-0.275635	0.402100	-0.039851	-0.618229	-0.365400	-0.694757
36251		8.214425	5.529423	-0.409056	-0.031610	-0.018526	-0.293831	-0.828369	-0.274414	0.387939	-0.041723	-0.617453	-0.366665	-0.694671
36252		8.361875	5.235365	-0.263696	-0.115241	-0.022170	-0.250031	-0.826416	-0.270264	0.403076	-0.043782	-0.616798	-0.367219	-0.694833
36253		8.348786	4.170286	-0.143637	-0.129351	0.010901	-0.181355	-0.824219	-0.272217	0.388184	-0.045415	-0.616155	-0.367348	-0.695231
36254		8.181670	4.692096	-0.220083	0.016611	0.028676	-0.189758	-0.834229	-0.278320	0.392334	-0.046291	-0.615437	-0.368369	-0.695268
36255		8.220752	5.971188	-0.402612	0.021078	0.001498	-0.186112	-0.834473	-0.274658	0.396729	-0.047205	-0.614889	-0.369386	-0.695153
36256		8.388070	5.526172	-0.290039	-0.114957	-0.005417	-0.103951	-0.830078	-0.276855	0.394287	-0.048362	-0.614579	-0.369191	-0.695451
36257		8.513208	4.154515	-0.167657	-0.113337	0.024208	-0.030573	-0.830811	-0.268311	0.388184	-0.048995	-0.614322	-0.368641	-0.695925
36258		8.457463	3.506058	-0.075031	0.065483	0.052119	-0.040395	-0.833740	-0.269775	0.393066	-0.048681	-0.613947	-0.369187	-0.695988
36259		8.400859	4.380555	-0.293675	0.170186	0.056016	-0.052192	-0.835938	-0.278809	0.389893	-0.047886	-0.613556	-0.370400	-0.695744
36260		8.341416	4.736305	-0.298372	0.045748	0.051934	-0.020698	-0.830322	-0.274414	0.390625	-0.047555	-0.613236	-0.370727	-0.695874
36261		8.371217	4.051930	-0.347631	-0.053909	0.047973	0.002762	-0.831055	-0.269287	0.379883	-0.047609	-0.612973	-0.370353	-0.696302
36262		8.409808	3.358584	-0.377530	-0.038717	0.039741	0.010331	-0.829834	-0.279785	0.388184	-0.047566	-0.612787	-0.370024	-0.696643
36263		8.363636	3.286418	-0.321709	0.047302	0.012202	0.020774	-0.836182	-0.277100	0.383545	-0.047106	-0.612829	-0.370128	-0.696583
36264		8.418560	3.442738	-0.331617	0.112237	-0.001893	0.060022	-0.838867	-0.275635	0.385986	-0.046127	-0.613100	-0.370400	-0.696265
36265		8.404641	3.690681	-0.503453	0.128898	-0.005337	0.121385	-0.833252	-0.277832	0.384521	-0.044715	-0.613587	-0.370452	-0.695900
36266		8.395810	3.815238	-0.575771	0.096441	-0.001296	0.215621	-0.826660	-0.275391	0.387695	-0.042909	-0.614329	-0.369831	-0.695690
36267		8.408777	3.812668	-0.518381	0.079299	-0.009055	0.322491	-0.826660	-0.283203	0.390625	-0.040593	-0.615436	-0.368558	-0.695526
36268		8.499613	3.393380	-0.543169	0.111088	-0.010748	0.416728	-0.830078	-0.266602	0.390625	-0.037570	-0.616848	-0.366979	-0.695280
36269		8.587859	3.196502	-0.572710	0.219957	-0.008963	0.472178	-0.829590	-0.265137	0.398682	-0.033659	-0.618444	-0.365738	-0.694716
36270		8.677385	3.607791	-0.650761	0.312210	-0.004161	0.508908	-0.820068	-0.258057	0.407959	-0.029043	-0.620138	-0.364833	-0.693890
36271		8.690046	3.884793	-0.641361	0.307059	0.002227	0.551476	-0.823242	-0.262207	0.412842	-0.024184	-0.621906	-0.363668	-0.693104
36272		8.822707	3.677635	-0.591088	0.297594	0.011737	0.591889	-0.820312	-0.255615	0.416260	-0.019111	-0.623723	-0.362229	-0.692383
36273		8.841589	3.446352	-0.501189	0.344335	0.017717	0.606545	-0.823975	-0.252686	0.416504	-0.013690	-0.625537	-0.360971	-0.691532
36274		8.835591	3.981955	-0.512122	0.404861	0.015785	0.600030	-0.812988	-0.246094	0.426270	-0.007994	-0.627327	-0.360080	-0.690463
36275		8.769363	4.640210	-0.599725	0.380450	0.004278	0.607595	-0.822266	-0.248047	0.437256	-0.002416	-0.629182	-0.358994	-0.689382
36276		8.888848	4.667451	-0.665998	0.263076	-0.018941	0.640095	-0.811279	-0.250000	0.446533	0.002665	-0.631242	-0.357051	-0.688507
36277		8.991732	4.154422	-0.554708	0.175362	-0.001053	0.666941	-0.805664	-0.242432	0.457275	0.007491	-0.633259	-0.354449	-0.687963
36278		9.007484	4.127462	-0.457153	0.188781	0.010597	0.650573	-0.808838	-0.245361	0.468018	0.012329	-0.635139	-0.351998	-0.687418
36279		8.888710	4.896280	-0.281796	0.204576	0.002253	0.615241	-0.808594	-0.240479	0.478271	0.017024	-0.636941	-0.349814	-0.686765
36280		8.919945	5.088738	-0.568930	0.152503	-0.023196	0.634832	-0.801758	-0.236572	0.493164	0.021479	-0.638933	-0.347221	-0.686106
36281		9.052733	4.516927	-0.474589	0.071448	-0.016628	0.648364	-0.811279	-0.242188	0.512451	0.025598	-0.640920	-0.344082	-0.685692
36282		9.225743	4.256732	-0.529951	0.060243	-0.010356	0.643499	-0.804443	-0.241455	0.528809	0.029646	-0.642840	-0.340893	-0.685324
36283		9.172813	4.441586	-0.400877	0.037574	0.004777	0.646540	-0.799316	-0.228516	0.548096	0.033632	-0.644668	-0.337544	-0.685081
36284		9.183417	4.326769	-0.384933	0.042040	-0.000485	0.645229	-0.803467	-0.230225	0.569092	0.037618	-0.646501	-0.334220	-0.684776
36285		9.165084	4.277500	-0.418850	0.119980	0.010098	0.628185	-0.797607	-0.229004	0.591309	0.041954	-0.648181	-0.331419	-0.684297
36286		9.265579	4.199383	-0.484952	0.180504	0.021996	0.637858	-0.802002	-0.228271	0.608398	0.046704	-0.649779	-0.328898	-0.683691
36287		9.366458	3.753417	-0.449433	0.229361	0.046185	0.647349	-0.798584	-0.202881	0.629395	0.051837	-0.651223	-0.326583	-0.683055
36288		9.368311	3.708952	-0.386641	0.310142	0.075431	0.631629	-0.812500	-0.197998	0.658447	0.057397	-0.652400	-0.324790	-0.682342
36289		9.236423	4.295856	-0.340500	0.338484	0.081380	0.614452	-0.804199	-0.174805	0.687988	0.063026	-0.653459	-0.323237	-0.681569
36290		9.260254	4.349287	-0.564579	0.274978	0.065374	0.618453	-0.810059	-0.155273	0.699219	0.068287	-0.654629	-0.321299	-0.680855
36291		9.403249	3.842478	-0.586132	0.217625	0.060544	0.616842	-0.814453	-0.137695	0.715088	0.073209	-0.655833	-0.319039	-0.680248
36292		9.399543	3.556342	-0.636000	0.175996	0.051365	0.626571	-0.809082	-0.122314	0.747070	0.077932	-0.657120	-0.316486	-0.679674
36293		9.461516	3.408055	-0.638479	0.136051	0.060934	0.644455	-0.812744	-0.093750	0.768066	0.082559	-0.658404	-0.313594	-0.679226
36294		9.396779	3.452876	-0.584281	0.130261	0.064953	0.632675	-0.828613	-0.073486	0.785400	0.087096	-0.659618	-0.310721	-0.678801
36295		9.419188	3.593850	-0.750115	0.141511	0.067958	0.614357	-0.828125	-0.043945	0.800537	0.091595	-0.660739	-0.308002	-0.678358
36296		9.438187	3.474968	-0.576899	0.116201	0.070477	0.626229	-0.835693	-0.027588	0.802979	0.096025	-0.661876	-0.305064	-0.677964
36297		9.515051	2.832963	-0.562327	0.151903	0.079279	0.626838	-0.827148	0.010498	0.820068	0.100673	-0.662915	-0.302310	-0.677508
36298		9.526447	2.595828	-0.571044	0.227290	0.086598	0.609703	-0.826660	0.041992	0.825195	0.105657	-0.663786	-0.300060	-0.676896
36299		9.520751	3.109663	-0.647575	0.246169	0.078359	0.571147	-0.833008	0.067627	0.833008	0.110504	-0.664571	-0.298129	-0.676205
36300		9.531599	3.389923	-0.831718	0.176498	0.069866	0.553748	-0.844482	0.101318	0.831787	0.114841	-0.665406	-0.295903	-0.675639
36301		9.456318	3.260894	-0.839620	0.090338	0.054326	0.540769	-0.835938	0.128662	0.833496	0.118586	-0.666363	-0.293273	-0.675195
36302		9.461352	3.084717	-0.738606	0.041711	0.040280	0.531157	-0.837402	0.160889	0.846191	0.121969	-0.667410	-0.290431	-0.674787
36303		9.468394	2.821775	-0.672999	0.054843	0.037446	0.517295	-0.838867	0.176270	0.838379	0.125336	-0.668411	-0.287739	-0.674332
36304		9.461804	2.746794	-0.581634	0.100346	0.041355	0.477064	-0.842285	0.204834	0.846680	0.128736	-0.669233	-0.285518	-0.673820
36305		9.473224	2.708724	-0.541279	0.146143	0.054245	0.433514	-0.847656	0.234863	0.826904	0.132175	-0.669819	-0.283780	-0.673306
36306		9.540189	2.582125	-0.584818	0.194260	0.065665	0.392945	-0.837646	0.263428	0.822998	0.135680	-0.670182	-0.282522	-0.672777
36307		9.579660	2.536933	-0.423206	0.236805	0.077970	0.352772	-0.833008	0.286621	0.822510	0.139222	-0.670322	-0.281711	-0.672253
36308		9.540661	2.748109	-0.503011	0.271297	0.069786	0.308182	-0.841064	0.298340	0.796387	0.142686	-0.670355	-0.281348	-0.671646
36309		9.484470	2.610317	-0.552636	0.221726	0.066297	0.321484	-0.834717	0.323242	0.798584	0.145937	-0.670489	-0.280636	-0.671112
36310		9.492012	2.359581	-0.643002	0.180969	0.075908	0.336970	-0.845703	0.335205	0.782471	0.149066	-0.670646	-0.279595	-0.670701
36311		9.572781	2.275972	-0.628320	0.137710	0.079090	0.336080	-0.840088	0.347412	0.783203	0.151953	-0.670830	-0.278312	-0.670402
36312		9.659509	2.058339	-0.594561	0.113224	0.078149	0.324867	-0.831787	0.359375	0.768066	0.154636	-0.671018	-0.276954	-0.670163
36313		9.669961	1.979721	-0.618930	0.130074	0.065770	0.307461	-0.840332	0.373535	0.762939	0.157286	-0.671207	-0.275802	-0.669833
36314		9.622144	1.923522	-0.659104	0.165697	0.070414	0.285574	-0.838867	0.391602	0.748047	0.160021	-0.671266	-0.274964	-0.669470
36315		9.632948	1.958733	-0.681404	0.199294	0.065698	0.258727	-0.838623	0.396973	0.737305	0.162782	-0.671241	-0.274467	-0.669033
36316		9.650745	2.153178	-0.742042	0.194252	0.054587	0.225165	-0.842529	0.407471	0.739014	0.165301	-0.671202	-0.274145	-0.668587
36317		9.604884	2.253968	-0.692109	0.138787	0.039858	0.209047	-0.837646	0.423828	0.734375	0.167383	-0.671281	-0.273623	-0.668203
36318		9.578282	2.164296	-0.682036	0.090348	0.023730	0.182838	-0.840332	0.427002	0.727539	0.169011	-0.671454	-0.273001	-0.667874
36319		9.545973	1.972368	-0.676117	0.050158	0.006429	0.152161	-0.831543	0.429443	0.724365	0.170201	-0.671709	-0.272351	-0.667581
36320		9.544807	2.005161	-0.668737	0.039818	-0.004626	0.106025	-0.838135	0.429688	0.718018	0.171051	-0.671933	-0.271919	-0.667313
36321		9.626765	2.057371	-0.663712	0.012754	-0.015287	0.068320	-0.833984	0.434082	0.714600	0.171515	-0.672170	-0.271563	-0.667101
36322		9.726725	1.880487	-0.498745	-0.029511	-0.015349	0.034212	-0.832275	0.430420	0.718018	0.171551	-0.672390	-0.271164	-0.667032
36323		9.786948	1.484083	-0.370327	-0.031093	-0.009862	0.002788	-0.823486	0.425293	0.705078	0.171415	-0.672510	-0.270926	-0.667043
36324		9.827404	1.251276	-0.294027	0.028155	0.001740	-0.036602	-0.835693	0.428223	0.713623	0.171419	-0.672391	-0.271221	-0.667042
36325		9.791553	1.129474	-0.344532	0.127054	0.010141	-0.078753	-0.833252	0.430420	0.714355	0.171761	-0.671989	-0.272290	-0.666924
36326		9.808632	1.186902	-0.356498	0.213418	0.017979	-0.104603	-0.836182	0.426514	0.702148	0.172460	-0.671359	-0.273972	-0.666689
36327		9.740116	1.384601	-0.416157	0.255717	0.027591	-0.112067	-0.832764	0.428223	0.703857	0.173376	-0.670594	-0.275915	-0.666419
36328		9.779624	1.469465	-0.480351	0.249976	0.027960	-0.099686	-0.830322	0.434570	0.708252	0.174328	-0.669861	-0.277756	-0.666144
36329		9.719552	1.385923	-0.434751	0.215306	0.034072	-0.080757	-0.835449	0.431152	0.697266	0.175206	-0.669185	-0.279288	-0.665953
36330		9.714013	1.273842	-0.450963	0.182552	0.027644	-0.051532	-0.838623	0.434814	0.701416	0.176047	-0.668658	-0.280484	-0.665757
36331		9.714951	1.104201	-0.473959	0.171863	0.028167	-0.035935	-0.835693	0.430908	0.704834	0.176916	-0.668179	-0.281533	-0.665565
36332		9.714163	1.157330	-0.490079	0.148836	0.020677	-0.018808	-0.839844	0.430908	0.696533	0.177734	-0.667814	-0.282369	-0.665359
36333		9.732426	1.072992	-0.497129	0.102686	0.023950	0.006263	-0.839111	0.440674	0.689941	0.178441	-0.667558	-0.282804	-0.665242
36334		9.738536	0.887435	-0.497319	0.057212	0.031399	0.033518	-0.834961	0.445557	0.691895	0.179065	-0.667392	-0.282824	-0.665233
36335		9.691283	0.698151	-0.507886	0.040520	0.030010	0.052688	-0.834229	0.439209	0.692627	0.179699	-0.667303	-0.282646	-0.665226
36336		9.755062	0.587719	-0.569746	0.048953	0.023914	0.073300	-0.837402	0.438232	0.689941	0.180480	-0.667285	-0.282409	-0.665134
36337		9.763001	0.547493	-0.542493	0.032033	0.026214	0.094979	-0.829346	0.455322	0.688721	0.181294	-0.667329	-0.281953	-0.665061
36338		9.827235	0.344668	-0.386607	-0.031061	0.035203	0.138742	-0.835693	0.450439	0.685303	0.182020	-0.667522	-0.280890	-0.665119
36339		9.843325	-0.022335	-0.379742	-0.058010	0.042413	0.197422	-0.834717	0.454834	0.667725	0.182940	-0.667852	-0.279338	-0.665190
36340		9.908274	-0.490910	-0.389507	-0.039053	0.043469	0.254067	-0.837158	0.455322	0.674072	0.184282	-0.668276	-0.277571	-0.665133
36341		9.907866	-0.892904	-0.406614	0.055438	0.058539	0.286727	-0.830811	0.463379	0.655518	0.186366	-0.668544	-0.276120	-0.664887
36342		9.907613	-0.866045	-0.425694	0.152421	0.062671	0.343840	-0.831299	0.472900	0.643799	0.189318	-0.668765	-0.274877	-0.664346
36343		9.961256	-0.522663	-0.438071	0.182252	0.064800	0.421784	-0.828613	0.484619	0.620605	0.192871	-0.669097	-0.273356	-0.663616
36344		9.924535	-0.494738	-0.407982	0.135828	0.074100	0.508044	-0.821289	0.493164	0.603760	0.196662	-0.669638	-0.271075	-0.662893
36345		9.888674	-0.646270	-0.408110	0.095626	0.072239	0.593696	-0.813477	0.504639	0.576172	0.200695	-0.670433	-0.268090	-0.662094
36346		9.977138	-0.821171	-0.422009	0.094120	0.074327	0.663867	-0.813721	0.518066	0.564453	0.205106	-0.671357	-0.264691	-0.661173
36347		10.041479	-0.885432	-0.349484	0.079692	0.073387	0.720255	-0.809814	0.513672	0.547363	0.209740	-0.672411	-0.260888	-0.660159
36348		10.143442	-0.974397	-0.310220	0.051170	0.069043	0.766491	-0.798096	0.531250	0.520996	0.214451	-0.673614	-0.256665	-0.659074
36349		10.223684	-1.306720	-0.165860	0.015986	0.075588	0.809742	-0.793213	0.541016	0.488281	0.219209	-0.674905	-0.251981	-0.657994
36350		10.303787	-1.608300	-0.140191	0.054970	0.088026	0.822490	-0.788818	0.537598	0.476318	0.224273	-0.676052	-0.247402	-0.656847
36351		10.329048	-1.757756	-0.021880	0.131211	0.091007	0.824423	-0.778809	0.536377	0.441162	0.229774	-0.677011	-0.243210	-0.655522
36352		10.417209	-1.788327	0.007473	0.214646	0.087563	0.816944	-0.774170	0.545898	0.418457	0.235687	-0.677779	-0.239508	-0.653990
36353		10.412417	-1.695535	0.078799	0.259997	0.087601	0.816567	-0.758545	0.541504	0.395752	0.241844	-0.678422	-0.236040	-0.652334
36354		10.311366	-1.700744	0.001305	0.297322	0.091402	0.822821	-0.758301	0.539062	0.372803	0.248242	-0.678944	-0.232718	-0.650579
36355		10.376236	-1.784059	-0.030315	0.338729	0.104030	0.835829	-0.752441	0.544434	0.343262	0.254957	-0.679298	-0.229506	-0.648751
36356		10.365243	-1.691315	0.058721	0.380392	0.116430	0.844157	-0.744873	0.539795	0.334961	0.261962	-0.679472	-0.226431	-0.646856
36357		10.416434	-1.642297	0.163316	0.410921	0.132781	0.864729	-0.747070	0.540527	0.312988	0.269265	-0.679486	-0.223352	-0.644910
36358		10.486666	-1.836904	0.178200	0.427732	0.153678	0.886077	-0.731689	0.535156	0.291992	0.276800	-0.679342	-0.220180	-0.642960
36359		10.504621	-2.062455	0.250872	0.462501	0.175041	0.900359	-0.726807	0.531006	0.274902	0.284628	-0.678980	-0.217047	-0.640987
36360		10.488611	-2.169110	0.171957	0.496432	0.189927	0.910193	-0.720215	0.539551	0.264648	0.292706	-0.678422	-0.213986	-0.638965
36361		10.464275	-2.078960	0.150232	0.505126	0.198168	0.923052	-0.714355	0.530273	0.240723	0.300893	-0.677768	-0.210861	-0.636892
36362		10.404554	-1.807380	0.112113	0.452193	0.197163	0.957780	-0.715088	0.539307	0.229980	0.308940	-0.677256	-0.207243	-0.634768
36363		10.385840	-1.838925	0.044006	0.341585	0.208214	1.011950	-0.708984	0.534912	0.223877	0.316642	-0.677008	-0.202689	-0.632705
36364		10.367245	-2.081194	0.105273	0.242055	0.213268	1.059532	-0.696533	0.540039	0.215576	0.324015	-0.677017	-0.197311	-0.630658
36365		10.421606	-2.319437	0.249963	0.148191	0.217979	1.098696	-0.697754	0.540039	0.201660	0.331043	-0.677259	-0.191189	-0.628631
36366		10.440537	-2.680062	0.291971	0.080262	0.223185	1.122673	-0.673096	0.543213	0.200439	0.337791	-0.677636	-0.184544	-0.626618
36367		10.415539	-2.838484	0.544802	0.031092	0.228562	1.139581	-0.669189	0.542725	0.186523	0.344326	-0.678085	-0.177513	-0.624603
36368		10.390998	-2.967283	0.548148	0.004013	0.228110	1.150063	-0.679199	0.552490	0.191895	0.350728	-0.678563	-0.170267	-0.622536
36369		10.333237	-2.997669	0.553364	-0.026495	0.227828	1.147688	-0.659668	0.553467	0.177002	0.356911	-0.679062	-0.162860	-0.620456
36370		10.381845	-3.128401	0.584577	-0.093052	0.228440	1.155387	-0.655762	0.563721	0.178711	0.362722	-0.679699	-0.155047	-0.618387
36371		10.452536	-3.374398	0.714644	-0.153412	0.241209	1.143600	-0.642822	0.575684	0.177246	0.368111	-0.680369	-0.146937	-0.616442
36372		10.304956	-3.516070	0.737916	-0.209545	0.240380	1.134255	-0.646240	0.586670	0.171387	0.373096	-0.681137	-0.138580	-0.614530
36373		10.298249	-3.806328	0.647286	-0.239847	0.243892	1.125807	-0.633057	0.584229	0.175781	0.377833	-0.681904	-0.130091	-0.612638
36374		10.155261	-3.816570	0.741431	-0.213370	0.250013	1.119911	-0.619629	0.588867	0.177490	0.382659	-0.682483	-0.121739	-0.610712
36375		10.096232	-3.732707	0.789498	-0.211250	0.252817	1.139953	-0.617432	0.596191	0.166748	0.387565	-0.682993	-0.113264	-0.608675
36376		10.108359	-4.112059	0.883737	-0.213731	0.273377	1.170207	-0.605713	0.600830	0.169678	0.392588	-0.683365	-0.104526	-0.606598
36377		9.967162	-4.350181	0.788094	-0.132481	0.299549	1.186958	-0.594971	0.609619	0.164795	0.398140	-0.683280	-0.096007	-0.604480
36378		9.955714	-4.320379	0.768570	-0.061113	0.304130	1.195295	-0.588867	0.617920	0.168213	0.404100	-0.682868	-0.087776	-0.602238
36379		9.840021	-4.173050	0.766509	-0.024759	0.315427	1.191528	-0.581787	0.632080	0.162842	0.410212	-0.682199	-0.079702	-0.599982
