// Start Time: Unknown
// Update Rate: 60.0Hz
// Filter Profile: human (46.1)
// Firmware Version: 4.6.0
PacketCounter	SampleTimeFine	Acc_X	Acc_Y	Acc_Z	Gyr_X	Gyr_Y	Gyr_Z	Mag_X	Mag_Y	Mag_Z	Quat_q0	Quat_q1	Quat_q2	Quat_q3
17325		0.386993	-9.064688	3.371934	0.010400	-0.003670	0.000394	-0.013428	0.990967	0.040039	0.584308	-0.422969	0.383346	-0.576826
17326		0.424718	-9.060708	3.420691	-0.019669	0.006210	-0.005543	-0.014893	0.977295	0.040771	0.584192	-0.423052	0.383451	-0.576812
17327		0.392457	-9.169585	3.316245	-0.031748	0.016134	-0.008454	-0.012695	0.981201	0.055420	0.583971	-0.423167	0.383644	-0.576823
17328		0.399802	-9.213273	3.388513	-0.029912	0.000742	-0.012084	-0.019043	0.980957	0.036377	0.583804	-0.423349	0.383749	-0.576789
17329		0.375335	-9.224487	3.431830	-0.016483	-0.012325	-0.010361	-0.013672	0.986084	0.045166	0.583693	-0.423550	0.383708	-0.576781
17330		0.284470	-9.270945	3.318086	0.001419	-0.008931	-0.006430	-0.014648	0.990723	0.045898	0.583697	-0.423605	0.383637	-0.576783
17331		0.340016	-9.303757	3.324707	0.016723	0.006975	-0.010352	-0.013916	0.984375	0.043457	0.583679	-0.423527	0.383557	-0.576912
17332		0.354741	-9.365484	3.308818	0.019104	0.028857	-0.003110	-0.013428	0.985596	0.038330	0.583641	-0.423305	0.383607	-0.577081
17333		0.332765	-9.242019	3.329405	0.004734	0.006387	-0.000490	-0.019043	0.982910	0.042725	0.583640	-0.423252	0.383636	-0.577101
17334		0.359244	-9.080971	3.466742	0.016663	-0.017029	-0.000392	-0.023682	0.983643	0.045898	0.583712	-0.423282	0.383474	-0.577114
17335		0.334412	-8.961812	3.473569	0.001293	-0.020154	-0.008216	-0.019775	0.986572	0.040039	0.583672	-0.423441	0.383321	-0.577139
17336		0.400756	-8.966193	3.397610	-0.023017	-0.001355	-0.011859	-0.025391	0.979492	0.048584	0.583509	-0.423610	0.383379	-0.577141
17337		0.421871	-9.165066	3.318979	-0.007348	0.026035	-0.009399	-0.015869	0.978027	0.044678	0.583286	-0.423585	0.383480	-0.577318
17338		0.417161	-9.373199	3.221870	-0.001971	0.036400	0.001471	-0.012939	0.979248	0.041992	0.583170	-0.423408	0.383682	-0.577430
17339		0.341647	-9.391718	3.341092	0.008525	0.016765	-0.007343	-0.014893	0.984375	0.043213	0.583125	-0.423301	0.383727	-0.577525
17340		0.317526	-9.318453	3.412911	0.020736	-0.007001	-0.015938	-0.020508	0.983154	0.042236	0.583138	-0.423295	0.383578	-0.577616
17341		0.420598	-9.126932	3.545386	0.023572	-0.021832	-0.011152	-0.020020	0.984863	0.039062	0.583202	-0.423342	0.383340	-0.577674
17342		0.378149	-9.031414	3.468323	-0.003691	-0.026345	-0.002347	-0.024902	0.981201	0.044922	0.583244	-0.423497	0.383229	-0.577592
17343		0.391948	-9.017004	3.389015	-0.035911	-0.003010	0.003005	-0.017822	0.986572	0.047852	0.583084	-0.423707	0.383403	-0.577484
17344		0.419907	-9.130294	3.276113	-0.031405	0.018015	0.007254	-0.017578	0.987793	0.045410	0.582924	-0.423768	0.383714	-0.577395
17345		0.363113	-9.344945	3.133073	-0.007437	0.054323	0.001486	-0.018555	0.986328	0.042969	0.582714	-0.423546	0.384054	-0.577543
17346		0.224142	-9.455893	3.307850	0.023351	0.037342	-0.005103	-0.009033	0.981934	0.047119	0.582634	-0.423277	0.384136	-0.577766
17347		0.322679	-9.332299	3.349099	0.038328	-0.005364	-0.000985	-0.024414	0.999023	0.046387	0.582805	-0.423106	0.384021	-0.577796
17348		0.439769	-9.120268	3.488056	0.039519	-0.034165	-0.003319	-0.025146	0.987061	0.042725	0.582961	-0.423159	0.383733	-0.577790
17349		0.438610	-8.976217	3.447134	0.014018	-0.028522	0.001730	-0.015869	0.979004	0.043945	0.583060	-0.423251	0.383552	-0.577744
17350		0.321571	-8.982591	3.396755	-0.024112	-0.005273	0.004261	-0.012939	0.984863	0.045654	0.583019	-0.423354	0.383695	-0.577614
17351		0.347749	-9.088798	3.316422	-0.035267	0.007964	-0.002642	-0.018555	0.991699	0.039307	0.582866	-0.423476	0.383965	-0.577499
17352		0.373274	-9.280389	3.395854	-0.023326	0.016632	-0.006237	-0.023193	0.979736	0.044189	0.582700	-0.423508	0.384173	-0.577506
17353		0.357328	-9.389488	3.404336	0.019408	0.010888	-0.008743	-0.015137	0.980469	0.041016	0.582662	-0.423384	0.384107	-0.577679
17354		0.374405	-9.264844	3.329347	0.033074	-0.004342	-0.006757	-0.022949	0.978027	0.032471	0.582783	-0.423220	0.383941	-0.577788
17355		0.373073	-9.141837	3.394397	0.022374	-0.015063	-0.004470	-0.019043	0.982666	0.044922	0.582897	-0.423133	0.383714	-0.577888
17356		0.352895	-9.011314	3.379461	0.002442	-0.018553	-0.001970	-0.020020	0.981934	0.039795	0.582931	-0.423222	0.383663	-0.577821
17357		0.377597	-9.148916	3.361931	-0.033125	0.009668	0.002038	-0.026855	0.982666	0.033691	0.582787	-0.423303	0.383904	-0.577747
17358		0.342686	-9.208420	3.338894	-0.041504	0.026021	0.003507	-0.022217	0.985107	0.043945	0.582553	-0.423323	0.384214	-0.577762
17359		0.347979	-9.237890	3.341254	-0.014623	0.007063	-0.006696	-0.016846	0.991455	0.043701	0.582409	-0.423385	0.384342	-0.577777
17360		0.370936	-9.213724	3.358905	0.025079	-0.023932	-0.014509	-0.021240	0.985352	0.041504	0.582500	-0.423418	0.384132	-0.577801
17361		0.373527	-9.340686	3.404389	0.029621	0.001648	-0.008216	-0.013184	0.975342	0.047852	0.582540	-0.423278	0.384011	-0.577943
17362		0.361460	-9.244240	3.366415	0.021163	0.011321	-0.006489	-0.016846	0.980713	0.051514	0.582553	-0.423135	0.384037	-0.578018
17363		0.337624	-9.124587	3.307530	0.013850	0.000248	-0.000826	-0.020020	0.982910	0.043213	0.582558	-0.423108	0.384078	-0.578005
17364		0.346377	-9.045191	3.310486	-0.022962	-0.003985	0.003846	-0.023682	0.982422	0.041504	0.582487	-0.423221	0.384241	-0.577886
17365		0.327169	-9.137483	3.459848	-0.020140	-0.001625	-0.004399	-0.022705	0.981445	0.051270	0.582364	-0.423332	0.384343	-0.577861
17366		0.417741	-9.189208	3.355823	-0.005950	0.005099	-0.010856	-0.026855	0.991211	0.049072	0.582202	-0.423419	0.384441	-0.577895
17367		0.438535	-9.222601	3.391780	0.005904	0.007247	-0.010869	-0.018555	0.984619	0.043701	0.582058	-0.423451	0.384475	-0.577994
17368		0.404915	-9.222082	3.424292	0.018999	-0.002398	-0.006182	-0.011475	0.989746	0.048340	0.582098	-0.423369	0.384415	-0.578054
17369		0.343272	-9.207287	3.216417	0.014047	0.008266	0.003388	-0.016357	0.987061	0.039307	0.582150	-0.423242	0.384541	-0.578009
17370		0.302353	-9.225397	3.305525	0.000497	0.012519	0.004205	-0.020508	0.982910	0.049072	0.582159	-0.423111	0.384673	-0.578009
17371		0.352000	-9.233701	3.419412	-0.003309	0.009597	0.004035	-0.016602	0.986328	0.045654	0.582086	-0.423105	0.384834	-0.577980
17372		0.376876	-9.178385	3.306377	-0.026054	0.010747	-0.002230	-0.014648	0.981201	0.045166	0.581942	-0.423179	0.385098	-0.577895
17373		0.360538	-9.122689	3.427416	0.027762	-0.019876	-0.009568	-0.024902	0.979492	0.049072	0.582069	-0.423139	0.384924	-0.577912
17374		0.397372	-9.102701	3.477775	0.028403	-0.018623	-0.009201	-0.018066	0.980957	0.046631	0.582107	-0.423174	0.384706	-0.577994
17375		0.399241	-9.208898	3.416945	0.015111	-0.002106	-0.008779	-0.025635	0.985840	0.048340	0.582107	-0.423136	0.384670	-0.578045
17376		0.431691	-9.194065	3.384750	0.006659	0.009985	-0.002713	-0.019775	0.984619	0.048584	0.582007	-0.423126	0.384721	-0.578119
17377		0.440927	-9.164889	3.304645	-0.015385	0.021773	0.002125	-0.025879	0.977295	0.039062	0.581853	-0.423119	0.384995	-0.578098
17378		0.289444	-9.168031	3.363695	-0.012511	0.031115	0.000265	-0.028809	0.988281	0.049316	0.581682	-0.422998	0.385164	-0.578245
17379		0.243548	-9.163319	3.296116	-0.010973	0.006506	-0.008707	-0.013184	0.983643	0.046875	0.581469	-0.423136	0.385253	-0.578300
17380		0.315427	-9.230542	3.403013	-0.009565	-0.001976	-0.005156	-0.019287	0.985352	0.042725	0.581439	-0.423169	0.385401	-0.578206
17381		0.370081	-9.238834	3.449346	0.001557	-0.019758	-0.000285	-0.017334	0.985596	0.038330	0.581512	-0.423217	0.385350	-0.578132
17382		0.421802	-9.243720	3.381821	0.009259	-0.004954	0.000817	-0.022217	0.979004	0.038574	0.581615	-0.423099	0.385315	-0.578138
17383		0.368998	-9.145539	3.324055	0.015961	-0.002728	-0.001507	-0.014648	0.987793	0.042236	0.581677	-0.422973	0.385205	-0.578241
17384		0.331271	-9.124289	3.317576	0.003018	0.010377	-0.004035	-0.018555	0.979492	0.045410	0.581683	-0.422862	0.385309	-0.578247
17385		0.334138	-9.138543	3.320063	-0.014421	0.005173	0.000191	-0.024414	0.979492	0.033691	0.581606	-0.422893	0.385474	-0.578192
17386		0.346391	-9.220075	3.290018	-0.007945	-0.000166	0.003628	-0.017090	0.989258	0.045898	0.581606	-0.422816	0.385459	-0.578257
17387		0.414990	-9.197385	3.452952	0.009487	-0.007126	0.001069	-0.021484	0.985352	0.036865	0.581675	-0.422796	0.385476	-0.578192
17388		0.466743	-9.216340	3.455707	-0.000516	-0.002483	-0.003567	-0.017090	0.979248	0.043945	0.581684	-0.422742	0.385439	-0.578247
17389		0.391306	-9.179217	3.292042	-0.007927	0.011847	-0.001361	-0.014648	0.986084	0.040771	0.581625	-0.422699	0.385591	-0.578237
17390		0.302338	-9.160377	3.387415	0.005294	0.010708	-0.005873	-0.020264	0.986328	0.045166	0.581647	-0.422571	0.385651	-0.578267
17391		0.333437	-9.182038	3.268066	0.007525	-0.005678	-0.008090	-0.018799	0.975342	0.037109	0.581633	-0.422595	0.385614	-0.578289
17392		0.397830	-9.264119	3.318318	-0.011379	0.005512	-0.004479	-0.022461	0.983154	0.041016	0.581587	-0.422540	0.385676	-0.578335
17393		0.404364	-9.205598	3.494437	0.009145	-0.003866	0.000694	-0.022949	0.979736	0.043945	0.581612	-0.422483	0.385625	-0.578385
17394		0.371292	-9.159112	3.395402	0.010312	-0.000287	0.001305	-0.022461	0.990234	0.043701	0.581603	-0.422435	0.385607	-0.578440
17395		0.278735	-9.130084	3.341304	0.000757	0.014903	0.006495	-0.020264	0.989014	0.046143	0.581556	-0.422346	0.385733	-0.578469
17396		0.264530	-9.124822	3.311329	-0.009151	-0.008299	0.000974	-0.016113	0.986084	0.045654	0.581529	-0.422450	0.385810	-0.578369
17397		0.283929	-9.227120	3.252953	-0.009521	-0.009742	-0.004770	-0.023193	0.990723	0.042480	0.581526	-0.422549	0.385881	-0.578253
17398		0.315497	-9.259315	3.349449	0.000884	-0.003652	-0.010372	-0.025146	0.980225	0.037598	0.581460	-0.422587	0.385842	-0.578317
17399		0.359283	-9.218195	3.419230	0.010468	-0.014137	-0.010199	-0.017578	0.979004	0.043945	0.581462	-0.422575	0.385650	-0.578452
17400		0.461904	-9.159647	3.443891	0.007960	-0.024456	-0.006943	-0.020996	0.984619	0.038574	0.581549	-0.422650	0.385537	-0.578385
17401		0.436919	-9.205420	3.338380	0.007752	0.009469	0.005828	-0.024170	0.981689	0.044434	0.581592	-0.422483	0.385564	-0.578446
17402		0.314646	-9.186448	3.398402	0.004159	0.014258	0.003222	-0.015137	0.984131	0.043945	0.581506	-0.422401	0.385658	-0.578529
17403		0.325343	-9.214241	3.271021	-0.003390	0.012655	-0.001721	-0.020020	0.982666	0.044922	0.581494	-0.422334	0.385810	-0.578489
17404		0.359692	-9.209665	3.388125	0.009046	0.009236	-0.004426	-0.017822	0.987549	0.039795	0.581453	-0.422265	0.385858	-0.578548
17405		0.447342	-9.172857	3.526276	0.034335	-0.003916	-0.003702	-0.017822	0.979004	0.047607	0.581616	-0.422069	0.385689	-0.578640
17406		0.375914	-9.147996	3.370867	0.023478	-0.008239	-0.006269	-0.015625	0.988770	0.037842	0.581675	-0.422047	0.385614	-0.578647
17407		0.395108	-9.116463	3.421164	-0.002471	0.001385	-0.008383	-0.012695	0.980713	0.042480	0.581706	-0.421996	0.385630	-0.578642
17408		0.370829	-9.081386	3.334177	-0.034788	0.017836	-0.006144	-0.017578	0.978271	0.045410	0.581578	-0.422052	0.385944	-0.578521
17409		0.365053	-9.270307	3.194772	-0.028986	0.018875	-0.006788	-0.010010	0.991455	0.041504	0.581384	-0.422128	0.386225	-0.578473
17410		0.317478	-9.333043	3.363095	-0.003550	0.011768	0.003778	-0.022705	0.981934	0.040527	0.581493	-0.422001	0.386392	-0.578345
17411		0.299460	-9.308776	3.479532	0.028316	0.002083	0.005386	-0.014893	0.979248	0.044434	0.581579	-0.421803	0.386285	-0.578474
17412		0.290164	-9.251312	3.403685	0.030074	-0.002493	-0.004366	-0.010498	0.980469	0.047607	0.581711	-0.421668	0.386191	-0.578503
17413		0.349025	-9.118147	3.390757	0.019848	0.006745	-0.004919	-0.013428	0.988525	0.045898	0.581814	-0.421565	0.386240	-0.578441
17414		0.410401	-9.081818	3.357469	0.013303	0.005401	-0.008098	-0.021240	0.980713	0.043701	0.581865	-0.421511	0.386272	-0.578407
17415		0.347000	-9.082092	3.285130	-0.003791	0.009084	-0.005171	-0.017822	0.981201	0.035400	0.581757	-0.421519	0.386354	-0.578456
17416		0.346718	-9.179197	3.331017	-0.024900	0.002118	0.000030	-0.011475	0.986572	0.035889	0.581703	-0.421517	0.386482	-0.578426
17417		0.390490	-9.249744	3.448247	-0.015307	0.006236	0.002883	-0.016846	0.986816	0.038818	0.581774	-0.421418	0.386627	-0.578330
17418		0.318557	-9.273461	3.350385	-0.011688	0.013316	-0.002829	-0.013916	0.975830	0.041992	0.581722	-0.421352	0.386757	-0.578344
17419		0.278061	-9.253413	3.407776	-0.010152	0.001168	-0.006813	-0.008057	0.978271	0.046143	0.581701	-0.421371	0.386847	-0.578291
17420		0.299777	-9.176270	3.325758	0.015007	-0.027766	-0.009887	-0.014160	0.982910	0.048584	0.581917	-0.421450	0.386717	-0.578103
17421		0.367787	-9.124135	3.418150	0.029339	-0.027127	-0.004834	-0.020508	0.971680	0.041260	0.582121	-0.421506	0.386523	-0.577985
17422		0.451198	-9.096036	3.395083	0.001854	-0.002936	0.001369	-0.016602	0.975098	0.041016	0.582094	-0.421477	0.386531	-0.578029
17423		0.492015	-9.034798	3.357043	-0.020193	0.008674	0.002865	-0.021729	0.982910	0.038330	0.582022	-0.421479	0.386719	-0.577974
17424		0.413420	-9.120678	3.263646	-0.030312	0.014396	-0.001905	-0.020264	0.976318	0.040283	0.581827	-0.421505	0.386918	-0.578019
17425		0.318311	-9.286352	3.367463	-0.024074	0.018556	-0.009078	-0.017578	0.976074	0.046387	0.581609	-0.421517	0.387100	-0.578107
17426		0.320416	-9.351689	3.351579	-0.017172	0.016495	-0.008844	-0.015869	0.987549	0.038330	0.581441	-0.421574	0.387293	-0.578106
17427		0.290236	-9.291015	3.441736	-0.000147	-0.018061	-0.004845	-0.016602	0.983643	0.041016	0.581542	-0.421587	0.387195	-0.578060
17428		0.361974	-9.193718	3.333346	0.008101	-0.023120	-0.002465	-0.019775	0.980469	0.045410	0.581672	-0.421615	0.387059	-0.578000
17429		0.417961	-9.129976	3.291846	0.005227	-0.008127	-0.003945	-0.019775	0.982910	0.038086	0.581666	-0.421661	0.387023	-0.577996
17430		0.315812	-9.180769	3.301250	0.007907	0.007795	-0.007338	-0.010986	0.981445	0.036377	0.581635	-0.421533	0.386989	-0.578143
17431		0.252116	-9.209161	3.369295	-0.004114	0.029070	-0.005172	-0.015381	0.991455	0.045166	0.581636	-0.421307	0.387146	-0.578202
17432		0.258244	-9.161919	3.432893	-0.006302	0.010930	-0.003579	-0.012939	0.985596	0.047119	0.581613	-0.421310	0.387270	-0.578140
17433		0.311357	-9.224268	3.316617	0.005123	-0.016787	0.001946	-0.014893	0.990234	0.050537	0.581763	-0.421385	0.387247	-0.577949
17434		0.466823	-9.306169	3.282881	0.012902	-0.007753	-0.002193	-0.012451	0.986572	0.042236	0.581860	-0.421448	0.387226	-0.577821
17435		0.360326	-9.336098	3.253772	0.000013	0.016871	0.003694	-0.018555	0.981934	0.044678	0.581906	-0.421313	0.387370	-0.577776
17436		0.267075	-9.163292	3.417579	0.017116	-0.015995	-0.004577	-0.021484	0.976562	0.042236	0.581979	-0.421336	0.387233	-0.577777
17437		0.339377	-9.071931	3.347215	0.029548	-0.033840	-0.006624	-0.019775	0.983887	0.046143	0.582101	-0.421365	0.386924	-0.577841
17438		0.428907	-9.110445	3.427223	0.009336	-0.017853	-0.014124	-0.010010	0.975586	0.039307	0.582090	-0.421496	0.386791	-0.577845
17439		0.442233	-9.215869	3.425876	0.009578	-0.003156	-0.010183	-0.017822	0.982666	0.044189	0.582188	-0.421412	0.386744	-0.577839
17440		0.401252	-9.174363	3.379410	-0.009433	0.016211	0.003003	-0.018066	0.977783	0.050781	0.582115	-0.421385	0.386923	-0.577812
17441		0.314382	-9.156169	3.406351	-0.010065	0.000373	-0.000033	-0.015137	0.982178	0.041260	0.582047	-0.421530	0.387054	-0.577687
17442		0.315839	-9.181540	3.364152	0.002052	-0.012084	-0.004763	-0.013184	0.980225	0.045898	0.582109	-0.421552	0.387003	-0.577644
17443		0.403937	-9.118515	3.356220	-0.027245	0.002256	-0.011543	-0.021484	0.990967	0.050781	0.581999	-0.421722	0.387173	-0.577516
17444		0.432730	-9.224193	3.277065	-0.018529	0.004880	-0.013658	-0.014160	0.986084	0.040283	0.581805	-0.421939	0.387288	-0.577475
17445		0.462508	-9.267031	3.329652	0.021369	0.004373	-0.014925	-0.017578	0.986572	0.047363	0.581856	-0.421793	0.387181	-0.577603
17446		0.391235	-9.259297	3.426469	0.028904	-0.005881	-0.001658	-0.024658	0.984863	0.047119	0.581974	-0.421730	0.387058	-0.577613
17447		0.265161	-9.148097	3.426402	-0.002303	-0.002463	0.004146	-0.021973	0.985107	0.045654	0.581913	-0.421812	0.387092	-0.577592
17448		0.292415	-9.081669	3.358079	-0.028006	0.007084	-0.000025	-0.020264	0.984619	0.039795	0.581746	-0.421953	0.387285	-0.577527
17449		0.394795	-9.196844	3.300101	-0.033390	0.006899	-0.006940	-0.019043	0.983154	0.047363	0.581563	-0.422055	0.387452	-0.577525
17450		0.398273	-9.383248	3.291688	0.007042	0.008583	-0.011285	-0.019531	0.984375	0.048828	0.581490	-0.422047	0.387465	-0.577596
17451		0.341607	-9.309711	3.328592	0.045301	0.006577	-0.014684	-0.016357	0.992188	0.044434	0.581534	-0.421895	0.387278	-0.577787
17452		0.259896	-9.208736	3.501614	0.044767	0.004404	-0.011604	-0.015625	0.978271	0.046387	0.581657	-0.421690	0.387085	-0.577943
17453		0.311318	-9.101933	3.319439	0.013968	0.001636	0.003654	-0.019043	0.984131	0.046631	0.581736	-0.421617	0.387106	-0.577902
17454		0.381610	-9.185784	3.352969	0.006088	0.024848	0.007370	-0.012451	0.991211	0.039062	0.581700	-0.421482	0.387273	-0.577926
17455		0.297000	-9.212753	3.379652	0.010296	0.016764	0.008314	-0.018555	0.977295	0.041504	0.581804	-0.421247	0.387370	-0.577927
17456		0.343180	-9.171199	3.316342	0.013967	-0.000789	-0.000686	-0.015137	0.982666	0.044434	0.581842	-0.421161	0.387323	-0.577982
17457		0.384869	-9.110487	3.465436	0.032317	-0.020941	-0.004244	-0.012451	0.988525	0.038574	0.582028	-0.421121	0.387107	-0.577970
17458		0.478142	-9.116597	3.418457	0.015608	-0.018570	-0.006569	-0.022461	0.978760	0.038330	0.582184	-0.421085	0.386955	-0.577940
17459		0.486247	-9.176250	3.419620	-0.005135	0.002329	-0.001298	-0.019043	0.981689	0.041992	0.582107	-0.421073	0.386980	-0.578010
17460		0.485916	-9.156102	3.312553	-0.014247	0.010570	-0.003289	-0.020752	0.977783	0.043945	0.581995	-0.421101	0.387115	-0.578012
17461		0.354071	-9.161215	3.412727	-0.026751	0.021727	-0.000993	-0.015869	0.983398	0.034180	0.581786	-0.421153	0.387375	-0.578010
17462		0.219377	-9.239549	3.339591	-0.019769	-0.000258	0.001326	-0.016846	0.985596	0.037109	0.581772	-0.421139	0.387463	-0.577976
17463		0.316388	-9.236624	3.264653	-0.009424	-0.015261	-0.003349	-0.024414	0.979492	0.039795	0.581804	-0.421198	0.387423	-0.577927
17464		0.398098	-9.248370	3.334694	0.002700	-0.010837	-0.004389	-0.016846	0.976318	0.043213	0.581761	-0.421235	0.387331	-0.578005
17465		0.343484	-9.279325	3.384319	0.007365	0.005623	-0.004263	-0.015869	0.978760	0.041504	0.581753	-0.421179	0.387348	-0.578044
17466		0.295275	-9.259809	3.316711	0.013804	0.007917	-0.004536	-0.020020	0.985107	0.035400	0.581777	-0.421062	0.387336	-0.578112
17467		0.420201	-9.154046	3.448794	0.013329	0.000394	0.003288	-0.010986	0.981201	0.046387	0.581841	-0.420913	0.387266	-0.578202
17468		0.368678	-9.045266	3.434815	0.002454	-0.006088	0.003027	-0.014648	0.983398	0.044922	0.581946	-0.420938	0.387314	-0.578047
17469		0.300867	-9.089918	3.376274	-0.019699	0.003842	-0.006609	-0.013916	0.981201	0.045654	0.581859	-0.421049	0.387459	-0.577956
17470		0.355290	-9.174275	3.362689	-0.022105	-0.000109	-0.010258	-0.020752	0.980957	0.048828	0.581763	-0.421203	0.387589	-0.577853
17471		0.364935	-9.285232	3.278268	-0.000761	0.011859	-0.005502	-0.012695	0.980957	0.038574	0.581646	-0.421231	0.387682	-0.577889
17472		0.358154	-9.239155	3.348201	-0.002057	0.021535	-0.007920	-0.016602	0.989990	0.042725	0.581597	-0.421092	0.387791	-0.577966
17473		0.366265	-9.248332	3.365905	0.018211	0.009983	-0.001689	-0.022217	0.982666	0.049072	0.581642	-0.420950	0.387773	-0.578036
17474		0.340133	-9.236808	3.309161	0.008130	-0.011085	-0.007444	-0.023926	0.988770	0.044678	0.581608	-0.421061	0.387700	-0.578038
17475		0.369859	-9.196556	3.385589	0.014452	-0.007701	-0.007843	-0.012451	0.981445	0.039062	0.581587	-0.421088	0.387580	-0.578120
17476		0.423840	-9.143627	3.300193	0.012787	-0.011342	-0.007672	-0.015625	0.980713	0.045898	0.581698	-0.421045	0.387466	-0.578116
17477		0.349074	-9.129759	3.426210	0.004412	0.013935	-0.005497	-0.014404	0.991699	0.046631	0.581655	-0.420994	0.387550	-0.578140
17478		0.339609	-9.131236	3.365380	0.000540	-0.002667	-0.011772	-0.013916	0.982910	0.050781	0.581641	-0.421068	0.387554	-0.578097
17479		0.353005	-9.180559	3.342015	-0.021339	0.004742	-0.004407	-0.017822	0.981445	0.051025	0.581549	-0.421223	0.387752	-0.577945
17480		0.335265	-9.283782	3.379829	-0.019193	-0.010406	-0.003401	-0.016113	0.984131	0.045898	0.581481	-0.421450	0.387851	-0.577782
17481		0.315641	-9.315156	3.396931	0.003721	-0.008292	-0.001601	-0.022949	0.977051	0.044922	0.581527	-0.421487	0.387835	-0.577719
17482		0.365812	-9.172820	3.365528	0.020564	0.002417	-0.006464	-0.021240	0.983398	0.047852	0.581508	-0.421422	0.387741	-0.577849
17483		0.353905	-9.115711	3.355931	0.029249	0.005357	-0.001928	-0.014893	0.984619	0.046143	0.581546	-0.421310	0.387658	-0.577948
17484		0.422841	-9.210206	3.346074	0.008721	0.009770	0.007589	-0.015625	0.976562	0.045166	0.581603	-0.421208	0.387748	-0.577904
17485		0.367028	-9.191294	3.410678	-0.012061	0.006948	0.006129	-0.022461	0.980957	0.043945	0.581577	-0.421218	0.387913	-0.577812
17486		0.337923	-9.199628	3.340027	-0.016904	-0.007795	-0.004221	-0.017334	0.985107	0.044678	0.581479	-0.421372	0.387954	-0.577771
17487		0.439261	-9.230345	3.376439	0.017708	0.002659	-0.013947	-0.015625	0.989258	0.053223	0.581469	-0.421322	0.387868	-0.577875
17488		0.322435	-9.210505	3.372838	0.043454	0.014296	-0.010697	-0.020020	0.990479	0.033936	0.581522	-0.421155	0.387778	-0.578004
17489		0.294371	-9.222979	3.344955	0.025547	-0.003214	-0.003998	-0.012695	0.975830	0.045166	0.581619	-0.420984	0.387596	-0.578154
17490		0.367778	-9.166307	3.383015	0.014579	-0.001641	0.001990	-0.007568	0.983887	0.038818	0.581716	-0.420912	0.387593	-0.578110
17491		0.445942	-9.119201	3.503957	0.018375	0.001306	0.002154	-0.009277	0.981689	0.048828	0.581880	-0.420734	0.387574	-0.578088
17492		0.359926	-9.029787	3.442323	-0.018758	0.002256	0.004110	-0.016602	0.980713	0.037354	0.581878	-0.420828	0.387786	-0.577879
17493		0.367480	-9.109675	3.362258	-0.032723	0.000596	0.000453	-0.021973	0.987061	0.040039	0.581780	-0.420928	0.387956	-0.577791
17494		0.408201	-9.303619	3.290136	-0.021408	0.026797	-0.008817	-0.019287	0.983154	0.043701	0.581550	-0.420921	0.388150	-0.577896
17495		0.301197	-9.391956	3.278347	0.007843	0.017870	-0.006737	-0.026367	0.982422	0.043701	0.581474	-0.420827	0.388197	-0.578010
17496		0.330440	-9.300909	3.371710	0.026990	-0.009418	0.000601	-0.023682	0.991211	0.041748	0.581531	-0.420776	0.388018	-0.578110
17497		0.345532	-9.171758	3.443463	0.030152	-0.022018	0.004405	-0.019287	0.983887	0.047607	0.581692	-0.420735	0.387777	-0.578139
17498		0.356186	-9.066085	3.423426	0.001029	-0.011903	0.003467	-0.017334	0.984619	0.047363	0.581724	-0.420825	0.387775	-0.578043
17499		0.420549	-9.077335	3.382718	-0.027096	0.012778	0.000293	-0.013672	0.983154	0.044189	0.581578	-0.420931	0.388023	-0.577947
17500		0.301365	-9.136126	3.313883	-0.014428	0.021690	-0.002821	-0.025635	0.984619	0.039551	0.581470	-0.420897	0.388237	-0.577936
17501		0.282343	-9.199458	3.325227	0.003472	0.001198	-0.012228	-0.021973	0.980957	0.036377	0.581372	-0.420914	0.388156	-0.578077
17502		0.351289	-9.211946	3.402534	0.006388	-0.011511	-0.009697	-0.017822	0.980225	0.045898	0.581375	-0.420928	0.388011	-0.578161
17503		0.375855	-9.327621	3.349667	-0.003042	-0.009915	-0.009371	-0.017578	0.982422	0.042725	0.581341	-0.421040	0.387989	-0.578129
17504		0.352188	-9.312538	3.370756	0.000909	0.003482	-0.000669	-0.015381	0.982422	0.045410	0.581334	-0.421013	0.388027	-0.578130
17505		0.300276	-9.210741	3.391871	0.015156	0.009659	0.002972	-0.014160	0.982910	0.040771	0.581382	-0.420888	0.388062	-0.578149
17506		0.327703	-9.091945	3.345137	0.031450	0.004053	0.008521	-0.015381	0.982910	0.045898	0.581555	-0.420655	0.387991	-0.578193
17507		0.318589	-9.055665	3.373904	0.017818	-0.012566	-0.006482	-0.020264	0.978760	0.045654	0.581632	-0.420665	0.387876	-0.578184
17508		0.351326	-9.112081	3.430202	-0.012628	-0.011647	-0.007874	-0.011963	0.979492	0.034424	0.581555	-0.420840	0.387890	-0.578125
17509		0.520070	-9.161424	3.392830	-0.030238	0.008490	-0.007174	-0.018555	0.989014	0.041748	0.581454	-0.420882	0.388059	-0.578082
17510		0.401400	-9.194970	3.365456	-0.010414	0.001173	-0.004767	-0.010986	0.976074	0.045410	0.581392	-0.420934	0.388114	-0.578070
17511		0.395605	-9.256601	3.371437	0.005275	0.013021	-0.004884	-0.023438	0.981934	0.046387	0.581386	-0.420853	0.388199	-0.578078
17512		0.319513	-9.228870	3.427320	0.015779	0.020511	-0.006028	-0.018555	0.985352	0.034912	0.581293	-0.420739	0.388224	-0.578238
17513		0.280656	-9.237397	3.300149	0.016581	-0.008229	-0.004165	-0.016357	0.986328	0.045166	0.581380	-0.420652	0.388071	-0.578316
17514		0.358589	-9.227008	3.334457	0.011672	-0.005652	-0.000871	-0.016113	0.983398	0.043213	0.581440	-0.420637	0.388030	-0.578295
17515		0.313208	-9.134667	3.438462	-0.000548	-0.009171	-0.003283	-0.021484	0.985107	0.040527	0.581462	-0.420692	0.388013	-0.578244
17516		0.377506	-9.119716	3.441359	0.002795	0.002679	-0.001604	-0.014893	0.979980	0.044189	0.581437	-0.420665	0.388010	-0.578291
17517		0.347665	-9.108611	3.450426	0.007616	0.008025	-0.001982	-0.007812	0.984131	0.035156	0.581443	-0.420596	0.388052	-0.578307
17518		0.356327	-9.225841	3.403903	-0.001005	0.018740	-0.000427	-0.020508	0.986084	0.038818	0.581473	-0.420425	0.388169	-0.578323
17519		0.377067	-9.252511	3.337651	-0.003525	0.039586	0.002495	-0.015625	0.988770	0.044434	0.581336	-0.420224	0.388385	-0.578462
17520		0.338077	-9.181723	3.345590	0.005249	0.015610	0.002777	-0.013428	0.987549	0.043945	0.581328	-0.420120	0.388487	-0.578477
17521		0.337189	-9.188188	3.381866	0.007797	0.001600	0.002901	-0.026611	0.985596	0.044922	0.581391	-0.420061	0.388514	-0.578438
17522		0.267953	-9.282670	3.309951	0.007501	0.009116	-0.002108	-0.012939	0.979004	0.043945	0.581306	-0.420033	0.388521	-0.578538
17523		0.325161	-9.220580	3.384981	0.022767	-0.008300	-0.006710	-0.012939	0.986816	0.043701	0.581405	-0.419980	0.388399	-0.578560
17524		0.380106	-9.143883	3.458213	0.029594	-0.004837	-0.007891	-0.024414	0.985596	0.044189	0.581514	-0.419880	0.388255	-0.578619
17525		0.411246	-9.139895	3.382680	0.011956	-0.005847	-0.006239	-0.021484	0.986084	0.042480	0.581491	-0.419909	0.388162	-0.578684
17526		0.375748	-9.100957	3.384876	-0.000862	0.003201	0.000388	-0.020996	0.984131	0.034668	0.581452	-0.419914	0.388201	-0.578694
17527		0.360056	-9.121259	3.379761	-0.016848	0.003557	0.000850	-0.017578	0.978760	0.051758	0.581386	-0.419940	0.388281	-0.578687
17528		0.318338	-9.177439	3.378393	-0.023156	0.019023	-0.000744	-0.013184	0.981201	0.036865	0.581205	-0.420025	0.388561	-0.578619
17529		0.371527	-9.185623	3.423462	-0.006290	-0.001273	-0.001911	-0.022461	0.980469	0.050049	0.581225	-0.420017	0.388592	-0.578584
17530		0.354294	-9.140984	3.432407	0.010966	0.000872	-0.001638	-0.007324	0.981689	0.041016	0.581194	-0.420028	0.388587	-0.578611
17531		0.326019	-9.244468	3.413441	0.002254	0.010091	-0.007889	-0.010254	0.989014	0.043457	0.581202	-0.419951	0.388651	-0.578615
17532		0.371248	-9.304416	3.316609	-0.003386	0.019341	-0.002054	-0.014893	0.980713	0.040527	0.581163	-0.419862	0.388810	-0.578612
17533		0.337671	-9.279571	3.321867	0.008940	0.002916	0.002491	-0.018311	0.985840	0.045410	0.581219	-0.419775	0.388814	-0.578617
17534		0.334610	-9.182154	3.343121	0.026760	-0.023796	0.003384	-0.020264	0.983887	0.051514	0.581391	-0.419772	0.388619	-0.578577
17535		0.317674	-9.110652	3.397336	0.031012	-0.034453	-0.003313	-0.012451	0.981445	0.038818	0.581548	-0.419868	0.388352	-0.578529
17536		0.346334	-9.037108	3.481599	0.016696	-0.011583	-0.005034	-0.010498	0.985596	0.042725	0.581657	-0.419825	0.388226	-0.578535
17537		0.399147	-9.150459	3.349988	-0.020200	0.010707	0.000507	-0.018311	0.986572	0.041748	0.581592	-0.419855	0.388432	-0.578440
17538		0.344714	-9.272713	3.341689	-0.026712	0.042180	0.008050	-0.015137	0.980957	0.036377	0.581395	-0.419758	0.388814	-0.578452
17539		0.256026	-9.115551	3.369548	-0.008720	0.023357	0.009801	-0.016846	0.986328	0.041016	0.581364	-0.419613	0.389007	-0.578459
17540		0.288197	-9.153837	3.435223	0.007943	-0.018656	-0.001619	-0.018555	0.984131	0.043945	0.581449	-0.419661	0.388891	-0.578417
17541		0.368412	-9.244461	3.371042	0.020875	-0.014483	-0.012138	-0.013428	0.989990	0.038818	0.581494	-0.419684	0.388704	-0.578480
17542		0.397024	-9.297120	3.382439	0.025153	-0.001719	-0.018808	-0.019775	0.979736	0.031738	0.581529	-0.419600	0.388530	-0.578623
17543		0.388332	-9.196899	3.422005	0.005372	-0.016194	-0.010143	-0.014404	0.980957	0.042969	0.581563	-0.419633	0.388361	-0.578678
17544		0.371319	-9.024731	3.386472	-0.025285	-0.018179	-0.000408	-0.013428	0.982422	0.039062	0.581544	-0.419846	0.388435	-0.578493
17545		0.373151	-9.064540	3.413065	-0.007127	0.004049	-0.003833	-0.022461	0.981445	0.034424	0.581519	-0.419846	0.388498	-0.578476
17546		0.356455	-9.368976	3.257166	0.004294	0.024311	0.001722	-0.019287	0.977783	0.043701	0.581452	-0.419672	0.388574	-0.578618
17547		0.316272	-9.429755	3.231444	0.050370	0.031076	0.007634	-0.016602	0.982422	0.032227	0.581544	-0.419270	0.388537	-0.578842
17548		0.231382	-9.283493	3.457140	0.073407	-0.012683	0.003911	-0.017334	0.982910	0.045166	0.581890	-0.418911	0.388118	-0.579035
17549		0.237524	-9.179450	3.431218	0.055841	-0.045043	0.002657	-0.015869	0.980469	0.042480	0.582223	-0.418881	0.387691	-0.579009
17550		0.347006	-9.058038	3.569810	0.035093	-0.022221	0.002193	-0.023193	0.982178	0.034912	0.582421	-0.418828	0.387467	-0.578998
17551		0.481207	-8.971099	3.424634	0.007825	0.008467	0.005919	-0.023926	0.983643	0.033936	0.582419	-0.418726	0.387481	-0.579064
17552		0.392995	-8.959697	3.486671	-0.025370	0.032169	0.003799	-0.011963	0.984619	0.043701	0.582213	-0.418675	0.387756	-0.579124
17553		0.382427	-9.117208	3.422595	-0.034802	0.033751	0.004115	-0.017334	0.981201	0.041260	0.582014	-0.418681	0.388165	-0.579046
17554		0.322529	-9.267534	3.245279	-0.007698	0.014036	-0.002479	-0.018555	0.984619	0.037109	0.581917	-0.418670	0.388294	-0.579064
17555		0.263146	-9.354888	3.381626	0.017196	-0.009080	-0.001457	-0.010986	0.989258	0.042969	0.581995	-0.418627	0.388168	-0.579101
17556		0.265177	-9.316627	3.470724	0.022090	-0.028076	0.001622	-0.015869	0.986572	0.028809	0.582191	-0.418652	0.387991	-0.579005
17557		0.346719	-9.134400	3.446805	0.017062	-0.029131	-0.000569	-0.014160	0.984863	0.034668	0.582380	-0.418656	0.387740	-0.578980
17558		0.409356	-8.977801	3.521863	0.028744	-0.011175	0.001882	-0.018555	0.986328	0.044922	0.582552	-0.418537	0.387565	-0.579011
17559		0.430216	-8.946375	3.504745	-0.009107	0.008042	-0.005355	-0.012939	0.982178	0.029541	0.582430	-0.418599	0.387682	-0.579010
17560		0.373724	-9.105235	3.477835	-0.038551	0.028020	-0.007025	-0.013672	0.986572	0.042725	0.582223	-0.418620	0.387967	-0.579013
17561		0.311166	-9.325613	3.272048	-0.048366	0.018883	0.003595	-0.009033	0.983643	0.040039	0.582013	-0.418763	0.388354	-0.578860
17562		0.261815	-9.411906	3.281195	-0.021154	0.017108	-0.001573	-0.013184	0.988525	0.040039	0.581919	-0.418771	0.388577	-0.578799
17563		0.212839	-9.305204	3.381540	0.034849	-0.010486	-0.007447	-0.015869	0.983154	0.042480	0.582057	-0.418667	0.388363	-0.578880
17564		0.294361	-9.115836	3.509007	0.057907	-0.030814	-0.011142	-0.017334	0.981689	0.036621	0.582297	-0.418584	0.387934	-0.578986
17565		0.440130	-9.006387	3.505170	0.030942	-0.005335	-0.001393	-0.016357	0.994873	0.031006	0.582416	-0.418455	0.387765	-0.579072
17566		0.383590	-9.099638	3.428435	-0.009597	0.024276	0.009130	-0.020996	0.979492	0.042725	0.582372	-0.418315	0.387950	-0.579094
17567		0.329804	-9.234032	3.309395	-0.028807	0.028236	0.005032	-0.013184	0.979980	0.040283	0.582161	-0.418336	0.388276	-0.579073
17568		0.302802	-9.359514	3.325995	-0.006157	0.018774	-0.002803	-0.020508	0.981689	0.041992	0.582077	-0.418284	0.388424	-0.579095
17569		0.267645	-9.269967	3.344136	0.023471	0.004236	-0.004606	-0.013916	0.987793	0.033203	0.582087	-0.418190	0.388342	-0.579209
17570		0.308418	-9.111856	3.444404	0.027879	-0.014978	-0.004064	-0.018311	0.985840	0.041748	0.582244	-0.418106	0.388123	-0.579258
17571		0.406191	-9.030587	3.433412	0.032943	-0.009502	-0.003184	-0.013184	0.985352	0.046143	0.582349	-0.418023	0.387943	-0.579333
17572		0.405028	-9.061248	3.496492	-0.005599	0.004205	-0.006179	-0.012695	0.986328	0.034668	0.582273	-0.418080	0.388042	-0.579302
17573		0.386755	-9.067743	3.487851	-0.014465	0.017082	-0.004931	-0.013428	0.991943	0.039551	0.582174	-0.418058	0.388194	-0.579315
17574		0.352701	-9.177055	3.453100	-0.016781	0.012336	-0.001781	-0.012207	0.985352	0.037842	0.582077	-0.418082	0.388366	-0.579279
17575		0.265339	-9.266191	3.299985	-0.018584	-0.008939	0.003641	-0.016846	0.978760	0.043213	0.582083	-0.418190	0.388455	-0.579136
17576		0.254049	-9.269856	3.419533	-0.001269	-0.002509	-0.000725	-0.010742	0.985107	0.041748	0.582066	-0.418234	0.388487	-0.579101
17577		0.304156	-9.224130	3.434459	0.005338	-0.015889	-0.003462	-0.009033	0.987549	0.033447	0.582138	-0.418294	0.388423	-0.579028
17578		0.359280	-9.166984	3.428158	0.012474	0.001228	-0.000652	-0.007812	0.979492	0.041016	0.582228	-0.418185	0.388383	-0.579043
17579		0.396156	-9.071916	3.465536	0.005920	-0.000013	-0.000507	-0.012451	0.980469	0.035889	0.582283	-0.418150	0.388406	-0.578998
17580		0.346889	-9.097657	3.345214	-0.004622	0.004644	-0.001086	-0.020996	0.980957	0.038574	0.582273	-0.418133	0.388465	-0.578980
17581		0.319811	-9.171398	3.446034	-0.009419	0.010984	-0.012413	-0.011719	0.976807	0.035400	0.582118	-0.418179	0.388527	-0.579061
17582		0.334778	-9.163672	3.403665	-0.008206	0.002242	-0.013405	-0.009766	0.970703	0.042725	0.582052	-0.418227	0.388546	-0.579080
17583		0.389305	-9.201905	3.327884	-0.014536	-0.017600	-0.006622	-0.012451	0.989502	0.041016	0.582052	-0.418411	0.388560	-0.578938
17584		0.337637	-9.221565	3.420823	0.005439	-0.004951	-0.008397	-0.016113	0.984863	0.037354	0.582061	-0.418433	0.388519	-0.578940
17585		0.308508	-9.240868	3.308803	0.010639	-0.000724	-0.010708	-0.013428	0.977783	0.038818	0.582055	-0.418411	0.388439	-0.579016
17586		0.331969	-9.185581	3.447860	0.002448	-0.005780	-0.013703	-0.012939	0.981445	0.042480	0.582033	-0.418466	0.388378	-0.579040
17587		0.313196	-9.139715	3.524963	0.020258	-0.008701	-0.006126	-0.016357	0.983887	0.043213	0.582112	-0.418438	0.388260	-0.579059
17588		0.312902	-9.149991	3.483724	0.026919	-0.013101	-0.008157	-0.020508	0.984619	0.035645	0.582197	-0.418418	0.388079	-0.579109
17589		0.312213	-9.153905	3.406747	0.013543	0.005603	-0.006851	-0.014648	0.980957	0.036133	0.582181	-0.418343	0.388015	-0.579222
17590		0.349222	-9.224215	3.400694	-0.000483	0.025493	-0.001575	-0.015137	0.981445	0.038330	0.582107	-0.418214	0.388152	-0.579298
17591		0.336967	-9.239597	3.410321	0.002764	0.031005	0.007017	-0.014160	0.988770	0.041260	0.582059	-0.418026	0.388338	-0.579358
17592		0.258496	-9.205465	3.429701	0.008081	-0.003428	0.012267	-0.012939	0.980957	0.033203	0.582160	-0.417971	0.388365	-0.579278
17593		0.271881	-9.139569	3.370842	0.018300	-0.009700	0.003783	-0.020752	0.988770	0.037842	0.582306	-0.417887	0.388250	-0.579268
17594		0.349717	-9.046016	3.426786	0.011112	-0.007353	-0.011181	-0.015137	0.977783	0.038086	0.582290	-0.417914	0.388132	-0.579345
17595		0.468984	-9.107187	3.385393	-0.004508	-0.005739	-0.008308	-0.017578	0.982422	0.041992	0.582258	-0.417991	0.388121	-0.579327
17596		0.398155	-9.215784	3.448721	-0.018454	0.006378	-0.002602	-0.019287	0.983643	0.033447	0.582143	-0.418080	0.388269	-0.579281
17597		0.290435	-9.266517	3.406429	-0.016049	0.007922	-0.003304	-0.011230	0.991211	0.034912	0.582045	-0.418117	0.388365	-0.579288
17598		0.300901	-9.244969	3.360580	-0.001176	0.008424	-0.005664	-0.019531	0.981934	0.043213	0.582023	-0.418071	0.388410	-0.579313
17599		0.293707	-9.273773	3.374759	0.018886	0.003738	0.002397	-0.015137	0.982910	0.039062	0.582058	-0.417982	0.388380	-0.579362
17600		0.287545	-9.118355	3.442966	0.019721	-0.003866	0.003329	-0.015137	0.985107	0.035889	0.582159	-0.417895	0.388305	-0.579373
17601		0.304155	-9.040487	3.429347	0.013476	-0.005486	-0.005230	-0.018799	0.987305	0.044678	0.582211	-0.417862	0.388210	-0.579409
17602		0.343574	-9.053975	3.402798	-0.009013	-0.002188	-0.009263	-0.011475	0.980957	0.035889	0.582107	-0.417979	0.388258	-0.579397
17603		0.413180	-9.187782	3.486065	-0.010207	0.008678	-0.010599	-0.011230	0.985352	0.039062	0.582025	-0.418002	0.388335	-0.579411
17604		0.403262	-9.266934	3.366072	-0.016691	0.013671	0.002678	-0.011230	0.985596	0.041748	0.581959	-0.418000	0.388528	-0.579349
17605		0.285348	-9.282277	3.349587	-0.003781	0.001598	0.001858	-0.019531	0.978027	0.032959	0.581966	-0.418007	0.388608	-0.579284
17606		0.261196	-9.215789	3.388384	0.032943	-0.004733	0.002168	-0.013916	0.986572	0.043213	0.582109	-0.417850	0.388420	-0.579380
17607		0.302210	-9.166381	3.423942	-0.004393	0.000182	-0.001830	-0.015625	0.984619	0.030029	0.582079	-0.417891	0.388485	-0.579335
17608		0.339400	-9.129089	3.294674	-0.029427	0.003185	-0.001974	-0.008789	0.979492	0.037842	0.581985	-0.417991	0.388622	-0.579267
17609		0.441431	-9.148489	3.373298	-0.012539	0.004089	-0.004121	-0.019043	0.985840	0.033203	0.581949	-0.418029	0.388721	-0.579209
17610		0.345706	-9.145085	3.411417	0.027296	-0.011786	-0.005725	-0.016846	0.985352	0.032227	0.582057	-0.417956	0.388502	-0.579301
17611		0.286105	-9.153428	3.492662	0.026437	-0.015587	-0.011695	-0.014404	0.976807	0.038574	0.582158	-0.417918	0.388250	-0.579395
17612		0.348236	-9.153842	3.374263	0.021877	-0.016277	-0.008013	-0.012207	0.988525	0.038574	0.582258	-0.417918	0.388064	-0.579419
17613		0.401704	-9.230741	3.512161	-0.019407	0.000915	0.003728	-0.011963	0.983398	0.040039	0.582223	-0.417990	0.388209	-0.579305
17614		0.315434	-9.226091	3.425035	-0.020929	0.003022	0.007070	-0.011719	0.983643	0.038330	0.582191	-0.418055	0.388387	-0.579171
17615		0.293179	-9.218954	3.412410	-0.004388	0.002465	-0.000822	-0.011963	0.987305	0.037354	0.582186	-0.418060	0.388447	-0.579133
17616		0.276633	-9.130186	3.472336	0.016010	-0.000458	-0.003787	-0.013916	0.989502	0.036377	0.582248	-0.417984	0.388378	-0.579171
17617		0.355202	-9.062328	3.486516	0.006809	-0.003363	-0.004212	-0.007568	0.986328	0.033447	0.582277	-0.417968	0.388332	-0.579184
17618		0.425175	-9.075015	3.496138	-0.009516	0.011606	0.000881	-0.014160	0.990234	0.031250	0.582266	-0.417921	0.388455	-0.579147
17619		0.453061	-9.200171	3.343047	-0.021817	0.025092	0.005388	-0.013672	0.981445	0.034912	0.582162	-0.417856	0.388697	-0.579137
17620		0.315498	-9.241854	3.423724	-0.019151	0.024309	0.001626	-0.016846	0.979004	0.029541	0.582046	-0.417810	0.388921	-0.579136
17621		0.256123	-9.233872	3.325177	-0.019084	0.007405	-0.001966	-0.024414	0.977051	0.043457	0.581967	-0.417841	0.389020	-0.579126
17622		0.307439	-9.246445	3.291072	-0.000686	0.010929	-0.002109	-0.010498	0.979980	0.041992	0.581863	-0.417832	0.389091	-0.579189
17623		0.326471	-9.239669	3.300432	0.028235	-0.003888	-0.007710	-0.012451	0.978516	0.037842	0.581957	-0.417743	0.388950	-0.579254
17624		0.279150	-9.170166	3.433425	0.035355	-0.012471	-0.005875	-0.010742	0.987061	0.038574	0.582114	-0.417645	0.388719	-0.579322
17625		0.341166	-9.063668	3.492952	0.010941	-0.015068	-0.008684	-0.012207	0.976562	0.045898	0.582184	-0.417686	0.388593	-0.579307
17626		0.388144	-8.978673	3.544390	-0.022124	-0.009264	-0.010990	-0.012695	0.983887	0.035889	0.582083	-0.417901	0.388674	-0.579199
17627		0.337348	-9.132437	3.413807	-0.043576	0.005564	-0.011554	-0.005859	0.987061	0.038574	0.581882	-0.418108	0.388885	-0.579109
17628		0.298651	-9.245735	3.248019	-0.023058	0.020283	-0.019759	-0.017578	0.978027	0.045166	0.581695	-0.418167	0.389060	-0.579137
17629		0.227004	-9.290129	3.323208	-0.000154	-0.003016	-0.015588	-0.014160	0.977783	0.038818	0.581610	-0.418259	0.389030	-0.579176
17630		0.272940	-9.318759	3.415742	0.008205	-0.015781	-0.012728	-0.017578	0.979980	0.036621	0.581644	-0.418333	0.388888	-0.579183
17631		0.306630	-9.234159	3.476290	0.022338	-0.004018	-0.010540	-0.014404	0.985840	0.043457	0.581689	-0.418270	0.388730	-0.579291
17632		0.375085	-9.174646	3.465664	0.013479	0.020097	-0.007586	-0.012207	0.982422	0.038574	0.581635	-0.418144	0.388777	-0.579404
17633		0.452546	-9.245718	3.296079	0.009485	0.025690	0.008450	-0.012939	0.993408	0.038086	0.581651	-0.417939	0.388910	-0.579446
17634		0.329409	-9.258855	3.351560	0.033840	0.017213	0.012881	-0.014648	0.986328	0.038574	0.581795	-0.417638	0.388899	-0.579527
17635		0.214742	-9.159106	3.417639	0.037419	-0.021784	0.000435	-0.010742	0.990723	0.042969	0.582006	-0.417559	0.388637	-0.579547
17636		0.269589	-8.992645	3.475839	0.007219	-0.037065	-0.010092	-0.018066	0.976074	0.035400	0.582116	-0.417744	0.388438	-0.579437
17637		0.397283	-8.955122	3.512215	-0.019215	-0.016807	-0.016490	-0.015381	0.985840	0.042969	0.582024	-0.417969	0.388397	-0.579394
17638		0.454643	-9.058856	3.421627	-0.044303	0.014326	-0.011349	-0.015381	0.988770	0.032959	0.581763	-0.418168	0.388681	-0.579323
17639		0.394712	-9.331591	3.316902	-0.033454	0.046177	0.003289	-0.013428	0.987793	0.044922	0.581534	-0.418072	0.389077	-0.579356
17640		0.249249	-9.351667	3.427822	0.019261	0.027895	0.014895	-0.016357	0.986084	0.033691	0.581584	-0.417810	0.389217	-0.579400
17641		0.190249	-9.336059	3.416447	0.035755	-0.011593	0.009992	-0.013916	0.986084	0.039062	0.581809	-0.417641	0.389021	-0.579428
17642		0.305222	-9.248049	3.413836	0.038384	-0.030476	0.001507	-0.020508	0.980225	0.045654	0.582059	-0.417595	0.388718	-0.579414
17643		0.497390	-8.984445	3.485756	0.032129	-0.025084	-0.000715	-0.012695	0.979492	0.030762	0.582210	-0.417600	0.388480	-0.579419
17644		0.474772	-8.987567	3.432407	-0.002714	0.005959	-0.004344	-0.006104	0.980713	0.037109	0.582196	-0.417572	0.388503	-0.579437
17645		0.353747	-9.046842	3.430952	-0.036261	0.020643	-0.005180	-0.015381	0.990723	0.040771	0.582029	-0.417651	0.388792	-0.579354
17646		0.384034	-9.098296	3.446949	-0.035837	0.033059	-0.004394	-0.017822	0.983643	0.040283	0.581773	-0.417686	0.389140	-0.579352
17647		0.357961	-9.218111	3.426462	-0.026872	0.017154	0.000152	-0.010254	0.982178	0.037842	0.581614	-0.417743	0.389374	-0.579313
17648		0.286876	-9.320574	3.269703	-0.026842	0.023853	-0.000156	-0.013184	0.982910	0.042725	0.581476	-0.417747	0.389640	-0.579271
17649		0.260536	-9.363443	3.307918	-0.007367	0.010764	-0.002109	-0.016113	0.985840	0.040527	0.581413	-0.417746	0.389753	-0.579258
17650		0.225606	-9.287404	3.395761	0.017273	-0.009346	-0.008077	-0.019531	0.985107	0.033203	0.581464	-0.417737	0.389617	-0.579305
17651		0.296559	-9.120396	3.380765	0.017578	-0.023708	-0.006059	-0.020996	0.982422	0.042480	0.581574	-0.417770	0.389384	-0.579328
17652		0.336733	-9.026391	3.533559	0.004449	-0.026066	-0.002454	-0.008545	0.986328	0.039062	0.581633	-0.417902	0.389250	-0.579263
17653		0.342298	-9.059616	3.459608	-0.015602	-0.000853	-0.001472	-0.010986	0.980469	0.039795	0.581611	-0.417974	0.389346	-0.579168
17654		0.363746	-9.181972	3.324608	-0.023788	0.024210	-0.004819	-0.018066	0.982422	0.035400	0.581452	-0.417984	0.389587	-0.579159
17655		0.249809	-9.294674	3.288406	-0.017384	0.022152	-0.003781	-0.014893	0.976807	0.036133	0.581306	-0.417963	0.389762	-0.579203
17656		0.292872	-9.324217	3.378513	-0.007788	-0.001644	-0.002907	-0.012207	0.990479	0.044434	0.581290	-0.418006	0.389784	-0.579173
17657		0.297067	-9.198558	3.383198	0.000332	-0.016803	-0.002321	-0.009521	0.989746	0.037598	0.581342	-0.418100	0.389734	-0.579087
17658		0.364555	-9.171019	3.432233	0.018238	-0.022601	-0.009035	-0.022461	0.981201	0.040771	0.581473	-0.418130	0.389523	-0.579076
17659		0.371313	-9.113778	3.347428	0.009266	-0.011244	-0.015591	-0.015625	0.981934	0.030762	0.581437	-0.418202	0.389381	-0.579155
17660		0.457024	-9.123914	3.353150	0.012181	0.001779	-0.012032	-0.010010	0.983887	0.042480	0.581446	-0.418144	0.389272	-0.579261
17661		0.330619	-9.167029	3.419580	0.009610	0.006194	-0.002798	-0.021973	0.988525	0.039062	0.581471	-0.418079	0.389282	-0.579276
17662		0.292695	-9.286486	3.409931	-0.002913	-0.006175	-0.000536	-0.023193	0.982666	0.040283	0.581454	-0.418129	0.389274	-0.579263
17663		0.330809	-9.203617	3.335530	0.022541	-0.003576	-0.002604	-0.011963	0.980713	0.035156	0.581501	-0.418057	0.389150	-0.579351
17664		0.364668	-9.100373	3.406260	0.017785	-0.002418	-0.005845	-0.012695	0.988770	0.035645	0.581578	-0.417985	0.389038	-0.579400
17665		0.280330	-9.113622	3.430047	0.009925	0.010401	-0.009496	-0.019775	0.980957	0.041992	0.581561	-0.417902	0.389018	-0.579492
17666		0.267044	-9.159206	3.384963	-0.012447	0.019421	-0.010395	-0.019043	0.981689	0.041992	0.581383	-0.417917	0.389162	-0.579562
17667		0.284191	-9.235403	3.436766	-0.001865	0.007795	-0.016150	-0.014404	0.993164	0.039795	0.581257	-0.417953	0.389179	-0.579651
17668		0.343224	-9.242547	3.417710	0.008304	-0.002541	-0.016657	-0.013184	0.984375	0.039307	0.581223	-0.417974	0.389095	-0.579727
17669		0.381640	-9.140447	3.420006	0.014151	-0.006628	-0.009191	-0.015869	0.979736	0.046631	0.581269	-0.417963	0.388987	-0.579761
17670		0.340055	-9.213107	3.415015	0.020505	-0.003803	0.000515	-0.023438	0.981689	0.041016	0.581344	-0.417904	0.388921	-0.579773
17671		0.358840	-9.212779	3.276092	-0.008499	0.008970	0.011747	-0.006836	0.978271	0.042480	0.581310	-0.417879	0.389065	-0.579727
17672		0.287593	-9.252369	3.365864	0.005280	0.021585	0.009194	-0.010986	0.983154	0.039795	0.581344	-0.417721	0.389220	-0.579704
17673		0.223525	-9.279840	3.436148	0.028712	-0.014855	-0.006851	-0.016846	0.987305	0.036133	0.581485	-0.417673	0.389015	-0.579735
17674		0.286803	-9.071215	3.528473	0.044464	-0.022063	-0.011589	-0.009277	0.983398	0.035156	0.581662	-0.417594	0.388663	-0.579850
17675		0.332725	-8.988903	3.505878	0.025680	-0.010503	-0.020271	-0.021973	0.981934	0.040039	0.581731	-0.417570	0.388435	-0.579951
17676		0.408141	-9.088712	3.351099	0.022667	-0.002049	-0.018237	-0.012695	0.981934	0.029541	0.581702	-0.417544	0.388274	-0.580106
17677		0.447934	-9.158590	3.345746	-0.003102	-0.004325	-0.007450	-0.014160	0.979736	0.044434	0.581714	-0.417579	0.388236	-0.580094
17678		0.366810	-9.282649	3.419272	-0.011095	0.006988	0.004517	-0.012695	0.981689	0.036621	0.581673	-0.417605	0.388389	-0.580014
17679		0.336022	-9.234629	3.512778	0.004770	0.012398	0.005937	-0.014648	0.988281	0.032959	0.581705	-0.417498	0.388467	-0.580008
17680		0.269682	-9.204497	3.446536	0.011689	0.008130	0.005194	-0.016602	0.978271	0.041992	0.581767	-0.417369	0.388473	-0.580033
17681		0.349082	-9.193970	3.414313	0.019309	0.011495	-0.002159	-0.008789	0.983154	0.038330	0.581780	-0.417244	0.388464	-0.580116
17682		0.337089	-9.087000	3.418166	0.016307	0.003958	-0.007150	-0.006592	0.985596	0.032715	0.581825	-0.417166	0.388412	-0.580162
17683		0.400370	-9.075917	3.343868	0.021362	-0.004244	-0.012296	-0.009766	0.983643	0.036133	0.581911	-0.417100	0.388262	-0.580223
17684		0.380355	-9.080676	3.404509	-0.010283	-0.004583	-0.006661	-0.018799	0.982666	0.036621	0.581894	-0.417187	0.388292	-0.580158
17685		0.359881	-9.093117	3.497219	-0.021472	-0.001237	-0.007618	-0.011230	0.984619	0.041260	0.581782	-0.417327	0.388379	-0.580112
17686		0.417809	-9.235250	3.437236	-0.030976	0.016880	-0.010411	-0.017578	0.983398	0.033936	0.581588	-0.417438	0.388614	-0.580069
17687		0.301942	-9.328023	3.362853	-0.005758	0.007713	-0.002002	-0.015869	0.982910	0.032715	0.581543	-0.417427	0.388677	-0.580081
17688		0.200150	-9.335899	3.423567	0.025820	-0.000605	-0.001663	-0.016357	0.990967	0.031982	0.581647	-0.417296	0.388545	-0.580158
17689		0.244303	-9.216318	3.486185	0.033978	-0.024870	-0.005061	-0.021240	0.993164	0.034180	0.581837	-0.417250	0.388245	-0.580202
17690		0.359385	-9.032975	3.431756	0.013457	-0.011960	-0.001568	-0.020508	0.985352	0.035889	0.581901	-0.417242	0.388125	-0.580224
17691		0.441380	-9.055602	3.390854	-0.018454	0.010705	-0.003951	-0.007812	0.983154	0.036133	0.581772	-0.417295	0.388266	-0.580221
17692		0.348095	-9.194537	3.357550	-0.009099	0.021383	-0.006034	-0.018555	0.991943	0.035645	0.581688	-0.417247	0.388418	-0.580238
17693		0.334802	-9.196477	3.362435	-0.003475	0.005784	-0.004849	-0.015137	0.980713	0.045166	0.581631	-0.417247	0.388460	-0.580266
17694		0.386704	-9.150711	3.493839	0.024318	-0.019051	-0.007351	-0.009277	0.981201	0.040039	0.581735	-0.417270	0.388274	-0.580270
17695		0.361545	-9.190598	3.422085	0.011070	-0.020364	-0.003871	-0.008545	0.987549	0.037354	0.581852	-0.417332	0.388146	-0.580194
17696		0.384174	-9.191606	3.398174	-0.001787	-0.006988	0.001384	-0.015869	0.983643	0.034912	0.581913	-0.417364	0.388157	-0.580103
17697		0.405584	-9.149452	3.422410	-0.022052	0.012712	0.005835	-0.018555	0.983398	0.043945	0.581836	-0.417387	0.388358	-0.580029
17698		0.299998	-9.214799	3.384156	-0.007035	0.016610	0.002291	-0.021240	0.982178	0.036621	0.581750	-0.417358	0.388519	-0.580027
17699		0.281451	-9.189552	3.498533	0.011497	0.005428	-0.003739	-0.021729	0.984375	0.037598	0.581742	-0.417295	0.388486	-0.580103
17700		0.316151	-9.155794	3.477200	0.029481	-0.014630	-0.006346	-0.022217	0.985352	0.038086	0.581844	-0.417252	0.388265	-0.580180
17701		0.431364	-9.112256	3.421345	0.014008	-0.003077	-0.004992	-0.021484	0.989258	0.032227	0.581856	-0.417227	0.388182	-0.580241
17702		0.372839	-9.160723	3.346327	-0.004641	0.004619	-0.001103	-0.014160	0.983643	0.034668	0.581814	-0.417225	0.388221	-0.580259
17703		0.365496	-9.190359	3.358351	-0.007436	0.006484	0.002520	-0.013672	0.980225	0.038574	0.581800	-0.417216	0.388311	-0.580219
17704		0.293058	-9.159081	3.424219	-0.000665	0.005753	0.005975	-0.004639	0.979980	0.041504	0.581822	-0.417178	0.388390	-0.580171
17705		0.278227	-9.090467	3.522510	0.011091	-0.000126	-0.001503	-0.009277	0.981445	0.033691	0.581898	-0.417134	0.388378	-0.580135
17706		0.295076	-9.145987	3.471935	0.017570	0.001924	-0.008440	-0.008301	0.983154	0.041748	0.581955	-0.417055	0.388288	-0.580195
17707		0.400816	-9.201379	3.402571	0.001455	0.003236	-0.008127	-0.018555	0.983887	0.039307	0.581937	-0.417067	0.388314	-0.580187
17708		0.428960	-9.141152	3.370909	-0.002680	0.010201	-0.009010	-0.015137	0.990723	0.040771	0.581841	-0.417074	0.388370	-0.580241
17709		0.371104	-9.121234	3.500960	-0.013838	0.003952	-0.000529	-0.008789	0.989746	0.032227	0.581776	-0.417133	0.388490	-0.580182
17710		0.290391	-9.176948	3.480270	-0.048483	-0.001673	0.001116	-0.013672	0.982422	0.044922	0.581663	-0.417352	0.388733	-0.579977
17711		0.233679	-9.273360	3.279805	-0.043315	0.014020	0.003805	-0.009521	0.977295	0.042725	0.581486	-0.417503	0.389068	-0.579820
17712		0.230883	-9.318713	3.408281	0.000524	0.006757	-0.001096	-0.019775	0.984863	0.046387	0.581486	-0.417481	0.389132	-0.579792
17713		0.303602	-9.254009	3.411815	0.051874	-0.010047	-0.002728	-0.014893	0.980225	0.038818	0.581661	-0.417317	0.388863	-0.579916
17714		0.352954	-9.191864	3.364356	0.060772	-0.006872	0.003076	-0.015625	0.983154	0.040771	0.581919	-0.417052	0.388568	-0.580045
17715		0.369914	-9.106920	3.434505	0.025400	0.003005	0.004580	-0.011963	0.982178	0.036133	0.582019	-0.416913	0.388507	-0.580085
17716		0.331834	-8.991769	3.492988	-0.007820	0.003050	0.002430	-0.012451	0.979248	0.031006	0.582016	-0.416927	0.388589	-0.580024
17717		0.392843	-9.070936	3.312895	-0.017715	0.001888	-0.004145	-0.016113	0.980469	0.041016	0.581961	-0.417003	0.388671	-0.579969
17718		0.395662	-9.168626	3.474188	-0.029807	0.006300	-0.002412	-0.010010	0.984131	0.041504	0.581823	-0.417142	0.388866	-0.579877
17719		0.356718	-9.251236	3.431372	-0.018303	-0.013522	0.002929	-0.016602	0.983154	0.043457	0.581837	-0.417294	0.388937	-0.579706
17720		0.396151	-9.354265	3.417812	0.006007	-0.009882	0.002279	-0.021484	0.985107	0.035400	0.581892	-0.417326	0.388902	-0.579651
17721		0.325151	-9.372333	3.289816	0.035199	0.005081	0.007692	-0.006104	0.986084	0.039307	0.582025	-0.417111	0.388784	-0.579752
17722		0.282340	-9.222634	3.424955	0.030418	-0.009447	0.004091	-0.021729	0.977295	0.031006	0.582216	-0.416992	0.388643	-0.579740
17723		0.307063	-9.096419	3.409270	0.027254	-0.020147	0.003622	-0.009033	0.982910	0.031494	0.582391	-0.416945	0.388413	-0.579752
17724		0.340769	-8.955086	3.564531	0.004871	-0.013481	0.001705	-0.017090	0.979736	0.036377	0.582500	-0.416965	0.388338	-0.579678
17725		0.406689	-8.927506	3.612098	-0.003637	-0.001953	-0.002337	-0.017822	0.982910	0.031006	0.582483	-0.417008	0.388352	-0.579656
17726		0.379634	-9.007056	3.450410	-0.018082	0.002859	-0.005547	-0.017578	0.982910	0.027588	0.582392	-0.417094	0.388429	-0.579634
17727		0.394486	-9.222371	3.385314	-0.010612	0.023309	-0.006039	-0.015869	0.978271	0.046387	0.582268	-0.417036	0.388555	-0.579716
17728		0.297304	-9.398051	3.333650	-0.013090	0.006408	0.000969	-0.013428	0.983398	0.032471	0.582191	-0.417096	0.388700	-0.579653
17729		0.205237	-9.391579	3.381876	-0.007429	0.001914	0.000515	-0.015137	0.982178	0.032715	0.582185	-0.417112	0.388749	-0.579614
17730		0.189325	-9.195227	3.436118	0.014854	-0.017373	-0.003711	-0.013428	0.985107	0.037842	0.582291	-0.417129	0.388581	-0.579607
17731		0.349450	-9.028779	3.516311	0.005944	-0.013680	-0.006512	-0.016846	0.980225	0.026611	0.582335	-0.417191	0.388486	-0.579583
17732		0.432709	-9.000391	3.491687	0.003774	-0.008271	-0.001530	-0.010742	0.978271	0.043945	0.582391	-0.417199	0.388402	-0.579577
17733		0.471307	-9.127915	3.323417	0.004174	0.015397	0.000909	-0.011230	0.985840	0.037842	0.582370	-0.417121	0.388504	-0.579587
17734		0.375896	-9.253298	3.403767	-0.009660	0.017062	-0.000618	-0.020996	0.980713	0.035889	0.582296	-0.417089	0.388656	-0.579582
17735		0.275109	-9.288086	3.420364	-0.010031	0.006777	-0.003706	-0.009277	0.985596	0.032227	0.582208	-0.417125	0.388730	-0.579595
17736		0.288136	-9.210252	3.470398	0.002717	0.003471	-0.008412	-0.014648	0.993896	0.045166	0.582205	-0.417108	0.388710	-0.579623
17737		0.281618	-9.150077	3.469753	0.006470	-0.006926	-0.007614	-0.012695	0.984619	0.032227	0.582198	-0.417152	0.388667	-0.579627
17738		0.309703	-9.095757	3.474653	0.010076	-0.002527	-0.000947	-0.017090	0.985840	0.033447	0.582263	-0.417108	0.388606	-0.579635
17739		0.393329	-9.086856	3.373612	-0.001732	0.006235	-0.002590	-0.012207	0.986084	0.032959	0.582230	-0.417091	0.388639	-0.579658
17740		0.356417	-9.099715	3.357773	-0.017501	0.002154	0.000460	-0.017822	0.980713	0.046143	0.582190	-0.417155	0.388742	-0.579583
17741		0.277126	-9.212479	3.474378	-0.020978	0.007935	-0.004394	-0.012451	0.985596	0.044434	0.582046	-0.417260	0.388910	-0.579538
17742		0.281733	-9.310064	3.454225	-0.013913	0.007001	-0.006320	-0.011230	0.982422	0.039795	0.581944	-0.417330	0.389033	-0.579508
17743		0.297353	-9.278180	3.384724	-0.019228	0.006111	-0.003132	-0.017578	0.982422	0.034180	0.581860	-0.417408	0.389171	-0.579444
17744		0.320952	-9.178377	3.390472	0.016167	-0.012885	-0.008648	-0.014893	0.983643	0.042725	0.581924	-0.417417	0.389000	-0.579488
17745		0.416447	-9.102562	3.297325	0.018424	-0.001102	-0.005481	-0.011230	0.985596	0.035645	0.581962	-0.417364	0.388920	-0.579542
17746		0.406994	-9.080043	3.393078	-0.011547	0.011000	-0.002694	-0.014893	0.983643	0.041992	0.581899	-0.417370	0.389033	-0.579525
17747		0.308213	-9.110087	3.487764	-0.032945	0.008970	-0.003528	-0.013916	0.979980	0.044922	0.581737	-0.417510	0.389254	-0.579438
17748		0.218238	-9.187807	3.511501	-0.031656	-0.002209	-0.008825	-0.007080	0.980713	0.049072	0.581590	-0.417721	0.389403	-0.579333
17749		0.286168	-9.206055	3.321580	-0.028387	0.000723	-0.007895	-0.012939	0.983398	0.039795	0.581466	-0.417899	0.389575	-0.579214
17750		0.381481	-9.258487	3.334848	0.007067	-0.007321	-0.018383	-0.015869	0.987793	0.043457	0.581441	-0.417962	0.389460	-0.579272
17751		0.392662	-9.260258	3.318815	0.028576	-0.001807	-0.015405	-0.007324	0.984863	0.043945	0.581468	-0.417893	0.389289	-0.579409
17752		0.326922	-9.153310	3.493136	0.012392	-0.004602	-0.007118	-0.015625	0.979004	0.039551	0.581517	-0.417883	0.389224	-0.579410
17753		0.322316	-9.119739	3.567076	0.001222	0.004959	0.005050	-0.013428	0.986572	0.037354	0.581539	-0.417844	0.389275	-0.579382
17754		0.363155	-9.204666	3.379988	-0.023078	0.028237	0.007745	-0.015625	0.982178	0.036865	0.581422	-0.417791	0.389563	-0.579344
17755		0.269047	-9.230366	3.305242	-0.021420	0.016082	0.003855	-0.011719	0.979492	0.042236	0.581328	-0.417804	0.389764	-0.579295
17756		0.332780	-9.158498	3.286075	-0.006895	-0.007160	-0.004281	-0.015381	0.980469	0.041016	0.581323	-0.417893	0.389774	-0.579228
17757		0.387741	-9.170824	3.369912	0.020471	-0.012106	-0.010277	-0.020020	0.978516	0.036621	0.581391	-0.417894	0.389598	-0.579278
17758		0.387753	-9.194249	3.399299	0.026249	-0.004136	-0.007906	-0.017822	0.979736	0.037109	0.581458	-0.417816	0.389423	-0.579384
17759		0.344840	-9.241227	3.436010	0.012382	0.008945	-0.004428	-0.011719	0.984131	0.035400	0.581457	-0.417730	0.389396	-0.579466
17760		0.334814	-9.193080	3.390653	-0.005017	0.016858	-0.000832	-0.012939	0.986328	0.036377	0.581410	-0.417669	0.389505	-0.579483
17761		0.281707	-9.238548	3.442592	-0.002353	-0.004461	0.009821	-0.012695	0.985596	0.035889	0.581486	-0.417665	0.389538	-0.579387
17762		0.294388	-9.040412	3.417363	-0.004800	-0.012097	0.000722	-0.010498	0.981689	0.033203	0.581536	-0.417738	0.389512	-0.579302
17763		0.309313	-8.988585	3.425785	-0.009135	-0.012249	-0.007771	-0.009277	0.987305	0.042236	0.581546	-0.417855	0.389468	-0.579237
17764		0.341610	-9.139884	3.413722	-0.029599	0.011425	-0.012585	-0.015137	0.985352	0.033691	0.581367	-0.417988	0.389653	-0.579196
17765		0.386651	-9.283495	3.359352	-0.025221	0.015837	-0.008744	-0.010254	0.984131	0.045166	0.581207	-0.418051	0.389817	-0.579201
17766		0.408352	-9.297942	3.404513	0.012462	0.003601	0.000365	-0.012695	0.981445	0.033447	0.581257	-0.417983	0.389810	-0.579205
17767		0.283130	-9.272550	3.496123	0.016068	-0.012252	0.004665	-0.011719	0.981689	0.036621	0.581409	-0.417938	0.389684	-0.579170
17768		0.257428	-9.192591	3.347713	0.000532	-0.006787	-0.003789	-0.004150	0.982178	0.042480	0.581444	-0.417976	0.389641	-0.579137
17769		0.339744	-9.069015	3.271988	-0.016391	-0.000471	-0.012095	-0.016602	0.985107	0.042969	0.581375	-0.418102	0.389705	-0.579071
17770		0.431960	-9.070289	3.366520	-0.020748	0.006234	-0.017579	-0.010498	0.982178	0.036865	0.581195	-0.418239	0.389798	-0.579091
17771		0.413746	-9.064300	3.469258	-0.003799	0.008745	-0.011914	-0.014648	0.981201	0.036621	0.581131	-0.418248	0.389823	-0.579132
17772		0.409516	-9.157197	3.354117	-0.007981	0.002472	-0.008831	-0.012207	0.978271	0.045166	0.581073	-0.418299	0.389845	-0.579139
17773		0.354774	-9.290151	3.371180	-0.006579	0.012732	-0.010615	-0.013428	0.983887	0.042725	0.580973	-0.418318	0.389929	-0.579167
17774		0.287706	-9.304807	3.317339	-0.027185	0.008430	-0.015303	-0.009766	0.984131	0.042969	0.580791	-0.418466	0.390069	-0.579149
17775		0.277915	-9.251798	3.415126	-0.016905	0.001757	-0.010321	-0.015381	0.987793	0.043213	0.580706	-0.418578	0.390146	-0.579102
17776		0.361147	-9.122926	3.419073	-0.007631	0.012762	-0.005726	-0.014648	0.988525	0.036865	0.580617	-0.418577	0.390246	-0.579125
17777		0.287536	-9.097526	3.404617	-0.004385	0.020257	-0.002778	-0.004395	0.977539	0.042969	0.580543	-0.418499	0.390357	-0.579180
17778		0.338791	-9.178768	3.463655	0.016348	0.021681	-0.012403	-0.020264	0.987549	0.040771	0.580525	-0.418361	0.390360	-0.579296
17779		0.364640	-9.274318	3.308466	0.013824	0.007812	-0.011212	-0.017578	0.990234	0.033691	0.580486	-0.418294	0.390304	-0.579421
17780		0.322650	-9.258772	3.287557	-0.004598	-0.006797	-0.006130	-0.011230	0.982910	0.047607	0.580478	-0.418352	0.390265	-0.579414
17781		0.301102	-9.087392	3.433288	-0.013418	-0.010740	-0.005163	-0.014648	0.987305	0.041016	0.580459	-0.418502	0.390294	-0.579305
17782		0.302338	-9.075485	3.359637	-0.026898	-0.001079	-0.004610	-0.023682	0.977051	0.039307	0.580362	-0.418652	0.390417	-0.579211
17783		0.370597	-9.264836	3.346221	-0.013805	0.008209	-0.005190	-0.013672	0.983154	0.051025	0.580249	-0.418697	0.390508	-0.579230
17784		0.353866	-9.265901	3.418618	0.007972	0.018111	-0.005550	-0.013184	0.978760	0.041504	0.580195	-0.418611	0.390579	-0.579298
17785		0.334454	-9.314229	3.246992	0.012926	0.006601	-0.009516	-0.020996	0.981201	0.044434	0.580198	-0.418551	0.390527	-0.579374
17786		0.263594	-9.238233	3.366907	0.024083	-0.000991	-0.003895	-0.017334	0.990967	0.045654	0.580254	-0.418462	0.390412	-0.579459
17787		0.288723	-9.157821	3.414284	0.004973	-0.003167	0.006852	-0.019775	0.979004	0.047607	0.580310	-0.418439	0.390426	-0.579411
17788		0.360894	-9.175950	3.276887	-0.010787	-0.013489	-0.003269	-0.015137	0.985596	0.039307	0.580287	-0.418585	0.390432	-0.579324
17789		0.427758	-9.067195	3.459983	-0.006692	-0.008549	-0.010817	-0.010742	0.983887	0.043945	0.580258	-0.418690	0.390393	-0.579304
17790		0.375562	-9.085778	3.438061	0.006468	-0.019652	-0.017117	-0.019043	0.988037	0.039795	0.580290	-0.418815	0.390228	-0.579293
17791		0.398781	-9.161662	3.425153	0.010462	-0.018679	-0.013359	-0.014648	0.981689	0.037354	0.580325	-0.418895	0.390049	-0.579320
17792		0.403704	-9.182028	3.463699	-0.013326	0.001714	-0.002323	-0.013916	0.986084	0.037354	0.580289	-0.418953	0.390114	-0.579270
17793		0.395590	-9.243652	3.351953	-0.030830	0.027865	0.009314	-0.014160	0.981201	0.036865	0.580165	-0.418930	0.390431	-0.579198
17794		0.276419	-9.350905	3.345772	-0.031770	0.035787	0.015026	-0.013672	0.987793	0.040771	0.580042	-0.418854	0.390806	-0.579123
17795		0.210250	-9.304274	3.284708	-0.006007	0.004826	0.009165	-0.011719	0.982910	0.044922	0.580072	-0.418826	0.390899	-0.579050
17796		0.258970	-9.156510	3.331671	0.022451	-0.018068	-0.003085	-0.022949	0.988037	0.047119	0.580218	-0.418822	0.390711	-0.579033
17797		0.420186	-9.089250	3.202078	0.028706	-0.018364	-0.012294	-0.018799	0.984863	0.039062	0.580290	-0.418821	0.390471	-0.579124
17798		0.451442	-9.098495	3.380500	0.025849	-0.018000	-0.016472	-0.020508	0.982178	0.040771	0.580364	-0.418831	0.390207	-0.579220
17799		0.402206	-9.086020	3.415266	0.005761	0.001767	-0.010756	-0.010010	0.984375	0.041260	0.580323	-0.418830	0.390161	-0.579293
17800		0.406853	-9.113169	3.488397	-0.018556	-0.004060	-0.007813	-0.013428	0.985352	0.041748	0.580271	-0.418968	0.390215	-0.579210
17801		0.263586	-9.228649	3.415058	-0.025544	0.016018	-0.003369	-0.022949	0.977539	0.041504	0.580136	-0.419027	0.390417	-0.579166
17802		0.176348	-9.351131	3.321938	-0.022126	0.017719	-0.005626	-0.012451	0.986816	0.041504	0.579963	-0.419068	0.390600	-0.579186
17803		0.312277	-9.278577	3.358704	0.003613	0.004734	-0.010097	-0.012695	0.987793	0.033691	0.579940	-0.419060	0.390580	-0.579229
17804		0.382163	-9.232019	3.233423	-0.006647	-0.015891	-0.000387	-0.013428	0.978271	0.050049	0.580009	-0.419154	0.390521	-0.579131
17805		0.383040	-9.106487	3.421288	0.013116	-0.013085	-0.000651	-0.015625	0.987305	0.044678	0.580106	-0.419175	0.390425	-0.579083
17806		0.379425	-9.160693	3.394852	0.013851	0.000989	-0.014231	-0.011963	0.990479	0.044434	0.580091	-0.419154	0.390334	-0.579174
17807		0.344737	-9.178819	3.417777	0.014246	0.010980	-0.017781	-0.024170	0.985840	0.041504	0.580043	-0.419095	0.390277	-0.579305
17808		0.413457	-9.125121	3.442356	0.018257	0.014090	-0.016347	-0.015381	0.978027	0.037354	0.579963	-0.418988	0.390215	-0.579504
17809		0.441066	-9.108502	3.360544	-0.016851	0.018768	-0.005486	-0.016113	0.986084	0.039551	0.579846	-0.418993	0.390364	-0.579516
17810		0.315986	-9.193278	3.267913	-0.036908	0.024477	0.010975	-0.013916	0.982910	0.046387	0.579710	-0.419014	0.390705	-0.579407
17811		0.271135	-9.287617	3.245296	-0.033947	0.013077	-0.006666	-0.013672	0.991699	0.046143	0.579534	-0.419148	0.390931	-0.579334
17812		0.320092	-9.222706	3.334896	0.011438	-0.026572	-0.019082	-0.011963	0.986328	0.042969	0.579584	-0.419288	0.390704	-0.579336
17813		0.388729	-9.204958	3.342271	0.045540	-0.018111	-0.032332	-0.012939	0.982910	0.034424	0.579679	-0.419263	0.390294	-0.579535
17814		0.452390	-9.203693	3.409894	0.045749	0.006534	-0.033317	-0.015869	0.987793	0.047363	0.579703	-0.419108	0.389975	-0.579838
17815		0.426984	-9.173332	3.431453	0.008143	0.005637	-0.010451	-0.014404	0.983154	0.042725	0.579671	-0.419088	0.389956	-0.579897
17816		0.446077	-9.099281	3.460756	-0.046253	0.011571	0.015355	-0.013184	0.983398	0.044922	0.579572	-0.419213	0.390303	-0.579673
17817		0.188233	-9.177875	3.397170	-0.037759	0.014101	0.008641	-0.009766	0.984131	0.035400	0.579463	-0.419309	0.390601	-0.579512
17818		0.172923	-9.236846	3.303434	-0.014154	0.000196	-0.007305	-0.015869	0.978027	0.041016	0.579435	-0.419391	0.390631	-0.579459
17819		0.330057	-9.246621	3.362237	0.005972	-0.006286	-0.016970	-0.009766	0.976074	0.046631	0.579419	-0.419449	0.390517	-0.579510
17820		0.451684	-9.197701	3.318810	0.021965	-0.006456	-0.017388	-0.021240	0.985352	0.044922	0.579477	-0.419449	0.390334	-0.579576
17821		0.430154	-9.207802	3.300239	0.000546	0.008764	-0.006746	-0.021973	0.991211	0.043701	0.579411	-0.419429	0.390372	-0.579631
17822		0.310937	-9.206008	3.359481	-0.024260	0.017716	0.004136	-0.018066	0.988525	0.045654	0.579279	-0.419444	0.390610	-0.579592
17823		0.375300	-9.216898	3.317646	-0.025677	0.010387	-0.003212	-0.018311	0.981445	0.038086	0.579145	-0.419532	0.390794	-0.579538
17824		0.305088	-9.232104	3.447164	0.007473	0.002388	-0.005150	-0.015381	0.982910	0.053223	0.579158	-0.419492	0.390749	-0.579583
17825		0.268733	-9.242406	3.319632	0.024201	-0.016913	-0.010931	-0.018311	0.993652	0.048584	0.579253	-0.419517	0.390550	-0.579606
17826		0.351832	-9.180250	3.303341	0.010398	-0.019839	-0.014504	-0.026123	0.977539	0.042725	0.579281	-0.419617	0.390384	-0.579616
17827		0.375841	-9.180677	3.280168	0.006753	0.010916	-0.011618	-0.015869	0.981445	0.041504	0.579194	-0.419567	0.390381	-0.579742
17828		0.373030	-9.179168	3.349237	0.018656	0.019055	-0.008443	-0.023926	0.985840	0.039062	0.579183	-0.419414	0.390359	-0.579879
17829		0.324429	-9.244092	3.443553	0.023029	0.012345	-0.002955	-0.009766	0.979980	0.048340	0.579202	-0.419241	0.390306	-0.580020
17830		0.415508	-9.199254	3.410238	-0.014180	0.010791	0.004516	-0.023438	0.986084	0.036133	0.579181	-0.419265	0.390463	-0.579918
17831		0.419516	-9.188599	3.387017	0.001081	0.003755	0.003921	-0.020508	0.981201	0.048096	0.579191	-0.419211	0.390491	-0.579928
17832		0.402369	-9.220190	3.339566	0.012559	0.004838	0.001529	-0.015137	0.984863	0.042480	0.579220	-0.419134	0.390489	-0.579957
17833		0.408301	-9.189784	3.329632	0.023490	0.023686	-0.002036	-0.016357	0.988037	0.041260	0.579240	-0.418916	0.390494	-0.580091
17834		0.356243	-9.208585	3.243399	0.010310	0.017587	-0.003928	-0.019775	0.988770	0.046875	0.579219	-0.418794	0.390525	-0.580179
17835		0.375470	-9.209052	3.403655	0.019265	0.000503	-0.000470	-0.014160	0.979736	0.039551	0.579276	-0.418707	0.390463	-0.580225
17836		0.374376	-9.118924	3.392102	0.013670	-0.015280	-0.002404	-0.022461	0.979492	0.041992	0.579397	-0.418727	0.390317	-0.580189
17837		0.348351	-9.133698	3.360289	0.007634	-0.018156	-0.014189	-0.024170	0.979248	0.050049	0.579408	-0.418824	0.390160	-0.580213
17838		0.365778	-9.164162	3.348270	-0.012490	0.003705	-0.010833	-0.017822	0.987305	0.043701	0.579273	-0.418916	0.390243	-0.580227
17839		0.369875	-9.171987	3.315110	-0.006931	0.015214	-0.004248	-0.012695	0.987061	0.042725	0.579188	-0.418894	0.390354	-0.580252
17840		0.295903	-9.267775	3.375054	-0.011499	0.014460	-0.000573	-0.018311	0.982422	0.044434	0.579132	-0.418889	0.390488	-0.580221
17841		0.262046	-9.256881	3.449400	0.004185	-0.000401	-0.002761	-0.018555	0.978516	0.045898	0.579144	-0.418887	0.390476	-0.580220
17842		0.357733	-9.231744	3.456376	0.024093	-0.009755	-0.001229	-0.009277	0.978516	0.045410	0.579260	-0.418833	0.390331	-0.580240
17843		0.333837	-9.240792	3.322772	0.002924	-0.000643	-0.002480	-0.016846	0.978516	0.046143	0.579308	-0.418850	0.390317	-0.580189
17844		0.384011	-9.270088	3.281995	0.009396	0.000965	0.004054	-0.016357	0.981201	0.039307	0.579370	-0.418802	0.390313	-0.580165
17845		0.454476	-9.066630	3.400647	0.020623	-0.013452	0.006684	-0.017090	0.980469	0.036621	0.579543	-0.418745	0.390176	-0.580125
17846		0.397769	-9.096992	3.335508	0.000480	-0.013049	0.006525	-0.019043	0.982422	0.044922	0.579643	-0.418780	0.390133	-0.580029
17847		0.384683	-9.200245	3.309489	-0.014332	0.003682	-0.003111	-0.019531	0.979004	0.049316	0.579567	-0.418850	0.390233	-0.579987
17848		0.419862	-9.262959	3.334578	0.012845	0.020213	-0.006830	-0.022217	0.984863	0.049072	0.579507	-0.418730	0.390279	-0.580103
17849		0.461450	-9.250648	3.401677	0.040561	-0.000834	-0.001736	-0.018555	0.983154	0.052490	0.579623	-0.418556	0.390111	-0.580226
17850		0.318132	-9.168129	3.432819	0.022450	-0.015562	0.001295	-0.011475	0.988770	0.035889	0.579748	-0.418542	0.389976	-0.580201
17851		0.344921	-9.005899	3.433464	-0.001132	-0.005751	0.001745	-0.016846	0.985840	0.036377	0.579816	-0.418567	0.389956	-0.580129
17852		0.288857	-9.138535	3.334868	-0.018118	0.007368	-0.003594	-0.012695	0.983398	0.039307	0.579733	-0.418625	0.390068	-0.580094
17853		0.338961	-9.232197	3.346931	-0.003039	0.017130	-0.003962	-0.011230	0.990234	0.037598	0.579684	-0.418574	0.390155	-0.580122
17854		0.287688	-9.271473	3.363807	0.001094	-0.000158	-0.008220	-0.016846	0.980469	0.048340	0.579691	-0.418596	0.390120	-0.580123
17855		0.348227	-9.190792	3.378905	0.001516	0.002487	-0.001333	-0.017334	0.981201	0.039551	0.579687	-0.418600	0.390150	-0.580103
17856		0.376033	-9.168726	3.377386	0.003706	0.018707	0.000515	-0.016602	0.976318	0.043457	0.579659	-0.418491	0.390233	-0.580154
17857		0.261898	-9.256275	3.385691	0.000602	0.003548	0.001363	-0.016602	0.985596	0.042725	0.579672	-0.418478	0.390267	-0.580127
17858		0.328432	-9.146468	3.387316	-0.006141	-0.002449	-0.001790	-0.025391	0.977051	0.042969	0.579662	-0.418531	0.390296	-0.580079
17859		0.348450	-9.120875	3.288501	0.004173	-0.021858	-0.006261	-0.015137	0.976074	0.037598	0.579696	-0.418637	0.390174	-0.580052
17860		0.411742	-9.192603	3.373373	0.003233	-0.000828	-0.007867	-0.019531	0.987061	0.051514	0.579704	-0.418653	0.390126	-0.580065
17861		0.375638	-9.249311	3.308493	-0.000303	0.024430	-0.003574	-0.016357	0.976318	0.035645	0.579591	-0.418566	0.390276	-0.580138
17862		0.344482	-9.201641	3.401473	-0.010348	0.004656	0.000647	-0.014404	0.980957	0.048584	0.579573	-0.418588	0.390346	-0.580093
17863		0.359836	-9.187768	3.440850	0.015454	-0.019379	-0.002126	-0.012451	0.981689	0.046143	0.579695	-0.418635	0.390198	-0.580037
17864		0.415713	-9.161380	3.429809	0.016251	-0.002311	-0.000136	-0.023926	0.989014	0.044678	0.579786	-0.418587	0.390127	-0.580029
17865		0.376638	-9.141053	3.423394	0.014127	0.010976	0.005660	-0.018311	0.982422	0.042725	0.579803	-0.418448	0.390163	-0.580088
17866		0.364451	-9.162044	3.353149	-0.008448	0.008298	-0.001604	-0.025391	0.976562	0.047607	0.579745	-0.418459	0.390257	-0.580075
17867		0.371150	-9.139504	3.374407	-0.007387	0.003865	-0.005165	-0.021973	0.990234	0.050293	0.579652	-0.418503	0.390331	-0.580087
17868		0.407228	-9.196290	3.362741	-0.013896	0.006818	-0.009695	-0.015869	0.982910	0.033691	0.579509	-0.418580	0.390441	-0.580100
17869		0.437787	-9.207169	3.353144	-0.010336	0.015637	-0.004337	-0.017578	0.983398	0.042236	0.579435	-0.418559	0.390542	-0.580121
17870		0.413846	-9.173961	3.383458	0.009791	0.013114	-0.001841	-0.019531	0.985352	0.048096	0.579429	-0.418459	0.390566	-0.580183
17871		0.374794	-9.210494	3.397428	0.024613	0.016222	0.000178	-0.011963	0.974121	0.047607	0.579455	-0.418273	0.390559	-0.580296
17872		0.275683	-9.207723	3.319942	-0.005112	0.023575	-0.001186	-0.013672	0.986328	0.044189	0.579384	-0.418212	0.390714	-0.580307
17873		0.242370	-9.133513	3.338267	-0.010431	0.003960	-0.013963	-0.020020	0.981689	0.045654	0.579289	-0.418300	0.390752	-0.580312
17874		0.246010	-9.179025	3.401514	-0.009382	-0.007035	-0.013867	-0.010010	0.983154	0.050293	0.579209	-0.418433	0.390741	-0.580304
17875		0.368631	-9.226383	3.405443	0.006700	-0.003682	-0.012123	-0.015137	0.982422	0.036133	0.579215	-0.418484	0.390675	-0.580304
17876		0.432742	-9.152522	3.390158	0.011554	0.022283	-0.005554	-0.019043	0.987061	0.038086	0.579189	-0.418335	0.390703	-0.580419
17877		0.363972	-9.217459	3.323681	-0.008045	0.019794	0.002618	-0.015869	0.983398	0.042236	0.579122	-0.418263	0.390854	-0.580437
17878		0.319191	-9.253741	3.285120	-0.012236	0.024619	0.004046	-0.023438	0.983643	0.033691	0.579038	-0.418197	0.391058	-0.580431
17879		0.255523	-9.208463	3.339319	-0.020830	0.010398	0.001129	-0.020996	0.979248	0.041748	0.578939	-0.418224	0.391212	-0.580406
17880		0.232458	-9.276880	3.337600	0.003340	-0.015046	-0.000413	-0.011475	0.980713	0.034912	0.578999	-0.418282	0.391137	-0.580355
17881		0.344092	-9.180749	3.364115	0.029811	-0.029111	-0.008778	-0.016602	0.979492	0.044189	0.579207	-0.418307	0.390808	-0.580351
17882		0.416499	-9.152655	3.464565	0.025656	-0.020003	-0.012011	-0.014160	0.978516	0.038086	0.579318	-0.418329	0.390562	-0.580390
17883		0.392400	-9.091870	3.422882	0.006459	-0.019198	-0.007083	-0.016357	0.980713	0.040527	0.579405	-0.418417	0.390413	-0.580341
17884		0.443627	-9.128549	3.414719	-0.030234	-0.001582	0.002069	-0.016846	0.982422	0.042236	0.579335	-0.418569	0.390567	-0.580196
17885		0.402419	-9.224034	3.325928	-0.032890	0.033113	0.012133	-0.016357	0.974121	0.039062	0.579187	-0.418533	0.390942	-0.580118
17886		0.313180	-9.404340	3.252881	-0.014602	0.024525	0.012553	-0.015381	0.991455	0.047852	0.579144	-0.418447	0.391175	-0.580066
17887		0.193509	-9.382868	3.325346	0.045983	-0.001460	0.008741	-0.019775	0.983154	0.045166	0.579359	-0.418215	0.391003	-0.580134
17888		0.242883	-9.270191	3.409700	0.076917	-0.011517	-0.005770	-0.017334	0.984619	0.044434	0.579632	-0.417923	0.390581	-0.580356
17889		0.385199	-8.960661	3.505998	0.054953	-0.015065	-0.010369	-0.017578	0.978760	0.043213	0.579827	-0.417773	0.390230	-0.580506
17890		0.440525	-8.901257	3.502539	0.001514	-0.010138	-0.007471	-0.016113	0.984863	0.040771	0.579836	-0.417849	0.390169	-0.580483
17891		0.440710	-8.952352	3.368979	-0.042673	0.010129	-0.004646	-0.015137	0.981201	0.036377	0.579647	-0.418027	0.390423	-0.580373
17892		0.440119	-9.125873	3.422319	-0.052643	0.032996	-0.000124	-0.013916	0.981445	0.046143	0.579385	-0.418121	0.390836	-0.580289
17893		0.323240	-9.284933	3.281855	-0.056741	0.019845	-0.000048	-0.015625	0.979004	0.045166	0.579143	-0.418317	0.391225	-0.580128
17894		0.258073	-9.429695	3.266678	-0.035522	0.006197	-0.000769	-0.017334	0.985107	0.042236	0.579012	-0.418473	0.391440	-0.580001
17895		0.251116	-9.358918	3.307439	0.001195	-0.001096	-0.004751	-0.017578	0.982178	0.043701	0.579008	-0.418488	0.391425	-0.580003
17896		0.259454	-9.279490	3.426406	0.013834	-0.005367	-0.007219	-0.018311	0.987793	0.045166	0.579049	-0.418475	0.391322	-0.580041
17897		0.312034	-9.137988	3.442847	0.021648	-0.017072	-0.003639	-0.017578	0.978760	0.044922	0.579164	-0.418468	0.391145	-0.580050
17898		0.400339	-9.091015	3.361560	-0.009132	-0.003157	-0.003791	-0.015625	0.979980	0.046143	0.579133	-0.418548	0.391180	-0.580000
17899		0.394147	-9.151959	3.252473	-0.001268	0.016804	0.005103	-0.013184	0.981201	0.041504	0.579114	-0.418469	0.391303	-0.579994
17900		0.266791	-9.185638	3.361039	-0.000236	0.008090	0.006201	-0.014404	0.991455	0.041260	0.579149	-0.418418	0.391369	-0.579951
17901		0.264703	-9.260762	3.372321	0.009326	-0.004789	0.000923	-0.013184	0.986572	0.044678	0.579223	-0.418393	0.391313	-0.579933
17902		0.430698	-9.240934	3.352944	-0.004816	-0.000215	-0.007738	-0.017334	0.986084	0.043945	0.579193	-0.418452	0.391322	-0.579914
17903		0.399471	-9.204897	3.401949	0.005850	0.007575	-0.007608	-0.016357	0.981201	0.045654	0.579159	-0.418415	0.391322	-0.579974
17904		0.356080	-9.132586	3.361384	0.010898	0.012325	0.000079	-0.014648	0.978516	0.048828	0.579169	-0.418313	0.391348	-0.580021
17905		0.295777	-9.149641	3.291754	-0.001454	0.003276	0.004475	-0.016602	0.980713	0.047852	0.579189	-0.418309	0.391410	-0.579962
17906		0.311525	-9.180741	3.396053	0.007572	-0.002960	-0.000347	-0.011230	0.984131	0.036377	0.579230	-0.418302	0.391383	-0.579945
17907		0.377190	-9.246846	3.379085	0.002526	-0.003938	0.000770	-0.011475	0.985596	0.044678	0.579300	-0.418305	0.391345	-0.579897
17908		0.423070	-9.287279	3.360218	0.002086	0.008983	-0.009101	-0.011963	0.977539	0.047119	0.579264	-0.418295	0.391358	-0.579932
17909		0.395026	-9.246086	3.306136	-0.011385	0.013366	-0.000471	-0.010254	0.983398	0.042969	0.579208	-0.418308	0.391490	-0.579890
17910		0.312662	-9.205365	3.240328	0.014389	0.006531	0.004956	-0.012695	0.979980	0.047607	0.579300	-0.418204	0.391473	-0.579884
17911		0.282954	-9.081896	3.441490	0.022970	-0.002857	0.006713	-0.018799	0.982666	0.045166	0.579445	-0.418106	0.391389	-0.579867
17912		0.273169	-9.140609	3.403001	0.014117	-0.006055	0.000865	-0.020508	0.982178	0.037354	0.579516	-0.418069	0.391318	-0.579870
17913		0.326138	-9.144727	3.337523	0.010923	0.001840	-0.008399	-0.014648	0.988037	0.040283	0.579509	-0.418023	0.391254	-0.579954
17914		0.293818	-9.177260	3.362774	0.002603	0.004623	-0.008553	-0.019043	0.983643	0.047363	0.579481	-0.418016	0.391243	-0.579994
17915		0.366921	-9.176550	3.417699	-0.007610	-0.008875	-0.012597	-0.022705	0.979980	0.040771	0.579416	-0.418146	0.391223	-0.579979
17916		0.415734	-9.192860	3.371069	-0.012520	0.008252	-0.008862	-0.013428	0.988525	0.039307	0.579292	-0.418187	0.391312	-0.580013
17917		0.352618	-9.272852	3.422338	0.002122	0.017040	-0.004963	-0.020996	0.982422	0.045898	0.579249	-0.418112	0.391370	-0.580072
17918		0.282643	-9.261008	3.413492	0.020053	0.005013	-0.004604	-0.013916	0.983887	0.044678	0.579269	-0.418009	0.391310	-0.580166
17919		0.275158	-9.175067	3.272615	0.002758	0.000598	0.000719	-0.006348	0.981201	0.046875	0.579300	-0.418002	0.391317	-0.580135
17920		0.334895	-9.094338	3.287517	-0.003992	-0.007557	-0.000109	-0.018311	0.984863	0.037598	0.579361	-0.418087	0.391307	-0.580020
17921		0.354020	-9.144735	3.315330	0.009025	-0.001805	-0.006148	-0.019043	0.974121	0.042480	0.579379	-0.418064	0.391240	-0.580064
17922		0.341388	-9.209216	3.378085	0.012647	0.011163	-0.008787	-0.011719	0.985596	0.045166	0.579349	-0.417981	0.391218	-0.580167
17923		0.325540	-9.260027	3.436861	0.003889	0.002585	-0.009833	-0.015625	0.989502	0.037842	0.579335	-0.417999	0.391191	-0.580188
17924		0.373435	-9.281891	3.427849	0.005078	0.009692	-0.007113	-0.018066	0.981934	0.038818	0.579307	-0.417946	0.391193	-0.580252
17925		0.296313	-9.242538	3.411725	0.017031	0.010380	0.003201	-0.016846	0.984863	0.037109	0.579360	-0.417799	0.391181	-0.580313
17926		0.253961	-9.195793	3.331065	0.015650	0.002371	0.006007	-0.006104	0.978271	0.048340	0.579453	-0.417687	0.391142	-0.580327
17927		0.281781	-9.065698	3.325723	0.005392	-0.021339	0.000165	-0.011475	0.977539	0.044189	0.579593	-0.417800	0.391023	-0.580187
17928		0.437822	-9.074381	3.385247	-0.014998	-0.012245	-0.003976	-0.004395	0.989746	0.034424	0.579593	-0.417964	0.391032	-0.580062
17929		0.447320	-9.185823	3.368511	-0.024712	0.010574	-0.001522	-0.018311	0.979736	0.041504	0.579536	-0.418045	0.391177	-0.579963
17930		0.355840	-9.263246	3.278140	-0.016602	0.024607	-0.001171	-0.010986	0.986816	0.041992	0.579398	-0.418010	0.391387	-0.579984
17931		0.257852	-9.211850	3.328367	0.003544	0.005058	-0.003446	-0.022461	0.979492	0.046875	0.579412	-0.417991	0.391387	-0.579984
17932		0.205305	-9.224788	3.387978	0.018709	-0.013480	-0.010267	-0.016846	0.980957	0.037109	0.579453	-0.418002	0.391229	-0.580041
17933		0.319785	-9.204322	3.359437	0.029938	-0.014598	-0.011586	-0.013184	0.984863	0.045654	0.579567	-0.417960	0.390978	-0.580128
17934		0.376626	-9.190471	3.536153	0.022959	-0.008739	0.000249	-0.023926	0.987305	0.038818	0.579697	-0.417907	0.390842	-0.580127
17935		0.431810	-9.145445	3.418089	-0.008074	0.008799	0.007588	-0.018555	0.983154	0.041260	0.579658	-0.417863	0.390974	-0.580109
17936		0.285443	-9.122558	3.345783	-0.028083	0.019047	0.002530	-0.008789	0.983398	0.042725	0.579514	-0.417897	0.391228	-0.580057
17937		0.283135	-9.199211	3.353023	-0.018679	0.007414	0.000464	-0.017578	0.978271	0.043701	0.579471	-0.417969	0.391358	-0.579961
17938		0.332034	-9.241759	3.264344	-0.015154	0.010333	-0.000651	-0.014160	0.982178	0.038818	0.579387	-0.417999	0.391497	-0.579928
17939		0.369174	-9.122062	3.389548	0.015865	-0.013786	-0.004321	-0.010742	0.989014	0.038818	0.579493	-0.418004	0.391341	-0.579925
17940		0.400943	-9.181601	3.369841	0.026396	-0.004884	-0.004333	-0.020752	0.984619	0.053223	0.579618	-0.417919	0.391173	-0.579974
17941		0.346206	-9.263296	3.405536	0.003593	0.015258	-0.001645	-0.014404	0.983398	0.051758	0.579550	-0.417849	0.391271	-0.580027
17942		0.287871	-9.200372	3.402914	-0.023836	0.024434	0.002906	-0.014160	0.980957	0.043213	0.579408	-0.417861	0.391546	-0.579974
17943		0.258716	-9.210949	3.330793	-0.021247	0.007069	0.004347	-0.008301	0.984619	0.047119	0.579352	-0.417925	0.391710	-0.579873
17944		0.331949	-9.178274	3.209424	0.018704	-0.024478	-0.005264	-0.016846	0.978271	0.051025	0.579511	-0.417995	0.391492	-0.579812
17945		0.369568	-9.133084	3.347408	0.010039	-0.003150	-0.015503	-0.017822	0.985352	0.046387	0.579481	-0.418032	0.391407	-0.579873
17946		0.405565	-9.163094	3.379150	-0.003279	-0.005935	-0.016546	-0.013184	0.985107	0.042969	0.579408	-0.418137	0.391362	-0.579899
17947		0.419041	-9.230483	3.348199	-0.006613	0.016520	-0.001883	-0.010254	0.986084	0.048340	0.579347	-0.418105	0.391477	-0.579906
17948		0.233105	-9.225988	3.479989	-0.012222	0.004611	0.008341	-0.013916	0.983643	0.038818	0.579359	-0.418139	0.391603	-0.579785
17949		0.221717	-9.228829	3.301523	-0.011046	0.005804	0.004591	-0.014893	0.993164	0.043945	0.579350	-0.418149	0.391702	-0.579720
17950		0.268991	-9.188973	3.350069	-0.010814	-0.004434	0.000729	-0.020996	0.978027	0.041260	0.579342	-0.418223	0.391752	-0.579640
17951		0.317801	-9.192510	3.350279	0.017426	0.003341	-0.005177	-0.007080	0.983154	0.045898	0.579362	-0.418133	0.391683	-0.579731
17952		0.314379	-9.252940	3.360363	0.021188	0.007025	-0.015150	-0.019775	0.985596	0.043945	0.579386	-0.418070	0.391566	-0.579832
17953		0.329574	-9.199648	3.372133	0.007780	-0.005817	-0.014667	-0.014893	0.982422	0.049316	0.579356	-0.418107	0.391473	-0.579898
17954		0.432223	-9.158070	3.435260	-0.004845	-0.004510	-0.003078	-0.017578	0.985596	0.049805	0.579349	-0.418181	0.391489	-0.579841
17955		0.360419	-9.208832	3.249839	0.011714	0.000586	0.009043	-0.018555	0.976562	0.042969	0.579429	-0.418105	0.391498	-0.579809
17956		0.273232	-9.173433	3.286931	0.002129	0.003111	0.009161	-0.009521	0.987793	0.046631	0.579475	-0.418053	0.391552	-0.579765
17957		0.268433	-9.172013	3.354923	0.010690	0.001100	0.000463	-0.016602	0.985840	0.040283	0.579543	-0.418015	0.391519	-0.579747
17958		0.352627	-9.130555	3.492385	0.014206	-0.001898	-0.007120	-0.016602	0.981201	0.041748	0.579575	-0.417976	0.391428	-0.579804
17959		0.332341	-9.173063	3.351124	-0.010914	-0.004987	-0.010541	-0.011963	0.983887	0.046875	0.579513	-0.418089	0.391434	-0.579780
17960		0.380964	-9.202360	3.374239	-0.021742	-0.000568	-0.012477	-0.020508	0.981689	0.046387	0.579402	-0.418256	0.391508	-0.579721
17961		0.336266	-9.231827	3.365895	-0.015341	-0.004704	-0.009067	-0.010986	0.979248	0.036133	0.579311	-0.418385	0.391556	-0.579686
17962		0.297071	-9.287488	3.251424	0.003959	-0.000493	-0.004030	-0.015137	0.994385	0.044678	0.579352	-0.418384	0.391510	-0.579678
17963		0.274622	-9.247676	3.364193	0.030505	-0.004959	-0.000416	-0.016357	0.976562	0.038818	0.579483	-0.418266	0.391355	-0.579736
17964		0.352044	-9.215592	3.411240	0.028468	0.007254	0.005496	-0.016113	0.985352	0.039062	0.579604	-0.418075	0.391276	-0.579806
17965		0.380675	-9.218725	3.370299	-0.002995	0.019985	0.008267	-0.013672	0.980469	0.042236	0.579583	-0.417963	0.391424	-0.579808
17966		0.323260	-9.130993	3.342131	-0.011612	0.021303	0.002357	-0.014160	0.986572	0.042725	0.579507	-0.417917	0.391601	-0.579798
17967		0.335617	-9.136015	3.370500	-0.006419	0.001996	-0.001080	-0.006348	0.976318	0.042969	0.579491	-0.417948	0.391650	-0.579759
17968		0.339076	-9.149175	3.258788	0.006406	-0.003485	-0.006723	-0.009521	0.987061	0.045898	0.579546	-0.417980	0.391574	-0.579732
17969		0.322758	-9.168346	3.438646	0.010949	-0.017342	-0.010857	-0.015869	0.986084	0.035400	0.579621	-0.418067	0.391409	-0.579706
17970		0.340163	-9.198291	3.428181	0.001892	-0.002262	-0.008720	-0.011475	0.980225	0.046875	0.579612	-0.418087	0.391360	-0.579734
17971		0.321703	-9.165876	3.392067	0.008938	0.003584	-0.010951	-0.018066	0.985352	0.048096	0.579605	-0.418083	0.391309	-0.579777
17972		0.274104	-9.212544	3.377902	-0.000595	0.017794	-0.001233	-0.012451	0.978027	0.046387	0.579536	-0.418014	0.391423	-0.579820
17973		0.180702	-9.257744	3.294132	-0.028336	0.018917	0.001226	-0.023193	0.986328	0.045166	0.579406	-0.418075	0.391669	-0.579739
17974		0.180574	-9.208001	3.306872	-0.002948	-0.017777	-0.006795	-0.016846	0.986084	0.041748	0.579399	-0.418190	0.391607	-0.579705
17975		0.356754	-9.146260	3.436257	0.024857	-0.027899	-0.009918	-0.014648	0.979980	0.046631	0.579538	-0.418236	0.391332	-0.579719
17976		0.461758	-9.078657	3.476278	0.016768	-0.008104	-0.007342	-0.013428	0.992188	0.038818	0.579601	-0.418232	0.391206	-0.579743
17977		0.463508	-9.116055	3.391935	0.001210	0.022394	-0.006961	-0.016357	0.987549	0.041504	0.579523	-0.418140	0.391288	-0.579833
17978		0.386694	-9.285923	3.233121	-0.008067	0.045428	-0.001974	-0.020264	0.989990	0.042236	0.579348	-0.417966	0.391553	-0.579953
17979		0.294820	-9.364006	3.258711	-0.024763	0.023181	0.004573	-0.013916	0.988281	0.047607	0.579202	-0.417952	0.391824	-0.579927
17980		0.250258	-9.299248	3.250557	0.008755	-0.012755	0.000923	-0.013428	0.982422	0.041260	0.579292	-0.417982	0.391744	-0.579869
17981		0.245298	-9.163628	3.356518	0.030986	-0.037914	-0.010900	-0.009521	0.979492	0.036621	0.579497	-0.418057	0.391379	-0.579857
17982		0.340821	-9.016003	3.473091	0.033702	-0.025495	-0.021998	-0.002930	0.985352	0.038574	0.579639	-0.418097	0.391005	-0.579939
17983		0.450028	-9.075471	3.441583	0.003520	0.014578	-0.016267	-0.019043	0.995605	0.048584	0.579596	-0.418086	0.390984	-0.580004
17984		0.396718	-9.202449	3.424588	-0.005892	0.027692	-0.006416	-0.022705	0.982178	0.042969	0.579444	-0.418008	0.391159	-0.580094
17985		0.255872	-9.294691	3.326463	-0.017483	0.018774	-0.001512	-0.014893	0.983887	0.035400	0.579301	-0.418001	0.391356	-0.580108
17986		0.216805	-9.219121	3.295690	-0.002374	0.000555	-0.001639	-0.014160	0.979004	0.043945	0.579310	-0.418011	0.391362	-0.580088
17987		0.246333	-9.197663	3.408671	-0.003774	-0.000092	-0.009304	-0.015625	0.980225	0.046143	0.579275	-0.418073	0.391359	-0.580082
17988		0.250395	-9.223869	3.366604	-0.009245	-0.008023	-0.010406	-0.015381	0.979980	0.042480	0.579232	-0.418203	0.391347	-0.580038
17989		0.345785	-9.166906	3.376696	-0.001839	-0.015639	-0.014013	-0.011963	0.978760	0.040527	0.579227	-0.418340	0.391243	-0.580014
17990		0.442854	-9.204247	3.322702	0.010170	-0.006352	-0.013028	-0.014893	0.975342	0.038086	0.579257	-0.418375	0.391117	-0.580044
17991		0.443348	-9.216048	3.395428	0.017097	0.003568	0.000209	-0.011475	0.983643	0.042236	0.579335	-0.418278	0.391052	-0.580080
17992		0.315028	-9.204074	3.325261	0.005509	-0.005359	0.005114	-0.010986	0.988037	0.042969	0.579432	-0.418275	0.391020	-0.580007
17993		0.318055	-9.211111	3.294863	0.010981	0.009147	0.002539	-0.015381	0.982422	0.045166	0.579487	-0.418185	0.391025	-0.580014
17994		0.320472	-9.174208	3.313784	-0.009204	0.010238	-0.004479	-0.013916	0.987061	0.051514	0.579414	-0.418206	0.391120	-0.580006
17995		0.341259	-9.150175	3.444602	-0.007562	-0.007416	-0.004794	-0.014893	0.981201	0.046387	0.579402	-0.418319	0.391131	-0.579930
17996		0.320978	-9.148596	3.353771	0.011418	-0.020735	-0.013763	-0.019287	0.992432	0.040283	0.579459	-0.418424	0.390945	-0.579923
17997		0.409979	-9.068935	3.395421	0.025248	-0.004691	-0.020848	-0.013672	0.987549	0.038574	0.579463	-0.418385	0.390745	-0.580082
17998		0.459028	-9.203067	3.314077	0.014707	0.015133	-0.006449	-0.013672	0.981934	0.044678	0.579462	-0.418265	0.390727	-0.580181
17999		0.232821	-9.379813	3.330571	-0.001725	0.020087	0.004638	-0.007324	0.985107	0.038330	0.579438	-0.418178	0.390860	-0.580179
18000		0.199308	-9.343935	3.378993	-0.001379	-0.003591	0.001478	-0.016602	0.977051	0.036865	0.579507	-0.418213	0.390843	-0.580095
18001		0.281002	-9.194719	3.393974	0.001377	-0.002982	0.002198	-0.020264	0.985596	0.044434	0.579553	-0.418211	0.390834	-0.580058
18002		0.356151	-9.023552	3.438743	0.022807	-0.013360	-0.002994	-0.009521	0.982666	0.042725	0.579656	-0.418176	0.390676	-0.580087
18003		0.326626	-9.018479	3.368687	0.009129	-0.008633	-0.009132	-0.020752	0.982422	0.039062	0.579713	-0.418224	0.390559	-0.580073
18004		0.426646	-9.126622	3.338358	-0.006564	0.014723	-0.016383	-0.009521	0.975098	0.043457	0.579561	-0.418230	0.390624	-0.580177
18005		0.397446	-9.198658	3.390597	-0.016131	0.006873	-0.021393	-0.014404	0.989502	0.043945	0.579424	-0.418370	0.390660	-0.580188
18006		0.456374	-9.274949	3.460855	-0.007973	0.006851	-0.010230	-0.026123	0.979248	0.037354	0.579345	-0.418421	0.390709	-0.580198
18007		0.326078	-9.352297	3.352539	-0.026528	0.016085	0.005962	-0.013672	0.979736	0.040527	0.579212	-0.418431	0.390959	-0.580155
18008		0.240126	-9.293808	3.359868	-0.006830	0.004591	0.008637	-0.015137	0.981445	0.052490	0.579245	-0.418423	0.391047	-0.580068
18009		0.262291	-9.224646	3.246477	0.030411	-0.014138	-0.005660	-0.013184	0.975342	0.037109	0.579382	-0.418390	0.390839	-0.580096
18010		0.282211	-9.165152	3.391531	0.065458	-0.011490	-0.010074	-0.021240	0.979248	0.037109	0.579635	-0.418168	0.390427	-0.580280
18011		0.365180	-9.031286	3.404782	0.037474	-0.012028	-0.016700	-0.012695	0.980957	0.042480	0.579725	-0.418088	0.390145	-0.580438
18012		0.447873	-9.075967	3.393772	-0.005304	0.023030	-0.012552	-0.015381	0.988037	0.036621	0.579602	-0.418062	0.390246	-0.580512
18013		0.436168	-9.230837	3.351635	-0.033952	0.015610	0.005430	-0.016602	0.990479	0.042236	0.579483	-0.418132	0.390508	-0.580404
18014		0.381515	-9.335036	3.304460	-0.023951	0.012837	0.021349	-0.010254	0.980713	0.044189	0.579473	-0.418122	0.390776	-0.580240
18015		0.300880	-9.253938	3.448996	-0.014531	-0.002399	0.013844	-0.013428	0.982666	0.039062	0.579537	-0.418183	0.390886	-0.580059
18016		0.255883	-9.194188	3.363661	0.038096	-0.015856	-0.004847	-0.013428	0.987549	0.043457	0.579727	-0.418097	0.390611	-0.580116
18017		0.300922	-9.149573	3.371124	0.036616	0.005656	-0.019229	-0.017334	0.985840	0.044189	0.579766	-0.417969	0.390406	-0.580307
18018		0.348867	-9.074923	3.430621	0.012719	-0.003697	-0.015918	-0.014648	0.986572	0.048096	0.579753	-0.417986	0.390292	-0.580384
18019		0.427334	-9.119033	3.368769	-0.013566	-0.000016	-0.011467	-0.016602	0.987061	0.038086	0.579666	-0.418112	0.390340	-0.580349
18020		0.395783	-9.197368	3.340444	-0.016545	0.002245	0.002143	-0.016602	0.978760	0.041992	0.579628	-0.418173	0.390447	-0.580271
18021		0.299936	-9.236174	3.403003	-0.021075	0.001311	0.002480	-0.014404	0.976074	0.034424	0.579578	-0.418269	0.390577	-0.580164
18022		0.296298	-9.216807	3.362361	-0.000030	-0.004286	0.004676	-0.017334	0.986816	0.045410	0.579647	-0.418274	0.390568	-0.580098
18023		0.340212	-9.218227	3.315181	0.017903	0.005777	-0.004966	-0.012939	0.986084	0.042969	0.579673	-0.418185	0.390514	-0.580172
18024		0.299515	-9.235260	3.289565	0.009738	0.005140	-0.005990	-0.016357	0.981445	0.046387	0.579688	-0.418148	0.390480	-0.580207
18025		0.326094	-9.192999	3.480648	0.007748	0.000277	-0.004866	-0.023193	0.981445	0.044434	0.579702	-0.418141	0.390448	-0.580219
18026		0.311834	-9.149938	3.422002	0.002340	-0.006324	-0.001487	-0.010986	0.983154	0.044189	0.579709	-0.418163	0.390433	-0.580206
18027		0.357633	-9.076993	3.477062	-0.011305	0.004159	-0.004505	-0.015625	0.984619	0.041260	0.579669	-0.418234	0.390499	-0.580151
18028		0.398504	-9.179316	3.348524	-0.011419	0.008882	0.000818	-0.022949	0.973633	0.045166	0.579622	-0.418250	0.390611	-0.580110
18029		0.372646	-9.272115	3.258668	0.003914	0.022370	0.003867	-0.015137	0.986328	0.039795	0.579570	-0.418113	0.390745	-0.580172
18030		0.332083	-9.208166	3.301283	0.013440	0.008333	-0.002494	-0.012695	0.985352	0.039062	0.579598	-0.418019	0.390720	-0.580228
18031		0.323793	-9.216771	3.393225	0.020727	-0.006246	-0.010352	-0.015137	0.985840	0.036621	0.579671	-0.417991	0.390555	-0.580286
18032		0.345622	-9.128001	3.471622	0.006904	-0.009166	-0.010620	-0.018799	0.978516	0.044922	0.579696	-0.418036	0.390444	-0.580303
18033		0.349491	-9.097204	3.409918	-0.010770	-0.008269	-0.008061	-0.009033	0.981689	0.046143	0.579651	-0.418164	0.390452	-0.580251
18034		0.322110	-9.120720	3.408256	-0.036565	0.007970	-0.001620	-0.012451	0.983154	0.052002	0.579531	-0.418338	0.390666	-0.580101
18035		0.352006	-9.246423	3.320087	-0.041873	0.010638	0.007015	-0.021729	0.989502	0.043945	0.579407	-0.418498	0.390965	-0.579907
18036		0.240122	-9.362583	3.282839	-0.008398	0.008802	0.009626	-0.018555	0.979736	0.038818	0.579386	-0.418460	0.391109	-0.579859
18037		0.263059	-9.287936	3.364583	0.029376	-0.009824	-0.005429	-0.011230	0.979980	0.041992	0.579504	-0.418378	0.390912	-0.579933
18038		0.385016	-9.212328	3.414605	0.043977	-0.002428	-0.009338	-0.010986	0.978027	0.042725	0.579656	-0.418224	0.390657	-0.580064
18039		0.422958	-9.121963	3.423369	0.021219	0.014395	-0.004235	-0.015625	0.984375	0.041504	0.579700	-0.418085	0.390612	-0.580151
18040		0.380784	-9.019709	3.320086	-0.014044	0.007175	0.000233	-0.019043	0.985840	0.044434	0.579645	-0.418125	0.390728	-0.580099
18041		0.382596	-9.116349	3.366475	-0.035067	0.001757	0.003052	-0.026123	0.984863	0.037354	0.579532	-0.418280	0.390940	-0.579957
18042		0.296225	-9.208846	3.278834	-0.017575	0.000610	-0.004115	-0.018555	0.983887	0.038574	0.579428	-0.418351	0.391041	-0.579942
18043		0.254308	-9.321665	3.365281	-0.017743	0.002505	-0.011066	-0.014160	0.977539	0.039307	0.579313	-0.418454	0.391112	-0.579935
18044		0.280835	-9.405569	3.319767	0.010203	0.003879	-0.011232	-0.013184	0.979492	0.041992	0.579310	-0.418429	0.391044	-0.580002
18045		0.224697	-9.284515	3.416958	0.037442	-0.003787	-0.009214	-0.014648	0.980713	0.040527	0.579438	-0.418309	0.390817	-0.580114
18046		0.333058	-9.078528	3.441154	0.035474	-0.011592	0.001055	-0.017578	0.984131	0.040771	0.579628	-0.418197	0.390600	-0.580150
18047		0.373946	-9.115691	3.378418	0.023150	0.004120	0.007684	-0.009766	0.982422	0.035156	0.579743	-0.418041	0.390550	-0.580182
18048		0.384167	-9.131594	3.365516	0.002745	0.016749	0.008956	-0.007324	0.982666	0.037109	0.579788	-0.417927	0.390638	-0.580160
18049		0.406266	-9.171349	3.370090	-0.015218	-0.000600	0.007671	-0.010742	0.988281	0.039307	0.579828	-0.417996	0.390723	-0.580013
18050		0.347870	-9.172210	3.421860	-0.015854	0.009139	0.002281	-0.012939	0.981445	0.042480	0.579789	-0.418032	0.390851	-0.579939
18051		0.339024	-9.226557	3.344266	-0.001549	0.012938	-0.005036	-0.020020	0.972900	0.038086	0.579743	-0.418007	0.390912	-0.579962
18052		0.325891	-9.221758	3.315861	0.018239	0.000524	0.001142	-0.015381	0.987061	0.042969	0.579813	-0.417905	0.390846	-0.580010
18053		0.380486	-9.320942	3.301181	0.011666	0.001442	0.002249	-0.014160	0.979980	0.041260	0.579873	-0.417842	0.390820	-0.580013
18054		0.286106	-9.326751	3.308366	0.029265	0.019779	0.002116	-0.018799	0.977783	0.036133	0.579942	-0.417607	0.390791	-0.580132
18055		0.282083	-9.122735	3.371843	0.019728	0.014046	-0.005234	-0.010254	0.981934	0.042236	0.579946	-0.417453	0.390758	-0.580262
18056		0.364768	-8.971858	3.505497	0.027559	-0.004897	-0.012505	-0.008057	0.980225	0.039062	0.580033	-0.417405	0.390561	-0.580342
18057		0.404455	-8.989868	3.401900	0.005689	0.013148	-0.009132	-0.013184	0.985107	0.039795	0.580014	-0.417365	0.390559	-0.580391
18058		0.429086	-9.143070	3.332563	-0.014103	0.020468	-0.003832	-0.012451	0.991699	0.045166	0.579905	-0.417357	0.390720	-0.580398
18059		0.249075	-9.298771	3.386950	-0.009620	0.008407	0.006550	-0.014893	0.980469	0.042969	0.579898	-0.417361	0.390845	-0.580318
18060		0.217837	-9.295492	3.428294	-0.009352	-0.018641	0.004643	-0.019531	0.984131	0.040527	0.579965	-0.417494	0.390831	-0.580165
18061		0.273583	-9.200481	3.323775	0.007198	-0.020867	0.002519	-0.009277	0.980957	0.044434	0.580068	-0.417547	0.390727	-0.580094
18062		0.291995	-9.136701	3.426979	0.005427	0.002176	-0.002034	-0.013184	0.985107	0.041260	0.580107	-0.417544	0.390709	-0.580069
18063		0.368288	-9.124107	3.460131	-0.008488	0.014832	-0.005362	-0.019043	0.977783	0.040527	0.580025	-0.417541	0.390813	-0.580083
18064		0.446245	-9.206228	3.314166	0.021966	0.014600	-0.003734	-0.020020	0.986572	0.039062	0.580037	-0.417375	0.390785	-0.580209
18065		0.310417	-9.305154	3.420135	0.021151	0.012427	0.001440	-0.020996	0.991943	0.038086	0.580072	-0.417199	0.390770	-0.580310
18066		0.271486	-9.228749	3.392004	-0.000106	-0.011418	-0.002902	-0.012207	0.986328	0.036133	0.580085	-0.417251	0.390731	-0.580286
18067		0.339485	-9.093287	3.367947	0.005038	-0.009201	-0.002880	-0.011719	0.976318	0.038818	0.580148	-0.417285	0.390653	-0.580251
18068		0.369522	-9.058562	3.411004	-0.000010	-0.003640	-0.005461	-0.010986	0.981689	0.036621	0.580166	-0.417334	0.390618	-0.580222
18069		0.434508	-9.080300	3.328281	-0.010413	0.006874	0.001581	-0.019287	0.984375	0.041992	0.580150	-0.417356	0.390705	-0.580163
18070		0.286204	-9.164147	3.329860	0.001977	0.019521	-0.000711	-0.019043	0.981934	0.035400	0.580086	-0.417253	0.390813	-0.580228
18071		0.229001	-9.227178	3.439193	-0.009703	0.004212	-0.010194	-0.012451	0.982910	0.039795	0.579993	-0.417302	0.390859	-0.580256
18072		0.268941	-9.252918	3.482021	-0.013630	0.000902	-0.014965	-0.013916	0.986572	0.038086	0.579897	-0.417423	0.390883	-0.580248
18073		0.391394	-9.230250	3.395116	-0.001841	0.002761	-0.004763	-0.012939	0.987305	0.039062	0.579881	-0.417438	0.390895	-0.580246
18074		0.373292	-9.231383	3.350553	-0.021937	0.007969	0.004928	-0.015381	0.981445	0.040527	0.579827	-0.417497	0.391062	-0.580144
18075		0.268786	-9.191447	3.191457	0.007612	0.002871	0.002804	-0.013916	0.983154	0.041748	0.579873	-0.417442	0.391061	-0.580138
18076		0.241833	-9.137159	3.416186	0.036143	-0.010442	-0.001877	-0.014404	0.984619	0.042236	0.580044	-0.417334	0.390841	-0.580194
18077		0.261602	-9.185688	3.448467	0.021419	-0.001459	-0.007843	-0.009033	0.981445	0.043457	0.580101	-0.417272	0.390718	-0.580264
18078		0.232566	-9.238294	3.397566	-0.006930	0.000393	-0.008121	-0.020752	0.985107	0.044189	0.580074	-0.417356	0.390729	-0.580223
18079		0.330582	-9.233604	3.324352	-0.024792	0.012723	-0.000624	-0.011230	0.987549	0.039062	0.579932	-0.417415	0.390941	-0.580180
18080		0.314165	-9.153448	3.348051	-0.005681	-0.008073	-0.002365	-0.013184	0.987305	0.037598	0.579958	-0.417500	0.390924	-0.580105
18081		0.365287	-9.195013	3.378036	0.009418	-0.002728	-0.004707	-0.014404	0.982910	0.041748	0.580001	-0.417486	0.390854	-0.580120
18082		0.359221	-9.166796	3.372538	0.016357	-0.004617	-0.004389	-0.012939	0.981689	0.034668	0.580068	-0.417452	0.390750	-0.580145
18083		0.365658	-9.148950	3.432154	0.010055	-0.012467	0.000694	-0.013916	0.982666	0.036133	0.580177	-0.417463	0.390643	-0.580102
18084		0.414979	-9.146461	3.395882	-0.020879	0.002174	-0.003079	-0.020508	0.990723	0.046387	0.580105	-0.417565	0.390747	-0.580030
18085		0.373356	-9.234588	3.341221	-0.014720	0.012613	-0.000502	-0.018799	0.977783	0.049561	0.579996	-0.417577	0.390914	-0.580018
18086		0.297433	-9.229285	3.316100	0.000134	0.025925	-0.000011	-0.014404	0.975098	0.038574	0.579906	-0.417464	0.391073	-0.580082
18087		0.273574	-9.246185	3.447923	0.019265	0.007275	-0.004093	-0.013184	0.980713	0.041016	0.579952	-0.417355	0.391007	-0.580159
18088		0.272912	-9.206555	3.421520	0.025228	-0.021921	-0.005394	-0.012695	0.989990	0.046387	0.580108	-0.417367	0.390769	-0.580154
18089		0.369146	-9.117235	3.373252	0.003954	-0.012835	-0.003447	-0.017822	0.980469	0.036865	0.580164	-0.417440	0.390694	-0.580096
18090		0.408490	-9.073213	3.441679	-0.007922	0.008173	-0.005791	-0.017578	0.979736	0.034912	0.580090	-0.417452	0.390766	-0.580114
18091		0.316452	-9.125742	3.392948	-0.024131	0.013841	-0.003604	-0.011230	0.982910	0.038574	0.579954	-0.417506	0.390946	-0.580089
18092		0.323781	-9.274561	3.357240	-0.031204	0.016825	-0.004068	-0.010010	0.991699	0.036621	0.579804	-0.417600	0.391164	-0.580024
18093		0.288330	-9.321252	3.218148	-0.012785	0.021273	0.007163	-0.017334	0.984131	0.044922	0.579762	-0.417543	0.391348	-0.579983
18094		0.199958	-9.235995	3.383885	0.014226	-0.006908	0.004406	-0.012939	0.989746	0.042725	0.579858	-0.417498	0.391286	-0.579962
18095		0.260114	-9.141286	3.330655	0.020646	-0.022724	-0.001728	-0.006592	0.982666	0.043701	0.580014	-0.417524	0.391083	-0.579924
18096		0.345373	-9.148925	3.453667	0.008539	-0.012035	-0.007117	-0.003906	0.980957	0.047119	0.580095	-0.417592	0.390957	-0.579879
18097		0.438018	-9.172485	3.396187	-0.004825	0.002032	-0.006766	-0.016846	0.978271	0.046143	0.580093	-0.417668	0.390963	-0.579822
18098		0.331106	-9.188199	3.324111	-0.014760	0.004685	-0.001282	-0.006348	0.981445	0.046387	0.580024	-0.417732	0.391077	-0.579768
18099		0.347681	-9.149797	3.335852	-0.001319	-0.013964	-0.003620	-0.009521	0.981689	0.045898	0.580093	-0.417851	0.391004	-0.579663
18100		0.351136	-9.175535	3.410964	0.010836	0.002222	-0.001722	-0.013184	0.989990	0.046143	0.580148	-0.417818	0.390964	-0.579658
18101		0.294322	-9.282766	3.356097	-0.000635	0.023599	0.001830	-0.017578	0.983643	0.048340	0.580094	-0.417717	0.391105	-0.579691
18102		0.242415	-9.247610	3.476066	-0.012845	0.007560	0.003265	-0.020264	0.983887	0.039795	0.580038	-0.417743	0.391244	-0.579633
18103		0.334984	-9.184038	3.335621	0.001568	-0.004218	-0.000983	-0.014404	0.986572	0.047119	0.580047	-0.417748	0.391236	-0.579626
18104		0.294399	-9.144396	3.289472	0.027788	-0.006898	-0.008866	-0.011230	0.990479	0.038086	0.580133	-0.417690	0.391059	-0.579701
18105		0.310293	-9.191998	3.272187	0.013736	0.000261	-0.008659	-0.008301	0.984131	0.042725	0.580166	-0.417656	0.390967	-0.579755
18106		0.324689	-9.126294	3.443151	0.009018	0.000550	-0.005135	-0.017822	0.983154	0.046631	0.580209	-0.417648	0.390910	-0.579756
18107		0.378540	-9.187559	3.397470	0.001277	0.002400	-0.002621	-0.013672	0.986328	0.044678	0.580192	-0.417647	0.390934	-0.579758
18108		0.349991	-9.215977	3.434642	-0.002718	0.007307	0.000051	-0.015381	0.983154	0.038574	0.580174	-0.417638	0.391000	-0.579738
18109		0.280589	-9.313327	3.313607	-0.001191	0.015602	0.001825	-0.007080	0.994629	0.038818	0.580142	-0.417562	0.391098	-0.579758
18110		0.209262	-9.251894	3.318363	0.014654	0.007284	-0.007239	-0.013428	0.981445	0.041748	0.580176	-0.417494	0.391033	-0.579817
18111		0.275436	-9.082805	3.418268	0.029775	-0.005649	-0.015450	-0.010010	0.984863	0.041992	0.580242	-0.417437	0.390820	-0.579935
18112		0.332503	-9.131046	3.304007	0.008696	-0.014618	-0.014768	-0.007812	0.983398	0.040771	0.580280	-0.417532	0.390661	-0.579936
18113		0.312637	-9.186494	3.464371	-0.005077	0.009992	-0.003942	-0.011475	0.991943	0.047852	0.580252	-0.417542	0.390719	-0.579918
18114		0.384935	-9.223723	3.432569	-0.022535	0.002227	0.005913	-0.012695	0.985107	0.043213	0.580216	-0.417643	0.390877	-0.579775
18115		0.319822	-9.248433	3.345470	-0.022422	0.009216	0.010163	-0.014893	0.979248	0.042480	0.580177	-0.417688	0.391077	-0.579646
18116		0.241668	-9.223265	3.281522	0.013846	-0.015334	-0.005590	-0.007812	0.979980	0.041016	0.580262	-0.417721	0.390932	-0.579635
18117		0.348906	-9.111247	3.420734	0.034279	-0.019198	-0.012863	-0.014160	0.977783	0.044189	0.580423	-0.417710	0.390627	-0.579688
18118		0.380160	-9.081777	3.386072	0.001176	-0.006079	-0.014677	-0.016357	0.982178	0.033691	0.580392	-0.417796	0.390557	-0.579705
18119		0.455160	-9.112008	3.435762	-0.008229	0.002420	-0.006856	-0.009766	0.986328	0.041992	0.580336	-0.417837	0.390591	-0.579708
18120		0.388945	-9.166956	3.411433	-0.020416	0.009645	0.010391	-0.014160	0.984131	0.044189	0.580316	-0.417873	0.390777	-0.579576
18121		0.310561	-9.306748	3.257417	-0.002931	0.020257	0.012809	-0.018066	0.980957	0.042480	0.580317	-0.417760	0.390949	-0.579541
18122		0.183582	-9.385214	3.315985	0.011766	0.015038	0.002813	-0.017090	0.983154	0.036621	0.580324	-0.417622	0.390997	-0.579601
18123		0.229195	-9.298367	3.418869	0.021092	-0.011466	-0.004204	-0.015381	0.980225	0.051025	0.580421	-0.417582	0.390838	-0.579640
18124		0.357513	-9.055623	3.386058	0.019536	-0.024046	-0.001287	-0.014648	0.981201	0.039062	0.580566	-0.417629	0.390652	-0.579586
18125		0.446017	-8.944626	3.480796	0.008605	-0.008535	-0.004984	-0.017822	0.990234	0.042969	0.580615	-0.417648	0.390563	-0.579584
18126		0.395355	-8.990690	3.417760	-0.007333	0.003654	-0.008557	-0.017334	0.984863	0.040771	0.580534	-0.417695	0.390612	-0.579598
18127		0.304993	-9.226452	3.385342	-0.035852	0.021210	-0.008581	-0.010742	0.983887	0.040283	0.580303	-0.417793	0.390877	-0.579580
18128		0.294440	-9.445089	3.282740	-0.022032	0.027826	-0.002844	-0.017578	0.972656	0.038330	0.580151	-0.417787	0.391112	-0.579578
18129		0.161313	-9.439767	3.426881	0.009265	0.006452	-0.000738	-0.015381	0.990234	0.047852	0.580168	-0.417711	0.391108	-0.579618
18130		0.239473	-9.200272	3.313639	0.022603	-0.024260	0.004195	-0.014404	0.986572	0.036133	0.580350	-0.417717	0.390922	-0.579557
18131		0.310068	-9.089446	3.366945	0.022128	-0.030257	-0.001480	-0.010498	0.982422	0.038574	0.580536	-0.417758	0.390671	-0.579511
18132		0.412786	-9.027208	3.441409	0.006726	0.000156	-0.003303	-0.013428	0.989990	0.038086	0.580574	-0.417745	0.390630	-0.579510
18133		0.382416	-9.080803	3.388428	-0.020809	0.011419	0.002152	-0.016846	0.985107	0.041992	0.580492	-0.417785	0.390802	-0.579446
18134		0.297394	-9.154624	3.312595	-0.000746	-0.000183	-0.000500	-0.010986	0.987061	0.043457	0.580492	-0.417793	0.390823	-0.579427
18135		0.300012	-9.192895	3.342431	0.000640	0.001924	-0.009793	-0.013672	0.985352	0.039551	0.580464	-0.417827	0.390806	-0.579442
18136		0.352081	-9.240664	3.406972	-0.009015	-0.002750	-0.017288	-0.022705	0.984619	0.051025	0.580376	-0.417944	0.390786	-0.579459
18137		0.431296	-9.284908	3.344646	-0.003268	-0.007973	-0.010865	-0.010742	0.985352	0.041016	0.580314	-0.418037	0.390771	-0.579464
18138		0.381582	-9.249332	3.465303	0.000610	0.001274	0.000356	-0.015869	0.985352	0.047852	0.580343	-0.418039	0.390780	-0.579428
18139		0.276081	-9.158859	3.436948	-0.005356	0.007082	0.007275	-0.010742	0.990234	0.040283	0.580340	-0.418020	0.390891	-0.579369
18140		0.150659	-9.105889	3.347352	0.001817	-0.001961	-0.002047	-0.013672	0.986328	0.042969	0.580370	-0.418036	0.390870	-0.579341
18141		0.239283	-9.121874	3.321128	-0.003945	-0.002518	-0.011585	-0.014404	0.987549	0.041504	0.580324	-0.418114	0.390851	-0.579345
18142		0.378111	-9.203913	3.350656	0.000543	-0.015272	-0.015807	-0.011963	0.983887	0.037354	0.580313	-0.418240	0.390733	-0.579343
18143		0.459198	-9.216737	3.343562	0.004759	0.006156	-0.010559	-0.004639	0.983154	0.043213	0.580287	-0.418227	0.390704	-0.579399
18144		0.335156	-9.226175	3.426101	0.002318	0.008333	-0.001063	-0.007812	0.989990	0.038574	0.580313	-0.418207	0.390724	-0.579374
18145		0.277505	-9.289531	3.420134	-0.009669	0.009179	-0.000272	-0.009033	0.994873	0.036865	0.580288	-0.418224	0.390810	-0.579329
18146		0.317101	-9.284351	3.401817	-0.010360	-0.008606	0.007977	-0.010742	0.975342	0.041504	0.580355	-0.418296	0.390842	-0.579188
18147		0.332655	-9.176777	3.322684	0.000027	-0.004437	0.001353	-0.013428	0.986328	0.044922	0.580406	-0.418328	0.390829	-0.579123
18148		0.347089	-9.162131	3.247798	0.018251	0.011459	-0.007232	-0.012939	0.988037	0.044678	0.580413	-0.418219	0.390787	-0.579223
18149		0.290893	-9.073702	3.337415	0.011050	0.021301	-0.004726	-0.010254	0.993408	0.033203	0.580376	-0.418090	0.390835	-0.579321
18150		0.283142	-9.121372	3.341703	-0.005857	0.014245	-0.005799	-0.019043	0.984131	0.035889	0.580314	-0.418067	0.390906	-0.579351
18151		0.344740	-9.198248	3.461230	-0.015537	0.017644	-0.009192	-0.012451	0.983643	0.042969	0.580160	-0.418075	0.391049	-0.579403
18152		0.367961	-9.256429	3.456299	-0.002357	0.002688	-0.003991	-0.017578	0.982178	0.040771	0.580146	-0.418098	0.391070	-0.579388
18153		0.338935	-9.228457	3.357104	-0.004842	0.003517	0.001034	-0.012695	0.979248	0.046631	0.580127	-0.418099	0.391131	-0.579364
18154		0.253279	-9.187823	3.357482	0.011326	-0.005611	-0.003266	-0.008301	0.984131	0.047363	0.580189	-0.418099	0.391053	-0.579355
18155		0.250849	-9.167050	3.320972	0.022728	0.000203	-0.003637	-0.015137	0.980713	0.043457	0.580283	-0.418026	0.390940	-0.579390
18156		0.347411	-9.121479	3.339008	0.018974	0.003725	-0.007497	-0.012207	0.981201	0.049316	0.580312	-0.417949	0.390857	-0.579472
18157		0.333342	-9.147590	3.371641	-0.006722	0.004929	-0.008208	-0.010010	0.981689	0.052734	0.580251	-0.418007	0.390904	-0.579460
18158		0.377181	-9.294510	3.308865	-0.016943	0.022111	-0.003607	-0.014404	0.980469	0.050537	0.580126	-0.418026	0.391099	-0.579439
18159		0.267887	-9.197048	3.425282	-0.014402	0.003673	0.000125	-0.015625	0.984619	0.052002	0.580075	-0.418098	0.391211	-0.579363
18160		0.318217	-9.175989	3.398195	0.000601	-0.004509	-0.002759	-0.010498	0.980713	0.037598	0.580082	-0.418144	0.391206	-0.579326
18161		0.334522	-9.149062	3.367526	0.012704	-0.005638	-0.010212	-0.011963	0.983643	0.045410	0.580128	-0.418150	0.391080	-0.579360
18162		0.338706	-9.249550	3.340229	0.017068	0.000853	-0.012043	-0.020020	0.987793	0.041504	0.580149	-0.418119	0.390972	-0.579435
18163		0.282208	-9.249572	3.279633	-0.006019	-0.001328	-0.000671	-0.016357	0.987305	0.042969	0.580125	-0.418150	0.391016	-0.579407
18164		0.321183	-9.199401	3.312317	-0.003317	-0.004193	-0.002071	-0.012695	0.977051	0.043945	0.580124	-0.418197	0.391023	-0.579369
18165		0.301939	-9.230493	3.331482	0.009967	0.005307	-0.004708	-0.013916	0.985107	0.043701	0.580141	-0.418152	0.390995	-0.579403
18166		0.288189	-9.231714	3.453672	0.005845	0.019230	-0.001417	-0.021973	0.980225	0.043213	0.580108	-0.418045	0.391069	-0.579464
18167		0.302979	-9.129725	3.411304	0.001690	0.004917	0.000924	-0.010010	0.977539	0.036133	0.580091	-0.418005	0.391117	-0.579477
18168		0.397128	-9.109760	3.452472	0.000452	-0.005566	-0.000556	-0.013428	0.989990	0.051270	0.580145	-0.418039	0.391080	-0.579423
18169		0.337028	-9.159609	3.327665	-0.002543	-0.008450	-0.000214	-0.016602	0.987549	0.048828	0.580173	-0.418113	0.391076	-0.579345
18170		0.380813	-9.243109	3.325063	-0.009759	-0.004396	-0.000830	-0.008789	0.977539	0.042725	0.580151	-0.418194	0.391127	-0.579274
18171		0.286280	-9.200149	3.342774	0.000551	0.010154	-0.002355	-0.006348	0.987549	0.043213	0.580144	-0.418170	0.391167	-0.579272
18172		0.294809	-9.208540	3.360990	0.017972	-0.000852	-0.004580	-0.006592	0.986328	0.046143	0.580228	-0.418123	0.391059	-0.579293
18173		0.376151	-9.120514	3.433804	0.011257	0.001129	-0.003629	-0.013428	0.981201	0.049316	0.580284	-0.418101	0.391002	-0.579292
18174		0.368994	-9.105079	3.382806	0.003748	-0.000569	-0.005302	-0.013428	0.991211	0.039307	0.580287	-0.418123	0.390984	-0.579285
18175		0.273695	-9.231383	3.298736	-0.011328	0.004912	-0.011362	-0.013672	0.978760	0.047852	0.580195	-0.418193	0.391031	-0.579295
18176		0.226957	-9.222677	3.376490	-0.017011	0.007042	-0.011967	-0.013916	0.979004	0.045410	0.580070	-0.418298	0.391124	-0.579282
18177		0.287686	-9.192413	3.374221	-0.012693	-0.007428	-0.003826	-0.009033	0.984863	0.050049	0.580048	-0.418421	0.391151	-0.579197
18178		0.257112	-9.213322	3.328091	0.018071	-0.009063	-0.012021	-0.020752	0.983643	0.038818	0.580112	-0.418443	0.390991	-0.579225
18179		0.312706	-9.210328	3.344472	0.025364	-0.005321	-0.013974	-0.021240	0.982666	0.046631	0.580147	-0.418381	0.390813	-0.579354
18180		0.369623	-9.188614	3.370576	0.023655	0.010873	-0.021541	-0.010986	0.980469	0.038818	0.580081	-0.418286	0.390708	-0.579561
18181		0.443148	-9.184902	3.429500	0.015240	0.005784	-0.019166	-0.018555	0.980225	0.042236	0.580055	-0.418257	0.390596	-0.579683
18182		0.342680	-9.183153	3.417547	-0.000236	0.014411	-0.004222	-0.020264	0.989746	0.042480	0.579992	-0.418205	0.390671	-0.579733
18183		0.292439	-9.211378	3.362867	-0.009892	-0.003318	-0.000974	-0.008789	0.974121	0.047607	0.579961	-0.418269	0.390724	-0.579683
18184		0.307495	-9.248022	3.386254	-0.002260	0.000934	0.006304	-0.020020	0.984131	0.043701	0.580015	-0.418284	0.390769	-0.579587
18185		0.316131	-9.175903	3.355513	-0.007645	-0.000614	-0.001819	-0.010498	0.982666	0.043213	0.579980	-0.418330	0.390821	-0.579554
18186		0.336623	-9.144973	3.335708	-0.007456	0.006888	-0.011063	-0.012939	0.983154	0.036621	0.579908	-0.418385	0.390857	-0.579561
18187		0.370681	-9.192495	3.359444	0.022874	0.004259	-0.014997	-0.012207	0.980713	0.042725	0.579929	-0.418306	0.390716	-0.579693
18188		0.353340	-9.228367	3.417230	0.026302	-0.014279	-0.017423	-0.017822	0.985352	0.045410	0.580010	-0.418319	0.390466	-0.579771
18189		0.336155	-9.189133	3.463131	0.017713	-0.018942	-0.005037	-0.016602	0.988770	0.039307	0.580114	-0.418349	0.390294	-0.579761
18190		0.335648	-9.133217	3.326061	-0.030766	0.001592	0.008203	-0.006592	0.982178	0.050537	0.580053	-0.418464	0.390492	-0.579605
18191		0.298800	-9.117607	3.360292	-0.032294	0.023022	0.015173	-0.018311	0.977539	0.048584	0.579978	-0.418495	0.390820	-0.579437
18192		0.283018	-9.184547	3.301775	-0.031419	0.025079	0.006650	-0.009766	0.989746	0.046143	0.579821	-0.418515	0.391143	-0.579362
18193		0.281491	-9.266883	3.345770	-0.005162	0.013090	-0.009783	-0.012207	0.983398	0.041748	0.579742	-0.418528	0.391205	-0.579389
18194		0.326495	-9.280149	3.369729	0.024526	-0.008833	-0.013251	-0.007812	0.986084	0.039551	0.579818	-0.418505	0.391004	-0.579466
18195		0.420005	-9.231853	3.456777	0.042887	-0.011438	-0.009585	-0.010986	0.982666	0.035400	0.580000	-0.418399	0.390704	-0.579563
18196		0.448582	-9.156805	3.474384	0.020982	-0.018236	-0.005087	-0.019287	0.989502	0.040771	0.580142	-0.418407	0.390492	-0.579557
18197		0.372471	-9.107407	3.384910	-0.018538	0.003035	0.006347	-0.020508	0.983643	0.038330	0.580100	-0.418458	0.390638	-0.579464
18198		0.300048	-9.186939	3.221646	-0.027320	0.021375	0.005115	-0.016602	0.989258	0.039795	0.579960	-0.418462	0.390909	-0.579419
18199		0.280746	-9.200653	3.247089	-0.005797	0.007511	-0.005448	-0.018066	0.985596	0.036133	0.579901	-0.418470	0.390967	-0.579433
18200		0.305969	-9.170177	3.277781	0.018589	-0.011113	-0.010443	-0.008789	0.984863	0.041016	0.579961	-0.418460	0.390797	-0.579495
18201		0.325780	-9.167951	3.438729	0.018774	-0.014493	-0.011288	-0.006836	0.984863	0.035400	0.580057	-0.418492	0.390595	-0.579511
18202		0.312241	-9.199907	3.507181	-0.000284	0.005136	-0.009458	-0.013428	0.983154	0.035400	0.580042	-0.418513	0.390576	-0.579525
18203		0.358543	-9.252992	3.442437	-0.023236	0.012697	-0.006346	-0.011719	0.980957	0.043457	0.579915	-0.418585	0.390727	-0.579497
18204		0.302407	-9.299073	3.328762	-0.005101	0.023706	-0.000083	-0.011230	0.982178	0.041016	0.579848	-0.418512	0.390873	-0.579520
18205		0.198712	-9.247105	3.330752	0.011336	0.000203	-0.000142	-0.011963	0.984375	0.041748	0.579917	-0.418469	0.390821	-0.579516
18206		0.283929	-9.097209	3.281690	0.032793	-0.015659	-0.005015	-0.007324	0.985107	0.038330	0.580085	-0.418414	0.390575	-0.579554
18207		0.293479	-9.116793	3.372684	0.013921	-0.018917	-0.011018	-0.018066	0.979736	0.033936	0.580186	-0.418490	0.390371	-0.579535
18208		0.427123	-9.138892	3.450957	0.008547	0.001184	-0.014511	-0.010254	0.983154	0.036133	0.580153	-0.418481	0.390293	-0.579627
18209		0.503461	-9.150207	3.395531	-0.006476	0.009324	-0.011639	-0.013916	0.990479	0.041504	0.580081	-0.418514	0.390324	-0.579654
18210		0.320072	-9.186326	3.439866	-0.019918	0.008148	0.001777	-0.005859	0.979004	0.048340	0.580014	-0.418573	0.390476	-0.579577
18211		0.268133	-9.165226	3.282336	-0.018534	-0.002763	0.003232	-0.014893	0.984619	0.048340	0.580019	-0.418702	0.390564	-0.579418
18212		0.230485	-9.279364	3.302910	-0.008164	-0.008633	-0.001805	-0.019531	0.989014	0.043457	0.580024	-0.418806	0.390575	-0.579332
18213		0.350027	-9.298319	3.349055	0.000126	-0.006067	-0.009786	-0.012939	0.982422	0.036621	0.579997	-0.418865	0.390534	-0.579344
18214		0.379121	-9.211381	3.409740	0.042719	-0.005860	-0.011097	-0.011963	0.986816	0.045898	0.580139	-0.418725	0.390261	-0.579486
18215		0.407899	-9.123312	3.473231	0.037985	-0.007738	-0.005228	-0.017822	0.974854	0.040527	0.580296	-0.418615	0.390033	-0.579562
18216		0.385830	-9.121425	3.386175	0.016225	0.013927	0.004811	-0.019531	0.984375	0.033936	0.580341	-0.418456	0.390054	-0.579617
18217		0.327381	-9.179172	3.344964	-0.023793	0.027806	0.006097	-0.011719	0.988525	0.041748	0.580203	-0.418405	0.390337	-0.579602
18218		0.295058	-9.170514	3.349551	-0.013484	0.014151	0.003641	-0.021240	0.977783	0.040283	0.580154	-0.418403	0.390489	-0.579550
18219		0.301206	-9.216870	3.346624	-0.003739	-0.000125	-0.009327	-0.020996	0.994141	0.041504	0.580094	-0.418446	0.390497	-0.579574
18220		0.299601	-9.208903	3.378773	0.011584	-0.014078	-0.017361	-0.008545	0.979980	0.038818	0.580090	-0.418507	0.390338	-0.579641
18221		0.345242	-9.158795	3.461805	0.006165	-0.008359	-0.014570	-0.019775	0.973145	0.033447	0.580111	-0.418583	0.390211	-0.579651
18222		0.342866	-9.151015	3.493475	-0.004872	0.004305	-0.005795	-0.016846	0.981689	0.046631	0.580061	-0.418593	0.390245	-0.579671
18223		0.383467	-9.140287	3.324147	-0.021143	0.011367	0.004172	-0.011719	0.982666	0.046387	0.579979	-0.418639	0.390438	-0.579589
18224		0.336396	-9.164366	3.281261	-0.005518	0.018236	0.005527	-0.012451	0.982178	0.037109	0.579954	-0.418580	0.390583	-0.579560
18225		0.273350	-9.244666	3.333780	0.008408	-0.002821	-0.003135	-0.021240	0.987549	0.044922	0.580007	-0.418569	0.390517	-0.579559
18226		0.316449	-9.269859	3.428460	0.010591	-0.007905	-0.001403	-0.012207	0.981201	0.040039	0.580056	-0.418558	0.390452	-0.579561
18227		0.433309	-9.111705	3.379284	0.009390	-0.016245	-0.005223	-0.015625	0.977295	0.033936	0.580144	-0.418619	0.390314	-0.579522
18228		0.485962	-9.046601	3.451372	-0.013340	0.015203	0.001438	-0.014893	0.985107	0.044922	0.580077	-0.418603	0.390458	-0.579504
18229		0.319809	-9.146777	3.361365	-0.046553	0.020391	0.002137	-0.020508	0.983643	0.047607	0.579874	-0.418733	0.390805	-0.579379
18230		0.251124	-9.183424	3.295255	-0.015223	0.006544	-0.006223	-0.017090	0.983887	0.042236	0.579764	-0.418798	0.390918	-0.579366
18231		0.319071	-9.267040	3.269946	0.018602	-0.008124	-0.019605	-0.012695	0.985596	0.043945	0.579771	-0.418813	0.390736	-0.579471
18232		0.334106	-9.294449	3.328814	0.019775	-0.009056	-0.021017	-0.017334	0.976074	0.039551	0.579792	-0.418844	0.390532	-0.579565
18233		0.345253	-9.290306	3.391381	-0.004455	0.001034	-0.005358	-0.020264	0.981934	0.050049	0.579762	-0.418879	0.390551	-0.579557
18234		0.236802	-9.243681	3.379543	0.001591	0.008698	0.009719	-0.012207	0.991699	0.040283	0.579782	-0.418805	0.390651	-0.579523
18235		0.251949	-9.110914	3.390260	-0.001651	0.004353	0.004311	-0.017578	0.985352	0.042725	0.579810	-0.418787	0.390699	-0.579476
18236		0.227874	-9.216252	3.372266	0.005094	-0.001239	-0.002095	-0.012695	0.987549	0.049316	0.579830	-0.418777	0.390678	-0.579477
18237		0.304423	-9.202458	3.406238	-0.000731	-0.005971	-0.003612	-0.022949	0.987549	0.046631	0.579849	-0.418841	0.390658	-0.579426
18238		0.385532	-9.195976	3.409478	0.016274	0.000883	-0.009203	-0.013916	0.977783	0.042969	0.579845	-0.418783	0.390586	-0.579520
18239		0.409807	-9.177184	3.397441	0.020698	0.006447	-0.007558	-0.014893	0.984375	0.042236	0.579882	-0.418688	0.390500	-0.579610
18240		0.404426	-9.200183	3.262299	0.010259	0.012449	0.000810	-0.014648	0.983643	0.043213	0.579899	-0.418583	0.390525	-0.579651
18241		0.335528	-9.203183	3.371539	0.008253	0.024916	0.011271	-0.019043	0.986084	0.041992	0.579919	-0.418396	0.390658	-0.579677
18242		0.321005	-9.180603	3.351366	-0.003734	0.009835	0.010528	-0.013916	0.983398	0.036133	0.579928	-0.418331	0.390781	-0.579632
18243		0.275222	-9.197868	3.275419	0.008916	-0.004891	-0.001558	-0.017822	0.982422	0.047119	0.579992	-0.418318	0.390711	-0.579624
18244		0.355326	-9.133927	3.373788	0.013533	-0.015630	-0.011438	-0.006348	0.981445	0.043213	0.580038	-0.418373	0.390556	-0.579643
18245		0.440454	-9.084048	3.360888	0.013354	-0.010092	-0.012950	-0.015137	0.983398	0.047119	0.580099	-0.418426	0.390394	-0.579652
18246		0.376634	-9.143759	3.490200	-0.001819	-0.000879	-0.010238	-0.021729	0.983643	0.042725	0.580059	-0.418487	0.390383	-0.579657
18247		0.375185	-9.262973	3.402400	-0.011598	0.014194	-0.004101	-0.014893	0.982666	0.033203	0.579946	-0.418483	0.390520	-0.579679
18248		0.269413	-9.318100	3.360615	0.000394	0.018389	0.005056	-0.007080	0.978760	0.043457	0.579938	-0.418374	0.390623	-0.579697
