// Start Time: Unknown
// Update Rate: 60.0Hz
// Filter Profile: human (46.1)
// Firmware Version: 4.6.0
PacketCounter	SampleTimeFine	Acc_X	Acc_Y	Acc_Z	Gyr_X	Gyr_Y	Gyr_Z	Mag_X	Mag_Y	Mag_Z	Quat_q0	Quat_q1	Quat_q2	Quat_q3
14215		5.023606	2.818671	7.910114	0.001427	0.000022	-0.001223	-0.098145	-0.110107	-0.884033	0.930609	0.092774	-0.295307	-0.195331
14216		5.016501	2.798580	7.934564	0.002222	-0.001072	-0.001617	-0.090332	-0.110840	-0.893311	0.930602	0.092793	-0.295318	-0.195339
14217		5.040976	2.809949	7.915918	0.001254	0.002056	-0.000186	-0.096680	-0.116455	-0.895508	0.930609	0.092809	-0.295293	-0.195336
14218		4.998195	2.818616	7.910159	0.005840	-0.002644	-0.000047	-0.089844	-0.114014	-0.886230	0.930598	0.092850	-0.295323	-0.195324
14219		5.024509	2.810663	7.927562	0.002014	-0.002298	-0.004662	-0.094482	-0.116943	-0.890869	0.930583	0.092873	-0.295340	-0.195357
14220		5.024568	2.811075	7.927379	0.001417	-0.000152	0.000247	-0.085693	-0.112061	-0.894531	0.930582	0.092883	-0.295343	-0.195351
14221		5.007461	2.809857	7.903573	0.001590	-0.002187	-0.000789	-0.087158	-0.111084	-0.886475	0.930575	0.092892	-0.295361	-0.195355
14222		5.007399	2.821049	7.921000	0.003236	-0.000764	-0.000438	-0.093018	-0.112549	-0.899414	0.930570	0.092916	-0.295370	-0.195351
14223		5.024188	2.821974	7.908567	0.002222	-0.001072	-0.001618	-0.098145	-0.109131	-0.891357	0.930564	0.092934	-0.295378	-0.195359
14224		5.042788	2.792422	7.914813	0.004032	-0.001858	-0.000833	-0.088867	-0.112061	-0.892334	0.930556	0.092964	-0.295395	-0.195357
14225		5.025570	2.813002	7.926059	0.002136	-0.005203	0.001652	-0.091309	-0.110107	-0.894531	0.930546	0.092964	-0.295438	-0.195343
14226		5.016707	2.833385	7.913074	0.004369	-0.006101	-0.001436	-0.094482	-0.116699	-0.893311	0.930527	0.092987	-0.295488	-0.195347
14227		5.018067	2.823955	7.930748	0.001973	-0.002995	0.001218	-0.095215	-0.115234	-0.897949	0.930521	0.092991	-0.295512	-0.195334
14228		5.018543	2.823950	7.930448	-0.000468	-0.003324	0.001262	-0.091553	-0.112305	-0.886719	0.930518	0.092975	-0.295533	-0.195328
14229		5.036515	2.814696	7.936061	0.002779	-0.003914	-0.000647	-0.091064	-0.113281	-0.892578	0.930507	0.092989	-0.295560	-0.195330
14230		4.994372	2.812616	7.912362	0.004206	-0.003893	-0.001871	-0.087646	-0.111084	-0.894287	0.930494	0.093015	-0.295588	-0.195337
14231		5.020222	2.814384	7.911415	0.003172	-0.004548	-0.000110	-0.088867	-0.118164	-0.896729	0.930485	0.093027	-0.295616	-0.195334
14232		5.020685	2.814968	7.910914	0.004828	-0.002951	-0.001229	-0.094727	-0.109131	-0.895752	0.930476	0.093059	-0.295634	-0.195334
14233		5.012275	2.825508	7.916325	0.001352	-0.003936	0.000576	-0.092529	-0.113525	-0.895264	0.930470	0.093051	-0.295657	-0.195329
14234		5.021664	2.815827	7.909987	0.004600	-0.004526	-0.001334	-0.088135	-0.122070	-0.896240	0.930458	0.093077	-0.295686	-0.195332
14235		5.031688	2.796432	7.921895	0.001994	-0.002647	-0.001723	-0.090332	-0.118408	-0.895508	0.930452	0.093094	-0.295693	-0.195343
14236		5.023032	2.807106	7.927417	0.004043	-0.001684	-0.002305	-0.094727	-0.115967	-0.896729	0.930446	0.093123	-0.295697	-0.195352
14237		5.031701	2.808362	7.939019	0.002442	0.000329	-0.000045	-0.084717	-0.119873	-0.887939	0.930450	0.093130	-0.295687	-0.195345
14238		5.031871	2.797901	7.921260	0.001830	-0.000438	-0.002157	-0.091064	-0.119873	-0.896973	0.930450	0.093149	-0.295672	-0.195356
14239		5.022033	2.829052	7.926419	0.001820	-0.000612	-0.000686	-0.092773	-0.120117	-0.891846	0.930453	0.093153	-0.295663	-0.195355
14240		5.023137	2.808734	7.926774	0.002616	-0.001705	-0.001082	-0.090088	-0.113770	-0.888672	0.930449	0.093166	-0.295670	-0.195355
14241		5.030982	2.819901	7.920173	0.003879	0.000525	-0.002739	-0.092529	-0.112793	-0.897461	0.930450	0.093186	-0.295655	-0.195364
14242		5.006685	2.798622	7.920914	0.004024	-0.002031	0.000635	-0.082764	-0.117676	-0.899170	0.930452	0.093184	-0.295659	-0.195350
14243		4.997906	2.820012	7.944073	0.001995	-0.002647	-0.001723	-0.095215	-0.114746	-0.897461	0.930456	0.093188	-0.295636	-0.195364
14244		5.023681	2.810798	7.925697	0.002616	-0.001705	-0.001082	-0.087158	-0.116943	-0.895508	0.930456	0.093179	-0.295638	-0.195365
14245		5.014187	2.831263	7.913058	0.003641	-0.001224	-0.001373	-0.091553	-0.114746	-0.896240	0.930460	0.093197	-0.295618	-0.195368
14246		5.048535	2.823027	7.906442	0.004437	-0.002317	-0.001769	-0.085693	-0.115479	-0.895264	0.930458	0.093207	-0.295619	-0.195372
14247		5.024883	2.802932	7.942944	0.004054	-0.001511	-0.003777	-0.093994	-0.112549	-0.892334	0.930458	0.093232	-0.295596	-0.195395
14248		5.024067	2.813572	7.924468	0.004273	-0.000109	-0.002203	-0.091064	-0.107910	-0.892090	0.930457	0.093237	-0.295597	-0.195396
14249		5.024117	2.814183	7.924220	0.003632	-0.001397	0.000097	-0.082031	-0.111084	-0.894775	0.930462	0.093212	-0.295594	-0.195386
14250		4.999903	2.792739	7.924985	0.002224	-0.001072	-0.001620	-0.095947	-0.111328	-0.893066	0.930476	0.093203	-0.295541	-0.195405
14251		5.032193	2.825806	7.917298	0.005059	-0.001375	-0.001128	-0.090088	-0.117920	-0.886963	0.930472	0.093194	-0.295563	-0.195393
14252		5.024898	2.804843	7.905676	0.002370	-0.003626	0.001755	-0.089844	-0.113281	-0.897705	0.930467	0.093212	-0.295592	-0.195366
14253		4.999504	2.825635	7.941068	0.002617	-0.001705	-0.001082	-0.093262	-0.118652	-0.894043	0.930473	0.093192	-0.295575	-0.195375
14254		5.017580	2.794938	7.911510	0.002214	-0.001245	-0.000150	-0.094971	-0.117432	-0.904053	0.930470	0.093203	-0.295587	-0.195364
14255		5.042820	2.807367	7.928512	0.002224	-0.001072	-0.001620	-0.087891	-0.109375	-0.895264	0.930470	0.093185	-0.295584	-0.195376
14256		5.007690	2.837313	7.934054	0.001821	-0.000612	-0.000687	-0.096924	-0.115967	-0.889160	0.930485	0.093141	-0.295545	-0.195387
14257		5.001161	2.806417	7.940706	0.003176	-0.004547	-0.000111	-0.105225	-0.116943	-0.881836	0.930466	0.093143	-0.295619	-0.195364
14258		5.009618	2.806294	7.916344	0.000384	-0.000806	0.002008	-0.089355	-0.110840	-0.890137	0.930442	0.093128	-0.295737	-0.195304
14259		5.009434	2.817298	7.933919	0.001437	0.000194	-0.002696	-0.089600	-0.114502	-0.889648	0.930452	0.093101	-0.295698	-0.195331
14260		5.026114	2.818335	7.921477	0.004045	-0.001684	-0.002308	-0.095703	-0.111328	-0.893311	0.930452	0.093122	-0.295686	-0.195340
14261		5.018400	2.808276	7.927622	0.002215	-0.001245	-0.000150	-0.093994	-0.114990	-0.893066	0.930450	0.093071	-0.295707	-0.195342
14262		4.983648	2.827392	7.915403	0.004026	-0.002030	0.000633	-0.100342	-0.118652	-0.897705	0.930446	0.093069	-0.295731	-0.195327
14263		5.018257	2.818799	7.908743	0.001356	-0.003935	0.000577	-0.092041	-0.113525	-0.890381	0.930424	0.093051	-0.295817	-0.195307
14264		5.019220	2.820199	7.944236	0.004036	-0.001857	-0.000838	-0.093018	-0.115479	-0.893066	0.930423	0.093053	-0.295820	-0.195308
14265		5.010870	2.819960	7.932066	0.002390	-0.003281	-0.001186	-0.092041	-0.112549	-0.893311	0.930416	0.093050	-0.295839	-0.195314
14266		5.002853	2.819494	7.919767	0.002537	-0.005834	0.002189	-0.093750	-0.115479	-0.885010	0.930413	0.093007	-0.295864	-0.195310
14267		5.003532	2.819781	7.919236	0.002784	-0.003914	-0.000649	-0.103516	-0.118164	-0.890625	0.930399	0.093027	-0.295912	-0.195292
14268		5.038150	2.811300	7.912520	0.002390	-0.003281	-0.001187	-0.095215	-0.115479	-0.897461	0.930360	0.093032	-0.296051	-0.195266
14269		5.013103	2.821389	7.930147	0.004193	-0.004237	0.001066	-0.092285	-0.119629	-0.899658	0.930350	0.093018	-0.296091	-0.195261
14270		4.987805	2.819501	7.894209	0.002153	-0.005028	0.000181	-0.084961	-0.109375	-0.900635	0.930345	0.093044	-0.296103	-0.195254
14271		5.014426	2.822092	7.929060	0.002557	-0.005489	-0.000753	-0.093994	-0.108398	-0.901123	0.930366	0.092970	-0.296013	-0.195324
14272		5.023881	2.812180	7.922765	0.000954	-0.003474	0.001509	-0.094727	-0.116211	-0.890625	0.930372	0.092840	-0.296005	-0.195368
14273		5.041804	2.802879	7.928432	0.000569	-0.002669	-0.000499	-0.088135	-0.119629	-0.896484	0.930363	0.092842	-0.296039	-0.195359
14274		4.999246	2.811140	7.922724	0.000175	-0.002036	-0.001036	-0.091064	-0.117920	-0.896973	0.930375	0.092887	-0.295983	-0.195370
14275		5.032952	2.812175	7.897944	0.000963	-0.003302	0.000038	-0.094238	-0.120117	-0.899170	0.930377	0.092902	-0.295967	-0.195374
14276		5.024243	2.833582	7.921058	0.004440	-0.002318	-0.001773	-0.083252	-0.111572	-0.891846	0.930365	0.092963	-0.295987	-0.195370
14277		5.017933	2.791955	7.910047	0.001366	-0.003762	-0.000895	-0.089355	-0.113281	-0.888916	0.930394	0.092936	-0.295878	-0.195414
14278		5.025997	2.802948	7.903329	0.003249	-0.000591	-0.001915	-0.089111	-0.116211	-0.892090	0.930403	0.092942	-0.295836	-0.195431
14279		5.017996	2.803772	7.927184	0.003240	-0.000763	-0.000444	-0.095459	-0.114014	-0.901855	0.930414	0.092976	-0.295791	-0.195430
14280		5.017314	2.814037	7.908718	0.002619	-0.001706	-0.001085	-0.104736	-0.122559	-0.899170	0.930410	0.092926	-0.295803	-0.195454
14281		5.008643	2.824585	7.914291	0.002619	-0.001706	-0.001085	-0.097412	-0.119385	-0.891846	0.930362	0.092977	-0.295965	-0.195412
14282		5.026260	2.815663	7.920019	0.002225	-0.001073	-0.001622	-0.092285	-0.112549	-0.886719	0.930340	0.093026	-0.296035	-0.195390
14283		5.002075	2.794051	7.920889	0.001191	-0.001726	0.000141	-0.096191	-0.106689	-0.895752	0.930342	0.092988	-0.296036	-0.195395
14284		5.009806	2.816006	7.931857	0.004677	-0.000570	-0.003142	-0.093750	-0.110596	-0.890137	0.930337	0.092859	-0.296046	-0.195467
14285		5.026387	2.817177	7.919399	0.001839	-0.000268	-0.003631	-0.093018	-0.114258	-0.890625	0.930335	0.092796	-0.296039	-0.195516
14286		5.060173	2.819883	7.930592	0.004905	0.001005	-0.003039	-0.098633	-0.111572	-0.896729	0.930335	0.092817	-0.296024	-0.195531
14287		5.010260	2.786777	7.914470	0.003722	0.002903	-0.004652	-0.092773	-0.114502	-0.889893	0.930322	0.092754	-0.296051	-0.195582
14288		5.026183	2.798894	7.919916	0.001682	0.002112	-0.005537	-0.097168	-0.116699	-0.899170	0.930323	0.092765	-0.296019	-0.195619
14289		5.016457	2.820611	7.943552	0.003547	0.004939	-0.003616	-0.096436	-0.114990	-0.895752	0.930319	0.092781	-0.296016	-0.195636
14290		5.015037	2.830889	7.925537	0.000858	0.002690	-0.000728	-0.092285	-0.116943	-0.892334	0.930318	0.092751	-0.296023	-0.195643
14291		4.997860	2.830709	7.938012	-0.000140	0.002723	-0.004848	-0.091553	-0.122070	-0.884521	0.930324	0.092782	-0.295976	-0.195670
14292		4.988902	2.830363	7.926259	0.002847	-0.000130	-0.000982	-0.090576	-0.117676	-0.896729	0.930323	0.092940	-0.295980	-0.195592
14293		4.989167	2.819866	7.908454	0.002217	-0.001244	-0.000151	-0.090332	-0.111328	-0.894287	0.930335	0.092975	-0.295934	-0.195590
14294		5.006647	2.821544	7.931884	-0.000227	-0.001575	-0.000102	-0.089111	-0.120850	-0.892578	0.930353	0.092888	-0.295873	-0.195638
14295		4.981528	2.820377	7.932193	0.001192	-0.001726	0.000142	-0.095947	-0.110596	-0.891357	0.930365	0.092989	-0.295827	-0.195603
14296		4.998630	2.821125	7.919563	0.003181	-0.004545	-0.000112	-0.098145	-0.120850	-0.900635	0.930348	0.092895	-0.295890	-0.195634
14297		4.983427	2.800274	7.932036	0.001586	-0.002359	0.000679	-0.098145	-0.125977	-0.891357	0.930326	0.092939	-0.295967	-0.195602
14298		5.009180	2.801791	7.931200	0.002787	-0.003913	-0.000650	-0.083984	-0.118164	-0.892578	0.930287	0.093109	-0.296094	-0.195513
14299		5.009565	2.802224	7.930803	0.003015	-0.002338	-0.000548	-0.094727	-0.115479	-0.888184	0.930326	0.093197	-0.295955	-0.195495
14300		5.009833	2.802585	7.930507	0.001595	-0.002187	-0.000792	-0.097656	-0.111084	-0.894043	0.930314	0.093187	-0.295993	-0.195499
14301		5.001306	2.813061	7.936006	0.003409	-0.002970	-0.000010	-0.087646	-0.114746	-0.891357	0.930295	0.093082	-0.296059	-0.195540
14302		5.026270	2.824543	7.916850	0.003804	-0.003603	0.000527	-0.093262	-0.117432	-0.887939	0.930318	0.093096	-0.295982	-0.195541
14303		5.002023	2.824989	7.952687	0.004216	-0.003892	-0.001878	-0.093262	-0.122803	-0.893066	0.930304	0.093153	-0.296017	-0.195528
14304		5.002719	2.814610	7.934566	0.002779	-0.004084	0.000821	-0.088379	-0.116699	-0.895996	0.930295	0.093275	-0.296051	-0.195463
14305		5.011115	2.825394	7.927691	0.001360	-0.003933	0.000577	-0.090088	-0.117676	-0.887207	0.930319	0.093287	-0.295974	-0.195458
14306		5.020455	2.815408	7.921502	0.000966	-0.003301	0.000039	-0.089600	-0.119629	-0.888428	0.930327	0.093330	-0.295948	-0.195437
14307		5.021725	2.805757	7.939405	0.001982	-0.002991	0.001216	-0.086670	-0.114258	-0.892822	0.930339	0.093412	-0.295916	-0.195388
14308		5.012547	2.815056	7.909085	0.001605	-0.002016	-0.002263	-0.095215	-0.108398	-0.887695	0.930374	0.093406	-0.295797	-0.195409
14309		5.004873	2.804841	7.915306	0.002217	-0.001244	-0.000153	-0.093018	-0.111816	-0.895508	0.930369	0.093259	-0.295820	-0.195468
14310		5.021522	2.816538	7.920423	0.001605	-0.002016	-0.002263	-0.093262	-0.113037	-0.891357	0.930373	0.093172	-0.295795	-0.195525
14311		5.013023	2.816162	7.908390	0.001605	-0.002016	-0.002263	-0.095703	-0.119629	-0.894775	0.930372	0.093118	-0.295790	-0.195564
14312		5.004459	2.826767	7.913868	0.003814	-0.003431	-0.000945	-0.089600	-0.113037	-0.891602	0.930351	0.093181	-0.295849	-0.195544
14313		5.005479	2.817497	7.931800	0.002848	-0.000130	-0.000984	-0.098877	-0.119141	-0.894531	0.930374	0.093153	-0.295769	-0.195568
14314		5.014826	2.786049	7.890488	0.003016	-0.002337	-0.000549	-0.095459	-0.115967	-0.892578	0.930342	0.093186	-0.295871	-0.195551
14315		5.006637	2.798006	7.931909	0.005309	0.000544	-0.003978	-0.093506	-0.114990	-0.892822	0.930329	0.093210	-0.295889	-0.195574
14316		5.022967	2.810017	7.937112	0.001428	0.000021	-0.001228	-0.091064	-0.114746	-0.896973	0.930333	0.093185	-0.295871	-0.195594
14317		5.004614	2.829726	7.912712	0.005074	-0.001203	-0.002609	-0.091553	-0.116699	-0.899170	0.930345	0.093187	-0.295814	-0.195625
14318		5.015038	2.800478	7.943265	-0.000790	0.001264	-0.001075	-0.092529	-0.111816	-0.893066	0.930365	0.093171	-0.295739	-0.195647
14319		5.005452	2.809604	7.913251	0.000807	-0.000922	-0.001867	-0.090576	-0.112305	-0.892090	0.930375	0.093089	-0.295704	-0.195695
14320		4.978962	2.839997	7.930686	-0.001025	-0.000482	0.000294	-0.096436	-0.114502	-0.888672	0.930397	0.093010	-0.295637	-0.195726
14321		5.022932	2.811211	7.936712	0.000798	-0.001093	-0.000396	-0.092285	-0.104248	-0.898926	0.930384	0.092972	-0.295690	-0.195729
14322		5.006641	2.800134	7.931156	0.002000	-0.002648	-0.001726	-0.092773	-0.108887	-0.891846	0.930400	0.092752	-0.295631	-0.195846
14323		4.997991	2.821579	7.954206	0.003807	-0.003601	0.000525	-0.093018	-0.113525	-0.890625	0.930404	0.092644	-0.295625	-0.195887
14324		5.006658	2.810595	7.912137	0.001580	-0.002529	0.002150	-0.087158	-0.114990	-0.896240	0.930409	0.092604	-0.295627	-0.195880
14325		4.990396	2.810383	7.924076	0.003412	-0.002969	-0.000012	-0.089844	-0.118408	-0.892090	0.930432	0.092614	-0.295530	-0.195912
14326		5.024764	2.812706	7.935022	0.001589	-0.002358	0.000678	-0.092285	-0.107910	-0.891846	0.930442	0.092672	-0.295490	-0.195896
14327		5.025261	2.802105	7.917102	0.003017	-0.002337	-0.000550	-0.099854	-0.113770	-0.903564	0.930452	0.092551	-0.295464	-0.195948
14328		4.999308	2.821772	7.916641	0.000959	-0.003472	0.001510	-0.087402	-0.113281	-0.892334	0.930431	0.092455	-0.295549	-0.195960
14329		5.009339	2.802078	7.928765	0.001605	-0.002016	-0.002264	-0.097900	-0.123779	-0.900879	0.930452	0.092441	-0.295453	-0.196013
14330		5.033859	2.824287	7.927399	0.002210	-0.001415	0.001318	-0.090576	-0.119385	-0.892334	0.930429	0.092544	-0.295527	-0.195963
14331		5.008829	2.823644	7.927498	0.005647	-0.003871	-0.003109	-0.087891	-0.119873	-0.894531	0.930421	0.092652	-0.295517	-0.195964
14332		5.017111	2.824092	7.902968	0.003026	-0.002166	-0.002022	-0.094971	-0.114990	-0.894043	0.930432	0.092747	-0.295445	-0.195975
14333		4.985248	2.803034	7.927711	0.004599	-0.004865	0.001599	-0.097656	-0.111084	-0.896973	0.930420	0.092737	-0.295498	-0.195959
14334		5.019034	2.815434	7.920131	0.004615	-0.004524	-0.001344	-0.090088	-0.116211	-0.890869	0.930400	0.092654	-0.295567	-0.195986
14335		5.011697	2.805293	7.926138	0.000968	-0.003301	0.000039	-0.088135	-0.112305	-0.892822	0.930409	0.092667	-0.295533	-0.195990
14336		5.020845	2.806442	7.937490	0.004212	-0.004062	-0.000410	-0.090088	-0.115479	-0.895020	0.930426	0.092642	-0.295467	-0.196022
14337		5.011582	2.826704	7.924668	0.001590	-0.002357	0.000678	-0.093262	-0.121582	-0.898926	0.930439	0.092637	-0.295418	-0.196035
14338		5.021763	2.796204	7.919172	0.003018	-0.002337	-0.000551	-0.087891	-0.115234	-0.894287	0.930429	0.092723	-0.295427	-0.196029
14339		5.012943	2.817820	7.942277	0.004051	-0.001685	-0.002318	-0.093506	-0.117188	-0.890625	0.930446	0.092748	-0.295345	-0.196062
14340		5.022135	2.797228	7.918574	0.001194	-0.001725	0.000141	-0.090576	-0.114990	-0.894287	0.930442	0.092767	-0.295359	-0.196050
14341		5.004512	2.817894	7.930038	0.003260	-0.000421	-0.003392	-0.095215	-0.117188	-0.892334	0.930451	0.092778	-0.295305	-0.196084
14342		5.023098	2.788532	7.936375	0.003026	-0.002167	-0.002023	-0.093750	-0.119385	-0.889648	0.930435	0.092805	-0.295345	-0.196084
14343		4.995902	2.829222	7.935287	0.003027	-0.002167	-0.002023	-0.091797	-0.110107	-0.898438	0.930421	0.092877	-0.295375	-0.196073
14344		4.988523	2.808105	7.923856	0.001590	-0.002357	0.000678	-0.088379	-0.113525	-0.894287	0.930439	0.092771	-0.295331	-0.196105
14345		5.047272	2.821446	7.916071	0.002623	-0.001705	-0.001089	-0.095703	-0.116943	-0.892090	0.930459	0.092753	-0.295253	-0.196134
14346		4.996650	2.830302	7.934431	0.002002	-0.002648	-0.001728	-0.088867	-0.109131	-0.894775	0.930442	0.092766	-0.295302	-0.196134
14347		4.990230	2.788729	7.923613	0.005069	-0.001373	-0.001142	-0.090576	-0.117920	-0.891846	0.930467	0.092700	-0.295221	-0.196172
14348		5.031266	2.822521	7.927414	0.000977	-0.003130	-0.001432	-0.087891	-0.114258	-0.896729	0.930467	0.092735	-0.295203	-0.196183
14349		4.998490	2.800136	7.916560	0.002228	-0.001073	-0.001626	-0.090332	-0.102539	-0.889648	0.930488	0.092724	-0.295112	-0.196221
14350		5.006169	2.822145	7.927480	0.004270	-0.000280	-0.000746	-0.091309	-0.118408	-0.891846	0.930520	0.092567	-0.295040	-0.196254
14351		5.022778	2.823210	7.914988	0.003874	0.000352	-0.001283	-0.091309	-0.116943	-0.898438	0.930521	0.092636	-0.295015	-0.196251
14352		5.006961	2.802553	7.927894	0.001654	0.001595	-0.001128	-0.094238	-0.119629	-0.894043	0.930533	0.092651	-0.294960	-0.196273
14353		5.007088	2.792006	7.910187	0.002624	-0.001705	-0.001089	-0.096924	-0.109131	-0.892334	0.930519	0.092708	-0.294991	-0.196268
14354		5.014432	2.835930	7.956276	0.004278	-0.000109	-0.002218	-0.093018	-0.110352	-0.894043	0.930514	0.092629	-0.295022	-0.196277
14355		4.990107	2.803842	7.939707	0.004504	0.001466	-0.002117	-0.092529	-0.115723	-0.891846	0.930526	0.092579	-0.294987	-0.196300
14356		5.014250	2.826385	7.938408	0.002850	-0.000130	-0.000988	-0.097412	-0.113281	-0.892578	0.930528	0.092596	-0.294976	-0.196300
14357		5.007409	2.795750	7.945367	0.004278	-0.000109	-0.002218	-0.091797	-0.118896	-0.888672	0.930515	0.092578	-0.295023	-0.196298
14358		4.989844	2.805751	7.939198	0.004271	-0.000279	-0.000747	-0.091309	-0.105713	-0.895020	0.930513	0.092659	-0.295019	-0.196275
14359		4.996766	2.837793	7.931682	0.007905	-0.001842	0.000811	-0.089111	-0.122559	-0.893799	0.930530	0.092559	-0.294981	-0.196297
14360		4.988709	2.827085	7.901659	0.008479	-0.004510	0.000313	-0.083740	-0.111572	-0.897705	0.930520	0.092709	-0.294981	-0.196273
14361		5.008463	2.799075	7.943532	0.004434	-0.002656	0.001161	-0.098389	-0.119629	-0.888184	0.930556	0.092676	-0.294854	-0.196312
14362		5.016043	2.819055	7.918503	-0.007005	-0.005580	0.002509	-0.092285	-0.111816	-0.897217	0.930531	0.092643	-0.294968	-0.196273
14363		4.999854	2.828934	7.948223	0.001180	-0.002064	0.003084	-0.085205	-0.114746	-0.890869	0.930545	0.092566	-0.294947	-0.196273
14364		5.000338	2.817958	7.930442	0.000792	-0.001263	0.001075	-0.095703	-0.114258	-0.898438	0.930574	0.092567	-0.294846	-0.196288
14365		5.009227	2.818766	7.942084	-0.000225	-0.001575	-0.000101	-0.097900	-0.116211	-0.894531	0.930571	0.092512	-0.294867	-0.196299
14366		5.009559	2.807938	7.924346	0.000186	-0.001868	-0.002507	-0.091553	-0.120361	-0.893066	0.930551	0.092497	-0.294929	-0.196305
14367		5.025365	2.828930	7.911302	-0.003075	-0.001445	0.000888	-0.095459	-0.105225	-0.889404	0.930553	0.092523	-0.294916	-0.196301
14368		5.019534	2.798482	7.954291	-0.001654	-0.001595	0.001129	-0.093262	-0.106934	-0.898193	0.930565	0.092355	-0.294926	-0.196312
14369		5.009222	2.827833	7.923523	-0.002268	-0.002369	-0.000981	-0.093506	-0.116455	-0.896729	0.930578	0.092199	-0.294899	-0.196365
14370		5.019160	2.807778	7.935880	-0.000629	-0.001113	0.000833	-0.088867	-0.117432	-0.898438	0.930579	0.092186	-0.294896	-0.196368
14371		5.018790	2.806730	7.899764	0.002795	-0.003912	-0.000654	-0.083496	-0.110840	-0.891113	0.930581	0.092217	-0.294861	-0.196399
14372		5.013056	2.787803	7.959979	-0.000054	-0.003782	0.000335	-0.093994	-0.109131	-0.893555	0.930611	0.092166	-0.294753	-0.196443
14373		5.003033	2.806693	7.911366	0.003021	-0.002337	-0.000553	-0.085205	-0.117188	-0.899170	0.930614	0.092096	-0.294760	-0.196449
14374		5.011952	2.808010	7.922807	0.003028	-0.002167	-0.002025	-0.087158	-0.120850	-0.885254	0.930626	0.092137	-0.294668	-0.196512
14375		5.020809	2.809260	7.934312	0.002221	-0.001243	-0.000156	-0.089844	-0.109863	-0.895264	0.930630	0.092242	-0.294629	-0.196503
14376		5.004419	2.798193	7.928860	0.001825	-0.000612	-0.000693	-0.096680	-0.118164	-0.891357	0.930649	0.092180	-0.294571	-0.196528
14377		5.003582	2.819099	7.927990	0.001592	-0.002356	0.000677	-0.090820	-0.113037	-0.888184	0.930631	0.092209	-0.294639	-0.196497
14378		5.012477	2.820223	7.939516	0.003246	-0.000761	-0.000453	-0.090088	-0.115479	-0.887451	0.930639	0.092211	-0.294618	-0.196491
14379		5.037800	2.822062	7.938767	0.003261	-0.000422	-0.003396	-0.092529	-0.116699	-0.891846	0.930641	0.092254	-0.294590	-0.196504
14380		5.004859	2.799962	7.927958	0.003029	-0.002167	-0.002025	-0.085693	-0.112793	-0.889404	0.930632	0.092289	-0.294602	-0.196509
14381		5.030214	2.801704	7.927223	0.001436	0.000189	-0.002702	-0.089111	-0.116455	-0.894775	0.930656	0.092289	-0.294505	-0.196543
14382		5.013341	2.801865	7.939470	0.004504	0.001465	-0.002120	-0.095459	-0.112061	-0.892578	0.930666	0.092339	-0.294446	-0.196560
14383		5.004490	2.801645	7.927596	0.001832	-0.000442	-0.002165	-0.104004	-0.120850	-0.890381	0.930661	0.092300	-0.294468	-0.196569
14384		4.985874	2.831986	7.920883	0.001429	0.000020	-0.001231	-0.094482	-0.114014	-0.896729	0.930620	0.092350	-0.294611	-0.196526
14385		5.012944	2.803039	7.939306	0.000232	0.001745	-0.001371	-0.087402	-0.114258	-0.888428	0.930624	0.092318	-0.294596	-0.196544
14386		5.020738	2.813873	7.932721	0.002004	-0.002649	-0.001729	-0.088623	-0.110596	-0.887939	0.930634	0.092331	-0.294550	-0.196558
14387		4.987939	2.791577	7.921899	0.004265	-0.000448	0.000722	-0.093750	-0.117188	-0.895264	0.930653	0.092313	-0.294500	-0.196553
14388		5.002579	2.844392	7.925651	-0.002275	-0.002539	0.000492	-0.092285	-0.111084	-0.891846	0.930648	0.092294	-0.294519	-0.196555
14389		5.004839	2.813865	7.944413	0.000575	-0.002669	-0.000498	-0.100342	-0.116455	-0.892822	0.930651	0.092236	-0.294517	-0.196571
14390		5.021819	2.814416	7.931845	0.000575	-0.002669	-0.000498	-0.093994	-0.111572	-0.890381	0.930624	0.092223	-0.294619	-0.196556
14391		4.989134	2.802862	7.938515	0.002176	-0.004855	-0.001293	-0.088623	-0.109619	-0.896484	0.930612	0.092182	-0.294658	-0.196570
14392		5.005083	2.824472	7.925130	0.003651	-0.001223	-0.001388	-0.084961	-0.110596	-0.890137	0.930628	0.092137	-0.294595	-0.196610
14393		5.015155	2.805130	7.937172	0.003194	-0.004543	-0.000118	-0.089111	-0.118408	-0.895264	0.930647	0.092113	-0.294529	-0.196633
14394		4.990218	2.804033	7.937421	0.000390	-0.000800	0.002009	-0.082275	-0.109863	-0.897949	0.930659	0.092143	-0.294489	-0.196621
14395		4.999266	2.794516	7.931256	0.007706	-0.002908	-0.003711	-0.087891	-0.111816	-0.882080	0.930682	0.092149	-0.294375	-0.196683
14396		4.998560	2.815987	7.930086	0.001376	-0.003762	-0.000896	-0.088135	-0.109863	-0.895264	0.930690	0.092139	-0.294352	-0.196681
14397		5.007936	2.806273	7.923782	0.003599	-0.005005	-0.001053	-0.087891	-0.104736	-0.892822	0.930697	0.092095	-0.294321	-0.196714
14398		5.017073	2.807603	7.935084	0.003023	-0.002336	-0.000555	-0.092041	-0.114258	-0.894043	0.930719	0.091998	-0.294259	-0.196748
14399		5.008670	2.818166	7.940473	0.003195	-0.004542	-0.000119	-0.093506	-0.113770	-0.890137	0.930712	0.091997	-0.294282	-0.196750
14400		5.018745	2.809709	7.970035	0.003420	-0.002967	-0.000018	-0.096924	-0.116943	-0.890137	0.930705	0.091999	-0.294312	-0.196735
14401		5.017614	2.818673	7.915434	0.004214	-0.004229	0.001056	-0.091797	-0.116943	-0.896729	0.930683	0.092032	-0.294398	-0.196694
14402		5.011109	2.798570	7.939893	0.000390	-0.000800	0.002009	-0.084961	-0.117188	-0.891602	0.930689	0.092035	-0.294384	-0.196685
14403		5.035653	2.809540	7.920994	-0.000615	-0.000775	-0.002109	-0.093018	-0.110596	-0.888672	0.930707	0.092068	-0.294301	-0.196712
14404		5.027035	2.809209	7.909010	0.005477	-0.001835	-0.002085	-0.091064	-0.118164	-0.895996	0.930702	0.092060	-0.294314	-0.196716
14405		5.010514	2.809528	7.920999	0.003652	-0.001223	-0.001390	-0.083252	-0.114502	-0.899170	0.930699	0.092112	-0.294304	-0.196722
14406		4.994887	2.799813	7.951371	0.001205	-0.001556	-0.001332	-0.093994	-0.113525	-0.900879	0.930724	0.092114	-0.294197	-0.196765
14407		5.010653	2.821339	7.938095	0.003030	-0.002167	-0.002028	-0.090820	-0.116211	-0.891846	0.930716	0.092094	-0.294209	-0.196791
14408		5.011854	2.801015	7.938560	0.000801	-0.001093	-0.000398	-0.089355	-0.111328	-0.891357	0.930719	0.092106	-0.294196	-0.196793
14409		5.002397	2.810062	7.908389	0.001819	-0.000780	0.000777	-0.089844	-0.115234	-0.887939	0.930734	0.092076	-0.294158	-0.196792
14410		5.013031	2.780809	7.939001	0.002454	0.000501	-0.001530	-0.093994	-0.114990	-0.892578	0.930741	0.092106	-0.294128	-0.196792
14411		5.003074	2.812496	7.943862	0.006914	-0.001646	-0.004790	-0.088867	-0.107422	-0.883545	0.930723	0.092155	-0.294156	-0.196809
14412		4.985752	2.811572	7.920037	0.001819	-0.000780	0.000777	-0.091309	-0.118896	-0.885498	0.930743	0.092097	-0.294117	-0.196803
14413		5.003252	2.813611	7.943355	0.002634	-0.001536	-0.002565	-0.090820	-0.114502	-0.886963	0.930734	0.092168	-0.294129	-0.196792
14414		4.993584	2.833902	7.930694	0.002845	-0.000298	0.000479	-0.086426	-0.114014	-0.896973	0.930740	0.092185	-0.294118	-0.196773
14415		5.003683	2.803409	7.925330	0.001999	-0.002818	-0.000258	-0.090332	-0.113281	-0.902832	0.930754	0.092181	-0.294064	-0.196789
14416		4.987507	2.803259	7.937276	0.001775	-0.004393	-0.000359	-0.084229	-0.111816	-0.892334	0.930755	0.092146	-0.294054	-0.196817
14417		5.020783	2.826549	7.947392	0.004678	-0.000741	-0.001689	-0.090820	-0.114746	-0.885742	0.930776	0.092159	-0.293969	-0.196836
14418		5.013380	2.794372	7.918586	-0.000628	-0.001113	0.000835	-0.092041	-0.106689	-0.901367	0.930782	0.092151	-0.293963	-0.196820
14419		5.021187	2.816195	7.929435	0.005075	-0.001372	-0.001152	-0.092041	-0.119385	-0.890137	0.930790	0.092081	-0.293942	-0.196848
14420		5.041617	2.767355	7.972411	0.002448	0.000333	-0.000059	-0.092773	-0.113525	-0.888184	0.930787	0.092140	-0.293946	-0.196829
14421		4.986113	2.835759	7.917201	0.002237	-0.000906	-0.003103	-0.092041	-0.115723	-0.896240	0.930781	0.092144	-0.293955	-0.196842
14422		4.987213	2.815788	7.917619	0.004461	-0.002148	-0.003261	-0.093750	-0.111328	-0.895752	0.930771	0.092174	-0.293963	-0.196863
14423		5.013594	2.807928	7.935019	0.002224	-0.001242	-0.000159	-0.090576	-0.105469	-0.902344	0.930771	0.092132	-0.293971	-0.196872
14424		4.996171	2.817600	7.928866	0.003249	-0.000760	-0.000457	-0.088379	-0.115234	-0.894287	0.930787	0.092039	-0.293926	-0.196907
14425		5.005020	2.819046	7.940314	0.004455	-0.002316	-0.001790	-0.085205	-0.110352	-0.896484	0.930788	0.092071	-0.293902	-0.196922
14426		5.015015	2.788545	7.935034	-0.000404	0.000463	0.000935	-0.094482	-0.118896	-0.898438	0.930818	0.092018	-0.293809	-0.196944
14427		5.005038	2.819492	7.940144	0.001436	0.000187	-0.002705	-0.093018	-0.116699	-0.890381	0.930806	0.092050	-0.293824	-0.196963
14428		4.988559	2.808525	7.934753	0.002628	-0.001705	-0.001094	-0.093262	-0.112793	-0.891357	0.930797	0.092079	-0.293848	-0.196957
14429		5.004453	2.819024	7.903898	0.002224	-0.001242	-0.000159	-0.084717	-0.111572	-0.896973	0.930795	0.092063	-0.293862	-0.196952
14430		5.015256	2.789730	7.934465	0.001820	-0.000779	0.000776	-0.088379	-0.119385	-0.894043	0.930820	0.092038	-0.293781	-0.196969
14431		5.005742	2.810021	7.921687	0.004853	-0.002947	-0.001253	-0.093262	-0.113037	-0.894531	0.930813	0.092110	-0.293775	-0.196973
14432		4.980544	2.809585	7.921892	0.005705	-0.000259	-0.001989	-0.092285	-0.114990	-0.891846	0.930808	0.092125	-0.293783	-0.196978
14433		5.007054	2.801830	7.939180	0.003200	-0.004541	-0.000119	-0.092773	-0.110596	-0.895996	0.930798	0.092132	-0.293819	-0.196972
14434		4.972376	2.820661	7.926945	0.000180	-0.002038	-0.001035	-0.092041	-0.113281	-0.897705	0.930799	0.092074	-0.293820	-0.196992
14435		5.007664	2.813235	7.956122	0.003013	-0.002671	0.002387	-0.091064	-0.111328	-0.892334	0.930800	0.092053	-0.293829	-0.196980
14436		4.991391	2.802168	7.950644	0.002852	-0.000129	-0.000995	-0.087402	-0.111084	-0.898438	0.930807	0.092036	-0.293810	-0.196986
14437		4.998500	2.812013	7.908002	0.003437	-0.002631	-0.002964	-0.092529	-0.113037	-0.895996	0.930813	0.092019	-0.293768	-0.197028
14438		5.016429	2.803218	7.913527	0.001778	-0.004393	-0.000358	-0.100830	-0.114014	-0.896729	0.930806	0.091993	-0.293794	-0.197037
14439		4.991349	2.813430	7.931259	0.004456	-0.002316	-0.001791	-0.086182	-0.118896	-0.895996	0.930780	0.091989	-0.293882	-0.197030
14440		4.992478	2.804410	7.949172	0.004052	-0.001853	-0.000856	-0.084473	-0.111816	-0.890137	0.930783	0.092050	-0.293843	-0.197043
14441		4.992047	2.814481	7.930448	0.002170	-0.005191	0.001651	-0.095703	-0.113281	-0.888184	0.930796	0.092032	-0.293808	-0.197042
14442		5.017951	2.816349	7.929278	0.006682	-0.003558	-0.001952	-0.078125	-0.110352	-0.893066	0.930777	0.092058	-0.293871	-0.197028
14443		4.993985	2.795017	7.930185	0.002219	-0.001409	0.001312	-0.088379	-0.110352	-0.886719	0.930815	0.092041	-0.293743	-0.197046
14444		5.019625	2.796884	7.929182	0.005663	-0.003873	-0.003125	-0.093506	-0.113525	-0.892090	0.930813	0.092051	-0.293737	-0.197059
14445		4.960317	2.816255	7.953266	0.003432	-0.002798	-0.001493	-0.090088	-0.119873	-0.890625	0.930803	0.092051	-0.293766	-0.197061
14446		5.071094	2.789682	7.909553	0.003021	-0.002502	0.000914	-0.091309	-0.112061	-0.897461	0.930799	0.092107	-0.293777	-0.197041
14447		4.968848	2.816642	7.928489	0.002630	-0.001705	-0.001095	-0.086914	-0.117432	-0.893555	0.930800	0.092085	-0.293767	-0.197058
14448		5.004016	2.798547	7.940159	0.002853	-0.000129	-0.000996	-0.095459	-0.122070	-0.893311	0.930809	0.092127	-0.293722	-0.197066
14449		5.003267	2.808670	7.921604	0.002407	-0.003280	-0.001195	-0.094482	-0.117188	-0.890137	0.930784	0.092185	-0.293785	-0.197061
14450		4.995842	2.798098	7.927929	-0.002678	-0.002076	0.001434	-0.092041	-0.112793	-0.892578	0.930779	0.092162	-0.293817	-0.197048
14451		5.011698	2.819023	7.914720	0.001200	-0.001724	0.000139	-0.091797	-0.114258	-0.894287	0.930780	0.092137	-0.293819	-0.197050
14452		5.005209	2.809983	7.956726	0.001556	-0.005968	-0.000458	-0.094727	-0.109863	-0.890625	0.930770	0.092120	-0.293853	-0.197059
14453		5.005949	2.799194	7.938711	0.001997	-0.002984	0.001212	-0.088135	-0.111328	-0.898438	0.930765	0.092069	-0.293887	-0.197052
14454		5.015071	2.789509	7.932563	0.004059	-0.001686	-0.002331	-0.088867	-0.111572	-0.895264	0.930772	0.092060	-0.293848	-0.197082
14455		5.006394	2.800358	7.938020	0.003438	-0.002631	-0.002967	-0.092285	-0.110840	-0.895508	0.930774	0.092051	-0.293826	-0.197112
14456		4.997884	2.800132	7.925924	0.003034	-0.002168	-0.002032	-0.087402	-0.121582	-0.885498	0.930771	0.092026	-0.293828	-0.197134
14457		4.997896	2.822488	7.960739	0.001599	-0.002354	0.000675	-0.090088	-0.107910	-0.894531	0.930773	0.092097	-0.293819	-0.197104
14458		4.981657	2.800537	7.937747	0.004283	-0.000111	-0.002232	-0.099121	-0.113037	-0.887207	0.930782	0.092065	-0.293785	-0.197128
14459		5.007206	2.791395	7.919315	0.002009	-0.002650	-0.001732	-0.089844	-0.119873	-0.896973	0.930760	0.092048	-0.293860	-0.197126
14460		5.006296	2.823498	7.935805	0.003029	-0.002335	-0.000560	-0.095947	-0.109131	-0.898193	0.930757	0.092097	-0.293857	-0.197123
14461		5.015565	2.813740	7.929589	0.002800	-0.004077	0.000814	-0.097900	-0.115234	-0.885986	0.930747	0.092034	-0.293901	-0.197133
14462		5.000521	2.792888	7.942285	0.001998	-0.002984	0.001212	-0.093506	-0.116211	-0.897705	0.930731	0.092032	-0.293973	-0.197102
14463		4.991261	2.812929	7.929396	0.002801	-0.004077	0.000813	-0.090088	-0.118652	-0.894531	0.930722	0.092035	-0.294007	-0.197096
14464		5.018136	2.793908	7.929076	0.003428	-0.002965	-0.000023	-0.093018	-0.113281	-0.891357	0.930719	0.092078	-0.294010	-0.197084
14465		5.010700	2.783521	7.935359	-0.000228	-0.001742	0.001373	-0.092529	-0.108398	-0.890381	0.930721	0.092044	-0.294018	-0.197077
14466		4.993296	2.814935	7.964237	0.002806	-0.003910	-0.000659	-0.087891	-0.121826	-0.895020	0.930717	0.091997	-0.294036	-0.197094
14467		4.994860	2.783693	7.947034	0.003029	-0.002335	-0.000560	-0.088867	-0.100830	-0.892578	0.930718	0.092069	-0.294020	-0.197076
14468		5.009568	2.825762	7.932934	0.001823	-0.000778	0.000774	-0.099121	-0.108398	-0.890137	0.930739	0.091956	-0.293968	-0.197108
14469		4.985732	2.793126	7.916443	0.003827	-0.003595	0.000513	-0.092773	-0.115723	-0.893799	0.930722	0.091904	-0.294040	-0.197107
14470		4.994997	2.794444	7.927680	0.003206	-0.004541	-0.000123	-0.084717	-0.114502	-0.894043	0.930712	0.091916	-0.294073	-0.197101
14471		5.003215	2.816553	7.938120	0.003615	-0.004837	-0.002531	-0.088379	-0.112305	-0.890869	0.930715	0.091940	-0.294039	-0.197122
14472		5.011478	2.816797	7.913523	0.004459	-0.002317	-0.001797	-0.092041	-0.112061	-0.898193	0.930719	0.091952	-0.294017	-0.197133
14473		5.012692	2.818577	7.948972	0.001378	-0.003929	0.000576	-0.090088	-0.110352	-0.897461	0.930717	0.091913	-0.294027	-0.197146
14474		5.013328	2.796830	7.913522	0.002010	-0.002651	-0.001733	-0.091064	-0.117432	-0.893066	0.930719	0.091878	-0.294009	-0.197180
14475		5.014354	2.798747	7.949046	0.004061	-0.001687	-0.002334	-0.086914	-0.118164	-0.897949	0.930714	0.091924	-0.294009	-0.197183
14476		4.997997	2.788216	7.943476	0.005890	-0.002298	-0.003033	-0.093018	-0.116943	-0.895020	0.930713	0.091990	-0.293980	-0.197198
14477		5.014664	2.800730	7.948152	0.006294	-0.002762	-0.003969	-0.094482	-0.121094	-0.895020	0.930696	0.092044	-0.294004	-0.197214
14478		4.988583	2.810062	7.930027	0.004461	-0.002316	-0.001798	-0.092529	-0.118652	-0.898193	0.930680	0.092108	-0.294041	-0.197207
14479		5.013009	2.832687	7.928289	0.003657	-0.001223	-0.001399	-0.091064	-0.108887	-0.893799	0.930674	0.092146	-0.294046	-0.197211
14480		5.015107	2.802872	7.947117	0.002233	-0.001075	-0.001635	-0.087891	-0.108887	-0.891602	0.930679	0.092105	-0.294025	-0.197236
14481		4.997649	2.812432	7.941019	0.001824	-0.000777	0.000773	-0.092529	-0.119141	-0.892822	0.930697	0.092064	-0.293980	-0.197240
14482		5.006506	2.813787	7.952502	0.005082	-0.001371	-0.001163	-0.092285	-0.109863	-0.898438	0.930689	0.092123	-0.293995	-0.197228
14483		4.999977	2.783016	7.959569	0.000182	-0.002039	-0.001034	-0.098145	-0.116455	-0.887939	0.930691	0.092064	-0.293985	-0.197259
14484		4.990505	2.792128	7.929281	0.003037	-0.002169	-0.002034	-0.091553	-0.115967	-0.896240	0.930671	0.092084	-0.294046	-0.197254
14485		5.007149	2.814914	7.951698	0.000581	-0.002669	-0.000497	-0.085938	-0.116699	-0.895996	0.930670	0.092077	-0.294047	-0.197261
14486		4.997736	2.824093	7.921345	0.003441	-0.002632	-0.002970	-0.093994	-0.109863	-0.887695	0.930674	0.092113	-0.294010	-0.197280
14487		4.991218	2.804465	7.945840	0.002411	-0.003280	-0.001197	-0.090820	-0.113037	-0.898926	0.930666	0.092080	-0.294037	-0.197291
14488		5.024602	2.816783	7.938262	0.003037	-0.002169	-0.002035	-0.094482	-0.112549	-0.895508	0.930666	0.092072	-0.294025	-0.197316
14489		4.991610	2.794594	7.927717	0.003885	0.000519	-0.002774	-0.091309	-0.119629	-0.892090	0.930661	0.092072	-0.294023	-0.197338
14490		4.974056	2.815304	7.939101	0.000981	-0.003299	0.000039	-0.092529	-0.118652	-0.889404	0.930657	0.092099	-0.294038	-0.197324
14491		5.008591	2.795726	7.914837	0.003254	-0.000759	-0.000464	-0.090576	-0.115723	-0.894775	0.930654	0.092142	-0.294047	-0.197303
14492		5.000903	2.796692	7.938665	0.004053	-0.002018	0.000609	-0.096191	-0.110596	-0.897705	0.930656	0.092161	-0.294044	-0.197291
14493		5.008865	2.807771	7.931773	0.003659	-0.001223	-0.001400	-0.093994	-0.118164	-0.893066	0.930647	0.092131	-0.294064	-0.197316
14494		4.992461	2.796927	7.926358	0.002638	-0.001539	-0.002572	-0.086182	-0.108887	-0.887695	0.930637	0.092162	-0.294082	-0.197322
14495		5.000138	2.818985	7.937128	0.001834	-0.000446	-0.002173	-0.094727	-0.117432	-0.897461	0.930654	0.092138	-0.294025	-0.197343
14496		4.984542	2.798502	7.950120	0.004285	-0.000111	-0.002238	-0.078613	-0.118652	-0.894287	0.930645	0.092171	-0.294036	-0.197351
14497		5.007884	2.819685	7.912669	0.002855	-0.000129	-0.001001	-0.090088	-0.117920	-0.894043	0.930675	0.092231	-0.293931	-0.197337
14498		4.991306	2.819752	7.924873	0.003255	-0.000759	-0.000465	-0.097656	-0.119385	-0.892578	0.930678	0.092265	-0.293918	-0.197327
14499		5.000240	2.810213	7.918796	0.004064	-0.001687	-0.002337	-0.091064	-0.108398	-0.896973	0.930656	0.092305	-0.293971	-0.197332
14500		5.001279	2.812113	7.954345	0.001608	-0.002187	-0.000798	-0.087891	-0.122559	-0.884766	0.930661	0.092250	-0.293956	-0.197359
14501		5.009418	2.811977	7.929933	0.003033	-0.002334	-0.000563	-0.093262	-0.116699	-0.896729	0.930662	0.092328	-0.293953	-0.197320
14502		4.993199	2.800928	7.924480	0.002629	-0.001870	0.000373	-0.081055	-0.119385	-0.894775	0.930658	0.092334	-0.293966	-0.197316
14503		5.010918	2.803020	7.947669	0.001608	-0.002187	-0.000798	-0.093506	-0.107666	-0.896240	0.930680	0.092380	-0.293896	-0.197296
14504		4.994527	2.791893	7.942354	0.002451	0.000335	-0.000066	-0.091553	-0.110107	-0.888672	0.930686	0.092325	-0.293882	-0.197315
14505		5.001377	2.812429	7.917290	0.001613	-0.002022	-0.002271	-0.091309	-0.108643	-0.898682	0.930685	0.092295	-0.293879	-0.197338
14506		5.002449	2.803098	7.935431	0.002446	0.000170	0.001407	-0.086914	-0.104980	-0.893555	0.930697	0.092246	-0.293850	-0.197345
14507		4.993743	2.813396	7.941094	0.000183	-0.002040	-0.001034	-0.088623	-0.116455	-0.894775	0.930714	0.092170	-0.293802	-0.197376
14508		4.985201	2.812706	7.929174	0.002230	-0.001241	-0.000164	-0.084961	-0.113525	-0.885254	0.930720	0.092185	-0.293779	-0.197370
14509		5.011773	2.793701	7.929061	0.002634	-0.001705	-0.001100	-0.091797	-0.117920	-0.895752	0.930734	0.092201	-0.293739	-0.197362
14510		4.994133	2.814558	7.940437	0.003265	-0.000428	-0.003411	-0.084961	-0.112305	-0.889648	0.930728	0.092237	-0.293734	-0.197379
14511		4.977516	2.814738	7.952636	0.002235	-0.001075	-0.001637	-0.092285	-0.113525	-0.889160	0.930743	0.092239	-0.293682	-0.197382
14512		5.020742	2.796134	7.940098	0.003029	-0.002499	0.000909	-0.092529	-0.113525	-0.891602	0.930741	0.092235	-0.293700	-0.197370
14513		5.045399	2.796560	7.903275	0.004686	-0.000740	-0.001704	-0.094727	-0.111084	-0.893311	0.930737	0.092249	-0.293703	-0.197377
14514		4.918585	2.823814	7.958871	0.003034	-0.002334	-0.000564	-0.090088	-0.112793	-0.890381	0.930729	0.092222	-0.293728	-0.197390
14515		5.020459	2.796032	7.903420	0.000395	-0.000794	0.002010	-0.094727	-0.111084	-0.891846	0.930740	0.092195	-0.293711	-0.197376
14516		4.995230	2.816766	7.938964	0.000578	-0.002834	0.000976	-0.085693	-0.112305	-0.898193	0.930735	0.092147	-0.293738	-0.197383
14517		4.978914	2.816462	7.951150	0.001825	-0.000776	0.000772	-0.100098	-0.112305	-0.889404	0.930753	0.092131	-0.293684	-0.197382
14518		5.013502	2.796891	7.926842	0.003834	-0.003592	0.000510	-0.087646	-0.118164	-0.895508	0.930730	0.092111	-0.293763	-0.197382
14519		4.987548	2.816794	7.926246	0.003839	-0.003427	-0.000963	-0.089111	-0.112061	-0.894287	0.930731	0.092151	-0.293755	-0.197372
14520		4.989005	2.818568	7.961600	0.001162	-0.005503	0.000479	-0.097412	-0.113037	-0.889404	0.930730	0.092119	-0.293764	-0.197378
14521		4.989631	2.818543	7.961216	-0.000447	-0.003316	0.001278	-0.086914	-0.113281	-0.897705	0.930719	0.092074	-0.293815	-0.197378
14522		4.998845	2.819448	7.972640	0.002005	-0.002981	0.001210	-0.085693	-0.112549	-0.889160	0.930729	0.092060	-0.293788	-0.197374
14523		5.015895	2.809076	7.942390	0.002013	-0.002651	-0.001735	-0.091309	-0.113037	-0.893066	0.930738	0.092061	-0.293755	-0.197380
14524		4.990076	2.828871	7.941753	0.003393	-0.006743	0.000313	-0.092285	-0.115967	-0.892822	0.930727	0.092050	-0.293794	-0.197380
14525		5.008455	2.820070	7.947010	0.003614	-0.005168	0.000411	-0.089844	-0.107178	-0.887695	0.930717	0.092062	-0.293831	-0.197368
14526		4.999301	2.840044	7.934000	0.000358	-0.004409	0.000878	-0.088867	-0.116211	-0.886230	0.930720	0.091998	-0.293832	-0.197380
14527		5.010804	2.799765	7.946876	0.003832	-0.003757	0.001981	-0.088135	-0.114502	-0.889893	0.930723	0.092026	-0.293842	-0.197339
14528		5.010630	2.798564	7.910496	0.001563	-0.006132	0.001015	-0.093018	-0.115234	-0.896729	0.930723	0.092019	-0.293855	-0.197324
14529		5.003333	2.799538	7.934116	0.005487	-0.001999	-0.000634	-0.095703	-0.116455	-0.891357	0.930716	0.092043	-0.293869	-0.197322
14530		4.995150	2.810123	7.939355	0.001343	-0.007707	0.000917	-0.093018	-0.111816	-0.902832	0.930695	0.092031	-0.293946	-0.197315
14531		5.004978	2.800278	7.932818	0.005438	-0.006108	0.002652	-0.092041	-0.110840	-0.887207	0.930685	0.092011	-0.293984	-0.197311
14532		4.997179	2.799681	7.920394	0.001965	-0.006761	0.001550	-0.087891	-0.110107	-0.899902	0.930677	0.091976	-0.294026	-0.197306
14533		5.014606	2.811328	7.924839	0.002991	-0.006279	0.001247	-0.098145	-0.108154	-0.892578	0.930679	0.091941	-0.294026	-0.197315
14534		5.016446	2.790854	7.925091	0.000764	-0.004874	-0.000059	-0.090088	-0.113525	-0.897949	0.930661	0.091872	-0.294081	-0.197346
14535		5.025665	2.802959	7.953927	0.002007	-0.002981	0.001209	-0.094727	-0.117920	-0.892334	0.930666	0.091857	-0.294073	-0.197344
14536		5.000841	2.790672	7.936822	-0.000442	-0.003151	-0.000195	-0.090820	-0.114502	-0.889893	0.930658	0.091853	-0.294102	-0.197337
14537		4.999980	2.811705	7.935754	0.004687	-0.000741	-0.001709	-0.089355	-0.116211	-0.883545	0.930660	0.091883	-0.294091	-0.197332
14538		5.018552	2.793154	7.959883	-0.001426	0.000147	-0.000233	-0.090088	-0.117432	-0.886719	0.930673	0.091884	-0.294062	-0.197312
14539		5.000989	2.791621	7.936395	0.004286	-0.000112	-0.002245	-0.092529	-0.111328	-0.896729	0.930677	0.091938	-0.294047	-0.197293
14540		4.975485	2.801764	7.954548	-0.000401	0.000629	-0.000536	-0.097412	-0.116699	-0.898682	0.930684	0.091896	-0.294021	-0.197317
14541		4.999892	2.801967	7.917873	0.004065	-0.001688	-0.002343	-0.097168	-0.107666	-0.898682	0.930668	0.091915	-0.294055	-0.197334
14542		4.991148	2.823848	7.940854	0.004062	-0.001852	-0.000870	-0.092773	-0.114258	-0.895752	0.930655	0.091871	-0.294080	-0.197376
14543		4.974841	2.812952	7.935442	0.003658	-0.001387	0.000066	-0.100342	-0.113037	-0.891846	0.930655	0.091877	-0.294082	-0.197373
14544		5.010115	2.794831	7.947063	0.002449	0.000171	0.001403	-0.083984	-0.116455	-0.888672	0.930645	0.091857	-0.294121	-0.197369
14545		4.992746	2.804376	7.940913	0.002415	-0.003281	-0.001201	-0.091797	-0.120605	-0.890137	0.930658	0.091889	-0.294086	-0.197347
14546		5.001801	2.794673	7.934809	0.003257	-0.000759	-0.000470	-0.096924	-0.124756	-0.898438	0.930660	0.091944	-0.294087	-0.197309
14547		4.993088	2.805554	7.940282	0.004875	-0.002618	-0.004217	-0.090576	-0.113525	-0.892578	0.930639	0.092025	-0.294133	-0.197302
14548		5.018589	2.796429	7.921768	0.001831	-0.000612	-0.000703	-0.097656	-0.112061	-0.894531	0.930645	0.092021	-0.294112	-0.197304
14549		4.986654	2.775529	7.947159	0.004467	-0.002317	-0.001807	-0.085205	-0.117920	-0.894043	0.930627	0.092012	-0.294151	-0.197336
14550		5.001335	2.829133	7.950108	0.005674	-0.004039	-0.001672	-0.089111	-0.117920	-0.888428	0.930634	0.092071	-0.294132	-0.197308
14551		4.994084	2.808213	7.938715	0.003439	-0.002963	-0.000032	-0.086914	-0.113525	-0.885254	0.930638	0.092108	-0.294131	-0.197273
14552		5.011078	2.808897	7.925916	0.002009	-0.002980	0.001208	-0.091553	-0.110596	-0.888916	0.930650	0.092109	-0.294113	-0.197243
14553		5.005875	2.779480	7.968765	0.003218	-0.004538	-0.000129	-0.098145	-0.108887	-0.893555	0.930644	0.092089	-0.294132	-0.197253
14554		5.019884	2.820150	7.918361	0.002817	-0.003909	-0.000665	-0.087891	-0.110352	-0.887207	0.930623	0.092040	-0.294181	-0.197300
14555		5.012800	2.798989	7.906949	0.003620	-0.005167	0.000407	-0.090820	-0.118652	-0.892822	0.930625	0.092028	-0.294183	-0.197295
14556		5.004446	2.820647	7.929763	0.002417	-0.003281	-0.001202	-0.103516	-0.108643	-0.892578	0.930624	0.092058	-0.294189	-0.197276
14557		5.023415	2.802182	7.953640	0.002012	-0.002816	-0.000265	-0.091309	-0.109131	-0.892334	0.930594	0.091993	-0.294262	-0.197337
14558		5.014903	2.812637	7.959137	0.002634	-0.001869	0.000368	-0.087646	-0.112793	-0.894287	0.930596	0.091960	-0.294253	-0.197356
14559		5.006574	2.800940	7.929588	0.002414	-0.003444	0.000271	-0.094727	-0.118408	-0.885742	0.930604	0.091952	-0.294235	-0.197352
14560		5.014629	2.811762	7.922654	0.002233	-0.001240	-0.000168	-0.090332	-0.111084	-0.892090	0.930601	0.091980	-0.294254	-0.197319
14561		5.014871	2.811976	7.922424	0.000585	-0.002669	-0.000498	-0.091064	-0.105957	-0.895996	0.930605	0.091947	-0.294243	-0.197337
14562		5.016180	2.791749	7.922953	0.005090	-0.001370	-0.001177	-0.091553	-0.110107	-0.905273	0.930603	0.091915	-0.294226	-0.197384
14563		4.999788	2.791823	7.935121	0.000184	-0.002041	-0.001034	-0.094238	-0.107910	-0.893311	0.930604	0.091860	-0.294207	-0.197435
14564		5.007657	2.813633	7.945798	0.002233	-0.001240	-0.000169	-0.092285	-0.121582	-0.892578	0.930601	0.091815	-0.294208	-0.197469
14565		5.016544	2.803867	7.939821	0.002857	-0.000130	-0.001009	-0.086914	-0.120117	-0.895508	0.930606	0.091871	-0.294202	-0.197427
14566		5.016461	2.815479	7.957149	0.003262	-0.000595	-0.001945	-0.091309	-0.110840	-0.889648	0.930618	0.091927	-0.294165	-0.197398
14567		4.999899	2.793531	7.934449	0.002459	0.000662	-0.003018	-0.091064	-0.119873	-0.885010	0.930622	0.091920	-0.294137	-0.197426
14568		5.016493	2.805565	7.939254	0.003845	-0.003427	-0.000970	-0.095947	-0.120605	-0.892822	0.930620	0.091976	-0.294156	-0.197380
14569		4.982495	2.803888	7.928031	0.004101	0.001765	0.000257	-0.091553	-0.116699	-0.889404	0.930622	0.092026	-0.294161	-0.197342
14570		4.998950	2.815986	7.932897	0.005091	-0.001370	-0.001178	-0.088379	-0.114990	-0.896729	0.930622	0.092068	-0.294162	-0.197320
14571		5.015743	2.817111	7.920048	0.004871	-0.002945	-0.001274	-0.091797	-0.110840	-0.891113	0.930625	0.092094	-0.294149	-0.197310
14572		5.001402	2.787229	7.951332	0.003265	-0.000432	-0.003419	-0.095703	-0.116699	-0.880615	0.930623	0.092089	-0.294134	-0.197346
14573		5.000283	2.819867	7.967659	0.005901	-0.002300	-0.003052	-0.083740	-0.109619	-0.894043	0.930607	0.092139	-0.294174	-0.197340
14574		5.008410	2.820073	7.943040	0.002201	-0.004693	-0.002772	-0.088135	-0.111084	-0.895508	0.930615	0.092122	-0.294138	-0.197363
14575		5.008887	2.809320	7.925161	0.001610	-0.002350	0.000672	-0.093506	-0.120361	-0.893066	0.930625	0.092095	-0.294113	-0.197366
14576		5.009117	2.809812	7.924842	0.003450	-0.002473	-0.004453	-0.090088	-0.117676	-0.895264	0.930614	0.092145	-0.294131	-0.197366
14577		5.010395	2.789352	7.925494	-0.001031	-0.000808	0.003251	-0.093750	-0.110352	-0.900391	0.930632	0.092132	-0.294109	-0.197323
14578		4.994099	2.799791	7.955327	-0.000844	-0.002686	0.000744	-0.090820	-0.104248	-0.893311	0.930630	0.092067	-0.294113	-0.197357
14579		4.976692	2.798050	7.931802	0.002456	0.000499	-0.001546	-0.088867	-0.117188	-0.894043	0.930634	0.092013	-0.294077	-0.197414
14580		5.002061	2.799636	7.930934	0.000185	-0.002041	-0.001033	-0.097900	-0.112549	-0.890869	0.930643	0.092018	-0.294058	-0.197400
14581		5.003277	2.801370	7.966541	0.002636	-0.001868	0.000367	-0.091064	-0.113281	-0.902100	0.930630	0.091997	-0.294094	-0.197416
14582		4.984966	2.820461	7.941995	0.002014	-0.002815	-0.000266	-0.085205	-0.111084	-0.894531	0.930631	0.091979	-0.294088	-0.197430
14583		5.002946	2.789441	7.912600	0.003662	-0.001386	0.000062	-0.088135	-0.109863	-0.885498	0.930646	0.091979	-0.294043	-0.197423
14584		5.004135	2.780177	7.930736	0.000806	-0.001094	-0.000401	-0.090576	-0.113525	-0.896484	0.930657	0.091954	-0.294013	-0.197428
14585		4.994370	2.811291	7.935486	0.002639	-0.001705	-0.001107	-0.091064	-0.112793	-0.895752	0.930660	0.091952	-0.294001	-0.197436
14586		4.995741	2.802174	7.953456	0.003845	-0.003590	0.000502	-0.086426	-0.117920	-0.898682	0.930658	0.091948	-0.294009	-0.197434
14587		5.004926	2.792309	7.947332	0.000185	-0.002041	-0.001033	-0.085449	-0.112793	-0.893799	0.930671	0.091957	-0.293975	-0.197420
14588		5.004087	2.802155	7.928766	0.002639	-0.001705	-0.001107	-0.088135	-0.116943	-0.896729	0.930684	0.091962	-0.293934	-0.197414
14589		4.971153	2.801895	7.953380	0.003662	-0.001386	0.000062	-0.102051	-0.120117	-0.897949	0.930694	0.091989	-0.293912	-0.197388
14590		5.013155	2.815057	7.957428	0.002235	-0.001240	-0.000170	-0.086182	-0.121582	-0.901123	0.930674	0.091999	-0.293969	-0.197394
14591		4.978190	2.811661	7.910438	0.003261	-0.000758	-0.000475	-0.101807	-0.117920	-0.893555	0.930690	0.092051	-0.293931	-0.197352
14592		4.997091	2.804673	7.951727	0.006082	-0.004667	-0.001142	-0.086426	-0.113770	-0.898438	0.930656	0.092077	-0.294019	-0.197367
14593		4.988773	2.804254	7.939562	0.001611	-0.002350	0.000671	-0.093750	-0.110596	-0.891113	0.930671	0.092069	-0.293987	-0.197351
14594		5.006629	2.806456	7.962644	0.003041	-0.002333	-0.000571	-0.080322	-0.109863	-0.899658	0.930664	0.092049	-0.294000	-0.197370
14595		5.005865	2.816451	7.943971	0.002018	-0.002653	-0.001740	-0.086426	-0.113525	-0.894287	0.930687	0.092037	-0.293930	-0.197372
14596		4.998402	2.784148	7.915396	0.002237	-0.001077	-0.001644	-0.091064	-0.107422	-0.890381	0.930700	0.092043	-0.293891	-0.197369
14597		4.989720	2.805983	7.938355	0.003851	-0.003264	-0.002446	-0.092529	-0.109375	-0.889648	0.930694	0.092022	-0.293893	-0.197403
14598		4.997884	2.817284	7.931147	0.005060	-0.004986	-0.002311	-0.091064	-0.121338	-0.892822	0.930680	0.092016	-0.293922	-0.197430
14599		4.989525	2.816986	7.918961	0.003042	-0.002333	-0.000572	-0.089355	-0.111328	-0.887451	0.930679	0.092058	-0.293930	-0.197400
14600		4.990875	2.807664	7.937035	0.001207	-0.001884	0.001608	-0.089844	-0.111084	-0.889404	0.930689	0.092035	-0.293916	-0.197386
14601		4.992320	2.787219	7.937601	0.002421	-0.003281	-0.001204	-0.090332	-0.104980	-0.884521	0.930688	0.092022	-0.293915	-0.197397
14602		5.017012	2.798379	7.918122	0.002014	-0.002977	0.001207	-0.089600	-0.112549	-0.906006	0.930691	0.091970	-0.293913	-0.197412
14603		5.009496	2.799278	7.941998	0.002238	-0.001077	-0.001644	-0.081787	-0.113037	-0.889893	0.930697	0.091957	-0.293883	-0.197434
14604		5.000805	2.821354	7.964879	0.006711	-0.003394	-0.003459	-0.090332	-0.109131	-0.892334	0.930706	0.092007	-0.293845	-0.197424
14605		5.017738	2.800359	7.916962	0.003447	-0.002799	-0.001510	-0.092529	-0.111816	-0.889404	0.930704	0.091991	-0.293841	-0.197445
14606		4.992658	2.810679	7.934847	0.003043	-0.002333	-0.000573	-0.091797	-0.119385	-0.885498	0.930701	0.091983	-0.293850	-0.197452
14607		5.010408	2.802087	7.940432	0.004693	-0.000741	-0.001720	-0.103760	-0.116699	-0.895508	0.930699	0.092037	-0.293855	-0.197426
14608		4.993890	2.802612	7.952562	0.004478	-0.001993	-0.004763	-0.090332	-0.109863	-0.883789	0.930665	0.092054	-0.293922	-0.197480
14609		5.001602	2.813717	7.945694	0.002050	0.000802	0.000862	-0.084229	-0.105957	-0.897217	0.930676	0.092036	-0.293896	-0.197475
14610		4.984260	2.812127	7.922065	0.003849	-0.003588	0.000499	-0.097900	-0.109131	-0.887695	0.930688	0.092005	-0.293861	-0.197487
14611		5.001998	2.814512	7.945162	0.002457	0.000498	-0.001549	-0.092041	-0.110107	-0.891602	0.930678	0.091978	-0.293874	-0.197525
14612		5.019656	2.794625	7.933421	0.001617	-0.002025	-0.002276	-0.088135	-0.110840	-0.889893	0.930674	0.091954	-0.293871	-0.197559
14613		4.993324	2.825669	7.950506	0.004072	-0.001689	-0.002352	-0.091797	-0.117432	-0.893555	0.930677	0.091961	-0.293850	-0.197573
14614		5.002187	2.805048	7.927007	0.002862	0.000032	-0.002487	-0.095703	-0.114258	-0.892578	0.930679	0.091989	-0.293837	-0.197570
14615		5.003230	2.807506	7.962510	0.006311	-0.002766	-0.003998	-0.089600	-0.113037	-0.892822	0.930660	0.092020	-0.293870	-0.197595
14616		5.011166	2.807994	7.937867	0.005906	-0.002300	-0.003060	-0.087402	-0.114014	-0.888916	0.930657	0.092048	-0.293865	-0.197607
14617		4.977363	2.818032	7.943789	0.008949	-0.004794	-0.002160	-0.084473	-0.114990	-0.892090	0.930651	0.092106	-0.293876	-0.197592
14618		4.994249	2.808150	7.913348	0.002239	-0.001078	-0.001645	-0.095703	-0.113525	-0.898926	0.930666	0.092123	-0.293831	-0.197578
14619		4.994416	2.819279	7.930688	-0.001651	-0.001753	0.002622	-0.084961	-0.115723	-0.893555	0.930667	0.092067	-0.293843	-0.197584
14620		5.003478	2.808925	7.924819	0.001427	-0.000307	0.001703	-0.095215	-0.108643	-0.900391	0.930689	0.092073	-0.293796	-0.197546
14621		4.994875	2.797000	7.895514	0.002237	-0.001239	-0.000172	-0.093018	-0.110840	-0.897217	0.930684	0.092031	-0.293800	-0.197585
14622		4.987259	2.808918	7.936958	0.000806	-0.001255	0.001072	-0.094238	-0.109619	-0.896240	0.930686	0.091992	-0.293795	-0.197599
14623		5.012816	2.810340	7.935995	0.002235	-0.001400	0.001302	-0.094482	-0.120361	-0.893066	0.930685	0.091956	-0.293800	-0.197615
14624		4.995654	2.808623	7.912293	0.001800	-0.004390	-0.000362	-0.090576	-0.118652	-0.893066	0.930675	0.091975	-0.293839	-0.197592
14625		4.988342	2.809442	7.936092	0.000589	-0.002669	-0.000497	-0.093018	-0.117188	-0.898682	0.930678	0.091983	-0.293840	-0.197572
14626		4.997510	2.810539	7.947489	0.000993	-0.003297	0.000039	-0.089111	-0.114746	-0.893799	0.930675	0.091977	-0.293855	-0.197567
14627		5.006892	2.789231	7.923906	-0.000035	-0.003940	0.001819	-0.095459	-0.114746	-0.895508	0.930682	0.091954	-0.293855	-0.197548
14628		4.990736	2.800015	7.953582	0.001211	-0.001721	0.000134	-0.086914	-0.113037	-0.890869	0.930677	0.091938	-0.293871	-0.197555
14629		5.006495	2.810047	7.922516	0.001614	-0.002349	0.000670	-0.093994	-0.119385	-0.903320	0.930688	0.091930	-0.293849	-0.197538
14630		4.990288	2.821145	7.952115	0.003448	-0.002960	-0.000038	-0.098389	-0.117188	-0.896973	0.930682	0.091950	-0.293870	-0.197525
14631		5.017146	2.802175	7.951812	0.002422	-0.003442	0.000268	-0.095459	-0.115723	-0.895508	0.930667	0.091947	-0.293917	-0.197527
14632		4.999035	2.798793	7.892245	0.002016	-0.003137	0.002679	-0.084961	-0.112305	-0.893555	0.930663	0.091934	-0.293947	-0.197508
14633		5.009291	2.812741	7.956851	0.002424	-0.003281	-0.001206	-0.089111	-0.112549	-0.890381	0.930673	0.091933	-0.293919	-0.197505
14634		5.020719	2.772808	7.969896	0.002827	-0.003908	-0.000670	-0.094482	-0.107178	-0.896973	0.930673	0.091930	-0.293922	-0.197503
14635		4.992336	2.811791	7.932748	0.003266	-0.000435	-0.003427	-0.093262	-0.114502	-0.900391	0.930664	0.091905	-0.293914	-0.197565
14636		5.017711	2.813458	7.931795	-0.000218	-0.001576	-0.000095	-0.095459	-0.113281	-0.896240	0.930665	0.091877	-0.293911	-0.197577
14637		5.017837	2.813598	7.931666	0.001834	-0.000612	-0.000709	-0.097412	-0.116455	-0.892334	0.930662	0.091864	-0.293916	-0.197593
14638		5.001419	2.813647	7.943929	0.003667	-0.001384	0.000056	-0.087158	-0.112549	-0.892578	0.930654	0.091877	-0.293944	-0.197583
14639		5.002733	2.782301	7.927087	0.002642	-0.001705	-0.001111	-0.092041	-0.115234	-0.887207	0.930662	0.091879	-0.293918	-0.197583
14640		5.002920	2.794167	7.944161	0.005286	-0.003250	-0.003696	-0.085693	-0.115234	-0.901611	0.930652	0.091916	-0.293936	-0.197587
14641		5.002137	2.815568	7.942796	0.003450	-0.002960	-0.000039	-0.091797	-0.111816	-0.896484	0.930662	0.091927	-0.293911	-0.197571
14642		4.985878	2.804662	7.937452	0.003049	-0.002011	-0.003523	-0.095215	-0.114014	-0.893066	0.930656	0.091925	-0.293907	-0.197606
14643		5.003763	2.807208	7.960408	0.003853	-0.003587	0.000496	-0.089844	-0.109375	-0.897949	0.930646	0.091925	-0.293939	-0.197604
14644		5.011853	2.806790	7.935953	-0.000218	-0.001576	-0.000095	-0.087158	-0.114746	-0.890137	0.930653	0.091879	-0.293916	-0.197629
14645		4.995674	2.795377	7.930740	0.002019	-0.002975	0.001205	-0.085449	-0.113525	-0.895264	0.930663	0.091880	-0.293904	-0.197600
14646		5.004942	2.796677	7.942003	0.003854	-0.003587	0.000496	-0.094482	-0.115234	-0.893799	0.930671	0.091889	-0.293887	-0.197579
14647		5.013022	2.807536	7.934951	0.000592	-0.002509	-0.001971	-0.091309	-0.108643	-0.895508	0.930665	0.091878	-0.293901	-0.197596
14648		5.005518	2.797376	7.941394	0.002643	-0.001705	-0.001112	-0.095703	-0.112305	-0.890137	0.930664	0.091854	-0.293890	-0.197625
14649		4.996958	2.807840	7.946914	0.001616	-0.002348	0.000669	-0.098877	-0.119385	-0.888916	0.930658	0.091833	-0.293912	-0.197629
14650		4.998332	2.798477	7.965046	0.001212	-0.001721	0.000133	-0.092529	-0.109863	-0.893066	0.930650	0.091841	-0.293950	-0.197609
14651		5.014149	2.797453	7.916415	0.001804	-0.004230	-0.001838	-0.092529	-0.117188	-0.886719	0.930640	0.091814	-0.293966	-0.197643
14652		4.996883	2.818500	7.927503	0.006313	-0.002929	-0.002532	-0.096680	-0.114502	-0.889404	0.930632	0.091866	-0.293987	-0.197624
14653		4.981726	2.798160	7.940501	0.001617	-0.002187	-0.000805	-0.096680	-0.114746	-0.898682	0.930623	0.091858	-0.294013	-0.197632
14654		4.989779	2.808866	7.933513	0.000995	-0.003296	0.000038	-0.090576	-0.108398	-0.898926	0.930614	0.091835	-0.294042	-0.197646
14655		5.007794	2.799898	7.939070	0.002021	-0.002814	-0.000269	-0.092529	-0.113770	-0.895264	0.930613	0.091799	-0.294034	-0.197679
14656		5.016969	2.801261	7.950371	0.003451	-0.002959	-0.000041	-0.089844	-0.108643	-0.898926	0.930610	0.091800	-0.294045	-0.197677
14657		4.983277	2.799691	7.938989	0.006096	-0.004504	-0.002628	-0.089844	-0.116943	-0.898438	0.930599	0.091802	-0.294051	-0.197717
14658		4.998958	2.821421	7.925155	0.002240	-0.001078	-0.001648	-0.096436	-0.110840	-0.894287	0.930605	0.091816	-0.294032	-0.197712
14659		5.000226	2.812354	7.943261	0.003048	-0.002332	-0.000577	-0.089355	-0.122559	-0.898926	0.930594	0.091799	-0.294054	-0.197736
14660		4.991699	2.800505	7.913870	0.001213	-0.001721	0.000133	-0.091553	-0.122070	-0.900879	0.930605	0.091826	-0.294041	-0.197691
14661		5.018376	2.792623	7.931149	0.003048	-0.002332	-0.000577	-0.094238	-0.111328	-0.888672	0.930607	0.091861	-0.294045	-0.197658
14662		4.993325	2.791682	7.931668	0.002643	-0.001866	0.000361	-0.085938	-0.112549	-0.894775	0.930604	0.091847	-0.294056	-0.197663
14663		5.002483	2.781674	7.925610	0.000591	-0.002830	0.000977	-0.094482	-0.115479	-0.889160	0.930618	0.091826	-0.294030	-0.197650
14664		5.010452	2.803420	7.936149	0.001835	-0.000772	0.000763	-0.088867	-0.115479	-0.889893	0.930619	0.091826	-0.294035	-0.197632
14665		4.977712	2.792067	7.943339	0.005288	-0.003571	-0.000753	-0.094238	-0.116455	-0.887451	0.930620	0.091858	-0.294040	-0.197607
14666		5.009987	2.825163	7.934438	0.003048	-0.002332	-0.000578	-0.097412	-0.113037	-0.893311	0.930616	0.091873	-0.294059	-0.197592
14667		4.986057	2.803623	7.935855	0.003049	-0.002332	-0.000578	-0.086426	-0.106934	-0.891602	0.930604	0.091864	-0.294088	-0.197611
14668		5.011655	2.794105	7.917293	0.002239	-0.001399	0.001299	-0.093994	-0.114502	-0.895264	0.930617	0.091833	-0.294053	-0.197616
14669		5.014113	2.775356	7.953794	0.002644	-0.001865	0.000360	-0.088623	-0.117920	-0.893555	0.930615	0.091830	-0.294062	-0.197612
14670		4.995575	2.805424	7.946787	0.000809	-0.001094	-0.000403	-0.088379	-0.112793	-0.902588	0.930628	0.091839	-0.294039	-0.197583
14671		4.978245	2.826026	7.958076	0.001806	-0.004230	-0.001838	-0.087891	-0.110596	-0.899658	0.930627	0.091825	-0.294031	-0.197601
14672		5.002850	2.814877	7.903607	0.002644	-0.001865	0.000360	-0.096191	-0.115479	-0.896484	0.930636	0.091810	-0.294006	-0.197605
14673		5.005596	2.796267	7.939885	0.004045	-0.005788	0.000934	-0.093262	-0.118652	-0.894043	0.930621	0.091810	-0.294058	-0.197599
14674		4.998440	2.786225	7.946096	0.003049	-0.002332	-0.000579	-0.090332	-0.110596	-0.892578	0.930619	0.091832	-0.294070	-0.197578
14675		5.015237	2.787004	7.933258	0.003049	-0.002332	-0.000579	-0.090576	-0.115234	-0.896240	0.930621	0.091822	-0.294063	-0.197587
14676		4.990073	2.797224	7.951310	0.001836	-0.000612	-0.000711	-0.096436	-0.110840	-0.886719	0.930628	0.091824	-0.294044	-0.197580
14677		4.998931	2.776121	7.927970	0.001431	-0.000145	0.000227	-0.093750	-0.105469	-0.892090	0.930625	0.091801	-0.294050	-0.197595
14678		4.990307	2.797691	7.950999	0.002023	-0.002814	-0.000270	-0.091309	-0.120361	-0.897705	0.930618	0.091756	-0.294058	-0.197640
14679		5.006887	2.798451	7.938301	0.002458	0.000657	-0.003029	-0.088623	-0.118164	-0.895264	0.930625	0.091791	-0.294035	-0.197626
14680		5.006977	2.799036	7.938038	0.003859	-0.003426	-0.000982	-0.098145	-0.114990	-0.892578	0.930628	0.091821	-0.294034	-0.197597
14681		4.998276	2.787530	7.908631	0.003889	0.000512	-0.002803	-0.092529	-0.110596	-0.884766	0.930618	0.091838	-0.294045	-0.197619
14682		5.014802	2.799476	7.913402	0.001214	-0.001720	0.000133	-0.087158	-0.114258	-0.891846	0.930619	0.091815	-0.294045	-0.197624
14683		5.018178	2.771287	7.968417	0.001431	0.000174	-0.002721	-0.096924	-0.109619	-0.892334	0.930632	0.091823	-0.294003	-0.197623
14684		4.997102	2.820750	7.924683	0.004698	-0.000582	-0.003206	-0.099609	-0.110840	-0.886230	0.930618	0.091823	-0.294014	-0.197672
14685		4.973931	2.790133	7.944591	0.003672	-0.000904	-0.004371	-0.098389	-0.112793	-0.889404	0.930598	0.091824	-0.294041	-0.197726
14686		4.989360	2.811703	7.930919	0.002241	-0.001238	-0.000176	-0.090088	-0.116211	-0.891357	0.930589	0.091811	-0.294065	-0.197740
14687		5.016005	2.792668	7.930780	0.001619	-0.002187	-0.000806	-0.094482	-0.113525	-0.882812	0.930594	0.091818	-0.294059	-0.197720
14688		4.980906	2.822526	7.936242	0.002241	-0.001079	-0.001650	-0.090820	-0.110352	-0.891602	0.930591	0.091822	-0.294066	-0.197721
14689		4.991017	2.803016	7.948678	-0.000217	-0.001735	0.001380	-0.090820	-0.112305	-0.895508	0.930598	0.091781	-0.294054	-0.197728
14690		4.982462	2.790793	7.919432	-0.000838	-0.002366	-0.002198	-0.092773	-0.115479	-0.894287	0.930598	0.091751	-0.294043	-0.197757
14691		4.999352	2.824479	7.959064	-0.000839	-0.003003	0.003698	-0.090820	-0.111328	-0.899170	0.930605	0.091718	-0.294052	-0.197724
14692		5.017435	2.792812	7.929825	0.000593	-0.002669	-0.000497	-0.085449	-0.113037	-0.885986	0.930606	0.091687	-0.294044	-0.197747
14693		5.001330	2.792716	7.941998	0.003455	-0.003118	0.001430	-0.089355	-0.116211	-0.897217	0.930619	0.091697	-0.294029	-0.197703
14694		4.992852	2.792164	7.929970	0.003051	-0.002173	-0.002054	-0.090088	-0.119141	-0.895264	0.930623	0.091716	-0.294018	-0.197693
14695		4.985511	2.793438	7.953708	0.004266	-0.004052	-0.000448	-0.087891	-0.111328	-0.897461	0.930625	0.091750	-0.294031	-0.197650
14696		4.975156	2.823340	7.922012	0.007317	-0.006543	0.000446	-0.086914	-0.110107	-0.886963	0.930619	0.091769	-0.294052	-0.197638
14697		5.003439	2.783898	7.922398	0.002430	-0.003600	0.001738	-0.087158	-0.104248	-0.897217	0.930627	0.091753	-0.294043	-0.197618
14698		4.995156	2.816742	7.962620	0.002835	-0.003908	-0.000674	-0.094971	-0.112061	-0.899170	0.930627	0.091714	-0.294028	-0.197662
14699		5.014519	2.776327	7.951405	0.005482	-0.005772	-0.000317	-0.089844	-0.106934	-0.891602	0.930609	0.091715	-0.294071	-0.197678
14700		5.038158	2.808388	7.930640	0.002430	-0.003281	-0.001210	-0.081543	-0.118896	-0.899902	0.930606	0.091687	-0.294066	-0.197714
14701		5.023019	2.799108	7.961214	0.003673	-0.001223	-0.001426	-0.091064	-0.107910	-0.892090	0.930628	0.091728	-0.294015	-0.197669
14702		4.995582	2.806146	7.907562	0.004078	-0.001850	-0.000890	-0.090820	-0.114746	-0.892822	0.930626	0.091717	-0.294008	-0.197693
14703		4.996898	2.808323	7.943108	0.002242	-0.001238	-0.000178	-0.090820	-0.120361	-0.892578	0.930632	0.091720	-0.293998	-0.197679
14704		5.015753	2.778810	7.949759	0.001837	-0.000612	-0.000713	-0.083984	-0.119141	-0.891602	0.930641	0.091746	-0.293985	-0.197640
14705		4.989343	2.776423	7.914540	0.005509	-0.001676	-0.003613	-0.092041	-0.119629	-0.891846	0.930653	0.091809	-0.293955	-0.197601
14706		4.995992	2.830711	7.941403	0.003268	-0.000756	-0.000487	-0.088379	-0.106201	-0.894043	0.930659	0.091840	-0.293952	-0.197566
14707		4.997192	2.810521	7.942145	0.003268	-0.000756	-0.000487	-0.093506	-0.117188	-0.891602	0.930666	0.091820	-0.293921	-0.197588
14708		5.014858	2.790774	7.930346	0.003673	-0.001065	-0.002900	-0.095459	-0.112305	-0.889404	0.930662	0.091847	-0.293925	-0.197589
14709		5.005989	2.790476	7.918471	0.003268	-0.000439	-0.003436	-0.087158	-0.112793	-0.892090	0.930653	0.091852	-0.293928	-0.197624
14710		5.016980	2.773304	7.966706	0.004295	-0.000115	-0.002272	-0.092773	-0.107910	-0.894287	0.930662	0.091874	-0.293894	-0.197618
14711		5.013589	2.813580	7.928717	0.003674	-0.001223	-0.001427	-0.094971	-0.115723	-0.896240	0.930658	0.091859	-0.293889	-0.197655
14712		4.981703	2.792882	7.954522	0.002863	0.000029	-0.002498	-0.087158	-0.105225	-0.887451	0.930654	0.091870	-0.293886	-0.197669
14713		4.995912	2.824151	7.922366	0.006538	-0.001353	-0.002450	-0.094727	-0.114502	-0.887207	0.930655	0.091879	-0.293863	-0.197698
14714		4.973033	2.793465	7.942212	0.004080	-0.002008	0.000583	-0.095215	-0.112305	-0.896729	0.930651	0.091889	-0.293882	-0.197683
14715		4.998720	2.795117	7.941000	0.001000	-0.003296	0.000039	-0.080078	-0.111816	-0.889648	0.930643	0.091859	-0.293902	-0.197705
14716		5.007662	2.796585	7.952419	0.003890	0.000511	-0.002808	-0.089600	-0.115479	-0.888916	0.930666	0.091886	-0.293833	-0.197687
14717		5.006598	2.806862	7.933688	0.005296	-0.003411	-0.002234	-0.086670	-0.116699	-0.893799	0.930663	0.091920	-0.293841	-0.197673
14718		4.999240	2.808296	7.957407	0.002432	-0.003123	-0.002685	-0.094238	-0.110840	-0.893066	0.930669	0.091939	-0.293828	-0.197658
14719		5.008340	2.798621	7.951275	0.003054	-0.002331	-0.000582	-0.094971	-0.119141	-0.890381	0.930661	0.091925	-0.293840	-0.197681
14720		5.016187	2.798345	7.926836	0.002243	-0.001079	-0.001653	-0.090820	-0.107910	-0.890869	0.930659	0.091944	-0.293851	-0.197668
14721		4.990991	2.797458	7.927475	0.003676	-0.001381	0.000047	-0.093262	-0.112793	-0.888672	0.930659	0.091929	-0.293841	-0.197687
14722		5.007799	2.798075	7.914645	0.001001	-0.003295	0.000039	-0.093262	-0.111084	-0.891846	0.930655	0.091908	-0.293857	-0.197693
14723		5.000527	2.810469	7.955831	0.005919	-0.002619	-0.000132	-0.094971	-0.110840	-0.887939	0.930647	0.091918	-0.293873	-0.197700
14724		4.984254	2.799416	7.950627	0.000811	-0.001094	-0.000404	-0.085693	-0.114258	-0.891357	0.930643	0.091890	-0.293878	-0.197724
14725		5.010992	2.791380	7.967946	0.000596	-0.002828	0.000978	-0.094971	-0.111572	-0.894531	0.930658	0.091879	-0.293857	-0.197691
14726		5.001318	2.800016	7.937637	0.002649	-0.001705	-0.001118	-0.089600	-0.117676	-0.889893	0.930651	0.091866	-0.293866	-0.197719
14727		5.010422	2.790358	7.931497	0.003866	-0.003425	-0.000986	-0.092529	-0.116455	-0.887207	0.930653	0.091894	-0.293874	-0.197684
14728		4.994165	2.790563	7.943697	0.002243	-0.001080	-0.001653	-0.088379	-0.122803	-0.889160	0.930654	0.091908	-0.293873	-0.197672
14729		4.993305	2.800166	7.925062	0.000597	-0.002985	0.002452	-0.086914	-0.118408	-0.884766	0.930672	0.091927	-0.293872	-0.197581
14730		5.002522	2.801347	7.936409	0.002027	-0.002655	-0.001746	-0.094971	-0.112793	-0.897461	0.930683	0.091953	-0.293861	-0.197535
14731		5.003936	2.781138	7.937055	0.004082	-0.002007	0.000581	-0.093262	-0.113281	-0.888428	0.930676	0.091949	-0.293876	-0.197545
14732		5.003169	2.813559	7.953077	0.003866	-0.003425	-0.000987	-0.093262	-0.111816	-0.891113	0.930668	0.091954	-0.293897	-0.197552
14733		4.995866	2.792366	7.941993	0.002434	-0.003281	-0.001211	-0.088379	-0.120850	-0.892090	0.930659	0.091941	-0.293913	-0.197575
14734		5.003772	2.792213	7.917458	0.004081	-0.001691	-0.002369	-0.091797	-0.109619	-0.887207	0.930669	0.091991	-0.293901	-0.197523
14735		4.995205	2.802969	7.922873	0.002434	-0.003281	-0.001211	-0.093262	-0.114990	-0.888672	0.930662	0.091972	-0.293910	-0.197551
14736		5.013312	2.805566	7.945692	0.004273	-0.004051	-0.000452	-0.090820	-0.112793	-0.895264	0.930653	0.091984	-0.293938	-0.197543
14737		5.006044	2.784243	7.934637	0.001624	-0.002345	0.000667	-0.091553	-0.113525	-0.894287	0.930657	0.091968	-0.293934	-0.197539
14738		5.003962	2.814660	7.914999	0.003271	-0.000755	-0.000491	-0.090088	-0.116211	-0.896484	0.930661	0.091972	-0.293923	-0.197535
14739		5.006369	2.796388	7.951534	0.004082	-0.001691	-0.002369	-0.098389	-0.107910	-0.891602	0.930664	0.091997	-0.293914	-0.197523
14740		4.997851	2.796014	7.939461	0.004274	-0.004050	-0.000452	-0.093506	-0.113281	-0.899658	0.930639	0.091970	-0.293958	-0.197587
14741		5.013608	2.817572	7.925460	0.003461	-0.002799	-0.001523	-0.093750	-0.111328	-0.892090	0.930632	0.091968	-0.293968	-0.197608
14742		5.006178	2.807670	7.931868	0.003055	-0.002174	-0.002059	-0.097900	-0.113281	-0.894531	0.930623	0.091961	-0.293976	-0.197641
14743		4.998746	2.797722	7.938296	0.004084	-0.002006	0.000579	-0.087891	-0.108398	-0.884277	0.930611	0.091956	-0.294004	-0.197656
14744		4.999120	2.798099	7.937928	0.001408	-0.003763	-0.000901	-0.092773	-0.116211	-0.887207	0.930612	0.091931	-0.293999	-0.197674
14745		5.000513	2.789161	7.956015	0.003676	-0.001066	-0.002906	-0.090576	-0.110840	-0.893066	0.930611	0.091957	-0.293999	-0.197668
14746		5.014958	2.820194	7.923673	0.005925	-0.002932	0.002812	-0.088135	-0.110352	-0.898438	0.930612	0.091961	-0.294007	-0.197648
14747		4.991179	2.809763	7.942628	0.001218	-0.001719	0.000131	-0.096680	-0.112061	-0.888672	0.930620	0.091934	-0.293982	-0.197659
14748		4.992541	2.789187	7.943459	0.000813	-0.001251	0.001070	-0.090088	-0.108887	-0.889404	0.930615	0.091905	-0.293996	-0.197674
14749		4.992804	2.789508	7.943181	0.004490	-0.002474	-0.000361	-0.088135	-0.114014	-0.890625	0.930613	0.091900	-0.293994	-0.197691
14750		5.016156	2.821404	7.922484	0.002030	-0.002813	-0.000273	-0.091553	-0.113281	-0.897949	0.930620	0.091900	-0.293985	-0.197670
14751		5.001264	2.800660	7.935673	0.001410	-0.003921	0.000574	-0.092529	-0.120605	-0.896729	0.930619	0.091879	-0.293994	-0.197672
14752		4.993123	2.811075	7.940942	0.003657	-0.005315	0.001867	-0.086182	-0.120117	-0.889160	0.930620	0.091900	-0.294027	-0.197609
14753		5.003659	2.780628	7.935665	0.003464	-0.002956	-0.000050	-0.083984	-0.108154	-0.893311	0.930636	0.091938	-0.294017	-0.197530
14754		4.995301	2.802362	7.958467	0.002032	-0.002970	0.001201	-0.093750	-0.108887	-0.891357	0.930649	0.091914	-0.293988	-0.197521
14755		4.995721	2.780322	7.923201	0.003653	-0.004844	-0.002557	-0.091064	-0.111816	-0.896240	0.930631	0.091899	-0.294016	-0.197573
14756		5.020274	2.814073	7.938285	0.002246	-0.001237	-0.000181	-0.084717	-0.112061	-0.893311	0.930635	0.091887	-0.294003	-0.197581
14757		5.004020	2.802842	7.933165	0.002031	-0.002813	-0.000274	-0.091064	-0.111328	-0.892578	0.930647	0.091881	-0.293977	-0.197562
14758		5.023026	2.773438	7.939762	0.003272	-0.000755	-0.000493	-0.092041	-0.120117	-0.889648	0.930650	0.091878	-0.293964	-0.197569
14759		4.987848	2.792104	7.927822	0.003274	-0.000912	0.000981	-0.083496	-0.112061	-0.893066	0.930661	0.091907	-0.293963	-0.197508
14760		5.030013	2.805445	7.931373	0.003248	-0.004375	-0.001618	-0.091309	-0.121094	-0.892334	0.930669	0.091914	-0.293945	-0.197490
14761		4.997207	2.794447	7.938675	0.006758	0.000222	-0.002370	-0.087402	-0.110596	-0.901123	0.930676	0.091983	-0.293935	-0.197441
14762		4.996036	2.815889	7.937403	0.003273	-0.000755	-0.000494	-0.090820	-0.120605	-0.887939	0.930687	0.091979	-0.293902	-0.197441
14763		5.005017	2.806149	7.931367	0.002030	-0.002656	-0.001748	-0.087158	-0.114746	-0.898682	0.930691	0.092004	-0.293907	-0.197402
14764		5.014154	2.807776	7.942611	0.003869	-0.003268	-0.002465	-0.093262	-0.113770	-0.888672	0.930696	0.092023	-0.293896	-0.197388
14765		5.005516	2.807376	7.930618	0.003678	-0.001224	-0.001434	-0.092285	-0.120850	-0.892334	0.930692	0.092031	-0.293899	-0.197397
14766		5.006673	2.798495	7.948861	0.002459	0.000495	-0.001564	-0.098633	-0.112305	-0.889893	0.930701	0.092061	-0.293885	-0.197363
14767		5.006653	2.787697	7.931295	0.002652	-0.001706	-0.001121	-0.092285	-0.105957	-0.894775	0.930684	0.092045	-0.293911	-0.197410
14768		4.997974	2.798387	7.936804	0.002650	-0.001549	-0.002596	-0.090576	-0.110596	-0.895752	0.930676	0.092016	-0.293903	-0.197477
14769		4.997953	2.810295	7.954003	0.003892	0.000509	-0.002817	-0.090332	-0.108398	-0.895508	0.930678	0.092022	-0.293875	-0.197504
14770		5.006724	2.789179	7.930729	0.000409	-0.000781	0.002010	-0.100586	-0.114990	-0.893066	0.930686	0.091979	-0.293854	-0.197516
14771		4.990611	2.789181	7.942959	0.003656	-0.004844	-0.002558	-0.093750	-0.113525	-0.895264	0.930659	0.091977	-0.293912	-0.197560
14772		4.992146	2.780390	7.960940	0.002029	-0.002500	-0.003223	-0.090576	-0.109863	-0.890381	0.930650	0.091972	-0.293920	-0.197592
14773		5.005304	2.831810	7.927665	0.001218	-0.001563	-0.001344	-0.090088	-0.118896	-0.884277	0.930651	0.091949	-0.293907	-0.197618
14774		5.024202	2.802324	7.934387	0.001840	-0.000612	-0.000717	-0.088867	-0.116699	-0.888916	0.930663	0.091971	-0.293894	-0.197569
14775		4.998907	2.801116	7.935253	0.000000	0.000000	0.000000	-0.093262	-0.110840	-0.891357	0.930672	0.091988	-0.293888	-0.197529
14776		5.007491	2.791166	7.929546	0.002266	0.002696	-0.002008	-0.086182	-0.109131	-0.884766	0.930676	0.091981	-0.293854	-0.197561
14777		4.998549	2.801825	7.935229	0.003681	-0.001380	0.000040	-0.087402	-0.112793	-0.896240	0.930686	0.091981	-0.293831	-0.197553
14778		4.998770	2.802254	7.934938	0.001002	-0.002982	-0.002911	-0.091309	-0.120605	-0.888428	0.930690	0.091971	-0.293814	-0.197564
14779		4.999148	2.802678	7.934550	0.003874	-0.003580	0.000483	-0.089111	-0.107422	-0.895996	0.930693	0.092003	-0.293833	-0.197502
14780		4.975348	2.803346	7.971054	0.000002	-0.000156	0.001475	-0.093018	-0.114014	-0.895020	0.930704	0.091957	-0.293801	-0.197520
14781		5.016168	2.825800	7.956359	0.002031	-0.002656	-0.001749	-0.084717	-0.114258	-0.898193	0.930699	0.091951	-0.293809	-0.197535
14782		4.983261	2.803084	7.946501	0.002461	0.000339	-0.000091	-0.093018	-0.115234	-0.892578	0.930722	0.091960	-0.293760	-0.197498
14783		5.008641	2.804834	7.945386	0.002653	-0.001705	-0.001122	-0.100586	-0.116455	-0.891357	0.930720	0.091964	-0.293764	-0.197497
14784		4.982166	2.813408	7.927693	0.003894	0.000353	-0.001344	-0.096191	-0.115723	-0.897461	0.930708	0.091976	-0.293786	-0.197520
14785		5.001027	2.795302	7.951824	0.001842	-0.000768	0.000757	-0.087646	-0.112305	-0.889160	0.930706	0.091966	-0.293793	-0.197519
14786		5.008670	2.794984	7.927456	0.004300	-0.000116	-0.002283	-0.089355	-0.109619	-0.895508	0.930714	0.091986	-0.293765	-0.197514
14787		4.990991	2.815649	7.938919	-0.001434	0.000143	-0.000222	-0.084717	-0.109131	-0.895508	0.930725	0.091942	-0.293729	-0.197537
14788		5.001110	2.807531	7.968844	0.003059	-0.002174	-0.002062	-0.085449	-0.112061	-0.891846	0.930733	0.091938	-0.293699	-0.197548
14789		5.008717	2.795996	7.927070	0.002460	0.000495	-0.001566	-0.095215	-0.112061	-0.898193	0.930749	0.091944	-0.293655	-0.197535
14790		4.974567	2.805349	7.933600	0.003680	-0.001223	-0.001436	-0.087646	-0.118408	-0.894775	0.930740	0.091941	-0.293661	-0.197567
14791		5.000058	2.807157	7.932393	0.001626	-0.002188	-0.000809	-0.090820	-0.114014	-0.892578	0.930752	0.091953	-0.293648	-0.197525
14792		4.983745	2.807184	7.944750	0.002869	-0.000285	0.000444	-0.092041	-0.109863	-0.893799	0.930760	0.091956	-0.293633	-0.197508
14793		5.001661	2.787033	7.932960	0.000385	-0.004246	-0.000588	-0.090820	-0.106689	-0.894775	0.930752	0.091918	-0.293647	-0.197541
14794		4.976763	2.797039	7.951014	0.000192	-0.002045	-0.001031	-0.091064	-0.112061	-0.895996	0.930750	0.091873	-0.293636	-0.197591
14795		5.010037	2.820443	7.960382	0.004090	-0.002004	0.000574	-0.094971	-0.117432	-0.888428	0.930751	0.091874	-0.293636	-0.197586
14796		5.001478	2.808557	7.931002	0.002440	-0.003281	-0.001214	-0.089355	-0.119629	-0.890869	0.930743	0.091882	-0.293663	-0.197577
14797		4.985405	2.808781	7.943144	0.003874	-0.003424	-0.000993	-0.091553	-0.113525	-0.896484	0.930748	0.091915	-0.293671	-0.197527
14798		5.018800	2.820981	7.934994	0.001007	-0.003295	0.000039	-0.089600	-0.105469	-0.887207	0.930748	0.091895	-0.293677	-0.197529
14799		4.986157	2.809265	7.942500	0.000192	-0.002045	-0.001031	-0.091797	-0.112549	-0.897461	0.930746	0.091850	-0.293664	-0.197577
14800		4.995483	2.810376	7.953813	-0.000233	-0.005353	0.000261	-0.083740	-0.113281	-0.896729	0.930741	0.091813	-0.293685	-0.197589
14801		5.012328	2.799455	7.923565	0.001842	-0.000767	0.000757	-0.094971	-0.111572	-0.895996	0.930762	0.091812	-0.293643	-0.197551
14802		4.980869	2.778537	7.949452	0.002848	-0.003906	-0.000680	-0.083496	-0.116211	-0.891846	0.930749	0.091796	-0.293669	-0.197578
14803		4.996710	2.811182	7.952758	0.002848	-0.003906	-0.000680	-0.092529	-0.115723	-0.895752	0.930763	0.091814	-0.293655	-0.197529
14804		4.988134	2.799267	7.923396	0.002654	-0.001705	-0.001124	-0.089355	-0.112793	-0.896484	0.930763	0.091820	-0.293656	-0.197523
14805		4.986002	2.829758	7.903619	0.003062	-0.002330	-0.000589	-0.094238	-0.111084	-0.892090	0.930766	0.091821	-0.293649	-0.197518
14806		4.981028	2.789618	7.929575	0.002035	-0.002812	-0.000275	-0.091309	-0.116211	-0.895752	0.930758	0.091801	-0.293664	-0.197541
14807		5.015717	2.792357	7.939806	0.002229	-0.005013	0.000168	-0.086426	-0.105713	-0.886963	0.930756	0.091798	-0.293687	-0.197521
14808		4.982252	2.790104	7.928635	0.001203	-0.005495	0.000482	-0.086914	-0.110107	-0.895752	0.930754	0.091759	-0.293691	-0.197540
14809		4.990608	2.823585	7.956039	0.006340	-0.003240	0.000388	-0.091309	-0.115723	-0.898193	0.930757	0.091775	-0.293687	-0.197525
14810		5.001306	2.793065	7.950748	0.000587	-0.006757	0.002806	-0.095947	-0.115723	-0.892090	0.930756	0.091747	-0.293721	-0.197495
14811		5.010973	2.783024	7.944387	0.003665	-0.005155	0.000389	-0.096191	-0.113525	-0.892822	0.930743	0.091749	-0.293765	-0.197488
14812		5.009294	2.824654	7.941773	0.002446	-0.003592	0.001734	-0.087891	-0.115723	-0.888916	0.930735	0.091733	-0.293796	-0.197488
14813		5.010813	2.804309	7.942486	0.002654	-0.001706	-0.001125	-0.093018	-0.111084	-0.894043	0.930745	0.091748	-0.293781	-0.197457
14814		5.012240	2.795295	7.960655	0.001627	-0.002188	-0.000811	-0.090088	-0.117920	-0.888916	0.930741	0.091729	-0.293784	-0.197480
14815		5.021196	2.774191	7.937251	0.002654	-0.001706	-0.001125	-0.083496	-0.104248	-0.884521	0.930748	0.091749	-0.293779	-0.197445
14816		5.003909	2.794945	7.948449	0.002444	-0.003437	0.000259	-0.091064	-0.108887	-0.894775	0.930755	0.091723	-0.293758	-0.197455
14817		4.994131	2.815048	7.935440	0.004709	-0.000742	-0.001754	-0.093750	-0.111572	-0.892822	0.930753	0.091727	-0.293745	-0.197482
14818		5.011875	2.795238	7.923622	0.001003	-0.002984	-0.002912	-0.094238	-0.117432	-0.891602	0.930743	0.091708	-0.293755	-0.197522
14819		4.995570	2.806813	7.953331	0.004300	-0.000117	-0.002289	-0.092773	-0.118896	-0.895264	0.930743	0.091739	-0.293753	-0.197511
14820		4.979143	2.795796	7.948301	0.002658	-0.001861	0.000350	-0.093750	-0.115967	-0.889893	0.930748	0.091752	-0.293758	-0.197474
14821		5.003427	2.807067	7.928582	0.004088	-0.001693	-0.002380	-0.088623	-0.110107	-0.889160	0.930743	0.091774	-0.293767	-0.197473
14822		4.995910	2.797108	7.935148	0.001220	-0.001563	-0.001346	-0.089355	-0.118164	-0.890381	0.930748	0.091758	-0.293749	-0.197486
14823		4.988447	2.798369	7.959116	0.003682	-0.001223	-0.001440	-0.084473	-0.106201	-0.893311	0.930757	0.091789	-0.293739	-0.197446
14824		4.996181	2.809422	7.952025	0.002652	-0.001551	-0.002601	-0.095215	-0.109619	-0.896484	0.930763	0.091777	-0.293702	-0.197472
14825		4.979963	2.787210	7.929426	0.004071	-0.005469	-0.002028	-0.091797	-0.106689	-0.892822	0.930742	0.091766	-0.293740	-0.197522
14826		5.005900	2.800441	7.945260	0.002851	-0.003906	-0.000682	-0.093262	-0.113281	-0.903809	0.930732	0.091740	-0.293752	-0.197564
14827		5.006319	2.789585	7.927432	0.002851	-0.003906	-0.000682	-0.090576	-0.105957	-0.895508	0.930725	0.091730	-0.293768	-0.197578
14828		5.014511	2.812093	7.937399	0.007156	-0.004177	-0.001498	-0.089844	-0.114746	-0.892822	0.930711	0.091737	-0.293783	-0.197618
14829		4.999610	2.791928	7.950554	0.003065	-0.002330	-0.000592	-0.088135	-0.102783	-0.892822	0.930715	0.091745	-0.293779	-0.197600
14830		5.001149	2.794397	7.986019	0.004092	-0.001848	-0.000907	-0.090576	-0.110352	-0.887939	0.930712	0.091724	-0.293761	-0.197650
14831		4.990006	2.812550	7.937230	0.002656	-0.001706	-0.001126	-0.087402	-0.114746	-0.901611	0.930712	0.091718	-0.293755	-0.197662
14832		5.000166	2.781934	7.932339	0.000818	-0.001248	0.001069	-0.089844	-0.114258	-0.891602	0.930727	0.091704	-0.293729	-0.197637
14833		4.973858	2.801297	7.932122	0.000814	-0.001094	-0.000406	-0.088867	-0.113281	-0.899414	0.930736	0.091695	-0.293713	-0.197625
14834		4.999530	2.814121	7.948258	0.002041	-0.002966	0.001198	-0.090088	-0.118652	-0.887451	0.930742	0.091683	-0.293708	-0.197607
14835		5.017607	2.794057	7.936323	0.003883	-0.003578	0.000477	-0.093018	-0.110596	-0.894775	0.930747	0.091708	-0.293722	-0.197554
14836		5.001682	2.794050	7.948505	0.002045	-0.003121	0.002673	-0.094727	-0.113281	-0.890869	0.930746	0.091681	-0.293734	-0.197551
14837		4.984548	2.803234	7.942291	0.001420	-0.003918	0.000573	-0.092285	-0.108643	-0.896973	0.930740	0.091662	-0.293759	-0.197553
14838		5.019329	2.805788	7.952493	0.001423	-0.004073	0.002048	-0.091064	-0.110352	-0.885986	0.930736	0.091623	-0.293773	-0.197568
14839		5.002089	2.803821	7.928883	0.003474	-0.002954	-0.000058	-0.087891	-0.117188	-0.887451	0.930733	0.091620	-0.293781	-0.197570
14840		4.994968	2.805129	7.952643	0.003883	-0.003578	0.000476	-0.087891	-0.101807	-0.888184	0.930741	0.091643	-0.293785	-0.197516
14841		4.995417	2.794156	7.934835	0.002451	-0.003590	0.001732	-0.092773	-0.107910	-0.891357	0.930739	0.091599	-0.293781	-0.197551
14842		5.004797	2.795437	7.946056	0.002042	-0.002966	0.001198	-0.087158	-0.114990	-0.890381	0.930735	0.091569	-0.293790	-0.197572
14843		5.014100	2.796561	7.957381	0.000200	-0.002354	0.001919	-0.093018	-0.111816	-0.901367	0.930750	0.091554	-0.293776	-0.197529
14844		4.987859	2.793409	7.922279	0.003475	-0.002954	-0.000059	-0.088623	-0.117432	-0.899658	0.930746	0.091547	-0.293785	-0.197541
14845		4.995825	2.804307	7.915072	0.002035	-0.002658	-0.001753	-0.090332	-0.108154	-0.900391	0.930752	0.091557	-0.293776	-0.197520
14846		4.997463	2.806613	7.950552	0.002039	-0.002812	-0.000278	-0.091553	-0.111816	-0.900879	0.930750	0.091531	-0.293770	-0.197549
14847		5.015334	2.775207	7.921338	0.002039	-0.002812	-0.000278	-0.087158	-0.118896	-0.894043	0.930749	0.091515	-0.293771	-0.197561
14848		5.007890	2.776429	7.945344	0.002460	0.000494	-0.001572	-0.090088	-0.113770	-0.886719	0.930766	0.091541	-0.293736	-0.197519
14849		5.005809	2.806854	7.925462	0.002020	-0.006434	-0.001400	-0.088867	-0.103271	-0.893799	0.930758	0.091536	-0.293765	-0.197514
14850		4.982357	2.796412	7.944436	0.002043	-0.002966	0.001197	-0.087891	-0.111084	-0.886719	0.930758	0.091495	-0.293757	-0.197548
14851		5.016804	2.787726	7.937395	0.000193	-0.002046	-0.001031	-0.081055	-0.115234	-0.888916	0.930765	0.091476	-0.293740	-0.197550
14852		4.999460	2.796955	7.931302	0.002043	-0.002966	0.001197	-0.087891	-0.115234	-0.891602	0.930785	0.091483	-0.293713	-0.197489
14853		4.992150	2.786891	7.937809	0.004093	-0.001848	-0.000910	-0.094482	-0.104248	-0.893311	0.930793	0.091505	-0.293702	-0.197461
14854		5.000123	2.809259	7.947945	0.003472	-0.002800	-0.001535	-0.089355	-0.105469	-0.895264	0.930779	0.091481	-0.293713	-0.197521
14855		4.992779	2.799324	7.954431	0.003066	-0.002330	-0.000594	-0.096924	-0.108643	-0.891113	0.930777	0.091460	-0.293703	-0.197555
14856		5.009471	2.799906	7.941536	0.002256	-0.001390	0.001287	-0.083740	-0.113770	-0.889893	0.930772	0.091434	-0.293714	-0.197574
14857		5.019931	2.780662	7.953855	0.002233	-0.004858	-0.001310	-0.086182	-0.116943	-0.892334	0.930778	0.091438	-0.293709	-0.197553
14858		5.010253	2.789493	7.923314	0.005940	-0.002614	-0.000158	-0.084717	-0.114014	-0.896973	0.930787	0.091478	-0.293702	-0.197503
14859		5.019475	2.802823	7.951787	0.004901	-0.002635	-0.004268	-0.096924	-0.111328	-0.885986	0.930790	0.091509	-0.293682	-0.197502
14860		5.003079	2.792060	7.946692	0.003684	-0.001224	-0.001445	-0.092773	-0.113525	-0.896240	0.930781	0.091512	-0.293697	-0.197523
14861		5.003359	2.792516	7.946355	0.002450	-0.003436	0.000256	-0.088135	-0.109131	-0.887695	0.930778	0.091504	-0.293710	-0.197518
14862		5.011232	2.792113	7.921771	0.004094	-0.001848	-0.000911	-0.095459	-0.110107	-0.897705	0.930781	0.091508	-0.293698	-0.197522
14863		5.011507	2.803943	7.938827	0.001626	-0.002034	-0.002288	-0.088135	-0.106445	-0.890625	0.930771	0.091489	-0.293704	-0.197565
14864		5.005298	2.773164	7.946510	0.001009	-0.003140	-0.001438	-0.098389	-0.112061	-0.892822	0.930770	0.091459	-0.293694	-0.197599
14865		5.012010	2.804510	7.938309	0.002878	-0.000437	0.001911	-0.087646	-0.104980	-0.890869	0.930768	0.091448	-0.293706	-0.197597
14866		5.004440	2.783369	7.927502	0.005933	-0.002306	-0.003110	-0.091064	-0.115234	-0.897705	0.930762	0.091457	-0.293695	-0.197640
14867		5.011224	2.815215	7.919071	0.002856	-0.003906	-0.000686	-0.088867	-0.109375	-0.897217	0.930760	0.091460	-0.293706	-0.197629
14868		5.005042	2.784563	7.926702	0.003280	-0.000754	-0.000505	-0.093750	-0.119629	-0.895264	0.930765	0.091454	-0.293684	-0.197641
14869		4.995166	2.815959	7.931111	0.003685	-0.001224	-0.001446	-0.094971	-0.117188	-0.896240	0.930767	0.091482	-0.293688	-0.197612
14870		5.005303	2.796950	7.943570	0.002248	-0.001082	-0.001664	-0.093750	-0.118164	-0.896240	0.930767	0.091491	-0.293691	-0.197606
14871		4.989000	2.797140	7.955965	0.002658	-0.001706	-0.001130	-0.093506	-0.119385	-0.896484	0.930768	0.091504	-0.293696	-0.197586
14872		4.996558	2.796784	7.931554	0.002866	0.000023	-0.002515	-0.090576	-0.102783	-0.892578	0.930772	0.091529	-0.293686	-0.197569
14873		4.996626	2.797585	7.931228	0.005313	-0.003259	-0.003736	-0.098633	-0.111084	-0.890869	0.930757	0.091524	-0.293689	-0.197640
14874		5.014535	2.788942	7.936766	-0.000617	-0.001106	0.000851	-0.096436	-0.106689	-0.892578	0.930753	0.091485	-0.293700	-0.197659
14875		4.997020	2.798461	7.930671	0.005934	-0.002306	-0.003112	-0.087891	-0.103516	-0.891602	0.930735	0.091492	-0.293718	-0.197716
14876		5.024982	2.770895	7.948705	0.005313	-0.003259	-0.003736	-0.083984	-0.107178	-0.892822	0.930723	0.091491	-0.293712	-0.197779
14877		4.989897	2.789924	7.936552	0.004912	-0.002941	-0.001320	-0.093018	-0.112793	-0.892822	0.930725	0.091494	-0.293694	-0.197798
14878		4.997593	2.801197	7.929344	0.004299	0.000035	-0.003775	-0.088135	-0.110596	-0.889160	0.930722	0.091515	-0.293682	-0.197817
14879		4.998800	2.792837	7.947504	0.005525	-0.001683	-0.003647	-0.090576	-0.112305	-0.890869	0.930720	0.091541	-0.293670	-0.197834
14880		4.990051	2.792981	7.935380	0.009217	-0.003059	-0.003620	-0.098633	-0.113037	-0.895508	0.930709	0.091596	-0.293683	-0.197840
14881		4.990290	2.794866	7.934566	0.012901	-0.004130	-0.006545	-0.092041	-0.117432	-0.898438	0.930678	0.091680	-0.293733	-0.197875
14882		4.999314	2.787174	7.927789	0.014116	-0.005389	-0.010846	-0.091553	-0.114014	-0.892822	0.930647	0.091796	-0.293771	-0.197909
14883		5.008464	2.790682	7.938379	0.011471	-0.004141	-0.005289	-0.087891	-0.117920	-0.899902	0.930629	0.091873	-0.293798	-0.197919
14884		5.007531	2.813307	7.936387	0.012093	-0.003188	-0.004666	-0.098145	-0.114014	-0.890869	0.930621	0.091965	-0.293806	-0.197902
14885		5.016522	2.815752	7.947449	0.003278	-0.000600	-0.001984	-0.090332	-0.117676	-0.903320	0.930614	0.091972	-0.293816	-0.197916
14886		4.992290	2.782950	7.932114	0.003278	-0.000600	-0.001984	-0.087891	-0.119141	-0.885254	0.930620	0.091989	-0.293798	-0.197908
14887		5.008880	2.795073	7.936571	0.002661	-0.001705	-0.001132	-0.098389	-0.118652	-0.888428	0.930631	0.092012	-0.293787	-0.197861
14888		5.000371	2.817230	7.959309	0.004506	-0.002317	-0.001857	-0.095215	-0.118896	-0.891846	0.930622	0.092039	-0.293817	-0.197847
14889		4.991827	2.827738	7.964786	-0.000206	-0.001728	0.001387	-0.093750	-0.121094	-0.899170	0.930628	0.092024	-0.293825	-0.197813
14890		4.983203	2.815242	7.935643	0.002049	-0.002963	0.001196	-0.093506	-0.116211	-0.885986	0.930632	0.092030	-0.293840	-0.197767
14891		4.992437	2.816537	7.946961	0.000196	-0.002047	-0.001030	-0.092285	-0.104492	-0.885986	0.930634	0.092019	-0.293845	-0.197759
14892		5.025552	2.817229	7.921428	0.002045	-0.002811	-0.000280	-0.085693	-0.114258	-0.894775	0.930625	0.091984	-0.293849	-0.197810
14893		4.991997	2.837628	7.945188	0.002460	-0.003586	0.001731	-0.096191	-0.122070	-0.893799	0.930636	0.091978	-0.293842	-0.197773
14894		4.985946	2.795497	7.935492	0.003483	-0.002951	-0.000064	-0.090820	-0.105957	-0.896240	0.930635	0.092002	-0.293868	-0.197728
14895		5.012911	2.787918	7.952559	0.001639	-0.002340	0.000662	-0.092041	-0.116455	-0.900635	0.930632	0.091964	-0.293862	-0.197767
14896		5.011886	2.797579	7.933790	0.003068	-0.002177	-0.002074	-0.084717	-0.121826	-0.892822	0.930631	0.091974	-0.293861	-0.197767
14897		5.069896	2.777280	7.872549	0.003905	0.000201	0.000114	-0.098145	-0.115234	-0.895508	0.930656	0.092014	-0.293826	-0.197686
14898		4.912540	2.840413	8.042759	0.002471	0.000190	0.001374	-0.087891	-0.117188	-0.905029	0.930656	0.092007	-0.293831	-0.197681
14899		5.046059	2.790142	7.926456	0.003274	-0.000449	-0.003461	-0.095459	-0.116211	-0.890869	0.930664	0.092029	-0.293801	-0.197676
14900		4.986557	2.798057	7.934206	0.001434	0.000011	-0.001260	-0.090576	-0.113770	-0.895752	0.930665	0.092027	-0.293797	-0.197677
14901		5.019463	2.810501	7.926038	0.005124	-0.001212	-0.002711	-0.092285	-0.113525	-0.893066	0.930665	0.092051	-0.293788	-0.197684
14902		4.995697	2.812163	7.962458	0.006352	-0.002929	-0.002584	-0.083740	-0.109863	-0.892090	0.930656	0.092079	-0.293801	-0.197693
14903		4.995821	2.801568	7.944725	0.003695	-0.001375	0.000025	-0.093506	-0.107422	-0.892334	0.930668	0.092081	-0.293770	-0.197681
14904		5.003678	2.812224	7.937593	0.001859	-0.001066	0.003702	-0.090332	-0.111084	-0.893311	0.930671	0.092044	-0.293767	-0.197689
14905		4.996187	2.801831	7.944402	0.001028	0.000482	-0.000319	-0.088379	-0.113525	-0.892578	0.930679	0.092026	-0.293739	-0.197699
14906		5.004004	2.812593	7.937256	0.003896	-0.003574	0.000470	-0.085449	-0.110596	-0.886719	0.930682	0.092030	-0.293743	-0.197679
14907		5.020926	2.824819	7.941448	0.004919	-0.002940	-0.001325	-0.087891	-0.108643	-0.889160	0.930684	0.092045	-0.293734	-0.197674
14908		4.995790	2.812504	7.924866	0.001229	-0.001717	0.000127	-0.092285	-0.107666	-0.891113	0.930690	0.092020	-0.293716	-0.197685
14909		4.980968	2.803149	7.955755	0.001640	-0.002339	0.000662	-0.091797	-0.115234	-0.898193	0.930687	0.091989	-0.293718	-0.197712
14910		5.006531	2.793470	7.937036	0.002453	-0.003282	-0.001222	-0.082764	-0.111084	-0.893311	0.930684	0.091988	-0.293725	-0.197713
14911		4.999272	2.783603	7.943521	0.003887	-0.003271	-0.002482	-0.080811	-0.109375	-0.897217	0.930689	0.091997	-0.293706	-0.197716
14912		4.989652	2.815185	7.947609	0.004298	-0.003894	-0.001948	-0.086182	-0.118408	-0.896240	0.930694	0.092002	-0.293684	-0.197722
14913		5.014294	2.826591	7.927392	0.004911	-0.006715	-0.000968	-0.089844	-0.115723	-0.894775	0.930692	0.092027	-0.293707	-0.197685
14914		4.990951	2.816500	7.946328	0.002865	-0.003904	-0.000688	-0.092529	-0.106201	-0.895752	0.930692	0.092029	-0.293716	-0.197672
14915		5.000131	2.806739	7.940187	0.003075	-0.002328	-0.000600	-0.090332	-0.116943	-0.891846	0.930685	0.092008	-0.293717	-0.197712
14916		5.018106	2.798439	7.945584	0.005322	-0.003261	-0.003745	-0.089355	-0.105713	-0.888916	0.930680	0.092043	-0.293726	-0.197709
14917		5.008210	2.818627	7.932461	0.001631	-0.002037	-0.002291	-0.093750	-0.109619	-0.886963	0.930676	0.092018	-0.293713	-0.197755
14918		5.000566	2.797289	7.921851	0.002247	-0.000932	-0.003145	-0.095703	-0.109375	-0.890625	0.930670	0.092011	-0.293708	-0.197796
14919		5.001769	2.788698	7.940161	0.004929	0.000835	-0.001685	-0.089600	-0.113770	-0.888672	0.930665	0.092020	-0.293700	-0.197825
14920		4.990384	2.829667	7.925994	0.005126	-0.001213	-0.002715	-0.091309	-0.111816	-0.886475	0.930666	0.092047	-0.293691	-0.197824
14921		5.009427	2.812210	7.949992	0.004720	-0.000741	-0.001774	-0.092773	-0.117188	-0.891602	0.930665	0.092064	-0.293683	-0.197830
14922		5.001762	2.791010	7.939353	0.003286	-0.000752	-0.000512	-0.091064	-0.108887	-0.894043	0.930670	0.092078	-0.293680	-0.197807
14923		4.991597	2.810795	7.926531	0.000616	0.001105	-0.000854	-0.092529	-0.118164	-0.892578	0.930676	0.092052	-0.293647	-0.197838
14924		5.009434	2.813604	7.949495	0.004510	-0.002317	-0.001862	-0.084961	-0.116455	-0.890381	0.930675	0.092079	-0.293657	-0.197818
14925		5.009630	2.814205	7.949158	0.002664	-0.001706	-0.001135	-0.088135	-0.113281	-0.894043	0.930687	0.092092	-0.293635	-0.197787
14926		5.009695	2.814643	7.948962	0.001841	-0.000461	-0.002204	-0.090332	-0.113281	-0.886475	0.930694	0.092091	-0.293609	-0.197794
14927		4.994457	2.794193	7.962677	0.001841	-0.000461	-0.002204	-0.085205	-0.115967	-0.895752	0.930697	0.092091	-0.293592	-0.197801
14928		4.985534	2.793611	7.950908	0.004721	-0.000741	-0.001774	-0.095947	-0.113281	-0.893555	0.930708	0.092120	-0.293565	-0.197776
14929		5.000636	2.815251	7.936855	0.003897	0.000504	-0.002843	-0.092773	-0.104736	-0.891113	0.930703	0.092132	-0.293560	-0.197802
14930		4.985422	2.795274	7.950393	0.005946	-0.002306	-0.003124	-0.087158	-0.119141	-0.896240	0.930688	0.092136	-0.293566	-0.197865
14931		4.993190	2.818186	7.960351	0.007189	-0.000398	-0.001880	-0.088379	-0.119629	-0.897461	0.930697	0.092191	-0.293548	-0.197824
14932		5.001979	2.797558	7.936912	0.003886	-0.003121	-0.003961	-0.096924	-0.114014	-0.887695	0.930696	0.092221	-0.293547	-0.197812
14933		5.001161	2.818743	7.935284	0.000807	-0.004718	-0.001525	-0.092041	-0.115967	-0.896484	0.930682	0.092201	-0.293583	-0.197835
14934		5.003033	2.809728	7.953343	0.000807	-0.004718	-0.001525	-0.090332	-0.112549	-0.885498	0.930677	0.092186	-0.293602	-0.197841
14935		4.994709	2.808646	7.941372	0.000406	-0.004397	0.000894	-0.090820	-0.114990	-0.890625	0.930676	0.092159	-0.293616	-0.197834
14936		4.995342	2.808691	7.940957	0.000813	-0.004869	-0.000048	-0.085693	-0.100586	-0.896729	0.930674	0.092141	-0.293634	-0.197825
14937		5.012118	2.809047	7.928007	0.000819	-0.001094	-0.000408	-0.085693	-0.105225	-0.892822	0.930677	0.092092	-0.293599	-0.197886
14938		5.003400	2.808136	7.916222	0.002044	-0.002660	-0.001758	-0.094971	-0.115723	-0.887207	0.930676	0.092068	-0.293580	-0.197929
14939		4.997473	2.788614	7.941369	0.001242	-0.002016	0.003080	-0.088135	-0.105713	-0.895996	0.930681	0.092052	-0.293594	-0.197894
14940		4.987681	2.819830	7.945647	0.005755	-0.000408	-0.000620	-0.091553	-0.114990	-0.896484	0.930682	0.092056	-0.293571	-0.197923
14941		5.004091	2.809158	7.915422	0.002264	-0.001384	0.001283	-0.091553	-0.115723	-0.890381	0.930688	0.092049	-0.293566	-0.197903
14942		4.996898	2.810235	7.939432	0.001236	-0.001866	0.001603	-0.094238	-0.117432	-0.886230	0.930695	0.092038	-0.293566	-0.197874
14943		5.007267	2.790974	7.951967	0.003292	-0.000901	0.000962	-0.093750	-0.117920	-0.888184	0.930700	0.092050	-0.293572	-0.197836
14944		5.015085	2.801836	7.944742	0.004111	-0.001995	0.000554	-0.085693	-0.114502	-0.900635	0.930702	0.092068	-0.293585	-0.197799
14945		4.997426	2.800237	7.921233	0.006569	-0.001353	-0.002506	-0.090332	-0.111084	-0.894043	0.930707	0.092106	-0.293565	-0.197789
14946		4.980014	2.832844	7.949674	0.003287	-0.000751	-0.000515	-0.092773	-0.121094	-0.893555	0.930710	0.092104	-0.293551	-0.197798
14947		5.005352	2.823149	7.931075	0.000198	-0.002048	-0.001029	-0.092773	-0.113525	-0.889160	0.930715	0.092102	-0.293553	-0.197768
14948		5.006734	2.802950	7.932010	0.005135	-0.001363	-0.001243	-0.094971	-0.114014	-0.895020	0.930713	0.092122	-0.293557	-0.197767
14949		4.998081	2.813777	7.937432	0.002666	-0.001706	-0.001136	-0.083496	-0.113525	-0.897461	0.930708	0.092119	-0.293564	-0.197780
14950		4.996863	2.812076	7.901333	0.004112	-0.001995	0.000554	-0.090820	-0.117188	-0.889648	0.930721	0.092129	-0.293541	-0.197750
14951		4.982089	2.803097	7.932151	0.003079	-0.002327	-0.000602	-0.087891	-0.109131	-0.888916	0.930724	0.092140	-0.293545	-0.197725
14952		4.982247	2.792142	7.914525	0.003079	-0.002327	-0.000602	-0.088867	-0.115234	-0.879150	0.930724	0.092132	-0.293537	-0.197737
14953		4.999317	2.815658	7.935987	0.004316	-0.004193	0.001001	-0.095703	-0.112061	-0.890869	0.930726	0.092146	-0.293555	-0.197696
14954		4.990876	2.803212	7.906703	0.000001	-0.003924	0.001837	-0.092773	-0.118408	-0.893311	0.930720	0.092107	-0.293580	-0.197704
14955		4.992878	2.805536	7.942096	0.002870	-0.003904	-0.000690	-0.082031	-0.113281	-0.895996	0.930718	0.092115	-0.293600	-0.197682
14956		4.993602	2.817098	7.958955	0.000413	-0.004546	0.002371	-0.094971	-0.112061	-0.892822	0.930732	0.092089	-0.293588	-0.197642
14957		4.985260	2.815913	7.947030	0.002057	-0.002959	0.001195	-0.092529	-0.112061	-0.890137	0.930728	0.092069	-0.293606	-0.197649
14958		4.985474	2.793407	7.912046	0.003905	-0.003571	0.000465	-0.093750	-0.120117	-0.896973	0.930722	0.092067	-0.293624	-0.197649
14959		4.986410	2.828139	7.963389	0.004317	-0.004193	0.000999	-0.088867	-0.120605	-0.890869	0.930721	0.092084	-0.293652	-0.197605
14960		4.988164	2.796383	7.946785	0.001227	-0.005490	0.000486	-0.087891	-0.118408	-0.894531	0.930726	0.092084	-0.293672	-0.197553
14961		5.005299	2.796738	7.933580	0.002262	-0.005157	0.001641	-0.092285	-0.115967	-0.889404	0.930732	0.092083	-0.293688	-0.197500
14962		4.995975	2.816348	7.920243	0.002675	-0.005779	0.002175	-0.086914	-0.115234	-0.895996	0.930728	0.092075	-0.293723	-0.197469
14963		5.008322	2.799088	7.968335	-0.001032	-0.004256	0.000681	-0.096191	-0.108887	-0.893555	0.930737	0.092044	-0.293719	-0.197445
14964		5.015090	2.807587	7.925088	0.004510	-0.006092	-0.001508	-0.089355	-0.113281	-0.897461	0.930714	0.092035	-0.293764	-0.197493
14965		4.989005	2.816058	7.907132	0.003899	-0.003422	-0.001013	-0.090088	-0.114502	-0.887695	0.930713	0.092041	-0.293767	-0.197490
14966		5.008414	2.798303	7.931062	0.003708	-0.001522	0.001493	-0.098633	-0.114502	-0.891602	0.930721	0.092047	-0.293764	-0.197457
14967		5.008855	2.809969	7.948068	0.000611	-0.002670	-0.000496	-0.095703	-0.115479	-0.888184	0.930711	0.092024	-0.293786	-0.197479
14968		5.017816	2.788318	7.924858	-0.000202	-0.001725	0.001389	-0.093994	-0.116211	-0.893555	0.930713	0.091998	-0.293795	-0.197470
14969		4.976529	2.798404	7.955712	0.003480	-0.002651	-0.003024	-0.095703	-0.112549	-0.888428	0.930706	0.092011	-0.293806	-0.197479
14970		5.002314	2.800557	7.954008	0.005546	-0.005759	-0.000354	-0.086426	-0.112305	-0.900146	0.930688	0.092019	-0.293852	-0.197490
14971		5.009391	2.820956	7.927749	0.005338	-0.007335	-0.000442	-0.093506	-0.114990	-0.891357	0.930682	0.092027	-0.293878	-0.197479
14972		5.010137	2.821398	7.927120	0.001438	-0.003914	0.000572	-0.088867	-0.110840	-0.893555	0.930679	0.092012	-0.293897	-0.197471
14973		5.011881	2.800829	7.927979	0.001032	-0.003441	0.001515	-0.092529	-0.113525	-0.885498	0.930683	0.091985	-0.293896	-0.197465
14974		5.012513	2.800849	7.927572	0.001858	-0.004684	0.002582	-0.089844	-0.115479	-0.893555	0.930682	0.091965	-0.293921	-0.197442
14975		5.013208	2.812420	7.944456	0.001018	-0.003143	-0.001439	-0.091553	-0.117920	-0.891846	0.930685	0.091957	-0.293920	-0.197435
14976		5.014600	2.780489	7.928142	0.001240	-0.001865	0.001601	-0.092285	-0.108154	-0.899658	0.930695	0.091951	-0.293918	-0.197392
14977		4.988523	2.799829	7.927759	0.002473	-0.003580	0.001726	-0.088135	-0.107666	-0.893066	0.930691	0.091922	-0.293927	-0.197411
14978		4.990290	2.790893	7.945908	0.001011	-0.002994	-0.002915	-0.091309	-0.107666	-0.902100	0.930688	0.091899	-0.293915	-0.197455
14979		5.023660	2.803167	7.937326	0.004735	-0.004814	0.001528	-0.081055	-0.112549	-0.895264	0.930680	0.091885	-0.293934	-0.197471
14980		5.000018	2.781350	7.939342	-0.000208	-0.001576	-0.000087	-0.091309	-0.115234	-0.887451	0.930700	0.091866	-0.293892	-0.197447
14981		4.999106	2.802218	7.937848	0.003495	-0.002949	-0.000073	-0.094238	-0.118408	-0.887939	0.930701	0.091874	-0.293901	-0.197425
14982		5.008498	2.803969	7.948913	0.004315	-0.004044	-0.000482	-0.087646	-0.106201	-0.889893	0.930697	0.091893	-0.293929	-0.197397
14983		5.008816	2.792908	7.931208	0.001026	-0.003292	0.000038	-0.080811	-0.113525	-0.896484	0.930697	0.091860	-0.293921	-0.197422
14984		5.009239	2.792928	7.930934	0.001248	-0.002013	0.003077	-0.087646	-0.113281	-0.887695	0.930722	0.091846	-0.293886	-0.197363
14985		5.018712	2.805589	7.959506	0.000612	-0.002670	-0.000496	-0.091309	-0.113037	-0.889648	0.930729	0.091831	-0.293876	-0.197351
14986		5.001052	2.791879	7.918861	0.002061	-0.002959	0.001191	-0.096924	-0.108887	-0.895996	0.930731	0.091819	-0.293882	-0.197336
14987		5.010466	2.781677	7.912717	0.000833	-0.005165	0.002903	-0.085693	-0.107666	-0.896973	0.930721	0.091772	-0.293917	-0.197356
14988		5.026334	2.814162	7.915627	0.002452	-0.003134	-0.002704	-0.092041	-0.112549	-0.898926	0.930721	0.091761	-0.293900	-0.197386
14989		4.995334	2.805134	7.959128	0.003902	-0.003422	-0.001017	-0.093262	-0.112549	-0.892578	0.930716	0.091764	-0.293910	-0.197393
14990		5.010503	2.803652	7.910226	0.004117	-0.001995	0.000546	-0.092041	-0.115967	-0.892578	0.930715	0.091767	-0.293915	-0.197386
14991		5.021084	2.795984	7.939988	0.001234	-0.001716	0.000124	-0.088867	-0.120117	-0.896240	0.930721	0.091759	-0.293911	-0.197368
14992		4.994750	2.803964	7.922375	0.003097	-0.002625	0.002345	-0.093262	-0.112061	-0.886230	0.930735	0.091771	-0.293911	-0.197299
14993		5.014252	2.785937	7.946362	0.001648	-0.002337	0.000657	-0.099854	-0.111816	-0.892334	0.930735	0.091755	-0.293917	-0.197298
14994		5.013463	2.806902	7.944747	0.003910	-0.003571	0.000459	-0.088135	-0.112061	-0.892090	0.930720	0.091747	-0.293953	-0.197318
14995		5.013634	2.795625	7.927205	-0.000614	-0.001103	0.000856	-0.097412	-0.116455	-0.896484	0.930733	0.091717	-0.293929	-0.197307
14996		4.997604	2.795509	7.939686	0.002468	-0.003431	0.000248	-0.096191	-0.114502	-0.891113	0.930726	0.091712	-0.293955	-0.197301
14997		5.005473	2.794791	7.915039	0.002468	-0.003431	0.000248	-0.089844	-0.113525	-0.885498	0.930720	0.091704	-0.293979	-0.197298
14998		4.988440	2.815619	7.926048	0.003289	-0.004526	-0.000162	-0.095459	-0.116455	-0.895264	0.930719	0.091707	-0.293994	-0.197281
14999		5.032994	2.776369	7.914169	0.002461	-0.003283	-0.001229	-0.099854	-0.114258	-0.893555	0.930714	0.091707	-0.294012	-0.197278
15000		5.005610	2.816390	7.912610	-0.000200	-0.001724	0.001390	-0.095703	-0.114746	-0.895508	0.930710	0.091674	-0.294028	-0.197287
15001		5.025190	2.809482	7.954044	-0.000200	-0.001724	0.001390	-0.092285	-0.111084	-0.891113	0.930713	0.091646	-0.294032	-0.197279
15002		5.006651	2.827687	7.929382	0.001648	-0.006111	0.001016	-0.081299	-0.120361	-0.896484	0.930706	0.091620	-0.294062	-0.197282
15003		5.016742	2.774213	7.889960	0.002254	-0.001086	-0.001676	-0.086914	-0.112061	-0.890625	0.930730	0.091645	-0.294022	-0.197216
15004		5.008536	2.807395	7.930071	-0.001227	-0.002206	0.001712	-0.088867	-0.113037	-0.893311	0.930744	0.091609	-0.294003	-0.197194
15005		5.011505	2.777634	7.949556	0.003497	-0.002949	-0.000076	-0.095215	-0.109619	-0.896729	0.930748	0.091613	-0.294001	-0.197176
15006		5.009617	2.819279	7.946613	0.001226	-0.005341	-0.000993	-0.091797	-0.114990	-0.896484	0.930734	0.091583	-0.294029	-0.197215
15007		5.009960	2.808190	7.928890	0.003497	-0.002949	-0.000076	-0.093994	-0.120361	-0.897217	0.930735	0.091589	-0.294036	-0.197197
15008		5.002627	2.797948	7.935663	0.000008	-0.000148	0.001476	-0.091553	-0.119629	-0.892578	0.930749	0.091579	-0.294024	-0.197152
15009		5.011372	2.776568	7.912460	0.003481	-0.002653	-0.003029	-0.087402	-0.114746	-0.890137	0.930750	0.091605	-0.294028	-0.197129
15010		5.031103	2.781846	7.970927	0.003083	-0.002328	-0.000610	-0.092773	-0.109131	-0.894531	0.930759	0.091615	-0.294018	-0.197099
15011		5.003398	2.799257	7.934715	0.001840	-0.004238	-0.001850	-0.091797	-0.115967	-0.892090	0.930749	0.091595	-0.294031	-0.197135
15012		5.003843	2.811425	7.951559	0.005537	-0.001690	-0.003676	-0.096680	-0.122803	-0.891602	0.930746	0.091631	-0.294030	-0.197133
15013		5.005165	2.791527	7.952476	0.002669	-0.001707	-0.001143	-0.094727	-0.109863	-0.888184	0.930748	0.091650	-0.294043	-0.197098
15014		5.028923	2.779593	7.897972	0.001641	-0.002189	-0.000820	-0.091797	-0.107910	-0.893066	0.930741	0.091630	-0.294049	-0.197128
15015		5.020317	2.790268	7.903443	0.003697	-0.001225	-0.001467	-0.097900	-0.112305	-0.893799	0.930738	0.091627	-0.294040	-0.197158
15016		5.005501	2.781421	7.934415	0.002669	-0.001707	-0.001144	-0.080078	-0.111328	-0.886230	0.930730	0.091619	-0.294051	-0.197185
15017		4.997022	2.792241	7.939757	0.004311	-0.003896	-0.001964	-0.090332	-0.115723	-0.898193	0.930740	0.091638	-0.294033	-0.197156
15018		5.031293	2.772718	7.915052	0.004933	-0.002940	-0.001344	-0.085205	-0.112793	-0.893799	0.930741	0.091660	-0.294036	-0.197136
15019		5.003844	2.813048	7.913411	0.001236	-0.001715	0.000123	-0.093506	-0.112793	-0.895508	0.930756	0.091651	-0.294010	-0.197109
15020		5.022977	2.783919	7.920156	0.004510	-0.002172	-0.003354	-0.095947	-0.121582	-0.891357	0.930748	0.091667	-0.294014	-0.197131
15021		5.005549	2.805207	7.931257	0.005140	-0.001364	-0.001258	-0.093506	-0.117432	-0.899170	0.930748	0.091704	-0.294026	-0.197096
15022		5.015829	2.786474	7.943733	0.002661	-0.001559	-0.002621	-0.094238	-0.115967	-0.897949	0.930748	0.091715	-0.294023	-0.197094
15023		4.988975	2.783365	7.908943	0.003283	-0.000604	-0.002001	-0.093994	-0.115234	-0.891602	0.930749	0.091726	-0.294016	-0.197095
15024		5.014485	2.796715	7.924807	0.002886	-0.000278	0.000419	-0.084473	-0.110840	-0.892090	0.930754	0.091729	-0.294010	-0.197080
15025		5.008253	2.777673	7.950175	0.003896	0.000499	-0.002858	-0.092773	-0.116699	-0.885498	0.930768	0.091748	-0.293966	-0.197073
15026		5.006599	2.787601	7.931552	0.003482	0.001120	-0.003392	-0.093750	-0.111084	-0.892822	0.930772	0.091772	-0.293946	-0.197073
15027		5.006377	2.788202	7.931481	0.002462	0.000490	-0.001591	-0.091553	-0.108154	-0.897949	0.930773	0.091768	-0.293929	-0.197096
15028		5.021455	2.809775	7.917246	0.005539	-0.001690	-0.003679	-0.091797	-0.109375	-0.897217	0.930764	0.091783	-0.293923	-0.197138
15029		5.015331	2.791095	7.942425	0.004727	-0.000743	-0.001793	-0.089111	-0.113770	-0.888184	0.930762	0.091792	-0.293910	-0.197160
15030		4.998985	2.791903	7.954814	0.006568	-0.001208	-0.004004	-0.096924	-0.110352	-0.892090	0.930761	0.091834	-0.293901	-0.197160
15031		5.016673	2.784267	7.960164	0.008003	-0.001199	-0.005272	-0.085693	-0.115967	-0.895752	0.930742	0.091874	-0.293912	-0.197216
15032		5.013973	2.815343	7.939965	0.005126	-0.001069	-0.004214	-0.098877	-0.114014	-0.895996	0.930750	0.091912	-0.293887	-0.197200
15033		4.997060	2.804895	7.935271	0.007181	0.003668	-0.005225	-0.090088	-0.117676	-0.895020	0.930743	0.091959	-0.293865	-0.197243
15034		5.021821	2.807235	7.934077	0.001633	0.001732	-0.002659	-0.086670	-0.116455	-0.894287	0.930757	0.091971	-0.293827	-0.197228
15035		4.996184	2.806376	7.935300	0.002447	0.000784	-0.004546	-0.092041	-0.124512	-0.888184	0.930769	0.091993	-0.293787	-0.197221
15036		4.987150	2.817398	7.940901	0.004305	0.000025	-0.003804	-0.095703	-0.116455	-0.897705	0.930775	0.092040	-0.293778	-0.197182
15037		4.979527	2.807583	7.947739	0.001850	-0.000612	-0.000735	-0.093262	-0.108398	-0.892822	0.930776	0.092036	-0.293775	-0.197185
15038		4.997205	2.798834	7.953497	0.000613	0.001103	-0.000858	-0.090820	-0.112061	-0.889404	0.930779	0.092009	-0.293749	-0.197222
15039		5.004451	2.797925	7.929273	0.001028	0.000482	-0.000325	-0.089111	-0.110107	-0.894531	0.930787	0.091995	-0.293725	-0.197225
15040		4.998395	2.789975	7.972054	-0.000008	0.000147	-0.001477	-0.083496	-0.116211	-0.899170	0.930795	0.091971	-0.293693	-0.197245
15041		4.995831	2.819591	7.952262	-0.003085	-0.001447	0.000974	-0.093262	-0.110840	-0.891602	0.930820	0.091935	-0.293655	-0.197200
15042		5.006102	2.788687	7.947673	0.002051	-0.002662	-0.001764	-0.092773	-0.121338	-0.892090	0.930813	0.091922	-0.293662	-0.197230
15043		5.004843	2.798144	7.928948	0.001443	-0.000138	0.000209	-0.091064	-0.108154	-0.883545	0.930825	0.091928	-0.293652	-0.197187
15044		5.021711	2.821388	7.950556	0.001245	-0.001861	0.001600	-0.088623	-0.114502	-0.891846	0.930826	0.091899	-0.293650	-0.197197
15045		4.990200	2.777603	7.942573	0.002681	-0.001853	0.000332	-0.089844	-0.106934	-0.896484	0.930835	0.091900	-0.293641	-0.197171
15046		4.997898	2.788264	7.935385	0.001443	-0.000138	0.000209	-0.091553	-0.116455	-0.898438	0.930841	0.091875	-0.293615	-0.197192
15047		4.989239	2.798636	7.940981	0.000201	-0.002050	-0.001029	-0.089111	-0.107910	-0.894775	0.930845	0.091861	-0.293610	-0.197185
15048		4.982021	2.788369	7.947730	0.002068	-0.002956	0.001190	-0.093018	-0.117676	-0.898193	0.930847	0.091838	-0.293607	-0.197190
15049		5.024054	2.790153	7.933469	0.001652	-0.002335	0.000657	-0.088379	-0.117432	-0.884766	0.930852	0.091831	-0.293612	-0.197165
15050		4.972570	2.808522	7.934189	0.005752	-0.003886	-0.003234	-0.087646	-0.109863	-0.895508	0.930848	0.091870	-0.293625	-0.197143
15051		5.016175	2.801879	7.938094	0.005563	-0.005756	-0.000366	-0.098633	-0.116455	-0.896729	0.930842	0.091879	-0.293645	-0.197138
15052		4.991371	2.800970	7.938818	0.001644	-0.002188	-0.000821	-0.088867	-0.117432	-0.890137	0.930834	0.091868	-0.293663	-0.197154
15053		4.998003	2.832376	7.930188	0.002467	-0.003283	-0.001231	-0.089844	-0.112061	-0.891602	0.930838	0.091876	-0.293666	-0.197126
15054		5.010780	2.760454	7.928072	0.000831	-0.001241	0.001067	-0.092285	-0.106934	-0.886475	0.930847	0.091856	-0.293653	-0.197115
15055		4.993499	2.781073	7.939285	0.002060	-0.002809	-0.000287	-0.088867	-0.111816	-0.889893	0.930840	0.091832	-0.293659	-0.197150
15056		5.001528	2.791900	7.931819	0.002668	-0.005333	-0.002260	-0.089355	-0.108154	-0.894287	0.930833	0.091828	-0.293676	-0.197160
15057		4.994394	2.782160	7.938341	0.005561	-0.001983	-0.000730	-0.092285	-0.118164	-0.896240	0.930831	0.091838	-0.293671	-0.197171
15058		5.009847	2.803594	7.923861	0.002883	-0.003903	-0.000698	-0.089600	-0.108398	-0.892334	0.930830	0.091844	-0.293687	-0.197149
15059		5.001544	2.802621	7.911826	0.001658	-0.006108	0.001019	-0.094971	-0.113770	-0.899658	0.930824	0.091814	-0.293711	-0.197158
15060		5.006476	2.775398	7.966929	0.002476	-0.003429	0.000245	-0.091309	-0.109375	-0.893799	0.930819	0.091803	-0.293728	-0.197162
15061		5.011620	2.804274	7.922499	0.001663	-0.002481	0.002133	-0.091553	-0.113525	-0.890625	0.930821	0.091777	-0.293728	-0.197161
15062		5.014656	2.774893	7.941950	0.004940	-0.002939	-0.001349	-0.083008	-0.114990	-0.890137	0.930817	0.091793	-0.293738	-0.197157
15063		5.012548	2.816834	7.938890	0.002875	-0.003757	-0.002176	-0.097412	-0.114990	-0.897949	0.930826	0.091806	-0.293727	-0.197127
15064		4.996273	2.805753	7.934044	0.003702	-0.001224	-0.001472	-0.102051	-0.106201	-0.893311	0.930819	0.091813	-0.293736	-0.197142
15065		4.997806	2.796967	7.952386	-0.000215	-0.001430	-0.001562	-0.091553	-0.115234	-0.892090	0.930801	0.091765	-0.293751	-0.197229
15066		5.005544	2.807634	7.945147	0.002052	-0.002663	-0.001765	-0.094971	-0.107178	-0.897217	0.930801	0.091765	-0.293753	-0.197226
15067		4.996788	2.807125	7.933234	0.006997	-0.001974	-0.002001	-0.094971	-0.110596	-0.893311	0.930787	0.091782	-0.293763	-0.197270
15068		4.981947	2.787244	7.946807	0.004941	-0.002939	-0.001350	-0.083740	-0.110840	-0.895264	0.930776	0.091789	-0.293780	-0.197294
15069		5.015050	2.799762	7.938133	0.003081	-0.002181	-0.002091	-0.092285	-0.112793	-0.894043	0.930783	0.091793	-0.293757	-0.197292
15070		5.007679	2.789807	7.944895	0.002267	-0.001232	-0.000203	-0.087891	-0.106445	-0.886230	0.930786	0.091786	-0.293750	-0.197292
15071		5.015448	2.800667	7.937562	0.003497	-0.002801	-0.001558	-0.092529	-0.113525	-0.879883	0.930782	0.091780	-0.293745	-0.197318
15072		4.999197	2.789734	7.932658	0.004933	-0.002793	-0.002828	-0.091797	-0.120117	-0.888672	0.930775	0.091803	-0.293759	-0.197323
15073		4.989295	2.809800	7.919396	0.004544	-0.002610	0.001070	-0.095703	-0.110840	-0.886230	0.930781	0.091827	-0.293771	-0.197264
15074		5.017581	2.781783	7.937691	0.000202	-0.002051	-0.001029	-0.094482	-0.119873	-0.894531	0.930775	0.091799	-0.293778	-0.197295
15075		4.991292	2.801265	7.937371	0.003091	-0.002326	-0.000615	-0.088135	-0.111328	-0.898193	0.930777	0.091812	-0.293789	-0.197264
15076		5.000640	2.814493	7.965834	0.002258	-0.001086	-0.001681	-0.092041	-0.121338	-0.891357	0.930783	0.091808	-0.293767	-0.197272
15077		4.983952	2.780259	7.926613	0.003507	-0.002946	-0.000082	-0.098877	-0.110107	-0.891113	0.930788	0.091828	-0.293779	-0.197219
15078		5.009778	2.793653	7.942220	0.002053	-0.002663	-0.001766	-0.092773	-0.108154	-0.886963	0.930772	0.091810	-0.293799	-0.197271
15079		5.019042	2.795434	7.953366	0.003498	-0.002801	-0.001559	-0.094971	-0.115723	-0.902832	0.930763	0.091803	-0.293808	-0.197305
15080		5.000220	2.813972	7.928644	0.002479	-0.003428	0.000244	-0.100098	-0.111328	-0.895508	0.930760	0.091796	-0.293824	-0.197299
15081		5.001679	2.793723	7.929689	0.002880	-0.000130	-0.001064	-0.088867	-0.105713	-0.892090	0.930751	0.091787	-0.293829	-0.197337
15082		4.992613	2.792911	7.918077	0.002464	0.000490	-0.001597	-0.091797	-0.115479	-0.893799	0.930754	0.091774	-0.293798	-0.197377
15083		5.000340	2.815446	7.928045	0.005148	-0.001362	-0.001268	-0.093994	-0.108887	-0.895996	0.930756	0.091799	-0.293796	-0.197361
15084		4.985383	2.795408	7.941783	0.004111	-0.001699	-0.002419	-0.090576	-0.115479	-0.895996	0.930746	0.091800	-0.293797	-0.197404
15085		5.010673	2.785922	7.922977	0.002054	-0.002663	-0.001766	-0.094238	-0.114746	-0.889648	0.930748	0.091800	-0.293795	-0.197398
15086		4.994572	2.786169	7.935458	0.001638	-0.002043	-0.002300	-0.086914	-0.118164	-0.896484	0.930745	0.091796	-0.293799	-0.197407
15087		5.008461	2.828047	7.919851	0.002880	-0.000130	-0.001064	-0.093750	-0.117676	-0.891357	0.930761	0.091814	-0.293772	-0.197366
15088		4.994499	2.787067	7.935188	0.002048	0.001110	-0.002131	-0.087891	-0.113525	-0.895020	0.930769	0.091825	-0.293751	-0.197354
15089		4.993237	2.808304	7.933659	0.004528	-0.002318	-0.001886	-0.093018	-0.109863	-0.895264	0.930771	0.091843	-0.293744	-0.197345
15090		5.021193	2.780771	7.952022	0.004521	0.001454	-0.002251	-0.091797	-0.120605	-0.895264	0.930771	0.091854	-0.293720	-0.197374
15091		5.000485	2.819924	7.926363	-0.000426	0.000765	-0.002011	-0.094482	-0.111816	-0.896973	0.930785	0.091853	-0.293693	-0.197348
15092		4.992730	2.809803	7.933448	0.002048	0.001110	-0.002131	-0.091064	-0.116699	-0.888184	0.930787	0.091848	-0.293671	-0.197376
15093		4.983741	2.808818	7.921846	0.001240	-0.001714	0.000122	-0.091064	-0.120850	-0.888672	0.930794	0.091842	-0.293667	-0.197348
15094		4.983943	2.809120	7.921612	0.002676	-0.001706	-0.001149	-0.093750	-0.117188	-0.887695	0.930803	0.091861	-0.293666	-0.197301
15095		5.000461	2.809587	7.908615	0.001240	-0.001714	0.000122	-0.092285	-0.105469	-0.890381	0.930807	0.091855	-0.293669	-0.197280
15096		4.994474	2.790362	7.934046	0.001843	-0.000467	-0.002215	-0.088379	-0.114014	-0.893311	0.930801	0.091834	-0.293654	-0.197340
15097		4.984569	2.809834	7.920965	-0.000605	-0.004874	0.001225	-0.085693	-0.115723	-0.898193	0.930806	0.091801	-0.293663	-0.197319
15098		5.002946	2.801148	7.926269	0.003703	-0.004851	-0.002589	-0.088623	-0.111572	-0.896973	0.930807	0.091817	-0.293668	-0.197301
15099		4.996123	2.802863	7.950005	0.003926	-0.003565	0.000450	-0.093262	-0.106689	-0.885010	0.930807	0.091817	-0.293673	-0.197290
15100		4.998111	2.794153	7.968076	0.002898	-0.004047	0.000777	-0.090332	-0.118408	-0.896240	0.930797	0.091794	-0.293694	-0.197320
15101		4.997145	2.803726	7.949058	0.003917	-0.003420	-0.001028	-0.092285	-0.114258	-0.900146	0.930799	0.091813	-0.293703	-0.197286
15102		4.997492	2.792734	7.931311	0.003723	-0.005141	0.000365	-0.088867	-0.109619	-0.900146	0.930794	0.091811	-0.293728	-0.197276
15103		4.998109	2.793359	7.930701	0.005780	-0.004177	-0.000289	-0.092773	-0.114990	-0.895996	0.930788	0.091821	-0.293739	-0.197280
15104		5.006432	2.816058	7.940213	0.005159	-0.005134	-0.000907	-0.093506	-0.111572	-0.892334	0.930779	0.091836	-0.293768	-0.197272
15105		4.984571	2.785482	7.960713	0.004140	-0.005761	0.000898	-0.086182	-0.107422	-0.901855	0.930768	0.091830	-0.293804	-0.197273
15106		5.000166	2.795214	7.928751	0.003724	-0.005141	0.000364	-0.094238	-0.107422	-0.894287	0.930765	0.091817	-0.293811	-0.197284
15107		5.000756	2.795665	7.928220	0.002890	-0.003902	-0.000702	-0.090820	-0.108643	-0.891113	0.930753	0.091798	-0.293828	-0.197324
15108		5.026696	2.809086	7.943716	0.002473	-0.003283	-0.001235	-0.087891	-0.109863	-0.893066	0.930747	0.091784	-0.293833	-0.197351
15109		5.001513	2.796545	7.927432	0.003094	-0.002326	-0.000618	-0.087158	-0.106934	-0.889160	0.930749	0.091780	-0.293824	-0.197358
15110		5.001996	2.808473	7.944330	0.002687	-0.001851	0.000327	-0.094971	-0.119873	-0.891602	0.930753	0.091765	-0.293809	-0.197370
15111		5.002217	2.808884	7.944046	0.003716	-0.001369	-0.000001	-0.096924	-0.107178	-0.887207	0.930757	0.091784	-0.293816	-0.197329
15112		5.011060	2.799059	7.938143	0.002474	0.000345	-0.000122	-0.085449	-0.106445	-0.897217	0.930753	0.091767	-0.293809	-0.197367
15113		5.020030	2.789378	7.932110	0.005365	-0.003557	-0.000825	-0.090820	-0.117676	-0.889893	0.930749	0.091771	-0.293805	-0.197388
15114		5.013081	2.791163	7.955927	0.004133	-0.001988	0.000532	-0.083008	-0.124756	-0.890137	0.930757	0.091789	-0.293807	-0.197344
15115		4.994212	2.821077	7.948583	0.001446	-0.000137	0.000205	-0.085938	-0.125000	-0.898193	0.930786	0.091811	-0.293772	-0.197247
15116		4.986885	2.810941	7.955434	0.003105	-0.002470	0.000859	-0.092773	-0.114502	-0.896484	0.930805	0.091836	-0.293764	-0.197155
15117		4.985249	2.797346	7.902166	0.002678	-0.001707	-0.001151	-0.086426	-0.116943	-0.889404	0.930806	0.091837	-0.293762	-0.197156
15118		5.003339	2.800259	7.924968	0.001446	-0.000137	0.000205	-0.092529	-0.117432	-0.885498	0.930824	0.091839	-0.293734	-0.197112
15119		5.005058	2.791409	7.943284	0.002484	-0.003427	0.000242	-0.087646	-0.107422	-0.893555	0.930824	0.091840	-0.293750	-0.197085
15120		5.011612	2.811118	7.917260	0.001455	-0.003909	0.000570	-0.095459	-0.110840	-0.890137	0.930825	0.091812	-0.293750	-0.197096
15121		4.997120	2.802021	7.948339	0.000825	-0.001094	-0.000412	-0.092041	-0.113525	-0.894531	0.930822	0.091789	-0.293748	-0.197122
15122		5.021140	2.812845	7.928259	0.002057	-0.002664	-0.001768	-0.086182	-0.114990	-0.889648	0.930820	0.091784	-0.293751	-0.197131
15123		5.013550	2.791227	7.917921	0.002485	0.000201	0.001354	-0.093262	-0.112305	-0.896729	0.930839	0.091787	-0.293721	-0.197085
15124		4.997297	2.791383	7.930569	0.001222	-0.001426	-0.002834	-0.089111	-0.106689	-0.893311	0.930836	0.091776	-0.293714	-0.197115
15125		4.997616	2.803588	7.947475	0.005560	-0.001837	-0.002220	-0.089844	-0.119873	-0.898438	0.930830	0.091788	-0.293706	-0.197146
15126		4.998936	2.783717	7.948527	0.003289	-0.000605	-0.002013	-0.092529	-0.120605	-0.898193	0.930840	0.091811	-0.293690	-0.197114
15127		5.006550	2.794722	7.941178	0.004125	-0.001843	-0.000947	-0.089111	-0.109131	-0.894775	0.930844	0.091835	-0.293693	-0.197077
15128		5.012666	2.814678	7.915328	0.002475	0.000345	-0.000124	-0.087646	-0.123047	-0.890625	0.930852	0.091827	-0.293666	-0.197084
15129		4.987269	2.801771	7.899323	-0.000194	-0.001720	0.001394	-0.089111	-0.111328	-0.894775	0.930872	0.091822	-0.293653	-0.197010
15130		4.990432	2.783927	7.936199	0.005154	-0.001361	-0.001276	-0.086182	-0.112305	-0.897705	0.930874	0.091839	-0.293643	-0.197009
