// Start Time: Unknown
// Update Rate: 60.0Hz
// Filter Profile: human (46.1)
// Firmware Version: 4.6.0
PacketCounter	SampleTimeFine	Acc_X	Acc_Y	Acc_Z	Gyr_X	Gyr_Y	Gyr_Z	Mag_X	Mag_Y	Mag_Z	Quat_q0	Quat_q1	Quat_q2	Quat_q3
13168		9.539144	-0.312717	2.320592	0.020819	-0.006390	0.004270	-0.828857	-0.402344	-0.470215	0.683844	0.287137	-0.547175	0.387954
13169		9.564456	-0.267749	2.427123	0.021999	0.010467	0.009280	-0.821777	-0.398438	-0.470215	0.683809	0.287186	-0.547067	0.388132
13170		9.537584	-0.256855	2.423534	0.014637	0.028736	0.008639	-0.823730	-0.404541	-0.473877	0.683905	0.287087	-0.546863	0.388325
13171		9.482785	-0.257906	2.380607	0.005071	0.031806	0.006663	-0.828125	-0.403320	-0.481445	0.684034	0.286950	-0.546672	0.388467
13172		9.467328	-0.276419	2.346837	-0.008570	0.016405	0.003937	-0.831299	-0.405518	-0.484375	0.684171	0.286731	-0.546589	0.388505
13173		9.491245	-0.322655	2.366673	-0.013183	0.011143	-0.003031	-0.823486	-0.399902	-0.477783	0.684316	0.286537	-0.546534	0.388469
13174		9.518331	-0.299924	2.364694	-0.013542	0.015984	-0.005685	-0.821289	-0.407959	-0.485107	0.684484	0.286356	-0.546450	0.388425
13175		9.529970	-0.316841	2.353744	-0.014402	0.019222	-0.008365	-0.833252	-0.398682	-0.477783	0.684688	0.286153	-0.546339	0.388372
13176		9.550248	-0.341401	2.360047	-0.014439	0.015508	-0.003475	-0.822021	-0.404541	-0.472168	0.684832	0.285992	-0.546273	0.388330
13177		9.536488	-0.335518	2.359664	-0.011065	0.023588	-0.003975	-0.820801	-0.409180	-0.478027	0.684974	0.285886	-0.546163	0.388311
13178		9.535347	-0.346132	2.408609	-0.012824	0.026353	-0.004442	-0.821289	-0.407715	-0.475342	0.685147	0.285738	-0.546037	0.388293
13179		9.451132	-0.323668	2.389143	-0.014197	0.029361	-0.015900	-0.829834	-0.403809	-0.475830	0.685363	0.285643	-0.545875	0.388209
13180		9.429285	-0.296585	2.389397	-0.014352	0.020974	-0.018721	-0.826172	-0.403809	-0.474121	0.685552	0.285584	-0.545753	0.388091
13181		9.402176	-0.294443	2.367335	-0.016878	0.004395	-0.017689	-0.826172	-0.400146	-0.478027	0.685665	0.285567	-0.545735	0.387927
13182		9.419983	-0.295741	2.419535	-0.014655	0.002831	-0.015611	-0.821045	-0.403564	-0.480713	0.685784	0.285511	-0.545714	0.387789
13183		9.464669	-0.286236	2.450772	-0.009480	0.005226	-0.013923	-0.818604	-0.404785	-0.478027	0.685919	0.285467	-0.545642	0.387683
13184		9.467948	-0.215380	2.492372	-0.007429	0.008710	-0.012100	-0.819336	-0.403076	-0.480469	0.686044	0.285435	-0.545556	0.387607
13185		9.447305	-0.166438	2.463093	-0.008990	0.020248	-0.011335	-0.825928	-0.405273	-0.483887	0.686238	0.285331	-0.545400	0.387560
13186		9.374907	-0.183873	2.456293	-0.016153	0.016693	-0.010999	-0.825684	-0.398193	-0.481201	0.686452	0.285206	-0.545264	0.387464
13187		9.348884	-0.250384	2.379221	-0.015635	0.001555	-0.010233	-0.828613	-0.403809	-0.479492	0.686564	0.285104	-0.545247	0.387363
13188		9.337541	-0.310507	2.382404	-0.019603	-0.014176	-0.008739	-0.815186	-0.405029	-0.483398	0.686610	0.285080	-0.545323	0.387194
13189		9.348652	-0.272622	2.340943	-0.018614	-0.022859	-0.004220	-0.826172	-0.403564	-0.483398	0.686636	0.285045	-0.545430	0.387021
13190		9.399887	-0.230166	2.280859	-0.018068	-0.027499	0.000823	-0.826416	-0.406250	-0.477539	0.686611	0.285004	-0.545584	0.386880
13191		9.419651	-0.212156	2.236292	-0.018731	-0.051313	-0.003032	-0.821777	-0.409424	-0.482910	0.686457	0.285108	-0.545894	0.386640
13192		9.484242	-0.197591	2.202033	-0.016923	-0.067530	-0.005170	-0.826416	-0.403076	-0.479492	0.686277	0.285278	-0.546249	0.386331
13193		9.574392	-0.227855	2.245499	-0.011919	-0.073935	-0.004747	-0.821289	-0.406006	-0.482666	0.686012	0.285476	-0.546676	0.386053
13194		9.644222	-0.222003	2.303003	-0.006484	-0.060436	0.002037	-0.825439	-0.400879	-0.475098	0.685807	0.285630	-0.546997	0.385848
13195		9.601370	-0.241166	2.308866	-0.005835	-0.047135	0.001598	-0.835205	-0.399414	-0.471436	0.685597	0.285754	-0.547304	0.385694
13196		9.527033	-0.251410	2.261079	-0.010206	-0.045013	0.004604	-0.825195	-0.409424	-0.473633	0.685369	0.285852	-0.547644	0.385545
13197		9.486226	-0.213820	2.228743	-0.010802	-0.059892	-0.002030	-0.828613	-0.407715	-0.474609	0.685150	0.286073	-0.547994	0.385272
13198		9.471215	-0.198086	2.183828	-0.010816	-0.072381	-0.011821	-0.822510	-0.405029	-0.465088	0.684906	0.286363	-0.548395	0.384918
13199		9.526183	-0.263957	2.302149	-0.008071	-0.088173	-0.016234	-0.820801	-0.405518	-0.471436	0.684542	0.286754	-0.548927	0.384517
13200		9.572220	-0.311078	2.359148	-0.014784	-0.059513	-0.015510	-0.821289	-0.401855	-0.470703	0.684379	0.286968	-0.549265	0.384165
13201		9.516420	-0.322164	2.362517	-0.012715	-0.041759	-0.014239	-0.827637	-0.396240	-0.473633	0.684280	0.287095	-0.549515	0.383890
13202		9.494425	-0.319277	2.255383	-0.012905	-0.050981	-0.013937	-0.835205	-0.409912	-0.471680	0.684135	0.287190	-0.549834	0.383619
13203		9.449675	-0.382022	2.254798	-0.021341	-0.061147	-0.016754	-0.825439	-0.404541	-0.469238	0.683984	0.287416	-0.550179	0.383224
13204		9.502286	-0.449289	2.251117	-0.020691	-0.065432	-0.013339	-0.834717	-0.400391	-0.467529	0.683793	0.287581	-0.550578	0.382868
13205		9.578022	-0.405825	2.285019	-0.023022	-0.047067	-0.016054	-0.830078	-0.398926	-0.470215	0.683658	0.287665	-0.550921	0.382552
13206		9.618994	-0.297355	2.241879	-0.018781	-0.038064	-0.020331	-0.829346	-0.403809	-0.465576	0.683596	0.287716	-0.551171	0.382266
13207		9.619767	-0.250706	2.318798	-0.020848	-0.031429	-0.016232	-0.835449	-0.399902	-0.467041	0.683540	0.287784	-0.551391	0.381995
13208		9.605360	-0.199578	2.333195	-0.021609	-0.003519	-0.011054	-0.825928	-0.404785	-0.471191	0.683586	0.287696	-0.551493	0.381834
13209		9.537234	-0.205156	2.265730	-0.018815	0.004146	-0.002905	-0.828125	-0.412109	-0.471680	0.683711	0.287566	-0.551480	0.381726
13210		9.456914	-0.193645	2.212214	-0.017225	-0.004114	-0.007054	-0.822021	-0.406250	-0.472168	0.683822	0.287564	-0.551460	0.381558
13211		9.497764	-0.175709	2.209759	-0.027240	-0.012848	-0.014960	-0.826172	-0.406738	-0.466553	0.683950	0.287504	-0.551517	0.381290
13212		9.552189	-0.139651	2.182065	-0.034510	-0.012118	-0.025053	-0.829346	-0.400391	-0.468506	0.684076	0.287502	-0.551609	0.380934
13213		9.597533	-0.151345	2.238255	-0.045336	-0.005848	-0.036014	-0.825684	-0.408447	-0.465088	0.684277	0.287398	-0.551712	0.380502
13214		9.620121	-0.194357	2.330433	-0.057326	-0.001487	-0.042402	-0.826904	-0.403564	-0.473389	0.684555	0.287349	-0.551771	0.379953
13215		9.516114	-0.222559	2.296007	-0.069865	0.016675	-0.040674	-0.828613	-0.407959	-0.464111	0.684988	0.287048	-0.551757	0.379418
13216		9.433185	-0.218872	2.164537	-0.075857	0.002747	-0.042979	-0.817871	-0.404053	-0.463623	0.685300	0.286897	-0.551872	0.378802
13217		9.400194	-0.250542	2.099996	-0.081237	-0.039706	-0.051395	-0.830322	-0.405273	-0.471191	0.685476	0.286844	-0.552220	0.378017
13218		9.462009	-0.243059	2.187305	-0.099669	-0.056620	-0.060790	-0.824951	-0.399414	-0.466064	0.685663	0.286742	-0.552698	0.377055
13219		9.547320	-0.190719	2.256552	-0.104418	-0.042232	-0.070128	-0.827393	-0.395996	-0.469238	0.685916	0.286578	-0.553137	0.376074
13220		9.631632	-0.215629	2.256078	-0.102975	-0.017483	-0.069861	-0.822021	-0.412109	-0.485352	0.686287	0.286277	-0.553444	0.375174
13221		9.589034	-0.329818	2.285859	-0.090575	0.000833	-0.054611	-0.830078	-0.405762	-0.464844	0.686882	0.285960	-0.553415	0.374369
13222		9.467833	-0.501865	2.270565	-0.066143	0.006234	-0.031899	-0.820557	-0.406006	-0.468506	0.687108	0.285786	-0.553545	0.373895
13223		9.392040	-0.507319	2.093866	-0.042374	0.012181	-0.007702	-0.824707	-0.405518	-0.480469	0.687301	0.285578	-0.553560	0.373676
13224		9.383246	-0.407428	1.967013	-0.013661	-0.011413	0.000029	-0.830566	-0.404541	-0.475098	0.687377	0.285455	-0.553594	0.373579
13225		9.505342	-0.200418	2.106791	0.001530	-0.038690	0.000490	-0.828857	-0.414795	-0.475342	0.687199	0.285543	-0.553816	0.373511
13226		9.669565	0.022887	2.307709	-0.013297	-0.011436	0.006433	-0.824463	-0.408203	-0.468994	0.687213	0.285549	-0.553861	0.373414
13227		9.670616	0.179260	2.316383	-0.040059	0.014859	0.003771	-0.830811	-0.396484	-0.474854	0.687363	0.285319	-0.553892	0.373268
13228		9.601101	0.137255	2.260607	-0.056868	0.002152	0.000036	-0.817139	-0.396240	-0.471436	0.687496	0.284865	-0.554109	0.373048
13229		9.511042	-0.069408	2.126031	-0.063910	-0.003048	-0.006760	-0.826904	-0.411621	-0.468994	0.687685	0.284461	-0.554309	0.372710
13230		9.455608	-0.327728	2.023634	-0.037968	-0.003195	-0.017576	-0.822510	-0.397705	-0.476562	0.687812	0.284495	-0.554361	0.372372
13231		9.485321	-0.415626	2.079884	-0.007863	-0.002172	-0.021265	-0.825439	-0.399902	-0.468018	0.687939	0.284451	-0.554340	0.372203
13232		9.561434	-0.267446	2.092821	0.005803	-0.006289	-0.016144	-0.822266	-0.407471	-0.470703	0.687888	0.284594	-0.554376	0.372134
13233		9.575067	-0.124720	2.085892	0.002514	-0.011903	-0.000025	-0.828857	-0.404785	-0.468994	0.687842	0.284725	-0.554402	0.372080
13234		9.629552	-0.037465	2.157521	-0.013514	-0.038322	0.019649	-0.825684	-0.404053	-0.481689	0.687585	0.284737	-0.554748	0.372030
13235		9.593497	-0.138770	2.204395	-0.031456	-0.020338	0.033162	-0.826660	-0.396484	-0.470215	0.687580	0.284377	-0.554973	0.371979
13236		9.519664	-0.267525	2.223334	-0.016456	-0.006779	0.030997	-0.824219	-0.413574	-0.468018	0.687456	0.284106	-0.555201	0.372074
13237		9.462962	-0.393882	2.096143	0.003817	0.015938	0.014619	-0.828613	-0.395264	-0.467773	0.687487	0.284227	-0.555055	0.372144
13238		9.465099	-0.437617	2.075621	0.026058	-0.006438	-0.005887	-0.825684	-0.403320	-0.467285	0.687336	0.284381	-0.555098	0.372240
13239		9.535533	-0.294841	2.175882	0.042438	-0.037059	-0.012312	-0.829102	-0.403320	-0.473389	0.687060	0.284867	-0.555171	0.372270
13240		9.552214	-0.240964	2.200185	0.033090	-0.009277	-0.003692	-0.822021	-0.405518	-0.472412	0.686965	0.285082	-0.555113	0.372366
13241		9.542159	-0.256075	2.144966	0.029167	-0.036876	0.023088	-0.827881	-0.406494	-0.465332	0.686713	0.285271	-0.555230	0.372511
13242		9.548889	-0.335959	2.113666	0.026172	-0.041490	0.038424	-0.829590	-0.403564	-0.469238	0.686291	0.285477	-0.555490	0.372745
13243		9.482962	-0.327297	2.213737	0.020227	-0.032289	0.037051	-0.828369	-0.400391	-0.466064	0.685968	0.285529	-0.555712	0.372968
13244		9.515404	-0.205467	2.238706	0.025861	-0.007207	0.022504	-0.830078	-0.396729	-0.468018	0.685768	0.285588	-0.555767	0.373209
13245		9.532671	-0.210045	2.227478	0.034313	0.002103	0.003335	-0.825195	-0.407471	-0.464111	0.685661	0.285673	-0.555720	0.373410
13246		9.475413	-0.308193	2.074145	0.040234	0.012626	-0.006865	-0.827393	-0.405029	-0.467529	0.685634	0.286019	-0.555465	0.373575
13247		9.411646	-0.468346	2.045719	0.056588	-0.033369	0.003681	-0.829590	-0.404785	-0.469971	0.685341	0.286460	-0.555467	0.373770
13248		9.465668	-0.448846	2.133305	0.051147	-0.069391	0.031171	-0.839355	-0.401123	-0.464844	0.684829	0.286802	-0.555759	0.374012
13249		9.560943	-0.181310	2.236696	0.032166	-0.054421	0.069844	-0.834717	-0.407471	-0.456299	0.684195	0.286796	-0.556236	0.374469
13250		9.607503	0.155800	2.123345	0.011651	-0.034752	0.074928	-0.829346	-0.400879	-0.469971	0.683651	0.286793	-0.556618	0.374897
13251		9.625837	0.279091	2.080867	0.007171	-0.024225	0.035897	-0.831299	-0.409912	-0.461426	0.683493	0.286651	-0.556777	0.375057
13252		9.590958	0.045637	2.220735	0.014980	0.005898	-0.008389	-0.828613	-0.401611	-0.459229	0.683508	0.286920	-0.556612	0.375068
13253		9.553466	-0.303519	2.210589	0.015913	0.051416	-0.029098	-0.833496	-0.397461	-0.464111	0.683777	0.287039	-0.556206	0.375090
13254		9.529712	-0.373226	2.031300	0.011447	0.035045	-0.009795	-0.826660	-0.393066	-0.469482	0.683926	0.286964	-0.556005	0.375175
13255		9.549287	-0.286002	1.970354	0.004755	-0.061879	0.023790	-0.825928	-0.400146	-0.465088	0.683630	0.286865	-0.556423	0.375168
13256		9.697444	-0.167422	2.203522	-0.014492	-0.079785	0.047442	-0.827637	-0.402100	-0.471191	0.683201	0.286770	-0.557009	0.375154
13257		9.732177	-0.129272	2.213562	-0.037976	0.001961	0.056771	-0.834473	-0.407715	-0.465576	0.683263	0.286195	-0.557164	0.375249
13258		9.603645	-0.233884	2.088680	-0.026472	0.031457	0.032928	-0.832520	-0.402832	-0.454346	0.683407	0.285880	-0.557083	0.375348
13259		9.482920	-0.355278	2.103888	-0.005707	0.032651	0.002068	-0.832275	-0.402100	-0.458008	0.683466	0.285905	-0.556951	0.375416
13260		9.413890	-0.390784	1.976401	0.006823	0.033548	-0.021644	-0.835938	-0.403076	-0.462402	0.683611	0.286054	-0.556704	0.375405
13261		9.425817	-0.289590	1.826580	0.005778	-0.009712	-0.012875	-0.840088	-0.397705	-0.454346	0.683551	0.286248	-0.556728	0.375333
13262		9.686324	-0.231268	2.088069	-0.017949	-0.072735	0.014994	-0.841553	-0.398438	-0.469238	0.683040	0.286375	-0.557380	0.375196
13263		9.902015	-0.208865	2.345082	-0.040712	-0.033415	0.042088	-0.831299	-0.393311	-0.461426	0.682862	0.285954	-0.557840	0.375159
13264		9.764329	-0.305910	2.202459	-0.043310	0.058503	0.047256	-0.839111	-0.407715	-0.460693	0.683081	0.285236	-0.557802	0.375362
13265		9.502476	-0.463486	2.053353	-0.021374	0.058103	0.028487	-0.834961	-0.391602	-0.461914	0.683255	0.284992	-0.557582	0.375559
13266		9.392571	-0.523709	2.066106	0.000191	0.021716	0.009761	-0.832275	-0.396484	-0.458496	0.683274	0.284819	-0.557567	0.375678
13267		9.458729	-0.429642	2.103450	0.017791	0.030205	0.003410	-0.839844	-0.401367	-0.473633	0.683292	0.284874	-0.557391	0.375865
13268		9.618914	-0.286796	2.252855	0.026346	0.028805	0.008996	-0.832764	-0.397705	-0.465088	0.683387	0.284852	-0.557133	0.376090
13269		9.721040	-0.135868	2.388392	0.012560	0.048262	0.025604	-0.836182	-0.395508	-0.468750	0.683496	0.284660	-0.556884	0.376407
13270		9.649814	-0.142314	2.194926	-0.013871	0.096837	0.031155	-0.823242	-0.400635	-0.465332	0.683885	0.284073	-0.556474	0.376750
13271		9.473686	-0.273005	2.077239	-0.011257	0.066503	0.024509	-0.826416	-0.395752	-0.470459	0.684184	0.283777	-0.556107	0.376973
13272		9.402976	-0.385464	2.172979	-0.001559	0.040257	0.015989	-0.824951	-0.393799	-0.464111	0.684380	0.283538	-0.555880	0.377131
13273		9.427994	-0.477559	2.175201	0.003333	0.051137	0.014258	-0.829834	-0.388428	-0.468018	0.684548	0.283355	-0.555618	0.377349
13274		9.365370	-0.468732	2.042978	0.002934	0.046551	0.015866	-0.828125	-0.395264	-0.471924	0.684686	0.283056	-0.555448	0.377573
13275		9.426945	-0.343342	2.022758	0.014444	0.010407	0.015892	-0.832275	-0.397461	-0.469482	0.684684	0.283007	-0.555360	0.377743
13276		9.530147	-0.294161	2.169976	0.010016	0.000721	0.019245	-0.828369	-0.389404	-0.466309	0.684584	0.283011	-0.555373	0.377903
13277		9.597386	-0.280310	2.194185	0.010393	0.019185	0.018808	-0.826172	-0.395996	-0.473633	0.684551	0.282879	-0.555334	0.378117
13278		9.577128	-0.324586	2.200604	0.014225	0.015060	0.017289	-0.830811	-0.397217	-0.477539	0.684599	0.282808	-0.555194	0.378289
13279		9.476528	-0.312736	2.235676	0.011539	0.001123	0.014005	-0.834229	-0.398926	-0.469482	0.684611	0.282755	-0.555136	0.378393
13280		9.357326	-0.261244	2.145525	-0.003637	-0.005155	0.008115	-0.829102	-0.395752	-0.477051	0.684540	0.282783	-0.555196	0.378413
13281		9.315616	-0.243970	2.008931	-0.004059	-0.034564	0.005699	-0.820557	-0.398682	-0.469238	0.684453	0.282781	-0.555370	0.378315
13282		9.444373	-0.282468	2.017548	-0.003039	-0.074295	0.006976	-0.832520	-0.390869	-0.474854	0.684156	0.283034	-0.555733	0.378130
13283		9.623400	-0.327025	2.221428	0.003134	-0.077721	0.011367	-0.829590	-0.386475	-0.469238	0.683799	0.283127	-0.556205	0.378013
13284		9.782940	-0.368192	2.377667	-0.001973	-0.024762	0.018406	-0.838623	-0.390625	-0.470703	0.683643	0.282987	-0.556440	0.378054
13285		9.762082	-0.346121	2.373983	-0.000377	0.012296	0.016926	-0.829834	-0.388672	-0.468018	0.683631	0.282789	-0.556464	0.378189
13286		9.591658	-0.350761	2.326336	-0.000777	0.022462	0.016574	-0.833008	-0.391357	-0.470703	0.683692	0.282571	-0.556401	0.378336
13287		9.424059	-0.286372	2.258176	-0.008841	0.010754	0.012990	-0.834717	-0.398682	-0.476807	0.683739	0.282373	-0.556406	0.378390
13288		9.361912	-0.288655	2.101454	-0.013698	-0.004568	0.009327	-0.831787	-0.393799	-0.472412	0.683806	0.282244	-0.556434	0.378324
13289		9.461537	-0.373606	2.147077	-0.007614	-0.029456	0.006426	-0.830078	-0.397461	-0.468750	0.683713	0.282234	-0.556614	0.378235
13290		9.635240	-0.397267	2.345388	-0.011943	-0.017887	0.005290	-0.837646	-0.387451	-0.471191	0.683671	0.282254	-0.556719	0.378142
13291		9.672054	-0.395841	2.404422	-0.004176	0.035365	0.010077	-0.837402	-0.398682	-0.477295	0.683801	0.281976	-0.556602	0.378284
13292		9.565410	-0.335463	2.205373	0.004366	0.066785	0.008488	-0.822510	-0.393799	-0.476807	0.684148	0.281732	-0.556173	0.378471
13293		9.450609	-0.301407	2.060809	0.017156	0.027037	0.005691	-0.836914	-0.399170	-0.465332	0.684348	0.281659	-0.555880	0.378593
13294		9.503691	-0.348950	2.164560	0.017484	-0.003546	0.007373	-0.831055	-0.396484	-0.466064	0.684204	0.281868	-0.555872	0.378710
13295		9.620250	-0.348052	2.231850	0.008360	0.019029	0.013669	-0.836670	-0.397705	-0.474365	0.684205	0.281880	-0.555758	0.378867
13296		9.608005	-0.364537	2.185536	-0.003194	0.047203	0.009099	-0.830078	-0.391846	-0.469727	0.684428	0.281685	-0.555494	0.378996
13297		9.508745	-0.349059	2.150429	-0.004818	0.043000	0.003383	-0.833008	-0.394531	-0.472900	0.684624	0.281511	-0.555271	0.379098
13298		9.498038	-0.364160	2.166941	-0.007487	0.033688	-0.007899	-0.835205	-0.397705	-0.463135	0.684831	0.281408	-0.555074	0.379090
13299		9.445039	-0.417529	2.148414	-0.009401	0.028062	-0.011264	-0.824219	-0.394043	-0.471436	0.684922	0.281466	-0.554951	0.379062
13300		9.456976	-0.444657	2.182129	-0.003965	0.012763	-0.015301	-0.826416	-0.390625	-0.471924	0.685070	0.281500	-0.554813	0.378972
13301		9.467575	-0.428029	2.235118	0.000661	0.004110	-0.009441	-0.831787	-0.391113	-0.470703	0.685129	0.281514	-0.554760	0.378933
13302		9.460678	-0.439819	2.170917	0.000400	0.013195	-0.002660	-0.833984	-0.397461	-0.470459	0.685167	0.281481	-0.554706	0.378966
13303		9.405330	-0.449793	2.107573	0.002548	0.000267	-0.001879	-0.834473	-0.386719	-0.469971	0.685134	0.281574	-0.554697	0.378970
13304		9.443683	-0.400544	2.108394	-0.003139	-0.027532	0.000963	-0.829102	-0.385254	-0.474365	0.684951	0.281586	-0.554944	0.378931
13305		9.522719	-0.358374	2.133291	-0.018647	-0.030797	0.002789	-0.821777	-0.391357	-0.473633	0.684857	0.281450	-0.555218	0.378801
13306		9.527463	-0.345556	2.069465	-0.021858	-0.032451	0.000635	-0.842773	-0.391602	-0.473145	0.684817	0.281393	-0.555427	0.378609
13307		9.560053	-0.344420	2.072968	-0.021847	-0.042565	-0.005396	-0.831543	-0.390625	-0.466553	0.684634	0.281398	-0.555792	0.378400
13308		9.605484	-0.371232	2.106281	-0.016462	-0.040606	-0.011515	-0.835205	-0.391113	-0.467773	0.684471	0.281511	-0.556084	0.378182
13309		9.654335	-0.383181	2.081701	-0.005568	-0.032478	-0.014377	-0.831787	-0.399414	-0.471191	0.684328	0.281661	-0.556296	0.378017
13310		9.693988	-0.343503	2.124493	0.003465	-0.028081	-0.015133	-0.838867	-0.390381	-0.463379	0.684255	0.281907	-0.556367	0.377861
13311		9.656616	-0.311901	2.129424	0.000147	-0.012873	-0.017748	-0.831299	-0.396973	-0.469238	0.684151	0.282061	-0.556483	0.377765
13312		9.580683	-0.294402	2.061014	-0.010074	-0.006372	-0.019876	-0.839111	-0.392334	-0.473389	0.684212	0.282162	-0.556482	0.377579
13313		9.519595	-0.283434	2.057429	-0.012420	-0.016995	-0.020051	-0.840332	-0.395752	-0.463623	0.684221	0.282184	-0.556605	0.377367
13314		9.480651	-0.308930	2.099398	-0.010630	-0.029894	-0.025684	-0.830078	-0.395264	-0.463379	0.684096	0.282411	-0.556808	0.377122
13315		9.496304	-0.377783	2.104265	-0.010802	-0.024402	-0.027441	-0.834961	-0.389404	-0.469971	0.684057	0.282622	-0.556925	0.376862
13316		9.511181	-0.434637	2.064680	-0.001620	-0.025911	-0.024870	-0.830078	-0.391602	-0.469482	0.684011	0.282738	-0.557064	0.376654
13317		9.579866	-0.460399	2.136319	0.012760	-0.044165	-0.024044	-0.824951	-0.396484	-0.461914	0.683869	0.283016	-0.557226	0.376463
13318		9.641844	-0.412637	2.308952	0.019754	-0.027453	-0.019990	-0.833984	-0.397217	-0.465820	0.683745	0.283382	-0.557252	0.376374
13319		9.614040	-0.376901	2.350565	0.016797	0.013426	-0.015273	-0.839844	-0.388672	-0.468018	0.683798	0.283537	-0.557093	0.376397
13320		9.504864	-0.306149	2.315517	0.009162	0.016812	-0.016024	-0.832520	-0.394043	-0.463623	0.683867	0.283515	-0.557014	0.376405
13321		9.445824	-0.304516	2.285098	0.001867	0.012983	-0.018105	-0.833008	-0.394775	-0.473633	0.683944	0.283581	-0.556920	0.376354
13322		9.443503	-0.304100	2.361866	-0.002379	-0.003704	-0.020070	-0.834717	-0.394775	-0.471436	0.684043	0.283595	-0.556893	0.376204
13323		9.476707	-0.299813	2.433695	-0.006121	0.007347	-0.022641	-0.829346	-0.396484	-0.467041	0.684181	0.283584	-0.556827	0.376059
13324		9.476297	-0.293390	2.299272	-0.010869	0.040447	-0.022811	-0.832275	-0.398193	-0.472168	0.684473	0.283504	-0.556566	0.375975
13325		9.488636	-0.315505	2.196498	0.002505	0.022351	-0.025331	-0.830811	-0.394531	-0.474609	0.684680	0.283542	-0.556352	0.375885
13326		9.595302	-0.289289	2.203483	0.003010	0.014492	-0.021095	-0.835449	-0.400879	-0.469971	0.684855	0.283526	-0.556201	0.375802
13327		9.641815	-0.256540	2.272012	-0.005219	0.035013	-0.016886	-0.830566	-0.398193	-0.463623	0.685073	0.283487	-0.555977	0.375766
13328		9.639266	-0.242584	2.235142	-0.017925	0.063926	-0.014555	-0.829102	-0.397705	-0.470215	0.685408	0.283309	-0.555650	0.375773
13329		9.487597	-0.198498	2.053054	-0.029928	0.067452	-0.017771	-0.829346	-0.397461	-0.469238	0.685849	0.283009	-0.555311	0.375696
13330		9.413516	-0.233918	1.878461	-0.031038	0.022545	-0.027894	-0.830566	-0.400635	-0.465332	0.686094	0.282905	-0.555222	0.375456
13331		9.489723	-0.267781	1.972640	-0.034550	-0.023267	-0.030564	-0.832520	-0.395020	-0.472900	0.686104	0.283008	-0.555407	0.375087
13332		9.597398	-0.279688	2.183231	-0.034829	-0.026195	-0.035298	-0.827393	-0.405762	-0.472900	0.686165	0.283008	-0.555615	0.374669
13333		9.580706	-0.247992	2.165757	-0.034565	0.016037	-0.040261	-0.822510	-0.405762	-0.471924	0.686471	0.283012	-0.555483	0.374300
13334		9.515984	-0.202754	2.168633	-0.034983	-0.005589	-0.040618	-0.826172	-0.402344	-0.473877	0.686687	0.283093	-0.555462	0.373874
13335		9.449153	-0.214974	2.143153	-0.043255	-0.028669	-0.036153	-0.828613	-0.398682	-0.469971	0.686793	0.283121	-0.555643	0.373387
13336		9.461308	-0.220049	2.216032	-0.052805	-0.047384	-0.032061	-0.833496	-0.389160	-0.470703	0.686778	0.283125	-0.556018	0.372854
13337		9.529651	-0.258321	2.268047	-0.062892	-0.047735	-0.027723	-0.829590	-0.398682	-0.478760	0.686750	0.282943	-0.556507	0.372313
13338		9.612755	-0.258037	2.331997	-0.076194	-0.027458	-0.021304	-0.836670	-0.390381	-0.475098	0.686920	0.282624	-0.556833	0.371754
13339		9.678579	-0.244024	2.428322	-0.087556	0.003917	-0.022637	-0.825928	-0.403564	-0.468506	0.687197	0.282101	-0.557098	0.371243
13340		9.663406	-0.159796	2.440322	-0.082623	0.038792	-0.026390	-0.831055	-0.395020	-0.468750	0.687639	0.281717	-0.557041	0.370801
13341		9.556551	-0.154553	2.341869	-0.079178	0.077852	-0.032883	-0.838867	-0.399170	-0.468262	0.688236	0.281184	-0.556805	0.370452
13342		9.398032	-0.296798	2.329078	-0.058571	0.055315	-0.036356	-0.827637	-0.388184	-0.468506	0.688643	0.280909	-0.556649	0.370139
13343		9.328401	-0.416989	2.112244	-0.044644	0.059736	-0.025819	-0.828369	-0.395264	-0.477051	0.689037	0.280554	-0.556460	0.369958
13344		9.290363	-0.500490	1.830757	-0.027656	0.024454	-0.011502	-0.819824	-0.395020	-0.477539	0.689241	0.280346	-0.556398	0.369829
13345		9.441439	-0.409183	2.057399	-0.009461	-0.063717	-0.003039	-0.826416	-0.399658	-0.467529	0.689003	0.280478	-0.556770	0.369614
13346		9.602228	-0.138023	2.373597	-0.004695	-0.029055	0.006735	-0.830078	-0.401123	-0.480469	0.688787	0.280608	-0.556982	0.369597
13347		9.572416	-0.025344	2.292981	-0.018210	0.058490	0.008747	-0.827881	-0.398438	-0.465820	0.689094	0.280281	-0.556703	0.369693
13348		9.458373	-0.163003	1.888485	-0.033430	0.030621	0.004649	-0.830811	-0.402100	-0.478027	0.689209	0.280079	-0.556674	0.369678
13349		9.522322	-0.408130	1.926671	-0.016695	-0.063378	-0.011645	-0.831543	-0.398926	-0.479980	0.688975	0.280278	-0.557052	0.369391
13350		9.645489	-0.478567	2.251767	0.002287	-0.044190	-0.016947	-0.825195	-0.392578	-0.475098	0.688820	0.280497	-0.557261	0.369199
13351		9.675790	-0.419669	2.298832	0.024661	0.019326	-0.010496	-0.822021	-0.398193	-0.474854	0.688881	0.280589	-0.557072	0.369303
13352		9.592977	-0.210293	2.128030	0.023355	0.044047	0.003820	-0.830811	-0.399902	-0.484619	0.689026	0.280589	-0.556735	0.369538
13353		9.496656	-0.055124	1.988275	0.004988	-0.010551	0.006727	-0.829834	-0.396729	-0.477783	0.688983	0.280575	-0.556780	0.369561
13354		9.536220	-0.055074	2.103475	-0.015893	-0.049461	0.004886	-0.832520	-0.393799	-0.478027	0.688769	0.280592	-0.557142	0.369402
13355		9.615984	-0.208101	2.251242	-0.020983	-0.018925	-0.001438	-0.826172	-0.400635	-0.482178	0.688724	0.280482	-0.557351	0.369254
13356		9.640778	-0.425204	2.301258	-0.009867	0.027573	-0.000078	-0.824707	-0.396240	-0.477051	0.688925	0.280325	-0.557183	0.369252
13357		9.535872	-0.433316	2.243466	0.002793	0.040030	-0.006504	-0.826660	-0.391357	-0.478271	0.689136	0.280235	-0.556924	0.369318
13358		9.453399	-0.306975	2.199393	0.010250	0.036960	-0.009724	-0.820312	-0.400146	-0.475098	0.689316	0.280160	-0.556685	0.369399
13359		9.366527	-0.270112	2.074760	-0.000381	0.009542	-0.010543	-0.832031	-0.407959	-0.480713	0.689400	0.280223	-0.556575	0.369359
13360		9.407070	-0.298587	2.126769	0.007306	-0.029738	-0.003536	-0.824951	-0.403809	-0.475098	0.689260	0.280439	-0.556681	0.369298
13361		9.619354	-0.349719	2.315417	0.017814	-0.037031	0.008177	-0.827881	-0.403564	-0.465820	0.689014	0.280687	-0.556830	0.369344
13362		9.671343	-0.333073	2.410052	0.014516	0.020525	0.028612	-0.824707	-0.401611	-0.473145	0.688912	0.280702	-0.556745	0.369653
13363		9.601296	-0.229501	2.349961	0.026797	0.037388	0.037048	-0.834717	-0.390137	-0.475830	0.688892	0.280629	-0.556516	0.370088
13364		9.430071	-0.177069	2.205335	0.030389	0.028954	0.023665	-0.833252	-0.397705	-0.480469	0.688842	0.280535	-0.556388	0.370446
13365		9.262569	-0.200353	2.107920	0.033328	0.004475	-0.007717	-0.823730	-0.396729	-0.482178	0.688806	0.280721	-0.556256	0.370569
13366		9.345991	-0.182071	2.057491	0.033108	-0.010811	-0.022496	-0.828125	-0.407715	-0.475342	0.688791	0.281003	-0.556140	0.370557
13367		9.547890	-0.207872	2.187429	0.027170	-0.024749	-0.024984	-0.818115	-0.392578	-0.480225	0.688680	0.281442	-0.556102	0.370487
13368		9.690043	-0.158608	2.296085	0.009078	-0.011269	-0.007474	-0.824951	-0.398926	-0.475342	0.688683	0.281482	-0.556105	0.370448
13369		9.680143	-0.185894	2.288686	-0.002349	0.008899	0.017557	-0.827881	-0.396484	-0.466797	0.688676	0.281363	-0.556097	0.370562
13370		9.452993	-0.236650	2.121221	-0.005519	-0.000794	0.026619	-0.828857	-0.397949	-0.475342	0.688536	0.281253	-0.556224	0.370715
13371		9.326863	-0.299274	1.916822	0.007263	-0.031053	0.017094	-0.825928	-0.402588	-0.472656	0.688310	0.281310	-0.556432	0.370780
13372		9.423891	-0.242529	2.101506	0.029151	-0.066510	-0.000832	-0.830811	-0.406250	-0.471191	0.687923	0.281745	-0.556702	0.370763
13373		9.632744	-0.204684	2.329109	0.026124	-0.054762	-0.009597	-0.824463	-0.410889	-0.471924	0.687608	0.282195	-0.556897	0.370711
13374		9.683757	-0.205838	2.386737	0.005832	0.015015	-0.004694	-0.837402	-0.408691	-0.471924	0.687686	0.282322	-0.556711	0.370751
13375		9.551362	-0.178599	2.231646	-0.007729	0.024783	0.006687	-0.827148	-0.401123	-0.466553	0.687760	0.282254	-0.556606	0.370823
13376		9.407115	-0.235758	2.040864	-0.007070	-0.025370	0.006240	-0.826904	-0.399170	-0.466064	0.687598	0.282326	-0.556796	0.370782
13377		9.406777	-0.305599	2.053102	-0.001183	-0.065705	0.001857	-0.830566	-0.398193	-0.471680	0.687249	0.282561	-0.557197	0.370646
13378		9.558053	-0.407002	2.271521	0.003296	-0.064631	-0.000475	-0.827881	-0.403076	-0.471924	0.686931	0.282776	-0.557570	0.370511
13379		9.726553	-0.224983	2.312181	-0.002566	-0.016726	0.010100	-0.827393	-0.397705	-0.464355	0.686834	0.282800	-0.557670	0.370523
13380		9.664656	-0.084090	2.284898	-0.008289	0.005914	0.018038	-0.834961	-0.403076	-0.468994	0.686790	0.282683	-0.557722	0.370615
13381		9.529256	-0.074483	2.186357	-0.021297	0.005317	0.017882	-0.826416	-0.404541	-0.473633	0.686778	0.282509	-0.557806	0.370643
13382		9.441116	-0.224219	2.075071	-0.023207	-0.008316	0.009858	-0.825684	-0.394531	-0.471191	0.686786	0.282403	-0.557895	0.370577
13383		9.377720	-0.316654	1.961086	-0.012750	-0.034102	-0.003433	-0.835205	-0.393799	-0.470947	0.686677	0.282426	-0.558122	0.370418
13384		9.524849	-0.438472	2.085147	0.001756	-0.056659	-0.008106	-0.823486	-0.393066	-0.470215	0.686416	0.282607	-0.558465	0.370249
13385		9.709064	-0.421637	2.242192	0.003915	-0.030642	0.000524	-0.831787	-0.400879	-0.467773	0.686281	0.282685	-0.558625	0.370196
13386		9.714991	-0.332084	2.318874	0.003737	0.017401	0.005944	-0.828369	-0.398193	-0.470459	0.686318	0.282661	-0.558524	0.370298
13387		9.565176	-0.201982	2.223306	0.003897	0.034216	0.011988	-0.832275	-0.397705	-0.473633	0.686438	0.282523	-0.558333	0.370470
13388		9.408086	-0.207928	2.041308	-0.000413	0.007825	0.011631	-0.827637	-0.395020	-0.479980	0.686450	0.282420	-0.558315	0.370554
13389		9.397964	-0.359856	2.011346	0.007048	-0.045824	0.012485	-0.830811	-0.394531	-0.468506	0.686240	0.282468	-0.558558	0.370538
13390		9.563022	-0.387582	2.171407	0.015273	-0.044402	0.014043	-0.836182	-0.397705	-0.469727	0.685942	0.282611	-0.558816	0.370592
13391		9.769582	-0.311038	2.425652	0.011009	0.000602	0.022662	-0.831543	-0.399658	-0.468750	0.685834	0.282562	-0.558848	0.370781
13392		9.712078	-0.128522	2.537024	0.002136	0.067918	0.030756	-0.830078	-0.393555	-0.473633	0.686046	0.282244	-0.558515	0.371134
13393		9.446405	-0.143627	2.240722	-0.006650	0.104674	0.018045	-0.827393	-0.399414	-0.469482	0.686512	0.281753	-0.557978	0.371453
13394		9.161603	-0.304680	1.742921	0.007972	0.050089	0.001371	-0.833984	-0.404053	-0.473877	0.686718	0.281677	-0.557648	0.371624
13395		9.291353	-0.453988	1.816472	0.030945	-0.085598	-0.005725	-0.833984	-0.391846	-0.471436	0.686263	0.282193	-0.558004	0.371539
13396		9.718353	-0.436978	2.346639	0.030026	-0.092077	0.009182	-0.836182	-0.404053	-0.461670	0.685725	0.282560	-0.558492	0.371521
13397		9.888508	-0.281581	2.479509	0.009939	0.051074	0.028579	-0.824219	-0.395508	-0.469971	0.685794	0.282422	-0.558244	0.371871
13398		9.698183	-0.175005	2.161451	0.005496	0.104916	0.032149	-0.829590	-0.398193	-0.463379	0.686187	0.281975	-0.557679	0.372332
13399		9.438760	-0.134406	1.949643	0.007234	0.038147	0.018006	-0.827393	-0.403809	-0.478271	0.686250	0.281876	-0.557488	0.372577
13400		9.402368	-0.257003	2.091305	0.008541	-0.021793	0.006851	-0.837646	-0.386719	-0.468994	0.686151	0.281989	-0.557537	0.372603
13401		9.501280	-0.309369	2.203220	0.005792	-0.001419	0.003526	-0.831543	-0.397217	-0.467285	0.686081	0.281942	-0.557610	0.372656
13402		9.554897	-0.294184	2.069746	0.001432	0.032422	0.006716	-0.833496	-0.399170	-0.478271	0.686182	0.281849	-0.557443	0.372790
13403		9.548546	-0.296522	2.023724	-0.004229	-0.004712	0.009539	-0.828369	-0.398438	-0.471436	0.686165	0.281782	-0.557484	0.372812
13404		9.574480	-0.224850	2.195169	-0.010637	-0.019414	0.003855	-0.833496	-0.401611	-0.471680	0.686091	0.281787	-0.557617	0.372744
13405		9.519831	-0.182675	2.231722	-0.023495	0.015794	0.001413	-0.829834	-0.397949	-0.471924	0.686208	0.281639	-0.557587	0.372686
13406		9.522965	-0.233949	2.118283	-0.027137	0.006207	-0.011740	-0.832275	-0.399658	-0.470215	0.686338	0.281538	-0.557594	0.372512
13407		9.525912	-0.335130	2.194166	-0.010466	-0.023605	-0.014993	-0.828369	-0.393066	-0.467773	0.686285	0.281661	-0.557719	0.372330
13408		9.519391	-0.415026	2.207450	0.003353	-0.008197	-0.017346	-0.824951	-0.385010	-0.463135	0.686275	0.281789	-0.557729	0.372237
13409		9.471304	-0.452791	2.125192	0.011311	0.008824	-0.011396	-0.829834	-0.394043	-0.474609	0.686292	0.281845	-0.557665	0.372258
13410		9.464796	-0.374634	2.087382	0.012062	-0.029202	0.002147	-0.826416	-0.398438	-0.468018	0.686135	0.281963	-0.557798	0.372258
13411		9.532351	-0.304704	2.144104	-0.000360	-0.033889	0.017189	-0.833252	-0.398682	-0.474121	0.685919	0.282025	-0.558015	0.372285
13412		9.588944	-0.339447	2.119926	0.000638	-0.024551	0.016402	-0.834961	-0.392334	-0.471191	0.685762	0.282028	-0.558179	0.372327
13413		9.581288	-0.458548	2.142383	0.006683	-0.015041	0.013437	-0.832275	-0.397949	-0.465088	0.685625	0.282017	-0.558300	0.372405
13414		9.577505	-0.462014	2.154664	0.020034	-0.006511	0.008752	-0.831299	-0.402344	-0.470215	0.685491	0.282155	-0.558300	0.372547
13415		9.538066	-0.426372	2.255713	0.038370	-0.008998	0.012351	-0.825928	-0.401123	-0.474854	0.685322	0.282393	-0.558230	0.372782
13416		9.534313	-0.270387	2.217245	0.038073	0.005765	0.019879	-0.839844	-0.396484	-0.472412	0.685239	0.282516	-0.558067	0.373087
13417		9.541236	-0.190317	2.202459	0.028716	0.008072	0.023538	-0.828369	-0.398438	-0.470947	0.685127	0.282527	-0.558003	0.373380
13418		9.612817	-0.108886	2.268068	0.016825	-0.000854	0.026154	-0.826904	-0.409424	-0.467773	0.685017	0.282517	-0.557988	0.373610
13419		9.628227	-0.108046	2.352679	0.002421	0.026809	0.021206	-0.830322	-0.390381	-0.467773	0.685080	0.282460	-0.557805	0.373812
13420		9.622474	-0.179012	2.316799	-0.006457	0.055820	0.015705	-0.828613	-0.401367	-0.469482	0.685297	0.282150	-0.557560	0.374013
13421		9.593911	-0.258797	2.290540	-0.009566	0.055398	0.008781	-0.827637	-0.399902	-0.468506	0.685554	0.281934	-0.557258	0.374156
13422		9.597888	-0.301533	2.263907	-0.003881	0.055035	0.005142	-0.826172	-0.396973	-0.475830	0.685799	0.281767	-0.556940	0.374306
13423		9.560382	-0.348450	2.194977	-0.000500	0.075392	0.002960	-0.827881	-0.395996	-0.470703	0.686169	0.281516	-0.556479	0.374503
13424		9.518605	-0.397269	2.141082	-0.001931	0.070512	0.002760	-0.831543	-0.392822	-0.465088	0.686485	0.281292	-0.556079	0.374685
13425		9.468227	-0.349456	2.098725	-0.011068	0.067730	0.006529	-0.826416	-0.397949	-0.471680	0.686756	0.281012	-0.555778	0.374845
13426		9.453828	-0.333971	2.122718	-0.024345	0.055228	0.004183	-0.825439	-0.397949	-0.471436	0.687046	0.280722	-0.555531	0.374897
13427		9.451932	-0.299881	2.058558	-0.034398	0.044815	0.002421	-0.825195	-0.394775	-0.475098	0.687314	0.280422	-0.555371	0.374868
13428		9.492409	-0.338957	2.024611	-0.034006	0.028989	0.002063	-0.819580	-0.395264	-0.468750	0.687520	0.280140	-0.555304	0.374799
13429		9.485939	-0.488429	2.048835	-0.012571	0.008249	-0.008212	-0.826660	-0.402832	-0.471191	0.687594	0.280137	-0.555263	0.374728
13430		9.478592	-0.582035	2.110609	-0.002065	0.008921	-0.007721	-0.820068	-0.401855	-0.481689	0.687639	0.280226	-0.555174	0.374710
13431		9.442922	-0.549304	2.043978	0.007335	0.004681	-0.001020	-0.822510	-0.391357	-0.472900	0.687682	0.280301	-0.555049	0.374759
13432		9.458590	-0.397056	2.056399	0.015318	-0.013026	0.006501	-0.825439	-0.386963	-0.472168	0.687556	0.280402	-0.555097	0.374846
13433		9.517286	-0.330885	2.142245	0.022143	-0.039390	0.009250	-0.834229	-0.398926	-0.475830	0.687273	0.280579	-0.555310	0.374915
13434		9.562512	-0.305735	2.278078	0.012346	-0.028812	0.007056	-0.830078	-0.397705	-0.467529	0.687070	0.280735	-0.555457	0.374955
13435		9.543114	-0.270110	2.289436	0.002016	-0.016463	0.001568	-0.830078	-0.391357	-0.473633	0.686941	0.280850	-0.555562	0.374949
13436		9.494791	-0.255545	2.242946	-0.007315	-0.020427	-0.005711	-0.834229	-0.393066	-0.470703	0.686867	0.280882	-0.555711	0.374840
13437		9.509026	-0.259813	2.241325	-0.000435	-0.038365	-0.015789	-0.831543	-0.397705	-0.478516	0.686704	0.281077	-0.555931	0.374666
13438		9.553263	-0.319293	2.285201	-0.001089	-0.034494	-0.017593	-0.830566	-0.401611	-0.471436	0.686609	0.281262	-0.556075	0.374486
13439		9.581460	-0.317213	2.304451	-0.001509	-0.019097	-0.015658	-0.830566	-0.396729	-0.479980	0.686555	0.281444	-0.556135	0.374359
13440		9.570816	-0.286921	2.333885	-0.007692	-0.011324	-0.014682	-0.823486	-0.401367	-0.467529	0.686587	0.281487	-0.556170	0.374218
13441		9.517752	-0.272984	2.303573	-0.011118	0.002592	-0.012507	-0.828369	-0.391846	-0.477539	0.686647	0.281549	-0.556130	0.374119
13442		9.457110	-0.282016	2.190617	-0.012834	-0.004730	-0.019002	-0.825928	-0.386719	-0.472900	0.686729	0.281538	-0.556153	0.373943
13443		9.449422	-0.282723	2.216110	-0.008874	-0.023320	-0.032036	-0.833984	-0.396484	-0.467285	0.686741	0.281653	-0.556266	0.373667
13444		9.526861	-0.269756	2.252507	-0.006201	-0.018445	-0.026095	-0.831543	-0.388916	-0.477539	0.686709	0.281823	-0.556358	0.373459
13445		9.570312	-0.351201	2.326971	-0.000192	-0.009795	-0.025894	-0.829590	-0.399902	-0.478027	0.686754	0.281901	-0.556380	0.373286
13446		9.512824	-0.361025	2.338150	0.003708	0.005017	-0.019917	-0.826660	-0.396729	-0.467285	0.686847	0.282000	-0.556267	0.373207
13447		9.389037	-0.306993	2.263377	-0.003748	0.002435	-0.017379	-0.834717	-0.401123	-0.475586	0.686897	0.282081	-0.556229	0.373111
13448		9.371205	-0.252578	2.155622	-0.003940	-0.029505	-0.019902	-0.831787	-0.394287	-0.478027	0.686824	0.282255	-0.556359	0.372920
13449		9.501139	-0.221608	2.285052	-0.012536	-0.046446	-0.022825	-0.829102	-0.402100	-0.480225	0.686720	0.282388	-0.556617	0.372625
13450		9.583598	-0.267043	2.404590	-0.027148	-0.017998	-0.021549	-0.825195	-0.400635	-0.471191	0.686798	0.282386	-0.556714	0.372338
13451		9.522517	-0.323144	2.345841	-0.024294	0.013582	-0.015316	-0.821289	-0.398926	-0.476318	0.686967	0.282306	-0.556651	0.372183
13452		9.411790	-0.342662	2.218635	-0.023729	0.008013	-0.007194	-0.823242	-0.402588	-0.473389	0.687111	0.282179	-0.556621	0.372058
13453		9.423715	-0.346973	2.157655	-0.016835	-0.030150	-0.004291	-0.829102	-0.404541	-0.471924	0.687035	0.282233	-0.556794	0.371898
13454		9.518986	-0.271123	2.100259	-0.019650	-0.027673	-0.006480	-0.826416	-0.390381	-0.472656	0.686966	0.282286	-0.556971	0.371719
13455		9.620578	-0.188864	1.953619	-0.015611	-0.021678	-0.011341	-0.835938	-0.399170	-0.471436	0.686939	0.282272	-0.557132	0.371539
13456		9.746589	-0.227006	2.041104	-0.006383	-0.038890	-0.015532	-0.828125	-0.405273	-0.464600	0.686800	0.282436	-0.557353	0.371341
13457		9.781986	-0.295670	2.252705	-0.005036	-0.004120	-0.020670	-0.822510	-0.403809	-0.468018	0.686827	0.282597	-0.557325	0.371209
13458		9.656646	-0.318583	2.107224	-0.020846	0.049314	-0.018453	-0.833984	-0.400879	-0.464111	0.687159	0.282470	-0.557027	0.371138
13459		9.439232	-0.301621	1.941853	-0.031118	0.009001	-0.021310	-0.829102	-0.406738	-0.472168	0.687292	0.282410	-0.557046	0.370910
13460		9.452347	-0.173980	2.054359	-0.037358	-0.058360	-0.024473	-0.835205	-0.395996	-0.469238	0.687178	0.282548	-0.557407	0.370474
13461		9.561667	-0.189873	2.259822	-0.051071	-0.050279	-0.022599	-0.830811	-0.404541	-0.466553	0.687106	0.282505	-0.557834	0.369998
13462		9.547729	-0.275442	2.298736	-0.059742	-0.001386	-0.021211	-0.827637	-0.396973	-0.472412	0.687278	0.282326	-0.557968	0.369612
13463		9.476180	-0.246384	2.235512	-0.058428	-0.000107	-0.020205	-0.824463	-0.405518	-0.479980	0.687478	0.282079	-0.558097	0.369234
13464		9.432172	-0.217260	2.194286	-0.054264	-0.019799	-0.026209	-0.830078	-0.394775	-0.470703	0.687629	0.281975	-0.558252	0.368796
13465		9.402755	-0.276031	2.279941	-0.041488	-0.021227	-0.033970	-0.822021	-0.399170	-0.464600	0.687719	0.281947	-0.558439	0.368368
13466		9.501136	-0.340594	2.216969	-0.036369	-0.012642	-0.033104	-0.829834	-0.403076	-0.479248	0.687826	0.281977	-0.558535	0.367998
13467		9.603054	-0.386743	2.251569	-0.040788	-0.015140	-0.010216	-0.819580	-0.407227	-0.468262	0.687903	0.281842	-0.558690	0.367724
13468		9.603162	-0.346500	2.333232	-0.039142	-0.012912	0.005893	-0.833008	-0.407715	-0.470215	0.687915	0.281715	-0.558842	0.367568
13469		9.500624	-0.264205	2.225261	-0.031915	0.020683	0.006854	-0.827393	-0.389893	-0.472900	0.688043	0.281506	-0.558816	0.367526
13470		9.394863	-0.289094	1.990573	-0.015727	-0.003007	-0.006240	-0.832275	-0.399170	-0.481934	0.688083	0.281408	-0.558888	0.367418
13471		9.370432	-0.312119	2.052667	-0.001717	-0.042185	-0.023521	-0.825684	-0.392822	-0.468262	0.687983	0.281613	-0.559060	0.367185
13472		9.535323	-0.287923	2.159720	0.001502	-0.033970	-0.023794	-0.830078	-0.405273	-0.476562	0.687880	0.281825	-0.559209	0.366989
13473		9.659051	-0.211231	2.188817	-0.007105	-0.014005	-0.008347	-0.830322	-0.401855	-0.483643	0.687867	0.281895	-0.559255	0.366890
13474		9.681217	-0.112764	2.209154	-0.003434	-0.019619	0.008275	-0.829102	-0.399414	-0.480957	0.687794	0.281877	-0.559357	0.366885
13475		9.585251	-0.176926	2.152130	-0.005484	-0.016882	0.017329	-0.830078	-0.400635	-0.469971	0.687705	0.281793	-0.559480	0.366928
13476		9.456500	-0.377481	2.048131	0.005733	-0.006923	0.014666	-0.827393	-0.389893	-0.479980	0.687603	0.281803	-0.559530	0.367037
13477		9.396307	-0.401246	1.978718	0.020621	-0.014010	-0.000510	-0.826416	-0.392822	-0.469238	0.687520	0.281893	-0.559542	0.367105
13478		9.510920	-0.300296	2.101515	0.033428	-0.043254	-0.001587	-0.830566	-0.396729	-0.470459	0.687237	0.282207	-0.559692	0.367163
13479		9.620067	-0.200060	2.173568	0.032137	-0.043564	0.006058	-0.829102	-0.403076	-0.467529	0.686934	0.282490	-0.559860	0.367258
13480		9.670594	-0.209449	2.073308	0.019300	-0.019851	0.018263	-0.829102	-0.403564	-0.462891	0.686731	0.282615	-0.559938	0.367421
13481		9.582119	-0.327389	2.023567	0.014933	-0.038062	0.018424	-0.832520	-0.392334	-0.462891	0.686439	0.282788	-0.560142	0.367524
13482		9.576026	-0.257251	2.120706	0.018809	-0.030494	0.004840	-0.826660	-0.397705	-0.472168	0.686208	0.282954	-0.560303	0.367583
13483		9.555353	-0.255493	2.143567	0.014131	0.003054	-0.005987	-0.834717	-0.397217	-0.465088	0.686227	0.283041	-0.560203	0.367631
13484		9.525574	-0.375181	2.036869	0.011321	-0.012397	-0.007129	-0.831787	-0.402100	-0.457275	0.686142	0.283179	-0.560238	0.367629
13485		9.532870	-0.439275	2.023803	0.013465	-0.040575	0.006294	-0.838867	-0.404541	-0.461426	0.685858	0.283412	-0.560451	0.367655
13486		9.554682	-0.288355	2.080190	0.007989	-0.033828	0.023322	-0.834473	-0.390137	-0.467041	0.685572	0.283502	-0.560683	0.367766
13487		9.606912	-0.172371	2.156414	0.007629	-0.025173	0.031829	-0.836670	-0.395020	-0.464355	0.685331	0.283423	-0.560908	0.367934
13488		9.596847	-0.113760	2.177995	-0.001405	0.009404	0.015416	-0.828125	-0.392578	-0.471680	0.685312	0.283301	-0.560915	0.368052
13489		9.461441	-0.179088	2.070431	-0.003945	0.031545	-0.003535	-0.839844	-0.403076	-0.466064	0.685504	0.283153	-0.560727	0.368093
13490		9.412650	-0.305818	1.960028	0.001734	-0.006671	-0.022501	-0.839111	-0.394775	-0.457520	0.685518	0.283317	-0.560706	0.367973
13491		9.446442	-0.401827	1.980255	0.011563	-0.037915	-0.021788	-0.833252	-0.393555	-0.463623	0.685328	0.283613	-0.560879	0.367837
13492		9.527090	-0.498366	1.933477	0.022762	-0.046176	-0.010048	-0.834717	-0.410645	-0.468262	0.685075	0.283913	-0.561067	0.367791
13493		9.578299	-0.471567	1.821685	0.019914	-0.042508	0.008315	-0.837891	-0.392090	-0.461426	0.684810	0.284173	-0.561224	0.367844
13494		9.635077	-0.278208	2.029867	0.025382	-0.073464	0.018421	-0.828613	-0.395752	-0.467041	0.684324	0.284427	-0.561644	0.367910
13495		9.719042	-0.039249	2.207368	0.024738	-0.035618	0.024921	-0.835938	-0.405273	-0.460693	0.684042	0.284535	-0.561815	0.368090
13496		9.617617	0.013042	2.262779	0.015584	0.010572	0.021805	-0.836426	-0.399902	-0.466553	0.683975	0.284534	-0.561740	0.368328
13497		9.496415	-0.179151	2.058997	0.012625	-0.009934	0.014384	-0.834961	-0.389893	-0.457275	0.683862	0.284563	-0.561781	0.368454
13498		9.475599	-0.286666	1.938325	0.006468	-0.051375	0.010562	-0.831055	-0.405029	-0.465576	0.683548	0.284682	-0.562111	0.368443
13499		9.580558	-0.341060	2.102502	0.004505	-0.073932	0.000966	-0.824219	-0.400635	-0.462158	0.683209	0.284957	-0.562477	0.368299
13500		9.740629	-0.248732	2.308909	0.009424	-0.012662	0.003518	-0.831787	-0.394287	-0.459717	0.683142	0.285051	-0.562484	0.368339
13501		9.744361	-0.123057	2.319244	0.005525	0.060781	0.001096	-0.838379	-0.396973	-0.461426	0.683411	0.284876	-0.562122	0.368530
13502		9.567777	-0.119239	2.081291	-0.001728	0.068692	-0.001193	-0.831543	-0.391846	-0.460449	0.683731	0.284652	-0.561739	0.368694
13503		9.477178	-0.256606	1.763419	-0.003415	0.017128	0.003079	-0.836426	-0.403076	-0.466553	0.683804	0.284542	-0.561668	0.368752
13504		9.616138	-0.420217	1.926932	0.006522	-0.055628	0.016955	-0.837402	-0.404053	-0.455322	0.683486	0.284681	-0.561983	0.368754
13505		9.782964	-0.401513	2.263819	0.013182	-0.018528	0.033534	-0.840332	-0.395508	-0.469727	0.683236	0.284711	-0.562122	0.368983
13506		9.696051	-0.307671	2.262308	0.013005	0.095573	0.038338	-0.832031	-0.404053	-0.467041	0.683551	0.284266	-0.561626	0.369495
13507		9.437684	-0.197239	1.794785	0.003011	0.119293	0.015519	-0.835693	-0.387695	-0.465820	0.684076	0.283865	-0.560934	0.369883
13508		9.356602	-0.228238	1.730828	0.004176	0.005185	-0.011117	-0.831787	-0.396484	-0.467041	0.684120	0.283872	-0.560886	0.369870
13509		9.625492	-0.341984	2.141090	0.000161	-0.026976	-0.021701	-0.830566	-0.403809	-0.465332	0.684071	0.284046	-0.560975	0.369691
13510		9.787722	-0.362876	2.478762	-0.008324	0.055799	-0.007908	-0.833008	-0.398193	-0.453369	0.684388	0.283894	-0.560631	0.369742
13511		9.630798	-0.387788	2.321830	-0.016126	0.120489	0.003842	-0.836426	-0.396240	-0.465576	0.684933	0.283460	-0.560013	0.370003
13512		9.335681	-0.375835	1.979238	-0.017856	0.088347	0.014186	-0.838135	-0.399170	-0.470703	0.685329	0.283016	-0.559604	0.370229
13513		9.220105	-0.436730	1.942853	-0.016255	-0.008662	0.011986	-0.826172	-0.400879	-0.474609	0.685285	0.282891	-0.559730	0.370215
13514		9.388703	-0.375169	2.122093	-0.013109	-0.031456	0.017670	-0.832520	-0.394775	-0.466797	0.685150	0.282832	-0.559949	0.370179
13515		9.590434	-0.267216	2.319918	-0.015059	0.008008	0.021446	-0.834473	-0.396729	-0.472168	0.685149	0.282617	-0.560000	0.370268
13516		9.630800	-0.219036	2.313172	-0.012252	0.039073	0.017580	-0.833984	-0.402344	-0.462891	0.685315	0.282332	-0.559844	0.370414
13517		9.501415	-0.221252	2.082611	-0.021033	0.049335	0.007023	-0.830566	-0.395996	-0.465820	0.685550	0.282079	-0.559632	0.370491
13518		9.389108	-0.259815	1.847833	-0.018532	0.007519	-0.003723	-0.838623	-0.398438	-0.466553	0.685628	0.281985	-0.559631	0.370421
13519		9.451553	-0.267168	1.845109	-0.018539	-0.056350	-0.006741	-0.830078	-0.398926	-0.465088	0.685404	0.282107	-0.560000	0.370185
13520		9.690440	-0.288170	2.054795	-0.018848	-0.064797	-0.000386	-0.832031	-0.388428	-0.466064	0.685138	0.282234	-0.560412	0.369958
13521		9.689205	-0.351833	2.160304	-0.017886	-0.019852	0.010222	-0.827637	-0.397705	-0.468750	0.685044	0.282120	-0.560617	0.369907
13522		9.590708	-0.331874	1.980520	-0.006084	0.011924	0.010500	-0.831055	-0.392578	-0.471924	0.685094	0.282014	-0.560565	0.369974
13523		9.488723	-0.295223	1.924825	0.006153	-0.032257	0.002418	-0.838867	-0.393555	-0.467041	0.684935	0.282115	-0.560724	0.369951
13524		9.565147	-0.242296	2.209664	0.011044	-0.065405	0.002217	-0.825928	-0.391113	-0.465820	0.684580	0.282364	-0.561079	0.369881
13525		9.660159	-0.230416	2.324540	0.005091	-0.015460	0.002765	-0.833740	-0.396240	-0.461182	0.684495	0.282418	-0.561145	0.369896
13526		9.656741	-0.263874	2.272569	-0.004815	0.023618	0.004284	-0.830078	-0.398926	-0.475342	0.684583	0.282325	-0.561032	0.369975
13527		9.580068	-0.309624	2.309401	-0.007553	0.028828	0.004471	-0.835205	-0.393066	-0.461914	0.684759	0.282164	-0.560863	0.370028
13528		9.551963	-0.315751	2.429177	-0.000306	0.032710	0.006606	-0.843018	-0.388428	-0.462402	0.684867	0.282042	-0.560701	0.370167
13529		9.457908	-0.340750	2.359548	0.004215	0.058727	-0.000775	-0.838379	-0.390869	-0.471436	0.685090	0.281875	-0.560386	0.370358
13530		9.347496	-0.457238	2.177821	0.016709	0.039766	0.000322	-0.831787	-0.396729	-0.470703	0.685230	0.281817	-0.560116	0.370551
13531		9.279990	-0.527645	2.119144	0.032336	-0.001554	0.005521	-0.829102	-0.395996	-0.458984	0.685137	0.281986	-0.560020	0.370742
13532		9.418460	-0.480514	2.105026	0.032132	-0.005833	0.021326	-0.833984	-0.391602	-0.477539	0.684938	0.282132	-0.559998	0.371030
13533		9.591596	-0.358911	2.236399	0.028135	-0.006183	0.026861	-0.838623	-0.391602	-0.468506	0.684785	0.282140	-0.559997	0.371308
13534		9.699196	-0.257698	2.178436	0.012853	0.027069	0.023391	-0.834229	-0.390869	-0.473389	0.684795	0.282004	-0.559866	0.371591
13535		9.587327	-0.310493	1.990047	0.000538	0.049003	0.011185	-0.836182	-0.391357	-0.467041	0.684997	0.281771	-0.559605	0.371787
13536		9.543617	-0.411086	1.765608	0.006210	0.010298	0.009727	-0.833008	-0.393555	-0.465332	0.684982	0.281724	-0.559557	0.371924
13537		9.604527	-0.389375	1.831964	0.018988	-0.028099	0.011233	-0.826416	-0.391113	-0.460205	0.684753	0.281880	-0.559683	0.372036
13538		9.721305	-0.334083	1.934501	0.019433	0.000102	0.009292	-0.826904	-0.397705	-0.469482	0.684658	0.281970	-0.559641	0.372208
13539		9.697695	-0.243394	1.929543	0.019223	0.027946	0.011960	-0.829346	-0.395996	-0.465820	0.684721	0.281953	-0.559420	0.372437
13540		9.620181	-0.158706	1.786100	0.016872	0.020682	0.008460	-0.830078	-0.400391	-0.462891	0.684746	0.281968	-0.559254	0.372628
13541		9.577468	-0.221732	1.779765	0.014380	-0.012473	0.001419	-0.832031	-0.394775	-0.467041	0.684635	0.282134	-0.559266	0.372689
13542		9.572768	-0.351796	1.908726	0.008756	-0.023696	-0.008167	-0.818848	-0.390137	-0.463135	0.684523	0.282304	-0.559348	0.372642
13543		9.599730	-0.408911	1.965251	0.001394	-0.019333	-0.009669	-0.826172	-0.399170	-0.461426	0.684465	0.282423	-0.559413	0.372561
13544		9.547961	-0.384016	1.950320	-0.004194	-0.023429	-0.011476	-0.837158	-0.396484	-0.469971	0.684392	0.282573	-0.559512	0.372434
13545		9.545247	-0.318967	2.015926	0.008534	-0.041379	-0.011098	-0.832764	-0.394531	-0.468262	0.684212	0.282800	-0.559691	0.372323
13546		9.559077	-0.386117	2.187353	0.003890	-0.036972	-0.010496	-0.828613	-0.384033	-0.465820	0.684066	0.282979	-0.559858	0.372204
13547		9.582479	-0.445293	2.256979	0.006764	-0.015850	-0.008704	-0.830811	-0.404053	-0.462891	0.684002	0.283063	-0.559918	0.372167
13548		9.571960	-0.439550	2.314695	0.004483	-0.003740	-0.006179	-0.828613	-0.401123	-0.463135	0.683990	0.283181	-0.559884	0.372151
13549		9.529711	-0.365195	2.282574	0.005422	-0.006613	-0.005165	-0.833984	-0.391357	-0.460205	0.683962	0.283294	-0.559868	0.372140
13550		9.520726	-0.332802	2.237912	0.005517	-0.003892	-0.002823	-0.835449	-0.392822	-0.465088	0.683914	0.283353	-0.559877	0.372169
13551		9.510821	-0.358676	2.229802	0.008487	-0.008512	-0.002179	-0.839600	-0.397705	-0.465088	0.683851	0.283428	-0.559899	0.372197
13552		9.572930	-0.323819	2.314240	0.010512	0.001130	-0.001154	-0.835693	-0.396729	-0.461670	0.683820	0.283498	-0.559858	0.372262
13553		9.537175	-0.237587	2.350895	0.001465	0.027901	-0.010424	-0.835693	-0.396240	-0.465576	0.683959	0.283486	-0.559669	0.372299
13554		9.474049	-0.181178	2.301219	-0.006959	0.043371	-0.012302	-0.834961	-0.399170	-0.470459	0.684208	0.283371	-0.559411	0.372318
13555		9.424770	-0.114114	2.134344	-0.016419	0.035788	-0.018750	-0.833496	-0.391846	-0.471191	0.684480	0.283253	-0.559197	0.372227
13556		9.465856	-0.219233	2.177421	-0.022001	-0.008586	-0.023851	-0.833008	-0.402100	-0.468506	0.684573	0.283233	-0.559257	0.371983
13557		9.555035	-0.248010	2.228662	-0.021871	0.006362	-0.023282	-0.836426	-0.395996	-0.469727	0.684730	0.283218	-0.559212	0.371772
13558		9.561589	-0.299197	2.240261	-0.018121	0.029451	-0.016612	-0.839600	-0.393799	-0.460449	0.684958	0.283089	-0.559059	0.371680
13559		9.527358	-0.368085	2.254393	-0.016333	0.026676	-0.016229	-0.833984	-0.395752	-0.473877	0.685126	0.283002	-0.558940	0.371616
13560		9.453518	-0.396102	2.233351	-0.018456	0.037069	-0.016815	-0.835205	-0.392090	-0.465820	0.685405	0.282837	-0.558737	0.371532
13561		9.380589	-0.342404	2.148637	-0.031522	0.028045	-0.020017	-0.832031	-0.400146	-0.464355	0.685647	0.282655	-0.558639	0.371370
13562		9.404595	-0.255938	1.985097	-0.039492	-0.013474	-0.022513	-0.829102	-0.396484	-0.475342	0.685726	0.282610	-0.558777	0.371052
13563		9.534272	-0.302705	2.039994	-0.029996	-0.051834	-0.020090	-0.829346	-0.391846	-0.461670	0.685637	0.282673	-0.559101	0.370681
13564		9.631024	-0.402725	2.214819	-0.020535	-0.020651	-0.013977	-0.837158	-0.397461	-0.462891	0.685604	0.282693	-0.559256	0.370492
13565		9.639215	-0.373795	2.159145	-0.014852	0.011228	-0.003058	-0.834229	-0.406250	-0.461182	0.685666	0.282611	-0.559238	0.370468
13566		9.548216	-0.235676	1.957280	-0.017824	0.016846	0.004971	-0.830811	-0.397461	-0.463379	0.685739	0.282503	-0.559193	0.370482
13567		9.535656	-0.078218	1.809297	-0.012189	-0.024983	0.002714	-0.839600	-0.390381	-0.470215	0.685620	0.282524	-0.559375	0.370411
13568		9.672800	-0.115693	1.927550	-0.009066	-0.068152	-0.006358	-0.830811	-0.399658	-0.479248	0.685326	0.282680	-0.559797	0.370199
13569		9.770516	-0.222655	2.237821	-0.024959	-0.033597	-0.011520	-0.829590	-0.398438	-0.465820	0.685302	0.282671	-0.560012	0.369927
13570		9.681605	-0.237439	2.240617	-0.044844	0.036906	-0.014752	-0.835449	-0.394775	-0.463867	0.685620	0.282388	-0.559890	0.369736
13571		9.491476	-0.187381	1.860313	-0.046878	0.037187	-0.021496	-0.833984	-0.389893	-0.466553	0.685943	0.282116	-0.559779	0.369514
13572		9.462183	-0.311405	1.890021	-0.033546	-0.061903	-0.031877	-0.827881	-0.401367	-0.464600	0.685809	0.282248	-0.560176	0.369059
13573		9.602748	-0.458561	2.295250	-0.027649	-0.067744	-0.033851	-0.842285	-0.400146	-0.467773	0.685654	0.282495	-0.560549	0.368593
13574		9.653770	-0.452016	2.445558	-0.039931	0.026789	-0.025494	-0.839355	-0.398926	-0.469482	0.685930	0.282316	-0.560462	0.368348
13575		9.537653	-0.307858	2.211535	-0.049001	0.055510	-0.017336	-0.833008	-0.400635	-0.466553	0.686343	0.281951	-0.560255	0.368172
13576		9.439092	-0.232524	2.138544	-0.042735	-0.000357	-0.014719	-0.830811	-0.389160	-0.467529	0.686471	0.281805	-0.560344	0.367910
13577		9.498330	-0.277685	2.224299	-0.032202	-0.004426	-0.018150	-0.840820	-0.395020	-0.472412	0.686567	0.281699	-0.560436	0.367673
13578		9.509761	-0.392333	2.162640	-0.031464	0.024127	-0.015146	-0.830322	-0.401611	-0.464844	0.686785	0.281500	-0.560369	0.367520
13579		9.518285	-0.440572	2.098580	-0.026071	0.023816	-0.009342	-0.833740	-0.388916	-0.469482	0.686965	0.281366	-0.560276	0.367428
13580		9.539327	-0.341439	2.124716	-0.018932	0.012779	-0.007826	-0.830811	-0.400635	-0.468262	0.687075	0.281230	-0.560258	0.367355
13581		9.558902	-0.205615	2.080116	-0.034628	0.029523	-0.009523	-0.823242	-0.395996	-0.473633	0.687309	0.281017	-0.560158	0.367231
13582		9.569591	-0.109376	2.072906	-0.042524	0.017248	-0.011770	-0.829834	-0.388916	-0.475098	0.687539	0.280774	-0.560141	0.367013
13583		9.592670	-0.135445	2.138643	-0.043462	0.006448	-0.018196	-0.831299	-0.388184	-0.476074	0.687728	0.280553	-0.560200	0.366737
13584		9.611264	-0.238396	2.142927	-0.031992	0.017893	-0.023154	-0.836182	-0.395996	-0.470703	0.687958	0.280382	-0.560150	0.366513
13585		9.550132	-0.381623	2.056222	-0.005796	0.022587	-0.019566	-0.820312	-0.391602	-0.467529	0.688111	0.280381	-0.559998	0.366458
13586		9.551625	-0.374060	1.983274	0.003316	0.015097	-0.016101	-0.832031	-0.399658	-0.470947	0.688213	0.280437	-0.559856	0.366441
13587		9.521569	-0.310763	2.094900	0.002428	0.000474	-0.017730	-0.821777	-0.396729	-0.476074	0.688245	0.280557	-0.559798	0.366378
13588		9.514009	-0.179332	2.163921	-0.010643	0.022075	-0.013415	-0.824707	-0.390137	-0.472656	0.688430	0.280488	-0.559651	0.366306
13589		9.462035	-0.178694	1.950808	-0.043780	0.017280	-0.005752	-0.828613	-0.403809	-0.472656	0.688626	0.280193	-0.559675	0.366129
13590		9.435695	-0.308986	2.039204	-0.034787	-0.070425	-0.003984	-0.828369	-0.396729	-0.467529	0.688382	0.280266	-0.560155	0.365798
13591		9.548762	-0.372984	2.219635	-0.023609	-0.060873	-0.005024	-0.829590	-0.405029	-0.470459	0.688144	0.280366	-0.560560	0.365548
13592		9.530422	-0.449331	2.226201	-0.011582	0.000477	-0.011025	-0.823486	-0.396240	-0.470703	0.688196	0.280398	-0.560542	0.365453
13593		9.468691	-0.415623	2.197863	0.019470	-0.007495	-0.020606	-0.827393	-0.389648	-0.473877	0.688175	0.280642	-0.560463	0.365426
13594		9.438656	-0.278994	2.226710	0.035341	-0.013651	-0.023736	-0.828857	-0.392578	-0.479248	0.688101	0.280967	-0.560383	0.365439
13595		9.460424	-0.251543	2.171958	0.026959	-0.027020	-0.015807	-0.828369	-0.406250	-0.471191	0.687976	0.281237	-0.560417	0.365414
13596		9.525080	-0.228571	2.064358	0.011948	-0.049392	0.008301	-0.831787	-0.400146	-0.477539	0.687689	0.281458	-0.560655	0.365418
13597		9.640897	-0.237136	2.272399	0.009422	-0.062852	0.015012	-0.826416	-0.398438	-0.474121	0.687341	0.281623	-0.561008	0.365404
13598		9.689831	-0.234259	2.359123	0.010761	-0.000580	0.011633	-0.829102	-0.400391	-0.469482	0.687293	0.281626	-0.560988	0.365525
13599		9.508486	-0.241083	2.280407	0.003800	0.061313	-0.000515	-0.834961	-0.403076	-0.479980	0.687568	0.281480	-0.560608	0.365702
13600		9.367939	-0.192641	1.963208	-0.001342	0.040549	-0.015637	-0.830078	-0.402588	-0.468018	0.687826	0.281414	-0.560325	0.365702
13601		9.390247	-0.262261	2.017718	0.008936	-0.050923	-0.019203	-0.823730	-0.394531	-0.468506	0.687609	0.281744	-0.560530	0.365541
13602		9.582301	-0.291955	2.044087	0.001911	-0.040051	-0.004854	-0.829102	-0.395996	-0.463379	0.687428	0.281899	-0.560733	0.365450
13603		9.637181	-0.304869	2.067601	-0.006060	-0.024882	0.015621	-0.826660	-0.396240	-0.462891	0.687251	0.281885	-0.560931	0.365490
13604		9.683868	-0.143774	2.106564	-0.007584	-0.018258	0.028725	-0.827881	-0.398193	-0.462158	0.687073	0.281785	-0.561121	0.365611
13605		9.583944	-0.053761	2.078285	-0.002959	0.007434	0.013611	-0.829346	-0.402588	-0.465088	0.687048	0.281715	-0.561110	0.365728
13606		9.479688	-0.249645	1.938566	0.009394	0.018345	-0.014116	-0.830322	-0.398682	-0.471191	0.687139	0.281819	-0.560925	0.365762
13607		9.412334	-0.469084	1.956689	0.040394	-0.024295	-0.017178	-0.841553	-0.399658	-0.463867	0.686982	0.282207	-0.560889	0.365811
13608		9.471290	-0.435480	2.050681	0.034626	-0.046307	0.003216	-0.834473	-0.398926	-0.467285	0.686633	0.282555	-0.561067	0.365926
13609		9.553732	-0.162051	1.991591	0.013885	-0.045640	0.033950	-0.839600	-0.395752	-0.466064	0.686268	0.282622	-0.561363	0.366104
13610		9.655790	0.002692	1.932863	0.000464	-0.068104	0.042545	-0.836914	-0.403564	-0.460449	0.685794	0.282629	-0.561863	0.366220
13611		9.755207	-0.029480	1.945726	0.004684	-0.055454	0.025841	-0.831787	-0.402344	-0.467041	0.685413	0.282751	-0.562216	0.366297
13612		9.769521	-0.278071	2.225143	0.025790	-0.008756	0.003503	-0.840088	-0.397705	-0.467285	0.685303	0.282929	-0.562174	0.366430
13613		9.712347	-0.362266	2.322008	0.040011	0.058996	-0.007688	-0.835205	-0.399658	-0.467041	0.685498	0.283009	-0.561699	0.366733
13614		9.417803	-0.303334	2.058069	0.031412	0.057274	-0.002257	-0.829102	-0.401123	-0.466309	0.685693	0.283030	-0.561263	0.367020
13615		9.241355	-0.271973	1.721310	0.013152	-0.045620	0.009281	-0.831055	-0.396484	-0.465332	0.685420	0.283219	-0.561486	0.367043
13616		9.431754	-0.321881	1.799497	0.004514	-0.121940	0.025595	-0.830811	-0.394531	-0.472168	0.684755	0.283497	-0.562223	0.366941
13617		9.750730	-0.349617	2.252705	-0.000750	-0.091166	0.031382	-0.827148	-0.396240	-0.458984	0.684258	0.283589	-0.562810	0.366896
13618		10.003396	-0.227767	2.556642	0.000953	0.038800	0.027562	-0.835205	-0.393555	-0.467529	0.684348	0.283362	-0.562637	0.367169
13619		9.710714	-0.181824	2.497750	-0.004100	0.129162	0.000550	-0.846436	-0.402344	-0.461670	0.684966	0.282917	-0.561913	0.367469
13620		9.236440	-0.274323	1.920704	-0.008432	0.114108	-0.014482	-0.832764	-0.397705	-0.470703	0.685527	0.282619	-0.561254	0.367658
13621		9.087447	-0.418434	1.551175	0.005202	-0.028401	-0.017717	-0.837891	-0.400879	-0.457275	0.685443	0.282812	-0.561347	0.367524
13622		9.542398	-0.532584	2.093153	0.017592	-0.149890	0.010209	-0.827148	-0.400391	-0.461182	0.684626	0.283370	-0.562171	0.367359
13623		9.980236	-0.358723	2.709915	0.006265	-0.030878	0.046520	-0.836670	-0.391357	-0.465576	0.684321	0.283310	-0.562415	0.367600
13624		9.842036	-0.195446	2.634666	-0.014137	0.155180	0.056025	-0.836426	-0.395996	-0.469727	0.684904	0.282467	-0.561710	0.368240
13625		9.343201	-0.104620	1.873637	-0.023499	0.162942	0.032638	-0.836914	-0.394531	-0.468262	0.685623	0.281671	-0.560920	0.368715
13626		9.023688	-0.174405	1.628890	-0.007074	-0.006032	-0.003701	-0.832275	-0.390381	-0.468262	0.685609	0.281667	-0.560966	0.368674
13627		9.396348	-0.312643	1.965459	0.006617	-0.097569	-0.017565	-0.830811	-0.392090	-0.469971	0.685184	0.282073	-0.561463	0.368398
13628		9.864824	-0.346362	2.376178	-0.003409	-0.021103	0.001103	-0.839111	-0.393311	-0.468994	0.685097	0.282095	-0.561590	0.368350
13629		9.999406	-0.274762	2.509412	-0.014680	0.075735	0.028853	-0.832031	-0.401855	-0.462402	0.685388	0.281631	-0.561273	0.368646
13630		9.652366	-0.171676	2.138760	-0.027794	0.137628	0.036704	-0.827393	-0.399658	-0.469238	0.685965	0.280926	-0.560636	0.369081
13631		9.243739	-0.258811	1.668789	-0.019482	0.072313	0.020727	-0.824219	-0.406006	-0.473145	0.686287	0.280523	-0.560304	0.369292
13632		9.259048	-0.381684	1.731335	0.003004	-0.050421	0.008207	-0.834229	-0.382568	-0.462158	0.686038	0.280702	-0.560557	0.369236
13633		9.663160	-0.470147	2.179624	0.014283	-0.056115	0.010472	-0.829834	-0.401611	-0.468506	0.685671	0.280895	-0.560880	0.369280
13634		9.837103	-0.361155	2.356707	0.011868	0.049164	0.016867	-0.833496	-0.398926	-0.468750	0.685820	0.280770	-0.560573	0.369563
13635		9.576786	-0.281577	2.138746	0.006688	0.102539	0.013692	-0.828857	-0.396973	-0.465088	0.686232	0.280456	-0.559981	0.369936
13636		9.259602	-0.249304	1.709725	0.004578	0.052897	0.005075	-0.832275	-0.396240	-0.476318	0.686433	0.280333	-0.559659	0.370142
13637		9.235745	-0.345604	1.623553	0.015940	-0.062094	-0.001696	-0.830566	-0.392578	-0.474365	0.686118	0.280624	-0.559946	0.370071
13638		9.531092	-0.494418	1.916309	0.032964	-0.117312	0.007745	-0.833008	-0.391846	-0.468262	0.685475	0.281127	-0.560524	0.370005
13639		9.792615	-0.525345	2.234322	0.028422	-0.062466	0.020444	-0.828613	-0.393799	-0.469238	0.685044	0.281386	-0.560838	0.370131
13640		9.770740	-0.402190	2.214872	0.022319	0.014171	0.031073	-0.830566	-0.390869	-0.471436	0.684968	0.281327	-0.560746	0.370457
13641		9.498361	-0.264802	2.024022	0.016186	0.011399	0.027525	-0.830811	-0.388184	-0.466553	0.684906	0.281240	-0.560687	0.370727
13642		9.358369	-0.224895	2.002997	0.014144	-0.053610	0.010451	-0.830811	-0.399414	-0.467529	0.684581	0.281430	-0.560973	0.370750
13643		9.452424	-0.218163	2.189972	0.017859	-0.079784	0.000378	-0.832275	-0.392578	-0.470459	0.684167	0.281803	-0.561349	0.370661
13644		9.695298	-0.248354	2.367225	0.024363	-0.043529	0.004395	-0.837646	-0.396240	-0.466797	0.683904	0.282044	-0.561520	0.370704
13645		9.844597	-0.285893	2.353908	0.025874	0.005665	0.005745	-0.833984	-0.399902	-0.457520	0.683847	0.282156	-0.561411	0.370889
13646		9.841212	-0.389964	2.384373	0.027737	0.023129	0.009071	-0.838867	-0.392578	-0.467529	0.683837	0.282251	-0.561197	0.371160
13647		9.714471	-0.379859	2.465604	0.020308	0.061212	0.013509	-0.829834	-0.401123	-0.458496	0.684027	0.282107	-0.560815	0.371497
13648		9.513059	-0.312526	2.326767	-0.002788	0.115657	0.017814	-0.834229	-0.393555	-0.467529	0.684499	0.281706	-0.560180	0.371888
13649		9.327373	-0.301348	2.077550	-0.014695	0.102005	0.012430	-0.835938	-0.395264	-0.467529	0.684964	0.281253	-0.559663	0.372154
13650		9.294598	-0.358568	2.039099	-0.004744	0.035808	0.002558	-0.833740	-0.402832	-0.468262	0.685118	0.281119	-0.559471	0.372259
13651		9.490500	-0.470004	2.114140	0.015199	0.033163	0.006504	-0.827393	-0.391602	-0.469482	0.685209	0.281116	-0.559223	0.372468
13652		9.641303	-0.553620	2.152684	0.028893	0.064409	0.011136	-0.829834	-0.398682	-0.469482	0.685406	0.281032	-0.558778	0.372837
13653		9.623485	-0.457948	2.130180	0.038810	0.083073	0.013585	-0.826660	-0.396729	-0.471924	0.685654	0.280960	-0.558192	0.373311
13654		9.495807	-0.257568	2.000819	0.025737	0.077860	0.005508	-0.830322	-0.395508	-0.470947	0.685942	0.280857	-0.557656	0.373661
13655		9.474437	-0.079194	1.863567	0.009347	0.035641	-0.004224	-0.833740	-0.399658	-0.471924	0.686089	0.280835	-0.557400	0.373789
13656		9.543250	-0.199642	1.974087	-0.012269	-0.010742	-0.009375	-0.831299	-0.395508	-0.467285	0.686085	0.280870	-0.557462	0.373679
13657		9.621272	-0.399865	2.179403	-0.021257	0.000920	-0.003442	-0.829102	-0.391602	-0.472900	0.686127	0.280788	-0.557507	0.373595
13658		9.521773	-0.506387	2.119997	-0.010695	0.040822	-0.008276	-0.834961	-0.393311	-0.467041	0.686363	0.280636	-0.557281	0.373615
13659		9.373012	-0.460809	1.994830	-0.002082	0.013645	-0.015632	-0.836182	-0.397705	-0.465820	0.686447	0.280675	-0.557175	0.373588
13660		9.328467	-0.328852	1.938472	-0.005907	-0.048132	-0.018613	-0.828369	-0.390137	-0.468018	0.686258	0.280916	-0.557423	0.373384
13661		9.386618	-0.264366	2.094243	-0.011448	-0.084474	-0.019198	-0.836670	-0.391602	-0.468506	0.685933	0.281208	-0.557897	0.373054
13662		9.513556	-0.249301	2.212627	-0.029723	-0.081541	-0.012633	-0.825684	-0.394043	-0.467041	0.685637	0.281353	-0.558433	0.372686
13663		9.623381	-0.297631	2.285806	-0.052729	-0.065562	-0.006379	-0.830566	-0.396484	-0.470703	0.685466	0.281302	-0.558942	0.372275
13664		9.666026	-0.329473	2.329339	-0.063810	-0.049228	-0.001705	-0.830566	-0.401367	-0.466553	0.685389	0.281111	-0.559401	0.371871
13665		9.611883	-0.299524	2.343076	-0.054793	-0.026370	-0.004970	-0.836914	-0.391357	-0.469971	0.685398	0.280948	-0.559684	0.371554
13666		9.541955	-0.325407	2.237276	-0.035801	-0.015737	-0.009257	-0.833252	-0.388428	-0.467041	0.685423	0.280832	-0.559865	0.371323
13667		9.481936	-0.347150	2.166723	-0.015764	-0.016191	-0.013201	-0.838867	-0.388916	-0.467529	0.685408	0.280850	-0.559978	0.371165
13668		9.517207	-0.352377	2.140822	-0.007103	-0.030606	-0.012131	-0.831543	-0.396240	-0.470703	0.685296	0.280955	-0.560157	0.371023
13669		9.598056	-0.262129	2.174591	-0.004239	-0.026550	-0.012405	-0.832275	-0.392334	-0.467529	0.685220	0.281084	-0.560274	0.370889
13670		9.595391	-0.204212	2.150339	-0.020357	0.000860	-0.015867	-0.834961	-0.393799	-0.464844	0.685310	0.281046	-0.560288	0.370731
13671		9.538964	-0.246315	2.094805	-0.035865	-0.007656	-0.020423	-0.842773	-0.400146	-0.477539	0.685399	0.280979	-0.560390	0.370463
13672		9.435265	-0.357328	1.888169	-0.042697	-0.018780	-0.024044	-0.829834	-0.391113	-0.462402	0.685488	0.280908	-0.560559	0.370095
13673		9.424968	-0.450327	1.891976	-0.020183	-0.067440	-0.024704	-0.833252	-0.400146	-0.469971	0.685274	0.281134	-0.560944	0.369736
13674		9.501596	-0.454080	1.977990	-0.007682	-0.074558	-0.023794	-0.830811	-0.388428	-0.458984	0.685015	0.281455	-0.561314	0.369409
13675		9.600108	-0.423986	2.030905	0.003905	-0.052876	-0.020143	-0.835205	-0.390869	-0.467529	0.684793	0.281745	-0.561560	0.369226
13676		9.671745	-0.359319	2.052820	0.008547	-0.057170	-0.008947	-0.833496	-0.391602	-0.468018	0.684526	0.282002	-0.561839	0.369101
13677		9.689598	-0.319139	2.285728	0.016577	-0.066727	-0.001008	-0.836426	-0.394531	-0.456787	0.684178	0.282296	-0.562161	0.369032
13678		9.671569	-0.330917	2.348515	0.008812	-0.017410	0.002633	-0.832031	-0.402344	-0.469727	0.684035	0.282415	-0.562237	0.369089
13679		9.563690	-0.353935	2.113403	0.000720	0.015910	0.006342	-0.839600	-0.402832	-0.465332	0.684102	0.282360	-0.562127	0.369176
13680		9.511325	-0.330976	2.100793	0.004183	-0.038106	-0.003646	-0.835449	-0.398193	-0.458008	0.683915	0.282550	-0.562302	0.369111
13681		9.593161	-0.288643	2.186337	0.002976	-0.037252	-0.012584	-0.836426	-0.397461	-0.454834	0.683748	0.282776	-0.562463	0.369002
13682		9.666958	-0.286118	2.144013	-0.001992	0.021757	-0.020291	-0.839600	-0.395508	-0.467529	0.683885	0.282831	-0.562288	0.368972
13683		9.630102	-0.321877	2.161809	-0.002256	0.026422	-0.018801	-0.834717	-0.398926	-0.463379	0.684068	0.282820	-0.562094	0.368936
13684		9.561011	-0.312502	2.117485	-0.011727	0.030313	-0.011984	-0.838623	-0.400391	-0.466797	0.684266	0.282737	-0.561912	0.368911
13685		9.453948	-0.388659	2.078707	-0.019252	0.029751	-0.007921	-0.834717	-0.391846	-0.473633	0.684468	0.282588	-0.561767	0.368869
13686		9.416784	-0.361299	1.921032	-0.019504	0.002337	-0.009356	-0.841553	-0.391602	-0.465820	0.684568	0.282484	-0.561785	0.368738
13687		9.485594	-0.373588	1.874925	-0.017879	-0.018558	-0.010474	-0.834961	-0.406494	-0.462646	0.684537	0.282476	-0.561929	0.368580
13688		9.623741	-0.304761	2.136738	-0.008588	-0.041449	-0.015625	-0.838379	-0.394531	-0.464844	0.684398	0.282679	-0.562126	0.368384
13689		9.651779	-0.167956	2.365949	-0.003543	0.005845	-0.014166	-0.834473	-0.395752	-0.463379	0.684465	0.282707	-0.562067	0.368327
13690		9.574122	-0.045620	2.048795	-0.027909	0.084955	-0.016294	-0.832520	-0.400391	-0.461914	0.684967	0.282373	-0.561621	0.368332
13691		9.455681	-0.204716	1.809621	-0.038471	0.013697	-0.024238	-0.834473	-0.403564	-0.462402	0.685179	0.282259	-0.561585	0.368078
13692		9.536814	-0.349585	2.050414	-0.023918	-0.047416	-0.029704	-0.835938	-0.395508	-0.468750	0.685086	0.282450	-0.561838	0.367718
13693		9.637231	-0.433929	2.167667	-0.027608	0.007695	-0.026814	-0.838379	-0.393066	-0.463867	0.685266	0.282390	-0.561809	0.367474
13694		9.661605	-0.411321	2.012003	-0.021422	0.039568	-0.018674	-0.830078	-0.395752	-0.468262	0.685537	0.282233	-0.561610	0.367394
13695		9.576793	-0.283436	2.137814	-0.003597	0.004106	-0.007851	-0.828369	-0.402588	-0.462891	0.685588	0.282238	-0.561566	0.367361
13696		9.479329	-0.156360	2.166381	-0.000990	0.027826	-0.005894	-0.833008	-0.400146	-0.464844	0.685728	0.282215	-0.561370	0.367418
13697		9.332072	-0.249440	1.895802	-0.010905	0.024357	0.000081	-0.830811	-0.394043	-0.462402	0.685853	0.282102	-0.561250	0.367455
13698		9.366350	-0.313989	1.674099	-0.006958	-0.068661	0.009303	-0.827881	-0.393555	-0.462646	0.685499	0.282242	-0.561681	0.367348
13699		9.538695	-0.260373	1.979732	-0.016408	-0.119876	0.007668	-0.835205	-0.388916	-0.462891	0.684941	0.282488	-0.562425	0.367061
13700		9.765924	-0.159375	2.278715	-0.009541	-0.053917	-0.003999	-0.832764	-0.406982	-0.470947	0.684706	0.282604	-0.562761	0.366895
13701		9.689433	-0.184904	2.358867	-0.006408	0.035165	-0.015642	-0.839111	-0.399658	-0.464355	0.684948	0.282561	-0.562507	0.366868
13702		9.515984	-0.277656	2.129509	0.001616	0.038780	-0.012514	-0.836670	-0.395020	-0.469238	0.685148	0.282528	-0.562242	0.366926
13703		9.425347	-0.449350	1.888220	0.004003	-0.032450	0.006469	-0.841064	-0.395508	-0.460693	0.684964	0.282610	-0.562425	0.366924
13704		9.570528	-0.530893	1.964366	0.006535	-0.113721	0.031015	-0.827148	-0.401611	-0.457764	0.684291	0.282861	-0.563131	0.366903
13705		9.666723	-0.336742	2.320649	0.005530	-0.065098	0.038481	-0.834473	-0.398193	-0.459473	0.683844	0.282955	-0.563548	0.367025
13706		9.576075	-0.108963	2.304979	0.008738	0.048338	0.027596	-0.833496	-0.399658	-0.465576	0.683953	0.282751	-0.563295	0.367368
13707		9.451168	-0.055809	1.995191	0.002527	0.048851	0.008981	-0.837646	-0.394531	-0.459229	0.684151	0.282590	-0.563007	0.367566
13708		9.433885	-0.200242	2.011991	0.005156	-0.035729	-0.000424	-0.827637	-0.393311	-0.461914	0.683949	0.282745	-0.563190	0.367540
13709		9.544235	-0.425833	2.026018	-0.009869	-0.050583	0.002238	-0.837402	-0.396973	-0.456055	0.683728	0.282840	-0.563498	0.367408
13710		9.617107	-0.531932	2.003763	-0.008975	-0.048977	0.020567	-0.835938	-0.398682	-0.459717	0.683429	0.282871	-0.563844	0.367407
13711		9.674525	-0.326666	1.927854	-0.003113	-0.020808	0.027123	-0.836426	-0.397461	-0.464600	0.683244	0.282815	-0.564018	0.367528
13712		9.663622	-0.119947	2.115751	0.004469	0.009681	0.012681	-0.834717	-0.394531	-0.461914	0.683241	0.282760	-0.563961	0.367664
13713		9.742858	-0.114763	2.219811	0.004005	0.035680	-0.001724	-0.840088	-0.395752	-0.468994	0.683400	0.282690	-0.563728	0.367780
13714		9.641135	-0.344728	2.144227	-0.011712	0.072731	-0.000190	-0.831055	-0.394043	-0.457031	0.683775	0.282393	-0.563337	0.367910
13715		9.443243	-0.561323	1.690406	-0.025251	0.051885	0.011459	-0.839111	-0.397949	-0.456787	0.684025	0.282060	-0.563132	0.368013
13716		9.374238	-0.591388	1.649865	0.002429	-0.062011	0.018894	-0.839844	-0.393066	-0.456787	0.683640	0.282213	-0.563513	0.368029
13717		9.544354	-0.442983	2.021777	0.012230	-0.075756	0.020035	-0.835205	-0.395508	-0.458740	0.683165	0.282440	-0.563954	0.368063
13718		9.633032	-0.293875	1.992139	-0.005734	0.022726	0.020129	-0.830078	-0.394287	-0.460693	0.683210	0.282265	-0.563875	0.368234
13719		9.577073	-0.182669	1.952194	-0.017643	-0.005077	0.010810	-0.834961	-0.395752	-0.460205	0.683191	0.282146	-0.563963	0.368224
13720		9.512840	-0.150582	1.859555	-0.035348	-0.038503	0.001955	-0.836426	-0.391846	-0.457275	0.683077	0.282076	-0.564278	0.368006
13721		9.541034	-0.328856	1.981674	-0.030493	-0.056878	-0.000225	-0.835449	-0.392578	-0.450928	0.682863	0.282094	-0.564688	0.367761
13722		9.697460	-0.543183	2.115492	-0.010683	-0.056453	0.002009	-0.839844	-0.390869	-0.460449	0.682585	0.282231	-0.565040	0.367632
13723		9.712784	-0.509819	2.197556	0.003746	-0.007578	0.011002	-0.839111	-0.394775	-0.461914	0.682496	0.282224	-0.565093	0.367721
13724		9.592843	-0.381937	2.020667	0.015068	0.035658	0.010725	-0.843506	-0.391113	-0.463623	0.682591	0.282162	-0.564854	0.367960
13725		9.437026	-0.292132	1.857490	0.027408	-0.009444	0.005318	-0.844727	-0.387939	-0.463867	0.682457	0.282315	-0.564833	0.368122
13726		9.502472	-0.272196	1.981839	0.026445	-0.054168	0.002078	-0.843262	-0.392334	-0.463623	0.682125	0.282603	-0.565069	0.368156
13727		9.610065	-0.224661	2.120585	0.016693	-0.033769	0.010396	-0.839844	-0.392578	-0.453369	0.681890	0.282747	-0.565228	0.368236
13728		9.595228	-0.183665	2.043965	0.005341	-0.004272	0.019976	-0.844238	-0.390869	-0.452881	0.681773	0.282717	-0.565276	0.368401
13729		9.518200	-0.255257	1.870292	-0.000014	-0.017050	0.030813	-0.838867	-0.393311	-0.456787	0.681568	0.282640	-0.565447	0.368578
13730		9.515774	-0.345070	1.771960	0.018816	-0.047317	0.021863	-0.837158	-0.396484	-0.459229	0.681222	0.282806	-0.565696	0.368707
13731		9.753299	-0.319773	2.033302	0.023896	-0.058096	0.016530	-0.844971	-0.385010	-0.452393	0.680842	0.283062	-0.565969	0.368795
13732		9.984091	-0.257459	2.580578	0.026476	0.004908	0.017650	-0.838623	-0.396484	-0.455566	0.680722	0.283108	-0.565911	0.369070
13733		9.788725	-0.182830	2.752380	0.000949	0.120605	0.022696	-0.851807	-0.393311	-0.456055	0.681211	0.282662	-0.565255	0.369513
13734		9.261998	-0.256689	1.956978	-0.014936	0.169693	0.008328	-0.838867	-0.391602	-0.456299	0.681990	0.282031	-0.564358	0.369930
13735		8.967792	-0.447241	1.377843	0.007292	0.006990	-0.008877	-0.833496	-0.389648	-0.457275	0.682014	0.282112	-0.564265	0.369966
13736		9.417752	-0.595612	1.974047	0.020385	-0.143136	-0.001829	-0.836670	-0.392334	-0.458008	0.681287	0.282690	-0.564998	0.369744
13737		9.933380	-0.560136	2.741403	0.003826	-0.012772	0.020495	-0.841064	-0.390625	-0.455566	0.681149	0.282668	-0.565091	0.369873
13738		9.831255	-0.383780	2.422124	-0.018788	0.194462	0.032658	-0.825439	-0.394775	-0.460693	0.681991	0.281820	-0.564113	0.370463
13739		9.330161	-0.296650	1.709342	-0.015831	0.129315	0.022327	-0.830322	-0.384277	-0.469971	0.682574	0.281254	-0.563444	0.370837
13740		9.108516	-0.274125	1.410942	-0.002418	-0.053335	0.013207	-0.833740	-0.386963	-0.462891	0.682305	0.281317	-0.563771	0.370787
13741		9.495374	-0.430387	1.817939	0.013955	-0.112382	0.014262	-0.841064	-0.401611	-0.456787	0.681698	0.281674	-0.564388	0.370693
13742		9.929173	-0.486927	2.380468	0.012190	-0.023890	0.027683	-0.836426	-0.397705	-0.460693	0.681454	0.281741	-0.564525	0.370883
13743		9.891321	-0.335264	2.344078	-0.012002	0.116951	0.029449	-0.843018	-0.389893	-0.454346	0.681939	0.281207	-0.563937	0.371290
13744		9.439023	-0.252141	1.866705	-0.029602	0.113013	0.011792	-0.833984	-0.390625	-0.468506	0.682470	0.280660	-0.563411	0.371527
13745		9.042373	-0.271869	1.450516	-0.029007	-0.019205	-0.007915	-0.839844	-0.385254	-0.457031	0.682481	0.280595	-0.563568	0.371317
13746		9.178389	-0.443740	1.523119	-0.020137	-0.130172	-0.021447	-0.831055	-0.387695	-0.461670	0.681955	0.280996	-0.564321	0.370837
13747		9.636072	-0.551477	1.840199	-0.002554	-0.143247	-0.010209	-0.835938	-0.386475	-0.461670	0.681320	0.281479	-0.565101	0.370451
13748		10.010257	-0.445097	2.082732	-0.001622	-0.076245	0.018838	-0.840332	-0.388184	-0.458740	0.680907	0.281612	-0.565570	0.370392
13749		9.996499	-0.370791	2.163995	0.001227	0.007933	0.031730	-0.837891	-0.386230	-0.448730	0.680835	0.281451	-0.565586	0.370623
13750		9.693624	-0.342386	2.121081	0.014019	0.035748	0.028577	-0.838623	-0.390137	-0.456299	0.680853	0.281312	-0.565402	0.370976
13751		9.405099	-0.336706	2.032250	0.026125	0.019529	0.013617	-0.846680	-0.384033	-0.462402	0.680829	0.281358	-0.565228	0.371250
13752		9.357680	-0.330079	1.957979	0.023775	-0.029990	0.000737	-0.839355	-0.396240	-0.460205	0.680620	0.281568	-0.565326	0.371325
13753		9.455570	-0.391903	1.981806	0.009966	-0.062468	-0.003381	-0.843262	-0.389160	-0.456299	0.680312	0.281864	-0.565616	0.371225
13754		9.654910	-0.395386	2.118936	-0.007705	-0.048690	-0.008400	-0.840332	-0.393311	-0.459717	0.680112	0.282023	-0.565887	0.371056
13755		9.791434	-0.337493	2.300943	-0.020620	0.001286	-0.007878	-0.839111	-0.390869	-0.458252	0.680191	0.281957	-0.565903	0.370937
13756		9.738197	-0.337923	2.321279	-0.026304	0.049013	-0.004388	-0.845459	-0.387451	-0.455078	0.680495	0.281692	-0.565677	0.370926
13757		9.529958	-0.432557	2.087274	-0.020137	0.064944	-0.005639	-0.840332	-0.387451	-0.460449	0.680844	0.281414	-0.565354	0.370988
13758		9.395384	-0.556186	1.911057	-0.001307	0.011001	-0.002650	-0.846191	-0.381104	-0.460449	0.680902	0.281389	-0.565277	0.371019
13759		9.529862	-0.510826	1.910207	0.011367	-0.009602	0.006943	-0.843994	-0.389404	-0.463135	0.680793	0.281432	-0.565317	0.371126
13760		9.699548	-0.426904	2.233940	0.010806	0.003245	0.018609	-0.843018	-0.390625	-0.458252	0.680722	0.281397	-0.565296	0.371315
13761		9.646845	-0.312885	2.185428	-0.006013	0.078260	0.018254	-0.842773	-0.386719	-0.455322	0.681035	0.281052	-0.564900	0.371604
13762		9.446108	-0.297798	1.838580	-0.017408	0.092583	0.003356	-0.840576	-0.391602	-0.458740	0.681477	0.280666	-0.564431	0.371797
13763		9.365249	-0.385721	1.638087	-0.009848	-0.000417	-0.016876	-0.849121	-0.393066	-0.462402	0.681535	0.280718	-0.564409	0.371685
13764		9.544785	-0.496495	1.956202	-0.015620	-0.059134	-0.016979	-0.843994	-0.385986	-0.458008	0.681328	0.280912	-0.564745	0.371408
13765		9.728795	-0.498696	2.170372	-0.010607	-0.011003	-0.009104	-0.844971	-0.390869	-0.452881	0.681308	0.280936	-0.564816	0.371317
13766		9.585340	-0.423353	1.993470	-0.007153	0.058947	-0.003171	-0.840332	-0.382080	-0.461914	0.681580	0.280761	-0.564491	0.371445
13767		9.409532	-0.443354	1.684631	0.005738	0.016071	-0.007617	-0.841797	-0.393799	-0.459717	0.681655	0.280769	-0.564361	0.371499
13768		9.419055	-0.503344	1.826577	0.016253	-0.066127	-0.006853	-0.844971	-0.394531	-0.460938	0.681312	0.281128	-0.564655	0.371411
13769		9.568236	-0.456497	2.081298	0.016091	-0.066246	0.002547	-0.843018	-0.388916	-0.454590	0.680942	0.281437	-0.564972	0.371373
13770		9.596298	-0.385210	2.017497	0.013319	-0.018874	0.000264	-0.837646	-0.394775	-0.458252	0.680797	0.281590	-0.565033	0.371430
13771		9.593842	-0.387986	1.858075	0.017132	-0.029543	0.001029	-0.838623	-0.385742	-0.458496	0.680609	0.281804	-0.565126	0.371470
13772		9.642225	-0.399066	1.999316	0.022474	-0.075306	-0.003328	-0.841797	-0.389893	-0.450684	0.680204	0.282181	-0.565466	0.371409
13773		9.643052	-0.349081	2.106551	0.009367	-0.037382	-0.005187	-0.843018	-0.387451	-0.461426	0.679997	0.282400	-0.565629	0.371372
13774		9.578658	-0.313766	2.014571	-0.003640	-0.001991	-0.006992	-0.835938	-0.395996	-0.457275	0.680017	0.282412	-0.565624	0.371336
13775		9.526851	-0.260113	1.899065	-0.008533	-0.029909	-0.011787	-0.844482	-0.388428	-0.452393	0.679933	0.282541	-0.565764	0.371177
13776		9.519864	-0.297787	1.928683	-0.005809	-0.061167	-0.015926	-0.844971	-0.383301	-0.463135	0.679686	0.282787	-0.566087	0.370951
13777		9.576060	-0.361821	2.077326	-0.014421	-0.045744	-0.008163	-0.841797	-0.394531	-0.454102	0.679532	0.282857	-0.566365	0.370755
13778		9.625953	-0.387594	1.926856	-0.017003	-0.015729	-0.008717	-0.841064	-0.386230	-0.461182	0.679516	0.282877	-0.566468	0.370612
13779		9.619195	-0.362034	1.848677	-0.013612	-0.025841	-0.015940	-0.846191	-0.389648	-0.452148	0.679480	0.282941	-0.566605	0.370419
13780		9.684362	-0.350279	1.953836	0.006447	-0.049135	-0.023143	-0.842529	-0.389404	-0.451660	0.679285	0.283251	-0.566803	0.370237
13781		9.715802	-0.384496	2.042340	-0.002099	-0.015565	-0.025596	-0.849121	-0.387451	-0.458740	0.679282	0.283420	-0.566828	0.370076
13782		9.643897	-0.370877	1.932450	-0.016261	0.016941	-0.019644	-0.843994	-0.396240	-0.454346	0.679454	0.283355	-0.566730	0.369958
13783		9.559120	-0.351804	1.989955	-0.020415	-0.010554	-0.017261	-0.845703	-0.392334	-0.453857	0.679497	0.283378	-0.566795	0.369762
13784		9.539376	-0.373119	2.040442	-0.028618	-0.006762	-0.016459	-0.845459	-0.392334	-0.453857	0.679571	0.283327	-0.566873	0.369546
13785		9.474778	-0.468862	1.898847	-0.033150	0.021561	-0.013394	-0.841064	-0.396973	-0.451172	0.679780	0.283149	-0.566810	0.369394
13786		9.514550	-0.484746	1.905993	-0.014763	-0.024021	-0.016208	-0.842285	-0.393799	-0.458252	0.679738	0.283251	-0.566936	0.369200
13787		9.618204	-0.414281	2.034185	-0.010258	-0.028076	-0.009051	-0.844727	-0.386963	-0.459717	0.679658	0.283331	-0.567086	0.369055
13788		9.706074	-0.384107	2.153415	0.000941	0.004600	-0.004550	-0.836426	-0.396729	-0.457031	0.679690	0.283329	-0.567037	0.369074
13789		9.612916	-0.342484	2.139182	0.005407	0.035857	-0.005270	-0.836182	-0.393066	-0.453857	0.679870	0.283295	-0.566777	0.369167
13790		9.553201	-0.331919	1.962241	0.009630	0.043972	-0.002110	-0.835449	-0.384277	-0.462402	0.680058	0.283243	-0.566473	0.369327
13791		9.556002	-0.329072	1.953054	0.008577	0.015006	0.001630	-0.844727	-0.401611	-0.452881	0.680115	0.283214	-0.566348	0.369437
13792		9.669994	-0.277017	2.072318	0.006102	0.008062	0.005891	-0.842041	-0.391113	-0.455078	0.680107	0.283238	-0.566279	0.369539
13793		9.745188	-0.251056	2.165005	-0.010626	0.060436	0.005035	-0.850586	-0.390137	-0.460938	0.680391	0.282977	-0.565969	0.369691
13794		9.700756	-0.309175	2.093400	-0.010080	0.085440	-0.002794	-0.835693	-0.395020	-0.457275	0.680814	0.282664	-0.565503	0.369865
13795		9.586896	-0.363804	1.882898	-0.020476	0.099119	-0.012741	-0.843262	-0.392578	-0.456787	0.681367	0.282324	-0.564952	0.369949
13796		9.468111	-0.435940	1.742354	-0.026567	0.063261	-0.016274	-0.836426	-0.387939	-0.458984	0.681759	0.282072	-0.564627	0.369914
13797		9.513659	-0.392509	1.769385	-0.028025	0.023490	-0.022037	-0.841309	-0.390381	-0.462891	0.681994	0.281948	-0.564517	0.369744
13798		9.645268	-0.325067	1.991097	-0.029467	0.023406	-0.018381	-0.840332	-0.390869	-0.456299	0.682221	0.281796	-0.564421	0.369586
13799		9.672261	-0.260358	2.077976	-0.035878	0.050375	-0.013363	-0.840576	-0.400146	-0.458740	0.682562	0.281517	-0.564208	0.369496
13800		9.559844	-0.256243	1.996110	-0.043814	0.074532	-0.007079	-0.833496	-0.391113	-0.454346	0.683022	0.281110	-0.563886	0.369446
13801		9.434592	-0.330495	1.972171	-0.054965	0.036705	-0.002144	-0.839355	-0.399902	-0.460449	0.683307	0.280723	-0.563833	0.369295
13802		9.462555	-0.381046	2.049626	-0.050144	-0.014631	-0.004323	-0.826416	-0.396729	-0.466553	0.683354	0.280544	-0.564044	0.369022
13803		9.557640	-0.347217	1.974354	-0.068634	0.017794	-0.012736	-0.846191	-0.397461	-0.464355	0.683649	0.280183	-0.564091	0.368677
13804		9.606929	-0.332811	2.085323	-0.060809	0.008459	-0.020694	-0.838623	-0.390869	-0.463379	0.683876	0.279936	-0.564172	0.368321
13805		9.648957	-0.287041	2.216541	-0.051978	0.031015	-0.033968	-0.835449	-0.397949	-0.471924	0.684232	0.279719	-0.564066	0.367986
13806		9.619021	-0.262947	2.083559	-0.063510	0.098370	-0.036256	-0.832520	-0.388672	-0.461426	0.684960	0.279246	-0.563588	0.367723
13807		9.536345	-0.383312	2.063530	-0.070719	0.039861	-0.025162	-0.837891	-0.384277	-0.466553	0.685369	0.278857	-0.563511	0.367374
13808		9.532946	-0.464475	2.066512	-0.094791	0.013584	0.001552	-0.840576	-0.391113	-0.465820	0.685629	0.278265	-0.563725	0.367009
13809		9.475408	-0.449305	2.072556	-0.104023	0.029285	0.022590	-0.837646	-0.384766	-0.463867	0.685915	0.277495	-0.563924	0.366752
13810		9.422487	-0.397697	2.056473	-0.085567	0.014834	0.018317	-0.831543	-0.390869	-0.469482	0.686099	0.276888	-0.564143	0.366530
13811		9.429780	-0.331473	2.090172	-0.055866	0.020731	-0.015201	-0.830322	-0.382568	-0.470947	0.686364	0.276601	-0.564141	0.366253
13812		9.465500	-0.358617	2.253791	-0.034403	0.035162	-0.044013	-0.838867	-0.387695	-0.466553	0.686734	0.276506	-0.563932	0.365953
13813		9.518955	-0.369661	2.192995	-0.030341	0.025579	-0.044036	-0.831055	-0.390869	-0.473145	0.687031	0.276482	-0.563774	0.365656
13814		9.545208	-0.440753	2.140910	-0.030582	0.000395	-0.018100	-0.835449	-0.392578	-0.472412	0.687153	0.276411	-0.563804	0.365435
13815		9.520947	-0.507440	2.117535	-0.010751	-0.037113	0.019790	-0.837158	-0.391846	-0.475098	0.686931	0.276395	-0.564079	0.365441
13816		9.431264	-0.489508	2.044766	0.002217	-0.025288	0.037500	-0.835938	-0.390869	-0.472168	0.686684	0.276326	-0.564287	0.365635
13817		9.400138	-0.451230	1.885873	0.010883	-0.020326	0.032951	-0.842285	-0.384277	-0.475342	0.686452	0.276317	-0.564430	0.365857
13818		9.475741	-0.248988	2.127351	0.022507	-0.066495	0.011373	-0.833740	-0.380127	-0.462891	0.686039	0.276590	-0.564763	0.365911
13819		9.601886	-0.126389	2.258239	0.020879	-0.014452	-0.004535	-0.847412	-0.381104	-0.475830	0.685911	0.276784	-0.564772	0.365992
13820		9.637201	-0.334899	2.102776	0.013855	0.018586	-0.008968	-0.835938	-0.384766	-0.467529	0.685978	0.276829	-0.564606	0.366088
13821		9.593151	-0.543688	1.937825	0.021555	-0.045640	-0.002169	-0.831787	-0.389893	-0.473877	0.685702	0.277113	-0.564789	0.366107
13822		9.667117	-0.506727	2.143988	0.032102	-0.052623	0.019668	-0.836182	-0.388672	-0.469971	0.685323	0.277376	-0.565013	0.366272
13823		9.702162	-0.305594	2.175877	0.026164	0.015428	0.034563	-0.836914	-0.378418	-0.459961	0.685222	0.277329	-0.564909	0.366658
13824		9.599390	-0.244308	1.932524	0.012115	0.042417	0.026305	-0.837158	-0.385986	-0.471680	0.685282	0.277149	-0.564697	0.367008
13825		9.532328	-0.192462	1.896984	0.013339	0.002396	0.000325	-0.841309	-0.385742	-0.466797	0.685254	0.277221	-0.564630	0.367109
13826		9.604682	-0.217264	2.051056	-0.002216	-0.011151	-0.010757	-0.826172	-0.386963	-0.468994	0.685218	0.277304	-0.564672	0.367047
13827		9.596619	-0.348242	1.960133	-0.011254	0.004283	-0.009360	-0.831787	-0.391602	-0.464600	0.685294	0.277285	-0.564637	0.366975
13828		9.567275	-0.540231	1.927832	-0.012821	-0.024905	0.013121	-0.839844	-0.382812	-0.472900	0.685153	0.277261	-0.564830	0.366960
13829		9.545141	-0.496374	2.064065	-0.007762	-0.048323	0.022724	-0.843994	-0.383057	-0.465576	0.684866	0.277249	-0.565175	0.366972
13830		9.580266	-0.266802	2.161899	-0.009244	-0.004058	0.016290	-0.840332	-0.386719	-0.470459	0.684794	0.277136	-0.565267	0.367051
13831		9.554092	-0.221464	2.150811	-0.022696	0.035250	-0.008358	-0.842041	-0.395996	-0.472168	0.685028	0.276946	-0.565104	0.367007
13832		9.559105	-0.325964	1.964722	-0.010916	0.014656	-0.033729	-0.839111	-0.392822	-0.470703	0.685218	0.277028	-0.564954	0.366821
13833		9.553585	-0.555960	2.211087	0.010051	-0.010312	-0.043054	-0.835693	-0.392334	-0.461426	0.685270	0.277345	-0.564864	0.366625
13834		9.524825	-0.618164	2.205487	0.017744	0.016831	-0.030330	-0.840332	-0.385010	-0.472412	0.685378	0.277577	-0.564630	0.366608
13835		9.438079	-0.601821	1.846613	0.020957	0.027330	-0.002775	-0.832520	-0.392822	-0.469971	0.685456	0.277623	-0.564396	0.366786
13836		9.413672	-0.521019	1.821760	0.023787	-0.067030	0.018739	-0.839111	-0.387939	-0.464355	0.685024	0.277900	-0.564726	0.366876
13837		9.556657	-0.323162	2.043452	0.021407	-0.091130	0.032342	-0.836426	-0.385498	-0.468018	0.684426	0.278166	-0.565249	0.366986
13838		9.623305	-0.215584	2.122148	0.013824	-0.009183	0.028787	-0.841797	-0.385254	-0.465088	0.684254	0.278141	-0.565314	0.367224
13839		9.612251	-0.254763	2.095231	0.025334	-0.005367	0.009774	-0.835938	-0.385498	-0.465576	0.684122	0.278262	-0.565286	0.367422
13840		9.582918	-0.265088	2.221929	0.041382	-0.022261	-0.006054	-0.833008	-0.386475	-0.458008	0.683929	0.278603	-0.565261	0.367562
13841		9.551104	-0.243915	2.092778	0.030872	0.019484	-0.010364	-0.832031	-0.390381	-0.463623	0.683961	0.278792	-0.565021	0.367728
13842		9.571176	-0.281857	1.982973	0.014719	-0.013404	-0.001066	-0.840820	-0.390869	-0.461426	0.683859	0.278945	-0.565029	0.367790
13843		9.666787	-0.269196	2.192124	0.010954	-0.055121	0.015403	-0.839111	-0.384033	-0.464111	0.683506	0.279128	-0.565336	0.367835
13844		9.678844	-0.314311	2.369972	0.004812	0.020390	0.022347	-0.837646	-0.385010	-0.462158	0.683509	0.278988	-0.565252	0.368065
13845		9.545070	-0.468308	2.126461	0.002755	0.080140	0.018178	-0.844727	-0.387451	-0.464111	0.683808	0.278681	-0.564821	0.368402
13846		9.418435	-0.562571	1.897234	0.003017	0.035876	0.007021	-0.837891	-0.392578	-0.460449	0.683927	0.278566	-0.564620	0.368576
13847		9.475911	-0.572592	1.913168	0.012984	-0.015448	-0.005350	-0.835693	-0.384277	-0.468506	0.683820	0.278749	-0.564641	0.368606
13848		9.622861	-0.468723	2.142902	0.017922	-0.003781	-0.005915	-0.846924	-0.387695	-0.469971	0.683774	0.278888	-0.564581	0.368678
13849		9.699016	-0.352508	2.097371	0.012233	0.045142	0.004917	-0.841309	-0.385498	-0.461182	0.683929	0.278795	-0.564292	0.368901
13850		9.596532	-0.357149	2.029594	0.006400	0.050432	0.008490	-0.833496	-0.385742	-0.458252	0.684100	0.278649	-0.564004	0.369136
13851		9.503004	-0.410371	1.892011	0.013724	0.032933	0.014647	-0.839111	-0.379395	-0.467041	0.684154	0.278580	-0.563801	0.369398
13852		9.461201	-0.468646	1.811584	0.015461	0.016084	0.011013	-0.834961	-0.379395	-0.471680	0.684145	0.278554	-0.563689	0.369606
13853		9.579043	-0.469021	1.875473	0.019944	-0.024379	0.009482	-0.836426	-0.383545	-0.469971	0.683953	0.278679	-0.563782	0.369725
13854		9.716577	-0.362990	1.994594	0.011557	-0.001911	0.003885	-0.835693	-0.388672	-0.470459	0.683900	0.278726	-0.563756	0.369826
13855		9.734437	-0.286862	2.155679	0.015008	0.027171	-0.004079	-0.840332	-0.383057	-0.469971	0.684003	0.278755	-0.563528	0.369962
13856		9.596662	-0.288763	2.185239	0.013116	0.057483	-0.009179	-0.834473	-0.385010	-0.471924	0.684261	0.278686	-0.563134	0.370136
13857		9.391079	-0.379821	1.948600	-0.005084	0.058869	-0.009683	-0.836670	-0.387451	-0.470215	0.684578	0.278516	-0.562778	0.370220
13858		9.234522	-0.483368	1.685798	-0.004587	-0.019758	-0.009616	-0.835449	-0.392578	-0.469238	0.684517	0.278602	-0.562872	0.370127
13859		9.386455	-0.469161	1.768382	-0.000881	-0.096277	-0.008932	-0.841553	-0.388916	-0.466309	0.684087	0.278956	-0.563383	0.369875
13860		9.720295	-0.378355	2.173206	0.010931	-0.098092	-0.002678	-0.836182	-0.399414	-0.468506	0.683592	0.279345	-0.563896	0.369715
13861		9.882350	-0.305267	2.424005	0.000739	-0.015763	0.001703	-0.842041	-0.394287	-0.473145	0.683509	0.279425	-0.563957	0.369715
13862		9.669093	-0.369494	2.370126	0.003457	0.049329	-0.004772	-0.839355	-0.387451	-0.463135	0.683748	0.279325	-0.563634	0.369842
13863		9.385888	-0.463567	2.187605	0.016348	0.049588	-0.014854	-0.839355	-0.386475	-0.463379	0.683970	0.279347	-0.563260	0.369984
13864		9.304340	-0.387948	2.104673	0.018009	-0.008154	-0.011421	-0.836426	-0.395508	-0.470703	0.683905	0.279538	-0.563221	0.370020
13865		9.450378	-0.293916	2.313818	0.009722	-0.046200	-0.000472	-0.840332	-0.388672	-0.467773	0.683665	0.279758	-0.563428	0.369981
13866		9.608610	-0.222576	2.414535	-0.006433	0.000088	0.004249	-0.834961	-0.392090	-0.460693	0.683657	0.279705	-0.563447	0.370007
13867		9.601589	-0.253124	2.303138	-0.025140	0.050821	0.014783	-0.829346	-0.389160	-0.469971	0.683891	0.279364	-0.563254	0.370127
13868		9.553984	-0.326201	2.221446	-0.023632	0.032920	0.011894	-0.840332	-0.385986	-0.466309	0.684067	0.279080	-0.563142	0.370187
13869		9.513385	-0.335254	2.245405	-0.027216	0.037073	0.004062	-0.830078	-0.389404	-0.475586	0.684274	0.278796	-0.563019	0.370204
13870		9.567608	-0.308300	2.197210	-0.034370	0.064705	-0.005266	-0.833252	-0.387207	-0.468750	0.684684	0.278427	-0.562715	0.370186
13871		9.599559	-0.226949	2.216551	-0.033022	0.054601	-0.005820	-0.839355	-0.387695	-0.464111	0.685025	0.278108	-0.562477	0.370157
13872		9.547961	-0.299738	2.150395	-0.029700	0.054164	-0.005172	-0.836914	-0.389893	-0.461914	0.685338	0.277816	-0.562243	0.370154
13873		9.388903	-0.487950	1.797147	-0.013001	0.043837	-0.014458	-0.835693	-0.391846	-0.479736	0.685588	0.277707	-0.561991	0.370153
13874		9.313268	-0.722535	1.654202	0.003066	-0.015068	-0.015984	-0.832764	-0.390381	-0.462646	0.685564	0.277852	-0.562006	0.370067
13875		9.474522	-0.706078	1.775309	0.019975	-0.054108	-0.001529	-0.834229	-0.386963	-0.468750	0.685244	0.278173	-0.562238	0.370065
13876		9.686629	-0.475518	1.873175	0.021784	-0.037124	0.003578	-0.829346	-0.388184	-0.469971	0.684995	0.278406	-0.562381	0.370135
13877		9.748503	-0.282279	1.908032	0.012462	-0.018397	-0.000664	-0.832275	-0.395020	-0.473877	0.684877	0.278549	-0.562426	0.370176
13878		9.698008	-0.188558	1.877301	-0.007078	-0.020117	-0.007767	-0.831543	-0.391357	-0.461670	0.684825	0.278627	-0.562516	0.370078
13879		9.652673	-0.252742	1.878347	-0.018819	-0.030644	-0.012519	-0.833252	-0.394287	-0.473145	0.684744	0.278706	-0.562705	0.369882
13880		9.624568	-0.403432	1.928075	-0.024579	-0.035844	-0.013696	-0.834717	-0.388428	-0.467285	0.684675	0.278759	-0.562927	0.369630
13881		9.570392	-0.459092	1.911004	-0.016452	-0.034785	-0.010489	-0.829834	-0.382324	-0.470215	0.684571	0.278833	-0.563140	0.369442
13882		9.559201	-0.417657	1.893859	-0.006456	-0.039926	-0.003760	-0.836670	-0.393311	-0.464844	0.684409	0.278928	-0.563368	0.369323
13883		9.581924	-0.353828	1.919991	0.002604	-0.055381	-0.005155	-0.838135	-0.393066	-0.467773	0.684144	0.279165	-0.563649	0.369207
13884		9.648454	-0.324266	2.059955	0.006600	-0.040845	-0.006698	-0.842041	-0.391846	-0.461914	0.683948	0.279378	-0.563829	0.369133
13885		9.649905	-0.347472	2.081552	-0.002227	-0.018215	-0.006820	-0.841064	-0.388184	-0.470459	0.683866	0.279477	-0.563918	0.369074
13886		9.567293	-0.377862	2.017896	-0.005034	-0.021871	-0.008185	-0.826904	-0.398682	-0.458740	0.683794	0.279552	-0.564031	0.368979
13887		9.582668	-0.376421	1.939986	-0.013116	-0.035245	-0.009846	-0.836914	-0.379883	-0.459961	0.683679	0.279683	-0.564217	0.368809
13888		9.593400	-0.379430	2.043692	-0.019795	-0.043728	-0.011219	-0.835449	-0.389404	-0.461670	0.683533	0.279751	-0.564508	0.368582
13889		9.622027	-0.291241	2.093843	-0.018089	-0.021898	-0.013961	-0.839844	-0.388184	-0.466553	0.683502	0.279798	-0.564644	0.368396
13890		9.593205	-0.329422	2.153235	-0.016868	-0.002143	-0.015218	-0.844971	-0.390869	-0.458496	0.683569	0.279782	-0.564664	0.368252
13891		9.520385	-0.416484	2.160987	-0.003398	-0.009342	-0.010991	-0.835449	-0.390381	-0.458252	0.683539	0.279865	-0.564702	0.368187
13892		9.472872	-0.437709	2.187738	0.000409	-0.013820	-0.011046	-0.838379	-0.385742	-0.462646	0.683488	0.279986	-0.564743	0.368127
13893		9.457182	-0.338425	2.153799	0.005630	-0.012495	-0.013955	-0.839600	-0.381592	-0.457764	0.683445	0.280124	-0.564760	0.368075
13894		9.507476	-0.298190	2.232957	0.011790	-0.035659	-0.014426	-0.840332	-0.396484	-0.466064	0.683270	0.280367	-0.564901	0.368000
13895		9.603930	-0.247420	2.435004	0.007869	-0.014075	-0.011944	-0.836670	-0.386475	-0.463379	0.683214	0.280532	-0.564909	0.367965
13896		9.585736	-0.277930	2.456952	-0.015192	0.040858	-0.005978	-0.835693	-0.389648	-0.462646	0.683452	0.280348	-0.564700	0.367984
13897		9.520291	-0.321148	2.360456	-0.041757	0.046219	0.002191	-0.840576	-0.389648	-0.462646	0.683749	0.279970	-0.564557	0.367939
13898		9.461487	-0.282228	2.249935	-0.037489	0.028813	-0.000223	-0.839600	-0.384521	-0.465820	0.683955	0.279681	-0.564500	0.367864
13899		9.455571	-0.388150	2.124338	-0.026115	0.034733	-0.005837	-0.837891	-0.397461	-0.463379	0.684184	0.279448	-0.564365	0.367821
13900		9.469235	-0.478887	1.929234	-0.013716	0.026380	-0.012102	-0.842529	-0.389404	-0.462402	0.684362	0.279382	-0.564206	0.367785
13901		9.549369	-0.502034	1.964045	-0.000753	-0.004473	-0.004918	-0.833496	-0.380859	-0.462402	0.684334	0.279430	-0.564219	0.367782
13902		9.574862	-0.346224	1.848781	-0.023536	0.023686	0.002515	-0.839600	-0.390869	-0.457520	0.684476	0.279206	-0.564161	0.367774
13903		9.571641	-0.137911	1.752762	-0.031680	0.007596	0.010278	-0.844238	-0.385254	-0.465088	0.684524	0.278984	-0.564234	0.367744
13904		9.607308	-0.072988	1.805644	-0.045914	-0.025393	0.010391	-0.840332	-0.393555	-0.467041	0.684457	0.278752	-0.564547	0.367564
13905		9.638658	-0.172129	1.759835	-0.054559	-0.024229	0.002317	-0.839844	-0.379883	-0.469482	0.684449	0.278526	-0.564841	0.367296
13906		9.652304	-0.356924	1.860856	-0.044313	-0.035342	-0.011524	-0.837158	-0.382812	-0.466553	0.684412	0.278418	-0.565155	0.366965
13907		9.681389	-0.377452	1.999169	-0.055344	-0.016847	-0.026282	-0.831543	-0.391357	-0.467285	0.684531	0.278274	-0.565356	0.366543
13908		9.613392	-0.425429	1.983534	-0.063086	0.000789	-0.038802	-0.832764	-0.377197	-0.456543	0.684796	0.278115	-0.565430	0.366053
13909		9.537697	-0.474059	2.090246	-0.061540	-0.003918	-0.046469	-0.839600	-0.391357	-0.470703	0.685036	0.277996	-0.565540	0.365525
13910		9.554900	-0.475332	1.985409	-0.070111	0.013543	-0.046501	-0.831543	-0.389160	-0.470215	0.685396	0.277786	-0.565553	0.364988
13911		9.559138	-0.527586	2.005153	-0.059506	-0.014565	-0.036740	-0.834229	-0.392578	-0.465576	0.685575	0.277674	-0.565713	0.364489
13912		9.613298	-0.450163	2.064037	-0.043095	-0.011804	-0.017575	-0.833496	-0.393066	-0.471680	0.685660	0.277574	-0.565852	0.364191
13913		9.673202	-0.383280	1.986345	-0.032569	0.017819	0.003860	-0.838867	-0.381104	-0.466797	0.685806	0.277333	-0.565834	0.364128
13914		9.608469	-0.367806	2.112865	-0.018017	-0.001357	0.011358	-0.830811	-0.390625	-0.470703	0.685789	0.277176	-0.565926	0.364135
13915		9.557008	-0.266547	2.107566	-0.024800	0.036796	0.004053	-0.836182	-0.385498	-0.470947	0.686006	0.276920	-0.565777	0.364153
13916		9.396014	-0.333856	1.945557	-0.024983	0.029639	-0.006361	-0.836670	-0.391113	-0.462158	0.686214	0.276720	-0.565660	0.364095
13917		9.415373	-0.318319	1.876220	-0.012823	-0.030780	-0.014040	-0.841797	-0.385742	-0.471191	0.686116	0.276840	-0.565831	0.363923
13918		9.506948	-0.343334	2.105546	0.003277	-0.061224	-0.011900	-0.839111	-0.382568	-0.467529	0.685842	0.277102	-0.566141	0.363758
13919		9.650783	-0.373378	2.131765	0.000205	-0.022792	-0.003388	-0.839355	-0.387939	-0.467529	0.685728	0.277187	-0.566263	0.363717
13920		9.562346	-0.362892	2.198934	-0.002449	-0.021600	0.013495	-0.840088	-0.388428	-0.469238	0.685576	0.277186	-0.566417	0.363765
13921		9.500767	-0.239308	2.128599	-0.014623	-0.006147	0.018323	-0.835449	-0.390381	-0.462402	0.685513	0.277045	-0.566529	0.363817
13922		9.484251	-0.179742	2.102719	-0.010243	-0.034908	0.014117	-0.841064	-0.384033	-0.463135	0.685310	0.277056	-0.566777	0.363806
13923		9.537445	-0.274498	2.122622	-0.011985	-0.038265	0.002636	-0.832031	-0.378418	-0.467285	0.685126	0.277101	-0.567037	0.363711
13924		9.562544	-0.429553	2.061183	-0.006467	-0.017695	0.000841	-0.836426	-0.389404	-0.475342	0.685049	0.277104	-0.567155	0.363670
13925		9.562602	-0.401742	2.127250	-0.007938	-0.003216	-0.004813	-0.839355	-0.384277	-0.464844	0.685073	0.277095	-0.567164	0.363619
13926		9.612746	-0.234752	2.161087	-0.012364	0.008772	-0.007141	-0.835938	-0.389893	-0.468018	0.685148	0.277039	-0.567130	0.363573
13927		9.557233	-0.258748	2.050283	-0.009860	0.025086	-0.011176	-0.827393	-0.393555	-0.462158	0.685316	0.276978	-0.566971	0.363551
13928		9.540238	-0.435979	1.808308	-0.016327	-0.000604	-0.003324	-0.836670	-0.389648	-0.469971	0.685350	0.276944	-0.566985	0.363491
13929		9.608096	-0.582174	1.976729	-0.019449	-0.063321	0.005508	-0.834473	-0.379639	-0.472168	0.685073	0.277014	-0.567399	0.363313
13930		9.727068	-0.433568	2.128773	-0.019627	-0.001200	0.011037	-0.835205	-0.393311	-0.466797	0.685081	0.276837	-0.567483	0.363302
13931		9.617463	-0.317231	1.943798	-0.017982	0.075538	-0.001850	-0.839844	-0.388916	-0.468018	0.685477	0.276545	-0.567076	0.363414
13932		9.489861	-0.293486	1.721453	0.001693	0.039639	-0.011003	-0.836670	-0.384521	-0.478271	0.685680	0.276505	-0.566805	0.363483
13933		9.505645	-0.423828	1.762407	0.013848	-0.006727	-0.014675	-0.837402	-0.394775	-0.472168	0.685668	0.276663	-0.566753	0.363468
13934		9.652165	-0.542390	1.914745	0.010193	-0.019902	-0.003723	-0.839355	-0.386475	-0.469482	0.685557	0.276824	-0.566801	0.363478
13935		9.644145	-0.464637	1.880260	0.007782	-0.010213	0.018860	-0.833252	-0.385742	-0.469238	0.685423	0.276817	-0.566870	0.363628
13936		9.566939	-0.356310	1.771295	0.016263	-0.025215	0.030670	-0.842285	-0.384766	-0.470459	0.685169	0.276849	-0.567020	0.363849
13937		9.505521	-0.327748	1.739402	0.026707	-0.051104	0.018200	-0.835693	-0.388672	-0.460205	0.684801	0.277070	-0.567268	0.363988
13938		9.618986	-0.201192	1.866292	0.047470	-0.054465	0.004934	-0.837158	-0.386230	-0.464111	0.684399	0.277512	-0.567432	0.364150
13939		9.731434	-0.229433	1.978293	0.049856	-0.011680	-0.008293	-0.838135	-0.390625	-0.459229	0.684242	0.277883	-0.567318	0.364341
13940		9.654660	-0.384864	2.109077	0.052417	-0.001078	-0.013196	-0.832520	-0.389404	-0.469971	0.684136	0.278277	-0.567121	0.364546
13941		9.522535	-0.506509	2.092839	0.048273	-0.010646	0.000077	-0.838867	-0.386230	-0.460938	0.683978	0.278592	-0.567012	0.364771
13942		9.370584	-0.410580	1.913186	0.024368	-0.033359	0.021891	-0.836670	-0.386963	-0.461670	0.683681	0.278740	-0.567173	0.364965
13943		9.474634	-0.281073	1.927789	0.013723	-0.093372	0.031674	-0.833984	-0.383545	-0.462891	0.683100	0.278964	-0.567725	0.365023
13944		9.736238	-0.217903	2.168770	0.011982	-0.074263	0.027560	-0.841309	-0.386230	-0.451416	0.682633	0.279128	-0.568164	0.365088
13945		9.887374	-0.256679	2.412487	0.025730	0.002076	0.010664	-0.833740	-0.387695	-0.460449	0.682522	0.279242	-0.568096	0.365314
13946		9.654377	-0.327833	2.358724	0.033724	0.095270	-0.010360	-0.840576	-0.391113	-0.461182	0.682921	0.279207	-0.567408	0.365664
13947		9.249823	-0.357062	1.917270	0.032707	0.087458	-0.018609	-0.837158	-0.397461	-0.462646	0.683303	0.279235	-0.566751	0.365948
13948		9.127822	-0.378358	1.728012	0.026742	-0.042201	-0.015671	-0.841309	-0.386475	-0.452881	0.683080	0.279625	-0.566845	0.365920
13949		9.499792	-0.370538	1.926767	0.007753	-0.106212	0.009871	-0.840576	-0.382324	-0.459473	0.682501	0.279966	-0.567449	0.365804
13950		9.814410	-0.328810	2.177505	-0.011871	-0.054310	0.028650	-0.842773	-0.386230	-0.468994	0.682172	0.279925	-0.567860	0.365813
13951		9.909611	-0.273486	2.336160	-0.021097	0.018120	0.033172	-0.838379	-0.387939	-0.464844	0.682209	0.279582	-0.567887	0.365964
13952		9.715968	-0.280695	2.323423	-0.028609	0.086477	0.019010	-0.833740	-0.394287	-0.459229	0.682627	0.279070	-0.567508	0.366163
13953		9.347715	-0.416157	1.795000	-0.027071	0.113660	-0.004936	-0.838379	-0.384277	-0.465820	0.683234	0.278627	-0.566904	0.366304
13954		9.231288	-0.470877	1.497738	0.013876	0.003455	-0.029594	-0.837158	-0.391113	-0.467773	0.683302	0.278836	-0.566762	0.366236
13955		9.684989	-0.439664	2.007539	0.022675	-0.084294	-0.016154	-0.839355	-0.389404	-0.463379	0.682900	0.279311	-0.567113	0.366081
13956		10.013196	-0.362014	2.616243	0.003181	0.001210	0.015664	-0.838867	-0.388916	-0.460693	0.682843	0.279264	-0.567118	0.366217
13957		9.773204	-0.269925	2.292293	-0.024975	0.177556	0.034822	-0.842529	-0.389160	-0.470215	0.683621	0.278431	-0.566250	0.366742
13958		9.161691	-0.289416	1.528148	-0.023233	0.140160	0.025155	-0.834473	-0.396240	-0.465332	0.684254	0.277757	-0.565565	0.367128
13959		9.039102	-0.414801	1.288859	-0.004193	-0.066389	0.010366	-0.836182	-0.385010	-0.473633	0.683910	0.277926	-0.565951	0.367047
13960		9.493712	-0.498776	1.876599	0.012331	-0.140328	0.009734	-0.837891	-0.382080	-0.468018	0.683194	0.278373	-0.566719	0.366856
13961		9.982320	-0.420495	2.322722	0.019956	-0.027106	0.018718	-0.833496	-0.380859	-0.460693	0.682961	0.278475	-0.566846	0.367018
13962		9.948857	-0.340137	2.259224	0.015793	0.094966	0.017560	-0.835693	-0.390625	-0.462646	0.683309	0.278195	-0.566289	0.367442
13963		9.584296	-0.310577	1.933753	0.018242	0.092606	0.013235	-0.828369	-0.392578	-0.467285	0.683653	0.277979	-0.565715	0.367849
13964		9.239233	-0.367142	1.650432	0.012829	0.021053	0.003563	-0.836182	-0.377686	-0.468262	0.683714	0.277997	-0.565531	0.368005
13965		9.261894	-0.388237	1.478793	0.024043	-0.061205	-0.002036	-0.844482	-0.388428	-0.469727	0.683371	0.278317	-0.565799	0.367989
13966		9.697636	-0.424645	1.840248	0.034229	-0.117885	0.006551	-0.837891	-0.382080	-0.460205	0.682708	0.278848	-0.566369	0.367939
13967		10.024495	-0.362696	2.330728	0.025038	-0.052373	0.022659	-0.836426	-0.387695	-0.454102	0.682319	0.279049	-0.566638	0.368094
13968		9.967643	-0.342123	2.430885	0.013975	0.079076	0.028778	-0.838135	-0.387451	-0.465332	0.682551	0.278778	-0.566201	0.368542
13969		9.534972	-0.295155	2.077102	0.009735	0.131300	0.013321	-0.841064	-0.388916	-0.466309	0.683102	0.278377	-0.565438	0.368995
13970		9.184439	-0.300893	1.852335	0.017436	0.022886	-0.009749	-0.833008	-0.386719	-0.456055	0.683190	0.278467	-0.565217	0.369103
13971		9.185991	-0.406554	1.935875	0.018903	-0.065517	-0.021216	-0.839355	-0.385742	-0.459961	0.682883	0.278904	-0.565470	0.368954
13972		9.333081	-0.439004	2.022155	0.014520	-0.046957	-0.014067	-0.838379	-0.394043	-0.466797	0.682653	0.279212	-0.565653	0.368866
13973		9.560805	-0.495257	1.973039	0.003509	-0.043065	0.004293	-0.838135	-0.379395	-0.462402	0.682427	0.279365	-0.565873	0.368832
13974		9.773965	-0.414326	2.070053	-0.012357	-0.063174	0.012795	-0.840820	-0.387939	-0.466797	0.682108	0.279421	-0.566298	0.368727
13975		9.886688	-0.358453	2.213711	-0.026595	-0.018553	0.005606	-0.842285	-0.388916	-0.461670	0.682063	0.279305	-0.566483	0.368614
13976		9.804397	-0.463630	2.233428	-0.017369	0.037232	-0.010222	-0.836426	-0.389404	-0.461670	0.682299	0.279156	-0.566288	0.368590
13977		9.670450	-0.578818	2.150880	0.006011	0.065943	-0.017961	-0.840088	-0.387695	-0.462158	0.682643	0.279092	-0.565833	0.368699
13978		9.534257	-0.562295	2.127165	0.031420	0.063772	-0.019256	-0.842041	-0.388184	-0.468262	0.682917	0.279179	-0.565317	0.368917
13979		9.482866	-0.448705	2.052459	0.034491	0.054322	-0.010845	-0.833008	-0.383301	-0.467285	0.683120	0.279264	-0.564864	0.369171
13980		9.530163	-0.325944	2.083084	0.011314	0.046453	0.001029	-0.833496	-0.394287	-0.460205	0.683308	0.279177	-0.564553	0.369364
13981		9.609419	-0.228689	2.148249	-0.019081	0.046928	0.009145	-0.840332	-0.389160	-0.470947	0.683531	0.278916	-0.564343	0.369470
13982		9.645921	-0.199092	2.113126	-0.044502	0.075010	0.002621	-0.844238	-0.384033	-0.468018	0.683975	0.278424	-0.564044	0.369476
13983		9.605794	-0.228501	2.000486	-0.053034	0.078877	-0.014930	-0.834229	-0.386475	-0.469727	0.684499	0.277949	-0.563721	0.369356
13984		9.478018	-0.295271	1.914661	-0.046985	0.051745	-0.036861	-0.839111	-0.386230	-0.474609	0.684958	0.277703	-0.563471	0.369073
13985		9.408907	-0.369502	1.840205	-0.038235	0.045782	-0.044642	-0.836670	-0.390625	-0.470459	0.685393	0.277552	-0.563214	0.368769
13986		9.357618	-0.446535	1.751834	-0.032195	0.019940	-0.035711	-0.837646	-0.388672	-0.466064	0.685660	0.277492	-0.563102	0.368490
13987		9.426400	-0.454868	1.706151	-0.021587	-0.024770	-0.018063	-0.834473	-0.392334	-0.468262	0.685628	0.277549	-0.563261	0.368263
13988		9.561812	-0.367955	1.787322	-0.017588	-0.042749	-0.009484	-0.828613	-0.384277	-0.465088	0.685484	0.277649	-0.563520	0.368058
13989		9.666992	-0.269163	1.969463	-0.018805	-0.042705	-0.015285	-0.837891	-0.394287	-0.472900	0.685361	0.277757	-0.563777	0.367813
13990		9.700700	-0.251694	2.083804	-0.036164	-0.036498	-0.024330	-0.836914	-0.384277	-0.464844	0.685342	0.277795	-0.564021	0.367446
13991		9.600333	-0.283975	2.105232	-0.058413	-0.020876	-0.032707	-0.844238	-0.387939	-0.463867	0.685460	0.277688	-0.564242	0.366967
13992		9.464791	-0.323191	2.037902	-0.054589	-0.032823	-0.039197	-0.840820	-0.392334	-0.467529	0.685524	0.277678	-0.564507	0.366446
13993		9.424813	-0.381209	2.020664	-0.036419	-0.063615	-0.042179	-0.842773	-0.392822	-0.466309	0.685421	0.277884	-0.564874	0.365918
13994		9.466707	-0.485735	2.153263	-0.028862	-0.067363	-0.028050	-0.838867	-0.388184	-0.471436	0.685236	0.278079	-0.565273	0.365499
13995		9.555090	-0.459745	2.172137	-0.017815	-0.056358	-0.009860	-0.838867	-0.385498	-0.471680	0.685036	0.278197	-0.565617	0.365252
13996		9.620239	-0.327098	2.133389	-0.008203	-0.029092	0.008256	-0.836670	-0.390381	-0.465088	0.684888	0.278195	-0.565821	0.365216
13997		9.637466	-0.278811	2.158052	0.014149	-0.042895	0.010237	-0.834229	-0.386963	-0.473145	0.684609	0.278376	-0.566034	0.365272
13998		9.585478	-0.319156	2.083375	0.015925	-0.022655	0.004517	-0.833008	-0.387939	-0.464111	0.684455	0.278510	-0.566109	0.365340
13999		9.532047	-0.396355	1.925640	0.005319	-0.009570	-0.006170	-0.839600	-0.396729	-0.469971	0.684408	0.278611	-0.566119	0.365336
14000		9.520025	-0.294199	1.876381	-0.006945	-0.052008	-0.015537	-0.845703	-0.387451	-0.462402	0.684223	0.278824	-0.566378	0.365120
14001		9.567151	-0.197959	1.930923	-0.014259	-0.055713	-0.021830	-0.838379	-0.390137	-0.457031	0.684038	0.279025	-0.566689	0.364831
14002		9.609687	-0.296180	1.990426	-0.007418	-0.038607	-0.026566	-0.834473	-0.389648	-0.470215	0.683931	0.279250	-0.566861	0.364590
14003		9.604830	-0.438266	1.937686	0.006259	-0.020809	-0.020407	-0.837158	-0.384033	-0.462158	0.683885	0.279446	-0.566895	0.364475
14004		9.573526	-0.479441	2.007833	0.007074	-0.038910	-0.011007	-0.842773	-0.396729	-0.461670	0.683707	0.279656	-0.567066	0.364382
14005		9.572732	-0.368527	1.915800	0.003993	-0.038855	-0.007675	-0.838379	-0.397461	-0.461914	0.683522	0.279859	-0.567242	0.364298
14006		9.621085	-0.228294	1.982290	0.000397	-0.042679	-0.008461	-0.833984	-0.386475	-0.462402	0.683336	0.280058	-0.567442	0.364182
14007		9.684137	-0.177884	2.111277	-0.003760	-0.034893	-0.013936	-0.838867	-0.393555	-0.458496	0.683218	0.280210	-0.567609	0.364027
14008		9.711482	-0.309594	2.087773	-0.001141	0.005950	-0.014388	-0.845947	-0.395996	-0.472168	0.683279	0.280275	-0.567530	0.363985
14009		9.742749	-0.428130	2.073422	0.003910	0.027170	-0.012272	-0.835938	-0.387939	-0.467041	0.683438	0.280276	-0.567318	0.364017
14010		9.736427	-0.419943	2.217310	-0.002440	0.027569	0.002294	-0.847656	-0.398682	-0.462402	0.683569	0.280163	-0.567161	0.364103
14011		9.651768	-0.354871	2.215831	-0.022349	0.057649	0.008239	-0.833496	-0.388916	-0.464600	0.683852	0.279846	-0.566906	0.364212
14012		9.411275	-0.329828	1.905379	-0.031102	0.087448	0.006879	-0.837891	-0.387451	-0.462402	0.684313	0.279376	-0.566503	0.364333
14013		9.304437	-0.333045	1.683665	-0.019177	0.026179	-0.004289	-0.838379	-0.396973	-0.466553	0.684481	0.279215	-0.566395	0.364310
14014		9.501340	-0.313198	1.803410	-0.023063	-0.022507	-0.014491	-0.834229	-0.391113	-0.457275	0.684465	0.279243	-0.566539	0.364094
14015		9.727129	-0.318631	1.970118	-0.032500	0.005068	-0.016792	-0.837402	-0.389160	-0.461182	0.684597	0.279146	-0.566558	0.363891
14016		9.833988	-0.227637	2.130164	-0.035060	0.035153	-0.014495	-0.833252	-0.390137	-0.465088	0.684872	0.278922	-0.566422	0.363757
14017		9.682884	-0.126664	1.949353	-0.055061	0.077078	-0.020330	-0.837158	-0.386230	-0.458740	0.685418	0.278482	-0.566087	0.363587
14018		9.443110	-0.201518	1.660294	-0.043971	0.048439	-0.026468	-0.839355	-0.392334	-0.463867	0.685804	0.278224	-0.565881	0.363377
14019		9.471568	-0.381301	1.692561	-0.015927	-0.019733	-0.031304	-0.832031	-0.393066	-0.464844	0.685823	0.278362	-0.565961	0.363111
14020		9.581982	-0.582060	1.847160	-0.010290	0.000079	-0.027471	-0.832031	-0.390869	-0.465820	0.685920	0.278454	-0.565912	0.362934
14021		9.708114	-0.601252	2.079675	0.004292	0.015026	-0.020294	-0.834961	-0.392334	-0.465576	0.686033	0.278543	-0.565753	0.362901
14022		9.725194	-0.301541	2.154185	-0.002844	0.044536	-0.009407	-0.830811	-0.391602	-0.467529	0.686264	0.278453	-0.565473	0.362967
14023		9.553678	-0.103678	2.049421	-0.011530	0.051749	-0.006333	-0.838623	-0.395264	-0.468750	0.686547	0.278275	-0.565183	0.363023
14024		9.425486	-0.155618	2.008262	-0.014472	0.015179	-0.002746	-0.839600	-0.393799	-0.465820	0.686646	0.278178	-0.565121	0.363005
14025		9.503049	-0.305087	2.029047	-0.020268	-0.002996	-0.003426	-0.841553	-0.393066	-0.465820	0.686669	0.278109	-0.565184	0.362917
14026		9.547587	-0.405209	1.989605	-0.010356	0.022075	-0.018450	-0.835205	-0.395996	-0.463379	0.686830	0.278089	-0.565042	0.362848
14027		9.574182	-0.340725	2.076118	0.000791	0.021873	-0.025681	-0.834473	-0.390381	-0.480957	0.686988	0.278180	-0.564841	0.362792
14028		9.514284	-0.236980	2.194241	0.001366	0.028023	-0.029442	-0.833008	-0.385742	-0.461426	0.687212	0.278232	-0.564595	0.362710
14029		9.481706	-0.240140	2.003147	-0.010690	0.042145	-0.017444	-0.833984	-0.389893	-0.469482	0.687463	0.278136	-0.564348	0.362693
14030		9.481816	-0.302233	1.945125	-0.016649	-0.014245	0.008241	-0.835449	-0.393555	-0.467773	0.687396	0.278053	-0.564493	0.362657
14031		9.613730	-0.377831	2.114942	-0.017574	-0.059623	0.027180	-0.837646	-0.388672	-0.469482	0.687057	0.278024	-0.564942	0.362625
14032		9.632390	-0.345193	2.277342	-0.008017	-0.014070	0.023511	-0.839600	-0.383301	-0.470459	0.686923	0.277915	-0.565098	0.362718
14033		9.487545	-0.266536	2.196123	0.003348	0.053184	-0.002439	-0.833984	-0.389160	-0.463867	0.687158	0.277776	-0.564784	0.362869
14034		9.341957	-0.219997	2.031792	0.027257	0.023481	-0.036053	-0.839844	-0.397217	-0.470215	0.687292	0.278049	-0.564478	0.362881
14035		9.371515	-0.399784	1.966913	0.017536	-0.038121	-0.032673	-0.833252	-0.391357	-0.466553	0.687154	0.278441	-0.564555	0.362722
14036		9.549443	-0.407578	1.942175	0.022111	-0.076662	0.002577	-0.834229	-0.396240	-0.468018	0.686718	0.278802	-0.564925	0.362695
14037		9.719133	-0.267153	2.056042	0.006760	-0.052080	0.034691	-0.842529	-0.390625	-0.472168	0.686340	0.278856	-0.565267	0.362836
14038		9.750326	-0.119583	2.247685	-0.007262	-0.016738	0.044254	-0.839600	-0.390869	-0.464600	0.686133	0.278655	-0.565485	0.363042
14039		9.575105	-0.036342	2.175225	-0.026246	0.050288	0.016026	-0.832520	-0.399414	-0.469727	0.686362	0.278292	-0.565309	0.363160
14040		9.434594	-0.203448	1.843794	-0.043271	0.042118	-0.016974	-0.836670	-0.391357	-0.469238	0.686706	0.278026	-0.565134	0.362988
14041		9.472303	-0.371157	1.769825	-0.046340	-0.044493	-0.025360	-0.841064	-0.387451	-0.472656	0.686668	0.278026	-0.565461	0.362551
14042		9.683586	-0.388951	1.985905	-0.057489	-0.054562	-0.015166	-0.824463	-0.387207	-0.469971	0.686579	0.277930	-0.565911	0.362090
14043		9.822684	-0.237206	2.206697	-0.059982	-0.019709	0.005526	-0.828369	-0.388184	-0.469727	0.686609	0.277623	-0.566202	0.361814
14044		9.659000	-0.107796	2.085572	-0.069353	0.055141	0.012843	-0.830078	-0.387939	-0.464355	0.686987	0.277006	-0.566111	0.361710
14045		9.360605	-0.160102	1.829027	-0.049162	0.036485	0.003165	-0.827148	-0.386230	-0.474854	0.687248	0.276618	-0.566047	0.361613
14046		9.326820	-0.447335	1.692810	-0.023132	-0.038692	-0.003147	-0.828369	-0.392334	-0.476074	0.687131	0.276616	-0.566317	0.361414
14047		9.512118	-0.649043	1.890821	-0.016404	-0.076996	0.001468	-0.834229	-0.388916	-0.469971	0.686806	0.276757	-0.566788	0.361186
14048		9.708621	-0.457946	2.069773	-0.001579	-0.059244	0.013581	-0.832275	-0.385498	-0.477783	0.686480	0.276873	-0.567151	0.361146
14049		9.614402	-0.213513	2.016074	0.002607	-0.011652	0.021719	-0.833008	-0.390381	-0.459229	0.686361	0.276810	-0.567248	0.361267
14050		9.445341	-0.176356	1.882395	0.010217	-0.029823	0.021338	-0.838135	-0.393066	-0.472412	0.686109	0.276889	-0.567424	0.361408
14051		9.526138	-0.284635	1.903023	0.023107	-0.078578	0.034100	-0.840332	-0.388916	-0.465332	0.685578	0.277111	-0.567865	0.361555
14052		9.675626	-0.410192	2.044473	0.037509	-0.062376	0.034168	-0.832275	-0.390137	-0.474609	0.685077	0.277366	-0.568179	0.361814
14053		9.804696	-0.421899	2.118135	0.054963	-0.011145	0.027638	-0.841309	-0.395508	-0.465088	0.684824	0.277585	-0.568119	0.362220
14054		9.809798	-0.340247	2.108724	0.072720	0.026105	0.019284	-0.837158	-0.384766	-0.460938	0.684709	0.277858	-0.567776	0.362767
14055		9.608041	-0.264525	2.062228	0.082754	0.048567	0.016160	-0.836914	-0.388672	-0.464111	0.684681	0.278117	-0.567281	0.363393
14056		9.497753	-0.233888	1.845970	0.068998	0.048638	0.021233	-0.833496	-0.388428	-0.466797	0.684676	0.278276	-0.566832	0.363982
14057		9.538221	-0.338118	1.915395	0.047501	-0.014655	0.029220	-0.837891	-0.381836	-0.466309	0.684403	0.278463	-0.566825	0.364362
14058		9.673219	-0.391845	2.216966	0.026339	-0.029387	0.034162	-0.842041	-0.390137	-0.468994	0.684091	0.278534	-0.566992	0.364634
14059		9.572984	-0.381725	2.086628	0.013571	0.054784	0.028184	-0.837402	-0.387939	-0.459717	0.684227	0.278318	-0.566692	0.365009
14060		9.349614	-0.463579	1.784873	0.036316	0.048879	0.017647	-0.836426	-0.387695	-0.464355	0.684302	0.278313	-0.566335	0.365428
14061		9.440968	-0.452291	1.845644	0.057908	-0.026864	0.010562	-0.830811	-0.379150	-0.465576	0.683998	0.278687	-0.566325	0.365727
14062		9.674257	-0.431813	2.219672	0.040356	-0.028437	0.016459	-0.840576	-0.390381	-0.461426	0.683717	0.278916	-0.566399	0.365963
14063		9.816678	-0.312983	2.440185	0.011224	0.033656	0.028089	-0.833984	-0.385010	-0.459229	0.683748	0.278764	-0.566227	0.366287
14064		9.583295	-0.171218	2.108827	-0.014965	0.096913	0.029203	-0.843018	-0.387695	-0.464355	0.684135	0.278258	-0.565780	0.366640
14065		9.298394	-0.214718	1.707140	-0.014349	0.034242	0.007844	-0.838623	-0.386963	-0.461670	0.684288	0.278047	-0.565641	0.366729
14066		9.349320	-0.351414	1.814894	-0.010213	-0.050347	0.002752	-0.835449	-0.395508	-0.468506	0.684047	0.278148	-0.565957	0.366614
14067		9.681336	-0.443521	2.266718	-0.014058	-0.040208	0.003684	-0.832275	-0.388184	-0.461182	0.683876	0.278197	-0.566212	0.366501
14068		9.792021	-0.416054	2.351611	-0.033637	0.061145	0.009870	-0.841553	-0.384766	-0.470215	0.684201	0.277792	-0.565973	0.366571
14069		9.539171	-0.232211	1.870115	-0.051766	0.098941	0.009048	-0.832031	-0.389648	-0.463135	0.684753	0.277152	-0.565582	0.366631
14070		9.353793	-0.142825	1.504800	-0.047065	-0.001925	-0.007308	-0.838379	-0.376709	-0.468750	0.684861	0.276950	-0.565701	0.366397
14071		9.639765	-0.232544	1.852656	-0.037320	-0.076374	-0.019099	-0.842041	-0.383301	-0.468262	0.684635	0.277050	-0.566211	0.365957
14072		10.071337	-0.363938	2.462645	-0.039996	-0.015626	-0.008440	-0.836914	-0.383789	-0.464600	0.684666	0.276912	-0.566400	0.365709
14073		9.982219	-0.423365	2.451897	-0.053831	0.143884	-0.004838	-0.832275	-0.381104	-0.473633	0.685470	0.276200	-0.565724	0.365788
14074		9.415747	-0.415637	1.841569	-0.057548	0.176395	-0.008426	-0.830811	-0.381592	-0.479004	0.686459	0.275369	-0.564863	0.365891
14075		8.949568	-0.475574	1.325365	-0.037791	0.038851	-0.023924	-0.833496	-0.379395	-0.469727	0.686806	0.275140	-0.564690	0.365679
14076		9.184548	-0.575398	1.565949	-0.007027	-0.099456	-0.021237	-0.831787	-0.387451	-0.474854	0.686403	0.275507	-0.565230	0.365324
14077		9.755956	-0.568811	2.084943	0.011692	-0.085427	-0.000535	-0.833252	-0.386475	-0.468994	0.685974	0.275847	-0.565665	0.365200
14078		10.005682	-0.485271	2.338298	0.021231	0.016348	0.012585	-0.832520	-0.387451	-0.482666	0.685954	0.275875	-0.565523	0.365437
14079		9.790780	-0.467126	2.229603	0.023695	0.084122	0.021285	-0.831299	-0.386719	-0.471436	0.686244	0.275649	-0.565000	0.365872
14080		9.397066	-0.337159	2.036914	0.015017	0.066676	0.012842	-0.836182	-0.389648	-0.476318	0.686477	0.275486	-0.564587	0.366195
14081		9.245974	-0.194611	1.876453	0.005944	0.006299	0.000540	-0.836182	-0.388672	-0.462158	0.686487	0.275511	-0.564518	0.366264
14082		9.397562	-0.206841	1.990291	0.011967	-0.051608	-0.008570	-0.838623	-0.380371	-0.477051	0.686215	0.275812	-0.564746	0.366196
14083		9.702508	-0.309206	2.202409	0.010259	-0.023782	0.000984	-0.838623	-0.379150	-0.471924	0.686071	0.275929	-0.564852	0.366212
