// Start Time: Unknown
// Update Rate: 60.0Hz
// Filter Profile: human (46.1)
// Firmware Version: 4.6.0
PacketCounter	SampleTimeFine	Acc_X	Acc_Y	Acc_Z	Gyr_X	Gyr_Y	Gyr_Z	Mag_X	Mag_Y	Mag_Z	Quat_q0	Quat_q1	Quat_q2	Quat_q3
56495		8.785496	-4.038016	1.765100	0.002656	-0.006768	-0.008409	-0.589111	0.662842	0.221924	0.429026	-0.632090	-0.103195	-0.636984
56496		8.793463	-4.028511	1.781836	0.010171	-0.011179	-0.006956	-0.586670	0.655029	0.229980	0.429033	-0.632107	-0.103325	-0.636941
56497		8.805282	-4.005170	1.742410	0.011003	-0.001911	-0.006429	-0.585449	0.660156	0.220459	0.429046	-0.632081	-0.103424	-0.636943
56498		8.783458	-4.014457	1.768799	0.007917	-0.003057	-0.005203	-0.586182	0.663330	0.230469	0.429057	-0.632065	-0.103505	-0.636939
56499		8.750490	-4.045789	1.834253	0.004560	-0.000648	-0.007612	-0.593018	0.668457	0.225586	0.429039	-0.632046	-0.103572	-0.636959
56500		8.732655	-4.074719	1.856247	0.008916	0.000179	-0.007515	-0.575684	0.659668	0.225342	0.429047	-0.632004	-0.103658	-0.636980
56501		8.755538	-4.062903	1.830355	0.010426	-0.005956	-0.007637	-0.590576	0.669434	0.224121	0.429060	-0.631987	-0.103772	-0.636970
56502		8.772594	-4.038000	1.837309	0.016924	-0.004823	-0.008189	-0.587646	0.667236	0.220947	0.429108	-0.631938	-0.103917	-0.636963
56503		8.770352	-4.013093	1.827873	0.011370	-0.005108	-0.008210	-0.593018	0.668945	0.224609	0.429128	-0.631907	-0.104033	-0.636961
56504		8.764810	-4.049795	1.848816	0.008897	0.002354	-0.010647	-0.595215	0.660645	0.221924	0.429130	-0.631840	-0.104121	-0.637012
56505		8.765421	-4.048015	1.849815	0.019264	-0.001682	-0.007784	-0.591309	0.666992	0.223877	0.429202	-0.631755	-0.104262	-0.637025
56506		8.792302	-4.022113	1.767517	0.022611	-0.008510	-0.007313	-0.578857	0.667725	0.226807	0.429291	-0.631690	-0.104439	-0.637000
56507		8.764803	-4.017816	1.827156	0.018885	-0.002898	-0.007940	-0.574463	0.665771	0.226074	0.429362	-0.631610	-0.104581	-0.637009
56508		8.760472	-3.999762	1.846623	0.016744	-0.003201	-0.007289	-0.585449	0.662842	0.220947	0.429426	-0.631536	-0.104708	-0.637018
56509		8.755861	-4.032930	1.853974	0.021153	0.000023	-0.008932	-0.589600	0.658203	0.231445	0.429510	-0.631420	-0.104855	-0.637052
56510		8.739042	-4.057827	1.863180	0.024763	0.002844	-0.007210	-0.582031	0.661621	0.217529	0.429626	-0.631274	-0.104999	-0.637095
56511		8.786019	-4.061995	1.836360	0.021103	-0.002356	-0.007186	-0.588623	0.664062	0.226074	0.429728	-0.631165	-0.105137	-0.637112
56512		8.822985	-4.000241	1.794197	0.012598	0.003233	-0.004395	-0.587646	0.662842	0.222168	0.429808	-0.631053	-0.105192	-0.637159
56513		8.805822	-3.992553	1.750703	0.006911	0.006925	-0.005271	-0.586914	0.655029	0.221191	0.429854	-0.630943	-0.105211	-0.637234
56514		8.850198	-3.971342	1.700205	-0.000129	0.015022	-0.000115	-0.588867	0.662354	0.225586	0.429884	-0.630829	-0.105137	-0.637339
56515		8.846688	-3.948226	1.692972	-0.011052	0.023852	-0.000318	-0.583252	0.664795	0.218506	0.429863	-0.630711	-0.104987	-0.637495
56516		8.810305	-3.988045	1.790131	-0.019802	0.035265	0.003905	-0.585938	0.669922	0.223145	0.429824	-0.630580	-0.104736	-0.637691
56517		8.750232	-3.975383	1.823337	-0.027302	0.037503	0.005579	-0.576660	0.665527	0.223389	0.429760	-0.630462	-0.104434	-0.637900
56518		8.761643	-4.015527	1.864058	-0.029556	0.039038	0.008519	-0.581543	0.660156	0.224365	0.429693	-0.630362	-0.104096	-0.638100
56519		8.764542	-4.085500	1.836891	-0.024492	0.039953	0.010686	-0.580566	0.666016	0.218994	0.429656	-0.630232	-0.103766	-0.638306
56520		8.780066	-4.043183	1.898235	-0.021652	0.035900	0.010161	-0.585205	0.668213	0.222412	0.429653	-0.630104	-0.103464	-0.638484
56521		8.707371	-4.074752	1.918424	-0.042297	0.024383	0.009365	-0.578125	0.665039	0.223145	0.429531	-0.630100	-0.103097	-0.638630
56522		8.660075	-4.170817	1.907291	-0.031057	0.007752	0.012650	-0.587402	0.664795	0.225830	0.429474	-0.630156	-0.102820	-0.638657
56523		8.882606	-3.763845	1.917340	-0.086646	0.035584	0.008157	-0.583740	0.673584	0.228027	0.429129	-0.630243	-0.102159	-0.638909
56524		8.986633	-3.633341	1.884660	-0.229474	0.110440	0.018907	-0.592529	0.668701	0.222900	0.428170	-0.630442	-0.100440	-0.639629
56525		8.839862	-3.815701	1.985662	-0.339672	0.167524	0.017988	-0.587891	0.660889	0.232422	0.426639	-0.630687	-0.097975	-0.640792
56526		8.812749	-3.847445	2.089132	-0.379527	0.189498	0.014583	-0.580322	0.665039	0.236816	0.424847	-0.630971	-0.095241	-0.642114
56527		9.018566	-3.407410	2.050846	-0.460381	0.240565	0.009314	-0.595459	0.664307	0.237549	0.422660	-0.631256	-0.091927	-0.643758
56528		9.192212	-3.111442	1.953517	-0.646409	0.341800	0.011798	-0.589600	0.658691	0.233398	0.419537	-0.631563	-0.087306	-0.646138
56529		9.069163	-3.419981	1.883311	-0.842859	0.453420	0.016396	-0.586670	0.663574	0.239502	0.415433	-0.631927	-0.081277	-0.649213
56530		8.965737	-3.673504	1.812708	-0.957366	0.522157	0.018667	-0.585938	0.660400	0.252930	0.410777	-0.632263	-0.074440	-0.652660
56531		9.011244	-3.627060	1.757949	-1.083717	0.590367	0.017858	-0.592773	0.654541	0.252686	0.405426	-0.632630	-0.066678	-0.656478
56532		8.819470	-4.076276	1.741513	-1.180090	0.642676	0.019792	-0.587891	0.642578	0.256348	0.399539	-0.632942	-0.058241	-0.660577
56533		8.750924	-4.131518	1.742547	-1.225390	0.668557	0.018796	-0.598633	0.651611	0.273193	0.393404	-0.633258	-0.049419	-0.664662
56534		8.791178	-4.067629	1.694316	-1.316624	0.715506	0.016043	-0.594971	0.638184	0.274658	0.386699	-0.633438	-0.039982	-0.669046
56535		8.848127	-3.885510	1.737269	-1.442627	0.783861	0.017329	-0.604248	0.643555	0.283447	0.379344	-0.633616	-0.029574	-0.673613
56536		8.793983	-4.030357	1.758703	-1.572499	0.854032	0.018003	-0.605957	0.638428	0.294678	0.371237	-0.633591	-0.018302	-0.678536
56537		8.689042	-4.138435	1.734680	-1.628345	0.896510	0.019905	-0.613281	0.622314	0.302490	0.362780	-0.633365	-0.006566	-0.683518
56538		8.573399	-4.381977	1.766106	-1.636113	0.909452	0.013919	-0.612305	0.617188	0.301270	0.354078	-0.632982	0.005307	-0.688429
56539		8.443590	-4.503603	1.745629	-1.608105	0.899002	0.012208	-0.627197	0.613281	0.314453	0.345588	-0.632434	0.016906	-0.693044
56540		8.286114	-4.846181	1.646333	-1.578087	0.892492	0.006406	-0.622559	0.601318	0.320312	0.336983	-0.631614	0.028328	-0.697641
56541		8.185744	-5.038461	1.650904	-1.552331	0.887699	-0.004287	-0.627197	0.604980	0.331787	0.328526	-0.630718	0.039588	-0.701925
56542		8.144399	-5.158809	1.619423	-1.511669	0.874112	-0.008465	-0.627930	0.586914	0.333008	0.320245	-0.629598	0.050531	-0.706043
56543		8.020124	-5.417814	1.751166	-1.435019	0.823490	-0.021196	-0.640625	0.586914	0.346191	0.312320	-0.628567	0.060911	-0.709683
56544		7.944670	-5.558060	1.805822	-1.311110	0.749706	-0.031702	-0.644531	0.583984	0.343262	0.304866	-0.627467	0.070367	-0.713015
56545		7.917592	-5.499408	1.815008	-1.219310	0.690825	-0.025391	-0.646240	0.580078	0.353027	0.298008	-0.626379	0.079166	-0.715942
56546		8.023309	-5.346409	1.874824	-1.160313	0.651865	-0.030003	-0.652588	0.568848	0.347656	0.291453	-0.625353	0.087562	-0.718555
56547		7.985603	-5.388112	1.881211	-1.094281	0.609935	-0.031922	-0.655029	0.564941	0.359619	0.285202	-0.624371	0.095506	-0.720901
56548		8.027294	-5.378412	1.859957	-1.022553	0.564136	-0.035984	-0.651123	0.551758	0.366943	0.279470	-0.623464	0.102861	-0.722916
56549		8.212614	-5.162344	1.860838	-1.008041	0.548305	-0.034893	-0.663330	0.553955	0.361084	0.273821	-0.622597	0.110102	-0.724757
56550		8.198276	-5.150347	1.798631	-1.026819	0.542331	-0.041959	-0.655518	0.551025	0.359863	0.268014	-0.621721	0.117403	-0.726532
56551		8.043931	-5.323672	1.895496	-0.969227	0.509606	-0.052143	-0.663574	0.541260	0.372559	0.262505	-0.620881	0.124198	-0.728129
56552		8.053296	-5.142104	1.899522	-0.897719	0.468640	-0.051096	-0.675293	0.531982	0.375244	0.257361	-0.620107	0.130465	-0.729528
56553		7.846395	-5.487898	1.960097	-0.843466	0.429983	-0.047040	-0.668701	0.528320	0.373291	0.252486	-0.619397	0.136352	-0.730757
56554		7.694440	-5.681755	1.881464	-0.714430	0.357955	-0.045781	-0.679932	0.531250	0.373535	0.248393	-0.618807	0.141304	-0.731719
56555		7.901085	-5.529089	1.833530	-0.639267	0.310953	-0.048791	-0.682129	0.523438	0.381104	0.244745	-0.618323	0.145694	-0.732496
56556		7.839744	-5.521127	1.809432	-0.663095	0.305559	-0.041384	-0.687012	0.524414	0.382812	0.240994	-0.617897	0.150259	-0.733176
56557		7.800822	-5.595344	1.915214	-0.636516	0.276453	-0.037952	-0.682129	0.516357	0.381348	0.237447	-0.617566	0.154619	-0.733706
56558		7.971647	-5.408759	1.965588	-0.572436	0.242583	-0.045151	-0.680176	0.512939	0.388916	0.234217	-0.617296	0.158488	-0.734146
56559		7.908755	-5.438859	1.840705	-0.471964	0.203789	-0.043615	-0.687012	0.507324	0.395508	0.231572	-0.617055	0.161658	-0.734495
56560		7.847472	-5.575569	1.802502	-0.332130	0.140050	-0.048251	-0.679199	0.500732	0.394775	0.229668	-0.616928	0.163836	-0.734717
56561		7.579518	-5.917276	1.604461	-0.122061	0.049900	-0.050073	-0.696777	0.506836	0.385010	0.228955	-0.616943	0.164551	-0.734768
56562		7.525689	-6.126785	1.444544	0.105954	-0.057357	-0.049326	-0.688965	0.507812	0.387207	0.229557	-0.617165	0.163700	-0.734584
56563		7.847331	-5.895614	1.358869	0.221587	-0.122143	-0.046336	-0.692871	0.504639	0.391602	0.230892	-0.617566	0.162041	-0.734196
56564		8.205512	-5.349756	1.364756	0.218225	-0.115560	-0.039903	-0.690918	0.509277	0.391113	0.232203	-0.617926	0.160474	-0.733824
56565		8.372828	-5.062941	1.533225	0.160786	-0.075524	-0.038749	-0.683838	0.506836	0.384277	0.233180	-0.618157	0.159327	-0.733569
56566		8.303857	-5.120210	1.758178	0.185305	-0.087312	-0.040813	-0.687988	0.509521	0.396240	0.234269	-0.618414	0.157983	-0.733297
56567		8.440051	-4.856115	1.678190	0.198215	-0.095915	-0.037469	-0.679688	0.515869	0.389648	0.235447	-0.618705	0.156540	-0.732983
56568		8.427084	-4.859799	1.605224	0.167523	-0.076817	-0.028842	-0.678467	0.508789	0.393555	0.236522	-0.618926	0.155328	-0.732708
56569		8.298229	-4.969306	1.613320	0.143125	-0.054630	-0.020495	-0.687012	0.510498	0.386719	0.237442	-0.619052	0.154349	-0.732511
56570		8.250242	-5.041686	1.689272	0.121831	-0.048655	-0.015831	-0.694092	0.508789	0.386963	0.238242	-0.619171	0.153537	-0.732321
56571		8.122362	-5.225026	1.759477	0.120755	-0.045065	-0.007984	-0.685059	0.505859	0.388916	0.239041	-0.619259	0.152785	-0.732143
56572		7.932536	-5.500656	1.880761	0.164214	-0.067672	-0.003705	-0.682129	0.504883	0.380127	0.240120	-0.619395	0.151738	-0.731893
56573		7.894439	-5.639247	1.811902	0.275224	-0.132182	-0.002516	-0.674561	0.509766	0.385254	0.241855	-0.619679	0.149901	-0.731460
56574		7.976666	-5.587422	1.719891	0.370377	-0.182821	-0.002597	-0.679688	0.519043	0.379150	0.244181	-0.620087	0.147369	-0.730856
56575		7.955914	-5.660194	1.760911	0.473238	-0.239460	0.004180	-0.678223	0.512939	0.383057	0.247161	-0.620597	0.144131	-0.730066
56576		7.797167	-5.828229	1.808103	0.638734	-0.349085	0.003575	-0.672852	0.526611	0.384766	0.251071	-0.621421	0.139671	-0.728897
56577		7.797594	-5.842953	1.896453	0.830686	-0.448848	0.003286	-0.678711	0.516357	0.371582	0.256139	-0.622420	0.133819	-0.727378
56578		7.715623	-5.827578	1.883263	0.979521	-0.539556	0.008952	-0.677490	0.526611	0.378662	0.261983	-0.623554	0.126951	-0.725554
56579		7.717503	-5.887396	1.808710	1.150082	-0.631554	0.003565	-0.673096	0.538574	0.377441	0.268782	-0.624831	0.118807	-0.723345
56580		7.747589	-5.840527	1.749097	1.339791	-0.725819	0.000979	-0.664795	0.542725	0.368408	0.276640	-0.626163	0.109286	-0.720727
56581		7.835114	-5.668200	1.704784	1.505091	-0.820272	-0.004474	-0.658203	0.553223	0.362305	0.285346	-0.627552	0.098530	-0.717669
56582		7.996553	-5.404889	1.679471	1.607192	-0.876446	-0.003545	-0.655029	0.563477	0.353271	0.294590	-0.628889	0.087021	-0.714243
56583		8.089313	-5.276275	1.719454	1.652249	-0.903496	-0.007452	-0.651855	0.561279	0.348389	0.303993	-0.630113	0.075143	-0.710563
56584		8.184094	-4.974657	1.769397	1.695183	-0.916422	-0.009492	-0.646484	0.575684	0.341309	0.313457	-0.631148	0.062962	-0.706705
56585		8.238293	-4.847871	1.901840	1.725267	-0.938174	-0.013358	-0.637695	0.578125	0.336670	0.323020	-0.632067	0.050499	-0.702566
56586		8.362909	-4.683120	1.865192	1.761244	-0.956599	-0.018684	-0.635742	0.595703	0.328613	0.332618	-0.632838	0.037736	-0.698181
56587		8.474445	-4.527036	1.756979	1.746795	-0.944133	-0.016485	-0.631104	0.603516	0.318115	0.342107	-0.633390	0.025073	-0.693650
56588		8.495231	-4.516892	1.761167	1.689275	-0.926192	-0.017866	-0.623047	0.614014	0.311523	0.351175	-0.633822	0.012773	-0.689045
56589		8.536386	-4.409436	1.722632	1.648571	-0.898254	-0.013593	-0.619141	0.616699	0.309570	0.359981	-0.634061	0.000801	-0.684383
56590		8.614885	-4.170448	1.741248	1.599641	-0.864619	-0.012898	-0.614014	0.616699	0.295654	0.368390	-0.634139	-0.010802	-0.679735
56591		8.665233	-4.085059	1.733506	1.518025	-0.834945	-0.012750	-0.614014	0.632568	0.294434	0.376231	-0.634134	-0.021852	-0.675164
56592		8.681866	-4.071141	1.814802	1.463177	-0.799095	-0.015623	-0.607910	0.628662	0.281982	0.383747	-0.633999	-0.032521	-0.670616
56593		8.809045	-3.895205	1.821527	1.391373	-0.751629	-0.017652	-0.607910	0.637207	0.275146	0.390739	-0.633693	-0.042648	-0.666286
56594		8.872135	-3.782377	1.914137	1.248591	-0.684754	-0.019604	-0.604736	0.644775	0.261475	0.396936	-0.633377	-0.051794	-0.662263
56595		8.783774	-4.001784	1.921408	1.169634	-0.647998	-0.024417	-0.594971	0.650391	0.260742	0.402689	-0.632982	-0.060420	-0.658426
56596		8.675675	-4.126684	1.845149	1.205661	-0.674006	-0.041106	-0.601562	0.647949	0.256104	0.408483	-0.632574	-0.069381	-0.654353
56597		8.750179	-4.089570	1.848437	1.168160	-0.663937	-0.042248	-0.591064	0.653320	0.254639	0.413920	-0.632165	-0.078153	-0.650330
56598		8.702638	-4.185637	1.675613	1.082268	-0.613865	-0.032277	-0.581543	0.661621	0.248291	0.418975	-0.631768	-0.086189	-0.646452
56599		8.684777	-4.269302	1.701449	1.033943	-0.588518	-0.029192	-0.591064	0.664062	0.241211	0.423844	-0.631347	-0.093814	-0.642617
56600		8.811274	-3.981313	1.811533	1.013342	-0.574094	-0.034391	-0.589844	0.655762	0.237549	0.428486	-0.630825	-0.101367	-0.638893
56601		8.750745	-4.062981	1.760611	1.029573	-0.569247	-0.038577	-0.585205	0.665039	0.221680	0.433045	-0.630190	-0.109043	-0.635171
56602		8.762240	-4.092641	1.745651	1.092542	-0.603593	-0.042579	-0.582275	0.669922	0.219482	0.437963	-0.629342	-0.117190	-0.631176
56603		8.814030	-4.075141	1.653417	1.116223	-0.614789	-0.040159	-0.583252	0.665527	0.216797	0.442951	-0.628446	-0.125451	-0.626987
56604		8.683420	-4.184595	1.621650	1.140273	-0.615981	-0.037824	-0.581299	0.674561	0.216064	0.447921	-0.627446	-0.133853	-0.622705
56605		8.630476	-4.309430	1.596680	1.232637	-0.664948	-0.042111	-0.584473	0.670654	0.197266	0.453252	-0.626336	-0.142870	-0.617943
56606		8.780925	-4.194681	1.690163	1.295605	-0.694483	-0.040549	-0.573730	0.683594	0.194092	0.458822	-0.624923	-0.152427	-0.612960
56607		8.543754	-4.475894	1.564209	1.425188	-0.761326	-0.041321	-0.567871	0.679932	0.185547	0.465004	-0.623318	-0.162731	-0.607260
56608		8.706761	-4.223124	1.579235	1.606405	-0.864289	-0.056203	-0.575439	0.675293	0.177246	0.471794	-0.621402	-0.174401	-0.600712
56609		8.791307	-4.101037	1.481408	1.663706	-0.888777	-0.049405	-0.576172	0.686279	0.161133	0.478648	-0.619250	-0.186478	-0.593844
56610		8.806734	-3.958497	1.440549	1.697417	-0.892218	-0.040040	-0.561768	0.687256	0.155762	0.485708	-0.616764	-0.198627	-0.586717
56611		8.952385	-3.637494	1.534968	1.717741	-0.908671	-0.044984	-0.565430	0.687988	0.138916	0.492742	-0.614181	-0.210801	-0.579267
56612		8.957735	-3.611546	1.444073	1.755888	-0.946454	-0.047781	-0.563965	0.699707	0.134521	0.499774	-0.611384	-0.223332	-0.571453
56613		9.174896	-3.263034	1.275101	1.772113	-0.938993	-0.041903	-0.570801	0.696045	0.121338	0.506805	-0.608370	-0.235749	-0.563433
56614		9.184938	-3.128974	1.192786	1.714817	-0.915726	-0.042041	-0.556641	0.703369	0.107422	0.513427	-0.605296	-0.247799	-0.555523
56615		9.382740	-2.957895	1.151310	1.640580	-0.876221	-0.038512	-0.556396	0.693359	0.092773	0.519712	-0.602203	-0.259201	-0.547784
56616		9.402671	-2.901801	1.197429	1.539831	-0.826498	-0.033017	-0.565674	0.697510	0.086182	0.525479	-0.599179	-0.269888	-0.540386
56617		9.402272	-2.859943	1.055780	1.470707	-0.776826	-0.033928	-0.563721	0.707031	0.073486	0.530886	-0.596122	-0.280005	-0.533288
56618		9.249399	-3.348331	1.138462	1.445520	-0.768816	-0.034617	-0.557373	0.710938	0.058105	0.536106	-0.593018	-0.289914	-0.526184
56619		9.248498	-3.245776	1.225719	1.427722	-0.763760	-0.036990	-0.564697	0.706299	0.050049	0.541156	-0.589847	-0.299675	-0.519062
56620		9.339499	-3.034103	1.314159	1.255736	-0.689980	-0.029568	-0.558105	0.703613	0.045166	0.545463	-0.587062	-0.308298	-0.512622
56621		9.287939	-2.926084	1.357940	1.108402	-0.631121	-0.026026	-0.563965	0.702393	0.032959	0.549147	-0.584639	-0.315954	-0.506762
56622		9.470764	-2.387233	1.252397	0.955330	-0.543995	-0.022404	-0.560547	0.708740	0.032227	0.552271	-0.582484	-0.322538	-0.501676
56623		9.466444	-2.417021	1.241379	0.799585	-0.456554	-0.009148	-0.560303	0.709961	0.031982	0.554897	-0.580686	-0.327962	-0.497327
56624		9.455956	-2.590524	1.296221	0.676750	-0.389973	-0.006062	-0.558105	0.703369	0.020996	0.557086	-0.579167	-0.332539	-0.493597
56625		9.448382	-2.705072	1.293336	0.545641	-0.327221	0.000257	-0.561035	0.700195	0.020264	0.558825	-0.577969	-0.336264	-0.490503
56626		9.349175	-2.873264	1.224755	0.436143	-0.272883	0.003196	-0.552246	0.704590	0.017334	0.560174	-0.577060	-0.339273	-0.487956
56627		9.246247	-2.891585	1.161224	0.358142	-0.231607	0.004495	-0.552734	0.704834	0.022461	0.561283	-0.576338	-0.341740	-0.485808
56628		9.176279	-3.038773	1.007162	0.324831	-0.207601	0.002085	-0.558594	0.702881	0.014893	0.562271	-0.575674	-0.343970	-0.483875
56629		9.221683	-2.920997	1.007499	0.290076	-0.180252	0.004518	-0.556396	0.707275	0.016846	0.563174	-0.575046	-0.345937	-0.482167
56630		9.294180	-2.848707	1.145162	0.208553	-0.127417	0.008762	-0.560547	0.709229	0.009521	0.563855	-0.574605	-0.347295	-0.480918
56631		9.373814	-2.658221	1.194461	0.092460	-0.071867	0.012907	-0.551514	0.706299	0.014404	0.564159	-0.574482	-0.347919	-0.480258
56632		9.344141	-2.814375	1.330102	-0.011431	-0.028693	0.010236	-0.557129	0.703857	0.009521	0.564079	-0.574680	-0.347921	-0.480114
56633		9.252468	-3.084969	1.427333	-0.042539	-0.013959	-0.002756	-0.561035	0.714111	0.006836	0.563835	-0.574910	-0.347812	-0.480203
56634		9.115417	-3.434450	1.274663	0.005227	-0.060656	-0.005314	-0.555420	0.709229	0.012207	0.563689	-0.575087	-0.348120	-0.479940
56635		9.032872	-3.539248	0.957254	0.033044	-0.072756	-0.009206	-0.560303	0.707520	0.013916	0.563619	-0.575189	-0.348599	-0.479552
56636		9.196584	-3.258652	0.664791	-0.004819	-0.035407	-0.002730	-0.546875	0.704590	0.009521	0.563489	-0.575344	-0.348730	-0.479424
56637		9.316435	-3.224006	0.838926	-0.055765	-0.011784	-0.003444	-0.554199	0.704102	0.024170	0.563213	-0.575628	-0.348530	-0.479552
56638		9.337013	-3.150111	0.963371	-0.030427	-0.018906	-0.005421	-0.555908	0.703613	0.019287	0.562981	-0.575867	-0.348475	-0.479577
56639		9.420783	-2.979776	1.021957	-0.018143	-0.019209	-0.006356	-0.549561	0.700439	0.012207	0.562818	-0.576016	-0.348493	-0.479576
56640		9.404220	-2.952125	1.015056	-0.067862	0.020698	-0.002144	-0.554199	0.705322	0.020264	0.562572	-0.576226	-0.348106	-0.479895
56641		9.269918	-3.048698	1.069334	-0.127846	0.057871	0.004893	-0.555176	0.713379	0.020996	0.562156	-0.576614	-0.347264	-0.480526
56642		9.179972	-3.283231	1.029253	-0.192666	0.067147	0.005603	-0.560791	0.708496	0.015137	0.561469	-0.577264	-0.346107	-0.481382
56643		9.223560	-3.208802	0.832187	-0.197025	0.084392	0.005376	-0.551270	0.708496	0.024414	0.560802	-0.577838	-0.344884	-0.482349
56644		9.364996	-3.049193	0.744321	-0.244764	0.129146	0.005353	-0.558105	0.706299	0.014648	0.560035	-0.578486	-0.343221	-0.483647
56645		9.629760	-2.626674	0.591910	-0.365248	0.189870	0.008992	-0.547852	0.706543	0.025146	0.558874	-0.579411	-0.340814	-0.485581
56646		9.580988	-2.708801	0.740617	-0.476473	0.259738	0.012615	-0.555176	0.708008	0.025391	0.557383	-0.580612	-0.337566	-0.488121
56647		9.877847	-2.079801	0.933950	-0.554319	0.327266	0.007677	-0.558105	0.709961	0.034424	0.555660	-0.581856	-0.333735	-0.491230
56648		10.348736	-0.862628	0.832481	-0.916016	0.551655	0.024407	-0.554199	0.714111	0.040527	0.552823	-0.583894	-0.327283	-0.496327
56649		9.571714	-2.426742	0.935169	-1.297170	0.757440	0.061043	-0.549316	0.705078	0.049561	0.548797	-0.586863	-0.318078	-0.503231
56650		9.431941	-2.691529	0.999055	-1.390039	0.823721	0.046882	-0.548096	0.720459	0.053223	0.544323	-0.589846	-0.308204	-0.510691
56651		9.565085	-2.449604	1.038302	-1.599580	0.911366	0.043813	-0.542236	0.709229	0.070801	0.538995	-0.593239	-0.296964	-0.519003
56652		9.561044	-2.525589	0.914801	-1.785041	1.020123	0.044624	-0.558838	0.706543	0.078125	0.532834	-0.596891	-0.284341	-0.528166
56653		9.446487	-2.697098	0.937778	-1.918744	1.111304	0.043960	-0.548340	0.701416	0.086426	0.525996	-0.600502	-0.270730	-0.537987
56654		9.223276	-3.168327	1.050673	-1.995290	1.157820	0.042664	-0.556885	0.709961	0.096680	0.518745	-0.604004	-0.256456	-0.548008
56655		9.005173	-3.532522	1.191762	-2.034099	1.193384	0.043640	-0.556152	0.698486	0.113281	0.511215	-0.607256	-0.241762	-0.558078
56656		8.901298	-3.616724	1.261986	-2.070511	1.233409	0.039311	-0.560791	0.707031	0.131348	0.503307	-0.610272	-0.226649	-0.568226
56657		8.726099	-3.918779	1.379188	-2.136647	1.248799	0.041085	-0.563965	0.707031	0.136475	0.494922	-0.613275	-0.211014	-0.578290
56658		8.644414	-4.060838	1.524036	-2.103294	1.228110	0.035008	-0.568115	0.699463	0.147949	0.486504	-0.615900	-0.195595	-0.587983
56659		8.785659	-4.094000	1.550645	-2.064867	1.205495	0.025254	-0.564209	0.689209	0.171143	0.477986	-0.618208	-0.180446	-0.597317
56660		8.595303	-4.309777	1.588841	-1.968204	1.146932	0.023140	-0.565918	0.695068	0.182373	0.469628	-0.620307	-0.165883	-0.605931
56661		8.624373	-4.388552	1.474195	-1.868085	1.090823	0.017022	-0.574219	0.688477	0.192139	0.461622	-0.622060	-0.151991	-0.613877
56662		8.479752	-4.638986	1.476922	-1.751883	1.037185	0.014946	-0.576172	0.684326	0.204102	0.453963	-0.623434	-0.138901	-0.621251
56663		8.311713	-4.867654	1.643196	-1.584802	0.938448	0.013753	-0.579346	0.679199	0.204590	0.446944	-0.624550	-0.127003	-0.627733
56664		8.108388	-5.192988	1.907836	-1.354839	0.803174	0.016144	-0.575195	0.675781	0.206787	0.440949	-0.625309	-0.116797	-0.633175
56665		7.988614	-5.325161	2.084499	-1.063386	0.638944	0.007394	-0.589600	0.666992	0.222412	0.436298	-0.625734	-0.108733	-0.637399
56666		7.972598	-5.451269	2.204647	-0.790455	0.472842	0.000933	-0.584961	0.677979	0.220703	0.432652	-0.626084	-0.102793	-0.640519
56667		7.887481	-5.506552	2.213432	-0.535802	0.306388	0.004515	-0.580811	0.668701	0.223877	0.430440	-0.626309	-0.098739	-0.642425
56668		7.961604	-5.317897	2.250389	-0.286632	0.160643	-0.001445	-0.574463	0.669434	0.228027	0.429319	-0.626442	-0.096546	-0.643378
56669		8.122733	-5.087339	2.184892	-0.089098	0.030365	-0.003901	-0.582031	0.669678	0.229736	0.429173	-0.626615	-0.095845	-0.643411
56670		8.253249	-4.948049	2.045543	0.084615	-0.079524	-0.009155	-0.583984	0.660889	0.234619	0.429762	-0.626737	-0.096540	-0.642795
56671		8.579123	-4.369373	1.911574	0.204981	-0.146485	-0.014415	-0.581299	0.665771	0.226807	0.430726	-0.626850	-0.098165	-0.641793
56672		8.802429	-3.939054	1.893891	0.207903	-0.138761	-0.012515	-0.587891	0.673584	0.225586	0.431820	-0.626824	-0.099744	-0.640839
56673		8.835953	-3.894856	1.944035	0.160975	-0.115479	-0.013904	-0.582764	0.670166	0.228516	0.432731	-0.626797	-0.101041	-0.640047
56674		8.817487	-3.920209	1.912754	0.116371	-0.095938	-0.013816	-0.585449	0.668213	0.224121	0.433380	-0.626897	-0.102011	-0.639355
56675		8.779787	-3.944108	1.851757	0.060467	-0.059591	-0.014225	-0.576904	0.675293	0.221924	0.433718	-0.626945	-0.102566	-0.638991
56676		8.782645	-4.101725	1.837742	0.009721	-0.031103	-0.015041	-0.587891	0.676758	0.219727	0.433989	-0.627024	-0.102696	-0.638708
56677		8.753606	-4.143478	1.806051	-0.015090	-0.016144	-0.013652	-0.589355	0.665283	0.216797	0.434097	-0.627033	-0.102704	-0.638625
56678		8.739264	-4.237854	1.732300	-0.028462	-0.010723	-0.015606	-0.577393	0.672363	0.229248	0.433928	-0.627033	-0.102623	-0.638753
56679		8.683495	-4.271325	1.731673	-0.018934	-0.010740	-0.015645	-0.575195	0.672363	0.221680	0.433985	-0.627212	-0.102563	-0.638547
56680		8.660040	-4.236344	1.796728	-0.000018	-0.008996	-0.013449	-0.576416	0.664795	0.238281	0.434198	-0.627220	-0.102546	-0.638398
56681		8.628836	-4.267400	1.860067	0.022499	-0.027081	-0.015258	-0.576172	0.665039	0.228027	0.434288	-0.627473	-0.102787	-0.638049
56682		8.671266	-4.238548	1.927477	0.063940	-0.043383	-0.014866	-0.585693	0.665039	0.226807	0.434623	-0.627515	-0.103261	-0.637703
56683		8.613184	-4.245831	1.919365	0.095288	-0.052412	-0.013455	-0.583496	0.674805	0.228271	0.435045	-0.627426	-0.103990	-0.637385
56684		8.579865	-4.268244	1.909747	0.116853	-0.059968	-0.012469	-0.580811	0.669922	0.231689	0.435751	-0.627326	-0.104849	-0.636859
56685		8.630317	-4.209338	1.864136	0.120315	-0.073420	-0.012140	-0.579102	0.669189	0.228271	0.436369	-0.627363	-0.105770	-0.636247
56686		8.717813	-4.156260	1.878725	0.113705	-0.068086	-0.014095	-0.579346	0.664551	0.224609	0.436946	-0.627359	-0.106623	-0.635713
56687		8.688247	-4.146986	1.875989	0.105184	-0.060105	-0.012991	-0.584717	0.672119	0.220947	0.437408	-0.627303	-0.107386	-0.635322
56688		8.783813	-4.042346	1.813417	0.085322	-0.046728	-0.015917	-0.582275	0.682861	0.225586	0.437861	-0.627159	-0.108038	-0.635041
56689		8.806037	-4.034221	1.814951	0.045892	-0.021529	-0.013182	-0.587891	0.672852	0.222656	0.438323	-0.627108	-0.108374	-0.634715
56690		8.775745	-4.078855	1.801808	0.025396	-0.012702	-0.011947	-0.578613	0.671143	0.224609	0.438468	-0.627026	-0.108599	-0.634658
56691		8.777487	-4.073322	1.787982	0.007016	0.003246	-0.011204	-0.576660	0.670410	0.218994	0.438571	-0.627018	-0.108605	-0.634593
56692		8.779575	-4.065068	1.760786	-0.013941	0.017413	-0.011348	-0.579834	0.672119	0.222900	0.438607	-0.626940	-0.108414	-0.634679
56693		8.754350	-4.106431	1.781204	-0.032008	0.027587	-0.012005	-0.575684	0.674072	0.222168	0.438536	-0.626915	-0.108134	-0.634800
56694		8.755814	-4.081311	1.819700	-0.063652	0.049271	-0.010453	-0.586670	0.681885	0.226562	0.438410	-0.626903	-0.107564	-0.634995
56695		8.846250	-3.913995	1.838807	-0.145900	0.095283	-0.007549	-0.579102	0.662842	0.227051	0.437940	-0.626940	-0.106476	-0.635467
56696		8.902256	-3.801441	1.861056	-0.268585	0.156517	-0.002347	-0.576904	0.673340	0.229736	0.436614	-0.627171	-0.104427	-0.636491
56697		8.856293	-3.801576	1.927224	-0.363703	0.194178	-0.000760	-0.583740	0.666016	0.228027	0.435072	-0.627567	-0.101708	-0.637595
56698		8.832748	-3.896417	1.942060	-0.426597	0.235337	0.001401	-0.574463	0.671143	0.229492	0.433083	-0.627863	-0.098533	-0.639154
56699		8.791935	-3.872158	1.896763	-0.459953	0.261735	-0.005122	-0.586670	0.664307	0.237305	0.431131	-0.628167	-0.095027	-0.640705
56700		9.168122	-3.292843	1.810307	-0.604075	0.351862	-0.008783	-0.585205	0.668457	0.234863	0.428220	-0.628507	-0.090569	-0.642965
56701		9.274781	-3.005188	1.766830	-0.905348	0.528426	0.001110	-0.593018	0.665283	0.245361	0.424081	-0.628862	-0.083756	-0.646276
56702		9.209964	-3.271576	1.778802	-1.181239	0.694186	0.011967	-0.587158	0.660645	0.250488	0.418543	-0.629303	-0.074888	-0.650531
56703		9.039434	-3.557794	1.896504	-1.347189	0.790910	0.009637	-0.591309	0.651367	0.250977	0.412203	-0.629747	-0.064714	-0.655225
56704		8.908085	-3.779542	1.814131	-1.434925	0.848312	0.004603	-0.596191	0.648682	0.267334	0.405265	-0.629944	-0.053862	-0.660325
56705		8.715775	-4.093996	1.692320	-1.496674	0.895154	0.005845	-0.603760	0.641846	0.263428	0.397964	-0.630128	-0.042558	-0.665396
56706		8.630300	-4.176258	1.535923	-1.586103	0.957340	0.009082	-0.609131	0.636719	0.275879	0.390139	-0.629889	-0.030495	-0.670896
56707		8.705370	-4.276323	1.540147	-1.766374	1.055605	0.012546	-0.606934	0.639893	0.286133	0.381319	-0.629617	-0.017119	-0.676672
56708		8.574580	-4.356030	1.598076	-1.887404	1.121780	0.014133	-0.614746	0.632568	0.291260	0.372073	-0.629253	-0.002778	-0.682345
56709		8.706490	-4.154504	1.708278	-2.000796	1.185056	0.015785	-0.614014	0.623535	0.305176	0.362112	-0.628585	0.012407	-0.688188
56710		8.455329	-4.549183	1.771768	-2.037484	1.215238	0.018408	-0.625488	0.603516	0.314453	0.351863	-0.627778	0.027892	-0.693764
56711		8.250619	-4.827330	1.748611	-1.959721	1.189024	0.014608	-0.627197	0.598877	0.315430	0.341562	-0.626650	0.042740	-0.699156
56712		8.091105	-5.152305	1.753884	-1.896694	1.149019	0.011592	-0.635010	0.600830	0.328613	0.331551	-0.625258	0.057179	-0.704172
56713		7.901058	-5.541612	1.638959	-1.813368	1.100690	0.011629	-0.636963	0.587402	0.325684	0.322015	-0.623792	0.070923	-0.708632
56714		7.712242	-5.764395	1.734101	-1.705641	1.048479	0.014230	-0.647949	0.584717	0.341797	0.312795	-0.622055	0.083957	-0.712852
56715		7.537528	-6.140895	1.833859	-1.568862	0.953828	0.010365	-0.643311	0.571533	0.343506	0.304205	-0.620445	0.095813	-0.716468
56716		7.440606	-6.441822	1.908852	-1.365857	0.822637	-0.001717	-0.651367	0.573975	0.347412	0.296561	-0.618961	0.106069	-0.719506
56717		7.655544	-6.070580	2.052964	-1.245468	0.730681	-0.009242	-0.659180	0.556396	0.348633	0.289548	-0.617624	0.115300	-0.722086
56718		7.631560	-6.080032	2.175989	-1.222559	0.686233	-0.006784	-0.661621	0.562744	0.363281	0.282610	-0.616401	0.124309	-0.724382
56719		7.829083	-5.547720	2.250413	-1.111700	0.610468	-0.009908	-0.660645	0.545654	0.356445	0.276315	-0.615314	0.132416	-0.726295
56720		7.832662	-5.498161	2.307600	-1.008810	0.534250	-0.013022	-0.669189	0.541748	0.366211	0.270565	-0.614383	0.139711	-0.727880
56721		7.757836	-5.637700	2.140726	-0.785980	0.418539	-0.026031	-0.685303	0.540771	0.363525	0.265983	-0.613623	0.145324	-0.729109
56722		8.146661	-5.175007	1.850719	-0.759390	0.398243	-0.040784	-0.667725	0.530518	0.371338	0.261445	-0.612905	0.150660	-0.730271
56723		7.860070	-5.686987	1.667971	-0.829582	0.436729	-0.021307	-0.680420	0.534912	0.375244	0.256630	-0.612062	0.156578	-0.731440
56724		8.037201	-5.293877	1.710088	-0.827770	0.439533	-0.023659	-0.684082	0.527588	0.367676	0.251799	-0.611161	0.162466	-0.732588
56725		8.164323	-5.030824	1.828163	-0.890695	0.473868	-0.022129	-0.685547	0.520508	0.382080	0.246587	-0.610137	0.168812	-0.733778
56726		7.771642	-5.662856	1.902324	-0.817719	0.435822	-0.015890	-0.686035	0.516602	0.382324	0.241815	-0.609154	0.174653	-0.734815
56727		7.839930	-5.584774	1.957161	-0.639509	0.343587	-0.035695	-0.691650	0.518066	0.384521	0.237961	-0.608376	0.179105	-0.735646
56728		7.847711	-5.505822	2.079108	-0.620547	0.329759	-0.036399	-0.691895	0.511963	0.375977	0.234222	-0.607627	0.183395	-0.736407
56729		7.533067	-5.879994	2.307379	-0.626802	0.324338	-0.026589	-0.686279	0.503906	0.379883	0.230510	-0.606885	0.187759	-0.737090
56730		7.244945	-6.097457	2.253964	-0.543671	0.257826	-0.023974	-0.702881	0.508057	0.380371	0.227337	-0.606372	0.191490	-0.737538
56731		7.313705	-6.182073	2.015395	-0.335509	0.131821	-0.031135	-0.700684	0.498535	0.389648	0.225361	-0.606235	0.193674	-0.737687
56732		7.364200	-6.328911	1.605577	-0.085887	0.001918	-0.044170	-0.707764	0.495361	0.391846	0.224758	-0.606443	0.194025	-0.737608
56733		7.710089	-6.106969	1.152059	0.070833	-0.069943	-0.045136	-0.689697	0.500732	0.388672	0.225036	-0.606793	0.193295	-0.737427
56734		8.001975	-5.680871	1.069672	0.046895	-0.038867	-0.033649	-0.696777	0.504639	0.385986	0.225273	-0.606992	0.192792	-0.737322
56735		8.249672	-5.232685	1.269291	-0.031763	0.017525	-0.026160	-0.701172	0.500977	0.381836	0.225060	-0.606979	0.192920	-0.737364
56736		8.319924	-5.129518	1.573637	-0.078577	0.056330	-0.017870	-0.698730	0.503174	0.391602	0.224577	-0.606799	0.193464	-0.737517
56737		8.048725	-5.492094	1.830406	0.006425	0.018747	-0.020254	-0.695312	0.501465	0.381104	0.224584	-0.606704	0.193388	-0.737613
56738		8.028632	-5.351348	1.877680	0.129364	-0.047632	-0.021480	-0.701660	0.503662	0.392578	0.225314	-0.606783	0.192427	-0.737577
56739		8.025884	-5.312239	1.816170	0.118054	-0.036532	-0.016241	-0.703857	0.502930	0.385986	0.225991	-0.606809	0.191586	-0.737568
56740		7.923034	-5.409123	1.826288	0.041883	0.010757	-0.005262	-0.695557	0.500488	0.378418	0.226264	-0.606664	0.191365	-0.737661
56741		7.802895	-5.586895	1.932847	-0.035087	0.039490	0.000499	-0.698242	0.497070	0.381104	0.226147	-0.606479	0.191695	-0.737762
56742		7.510417	-5.958288	2.029150	0.025070	0.001980	0.000462	-0.689453	0.495361	0.386963	0.226375	-0.606410	0.191594	-0.737775
56743		7.581257	-5.934260	1.944502	0.165712	-0.083392	-0.010349	-0.694580	0.496338	0.382080	0.227398	-0.606624	0.190405	-0.737593
56744		7.871466	-5.563796	1.841165	0.154589	-0.084665	-0.003620	-0.695557	0.502930	0.387939	0.228394	-0.606842	0.189329	-0.737383
56745		7.793996	-5.570328	1.776926	0.149134	-0.064578	0.006419	-0.694824	0.502686	0.380371	0.229408	-0.606938	0.188365	-0.737236
56746		7.749638	-5.672904	1.737583	0.280032	-0.121704	0.005481	-0.697510	0.507812	0.380371	0.231162	-0.607125	0.186488	-0.737011
56747		8.063225	-5.336977	1.734499	0.373184	-0.161236	-0.002758	-0.700928	0.501953	0.379639	0.233398	-0.607384	0.183919	-0.736738
56748		8.018687	-5.398298	1.644845	0.330198	-0.132725	0.012294	-0.684814	0.509521	0.375244	0.235418	-0.607515	0.181765	-0.736523
56749		7.822665	-5.772393	1.752933	0.357864	-0.149495	0.018228	-0.690918	0.513916	0.374512	0.237703	-0.607697	0.179405	-0.736217
56750		7.646620	-5.998540	1.942070	0.526300	-0.227096	0.015952	-0.694580	0.514648	0.372803	0.240921	-0.608007	0.175852	-0.735772
56751		7.562947	-6.097903	2.041133	0.769741	-0.350090	0.007065	-0.694092	0.521729	0.370361	0.245463	-0.608564	0.170524	-0.735064
56752		7.221712	-6.676341	2.034181	1.067998	-0.521412	0.000016	-0.683594	0.526611	0.372803	0.251705	-0.609526	0.162972	-0.733869
56753		7.185929	-6.995375	1.997226	1.372767	-0.721251	-0.000637	-0.678711	0.536865	0.371338	0.259739	-0.611006	0.153107	-0.731960
56754		7.032506	-7.107144	2.007749	1.693265	-0.911659	-0.007244	-0.677246	0.539307	0.360352	0.269560	-0.612830	0.140815	-0.729348
56755		7.302955	-6.669431	2.030855	1.954670	-1.059114	-0.016862	-0.670654	0.557617	0.354492	0.280708	-0.614760	0.126543	-0.726127
56756		7.355896	-6.328822	2.084724	2.136488	-1.181710	-0.015284	-0.663086	0.566406	0.343750	0.292857	-0.616776	0.110840	-0.722175
56757		7.425522	-6.096791	2.041929	2.302601	-1.306400	-0.021043	-0.657715	0.577393	0.338379	0.305798	-0.618853	0.093762	-0.717438
56758		7.886778	-5.393797	1.846706	2.400318	-1.358154	-0.025133	-0.651123	0.583984	0.327148	0.319083	-0.620683	0.075910	-0.712163
56759		8.029730	-4.978496	1.769428	2.402646	-1.346633	-0.027179	-0.636230	0.594727	0.321777	0.332161	-0.622102	0.058034	-0.706605
56760		8.144756	-4.907173	1.859405	2.405798	-1.365120	-0.030553	-0.633545	0.608643	0.304932	0.345079	-0.623325	0.040037	-0.700559
56761		8.270413	-4.663310	1.885762	2.402363	-1.366759	-0.035115	-0.631348	0.611084	0.294189	0.357788	-0.624200	0.022006	-0.694174
56762		8.567156	-4.295285	1.845790	2.295456	-1.322920	-0.036871	-0.623047	0.623535	0.284912	0.369663	-0.624816	0.004710	-0.687701
56763		8.453485	-4.416964	1.938718	2.162707	-1.249752	-0.031842	-0.622803	0.623535	0.284180	0.380725	-0.625148	-0.011582	-0.681252
56764		8.423591	-4.315837	1.886877	2.107794	-1.217714	-0.039923	-0.620850	0.640137	0.263184	0.391159	-0.625254	-0.027483	-0.674757
56765		8.703317	-3.992854	1.706231	1.968314	-1.150854	-0.040511	-0.610596	0.642090	0.258301	0.400835	-0.625127	-0.042411	-0.668393
56766		8.827725	-3.887362	1.607109	1.785618	-1.038522	-0.037381	-0.607910	0.641602	0.259277	0.409445	-0.624833	-0.055904	-0.662430
56767		8.868913	-4.003926	1.683232	1.655884	-0.983140	-0.041384	-0.595947	0.653320	0.232422	0.417143	-0.624579	-0.068478	-0.656661
56768		8.792673	-4.049000	1.699379	1.647396	-0.955746	-0.052424	-0.599121	0.653809	0.226807	0.424895	-0.623917	-0.081014	-0.650868
56769		8.742905	-4.070068	1.672072	1.690638	-0.961037	-0.057208	-0.590576	0.662354	0.226318	0.432625	-0.622983	-0.093815	-0.644923
56770		8.638895	-4.199193	1.589029	1.724354	-0.969437	-0.047890	-0.582031	0.666260	0.213135	0.440445	-0.621911	-0.106693	-0.638633
56771		8.504485	-4.470828	1.577574	1.811801	-0.999518	-0.042303	-0.588379	0.668457	0.203613	0.448683	-0.620484	-0.120115	-0.631867
56772		8.662363	-4.193612	1.470497	1.888795	-1.014396	-0.039369	-0.590820	0.669189	0.184814	0.457098	-0.618646	-0.133982	-0.624810
56773		8.469211	-4.383101	1.634124	1.967853	-1.053782	-0.035882	-0.583252	0.678955	0.179932	0.465767	-0.616440	-0.148410	-0.617282
56774		8.521299	-4.483356	1.828672	2.085814	-1.118777	-0.033247	-0.581787	0.686768	0.168457	0.474828	-0.613970	-0.163547	-0.608960
56775		8.776244	-4.071442	1.880213	2.102219	-1.142514	-0.028054	-0.570801	0.684570	0.155762	0.483800	-0.611325	-0.178756	-0.600221
56776		8.842595	-3.848197	1.875002	2.081661	-1.154801	-0.025791	-0.566650	0.695557	0.139648	0.492500	-0.608590	-0.193819	-0.591182
56777		8.896059	-3.702518	1.866499	2.085983	-1.162770	-0.031941	-0.574951	0.690186	0.128418	0.501032	-0.605601	-0.208878	-0.581880
56778		8.832338	-3.739396	1.564639	2.138193	-1.201685	-0.040937	-0.568604	0.697510	0.118896	0.509456	-0.602319	-0.224356	-0.572129
56779		9.059650	-3.428346	1.266940	2.137097	-1.210862	-0.036959	-0.565674	0.694824	0.104248	0.517694	-0.598853	-0.239718	-0.562052
56780		9.176337	-3.149353	1.148203	2.048353	-1.143062	-0.034661	-0.565186	0.693115	0.094482	0.525436	-0.595206	-0.254274	-0.552261
56781		9.353025	-3.082766	1.071885	1.955979	-1.099754	-0.028596	-0.560303	0.703613	0.079346	0.532649	-0.591559	-0.268092	-0.542650
56782		9.461003	-2.813233	1.163549	1.869455	-1.043355	-0.028886	-0.571289	0.693848	0.070557	0.539394	-0.587839	-0.281178	-0.533329
56783		9.560127	-2.438483	1.135189	1.683395	-0.944949	-0.024088	-0.555664	0.709961	0.057373	0.545314	-0.584360	-0.292900	-0.524753
56784		9.632607	-2.322668	1.090672	1.475133	-0.824977	-0.017445	-0.567383	0.699463	0.045898	0.550427	-0.581183	-0.303061	-0.517117
56785		9.581934	-2.360009	1.231673	1.257112	-0.714106	-0.011251	-0.562988	0.699951	0.036621	0.554686	-0.578443	-0.311707	-0.510456
56786		9.598607	-2.497421	1.227603	1.053907	-0.604690	-0.006860	-0.558838	0.706787	0.032959	0.558203	-0.576117	-0.318921	-0.504766
56787		9.580112	-2.473397	1.230942	0.872308	-0.506438	-0.005477	-0.557861	0.703613	0.029053	0.561067	-0.574175	-0.324880	-0.499980
56788		9.468014	-2.613173	1.122269	0.682630	-0.410969	0.000960	-0.565674	0.698975	0.023438	0.563273	-0.572707	-0.329558	-0.496107
56789		9.320202	-2.791883	1.153154	0.554477	-0.332430	0.006162	-0.550537	0.703857	0.022217	0.565082	-0.571507	-0.333306	-0.492919
56790		9.389791	-2.530878	1.240347	0.437327	-0.270272	0.007325	-0.556641	0.701416	0.009521	0.566501	-0.570593	-0.336262	-0.490335
56791		9.296863	-2.629755	1.340655	0.342044	-0.204195	0.013881	-0.565918	0.699707	0.021729	0.567668	-0.569866	-0.338487	-0.488296
56792		9.294745	-2.899953	1.289115	0.304809	-0.171620	0.010959	-0.552979	0.702881	0.009277	0.568729	-0.569172	-0.340417	-0.486526
56793		9.353543	-2.965873	1.207551	0.217573	-0.126617	0.009387	-0.552490	0.706055	0.011719	0.569499	-0.568696	-0.341783	-0.485221
56794		9.266039	-2.999695	1.283082	0.086867	-0.057943	0.016100	-0.559814	0.697998	0.018555	0.569868	-0.568584	-0.342263	-0.484581
56795		9.176436	-3.147650	1.398742	0.045521	-0.039652	0.017207	-0.551758	0.703125	0.015625	0.570095	-0.568597	-0.342486	-0.484141
56796		9.171618	-2.948276	1.488516	0.060421	-0.052360	0.008885	-0.563232	0.702881	0.018066	0.570326	-0.568565	-0.342866	-0.483637
56797		9.265115	-2.863863	1.542190	0.028677	-0.045659	0.000483	-0.553223	0.703613	0.003662	0.570390	-0.568632	-0.343128	-0.483297
56798		9.213011	-3.071649	1.428361	-0.026437	-0.035163	-0.004034	-0.557861	0.705811	0.011963	0.570208	-0.568901	-0.343138	-0.483188
56799		9.115275	-3.428853	1.295951	-0.046330	-0.029014	-0.008451	-0.553711	0.708740	0.013672	0.569928	-0.569233	-0.343059	-0.483185
56800		9.055217	-3.509817	1.125900	-0.036840	-0.021382	-0.003829	-0.556885	0.700928	0.013916	0.569735	-0.569501	-0.342956	-0.483168
56801		9.153561	-3.440169	1.119354	-0.013425	-0.028462	-0.003652	-0.557861	0.712402	0.012207	0.569632	-0.569687	-0.342985	-0.483050
56802		9.362005	-3.122864	1.145097	-0.015659	-0.025830	-0.006736	-0.559326	0.697998	0.019531	0.569518	-0.569863	-0.343002	-0.482964
56803		9.465285	-2.881775	1.113708	-0.088290	0.008897	-0.008969	-0.553955	0.707275	0.017090	0.569141	-0.570243	-0.342578	-0.483262
56804		9.351879	-3.136557	1.098091	-0.150652	0.038776	-0.011720	-0.556885	0.705078	0.020996	0.568551	-0.570784	-0.341768	-0.483891
56805		9.211052	-3.262492	0.968881	-0.162852	0.058524	-0.013105	-0.564453	0.697998	0.019531	0.567946	-0.571302	-0.340825	-0.484654
56806		9.286725	-3.211776	0.791229	-0.201833	0.095805	-0.009424	-0.561279	0.697998	0.017578	0.567273	-0.571860	-0.339535	-0.485689
56807		9.371608	-2.833300	0.733318	-0.312947	0.161960	0.000305	-0.563721	0.707031	0.025635	0.566297	-0.572700	-0.337431	-0.487301
56808		9.349866	-3.027132	0.714822	-0.387086	0.214759	0.011913	-0.554443	0.709961	0.023682	0.565156	-0.573706	-0.334716	-0.489311
56809		9.573064	-2.706064	0.983267	-0.426126	0.244040	0.005389	-0.552002	0.711914	0.035645	0.563881	-0.574745	-0.331728	-0.491592
56810		10.003128	-1.724000	1.065012	-0.570975	0.344151	0.002462	-0.557861	0.702881	0.031982	0.562157	-0.576043	-0.327680	-0.494751
56811		10.316321	-1.022631	1.076009	-0.958743	0.560859	0.024323	-0.562744	0.701904	0.032227	0.559214	-0.578277	-0.320917	-0.499888
56812		10.141987	-1.289161	1.053026	-1.383025	0.795097	0.048322	-0.556885	0.706299	0.048096	0.554877	-0.581493	-0.311145	-0.507115
56813		10.026891	-1.427236	0.923230	-1.734742	1.008777	0.056919	-0.552246	0.705078	0.060059	0.549303	-0.585333	-0.298774	-0.516126
56814		9.784505	-1.801406	0.926732	-2.076030	1.219461	0.067902	-0.553955	0.711182	0.072266	0.542448	-0.589655	-0.283818	-0.526787
56815		9.291646	-2.786502	0.961993	-2.280950	1.342863	0.076847	-0.554443	0.708496	0.083496	0.534681	-0.594114	-0.267239	-0.538264
56816		9.101683	-3.227229	1.059918	-2.346693	1.407170	0.070655	-0.551758	0.706299	0.101074	0.526436	-0.598258	-0.249984	-0.549964
56817		9.054688	-3.575464	1.098093	-2.452890	1.476156	0.070764	-0.562500	0.713379	0.112061	0.517520	-0.602237	-0.231793	-0.561921
56818		8.755757	-3.978045	1.254753	-2.502470	1.520211	0.060289	-0.565186	0.702393	0.128906	0.508100	-0.605834	-0.213112	-0.573918
56819		8.735292	-4.008541	1.498506	-2.533563	1.527003	0.044467	-0.560547	0.694824	0.145752	0.498134	-0.609149	-0.194211	-0.585732
56820		8.513787	-4.314100	1.588399	-2.571584	1.542030	0.044201	-0.567871	0.695557	0.157959	0.487701	-0.612186	-0.174924	-0.597309
56821		8.288978	-4.943918	1.540277	-2.470217	1.476392	0.040238	-0.565918	0.690918	0.169434	0.477398	-0.614746	-0.156330	-0.608063
56822		8.101709	-5.184949	1.721459	-2.236212	1.343578	0.028579	-0.572998	0.684082	0.179932	0.467848	-0.616703	-0.139415	-0.617543
56823		8.091935	-5.212029	1.790748	-1.972582	1.193565	0.024254	-0.577148	0.681396	0.194580	0.459252	-0.618128	-0.124418	-0.625720
56824		8.076812	-5.303321	1.864336	-1.739783	1.058787	0.025661	-0.589600	0.681152	0.202881	0.451571	-0.619188	-0.111087	-0.632732
56825		7.878145	-5.656546	2.104463	-1.460352	0.892054	0.017180	-0.580322	0.677002	0.214600	0.445015	-0.619893	-0.099893	-0.638526
56826		7.739047	-5.825005	2.304319	-1.121555	0.695331	0.010256	-0.589355	0.661865	0.220947	0.439986	-0.620332	-0.091198	-0.642871
56827		7.756226	-5.747776	2.353109	-0.799949	0.504308	0.003197	-0.578613	0.668945	0.220703	0.436277	-0.620560	-0.084980	-0.646023
56828		7.677356	-5.883854	2.414411	-0.468941	0.308809	0.005310	-0.577637	0.676270	0.217285	0.434299	-0.620595	-0.081196	-0.647807
56829		7.613402	-5.986842	2.410263	-0.105267	0.084183	0.002457	-0.582275	0.669189	0.225586	0.434138	-0.620467	-0.080198	-0.648161
56830		7.758679	-5.746918	2.404395	0.228720	-0.123796	-0.004607	-0.589111	0.669434	0.220947	0.435402	-0.620317	-0.081795	-0.647257
56831		8.080914	-5.065525	2.309652	0.478904	-0.254697	-0.003462	-0.584229	0.674561	0.220703	0.437834	-0.619910	-0.085236	-0.645561
56832		8.689571	-3.975538	2.233216	0.508259	-0.279246	-0.008819	-0.577148	0.667969	0.231445	0.440407	-0.619542	-0.088929	-0.643663
56833		8.890283	-3.645398	2.219056	0.389006	-0.219768	-0.005967	-0.587402	0.661621	0.214111	0.442295	-0.619443	-0.091709	-0.642071
56834		8.875025	-3.736088	2.303811	0.278947	-0.162250	-0.007800	-0.579590	0.666992	0.197998	0.443566	-0.619250	-0.093773	-0.641081
56835		8.807379	-3.814510	2.269364	0.172651	-0.110979	-0.006655	-0.580078	0.680664	0.217041	0.444521	-0.619038	-0.095075	-0.640433
56836		8.759412	-3.934636	2.137194	0.065787	-0.069171	-0.010328	-0.579590	0.676514	0.211670	0.444949	-0.619200	-0.095623	-0.639897
56837		8.691582	-4.172019	2.006124	-0.004636	-0.028168	-0.008543	-0.585449	0.665771	0.212891	0.445038	-0.619350	-0.095650	-0.639685
56838		8.625019	-4.300068	1.919149	-0.025211	-0.012311	-0.009902	-0.586426	0.665283	0.208008	0.444840	-0.619492	-0.095547	-0.639701
56839		8.636855	-4.276796	1.878015	-0.016357	0.002033	-0.008621	-0.578613	0.677246	0.213623	0.444733	-0.619459	-0.095450	-0.639822
56840		8.613847	-4.233105	1.901544	-0.018972	0.007196	-0.003865	-0.582275	0.679443	0.213379	0.444820	-0.619500	-0.095238	-0.639754
56841		8.625784	-4.253939	2.003524	-0.021084	0.014103	-0.000228	-0.585205	0.670898	0.206787	0.444919	-0.619493	-0.094989	-0.639729
56842		8.620752	-4.268468	2.061556	-0.003879	0.017269	-0.001088	-0.581055	0.666748	0.211182	0.445013	-0.619314	-0.094863	-0.639855
56843		8.514010	-4.423985	2.152834	0.039194	0.001736	0.001083	-0.569092	0.678223	0.212646	0.445267	-0.619146	-0.094981	-0.639824
56844		8.491037	-4.378722	2.179454	0.085551	-0.030759	0.003726	-0.581055	0.670654	0.210693	0.446012	-0.619046	-0.095388	-0.639340
56845		8.555710	-4.294080	2.131230	0.092766	-0.031621	0.002985	-0.588379	0.671631	0.217041	0.446555	-0.618859	-0.095907	-0.639065
56846		8.578150	-4.258949	2.158465	0.074654	-0.018992	0.001884	-0.578369	0.673584	0.206543	0.446874	-0.618739	-0.096302	-0.638899
56847		8.620289	-4.220082	2.188499	0.044263	-0.004238	0.000314	-0.581787	0.675781	0.206543	0.447262	-0.618548	-0.096473	-0.638786
56848		8.554319	-4.249570	2.253768	0.006646	0.011353	-0.000513	-0.584229	0.675781	0.201660	0.447452	-0.618402	-0.096407	-0.638805
56849		8.522930	-4.322272	2.204914	-0.017446	0.017263	-0.002559	-0.571289	0.674805	0.200439	0.447531	-0.618226	-0.096235	-0.638946
56850		8.506926	-4.371034	2.162443	-0.013489	0.012086	-0.004579	-0.580078	0.677490	0.205566	0.447762	-0.618110	-0.096055	-0.638923
56851		8.554125	-4.374848	2.135575	-0.010436	0.008536	-0.003675	-0.588867	0.676270	0.210693	0.447895	-0.618039	-0.095925	-0.638919
56852		8.571000	-4.322456	2.165149	-0.010411	0.006237	-0.004656	-0.579102	0.676025	0.206299	0.447831	-0.618021	-0.095831	-0.638994
56853		8.575358	-4.262487	2.195660	-0.012693	0.010145	-0.003472	-0.584473	0.669189	0.208252	0.447932	-0.617969	-0.095672	-0.638998
56854		8.560784	-4.307445	2.138541	-0.006153	0.006888	-0.004549	-0.575928	0.680664	0.210693	0.447827	-0.617925	-0.095577	-0.639128
56855		8.574555	-4.311046	2.123925	-0.003521	0.004208	-0.005569	-0.590576	0.675293	0.205566	0.448039	-0.617960	-0.095463	-0.638962
56856		8.590446	-4.307775	2.081380	-0.006432	0.013061	-0.003054	-0.585693	0.676514	0.209961	0.448014	-0.617788	-0.095393	-0.639157
56857		8.592384	-4.358748	2.070377	-0.006279	0.013573	-0.004343	-0.580322	0.671143	0.211182	0.448013	-0.617725	-0.095275	-0.639236
56858		8.602160	-4.281135	2.031544	-0.006182	0.018676	-0.003666	-0.583008	0.676758	0.205566	0.447962	-0.617703	-0.095089	-0.639321
56859		8.620592	-4.221815	2.035619	-0.021068	0.037812	-0.005276	-0.574463	0.673828	0.206543	0.448000	-0.617499	-0.094820	-0.639531
56860		8.651234	-4.146152	2.076644	-0.035401	0.051874	-0.001442	-0.576904	0.673828	0.204590	0.448042	-0.617359	-0.094343	-0.639707
56861		8.638180	-4.112123	2.105098	-0.074886	0.075262	-0.001251	-0.575195	0.673584	0.211426	0.447890	-0.617190	-0.093595	-0.640087
56862		8.736114	-3.894785	2.114058	-0.167257	0.117948	-0.002830	-0.585449	0.672852	0.207275	0.447210	-0.617288	-0.092144	-0.640678
56863		9.090860	-3.446224	2.042874	-0.412357	0.242405	0.006608	-0.582031	0.675781	0.208984	0.445324	-0.617467	-0.088968	-0.642266
56864		8.948015	-3.721279	2.161543	-0.669840	0.382087	0.008113	-0.581055	0.678711	0.214111	0.442383	-0.617848	-0.083872	-0.644613
56865		8.805369	-3.836576	2.354005	-0.800028	0.445717	0.000906	-0.580811	0.675781	0.219727	0.438891	-0.618369	-0.077864	-0.647250
56866		8.908819	-3.492726	2.311559	-0.980834	0.561031	-0.001244	-0.594971	0.663574	0.228516	0.434507	-0.618920	-0.070454	-0.650522
56867		9.411634	-2.725400	2.120989	-1.341647	0.757666	-0.005019	-0.588867	0.663574	0.235107	0.427828	-0.619632	-0.060421	-0.655262
56868		9.153712	-3.261721	1.880460	-1.705511	0.977155	0.014021	-0.586914	0.657715	0.247314	0.419683	-0.620358	-0.047475	-0.660885
56869		9.030487	-3.399794	1.832875	-1.900964	1.106762	0.009126	-0.585938	0.656982	0.255615	0.410491	-0.620979	-0.032972	-0.666929
56870		8.824712	-3.897307	1.730602	-2.090323	1.234374	0.016694	-0.596191	0.654785	0.264404	0.400543	-0.621316	-0.016936	-0.673235
56871		8.395724	-4.575822	1.658417	-2.176358	1.295284	0.020750	-0.604736	0.642090	0.274170	0.390122	-0.621263	-0.000254	-0.679586
56872		8.397313	-4.670747	1.531688	-2.220418	1.333129	0.014489	-0.612305	0.626465	0.283203	0.379119	-0.620845	0.016741	-0.685959
56873		8.247020	-4.814589	1.589223	-2.340690	1.409987	0.027274	-0.624512	0.629639	0.296387	0.367174	-0.620056	0.034720	-0.692465
56874		7.911734	-5.373052	1.734901	-2.325665	1.406588	0.031794	-0.619141	0.621094	0.301025	0.355458	-0.618942	0.052528	-0.698428
56875		7.829431	-5.569727	1.959840	-2.185728	1.336518	0.018826	-0.628174	0.611572	0.307373	0.344495	-0.617530	0.069281	-0.703690
56876		7.503706	-6.111545	2.051889	-1.968172	1.220868	0.018427	-0.635742	0.600098	0.321045	0.334466	-0.615876	0.084386	-0.708313
56877		7.156916	-6.593859	2.044400	-1.657764	1.027695	0.009637	-0.640625	0.604004	0.323486	0.325807	-0.614458	0.097008	-0.711955
56878		7.253570	-6.675819	1.896651	-1.391595	0.858618	0.002826	-0.641357	0.586670	0.330566	0.318455	-0.613085	0.107618	-0.714935
56879		7.088873	-6.909017	1.927799	-1.113209	0.698457	0.008454	-0.644531	0.582275	0.330566	0.312312	-0.611856	0.116195	-0.717351
56880		7.171302	-6.772096	1.983109	-0.788818	0.500822	0.000570	-0.653809	0.576416	0.333496	0.307900	-0.610873	0.122285	-0.719081
56881		7.465550	-6.298619	1.823900	-0.560556	0.369844	-0.007993	-0.648193	0.577637	0.340332	0.304669	-0.610062	0.126634	-0.720392
56882		7.973135	-5.584406	1.812559	-0.571162	0.369215	-0.008133	-0.656982	0.570312	0.336426	0.301413	-0.609286	0.131029	-0.721631
56883		8.130936	-5.211596	2.034571	-0.746929	0.452108	0.008649	-0.655518	0.566895	0.338623	0.297224	-0.608382	0.136786	-0.723062
56884		8.211265	-4.860848	2.307779	-0.840869	0.507273	0.017516	-0.658203	0.566406	0.355957	0.292547	-0.607341	0.143273	-0.724587
56885		8.198394	-4.671072	2.569451	-0.844412	0.521400	0.009736	-0.663086	0.566162	0.351562	0.287764	-0.606210	0.149763	-0.726135
56886		7.919710	-5.167395	2.651191	-0.791257	0.498550	0.000286	-0.666260	0.555664	0.350830	0.283222	-0.605045	0.155809	-0.727619
56887		7.558068	-5.817646	2.497960	-0.784506	0.475009	0.004218	-0.667480	0.551025	0.350830	0.278730	-0.603961	0.161778	-0.728951
56888		7.516854	-5.974763	2.159808	-0.822226	0.474681	0.008937	-0.665039	0.549072	0.348877	0.274067	-0.602923	0.167987	-0.730173
56889		7.411654	-6.041366	2.138863	-0.851539	0.474861	0.016340	-0.673340	0.549805	0.360107	0.269309	-0.601904	0.174390	-0.731281
56890		7.119568	-6.451594	2.221779	-0.692374	0.371129	0.015152	-0.674316	0.527100	0.365967	0.265471	-0.601136	0.179577	-0.732061
56891		6.938715	-6.815931	2.040856	-0.322675	0.181374	0.004317	-0.668213	0.543213	0.368408	0.263631	-0.600695	0.182066	-0.732473
56892		7.318045	-6.366254	1.610700	-0.050347	0.049092	-0.010023	-0.672607	0.549805	0.359131	0.263351	-0.600496	0.182492	-0.732631
56893		7.779444	-5.769730	1.469367	-0.112791	0.086929	-0.000788	-0.674561	0.543701	0.363770	0.262765	-0.600181	0.183424	-0.732866
56894		7.806532	-5.686938	1.727882	-0.237323	0.166094	0.014364	-0.682617	0.541504	0.351807	0.261501	-0.599631	0.185378	-0.733277
56895		7.563270	-5.741232	2.152801	-0.127555	0.121828	0.011649	-0.677490	0.545410	0.361328	0.260824	-0.599104	0.186561	-0.733648
56896		7.570196	-5.856600	2.276293	0.087781	0.015362	-0.008494	-0.683594	0.545898	0.362793	0.261285	-0.598806	0.186079	-0.733850
56897		7.786145	-5.745084	2.051690	0.103830	-0.005049	-0.012936	-0.680420	0.537109	0.352539	0.261815	-0.598598	0.185443	-0.733992
56898		7.851743	-5.533662	2.035800	-0.052356	0.074678	-0.005017	-0.678467	0.546143	0.362305	0.261475	-0.598221	0.185986	-0.734283
56899		7.599417	-5.852804	2.265156	-0.145754	0.111092	-0.002321	-0.680420	0.545898	0.360596	0.260659	-0.597837	0.187173	-0.734585
56900		7.566444	-5.977819	2.347118	-0.078990	0.063394	-0.005614	-0.668945	0.550049	0.347656	0.260227	-0.597597	0.187833	-0.734764
56901		7.436226	-6.025021	2.302499	0.082424	-0.030415	-0.018141	-0.677246	0.545410	0.360596	0.260711	-0.597606	0.187214	-0.734744
56902		7.649941	-5.840270	2.159755	0.163237	-0.087998	-0.022045	-0.672363	0.542236	0.359863	0.261620	-0.597794	0.185978	-0.734581
56903		7.765875	-5.591696	2.032623	0.096787	-0.050536	-0.014243	-0.670898	0.544189	0.359619	0.262189	-0.597883	0.185270	-0.734484
56904		7.649845	-5.739993	2.044224	0.048349	-0.026577	-0.010078	-0.678467	0.548340	0.349365	0.262513	-0.597926	0.184928	-0.734420
56905		7.659311	-5.789851	2.110060	0.071688	-0.044823	-0.013274	-0.678955	0.545410	0.355957	0.262959	-0.598025	0.184390	-0.734315
56906		7.620769	-5.824543	2.060976	0.095155	-0.056002	-0.007420	-0.669434	0.540283	0.353271	0.263559	-0.598138	0.183720	-0.734176
56907		7.514505	-5.957847	2.098616	0.156066	-0.089747	-0.000118	-0.673828	0.547363	0.359375	0.264564	-0.598312	0.182636	-0.733943
56908		7.480486	-5.988711	2.107851	0.277593	-0.144532	-0.007510	-0.675293	0.543457	0.362305	0.266217	-0.598567	0.180649	-0.733629
56909		7.596656	-5.798159	1.983961	0.317119	-0.159488	-0.003855	-0.676270	0.553955	0.357422	0.268081	-0.598810	0.178419	-0.733298
56910		7.760262	-5.564955	1.993485	0.272946	-0.124045	0.002295	-0.672607	0.555420	0.356201	0.269739	-0.598919	0.176555	-0.733052
56911		7.733681	-5.599206	2.204496	0.226060	-0.097690	0.005583	-0.674805	0.547363	0.344971	0.271147	-0.598968	0.175048	-0.732854
56912		7.618248	-5.783351	2.327016	0.260523	-0.124031	0.006585	-0.673828	0.553711	0.343994	0.272734	-0.599075	0.173296	-0.732594
56913		7.313280	-6.261125	2.300285	0.425385	-0.223420	0.001457	-0.679199	0.550781	0.352783	0.275275	-0.599424	0.170274	-0.732067
56914		7.449530	-6.209042	2.119698	0.646828	-0.343757	-0.010314	-0.668457	0.563232	0.354492	0.278957	-0.600004	0.165586	-0.731272
56915		7.377277	-6.273559	2.112377	0.767147	-0.409636	-0.001803	-0.665039	0.557617	0.345459	0.283435	-0.600690	0.160019	-0.730226
56916		7.418738	-6.316805	2.125075	0.864924	-0.474782	-0.001968	-0.667969	0.567383	0.334717	0.288439	-0.601482	0.153712	-0.728969
56917		7.625182	-5.956305	2.220024	0.897481	-0.497427	0.000292	-0.664062	0.564697	0.336670	0.293645	-0.602267	0.147154	-0.727594
56918		7.501953	-5.952120	2.429883	0.897069	-0.516802	0.006215	-0.661621	0.572998	0.336670	0.298842	-0.603130	0.140585	-0.726060
56919		7.225015	-6.452281	2.582587	1.087771	-0.635886	0.002913	-0.653564	0.580078	0.322266	0.305100	-0.604197	0.132534	-0.724082
56920		7.420835	-6.094455	2.459546	1.357116	-0.787774	-0.011816	-0.652588	0.583984	0.327393	0.312803	-0.605404	0.122365	-0.721573
56921		7.416974	-6.119322	2.344573	1.501360	-0.890306	-0.013092	-0.650146	0.592529	0.320801	0.321205	-0.606760	0.111055	-0.718566
56922		7.324231	-6.323817	2.170409	1.669117	-0.989670	-0.008627	-0.646729	0.598877	0.311768	0.330495	-0.608106	0.098474	-0.715041
56923		7.582937	-5.747958	2.129064	1.768939	-1.034881	-0.009211	-0.634521	0.604980	0.309814	0.340222	-0.609262	0.085151	-0.711195
56924		7.879856	-5.211377	2.245827	1.734996	-1.024862	-0.004971	-0.625000	0.614746	0.291748	0.349689	-0.610318	0.072058	-0.707133
56925		7.836445	-5.421150	2.432259	1.727449	-1.015888	-0.000863	-0.631104	0.619141	0.293945	0.359132	-0.611130	0.059003	-0.702896
56926		7.648824	-5.624860	2.403283	1.873258	-1.111137	-0.008897	-0.615723	0.632080	0.289062	0.369053	-0.611899	0.044799	-0.698121
56927		7.988756	-5.163803	2.185812	2.009899	-1.170401	-0.016101	-0.617432	0.640137	0.269043	0.379595	-0.612434	0.029556	-0.692790
56928		8.127222	-4.978352	2.131564	1.986559	-1.159080	-0.013574	-0.610840	0.645508	0.260254	0.389912	-0.612665	0.014458	-0.687314
56929		8.032847	-5.075296	2.072311	1.955858	-1.142642	-0.003415	-0.606445	0.648926	0.250244	0.399963	-0.612691	-0.000361	-0.681645
56930		8.094671	-4.912977	2.098095	1.968623	-1.143070	-0.007637	-0.604492	0.653564	0.245605	0.409869	-0.612456	-0.015273	-0.675775
56931		8.432781	-4.460948	2.173043	1.904538	-1.115518	-0.007206	-0.604248	0.666016	0.228516	0.419214	-0.612109	-0.029694	-0.669851
56932		8.431426	-4.262438	2.166882	1.760908	-1.047496	-0.004153	-0.595459	0.665527	0.225342	0.427816	-0.611633	-0.043106	-0.664094
56933		8.622642	-3.969762	2.153968	1.620177	-0.955886	-0.007322	-0.587402	0.674316	0.213867	0.435512	-0.611059	-0.055377	-0.658687
56934		8.837146	-3.725666	2.145533	1.443682	-0.860188	-0.009618	-0.583252	0.675293	0.213623	0.442344	-0.610465	-0.066356	-0.653652
56935		8.758405	-3.920606	2.177794	1.345639	-0.808611	-0.013323	-0.591064	0.677002	0.197021	0.448487	-0.609919	-0.076557	-0.648844
56936		8.524819	-4.307739	2.127392	1.382155	-0.797895	-0.012051	-0.587891	0.679199	0.196289	0.454771	-0.608949	-0.087010	-0.644045
56937		8.336760	-4.695830	2.018104	1.491887	-0.850328	-0.015450	-0.574463	0.674072	0.186035	0.461364	-0.607816	-0.098185	-0.638798
56938		8.304477	-4.806708	2.051406	1.585910	-0.904221	-0.008404	-0.581787	0.681396	0.171631	0.468406	-0.606501	-0.110027	-0.632966
56939		7.996147	-5.150168	2.124012	1.719632	-0.970202	-0.002195	-0.575439	0.688721	0.159180	0.476078	-0.604787	-0.122871	-0.626487
56940		8.285206	-4.872413	2.214719	1.835638	-1.031561	-0.004547	-0.573975	0.696289	0.154785	0.484220	-0.602766	-0.136514	-0.619328
56941		8.332377	-4.624565	2.270392	1.888071	-1.072690	-0.003022	-0.575195	0.697754	0.141113	0.492397	-0.600614	-0.150472	-0.611691
56942		8.227664	-4.735607	2.261434	1.997373	-1.157233	-0.008057	-0.565918	0.694824	0.128174	0.500841	-0.598204	-0.165335	-0.603303
56943		8.491168	-4.411622	2.238386	2.078649	-1.216334	-0.015533	-0.565674	0.697510	0.121094	0.509412	-0.595513	-0.180820	-0.594279
56944		8.462613	-4.420722	2.144369	2.172783	-1.273020	-0.025932	-0.562500	0.705566	0.104980	0.518094	-0.592448	-0.196970	-0.584625
56945		8.577170	-4.291051	1.808997	2.282563	-1.344675	-0.037163	-0.562256	0.704590	0.088867	0.526936	-0.588950	-0.213929	-0.574205
56946		8.782628	-3.915797	1.644234	2.321068	-1.370984	-0.044945	-0.567627	0.699463	0.085449	0.535620	-0.585099	-0.231126	-0.563340
56947		8.929892	-3.552076	1.464694	2.287222	-1.358494	-0.045055	-0.551025	0.703369	0.063721	0.543890	-0.581057	-0.247990	-0.552320
56948		9.075537	-3.202768	1.434158	2.223587	-1.314136	-0.046430	-0.553955	0.708496	0.049561	0.551692	-0.576812	-0.264247	-0.541385
56949		9.530425	-2.607989	1.439972	2.040543	-1.220465	-0.046571	-0.549561	0.704590	0.035645	0.558580	-0.572740	-0.279140	-0.531073
56950		9.512813	-2.481901	1.603634	1.792988	-1.094701	-0.043878	-0.562256	0.714355	0.023438	0.564396	-0.569069	-0.292244	-0.521739
56951		9.583122	-2.561957	1.561611	1.572291	-0.980420	-0.053648	-0.565430	0.696045	0.016357	0.569246	-0.565759	-0.303823	-0.513389
56952		9.588518	-2.732211	1.304769	1.319159	-0.861415	-0.059794	-0.558105	0.699951	0.009277	0.573058	-0.563008	-0.313723	-0.506166
56953		9.654774	-2.352756	0.953211	1.053153	-0.705466	-0.054043	-0.555420	0.706787	0.013916	0.575976	-0.560805	-0.321684	-0.500268
56954		9.599505	-2.338850	0.655886	0.831902	-0.550476	-0.037995	-0.553467	0.701904	-0.008057	0.578289	-0.559010	-0.327879	-0.495565
56955		9.503940	-2.460196	0.578819	0.747903	-0.457124	-0.029094	-0.558350	0.700684	-0.004883	0.580466	-0.557222	-0.333221	-0.491453
56956		9.761704	-2.146589	0.839158	0.630631	-0.349860	-0.007047	-0.554199	0.706055	-0.003418	0.582459	-0.555601	-0.337449	-0.488034
56957		9.573014	-2.303261	1.520452	0.473373	-0.247616	0.010421	-0.563965	0.697021	-0.008301	0.584066	-0.554360	-0.340453	-0.485431
56958		9.523468	-2.322975	1.862187	0.305419	-0.159301	0.008072	-0.561279	0.703369	-0.009277	0.585128	-0.553564	-0.342357	-0.483719
56959		9.350042	-2.593046	1.723135	0.152064	-0.090758	0.004048	-0.558838	0.703369	-0.019043	0.585660	-0.553223	-0.343326	-0.482778
56960		9.084429	-3.059640	1.474460	0.055857	-0.032897	0.006549	-0.558838	0.697754	-0.006104	0.585922	-0.553124	-0.343613	-0.482367
56961		8.952642	-3.406064	1.406785	0.062247	-0.032627	0.008071	-0.548096	0.693848	-0.016113	0.586220	-0.552999	-0.343918	-0.481932
56962		8.975708	-3.393951	1.779809	0.071429	-0.039303	0.008748	-0.559326	0.697754	-0.016846	0.586544	-0.552857	-0.344289	-0.481436
56963		9.145927	-2.868704	2.153177	0.064376	-0.052469	0.001036	-0.564209	0.708496	-0.012451	0.586767	-0.552780	-0.344730	-0.480937
56964		9.210676	-2.629120	2.173432	-0.001857	-0.042781	-0.010226	-0.554932	0.707764	-0.011963	0.586667	-0.552955	-0.344909	-0.480729
56965		9.208450	-2.817996	2.011795	-0.035332	-0.032507	-0.017978	-0.558105	0.700684	-0.011230	0.586412	-0.553229	-0.344937	-0.480705
56966		8.944808	-3.503404	1.743723	-0.050121	-0.044767	-0.013570	-0.559814	0.709229	-0.017334	0.586069	-0.553636	-0.344947	-0.480646
56967		9.007913	-3.631501	1.409906	-0.014775	-0.075442	-0.014133	-0.553711	0.701172	-0.012695	0.585802	-0.553991	-0.345250	-0.480347
56968		9.150508	-3.302326	1.147075	-0.005242	-0.066457	-0.012619	-0.561279	0.710693	-0.012207	0.585609	-0.554269	-0.345538	-0.480054
56969		9.414791	-2.912028	1.215684	-0.016265	-0.057255	-0.010879	-0.558838	0.695801	-0.001221	0.585398	-0.554570	-0.345730	-0.479825
56970		9.496700	-2.838321	1.223096	-0.040169	-0.039854	-0.009792	-0.552979	0.697510	-0.013428	0.585130	-0.554922	-0.345737	-0.479740
56971		9.475474	-2.901501	1.212323	-0.074964	-0.017944	-0.005985	-0.562988	0.704834	-0.013184	0.584781	-0.555363	-0.345483	-0.479838
56972		9.440585	-2.821617	1.221690	-0.183804	0.063085	0.007543	-0.561279	0.700684	-0.007812	0.584214	-0.556050	-0.344336	-0.480557
56973		9.086921	-3.280877	1.207888	-0.223629	0.126364	0.025449	-0.556396	0.704590	-0.001709	0.583712	-0.556729	-0.342638	-0.481594
56974		9.260299	-3.106759	1.120881	-0.200965	0.121192	0.016556	-0.554199	0.699219	-0.004395	0.583263	-0.557291	-0.341094	-0.482583
56975		9.370602	-2.971367	1.291561	-0.233018	0.154852	0.020102	-0.561523	0.702393	-0.001709	0.582773	-0.557879	-0.339243	-0.483799
56976		9.549014	-2.491654	1.316857	-0.325561	0.209965	0.014782	-0.560059	0.699951	-0.002197	0.581980	-0.558675	-0.336774	-0.485556
56977		9.400357	-2.883823	1.484206	-0.495305	0.278984	0.021449	-0.559814	0.696777	0.007812	0.580609	-0.560024	-0.333249	-0.488070
56978		9.299296	-2.832126	1.570150	-0.532730	0.306375	0.015865	-0.553955	0.707764	0.009277	0.579100	-0.561415	-0.329456	-0.490830
56979		9.577173	-2.269546	1.519802	-0.703755	0.392743	0.012812	-0.550293	0.703613	0.008545	0.576999	-0.563248	-0.324548	-0.494461
56980		9.683411	-2.280773	1.373108	-0.949999	0.514012	0.014519	-0.560059	0.703125	0.019531	0.574040	-0.565732	-0.318019	-0.499289
56981		9.820456	-1.968198	1.284194	-1.217970	0.651214	0.014464	-0.555420	0.707275	0.021973	0.570114	-0.568868	-0.309687	-0.505423
56982		9.709521	-2.048671	1.130897	-1.511532	0.844598	0.024113	-0.547607	0.715820	0.037842	0.565245	-0.572509	-0.299103	-0.513098
56983		9.559948	-2.394093	1.073035	-1.708489	1.004064	0.030865	-0.552979	0.708252	0.038818	0.559728	-0.576279	-0.286817	-0.521865
56984		9.287309	-2.978798	1.131023	-1.844121	1.083269	0.040648	-0.557617	0.703613	0.052734	0.553623	-0.580179	-0.273459	-0.531143
56985		9.010696	-3.622807	1.129769	-1.883863	1.132829	0.048612	-0.553223	0.709961	0.072266	0.547285	-0.583879	-0.259570	-0.540544
56986		9.024737	-3.638020	1.268319	-1.899285	1.168942	0.034710	-0.557129	0.708008	0.085693	0.540706	-0.587269	-0.245410	-0.550023
56987		8.819645	-3.940381	1.547931	-1.914863	1.174902	0.037245	-0.552979	0.706299	0.094482	0.533882	-0.590504	-0.231058	-0.559364
56988		8.606719	-4.279150	1.757062	-1.861629	1.123877	0.023401	-0.555176	0.705811	0.099609	0.526989	-0.593506	-0.217172	-0.568217
56989		8.460825	-4.383941	1.837913	-1.758835	1.071867	0.014979	-0.560547	0.697510	0.107422	0.520318	-0.596090	-0.203985	-0.576487
56990		8.389797	-4.310704	1.951530	-1.663654	1.044971	0.013763	-0.567139	0.698730	0.130371	0.513909	-0.598218	-0.191330	-0.584316
56991		8.522015	-4.347315	1.999857	-1.637634	1.023203	0.008402	-0.566406	0.697021	0.130127	0.507405	-0.600210	-0.178843	-0.591865
56992		8.227682	-4.851274	2.196387	-1.537786	0.968327	0.008064	-0.566895	0.697266	0.145752	0.501228	-0.601874	-0.167057	-0.598841
56993		8.338627	-4.600361	2.447680	-1.409193	0.885547	-0.005251	-0.557617	0.698730	0.143555	0.495403	-0.603291	-0.156267	-0.605142
56994		8.326156	-4.541438	2.545103	-1.374570	0.830006	-0.010171	-0.574219	0.691406	0.162598	0.489637	-0.604694	-0.145892	-0.610996
56995		8.230654	-4.816268	2.554205	-1.285793	0.761599	-0.021632	-0.569336	0.688477	0.165771	0.484002	-0.606008	-0.136263	-0.616384
56996		8.445319	-4.535606	2.491302	-1.231841	0.701042	-0.036924	-0.575195	0.690674	0.175537	0.478460	-0.607294	-0.127218	-0.621357
56997		8.340752	-4.666009	2.283589	-1.216389	0.671653	-0.034244	-0.581787	0.681152	0.179932	0.472917	-0.608596	-0.118335	-0.626065
56998		8.336453	-4.746235	2.110359	-1.070757	0.585830	-0.036528	-0.581787	0.684326	0.186279	0.467927	-0.609684	-0.110560	-0.630163
56999		8.306026	-4.748417	2.172250	-0.891618	0.495146	-0.032035	-0.583252	0.688965	0.193359	0.463790	-0.610499	-0.104047	-0.633533
57000		8.208700	-4.977786	2.210329	-0.684547	0.396015	-0.031135	-0.580078	0.682373	0.196045	0.460633	-0.611007	-0.098997	-0.636150
57001		8.144833	-5.026511	2.182323	-0.498705	0.299075	-0.026478	-0.573730	0.680176	0.200928	0.458355	-0.611302	-0.095277	-0.638077
57002		8.108294	-4.992382	2.386668	-0.354899	0.217767	-0.021575	-0.581299	0.673340	0.204102	0.456787	-0.611496	-0.092590	-0.639410
57003		7.953316	-5.098786	2.547379	-0.186647	0.126026	-0.018285	-0.579102	0.679443	0.199951	0.455939	-0.611541	-0.091125	-0.640183
57004		7.918754	-5.204598	2.732012	0.018743	0.001103	-0.019297	-0.587402	0.676270	0.190674	0.456126	-0.611436	-0.091261	-0.640130
57005		8.018175	-5.168905	2.627661	0.215734	-0.125001	-0.024563	-0.583008	0.678467	0.186035	0.457166	-0.611182	-0.092990	-0.639381
57006		8.216927	-4.763324	2.285972	0.355167	-0.193622	-0.025238	-0.580322	0.676514	0.203369	0.458915	-0.610739	-0.095742	-0.638144
57007		8.740850	-3.926542	2.080956	0.307173	-0.165896	-0.029898	-0.575928	0.675049	0.192383	0.460285	-0.610470	-0.098058	-0.637063
57008		8.834124	-3.742383	2.153774	0.160516	-0.088471	-0.019864	-0.580078	0.673096	0.197754	0.461083	-0.610297	-0.099283	-0.636461
57009		8.725368	-3.869207	2.444540	0.094710	-0.042311	-0.024091	-0.584473	0.681396	0.186523	0.461464	-0.610173	-0.099969	-0.636197
57010		8.557777	-4.163705	2.514884	0.081116	-0.032780	-0.029760	-0.583984	0.679688	0.192139	0.461877	-0.609942	-0.100656	-0.636010
57011		8.395122	-4.435184	2.425478	0.092392	-0.050902	-0.029140	-0.580322	0.675781	0.185791	0.462275	-0.609820	-0.101429	-0.635715
57012		8.433913	-4.528813	2.269177	0.085434	-0.056680	-0.032546	-0.581055	0.673828	0.187500	0.462641	-0.609713	-0.102225	-0.635423
57013		8.483511	-4.406201	2.191256	0.066192	-0.042880	-0.029655	-0.577881	0.681885	0.189697	0.462890	-0.609631	-0.102831	-0.635224
57014		8.596950	-4.212208	2.224680	0.055892	-0.026004	-0.027713	-0.586914	0.682617	0.188477	0.463216	-0.609522	-0.103319	-0.635012
57015		8.674902	-4.112185	2.295540	0.048671	-0.025222	-0.026978	-0.585693	0.673340	0.187500	0.463444	-0.609409	-0.103772	-0.634880
57016		8.687235	-4.097340	2.373081	0.042973	-0.021342	-0.027898	-0.580322	0.679199	0.193359	0.463534	-0.609305	-0.104153	-0.634851
57017		8.486358	-4.244320	2.415527	0.027641	-0.020625	-0.027215	-0.578857	0.670898	0.185059	0.463626	-0.609328	-0.104424	-0.634718
57018		8.399610	-4.384364	2.302049	0.027698	-0.020356	-0.024481	-0.590332	0.677246	0.188965	0.463714	-0.609277	-0.104710	-0.634655
57019		8.403330	-4.402254	2.251824	0.031687	-0.015622	-0.027956	-0.585938	0.670410	0.186768	0.463738	-0.609191	-0.105011	-0.634670
57020		8.463164	-4.289364	2.174923	0.045611	-0.008906	-0.023060	-0.582275	0.678223	0.186768	0.463835	-0.609019	-0.105322	-0.634713
57021		8.680283	-4.151592	2.250802	0.033105	0.007325	-0.021925	-0.580811	0.684326	0.184814	0.464042	-0.608815	-0.105528	-0.634723
57022		8.646607	-4.189362	2.362350	0.016872	0.007156	-0.022024	-0.584961	0.677734	0.187500	0.464295	-0.608652	-0.105691	-0.634667
57023		8.612735	-4.128533	2.358690	0.005370	0.004400	-0.027792	-0.580811	0.681885	0.190918	0.464268	-0.608579	-0.105774	-0.634743
57024		8.589773	-4.196905	2.357921	-0.018761	0.020035	-0.027472	-0.576416	0.671631	0.186768	0.464212	-0.608568	-0.105654	-0.634814
57025		8.479481	-4.298867	2.344439	-0.033595	0.027600	-0.027352	-0.584473	0.674561	0.184326	0.464028	-0.608550	-0.105418	-0.635006
57026		8.526093	-4.267803	2.264836	-0.041719	0.027487	-0.027402	-0.575684	0.675049	0.187500	0.463790	-0.608501	-0.105181	-0.635266
57027		8.593140	-4.203059	2.209144	-0.053698	0.038202	-0.026222	-0.583252	0.670166	0.194824	0.463597	-0.608511	-0.104807	-0.635459
57028		8.683627	-4.130879	2.203199	-0.086158	0.063117	-0.026193	-0.583252	0.679932	0.193359	0.462982	-0.608599	-0.104061	-0.635945
57029		8.693733	-4.106248	2.153363	-0.131893	0.096476	-0.025896	-0.582275	0.678223	0.190918	0.462377	-0.608645	-0.103014	-0.636512
57030		8.662244	-4.131987	2.181763	-0.184478	0.132082	-0.025985	-0.583252	0.675781	0.196045	0.461575	-0.608665	-0.101580	-0.637304
57031		8.600820	-4.100729	2.312485	-0.228182	0.158146	-0.026396	-0.590332	0.670654	0.192383	0.460466	-0.608779	-0.099758	-0.638285
57032		8.567524	-4.191815	2.373250	-0.275541	0.183306	-0.027532	-0.580078	0.667480	0.196777	0.459025	-0.608850	-0.097625	-0.639584
57033		8.513079	-4.236312	2.487761	-0.314133	0.195866	-0.031424	-0.589111	0.676025	0.189697	0.457444	-0.609081	-0.095210	-0.640860
57034		8.567954	-4.071840	2.434753	-0.363888	0.222436	-0.037597	-0.588379	0.668457	0.200195	0.455797	-0.609168	-0.092614	-0.642328
57035		8.993626	-3.454294	2.366007	-0.532980	0.318748	-0.051750	-0.587158	0.659912	0.204102	0.453045	-0.609514	-0.088676	-0.644500
57036		8.913437	-3.581374	2.243840	-0.762465	0.437189	-0.047173	-0.586426	0.667480	0.208252	0.449112	-0.610104	-0.082985	-0.647445
57037		8.876588	-3.756574	2.175761	-0.922111	0.535776	-0.052689	-0.593262	0.666504	0.218262	0.444629	-0.610709	-0.076144	-0.650801
57038		8.948771	-3.673345	2.089164	-1.099656	0.644317	-0.057588	-0.596680	0.658447	0.212646	0.439134	-0.611385	-0.067903	-0.654797
57039		8.869144	-3.811868	2.110016	-1.290924	0.754774	-0.057233	-0.597412	0.660400	0.224854	0.432774	-0.611889	-0.058342	-0.659466
57040		8.675284	-4.070333	2.166131	-1.395321	0.818289	-0.060060	-0.607178	0.649902	0.229492	0.425925	-0.612415	-0.047951	-0.664256
57041		8.579290	-4.149302	2.197952	-1.458241	0.869852	-0.066333	-0.613037	0.644043	0.236084	0.418485	-0.612701	-0.037054	-0.669399
57042		8.583091	-4.219233	2.122499	-1.560853	0.941950	-0.065690	-0.614990	0.638428	0.242432	0.410434	-0.612797	-0.025326	-0.674821
57043		8.496281	-4.419472	1.973462	-1.658826	1.006172	-0.067819	-0.614746	0.634521	0.253418	0.401863	-0.612713	-0.012852	-0.680385
57044		8.374509	-4.512200	1.969514	-1.712175	1.055880	-0.066907	-0.618408	0.627686	0.260254	0.393041	-0.612453	0.000107	-0.685872
57045		8.321932	-4.671539	2.093551	-1.735784	1.080245	-0.072943	-0.625732	0.626953	0.263184	0.384009	-0.611967	0.013228	-0.691273
57046		8.291013	-4.695672	2.208255	-1.795967	1.115558	-0.076505	-0.635010	0.607666	0.273682	0.374753	-0.611210	0.026688	-0.696613
57047		7.916588	-5.250509	2.444025	-1.809860	1.119059	-0.070216	-0.633545	0.610840	0.278809	0.364931	-0.610353	0.040383	-0.701900
57048		7.674234	-5.558950	2.678608	-1.670592	1.028092	-0.078991	-0.639648	0.606201	0.282959	0.356199	-0.609449	0.052796	-0.706333
57049		7.733781	-5.501280	2.674451	-1.535254	0.939321	-0.083259	-0.648193	0.603271	0.299316	0.348206	-0.608496	0.064063	-0.710198
57050		7.703693	-5.599062	2.344279	-1.477782	0.896362	-0.077597	-0.647217	0.595459	0.300537	0.340490	-0.607701	0.074862	-0.713556
57051		7.624474	-5.895523	2.112236	-1.376231	0.833729	-0.069679	-0.649170	0.593750	0.303223	0.333334	-0.606817	0.084899	-0.716557
57052		7.662189	-5.881600	2.070060	-1.197374	0.741724	-0.063809	-0.656006	0.583984	0.300049	0.327043	-0.605819	0.093655	-0.719205
57053		7.724306	-5.828115	2.231117	-1.020212	0.642605	-0.062465	-0.664062	0.573975	0.308105	0.321235	-0.604728	0.101257	-0.721705
57054		7.790201	-5.758211	2.192895	-0.865217	0.558797	-0.059056	-0.672607	0.568359	0.311279	0.316093	-0.603703	0.107748	-0.723891
57055		7.938112	-5.433191	2.212369	-0.812454	0.522851	-0.061217	-0.664551	0.564209	0.313477	0.311161	-0.602697	0.113830	-0.725932
57056		7.850626	-5.444130	2.394304	-0.820868	0.519572	-0.053522	-0.667969	0.558594	0.315186	0.306269	-0.601700	0.119971	-0.727848
57057		7.840972	-5.430149	2.554705	-0.767174	0.484351	-0.055863	-0.673340	0.561768	0.319580	0.301630	-0.600734	0.125683	-0.729618
57058		7.815054	-5.349580	2.666871	-0.724156	0.455549	-0.061181	-0.675049	0.549805	0.319824	0.297213	-0.599810	0.131016	-0.731250
57059		7.679593	-5.613192	2.645047	-0.690340	0.414807	-0.057028	-0.679932	0.554443	0.311768	0.292976	-0.599006	0.136074	-0.732695
57060		7.704660	-5.626084	2.593493	-0.642126	0.383344	-0.074593	-0.677246	0.547363	0.323486	0.288952	-0.598252	0.140645	-0.734044
57061		7.666495	-5.539013	2.609721	-0.651248	0.379635	-0.079785	-0.677246	0.533936	0.330811	0.284819	-0.597554	0.145238	-0.735332
57062		7.416430	-5.939433	2.513502	-0.612594	0.340919	-0.066269	-0.693359	0.541748	0.331299	0.280952	-0.596962	0.149585	-0.736428
57063		7.489657	-5.826128	2.355542	-0.497497	0.267709	-0.067130	-0.693359	0.534180	0.334961	0.277755	-0.596516	0.153044	-0.737291
57064		7.800867	-5.399891	2.255531	-0.456722	0.248407	-0.067656	-0.693604	0.533691	0.329346	0.274765	-0.596084	0.156207	-0.738097
57065		7.843349	-5.413522	2.197117	-0.468007	0.269005	-0.059072	-0.690674	0.528809	0.332275	0.271769	-0.595523	0.159513	-0.738952
57066		7.635090	-5.669777	2.265898	-0.386471	0.239035	-0.052313	-0.694580	0.535889	0.332520	0.269254	-0.594950	0.162277	-0.739732
57067		7.657965	-5.690258	2.355799	-0.255079	0.179179	-0.057911	-0.704346	0.530518	0.330322	0.267463	-0.594455	0.164053	-0.740388
57068		7.606810	-5.761379	2.511615	-0.186267	0.156267	-0.059845	-0.697021	0.526367	0.336426	0.265990	-0.593935	0.165364	-0.741043
57069		7.412676	-5.956805	2.579648	-0.148782	0.117476	-0.052585	-0.701416	0.525391	0.326660	0.264811	-0.593572	0.166386	-0.741528
57070		7.301564	-6.151613	2.619043	-0.056278	0.040365	-0.043468	-0.702148	0.525879	0.333008	0.264254	-0.593454	0.166714	-0.741747
57071		7.391960	-6.070536	2.614169	0.078029	-0.049781	-0.041367	-0.697510	0.514648	0.335693	0.264496	-0.593602	0.166026	-0.741696
57072		7.464496	-5.960101	2.529938	0.216552	-0.136248	-0.037610	-0.701660	0.521484	0.330322	0.265532	-0.593971	0.164328	-0.741409
57073		7.803900	-5.469560	2.343363	0.309781	-0.191118	-0.038640	-0.699707	0.520752	0.326172	0.267118	-0.594462	0.161919	-0.740976
57074		8.124130	-5.014745	1.978529	0.265440	-0.161451	-0.036095	-0.700195	0.524658	0.325928	0.268459	-0.594856	0.159862	-0.740621
57075		8.351831	-4.781928	1.787467	0.132509	-0.076400	-0.025126	-0.701904	0.530518	0.326904	0.269103	-0.595011	0.158863	-0.740478
57076		8.232232	-4.896170	1.987645	0.054660	-0.010852	-0.014814	-0.697510	0.522217	0.333252	0.269354	-0.594928	0.158533	-0.740524
57077		7.959973	-5.189723	2.329960	0.113440	-0.018349	-0.006776	-0.698486	0.535156	0.332520	0.269910	-0.594762	0.157878	-0.740595
57078		7.833349	-5.348193	2.480047	0.209679	-0.063655	-0.009372	-0.697021	0.523193	0.327148	0.271051	-0.594668	0.156485	-0.740550
57079		7.716606	-5.518520	2.454188	0.232615	-0.078783	-0.003024	-0.698486	0.527100	0.331543	0.272300	-0.594582	0.154976	-0.740477
57080		7.597849	-5.726469	2.457732	0.266711	-0.097255	0.008153	-0.697510	0.531006	0.325928	0.273809	-0.594528	0.153270	-0.740320
57081		7.626890	-5.730487	2.492191	0.328686	-0.131194	0.013545	-0.700195	0.524414	0.323486	0.275727	-0.594521	0.151120	-0.740055
57082		7.775637	-5.589389	2.587545	0.361477	-0.162257	0.020209	-0.686279	0.535156	0.317627	0.277822	-0.594601	0.148759	-0.739686
57083		7.604258	-5.705412	2.686075	0.460999	-0.223189	0.023095	-0.690186	0.529297	0.319580	0.280624	-0.594837	0.145596	-0.739068
57084		7.555604	-5.905074	2.662534	0.643061	-0.338485	0.020140	-0.683350	0.534180	0.313721	0.284345	-0.595334	0.141069	-0.738123
57085		7.823198	-5.457421	2.418084	0.769167	-0.423697	0.015843	-0.687012	0.543457	0.309326	0.288798	-0.596035	0.135517	-0.736867
57086		7.853917	-5.397203	2.339915	0.732865	-0.420012	0.030511	-0.684570	0.544189	0.319336	0.293153	-0.596739	0.130262	-0.735524
57087		7.306609	-6.289344	2.678460	0.857906	-0.497064	0.046147	-0.679932	0.556641	0.309082	0.298217	-0.597595	0.124151	-0.733848
57088		7.388092	-6.094437	2.737424	1.167320	-0.677206	0.040776	-0.675781	0.567383	0.307129	0.305047	-0.598715	0.115623	-0.731517
57089		7.699201	-5.695272	2.442744	1.351031	-0.777185	0.038145	-0.676758	0.559814	0.293457	0.312855	-0.599901	0.105682	-0.728746
57090		7.626549	-5.877734	2.209900	1.464393	-0.830222	0.040565	-0.676270	0.570557	0.296875	0.321117	-0.600931	0.094961	-0.725774
57091		7.800357	-5.496886	2.217389	1.536981	-0.872318	0.047605	-0.669434	0.571777	0.295898	0.329711	-0.601924	0.083723	-0.722474
57092		8.253378	-4.686021	2.230106	1.421805	-0.820848	0.051845	-0.655762	0.582764	0.285156	0.337578	-0.602820	0.073354	-0.719214
57093		8.114228	-4.881993	2.468264	1.268387	-0.733634	0.061263	-0.657715	0.584961	0.281494	0.344764	-0.603528	0.064118	-0.716087
57094		8.031202	-4.903676	2.832155	1.298283	-0.753866	0.058012	-0.652832	0.595215	0.283936	0.351947	-0.604162	0.054658	-0.712835
57095		8.088845	-4.797235	2.860094	1.380803	-0.786765	0.044281	-0.646729	0.596924	0.267090	0.359402	-0.604702	0.044550	-0.709352
57096		7.964491	-4.853489	2.761870	1.468100	-0.837772	0.036393	-0.641846	0.604980	0.269287	0.367279	-0.605116	0.033674	-0.705555
57097		7.853743	-5.199922	2.491977	1.510317	-0.849595	0.042668	-0.647217	0.610596	0.268311	0.375270	-0.605398	0.022579	-0.701539
57098		7.876089	-5.282905	2.329251	1.566421	-0.878681	0.043787	-0.640137	0.620850	0.248047	0.383327	-0.605548	0.011138	-0.697315
57099		8.011799	-5.086571	2.397276	1.542907	-0.869063	0.057062	-0.631836	0.623779	0.248535	0.391472	-0.605520	-0.000194	-0.692889
57100		7.952260	-5.081233	2.451084	1.625825	-0.911296	0.059752	-0.629639	0.640869	0.236572	0.399864	-0.605389	-0.012067	-0.688089
57101		8.076844	-4.970258	2.458612	1.769354	-0.985793	0.058062	-0.626709	0.627930	0.234863	0.408987	-0.605027	-0.025076	-0.682674
57102		8.008638	-4.887819	2.555668	1.911904	-1.053407	0.055739	-0.612549	0.633789	0.226074	0.418383	-0.604410	-0.039012	-0.676847
57103		8.256528	-4.560819	2.394153	1.890114	-1.045924	0.055921	-0.617920	0.651367	0.208008	0.427608	-0.603676	-0.052804	-0.670775
57104		8.448646	-4.157382	2.307132	1.761559	-0.981613	0.058611	-0.614990	0.648193	0.204590	0.436234	-0.602778	-0.065717	-0.664861
57105		8.623196	-3.965982	2.485589	1.653321	-0.918465	0.040463	-0.607910	0.656982	0.193604	0.443958	-0.601801	-0.077799	-0.659305
57106		8.730599	-3.777047	2.640626	1.562143	-0.878030	0.031392	-0.605957	0.662354	0.185791	0.451202	-0.600797	-0.089300	-0.653823
57107		8.710987	-3.850297	2.588678	1.470595	-0.826673	0.025556	-0.602051	0.659180	0.176514	0.457888	-0.599738	-0.100117	-0.648559
57108		8.604771	-3.923434	2.432498	1.383587	-0.798233	0.022687	-0.595947	0.668213	0.173096	0.464057	-0.598734	-0.110382	-0.643416
57109		8.577150	-4.045107	2.415953	1.351537	-0.780640	0.018052	-0.594727	0.662354	0.158203	0.469980	-0.597715	-0.120349	-0.638256
57110		8.451991	-4.302613	2.602557	1.390463	-0.802229	0.007354	-0.592285	0.672852	0.156250	0.476104	-0.596444	-0.130833	-0.632821
57111		8.497091	-4.245638	2.469258	1.426953	-0.828487	0.004759	-0.597168	0.676025	0.150879	0.482234	-0.595126	-0.141498	-0.627099
57112		8.541434	-4.156180	2.292317	1.406455	-0.837417	0.001112	-0.587891	0.680908	0.142578	0.488095	-0.593828	-0.152069	-0.621294
57113		8.716708	-3.892361	2.232066	1.383020	-0.824576	-0.005917	-0.592285	0.677979	0.132812	0.493833	-0.592445	-0.162483	-0.615416
57114		8.850263	-3.649957	2.229976	1.310039	-0.782064	0.000369	-0.587402	0.679688	0.127441	0.499216	-0.591022	-0.172333	-0.609736
57115		8.933860	-3.498260	2.183495	1.238733	-0.749439	-0.010453	-0.582275	0.682373	0.120117	0.504186	-0.589638	-0.181694	-0.604244
57116		8.990782	-3.437464	2.246085	1.172095	-0.718492	-0.010612	-0.585938	0.678467	0.119873	0.508840	-0.588293	-0.190566	-0.598897
57117		8.921579	-3.621132	2.396220	1.139583	-0.716758	-0.017404	-0.591553	0.680908	0.110596	0.513211	-0.587000	-0.199269	-0.593579
57118		8.524682	-4.069891	2.486493	1.195267	-0.755409	-0.022591	-0.585449	0.677002	0.100342	0.517728	-0.585557	-0.208428	-0.587910
57119		8.479589	-4.212179	2.337599	1.312029	-0.821881	-0.037542	-0.573242	0.687012	0.087402	0.522560	-0.583818	-0.218485	-0.581680
57120		8.615999	-4.340287	2.326892	1.355055	-0.867685	-0.043730	-0.583252	0.681885	0.092773	0.527409	-0.582001	-0.228938	-0.575067
57121		8.431488	-4.613125	2.416944	1.434177	-0.946347	-0.054211	-0.577148	0.685547	0.085205	0.532323	-0.580089	-0.240118	-0.567867
57122		8.429502	-4.455060	2.476142	1.561788	-1.048151	-0.076424	-0.579102	0.684814	0.078369	0.537433	-0.577914	-0.252406	-0.559887
57123		8.679622	-4.047915	2.002051	1.697154	-1.124117	-0.089412	-0.581055	0.688721	0.071777	0.542830	-0.575305	-0.265658	-0.551167
57124		8.708648	-3.730056	1.481832	1.772532	-1.135883	-0.063294	-0.576904	0.697021	0.057129	0.548522	-0.572297	-0.279105	-0.541942
57125		8.771415	-3.589835	1.193211	1.895766	-1.172668	-0.041398	-0.575684	0.685547	0.046631	0.554641	-0.568753	-0.293080	-0.531975
57126		9.015293	-3.069785	1.261464	2.001785	-1.188264	-0.028759	-0.579834	0.690430	0.040771	0.561075	-0.564617	-0.307435	-0.521428
57127		9.402702	-2.463283	1.237864	1.982607	-1.177041	-0.019852	-0.583008	0.687500	0.031494	0.567278	-0.560335	-0.321496	-0.510746
57128		9.782353	-2.015967	1.120895	1.809873	-1.075772	-0.021129	-0.562988	0.679199	0.018799	0.572748	-0.556245	-0.334243	-0.500832
57129		10.112949	-1.511999	1.031939	1.463760	-0.915638	-0.024931	-0.579102	0.682617	0.015625	0.576899	-0.552983	-0.344716	-0.492513
57130		10.251641	-1.325937	0.947956	1.052764	-0.701558	-0.018275	-0.571289	0.686768	-0.000732	0.579704	-0.550749	-0.352391	-0.486251
57131		10.033019	-1.652917	1.021925	0.737491	-0.539714	-0.017906	-0.573242	0.683105	-0.000977	0.581491	-0.549334	-0.357978	-0.481615
57132		9.798437	-1.864507	0.953602	0.559935	-0.434791	-0.008001	-0.572754	0.680908	-0.000977	0.582788	-0.548362	-0.362286	-0.477919
57133		9.537975	-2.068214	0.939359	0.440131	-0.341445	0.005750	-0.576172	0.675537	0.008789	0.583857	-0.547627	-0.365591	-0.474931
57134		9.680435	-1.982858	0.812191	0.358814	-0.277665	0.008859	-0.569336	0.685547	-0.002197	0.584751	-0.547033	-0.368246	-0.472457
57135		9.666324	-2.226466	0.625676	0.272996	-0.213014	0.001624	-0.578857	0.678223	-0.003906	0.585417	-0.546574	-0.370279	-0.470571
57136		9.717322	-1.999116	0.498365	0.137170	-0.105334	0.007095	-0.571533	0.684814	0.009033	0.585813	-0.546370	-0.371229	-0.469566
57137		9.646818	-2.190654	0.710573	-0.063047	0.030199	0.015200	-0.574463	0.679932	-0.000977	0.585748	-0.546637	-0.370699	-0.469755
57138		9.430064	-2.591924	1.178799	-0.077991	0.044165	0.009366	-0.576416	0.685303	0.000244	0.585634	-0.546903	-0.370071	-0.470083
57139		9.342801	-2.690628	1.578797	-0.043196	0.017500	-0.001727	-0.573242	0.682373	-0.004883	0.585553	-0.547069	-0.369760	-0.470235
57140		9.083368	-3.169451	1.676643	-0.087737	0.036489	-0.000212	-0.573242	0.691406	0.006348	0.585333	-0.547382	-0.369175	-0.470604
57141		8.940512	-3.422505	1.659693	-0.101875	0.034963	-0.007340	-0.571777	0.686035	0.002197	0.585015	-0.547749	-0.368572	-0.471045
57142		8.984089	-3.299817	1.561467	-0.132815	0.046263	-0.008829	-0.572754	0.676758	0.001221	0.584585	-0.548217	-0.367798	-0.471639
57143		8.925110	-3.403623	1.356575	-0.063491	0.002145	-0.015363	-0.569824	0.689941	0.000977	0.584311	-0.548500	-0.367540	-0.471851
57144		9.386349	-2.840151	1.292580	0.005642	-0.049021	-0.026499	-0.572021	0.675781	0.008301	0.584153	-0.548614	-0.367852	-0.471671
57145		9.615258	-2.461812	1.113174	-0.059573	-0.006998	-0.021888	-0.575439	0.690918	0.000977	0.583842	-0.548894	-0.367683	-0.471861
57146		9.749046	-2.161643	1.116069	-0.229536	0.093145	-0.009454	-0.568604	0.682861	0.015625	0.583110	-0.549644	-0.366301	-0.472967
57147		9.631127	-2.439467	1.155086	-0.349537	0.157104	0.000871	-0.579834	0.689453	0.001221	0.582058	-0.550752	-0.364087	-0.474680
57148		9.692858	-2.309272	1.045706	-0.431843	0.203149	-0.001348	-0.568115	0.681152	0.008789	0.580752	-0.552061	-0.361332	-0.476859
57149		9.757835	-2.048902	0.747721	-0.588657	0.281355	-0.003406	-0.583252	0.688232	0.018066	0.578938	-0.553802	-0.357575	-0.479869
57150		9.881573	-1.801736	0.633313	-0.838592	0.421149	0.010758	-0.563477	0.679688	0.027588	0.576416	-0.556206	-0.352066	-0.484178
57151		10.136492	-1.472890	0.559799	-1.112828	0.593835	0.027893	-0.574951	0.684082	0.024658	0.573150	-0.559232	-0.344513	-0.489968
57152		10.092526	-1.580847	0.603867	-1.434755	0.788955	0.044709	-0.561035	0.681152	0.033936	0.568927	-0.562962	-0.334591	-0.497438
57153		9.635627	-2.449958	0.701685	-1.597496	0.894979	0.053488	-0.572021	0.687744	0.045654	0.564153	-0.566931	-0.323381	-0.505713
57154		9.513420	-2.567064	0.675311	-1.649951	0.934642	0.046526	-0.576172	0.687988	0.056396	0.559071	-0.570824	-0.311721	-0.514227
57155		9.402320	-2.894371	0.736377	-1.702718	0.970217	0.047874	-0.570801	0.693604	0.071777	0.553691	-0.574667	-0.299585	-0.522908
57156		9.524318	-2.702047	0.812971	-1.761303	1.014310	0.034632	-0.573730	0.683350	0.070068	0.547933	-0.578397	-0.286971	-0.531859
57157		9.931552	-1.922944	0.766857	-1.976712	1.165290	0.040654	-0.566406	0.689697	0.089844	0.541346	-0.582262	-0.272598	-0.541854
57158		9.591730	-2.425597	1.033800	-2.400203	1.424642	0.070347	-0.572266	0.687012	0.103516	0.533184	-0.586675	-0.254873	-0.553684
57159		8.574749	-4.252156	1.592721	-2.456086	1.449245	0.076215	-0.570557	0.684570	0.112061	0.524531	-0.590910	-0.236616	-0.565425
57160		8.534676	-4.318503	2.006337	-2.237126	1.332198	0.042316	-0.580566	0.683838	0.118896	0.516303	-0.594362	-0.219950	-0.576010
57161		8.298556	-4.673091	2.095526	-2.038396	1.222699	0.028228	-0.578369	0.684082	0.127441	0.508570	-0.597195	-0.204689	-0.585506
57162		7.889310	-5.374657	2.261161	-1.744983	1.043551	0.017217	-0.586426	0.678711	0.151855	0.501780	-0.599436	-0.191604	-0.593448
57163		7.931922	-5.198081	2.307828	-1.466870	0.864454	0.002413	-0.589844	0.681152	0.156494	0.495859	-0.601258	-0.180639	-0.599984
57164		8.304327	-4.603721	2.326497	-1.332587	0.789702	-0.007338	-0.586182	0.674561	0.163330	0.490377	-0.602765	-0.170677	-0.605867
57165		8.285021	-4.619178	2.452585	-1.271407	0.741833	0.000610	-0.584961	0.666748	0.167236	0.485102	-0.604179	-0.161151	-0.611289
57166		8.140266	-4.793806	2.648280	-1.109894	0.624584	0.001743	-0.595459	0.672607	0.166504	0.480428	-0.605456	-0.152896	-0.615820
57167		8.183418	-4.719545	2.748209	-0.870347	0.492991	-0.005423	-0.581543	0.665283	0.184814	0.476737	-0.606361	-0.146442	-0.619357
57168		8.171388	-4.721930	2.617914	-0.643910	0.360313	-0.004719	-0.584717	0.663574	0.179688	0.473994	-0.607065	-0.141631	-0.621887
57169		8.126238	-4.778548	2.404518	-0.435369	0.256973	-0.000063	-0.590576	0.676514	0.180176	0.472215	-0.607442	-0.138305	-0.623617
57170		8.191088	-4.709207	2.374816	-0.254498	0.159843	0.006175	-0.596436	0.664795	0.186768	0.471316	-0.607596	-0.136295	-0.624589
57171		8.189579	-4.800811	2.571183	-0.064546	0.055940	0.006060	-0.595215	0.671387	0.181152	0.471164	-0.607568	-0.135633	-0.624875
57172		8.163725	-4.751900	2.566666	0.142344	-0.058069	0.004165	-0.591553	0.667725	0.175293	0.471982	-0.607293	-0.136541	-0.624328
57173		8.375223	-4.513771	2.444941	0.286323	-0.147421	0.001927	-0.603027	0.667969	0.175781	0.473423	-0.606898	-0.138570	-0.623172
57174		8.657213	-3.994992	2.450251	0.320391	-0.176978	-0.005940	-0.590088	0.669434	0.185303	0.474886	-0.606513	-0.140901	-0.621910
57175		8.738683	-3.837857	2.451967	0.274697	-0.166482	-0.010943	-0.594482	0.663574	0.182617	0.476109	-0.606299	-0.142944	-0.620717
57176		8.747552	-3.749494	2.145299	0.236453	-0.149964	-0.019006	-0.583008	0.672852	0.176758	0.477049	-0.606135	-0.144740	-0.619738
57177		8.852453	-3.641949	1.901966	0.182948	-0.106651	-0.010992	-0.590332	0.664307	0.173096	0.477956	-0.605941	-0.146117	-0.618904
57178		8.920451	-3.665525	1.865855	0.112806	-0.049453	-0.003206	-0.595215	0.675781	0.176758	0.478524	-0.605733	-0.146838	-0.618499
57179		8.920176	-3.819084	2.052830	0.078842	-0.013139	-0.005521	-0.583496	0.666992	0.170410	0.478977	-0.605478	-0.147256	-0.618298
57180		8.867815	-3.897801	2.133645	0.074624	-0.011034	-0.008637	-0.587646	0.671143	0.175049	0.479433	-0.605211	-0.147682	-0.618104
57181		8.815833	-3.928311	2.103009	0.075818	-0.008814	-0.009166	-0.584961	0.672363	0.183105	0.479861	-0.604952	-0.148079	-0.617931
57182		8.776175	-3.987206	1.979968	0.051128	-0.003449	-0.006400	-0.586914	0.670166	0.177002	0.480145	-0.604822	-0.148260	-0.617794
57183		8.862610	-3.878693	1.967662	0.008789	0.022802	-0.004672	-0.586670	0.674805	0.173584	0.480263	-0.604694	-0.148136	-0.617857
57184		8.816489	-3.823910	2.112779	-0.038764	0.057669	-0.000307	-0.594238	0.666504	0.168945	0.480274	-0.604557	-0.147649	-0.618100
57185		8.793893	-3.877765	2.216151	-0.056849	0.076613	0.001227	-0.593262	0.670166	0.170898	0.480125	-0.604372	-0.146968	-0.618558
57186		8.763849	-3.980946	2.342826	-0.043591	0.065451	-0.002364	-0.586670	0.667725	0.170898	0.480037	-0.604198	-0.146420	-0.618927
57187		8.722002	-4.032375	2.386271	-0.022853	0.046608	-0.006581	-0.588867	0.671387	0.168213	0.480038	-0.604041	-0.146078	-0.619160
57188		8.602141	-4.103887	2.395857	-0.013325	0.036543	-0.010055	-0.583984	0.666260	0.172607	0.480099	-0.603868	-0.145879	-0.619328
57189		8.568747	-4.121405	2.294088	-0.008659	0.033775	-0.010303	-0.585449	0.673584	0.175049	0.480121	-0.603739	-0.145656	-0.619490
57190		8.621524	-4.070088	2.216401	-0.005606	0.029939	-0.011934	-0.590820	0.672363	0.173828	0.480186	-0.603624	-0.145482	-0.619593
57191		8.714047	-3.928264	2.298835	-0.005750	0.031908	-0.008461	-0.590332	0.664062	0.166992	0.480216	-0.603494	-0.145269	-0.619746
57192		8.707278	-3.882841	2.367443	-0.008932	0.024443	-0.011588	-0.593018	0.677002	0.173828	0.480182	-0.603369	-0.145108	-0.619931
57193		8.727075	-3.848382	2.418781	-0.007434	0.016970	-0.014111	-0.593750	0.677246	0.171631	0.480186	-0.603312	-0.144987	-0.620012
57194		8.759780	-3.879674	2.416017	-0.023598	0.016434	-0.015269	-0.585693	0.670410	0.181152	0.480122	-0.603301	-0.144815	-0.620112
57195		8.627861	-4.029579	2.322472	-0.028778	0.028259	-0.017069	-0.592041	0.667725	0.180176	0.479920	-0.603354	-0.144450	-0.620302
57196		8.654716	-3.999359	2.254863	-0.032785	0.030973	-0.016162	-0.590332	0.666504	0.175537	0.479617	-0.603399	-0.144024	-0.620592
57197		8.727548	-3.885494	2.243325	-0.073793	0.046328	-0.015253	-0.593262	0.662842	0.177246	0.479197	-0.603486	-0.143378	-0.620981
57198		8.779319	-3.815907	2.256045	-0.107072	0.068812	-0.013266	-0.593018	0.673584	0.167480	0.478553	-0.603608	-0.142414	-0.621581
57199		8.816930	-3.775303	2.280557	-0.137720	0.083119	-0.016524	-0.597656	0.681641	0.166016	0.478051	-0.603649	-0.141458	-0.622145
57200		8.848552	-3.641534	2.245537	-0.200680	0.118462	-0.017862	-0.581055	0.678711	0.172119	0.477358	-0.603715	-0.140107	-0.622918
57201		8.918559	-3.459299	2.177571	-0.311468	0.185421	-0.016887	-0.587646	0.674805	0.167480	0.476290	-0.603945	-0.137889	-0.624007
57202		8.977078	-3.467307	2.161407	-0.466428	0.274551	-0.013436	-0.595215	0.675537	0.179443	0.474528	-0.604256	-0.134538	-0.625777
57203		8.914291	-3.458552	2.179886	-0.600743	0.344772	-0.009823	-0.597168	0.661133	0.181396	0.471988	-0.604813	-0.130051	-0.628104
57204		9.202261	-3.097944	2.095045	-0.754503	0.427572	-0.026395	-0.590088	0.664795	0.188721	0.468449	-0.605510	-0.124413	-0.631217
57205		9.315448	-2.826892	2.067456	-0.988116	0.560935	-0.028064	-0.594971	0.662598	0.195312	0.464000	-0.606403	-0.117080	-0.635037
57206		9.267757	-3.029310	1.956723	-1.228505	0.703247	-0.028277	-0.594238	0.656982	0.200195	0.458381	-0.607411	-0.107896	-0.639763
57207		9.226786	-3.097487	1.955149	-1.473693	0.850599	-0.031526	-0.598145	0.653076	0.203857	0.451600	-0.608454	-0.096869	-0.645336
57208		9.094693	-3.283553	1.969690	-1.710239	0.991213	-0.032703	-0.606689	0.650879	0.210449	0.443686	-0.609442	-0.084088	-0.651653
57209		8.868562	-3.689010	1.937961	-1.829378	1.080114	-0.034851	-0.604248	0.649414	0.224854	0.435122	-0.610175	-0.070359	-0.658335
57210		8.614493	-4.180613	1.833297	-1.842344	1.114032	-0.040751	-0.606201	0.643799	0.239258	0.426489	-0.610647	-0.056483	-0.664851
57211		8.402170	-4.600213	1.832938	-1.819491	1.125532	-0.045397	-0.620850	0.632812	0.239990	0.417832	-0.610859	-0.042683	-0.671153
57212		8.206918	-4.924749	1.891209	-1.799444	1.127827	-0.043696	-0.620117	0.625000	0.249023	0.408996	-0.610707	-0.028930	-0.677438
57213		8.110362	-5.060008	2.156130	-1.771615	1.115362	-0.044358	-0.635254	0.633301	0.247803	0.400242	-0.610389	-0.015394	-0.683370
57214		8.014468	-5.090950	2.452131	-1.762102	1.097809	-0.050649	-0.634766	0.617676	0.257324	0.391687	-0.609823	-0.002201	-0.688979
57215		7.895577	-5.266400	2.690701	-1.722235	1.052315	-0.056429	-0.639404	0.612549	0.270508	0.383055	-0.609289	0.010675	-0.694206
57216		7.823878	-5.329518	2.637025	-1.605732	0.973212	-0.059189	-0.643555	0.605713	0.268311	0.374946	-0.608774	0.022593	-0.698784
57217		7.839095	-5.347499	2.554738	-1.470898	0.899455	-0.057712	-0.641113	0.600342	0.274170	0.367501	-0.608049	0.033478	-0.702921
57218		7.851154	-5.410793	2.527567	-1.363678	0.825809	-0.066872	-0.657227	0.592041	0.278809	0.360615	-0.607366	0.043404	-0.706527
57219		7.801277	-5.575718	2.572584	-1.300168	0.778413	-0.064836	-0.663574	0.590088	0.281006	0.353746	-0.606634	0.052949	-0.709969
57220		7.710566	-5.654928	2.508970	-1.192982	0.706945	-0.062391	-0.663818	0.577881	0.283203	0.347450	-0.605901	0.061641	-0.712996
57221		7.837298	-5.374667	2.467522	-1.078898	0.648400	-0.068067	-0.660400	0.578369	0.299072	0.341527	-0.605125	0.069545	-0.715784
57222		7.982719	-5.158624	2.508864	-1.027468	0.609157	-0.066788	-0.667480	0.576172	0.297119	0.336050	-0.604520	0.076906	-0.718131
57223		7.922221	-5.350161	2.441191	-0.977596	0.579000	-0.057905	-0.676025	0.573486	0.303223	0.330631	-0.603807	0.084093	-0.720437
57224		7.864052	-5.468787	2.364079	-0.874982	0.519504	-0.054749	-0.673340	0.566895	0.306641	0.325656	-0.603112	0.090560	-0.722498
57225		7.927513	-5.325184	2.345091	-0.773809	0.468374	-0.050593	-0.674561	0.560059	0.310547	0.321160	-0.602404	0.096339	-0.724351
57226		7.936401	-5.229168	2.427840	-0.708724	0.426505	-0.048558	-0.671143	0.556885	0.313965	0.316960	-0.601731	0.101651	-0.726033
57227		7.810891	-5.389687	2.539765	-0.644924	0.394822	-0.048645	-0.690674	0.551025	0.317871	0.313102	-0.601051	0.106483	-0.727575
57228		7.839330	-5.393425	2.461455	-0.594112	0.372767	-0.058420	-0.681152	0.553711	0.311035	0.309369	-0.600337	0.110943	-0.729094
57229		8.057907	-4.946704	2.397346	-0.684427	0.420185	-0.062039	-0.681396	0.550049	0.322510	0.305190	-0.599550	0.116002	-0.730714
57230		8.137706	-4.832700	2.503690	-0.864102	0.515948	-0.057637	-0.688477	0.548340	0.313477	0.300010	-0.598606	0.122424	-0.732583
57231		7.761817	-5.289212	2.739780	-0.895317	0.528506	-0.059212	-0.687012	0.539062	0.311768	0.294644	-0.597610	0.129038	-0.734436
57232		7.625550	-5.613613	2.857302	-0.758826	0.442734	-0.070568	-0.692139	0.530518	0.323486	0.289961	-0.596776	0.134542	-0.735989
57233		7.655762	-5.725853	2.705191	-0.623343	0.358951	-0.074024	-0.692871	0.539307	0.324219	0.285976	-0.596108	0.139011	-0.737258
57234		7.433774	-6.082146	2.473316	-0.493286	0.282525	-0.068110	-0.695557	0.530029	0.332520	0.282806	-0.595579	0.142494	-0.738243
57235		7.328995	-6.288577	2.264887	-0.311155	0.179735	-0.059084	-0.695557	0.526611	0.326416	0.280680	-0.595228	0.144677	-0.738912
57236		7.511919	-6.070589	2.086266	-0.158334	0.100993	-0.048309	-0.701416	0.534668	0.320801	0.279481	-0.594983	0.145785	-0.739346
57237		7.606818	-5.822821	2.149472	-0.116441	0.072865	-0.031985	-0.692383	0.528320	0.322510	0.278645	-0.594795	0.146637	-0.739644
57238		7.707285	-5.629995	2.273506	-0.065096	0.049222	-0.019144	-0.700684	0.529297	0.322510	0.278171	-0.594621	0.147182	-0.739854
57239		7.878735	-5.308805	2.507827	-0.013734	0.024372	-0.014930	-0.706299	0.516846	0.323486	0.277992	-0.594472	0.147384	-0.740001
57240		7.906471	-5.237313	2.715227	0.038690	-0.001972	-0.016424	-0.701416	0.523926	0.315186	0.278046	-0.594357	0.147226	-0.740104
57241		7.780030	-5.338418	2.765550	0.112124	-0.043756	-0.019181	-0.702148	0.519287	0.320801	0.278552	-0.594338	0.146472	-0.740080
57242		7.809629	-5.354259	2.571736	0.156754	-0.071926	-0.027441	-0.703369	0.532715	0.327148	0.279228	-0.594399	0.145356	-0.739996
57243		7.870760	-5.259117	2.491499	0.100090	-0.043751	-0.030665	-0.697998	0.527832	0.317139	0.279605	-0.594433	0.144618	-0.739971
57244		7.838588	-5.331647	2.526882	0.003279	-0.002183	-0.027670	-0.704102	0.535400	0.322266	0.279478	-0.594422	0.144582	-0.740034
57245		7.732669	-5.463139	2.531473	-0.015647	0.003905	-0.023240	-0.696045	0.523438	0.320312	0.279278	-0.594418	0.144699	-0.740090
57246		7.767579	-5.421747	2.565733	-0.001167	-0.016521	-0.020954	-0.703613	0.525146	0.322998	0.279168	-0.594499	0.144702	-0.740066
57247		7.779924	-5.398010	2.545183	0.045606	-0.041672	-0.015914	-0.706787	0.530273	0.327148	0.279335	-0.594617	0.144393	-0.739968
57248		7.838661	-5.343686	2.488578	0.098377	-0.068135	-0.015209	-0.700928	0.530762	0.321045	0.279808	-0.594779	0.143698	-0.739795
57249		7.913539	-5.219922	2.355103	0.110954	-0.072444	-0.012182	-0.704346	0.530518	0.319580	0.280393	-0.594932	0.142912	-0.739602
57250		7.902551	-5.248893	2.311161	0.122693	-0.069673	-0.008156	-0.702637	0.531494	0.323242	0.281043	-0.595032	0.142089	-0.739434
57251		7.907527	-5.275999	2.300920	0.160568	-0.082820	-0.007228	-0.689209	0.522705	0.324219	0.281900	-0.595129	0.141007	-0.739237
57252		7.876818	-5.271285	2.375425	0.177236	-0.089158	0.000426	-0.702637	0.520020	0.318604	0.282891	-0.595219	0.139845	-0.739006
57253		7.876678	-5.382817	2.320800	0.209332	-0.097737	0.008696	-0.697266	0.527588	0.322754	0.284053	-0.595254	0.138536	-0.738779
57254		7.793074	-5.462052	2.329785	0.281554	-0.126934	0.022016	-0.696777	0.537598	0.315186	0.285726	-0.595297	0.136757	-0.738431
57255		7.669162	-5.698707	2.468289	0.433605	-0.205841	0.030089	-0.692627	0.532471	0.315186	0.288344	-0.595446	0.133861	-0.737823
57256		7.589204	-5.838647	2.570065	0.648339	-0.311835	0.025813	-0.697510	0.534180	0.317383	0.292073	-0.595719	0.129388	-0.736933
57257		7.847579	-5.441172	2.510249	0.764549	-0.372143	0.030962	-0.687988	0.535400	0.313965	0.296411	-0.596046	0.124107	-0.735845
57258		7.748165	-5.522757	2.503436	0.718639	-0.370069	0.037136	-0.692383	0.543213	0.307129	0.300560	-0.596445	0.119127	-0.734660
57259		7.484597	-5.965416	2.722352	0.812163	-0.426882	0.049380	-0.691895	0.553955	0.308838	0.305299	-0.596902	0.113482	-0.733227
57260		7.643823	-5.573367	2.842525	0.972255	-0.522434	0.038995	-0.680664	0.552002	0.307617	0.310851	-0.597514	0.106555	-0.731433
57261		7.586992	-5.712325	2.736081	1.079069	-0.600160	0.031284	-0.685547	0.552979	0.294922	0.316909	-0.598285	0.098736	-0.729297
57262		7.559607	-5.858928	2.678892	1.206475	-0.691994	0.020296	-0.678711	0.572754	0.304932	0.323544	-0.599177	0.089849	-0.726797
57263		7.797036	-5.415278	2.646039	1.214625	-0.713325	0.014935	-0.680664	0.567871	0.299316	0.330201	-0.600153	0.080804	-0.724055
57264		8.127889	-4.799377	2.621817	1.061392	-0.645896	0.014848	-0.672363	0.572510	0.289795	0.335904	-0.601045	0.072914	-0.721524
57265		8.187220	-4.609785	2.664119	0.852193	-0.528571	0.014529	-0.666260	0.575439	0.290283	0.340529	-0.601759	0.066556	-0.719372
57266		8.277713	-4.493140	2.737670	0.728322	-0.462886	0.007219	-0.663330	0.577881	0.280029	0.344425	-0.602415	0.061093	-0.717451
57267		8.423831	-4.252795	2.745188	0.623914	-0.422709	-0.002249	-0.661377	0.581299	0.283936	0.347762	-0.603087	0.056277	-0.715668
57268		8.439653	-4.195592	2.694645	0.532853	-0.375494	-0.011498	-0.653320	0.580566	0.286133	0.350512	-0.603742	0.052120	-0.714087
57269		8.268393	-4.626284	2.613025	0.529572	-0.360433	-0.014411	-0.662598	0.583984	0.282959	0.353202	-0.604323	0.048019	-0.712556
57270		7.962053	-5.033605	2.466720	0.632528	-0.405414	-0.012988	-0.658691	0.585693	0.277344	0.356375	-0.604819	0.043204	-0.710861
57271		8.002441	-5.168342	2.387472	0.748512	-0.456745	-0.008233	-0.657715	0.592285	0.284912	0.360207	-0.605240	0.037543	-0.708891
57272		7.897439	-5.304448	2.327795	0.810160	-0.484960	0.004892	-0.654297	0.594727	0.275146	0.364336	-0.605640	0.031561	-0.706727
57273		7.782649	-5.429699	2.402048	0.901933	-0.531190	0.018826	-0.662109	0.598389	0.272461	0.369068	-0.605968	0.024914	-0.704252
57274		7.956512	-5.128470	2.533568	1.003360	-0.582301	0.025501	-0.655029	0.602539	0.273438	0.374238	-0.606213	0.017601	-0.701528
57275		7.946390	-5.128489	2.598311	1.078661	-0.621850	0.040160	-0.653076	0.599854	0.265381	0.379814	-0.606424	0.009826	-0.698495
57276		7.931357	-5.137771	2.605386	1.214494	-0.703914	0.041524	-0.647461	0.611328	0.252930	0.386020	-0.606588	0.001007	-0.695010
57277		8.179028	-4.776291	2.530363	1.294846	-0.747378	0.041854	-0.640869	0.614502	0.247803	0.392756	-0.606641	-0.008536	-0.691127
57278		8.214401	-4.638301	2.491683	1.282063	-0.743348	0.049781	-0.635742	0.618408	0.258057	0.399409	-0.606630	-0.017949	-0.687131
57279		8.371484	-4.449285	2.507445	1.253818	-0.729926	0.046284	-0.631348	0.625488	0.247559	0.405604	-0.606630	-0.026978	-0.683197
57280		8.495107	-4.305499	2.601124	1.209544	-0.708171	0.044529	-0.629150	0.626709	0.231689	0.411620	-0.606552	-0.035765	-0.679253
57281		8.350083	-4.457003	2.548883	1.231514	-0.728861	0.036485	-0.633057	0.633301	0.228271	0.417776	-0.606371	-0.044914	-0.675101
57282		8.457107	-4.414842	2.545993	1.277646	-0.754929	0.036515	-0.624512	0.634277	0.228271	0.424004	-0.606089	-0.054353	-0.670763
57283		8.494267	-4.342863	2.463629	1.271608	-0.755034	0.036412	-0.616699	0.638184	0.216309	0.430053	-0.605788	-0.063674	-0.666349
57284		8.464642	-4.280162	2.431501	1.213880	-0.732893	0.028976	-0.605469	0.646484	0.213135	0.435873	-0.605455	-0.072740	-0.661928
57285		8.656873	-3.884595	2.439650	1.089769	-0.671136	0.027054	-0.608887	0.646729	0.205811	0.441092	-0.605194	-0.080895	-0.657749
57286		8.865711	-3.594266	2.452064	0.905387	-0.571659	0.021049	-0.605957	0.652344	0.206543	0.445330	-0.604975	-0.087703	-0.654213
57287		8.845734	-3.592975	2.533535	0.740688	-0.489628	0.014362	-0.607910	0.655762	0.197510	0.448663	-0.604916	-0.093264	-0.651214
57288		8.854966	-3.509642	2.443940	0.662555	-0.444237	0.007289	-0.615234	0.658691	0.206543	0.451663	-0.604820	-0.098353	-0.648476
57289		8.690517	-3.735230	2.438576	0.656485	-0.444558	0.001748	-0.604492	0.652588	0.189697	0.454281	-0.604796	-0.103207	-0.645909
57290		8.522709	-4.121882	2.299801	0.733546	-0.472963	-0.003039	-0.608154	0.654297	0.183350	0.457539	-0.604504	-0.108878	-0.642945
57291		8.681279	-3.917739	2.160831	0.754767	-0.470526	0.001297	-0.597900	0.664795	0.197510	0.460905	-0.604065	-0.114652	-0.639943
57292		8.647402	-4.025874	2.100532	0.682500	-0.422076	0.013456	-0.599365	0.658447	0.191895	0.463786	-0.603794	-0.119507	-0.637223
57293		8.570499	-4.309129	2.177226	0.692309	-0.412182	0.022235	-0.602295	0.663330	0.184814	0.466751	-0.603383	-0.124372	-0.634511
57294		8.607873	-4.216632	2.269594	0.745714	-0.435680	0.018884	-0.604248	0.665771	0.185791	0.470089	-0.602801	-0.129773	-0.631511
57295		8.808120	-3.931339	2.434865	0.739335	-0.443716	0.017049	-0.602783	0.666504	0.172119	0.473287	-0.602282	-0.135114	-0.628490
57296		8.617049	-4.027260	2.384670	0.744003	-0.447279	0.014809	-0.600342	0.671631	0.171387	0.476640	-0.601665	-0.140648	-0.625325
57297		8.617403	-4.168863	2.361110	0.820608	-0.499559	0.007485	-0.589844	0.671387	0.170654	0.480231	-0.601000	-0.146772	-0.621800
57298		8.642171	-4.082686	2.277604	0.880697	-0.543229	0.012185	-0.593262	0.665039	0.162109	0.484070	-0.600309	-0.153324	-0.617897
57299		8.422885	-4.338925	2.234898	0.978223	-0.591557	0.015031	-0.578613	0.674805	0.165039	0.488311	-0.599402	-0.160583	-0.613582
57300		8.291741	-4.587635	2.247785	1.173336	-0.687011	0.022876	-0.584717	0.667969	0.152100	0.493401	-0.598170	-0.169126	-0.608395
57301		8.447908	-4.391850	2.128906	1.329635	-0.759981	0.028656	-0.583496	0.675781	0.147217	0.499129	-0.596554	-0.178749	-0.602530
57302		8.555875	-4.208263	2.090384	1.431764	-0.806277	0.035919	-0.589844	0.690674	0.126953	0.505248	-0.594659	-0.188999	-0.596141
57303		8.611263	-4.092317	2.205526	1.507468	-0.854522	0.035040	-0.577148	0.680908	0.126221	0.511598	-0.592542	-0.199826	-0.589263
57304		8.808790	-3.863754	2.152801	1.565552	-0.893786	0.031744	-0.579346	0.687744	0.114258	0.518013	-0.590259	-0.211049	-0.581992
57305		8.772783	-3.735833	2.242634	1.582512	-0.914032	0.027229	-0.578857	0.693848	0.110840	0.524342	-0.587852	-0.222422	-0.574476
57306		8.927241	-3.567793	2.006907	1.603198	-0.932168	0.025541	-0.574951	0.689697	0.095459	0.530600	-0.585310	-0.233920	-0.566708
57307		8.918134	-3.531310	1.966981	1.583648	-0.952443	0.021092	-0.578857	0.681641	0.092773	0.536582	-0.582791	-0.245391	-0.558764
57308		8.961369	-3.570560	1.836217	1.629001	-0.974076	0.016784	-0.572754	0.693359	0.079590	0.542575	-0.580029	-0.257125	-0.550514
57309		8.858386	-3.543257	1.557249	1.665033	-0.985442	0.007312	-0.568115	0.701904	0.069824	0.548557	-0.576980	-0.269060	-0.542020
57310		9.118149	-3.223559	1.418432	1.602798	-0.941284	0.007040	-0.573486	0.689453	0.062988	0.554204	-0.573873	-0.280446	-0.533740
57311		9.176030	-3.106971	1.478321	1.464758	-0.832057	0.016407	-0.569336	0.691895	0.053955	0.559353	-0.570816	-0.290608	-0.526156
57312		9.403632	-2.821215	1.677143	1.348714	-0.790570	0.003916	-0.567871	0.699463	0.044678	0.563900	-0.567982	-0.300075	-0.519006
57313		9.423386	-2.701906	1.658916	1.205763	-0.728611	-0.004154	-0.566895	0.695557	0.040527	0.567806	-0.565443	-0.308627	-0.512464
57314		9.334894	-2.905661	1.612853	1.086124	-0.664968	-0.013504	-0.562500	0.689453	0.025635	0.571198	-0.563105	-0.316372	-0.506512
57315		9.310299	-2.962237	1.598475	0.927427	-0.602418	-0.025630	-0.561279	0.689697	0.031250	0.573906	-0.561167	-0.323178	-0.501278
57316		9.212768	-3.108633	1.507854	0.789076	-0.554230	-0.029125	-0.561279	0.693359	0.023193	0.576036	-0.559642	-0.329166	-0.496623
57317		9.343415	-2.829191	1.574380	0.679092	-0.483188	-0.029136	-0.560303	0.697266	0.016846	0.577817	-0.558316	-0.334340	-0.492572
57318		9.100023	-3.246965	1.495384	0.649995	-0.477311	-0.038932	-0.561279	0.692383	0.015869	0.579413	-0.557053	-0.339398	-0.488653
57319		9.339034	-2.810470	1.328406	0.649545	-0.473949	-0.041642	-0.568359	0.699951	0.010254	0.580977	-0.555747	-0.344434	-0.484744
57320		9.290380	-2.725499	1.186781	0.586850	-0.399727	-0.025742	-0.564941	0.690674	0.017578	0.582506	-0.554467	-0.348772	-0.481261
57321		9.284400	-2.803861	1.028429	0.587864	-0.390340	-0.019967	-0.562988	0.700928	0.011475	0.584066	-0.553144	-0.353028	-0.477775
57322		9.580119	-2.508606	1.008819	0.534492	-0.350020	-0.016403	-0.567383	0.705322	0.002930	0.585500	-0.551912	-0.356850	-0.474597
57323		9.667785	-2.386081	1.154150	0.424722	-0.285271	-0.016400	-0.572510	0.689941	-0.003418	0.586607	-0.550943	-0.359917	-0.472031
57324		9.527128	-2.504629	1.326568	0.325045	-0.233501	-0.011555	-0.564209	0.696045	0.003418	0.587418	-0.550264	-0.362314	-0.469976
57325		9.355823	-2.542733	1.300395	0.249632	-0.195946	-0.008497	-0.567383	0.691162	0.002197	0.588005	-0.549817	-0.364209	-0.468299
57326		9.349473	-2.516725	1.244216	0.161632	-0.152203	-0.013080	-0.563232	0.687744	0.003174	0.588298	-0.549610	-0.365569	-0.467111
57327		9.437963	-2.403732	1.173397	0.063359	-0.073963	-0.010813	-0.567383	0.694092	-0.000244	0.588389	-0.549587	-0.366152	-0.466568
57328		9.579780	-2.414947	1.009858	-0.095055	0.039434	-0.013186	-0.557373	0.693604	0.000244	0.588091	-0.549889	-0.365575	-0.467039
57329		9.371653	-2.939865	1.234038	-0.186081	0.089309	-0.007908	-0.564453	0.698975	0.002930	0.587549	-0.550459	-0.364375	-0.467987
57330		9.129371	-3.236089	1.257884	-0.164441	0.076674	-0.008811	-0.569092	0.694336	0.009521	0.587060	-0.550969	-0.363325	-0.468817
57331		9.206704	-3.050967	1.076303	-0.122837	0.064050	-0.014801	-0.570801	0.691895	-0.001465	0.586695	-0.551308	-0.362524	-0.469493
57332		9.265253	-2.973355	0.946655	-0.195928	0.100775	-0.011903	-0.568359	0.693115	0.004150	0.586122	-0.551861	-0.361250	-0.470541
57333		9.345947	-3.086259	1.020157	-0.265154	0.148891	-0.011903	-0.572266	0.691406	0.008789	0.585371	-0.552566	-0.359463	-0.472015
57334		9.552663	-2.815033	1.118677	-0.329498	0.193157	-0.016232	-0.563477	0.692139	0.009033	0.584431	-0.553394	-0.357224	-0.473905
57335		9.517968	-2.730912	1.309782	-0.435352	0.260842	-0.009130	-0.560791	0.693359	0.018555	0.583229	-0.554482	-0.354201	-0.476377
57336		9.473507	-2.665111	1.236375	-0.521555	0.312088	-0.007856	-0.569824	0.699951	0.017334	0.581769	-0.555781	-0.350571	-0.479325
57337		9.669489	-2.153383	1.046667	-0.673515	0.401051	-0.000654	-0.567627	0.697510	0.018799	0.579876	-0.557458	-0.345862	-0.483078
57338		9.997860	-1.684977	0.921919	-0.935890	0.539237	0.004025	-0.559326	0.694580	0.030029	0.577145	-0.559824	-0.339388	-0.488176
57339		9.813209	-2.122375	0.971051	-1.167308	0.666133	0.017523	-0.562988	0.688721	0.027588	0.573687	-0.562772	-0.331263	-0.494405
57340		9.666734	-2.419166	0.986595	-1.301209	0.735757	0.016967	-0.568604	0.696533	0.049561	0.569712	-0.565984	-0.322219	-0.501264
57341		9.719617	-2.215482	1.023378	-1.466555	0.834202	0.024818	-0.563965	0.694336	0.046875	0.565145	-0.569502	-0.311914	-0.508909
57342		9.577548	-2.490586	1.122409	-1.650844	0.952369	0.029388	-0.562988	0.695312	0.061035	0.559915	-0.573258	-0.300192	-0.517450
57343		9.163477	-3.196821	1.224687	-1.729546	1.007102	0.032878	-0.567383	0.692383	0.067871	0.554309	-0.577007	-0.287776	-0.526297
57344		9.001490	-3.372504	1.400216	-1.735219	1.013112	0.019680	-0.567627	0.689209	0.082520	0.548477	-0.580561	-0.275294	-0.535103
57345		8.824354	-3.768061	1.550939	-1.706783	0.996673	0.010885	-0.567383	0.700439	0.093262	0.542549	-0.583883	-0.262976	-0.543660
57346		8.890791	-3.627895	1.581241	-1.643586	0.976906	0.003390	-0.575684	0.700684	0.105957	0.536723	-0.586837	-0.251002	-0.551859
57347		8.958862	-3.486582	1.639754	-1.686537	1.016745	0.006708	-0.570068	0.684570	0.102783	0.530635	-0.589658	-0.238567	-0.560192
57348		8.595209	-4.237248	1.844258	-1.661888	1.004555	0.011959	-0.570068	0.688721	0.116211	0.524542	-0.592263	-0.226232	-0.568242
57349		8.422768	-4.412883	2.052603	-1.508318	0.904918	0.005940	-0.574463	0.686768	0.126465	0.518871	-0.594523	-0.215028	-0.575394
57350		8.573237	-4.094600	2.056982	-1.407418	0.839978	-0.004010	-0.573242	0.684570	0.135986	0.513424	-0.596526	-0.204589	-0.581976
57351		8.632915	-4.200483	2.100511	-1.387108	0.820139	-0.004289	-0.579346	0.688232	0.147461	0.507952	-0.598432	-0.194294	-0.588314
57352		8.549081	-4.234947	2.153617	-1.292798	0.757550	-0.011743	-0.584229	0.680176	0.152588	0.502726	-0.600137	-0.184725	-0.594120
57353		8.786237	-3.802048	2.160218	-1.210492	0.693335	-0.023096	-0.585693	0.678955	0.153564	0.497666	-0.601709	-0.175860	-0.599456
57354		8.807520	-3.749853	2.188587	-1.163445	0.673102	-0.017718	-0.585205	0.674316	0.164551	0.492803	-0.603101	-0.167287	-0.604508
57355		8.644226	-4.047277	2.211757	-1.085416	0.637215	-0.009006	-0.579102	0.676758	0.165771	0.488253	-0.604307	-0.159174	-0.609168
57356		8.460896	-4.345119	2.177832	-0.984112	0.587055	-0.000890	-0.590820	0.676758	0.175537	0.484207	-0.605289	-0.151765	-0.613299
57357		8.232774	-4.731734	2.299426	-0.834136	0.522602	0.007055	-0.585205	0.678955	0.183105	0.480795	-0.605970	-0.145303	-0.616866
57358		8.182920	-4.801890	2.359336	-0.652994	0.420097	0.004466	-0.583740	0.677002	0.174316	0.478172	-0.606423	-0.140199	-0.619635
57359		8.288422	-4.640933	2.374227	-0.568957	0.357488	0.007337	-0.591797	0.673828	0.192383	0.475960	-0.606809	-0.135816	-0.621932
57360		8.339322	-4.608472	2.460766	-0.528485	0.320478	0.000595	-0.589600	0.669922	0.180420	0.473753	-0.607253	-0.131730	-0.624058
57361		8.458778	-4.337003	2.600653	-0.500183	0.294211	-0.006639	-0.587158	0.675781	0.187012	0.471677	-0.607654	-0.127990	-0.626017
57362		8.407141	-4.310430	2.641810	-0.459172	0.253178	-0.012839	-0.593262	0.662842	0.191162	0.469774	-0.608094	-0.124680	-0.627686
57363		8.361354	-4.394185	2.571192	-0.370585	0.192469	-0.020459	-0.599854	0.670166	0.194824	0.468083	-0.608507	-0.122025	-0.629068
57364		8.399451	-4.405597	2.288474	-0.259269	0.136800	-0.017603	-0.593750	0.669189	0.196533	0.466940	-0.608770	-0.120174	-0.630019
57365		8.387066	-4.558115	2.216873	-0.165746	0.096425	-0.014590	-0.595215	0.668213	0.195312	0.466283	-0.608883	-0.118977	-0.630624
57366		8.360823	-4.649912	2.230387	-0.054889	0.038158	-0.012278	-0.591309	0.663574	0.193359	0.466142	-0.608866	-0.118580	-0.630819
57367		8.365774	-4.657243	2.349351	0.054757	-0.019746	-0.008621	-0.593262	0.672119	0.199951	0.466516	-0.608730	-0.118964	-0.630602
57368		8.402071	-4.640187	2.293880	0.161399	-0.078691	-0.011641	-0.587646	0.664551	0.191162	0.467384	-0.608502	-0.120160	-0.629952
57369		8.635778	-4.238177	2.251288	0.219014	-0.112539	-0.014191	-0.597168	0.660889	0.195801	0.468496	-0.608201	-0.121812	-0.629098
57370		8.797715	-3.895592	2.267304	0.158507	-0.090950	-0.016583	-0.588379	0.667969	0.188477	0.469147	-0.608053	-0.122958	-0.628532
57371		8.763479	-3.931572	2.241774	0.101782	-0.058727	-0.016787	-0.588867	0.677246	0.193359	0.469728	-0.607916	-0.123818	-0.628063
57372		8.813135	-3.916226	2.153096	0.067644	-0.038764	-0.015802	-0.593994	0.666016	0.190186	0.470222	-0.607819	-0.124451	-0.627662
57373		8.814279	-3.882600	2.172154	0.030783	-0.019176	-0.013493	-0.594238	0.661865	0.186035	0.470398	-0.607773	-0.124698	-0.627525
57374		8.736925	-3.915473	2.209738	0.006491	-0.000288	-0.006786	-0.590088	0.670898	0.194580	0.470478	-0.607717	-0.124697	-0.627519
57375		8.679650	-4.014257	2.281699	0.014364	0.002281	-0.008680	-0.593506	0.666748	0.187256	0.470678	-0.607646	-0.124780	-0.627423
57376		8.609249	-4.056552	2.259896	0.022535	-0.000007	-0.007008	-0.589111	0.672852	0.187500	0.470893	-0.607524	-0.124900	-0.627355
57377		8.610467	-4.084551	2.241587	0.011754	0.008413	-0.008100	-0.593750	0.666016	0.191895	0.471176	-0.607390	-0.125019	-0.627248
57378		8.591645	-4.120382	2.222302	-0.011829	0.021659	-0.002579	-0.596191	0.662354	0.198486	0.471197	-0.607327	-0.124794	-0.627338
57379		8.624546	-4.199520	2.299968	-0.007859	0.015470	-0.000518	-0.594971	0.660156	0.191650	0.471102	-0.607332	-0.124490	-0.627465
57380		8.629213	-4.119169	2.300422	0.017972	-0.002976	-0.000532	-0.592773	0.663086	0.188965	0.471158	-0.607295	-0.124437	-0.627469
57381		8.647154	-4.054298	2.356976	0.027676	-0.010086	-0.001968	-0.595947	0.664795	0.194824	0.471338	-0.607234	-0.124538	-0.627374
57382		8.634789	-4.039153	2.315235	0.020289	-0.004239	-0.004673	-0.593994	0.672363	0.195801	0.471393	-0.607204	-0.124521	-0.627365
57383		8.621750	-4.031902	2.317291	0.007413	0.006521	-0.002871	-0.593750	0.671875	0.193359	0.471519	-0.607164	-0.124462	-0.627321
57384		8.617538	-4.096403	2.232927	-0.001294	0.009245	-0.002502	-0.591553	0.665283	0.188721	0.471624	-0.607129	-0.124365	-0.627295
57385		8.674807	-4.045990	2.258430	-0.016681	0.017863	-0.002850	-0.596436	0.665283	0.193115	0.471632	-0.607092	-0.124149	-0.627367
57386		8.686595	-4.022884	2.278867	-0.027874	0.021373	-0.002375	-0.588135	0.668213	0.192871	0.471475	-0.607112	-0.123769	-0.627540
57387		8.652645	-4.032191	2.322884	-0.041274	0.026914	-0.001688	-0.595215	0.674805	0.190430	0.471409	-0.607150	-0.123389	-0.627628
57388		8.665967	-4.067113	2.288386	-0.059759	0.033708	-0.003477	-0.595947	0.670166	0.200195	0.471301	-0.607187	-0.122952	-0.627760
57389		8.645796	-4.066453	2.229413	-0.102594	0.044577	-0.001879	-0.594238	0.671387	0.196045	0.470782	-0.607420	-0.122057	-0.628098
57390		8.722843	-4.120759	2.294139	-0.149722	0.051340	-0.002565	-0.592285	0.669922	0.197266	0.470138	-0.607760	-0.120985	-0.628459
57391		8.739011	-4.055126	2.303800	-0.186856	0.058483	-0.007993	-0.587402	0.670410	0.198730	0.469288	-0.608205	-0.119719	-0.628906
57392		8.721311	-3.916014	2.267236	-0.231481	0.082770	-0.012354	-0.593994	0.670166	0.193359	0.468296	-0.608690	-0.118197	-0.629464
57393		8.976317	-3.346679	2.142818	-0.328851	0.166733	-0.022858	-0.594727	0.654297	0.201172	0.466863	-0.609038	-0.115948	-0.630609
57394		9.207881	-3.026463	1.985982	-0.591075	0.324125	-0.016828	-0.586426	0.659180	0.205811	0.463913	-0.609654	-0.111400	-0.633006
57395		9.134578	-3.248201	1.996452	-0.857327	0.471968	-0.010522	-0.597412	0.667236	0.207031	0.460001	-0.610495	-0.104992	-0.636139
57396		9.115074	-3.294142	2.096760	-1.029234	0.583018	-0.015071	-0.594238	0.660156	0.212646	0.455375	-0.611293	-0.097384	-0.639899
57397		8.953730	-3.531441	2.135347	-1.141795	0.660751	-0.016736	-0.602051	0.661621	0.224365	0.450193	-0.612051	-0.088880	-0.644066
57398		8.753089	-3.931428	1.970045	-1.194250	0.707800	-0.019689	-0.601318	0.642090	0.218506	0.444651	-0.612708	-0.079874	-0.648456
57399		8.515520	-4.394293	1.903250	-1.202560	0.729316	-0.011674	-0.607910	0.648682	0.229736	0.438970	-0.613137	-0.070662	-0.652974
57400		8.358140	-4.632438	1.999613	-1.168760	0.735854	-0.013637	-0.612793	0.637695	0.228271	0.433496	-0.613347	-0.061667	-0.657331
57401		8.215490	-4.774358	2.166915	-1.142336	0.727315	-0.014093	-0.605469	0.652832	0.238037	0.428002	-0.613383	-0.052800	-0.661656
57402		8.219070	-4.906358	2.284702	-1.141902	0.710746	-0.016403	-0.615967	0.636719	0.241943	0.423019	-0.613466	-0.044377	-0.665391
57403		8.321684	-4.635583	2.389828	-1.179024	0.726859	-0.018676	-0.612793	0.638428	0.255127	0.417381	-0.613512	-0.035424	-0.669434
57404		8.272088	-4.601553	2.553912	-1.209794	0.732999	-0.028707	-0.624512	0.639160	0.257080	0.411670	-0.613625	-0.026435	-0.673271
57405		8.322523	-4.510199	2.599662	-1.217345	0.729634	-0.033426	-0.623779	0.624023	0.266113	0.405890	-0.613651	-0.017492	-0.677037
57406		8.226482	-4.631018	2.532262	-1.243520	0.735711	-0.036578	-0.627930	0.626221	0.274658	0.399675	-0.613705	-0.008227	-0.680851
57407		8.249524	-4.656929	2.358565	-1.250614	0.740439	-0.040086	-0.626953	0.612305	0.270020	0.393540	-0.613693	0.000945	-0.684475
57408		8.240905	-4.763595	2.267678	-1.288949	0.755000	-0.036702	-0.633057	0.617432	0.277832	0.387084	-0.613573	0.010454	-0.688175
57409		8.097640	-5.111974	2.250482	-1.247895	0.735797	-0.035548	-0.631348	0.602783	0.281738	0.381060	-0.613362	0.019485	-0.691521
57410		7.962763	-5.300419	2.289881	-1.135620	0.677553	-0.037672	-0.646240	0.611572	0.296143	0.375386	-0.613069	0.027791	-0.694593
57411		7.842824	-5.417035	2.297125	-1.009858	0.619803	-0.038497	-0.634766	0.598633	0.291504	0.370510	-0.612709	0.035038	-0.697196
57412		7.793774	-5.448682	2.384970	-0.924720	0.564863	-0.036408	-0.647461	0.592529	0.295654	0.366034	-0.612328	0.041669	-0.699526
