// Start Time: Unknown
// Update Rate: 60.0Hz
// Filter Profile: human (46.1)
// Firmware Version: 4.6.0
PacketCounter	SampleTimeFine	Acc_X	Acc_Y	Acc_Z	Gyr_X	Gyr_Y	Gyr_Z	Mag_X	Mag_Y	Mag_Z	Quat_q0	Quat_q1	Quat_q2	Quat_q3
25861		9.400665	0.330838	-2.917954	-0.026646	-0.001930	0.000420	-0.616699	0.352783	0.518555	0.234864	-0.727630	-0.344515	-0.544705
25862		9.364563	0.299181	-2.938440	-0.026938	-0.000349	0.002556	-0.610596	0.357910	0.513428	0.234711	-0.727691	-0.344378	-0.544775
25863		9.368335	0.241880	-2.935195	-0.024308	0.002547	-0.000581	-0.617432	0.363525	0.508545	0.234578	-0.727727	-0.344264	-0.544857
25864		9.373269	0.197735	-2.965289	-0.013421	0.001155	-0.002493	-0.617432	0.360107	0.505371	0.234490	-0.727741	-0.344215	-0.544907
25865		9.328176	0.222752	-3.008752	0.001077	-0.002315	-0.002094	-0.616455	0.369141	0.511963	0.234483	-0.727746	-0.344235	-0.544891
25866		9.344395	0.282836	-3.017121	0.001653	0.001201	-0.007477	-0.618164	0.364258	0.508301	0.234467	-0.727721	-0.344283	-0.544901
25867		9.356219	0.327182	-3.044816	0.001741	-0.003172	-0.004860	-0.620850	0.357666	0.510010	0.234450	-0.727726	-0.344323	-0.544875
25868		9.355037	0.315192	-3.011477	-0.002329	0.002553	-0.009154	-0.619385	0.366943	0.517822	0.234404	-0.727705	-0.344362	-0.544899
25869		9.350786	0.300306	-3.030309	0.001992	0.002842	-0.004243	-0.610596	0.362793	0.514893	0.234406	-0.727692	-0.344391	-0.544897
25870		9.333906	0.283542	-3.056518	0.012730	0.002246	-0.005092	-0.614990	0.359131	0.510498	0.234467	-0.727663	-0.344476	-0.544856
25871		9.345121	0.224922	-3.065899	0.019604	0.003125	-0.004815	-0.614990	0.355713	0.511719	0.234572	-0.727625	-0.344590	-0.544790
25872		9.385013	0.198808	-3.042168	0.024740	0.001764	-0.003730	-0.613770	0.365723	0.512695	0.234711	-0.727594	-0.344722	-0.544687
25873		9.388289	0.172907	-2.954655	0.038375	0.008806	-0.001916	-0.614502	0.365234	0.509521	0.234968	-0.727518	-0.344887	-0.544574
25874		9.401913	0.110109	-2.995683	0.044355	0.008670	0.009757	-0.621582	0.370361	0.507568	0.235323	-0.727469	-0.345001	-0.544414
25875		9.372285	0.031652	-2.960056	0.060233	0.006349	0.019078	-0.619873	0.367676	0.515381	0.235824	-0.727435	-0.345124	-0.544165
25876		9.357526	0.095620	-3.002640	0.060401	0.010954	0.022095	-0.617188	0.361572	0.506348	0.236373	-0.727396	-0.345209	-0.543925
25877		9.320754	0.160009	-3.007360	0.055146	0.006417	0.023229	-0.613770	0.368164	0.510254	0.236890	-0.727394	-0.345264	-0.543667
25878		9.350911	0.074610	-2.869050	0.066410	0.006635	0.024614	-0.614502	0.372070	0.504883	0.237491	-0.727385	-0.345356	-0.543359
25879		9.366421	0.121548	-2.962372	0.073040	0.002388	0.028222	-0.614502	0.360352	0.512695	0.238153	-0.727391	-0.345445	-0.543004
25880		9.316464	0.163468	-3.060627	0.075386	-0.004337	0.028229	-0.609131	0.363037	0.504150	0.238811	-0.727423	-0.345576	-0.542589
25881		9.293884	0.136168	-3.108369	0.086937	-0.010236	0.027365	-0.612061	0.371338	0.511230	0.239506	-0.727451	-0.345771	-0.542121
25882		9.353694	0.265573	-3.062188	0.105418	-0.016548	0.032034	-0.620117	0.369629	0.501953	0.240337	-0.727520	-0.346024	-0.541497
25883		9.439526	0.265099	-2.981083	0.104088	-0.011741	0.040204	-0.611328	0.371338	0.504150	0.241199	-0.727589	-0.346199	-0.540909
25884		9.457199	0.325100	-3.024906	0.064234	0.002036	0.056973	-0.614990	0.372070	0.501953	0.241913	-0.727708	-0.346092	-0.540499
25885		9.385726	0.423847	-3.035943	0.029907	0.006980	0.089634	-0.610107	0.381592	0.501709	0.242571	-0.727965	-0.345623	-0.540158
25886		9.297616	0.441068	-3.122264	-0.004507	-0.002186	0.108917	-0.611816	0.373535	0.500977	0.243065	-0.728393	-0.344896	-0.539823
25887		9.281724	0.136279	-3.224409	-0.035927	-0.004962	0.136095	-0.618896	0.377686	0.505371	0.243433	-0.728951	-0.343924	-0.539525
25888		9.346253	0.140595	-3.341328	-0.045452	-0.009827	0.163595	-0.609619	0.371094	0.505371	0.243869	-0.729681	-0.342735	-0.539098
25889		9.340573	0.142517	-3.160274	-0.054674	-0.006228	0.181344	-0.600586	0.372559	0.501465	0.244290	-0.730430	-0.341458	-0.538703
25890		9.340003	0.089012	-3.126566	-0.062275	-0.005075	0.195382	-0.602539	0.384033	0.502197	0.244722	-0.731194	-0.340070	-0.538348
25891		9.351999	0.210399	-3.108072	-0.065021	0.006698	0.195871	-0.616699	0.386719	0.509521	0.245200	-0.731960	-0.338577	-0.538031
25892		9.356834	0.229345	-3.088630	-0.057826	0.017927	0.182451	-0.609619	0.389160	0.501953	0.245667	-0.732697	-0.337159	-0.537705
25893		9.409206	0.150493	-3.020220	-0.053530	0.018648	0.185990	-0.609375	0.377441	0.501953	0.246169	-0.733370	-0.335737	-0.537447
25894		9.329513	0.124628	-3.199969	-0.045150	0.016440	0.191421	-0.599121	0.385498	0.510742	0.246708	-0.733983	-0.334433	-0.537177
25895		9.243016	0.096080	-3.164269	-0.015706	0.004142	0.188023	-0.603760	0.394287	0.505127	0.247382	-0.734632	-0.333281	-0.536695
25896		9.282205	0.074284	-3.058090	0.004582	-0.017561	0.193455	-0.610840	0.393555	0.512939	0.248139	-0.735365	-0.332165	-0.536033
25897		9.376296	0.227275	-2.981070	0.023900	-0.032264	0.186842	-0.603760	0.391602	0.502441	0.248877	-0.736168	-0.331224	-0.535170
25898		9.403612	0.331616	-2.958328	-0.016332	-0.020763	0.193451	-0.597412	0.388672	0.509766	0.249465	-0.736884	-0.330096	-0.534608
25899		9.422338	0.296978	-3.051675	-0.042855	-0.015902	0.204428	-0.602539	0.393311	0.510254	0.249926	-0.737653	-0.328837	-0.534108
25900		9.415199	0.122081	-3.000634	-0.017080	-0.019844	0.211533	-0.600342	0.395752	0.507568	0.250508	-0.738433	-0.327628	-0.533500
25901		9.395780	0.145630	-3.034696	-0.024994	-0.024797	0.225086	-0.595947	0.396240	0.502441	0.251098	-0.739248	-0.326316	-0.532897
25902		9.322363	0.112427	-3.029433	-0.050549	-0.022544	0.223519	-0.594971	0.396240	0.509521	0.251579	-0.740023	-0.324938	-0.532437
25903		9.294866	-0.078963	-3.005594	-0.048277	-0.019383	0.213125	-0.595459	0.405029	0.519775	0.251972	-0.740798	-0.323623	-0.531975
25904		9.315464	-0.212498	-3.041012	-0.049703	-0.017870	0.193802	-0.592041	0.402344	0.508545	0.252176	-0.741637	-0.322288	-0.531519
25905		9.390657	-0.183123	-3.120897	-0.041248	-0.011679	0.156525	-0.586426	0.402832	0.512695	0.252415	-0.742187	-0.321311	-0.531228
25906		9.320488	-0.213195	-3.060287	-0.040691	-0.009111	0.114771	-0.582275	0.403809	0.513428	0.252486	-0.742639	-0.320562	-0.531017
25907		9.316391	-0.149145	-3.000702	-0.038183	-0.013239	0.072731	-0.590820	0.401855	0.503906	0.252405	-0.742990	-0.320077	-0.530856
25908		9.330601	-0.068932	-3.033511	-0.048093	-0.022240	0.033978	-0.591309	0.403809	0.506348	0.252099	-0.743191	-0.319924	-0.530813
25909		9.344346	-0.020278	-2.946677	-0.045523	-0.021730	-0.005496	-0.581787	0.405029	0.503662	0.251600	-0.743306	-0.319988	-0.530850
25910		9.393354	-0.145376	-2.913755	-0.045329	-0.013477	-0.036399	-0.585693	0.409668	0.508789	0.251128	-0.743259	-0.320234	-0.530990
25911		9.432178	-0.232760	-2.803639	-0.040616	-0.011231	-0.064474	-0.587402	0.407959	0.517822	0.250480	-0.743184	-0.320582	-0.531192
25912		9.422636	-0.261246	-2.757953	-0.055214	-0.009736	-0.074191	-0.589600	0.404297	0.520020	0.249581	-0.743192	-0.320831	-0.531453
25913		9.321920	-0.368510	-2.845052	-0.062288	-0.012462	-0.065665	-0.587158	0.397949	0.513428	0.248629	-0.743252	-0.320989	-0.531719
25914		9.248176	-0.551951	-2.947517	-0.083571	-0.013817	-0.039094	-0.588623	0.399414	0.527100	0.247800	-0.743333	-0.321000	-0.531988
25915		9.305867	-0.644956	-2.928705	-0.099437	-0.002671	-0.017708	-0.591064	0.403320	0.513184	0.246800	-0.743619	-0.320585	-0.532303
25916		9.360507	-0.654583	-2.965237	-0.115407	0.006830	-0.001606	-0.587646	0.393799	0.520264	0.246053	-0.743774	-0.320116	-0.532713
25917		9.315452	-0.737376	-2.969803	-0.106480	0.019499	0.004435	-0.583252	0.395996	0.517822	0.245345	-0.743931	-0.319584	-0.533140
25918		9.256832	-0.585927	-2.957558	-0.077865	0.017483	-0.000397	-0.585693	0.393555	0.524414	0.244912	-0.744014	-0.319203	-0.533452
25919		9.298329	-0.347399	-2.975825	-0.051854	0.012989	-0.021269	-0.590332	0.399414	0.517822	0.244406	-0.744078	-0.318999	-0.533716
25920		9.359511	-0.197766	-3.113994	-0.041340	0.012898	-0.058625	-0.588623	0.399170	0.517334	0.243916	-0.743946	-0.319121	-0.534051
25921		9.283983	-0.230147	-3.154343	-0.017507	0.009018	-0.089727	-0.587402	0.389404	0.516113	0.243456	-0.743702	-0.319552	-0.534343
25922		9.295664	-0.241209	-3.112168	0.002429	0.005913	-0.121118	-0.593506	0.390381	0.526367	0.242971	-0.743311	-0.320357	-0.534626
25923		9.320156	-0.219775	-3.063673	0.039196	0.009477	-0.145550	-0.596191	0.395996	0.523926	0.242397	-0.742886	-0.321322	-0.534899
25924		9.337633	-0.224941	-3.000966	0.063166	0.009434	-0.167470	-0.594238	0.393555	0.513672	0.241935	-0.742344	-0.322505	-0.535148
25925		9.353267	-0.187704	-3.024924	0.080985	0.013326	-0.180693	-0.589355	0.388428	0.514160	0.241737	-0.741593	-0.323979	-0.535389
25926		9.330763	-0.145331	-2.951839	0.108218	0.020652	-0.202245	-0.589600	0.385742	0.521729	0.241630	-0.740718	-0.325696	-0.535606
25927		9.328841	-0.129856	-2.881883	0.131109	0.027148	-0.224825	-0.598877	0.390137	0.511230	0.241418	-0.739813	-0.327537	-0.535830
25928		9.264663	-0.157873	-2.845039	0.169922	0.036845	-0.259994	-0.601807	0.385986	0.514160	0.241480	-0.738549	-0.329840	-0.536133
25929		9.246414	-0.228859	-2.880064	0.258934	0.049230	-0.315760	-0.603271	0.386475	0.514404	0.241770	-0.736930	-0.332820	-0.536388
25930		9.253625	-0.201494	-2.818510	0.386832	0.041620	-0.390951	-0.601807	0.387451	0.509766	0.242463	-0.734908	-0.336798	-0.536367
25931		9.382673	0.076728	-2.883755	0.511999	0.030334	-0.441231	-0.604980	0.385742	0.506836	0.243733	-0.732527	-0.341655	-0.535976
25932		9.480760	0.377436	-2.852663	0.526232	0.019628	-0.446701	-0.605957	0.385742	0.503906	0.245005	-0.730125	-0.346627	-0.535481
25933		9.559198	0.406679	-3.075554	0.475148	0.040084	-0.399321	-0.614502	0.384766	0.493896	0.246222	-0.727865	-0.351026	-0.535133
25934		9.379644	0.287344	-2.878959	0.371365	0.051319	-0.327764	-0.605225	0.381348	0.490234	0.247234	-0.725841	-0.354592	-0.535065
25935		9.358949	0.689488	-2.821037	0.224596	0.049172	-0.242430	-0.616699	0.388184	0.496338	0.247767	-0.724411	-0.357003	-0.535154
25936		9.257500	0.606885	-2.970448	0.045052	0.044814	-0.186670	-0.617920	0.386230	0.500000	0.247320	-0.723611	-0.358166	-0.535666
25937		9.316946	0.240740	-3.128923	-0.105412	0.036805	-0.166241	-0.616943	0.374756	0.492188	0.245946	-0.723269	-0.358517	-0.536524
25938		9.355687	0.101327	-3.092189	-0.141995	0.034225	-0.163626	-0.620117	0.381104	0.495605	0.244428	-0.722893	-0.358839	-0.537509
25939		9.348056	-0.189504	-3.060262	-0.118433	0.030065	-0.159148	-0.616699	0.380371	0.497803	0.243086	-0.722570	-0.359146	-0.538346
25940		9.267023	-0.352801	-3.165490	-0.083823	0.015714	-0.153857	-0.623535	0.365479	0.490479	0.241947	-0.722319	-0.359563	-0.538917
25941		9.371683	-0.398827	-3.235737	0.002040	0.016008	-0.153994	-0.622803	0.364990	0.498535	0.241333	-0.721707	-0.360540	-0.539360
25942		9.395377	-0.446122	-3.369782	0.053248	0.029029	-0.147754	-0.623291	0.372559	0.502441	0.240977	-0.721085	-0.361581	-0.539653
25943		9.407580	-0.665249	-3.383119	0.126150	0.036169	-0.145525	-0.625977	0.369385	0.501953	0.241114	-0.720399	-0.362808	-0.539684
25944		9.372255	-0.517877	-3.165014	0.179619	0.048843	-0.133995	-0.623047	0.368164	0.488770	0.241638	-0.719576	-0.364192	-0.539616
25945		9.388299	-0.111983	-3.217749	0.120535	0.030240	-0.116398	-0.627441	0.374268	0.487793	0.242042	-0.718883	-0.365341	-0.539582
25946		9.397082	0.273340	-3.174928	0.075870	0.009111	-0.097157	-0.630615	0.363037	0.491455	0.242245	-0.718453	-0.366153	-0.539514
25947		9.428130	0.665772	-2.917012	0.056302	-0.004339	-0.071657	-0.624512	0.372314	0.494873	0.242230	-0.718177	-0.366831	-0.539428
25948		9.427673	0.850498	-2.788841	0.028057	-0.002065	-0.073966	-0.630615	0.365723	0.488770	0.242085	-0.718074	-0.367272	-0.539329
25949		9.424153	0.758653	-2.784456	-0.019052	0.025184	-0.077103	-0.632080	0.369385	0.488281	0.241743	-0.717784	-0.367576	-0.539661
25950		9.397023	0.753970	-2.931303	-0.028133	0.039485	-0.072907	-0.624268	0.367920	0.487793	0.241447	-0.717474	-0.367743	-0.540092
25951		9.328309	0.778561	-3.189726	0.002355	0.025214	-0.081507	-0.631348	0.362549	0.489502	0.241267	-0.717185	-0.368134	-0.540291
25952		9.287745	0.705183	-3.242586	0.079982	0.007894	-0.074327	-0.630615	0.367432	0.497314	0.241434	-0.716794	-0.368912	-0.540204
25953		9.393917	0.588905	-3.072372	0.159632	-0.002092	-0.059414	-0.638672	0.371826	0.485840	0.242043	-0.716462	-0.369897	-0.539698
25954		9.420873	0.614226	-2.837132	0.209719	0.001380	-0.035633	-0.634033	0.370605	0.490479	0.243220	-0.715943	-0.370964	-0.539124
25955		9.454265	0.811125	-2.777387	0.237815	0.003784	-0.028244	-0.632324	0.369141	0.481201	0.244514	-0.715451	-0.372116	-0.538398
25956		9.312267	0.942628	-2.750962	0.181779	0.016091	-0.026594	-0.632812	0.373047	0.479736	0.245596	-0.714925	-0.373043	-0.537964
25957		9.303477	0.802704	-2.782398	0.113764	0.025930	-0.035547	-0.633057	0.369141	0.485840	0.246280	-0.714474	-0.373672	-0.537813
25958		9.265958	0.767213	-2.937099	0.053027	0.026589	-0.031998	-0.633545	0.378174	0.480957	0.246489	-0.714198	-0.374039	-0.537829
25959		9.380394	0.780353	-3.071795	0.022942	0.016831	-0.026106	-0.631348	0.370850	0.478271	0.246642	-0.714055	-0.374172	-0.537856
25960		9.382011	0.720748	-3.082728	0.014414	0.015160	-0.000441	-0.642578	0.372803	0.484375	0.246822	-0.713960	-0.374209	-0.537874
25961		9.422062	0.684855	-3.021363	0.026885	0.010206	0.017395	-0.629395	0.375732	0.479736	0.247042	-0.713928	-0.374170	-0.537842
25962		9.430127	0.616641	-2.926490	0.035100	0.014191	0.035908	-0.633789	0.366455	0.480225	0.247519	-0.713965	-0.374040	-0.537663
25963		9.463058	0.646291	-2.874035	0.041717	0.007232	0.057848	-0.633789	0.370850	0.475586	0.247998	-0.714009	-0.373927	-0.537464
25964		9.528154	0.643753	-2.954910	0.057256	0.015421	0.089359	-0.635742	0.370361	0.475830	0.248817	-0.714056	-0.373651	-0.537214
25965		9.391705	0.590921	-2.999385	0.049917	0.022680	0.114737	-0.639648	0.372070	0.478271	0.249690	-0.714148	-0.373190	-0.537006
25966		9.343969	0.402721	-2.982619	0.025295	0.008408	0.144620	-0.635498	0.378906	0.481689	0.250454	-0.714455	-0.372460	-0.536749
25967		9.375245	0.516464	-2.956548	0.011472	-0.010398	0.172400	-0.634766	0.376953	0.476318	0.251221	-0.715043	-0.371487	-0.536282
25968		9.355022	0.680431	-2.830123	-0.039889	-0.021855	0.186867	-0.634277	0.380127	0.481934	0.251735	-0.715756	-0.370271	-0.535931
25969		9.422555	0.524691	-2.852548	-0.124172	-0.021502	0.194877	-0.633057	0.388184	0.476562	0.251730	-0.716720	-0.368601	-0.535796
25970		9.445383	0.239780	-2.823199	-0.160418	-0.006366	0.195656	-0.631592	0.388184	0.482422	0.251706	-0.717659	-0.366690	-0.535862
25971		9.437298	0.060736	-2.887314	-0.163827	-0.012539	0.197374	-0.622314	0.391357	0.486328	0.251583	-0.718678	-0.364758	-0.535872
25972		9.333030	-0.059928	-2.894490	-0.158233	-0.025267	0.200401	-0.633789	0.380127	0.488281	0.251489	-0.719830	-0.362835	-0.535676
25973		9.404403	-0.053615	-2.942825	-0.152843	-0.030560	0.203175	-0.622559	0.390869	0.491943	0.251253	-0.720878	-0.361019	-0.535605
25974		9.399512	0.040551	-2.940286	-0.179391	-0.033233	0.214135	-0.623535	0.380859	0.480469	0.251004	-0.722145	-0.358933	-0.535417
25975		9.341330	0.005198	-2.876506	-0.240931	-0.041580	0.222593	-0.619629	0.399414	0.493652	0.250438	-0.723409	-0.356664	-0.535492
25976		9.343792	0.025719	-2.900597	-0.256692	-0.051429	0.218350	-0.622559	0.376221	0.498047	0.249779	-0.724933	-0.354179	-0.535388
25977		9.388756	0.076780	-2.799339	-0.239631	-0.049852	0.203679	-0.616211	0.389648	0.503174	0.248904	-0.726250	-0.352055	-0.535411
25978		9.350942	0.114291	-2.813483	-0.223021	-0.040876	0.173926	-0.607910	0.385254	0.498779	0.248129	-0.727514	-0.350034	-0.535379
25979		9.358962	0.200035	-2.852493	-0.206988	-0.029325	0.147123	-0.612305	0.387939	0.495361	0.247420	-0.728570	-0.348280	-0.535415
25980		9.332291	0.219903	-2.991732	-0.187170	-0.020392	0.124332	-0.609131	0.389404	0.495117	0.246816	-0.729411	-0.346713	-0.535566
25981		9.278126	0.202489	-3.076632	-0.178194	-0.025682	0.099535	-0.610352	0.384033	0.500732	0.246180	-0.730188	-0.345338	-0.535689
25982		9.256366	-0.010611	-3.099567	-0.175593	-0.030670	0.079269	-0.613525	0.380859	0.498291	0.245355	-0.730925	-0.344142	-0.535832
25983		9.284968	-0.051048	-3.034251	-0.155812	-0.035768	0.069427	-0.615234	0.390381	0.503174	0.244596	-0.731550	-0.343132	-0.535974
25984		9.368964	-0.266023	-2.980210	-0.146067	-0.033208	0.062967	-0.604492	0.387207	0.504150	0.243923	-0.732184	-0.342100	-0.536074
25985		9.336933	-0.370020	-2.948180	-0.117895	-0.030075	0.050872	-0.602051	0.386475	0.505371	0.243394	-0.732753	-0.341292	-0.536053
25986		9.384203	-0.282635	-2.961853	-0.072928	-0.020819	0.039431	-0.605957	0.385986	0.509277	0.243120	-0.733166	-0.340738	-0.535965
25987		9.333038	-0.128312	-3.017285	-0.049436	-0.012668	0.020538	-0.604736	0.379150	0.505127	0.242879	-0.733442	-0.340379	-0.535924
25988		9.328181	-0.103321	-3.073105	-0.031468	-0.003197	0.014143	-0.601318	0.381348	0.506348	0.242735	-0.733563	-0.340182	-0.535949
25989		9.352186	-0.148787	-3.108262	-0.015919	0.003098	0.003525	-0.611084	0.388672	0.500488	0.242680	-0.733629	-0.340088	-0.535943
25990		9.335028	-0.207609	-3.098187	0.022056	0.009466	-0.007082	-0.603760	0.385498	0.507080	0.242925	-0.733486	-0.340158	-0.535984
25991		9.343083	-0.167452	-3.144865	0.056960	0.007419	-0.004881	-0.604248	0.392822	0.506348	0.243315	-0.733372	-0.340399	-0.535810
25992		9.385468	-0.017989	-3.091559	0.086130	0.003621	-0.007461	-0.607422	0.388184	0.501709	0.243930	-0.733226	-0.340745	-0.535510
25993		9.390505	0.071068	-3.023492	0.075806	0.014519	0.003219	-0.603271	0.382812	0.507568	0.244531	-0.733017	-0.340994	-0.535363
25994		9.346054	0.105106	-3.066739	0.036535	0.008691	0.024584	-0.607910	0.387695	0.500244	0.244867	-0.733025	-0.340995	-0.535199
25995		9.451923	-0.035638	-2.963399	0.001306	0.016395	0.030922	-0.604004	0.389893	0.508301	0.245125	-0.733025	-0.340751	-0.535236
25996		9.461315	-0.112088	-2.934897	-0.017655	0.027911	0.038265	-0.611572	0.384766	0.508545	0.245294	-0.733118	-0.340346	-0.535288
25997		9.369288	-0.182985	-2.965105	0.027632	0.029927	0.032560	-0.607422	0.383545	0.506104	0.245635	-0.733042	-0.340195	-0.535332
25998		9.333239	-0.284888	-3.029105	0.065812	0.026205	0.032694	-0.603271	0.382812	0.500488	0.246216	-0.732904	-0.340238	-0.535226
25999		9.320011	-0.152794	-3.108410	0.056462	0.016618	0.035920	-0.602539	0.385986	0.512207	0.246771	-0.732818	-0.340255	-0.535078
26000		9.320313	0.007913	-3.216338	0.040354	0.013401	0.031278	-0.611816	0.390869	0.497070	0.247118	-0.732866	-0.340214	-0.534877
26001		9.288396	-0.056453	-3.179750	0.012827	0.010744	0.037981	-0.604736	0.389160	0.493164	0.247453	-0.732860	-0.339983	-0.534878
26002		9.379405	-0.227523	-3.049225	0.005885	0.003248	0.053243	-0.619141	0.395508	0.495117	0.247828	-0.732946	-0.339672	-0.534785
26003		9.447725	-0.342674	-2.917920	0.019541	0.006579	0.061418	-0.603516	0.387695	0.510010	0.248315	-0.732973	-0.339307	-0.534753
26004		9.420111	-0.262310	-2.852425	0.032547	0.009841	0.068454	-0.610107	0.394287	0.498047	0.248766	-0.733140	-0.339011	-0.534503
26005		9.360416	-0.219884	-2.871511	0.056642	0.014108	0.066165	-0.606934	0.394043	0.495117	0.249498	-0.733126	-0.338793	-0.534318
26006		9.291211	-0.083089	-3.003957	0.055769	0.003309	0.059498	-0.602051	0.395508	0.496338	0.250180	-0.733136	-0.338647	-0.534078
26007		9.309430	0.090460	-3.088198	0.067780	0.002855	0.051787	-0.605225	0.397705	0.510254	0.250907	-0.733135	-0.338608	-0.533763
26008		9.360382	0.104330	-2.974560	0.076536	0.000205	0.044935	-0.604248	0.399902	0.499268	0.251530	-0.733193	-0.338642	-0.533369
26009		9.434546	0.087316	-2.896458	0.059768	0.003483	0.049516	-0.609131	0.401611	0.497559	0.252175	-0.733216	-0.338564	-0.533082
26010		9.433483	0.227459	-2.854252	0.027428	0.011999	0.051621	-0.600098	0.399658	0.498779	0.252651	-0.733243	-0.338301	-0.532986
26011		9.328480	0.138463	-2.891558	-0.004950	0.030424	0.057431	-0.603516	0.405762	0.492920	0.252999	-0.733316	-0.337849	-0.533008
26012		9.360338	0.075924	-3.018870	-0.017650	0.030813	0.063931	-0.601562	0.402832	0.493896	0.253381	-0.733389	-0.337270	-0.533092
26013		9.399788	0.154734	-3.030868	-0.042292	0.036579	0.071658	-0.602295	0.407715	0.500977	0.253624	-0.733518	-0.336542	-0.533259
26014		9.346675	0.126441	-3.073130	-0.049221	0.040754	0.064695	-0.602051	0.400879	0.499756	0.253794	-0.733672	-0.335805	-0.533431
26015		9.368103	0.078888	-3.034860	-0.030423	0.054457	0.042523	-0.605225	0.396973	0.503662	0.253951	-0.733643	-0.335285	-0.533724
26016		9.314897	-0.035367	-3.121293	-0.010387	0.047361	0.005861	-0.612793	0.408447	0.492432	0.253965	-0.733504	-0.335109	-0.534018
26017		9.345867	0.090279	-3.208167	0.009182	0.031116	-0.002720	-0.611328	0.403076	0.495117	0.254172	-0.733300	-0.335035	-0.534246
26018		9.346191	0.424310	-3.243047	-0.004502	0.013361	0.014122	-0.608398	0.410645	0.492920	0.254250	-0.733268	-0.334866	-0.534360
26019		9.423483	0.163092	-3.197474	-0.079281	-0.004156	0.040221	-0.611816	0.405273	0.493408	0.254034	-0.733559	-0.334220	-0.534467
26020		9.444392	-0.369541	-2.999878	-0.137836	-0.003114	0.086611	-0.596924	0.402344	0.496338	0.253597	-0.734075	-0.333038	-0.534704
26021		9.456451	-0.317748	-2.741541	-0.078565	-0.007300	0.126538	-0.608887	0.399170	0.495850	0.253714	-0.734655	-0.331934	-0.534538
26022		9.396763	-0.230914	-2.887406	-0.006743	-0.022368	0.142893	-0.594971	0.411865	0.499512	0.254213	-0.735132	-0.331058	-0.534188
26023		9.264633	-0.176317	-3.024380	0.027451	-0.027170	0.128396	-0.594482	0.405762	0.500488	0.254994	-0.735602	-0.330435	-0.533554
26024		9.246353	-0.266024	-2.966791	0.068096	-0.045781	0.107219	-0.592773	0.410156	0.490479	0.255791	-0.735999	-0.330185	-0.532779
26025		9.382272	-0.342360	-2.973750	0.114762	-0.057777	0.087312	-0.598877	0.408203	0.501221	0.256844	-0.736243	-0.330274	-0.531880
26026		9.416267	-0.582559	-2.996516	0.160049	-0.068951	0.071511	-0.594971	0.406982	0.492676	0.257935	-0.736425	-0.330685	-0.530844
26027		9.348893	-0.808387	-2.994087	0.209702	-0.076026	0.069728	-0.598145	0.411377	0.500732	0.259331	-0.736485	-0.331347	-0.529666
26028		9.379489	-0.781606	-2.951974	0.262590	-0.079192	0.060413	-0.594238	0.413574	0.496338	0.260950	-0.736453	-0.332295	-0.528320
26029		9.361723	-0.621805	-2.898195	0.294024	-0.077142	0.046058	-0.592041	0.412842	0.499268	0.262733	-0.736290	-0.333467	-0.526923
26030		9.430396	-0.334138	-2.772038	0.279205	-0.066853	0.028963	-0.588867	0.426025	0.495605	0.264319	-0.736087	-0.334664	-0.525653
26031		9.407503	0.021110	-2.757993	0.233263	-0.057499	0.007234	-0.596191	0.436279	0.489258	0.265688	-0.735885	-0.335753	-0.524551
26032		9.429605	0.332555	-2.816171	0.133978	-0.044606	-0.017553	-0.598389	0.425049	0.494873	0.266454	-0.735724	-0.336493	-0.523913
26033		9.393199	0.339231	-2.911501	0.037598	-0.038029	-0.049931	-0.595703	0.426270	0.504395	0.266329	-0.735669	-0.337020	-0.523715
26034		9.367385	0.201059	-2.916539	-0.020429	-0.029717	-0.074259	-0.601318	0.418945	0.491211	0.265737	-0.735696	-0.337441	-0.523707
26035		9.350730	-0.036820	-2.922677	-0.015486	-0.024128	-0.078893	-0.595703	0.420654	0.496826	0.265162	-0.735576	-0.337891	-0.523876
26036		9.372163	-0.354017	-2.984862	-0.010958	-0.031312	-0.070786	-0.593506	0.414307	0.490967	0.264652	-0.735551	-0.338338	-0.523881
26037		9.279957	-0.570981	-3.038010	0.000800	-0.027784	-0.055786	-0.591553	0.414062	0.488525	0.264286	-0.735494	-0.338756	-0.523876
26038		9.322433	-0.417072	-3.047045	0.007379	-0.016146	-0.031926	-0.593262	0.421143	0.489258	0.264128	-0.735431	-0.339036	-0.523862
26039		9.342825	-0.215963	-3.139358	-0.033655	0.001724	-0.009025	-0.592773	0.419922	0.499512	0.263932	-0.735451	-0.338940	-0.523996
26040		9.307774	-0.261931	-3.188165	-0.126577	0.016211	0.014947	-0.589844	0.413086	0.497314	0.263235	-0.735740	-0.338249	-0.524388
26041		9.274892	-0.423305	-3.224745	-0.205816	0.021145	0.037002	-0.601562	0.418945	0.497314	0.262134	-0.736230	-0.337081	-0.525003
26042		9.271848	-0.520957	-3.233463	-0.240271	0.020771	0.035667	-0.593994	0.422363	0.496338	0.260849	-0.736747	-0.335744	-0.525774
26043		9.254187	-0.504170	-3.142090	-0.238702	0.017944	0.015136	-0.594238	0.412109	0.504883	0.259570	-0.737230	-0.334553	-0.526488
26044		9.284563	-0.530607	-3.070249	-0.241611	0.021593	0.002185	-0.599121	0.411865	0.499268	0.258095	-0.737698	-0.333418	-0.527277
26045		9.354949	-0.540580	-3.010296	-0.221256	0.020447	-0.026046	-0.593506	0.418213	0.507080	0.256664	-0.737990	-0.332550	-0.528114
26046		9.408115	-0.485316	-2.896714	-0.166366	0.021667	-0.059317	-0.593262	0.416992	0.501953	0.255488	-0.738131	-0.332108	-0.528765
26047		9.373681	-0.396964	-2.750125	-0.130839	0.026218	-0.095092	-0.602539	0.400879	0.495850	0.254434	-0.738045	-0.332041	-0.529435
26048		9.303763	-0.303754	-2.775499	-0.118598	0.033490	-0.128500	-0.597412	0.398438	0.497803	0.253202	-0.737728	-0.332232	-0.530346
26049		9.343699	-0.308387	-2.830895	-0.119343	0.048192	-0.166415	-0.600098	0.398682	0.512939	0.251854	-0.737270	-0.332633	-0.531374
26050		9.352632	-0.351518	-2.884289	-0.099554	0.045270	-0.208614	-0.608398	0.409668	0.503906	0.250358	-0.736749	-0.333346	-0.532356
26051		9.329577	-0.547431	-2.863967	-0.052096	0.041711	-0.243026	-0.600342	0.392090	0.502197	0.249160	-0.735980	-0.334482	-0.533268
26052		9.355021	-0.712812	-2.868653	0.024145	0.045177	-0.267757	-0.605469	0.392334	0.507568	0.248239	-0.734977	-0.336136	-0.534040
26053		9.302242	-0.787182	-3.008137	0.097440	0.048698	-0.292406	-0.613770	0.385254	0.506592	0.247642	-0.733762	-0.338234	-0.534664
26054		9.309204	-0.838471	-3.044885	0.174222	0.052326	-0.313588	-0.610596	0.389404	0.499756	0.247359	-0.732284	-0.340785	-0.535199
26055		9.330553	-0.745053	-3.096238	0.258687	0.049588	-0.325297	-0.603271	0.382812	0.496826	0.247645	-0.730598	-0.343803	-0.535443
26056		9.302844	-0.640366	-3.126001	0.326184	0.043920	-0.332786	-0.608154	0.393311	0.492432	0.248279	-0.728790	-0.347194	-0.535425
26057		9.253172	-0.454535	-3.020240	0.372959	0.040676	-0.333465	-0.614990	0.382812	0.497314	0.249295	-0.726875	-0.350791	-0.535211
26058		9.308540	0.096331	-3.027126	0.423326	0.035893	-0.356680	-0.610840	0.390625	0.489990	0.250325	-0.724821	-0.354734	-0.534916
26059		9.321938	0.616533	-3.060178	0.399316	0.043338	-0.378036	-0.620117	0.388916	0.491455	0.251263	-0.722707	-0.358693	-0.534697
26060		9.397410	0.502383	-3.035621	0.299510	0.046483	-0.369968	-0.625000	0.379395	0.481201	0.251575	-0.720802	-0.362128	-0.534806
26061		9.352303	0.191457	-2.983852	0.241774	0.048385	-0.345684	-0.629395	0.391602	0.489014	0.251614	-0.719015	-0.365167	-0.535126
26062		9.368429	-0.038920	-3.020295	0.272030	0.038219	-0.325713	-0.624756	0.386230	0.478760	0.251955	-0.717323	-0.368211	-0.535151
26063		9.366602	0.013884	-2.983396	0.332514	0.039798	-0.312795	-0.624512	0.382324	0.481201	0.252751	-0.715499	-0.371465	-0.534969
26064		9.523442	0.531310	-3.002465	0.328663	0.040484	-0.293531	-0.633301	0.379395	0.472656	0.253555	-0.713762	-0.374579	-0.534738
26065		9.396823	1.194537	-2.946425	0.227158	0.051665	-0.271008	-0.637451	0.383057	0.477783	0.253876	-0.712197	-0.377077	-0.534916
26066		9.385615	1.147076	-2.871858	0.047298	0.055160	-0.241855	-0.638428	0.376465	0.473389	0.253264	-0.711119	-0.378580	-0.535579
26067		9.420024	0.594849	-2.853585	-0.095484	0.047487	-0.217396	-0.634521	0.377686	0.475586	0.251869	-0.710430	-0.379324	-0.536623
26068		9.544258	0.181466	-2.877909	-0.160538	0.058539	-0.188286	-0.637939	0.375488	0.470215	0.250299	-0.709948	-0.379585	-0.537810
26069		9.467355	0.024133	-2.905080	-0.131760	0.059735	-0.163792	-0.642334	0.374756	0.474121	0.249050	-0.709441	-0.379824	-0.538888
26070		9.343514	-0.034748	-3.002620	-0.057750	0.057534	-0.147772	-0.637939	0.362549	0.464600	0.248293	-0.708852	-0.380295	-0.539680
26071		9.290278	0.243748	-3.041799	0.014810	0.054456	-0.142245	-0.643799	0.363281	0.466797	0.247947	-0.708107	-0.381083	-0.540262
26072		9.298529	0.667961	-3.033739	0.031476	0.049888	-0.153946	-0.650635	0.364014	0.471924	0.247623	-0.707313	-0.382013	-0.540793
26073		9.253646	1.051138	-3.073641	0.033382	0.036493	-0.160503	-0.650635	0.364502	0.470947	0.247209	-0.706569	-0.383007	-0.541252
26074		9.288982	1.025148	-3.027497	0.027200	0.020289	-0.163047	-0.650635	0.369141	0.470947	0.246720	-0.705904	-0.384024	-0.541622
26075		9.370524	0.755831	-3.064147	0.027611	-0.003344	-0.144945	-0.647949	0.360596	0.466064	0.246300	-0.705410	-0.384984	-0.541775
26076		9.412477	0.557377	-3.062923	0.038487	-0.015935	-0.116943	-0.654297	0.360107	0.472656	0.245992	-0.705022	-0.385863	-0.541794
26077		9.467750	0.654572	-2.932014	0.102714	-0.019767	-0.085082	-0.654053	0.355469	0.458984	0.246144	-0.704639	-0.386845	-0.541524
26078		9.502725	0.822187	-2.766418	0.132553	-0.012853	-0.062130	-0.646484	0.355469	0.466064	0.246620	-0.704175	-0.387805	-0.541225
26079		9.524135	0.865581	-2.705765	0.142485	0.003596	-0.042254	-0.645020	0.357910	0.469971	0.247279	-0.703734	-0.388682	-0.540867
26080		9.474777	1.040885	-2.573742	0.101585	0.011033	-0.023065	-0.647217	0.359619	0.468750	0.247806	-0.703434	-0.389251	-0.540608
26081		9.363392	1.400081	-2.869726	0.116158	-0.001051	-0.007071	-0.644775	0.361572	0.466064	0.248460	-0.703201	-0.389812	-0.540207
26082		9.236123	1.564330	-2.925142	0.117941	0.011888	-0.004570	-0.648926	0.362061	0.464600	0.249204	-0.702910	-0.390343	-0.539859
26083		9.367370	1.552093	-2.793236	0.053631	0.006907	0.008177	-0.652588	0.366943	0.469971	0.249598	-0.702801	-0.390515	-0.539694
26084		9.404006	1.544838	-2.737085	0.018510	-0.001869	0.039513	-0.653564	0.363525	0.459473	0.249900	-0.702924	-0.390361	-0.539506
26085		9.437241	1.556266	-2.943609	0.000226	-0.011242	0.060951	-0.650879	0.362305	0.468018	0.250167	-0.703144	-0.390009	-0.539349
26086		9.362712	1.298817	-3.131323	-0.006337	0.003661	0.083197	-0.657715	0.363281	0.468994	0.250487	-0.703426	-0.389483	-0.539214
26087		9.432744	0.701800	-3.087990	0.011067	0.003889	0.108863	-0.644287	0.366699	0.463623	0.250999	-0.703739	-0.388872	-0.539008
26088		9.449380	0.336329	-2.902864	0.066138	-0.011996	0.135748	-0.641357	0.368408	0.466553	0.251990	-0.704102	-0.388403	-0.538408
26089		9.414299	0.477261	-2.939914	0.096417	-0.040014	0.181706	-0.648193	0.370605	0.465088	0.253261	-0.704695	-0.387863	-0.537425
26090		9.423055	0.756239	-2.842193	0.081331	-0.034208	0.220031	-0.643311	0.375244	0.466553	0.254609	-0.705389	-0.387001	-0.536499
26091		9.486572	1.062176	-2.783104	0.000072	-0.030786	0.256012	-0.640625	0.376953	0.458740	0.255667	-0.706368	-0.385561	-0.535744
26092		9.460932	1.046915	-2.893076	-0.129606	-0.038345	0.302337	-0.643799	0.377686	0.466797	0.256178	-0.707764	-0.383280	-0.535293
26093		9.407602	0.949260	-2.926191	-0.238957	-0.031119	0.345332	-0.645996	0.378418	0.465332	0.256187	-0.709511	-0.380236	-0.535148
26094		9.295168	0.916091	-2.876834	-0.297979	-0.009666	0.361359	-0.637695	0.378174	0.472900	0.255974	-0.711301	-0.376775	-0.535321
26095		9.339972	0.864904	-2.761472	-0.309614	0.010708	0.344895	-0.632568	0.384766	0.477051	0.255651	-0.713003	-0.373327	-0.535627
26096		9.417190	0.786930	-2.776898	-0.290923	0.021250	0.313231	-0.631348	0.381348	0.466064	0.255375	-0.714528	-0.370124	-0.535949
26097		9.304424	0.768307	-2.808307	-0.277751	0.017276	0.275531	-0.626465	0.391357	0.475098	0.255021	-0.715854	-0.367212	-0.536352
26098		9.250865	0.410212	-2.678514	-0.307851	0.004816	0.254834	-0.628906	0.384521	0.479004	0.254412	-0.717273	-0.364309	-0.536724
26099		9.305348	0.072429	-2.744438	-0.317367	-0.003570	0.235026	-0.629883	0.389404	0.481445	0.253534	-0.718681	-0.361495	-0.537159
26100		9.313169	-0.153867	-2.882538	-0.300533	-0.013758	0.206465	-0.628662	0.380127	0.490723	0.252636	-0.720001	-0.358937	-0.537530
26101		9.336977	-0.201541	-2.919694	-0.265854	-0.009966	0.180730	-0.622803	0.389648	0.481689	0.251712	-0.721181	-0.356684	-0.537880
26102		9.345119	-0.161939	-2.833090	-0.237255	0.000765	0.156245	-0.626221	0.386230	0.483643	0.251050	-0.722137	-0.354679	-0.538234
26103		9.363547	-0.150232	-2.754490	-0.254254	0.007565	0.143306	-0.616943	0.382080	0.483154	0.250200	-0.723046	-0.352654	-0.538739
26104		9.383442	-0.117772	-2.795335	-0.265155	0.009143	0.129220	-0.620117	0.380371	0.487549	0.249228	-0.723938	-0.350675	-0.539283
26105		9.362762	-0.191792	-2.889689	-0.262920	0.007711	0.100122	-0.621826	0.386719	0.483643	0.248096	-0.724746	-0.348874	-0.539887
26106		9.375674	-0.240652	-2.931307	-0.229336	0.001197	0.079022	-0.625000	0.382324	0.483398	0.247149	-0.725416	-0.347360	-0.540399
26107		9.347309	-0.399966	-2.856991	-0.176399	-0.000734	0.067241	-0.623779	0.382568	0.492676	0.246426	-0.725933	-0.346152	-0.540809
26108		9.351378	-0.565153	-2.866719	-0.128120	-0.008793	0.064276	-0.621094	0.375244	0.493896	0.245926	-0.726419	-0.345193	-0.540997
26109		9.402985	-0.525158	-2.907805	-0.088446	-0.013994	0.059311	-0.611572	0.381348	0.500977	0.245565	-0.726844	-0.344452	-0.541063
26110		9.410029	-0.277427	-2.880038	-0.029787	-0.003325	0.040774	-0.624023	0.382324	0.494141	0.245565	-0.727096	-0.344079	-0.540962
26111		9.377827	0.058736	-2.825966	0.016103	0.012183	0.016835	-0.622070	0.388672	0.495605	0.245784	-0.727050	-0.344007	-0.540970
26112		9.348919	0.177232	-2.966170	0.001056	0.015003	0.002092	-0.614258	0.383057	0.490723	0.245912	-0.726990	-0.343954	-0.541026
26113		9.269417	0.084815	-2.957587	-0.015892	0.014131	0.002379	-0.614502	0.385986	0.500000	0.245929	-0.726968	-0.343841	-0.541118
26114		9.339471	0.098952	-3.017545	-0.044261	0.000624	0.019155	-0.620117	0.376953	0.496094	0.245795	-0.727153	-0.343528	-0.541130
26115		9.453920	0.203917	-3.055666	-0.024640	-0.012189	0.027357	-0.624268	0.377197	0.501953	0.245691	-0.727353	-0.343263	-0.541077
26116		9.445967	0.196611	-2.873417	0.021560	-0.009638	0.040684	-0.621582	0.377197	0.504150	0.245896	-0.727497	-0.343115	-0.540884
26117		9.423325	0.273521	-2.908803	-0.006790	-0.010014	0.052416	-0.624512	0.381104	0.494141	0.245974	-0.727749	-0.342773	-0.540726
26118		9.431830	0.382664	-2.943523	-0.059553	-0.009681	0.052556	-0.618164	0.381104	0.498047	0.245805	-0.728055	-0.342186	-0.540763
26119		9.428276	0.257937	-2.976027	-0.116780	-0.003728	0.061990	-0.620850	0.381836	0.496582	0.245350	-0.728506	-0.341282	-0.540934
26120		9.416183	0.107152	-2.960650	-0.142380	0.003921	0.072088	-0.611084	0.379639	0.496094	0.244817	-0.728985	-0.340180	-0.541224
26121		9.397197	-0.011295	-2.881965	-0.131662	0.004844	0.076566	-0.613525	0.383301	0.508057	0.244392	-0.729465	-0.339115	-0.541437
26122		9.406313	-0.145306	-2.820380	-0.100895	0.004014	0.071729	-0.614258	0.382324	0.496094	0.244101	-0.729913	-0.338209	-0.541531
26123		9.441984	-0.265351	-2.777872	-0.057972	0.000922	0.063365	-0.605713	0.376709	0.496582	0.244074	-0.730206	-0.337555	-0.541557
26124		9.433727	-0.258507	-2.765371	0.009872	0.011400	0.054512	-0.616211	0.378662	0.495850	0.244423	-0.730310	-0.337254	-0.541447
26125		9.370767	-0.201558	-2.837773	0.055015	0.016974	0.039652	-0.613525	0.377197	0.497314	0.244976	-0.730227	-0.337214	-0.541334
26126		9.318632	-0.099217	-2.904784	0.061091	0.019623	0.031989	-0.616455	0.380615	0.503906	0.245515	-0.730113	-0.337246	-0.541223
26127		9.343816	-0.033766	-2.923861	0.061784	0.018737	0.029250	-0.614014	0.378174	0.496582	0.246022	-0.730019	-0.337288	-0.541093
26128		9.455531	-0.050461	-2.905345	0.079807	0.010682	0.030797	-0.615234	0.383301	0.497070	0.246638	-0.729904	-0.337429	-0.540881
26129		9.356609	-0.083317	-2.962867	0.092985	0.011843	0.039657	-0.614990	0.385254	0.495850	0.247404	-0.729781	-0.337569	-0.540609
26130		9.368099	0.063497	-3.028652	0.085393	0.021491	0.040756	-0.614990	0.384766	0.502441	0.248166	-0.729631	-0.337649	-0.540412
26131		9.386313	0.302021	-3.059237	0.066682	0.031501	0.033994	-0.618652	0.389893	0.500732	0.248756	-0.729491	-0.337654	-0.540327
26132		9.418477	0.291155	-3.104747	0.036879	0.029612	0.043125	-0.622559	0.386963	0.494629	0.249233	-0.729431	-0.337471	-0.540303
26133		9.412640	0.155507	-3.013656	0.031216	0.025519	0.051541	-0.619141	0.387451	0.493896	0.249691	-0.729389	-0.337226	-0.540301
26134		9.393994	0.073604	-2.967796	0.028372	0.015718	0.064961	-0.617188	0.390137	0.494629	0.250174	-0.729441	-0.336913	-0.540203
26135		9.418941	0.030134	-3.000543	0.019517	0.018606	0.079609	-0.614990	0.393555	0.498047	0.250690	-0.729548	-0.336464	-0.540098
26136		9.389164	-0.162947	-3.007741	0.006806	0.018813	0.100616	-0.608643	0.387695	0.488770	0.251226	-0.729763	-0.335822	-0.539959
26137		9.357449	-0.197375	-3.007136	0.043181	0.008407	0.119051	-0.615723	0.392822	0.495605	0.252050	-0.729968	-0.335284	-0.539631
26138		9.339549	-0.230620	-2.948313	0.079426	-0.008518	0.126730	-0.613037	0.391113	0.489502	0.253047	-0.730211	-0.334871	-0.539092
26139		9.491302	-0.237030	-2.977877	0.124564	-0.016698	0.117150	-0.614258	0.395508	0.498291	0.254263	-0.730343	-0.334754	-0.538414
26140		9.412821	-0.064321	-2.850035	0.184213	-0.022461	0.116161	-0.604004	0.394775	0.492676	0.255775	-0.730412	-0.334892	-0.537517
26141		9.439506	0.138902	-2.731233	0.223124	-0.029618	0.117967	-0.601318	0.401123	0.496094	0.257537	-0.730433	-0.335229	-0.536436
26142		9.395618	0.290276	-2.688977	0.207654	-0.033723	0.112978	-0.606445	0.402832	0.492676	0.259169	-0.730516	-0.335516	-0.535356
26143		9.418378	0.317988	-2.770795	0.174233	-0.040250	0.098664	-0.600586	0.409180	0.484619	0.260507	-0.730629	-0.335762	-0.534398
26144		9.406241	0.107173	-2.736173	0.145380	-0.045108	0.101685	-0.602051	0.421387	0.486572	0.261757	-0.730806	-0.335893	-0.533461
26145		9.419373	-0.267415	-2.895965	0.120837	-0.057264	0.107280	-0.609863	0.414795	0.486816	0.262896	-0.731115	-0.335886	-0.532483
26146		9.353080	-0.667200	-2.980368	0.129916	-0.063892	0.114276	-0.608643	0.415283	0.485596	0.264015	-0.731427	-0.335898	-0.531492
26147		9.386491	-0.712378	-3.049956	0.178555	-0.066611	0.110768	-0.599854	0.422607	0.495117	0.265400	-0.731627	-0.336157	-0.530362
26148		9.375832	-0.364448	-3.009838	0.189583	-0.068276	0.088191	-0.599121	0.426270	0.487305	0.266735	-0.731817	-0.336563	-0.529172
26149		9.367248	0.110847	-2.931589	0.165714	-0.067852	0.050066	-0.597412	0.419922	0.481934	0.267808	-0.731911	-0.337117	-0.528145
26150		9.370817	0.360480	-2.843265	0.107645	-0.062285	0.009379	-0.598877	0.423340	0.492432	0.268340	-0.731969	-0.337682	-0.527434
26151		9.446952	0.325691	-2.751540	0.053688	-0.057816	-0.023969	-0.595459	0.428467	0.482666	0.268353	-0.732082	-0.338160	-0.526963
26152		9.440095	-0.182992	-2.712497	0.057322	-0.046556	-0.033753	-0.601074	0.425781	0.493652	0.268478	-0.732069	-0.338720	-0.526558
26153		9.438888	-0.572007	-2.782685	0.095836	-0.040925	-0.024053	-0.597656	0.423096	0.487305	0.268797	-0.732010	-0.339342	-0.526077
26154		9.400611	-0.688889	-2.883338	0.091279	-0.032697	0.000312	-0.591309	0.424072	0.492432	0.269243	-0.731970	-0.339801	-0.525608
26155		9.406298	-0.657954	-2.818945	0.086951	-0.039992	0.027001	-0.600342	0.428223	0.488770	0.269738	-0.732091	-0.340065	-0.525014
26156		9.433428	-0.493588	-2.843016	0.067342	-0.052781	0.067679	-0.598389	0.430176	0.486328	0.270277	-0.732385	-0.340040	-0.524344
26157		9.412111	-0.204912	-2.773325	-0.026471	-0.040649	0.106882	-0.596680	0.428955	0.495117	0.270471	-0.732938	-0.339344	-0.523921
26158		9.340918	-0.242424	-2.714508	-0.160297	-0.020989	0.130686	-0.599854	0.421143	0.494141	0.269945	-0.733814	-0.337842	-0.523938
26159		9.281320	-0.413567	-2.684380	-0.253766	-0.006135	0.144230	-0.584961	0.428223	0.496582	0.268911	-0.734837	-0.335849	-0.524316
26160		9.330265	-0.486699	-2.736468	-0.274560	-0.003760	0.131255	-0.594238	0.425049	0.494141	0.267759	-0.735908	-0.333787	-0.524720
26161		9.385607	-0.535657	-2.888990	-0.238405	0.001303	0.081966	-0.591553	0.423340	0.496582	0.266628	-0.736677	-0.332221	-0.525210
26162		9.337317	-0.627709	-2.944006	-0.180334	0.003485	0.025458	-0.593506	0.429199	0.502930	0.265606	-0.737158	-0.331242	-0.525671
26163		9.237903	-0.750530	-2.906745	-0.100888	-0.000823	-0.020835	-0.589111	0.416992	0.497314	0.264855	-0.737383	-0.330855	-0.525977
26164		9.252935	-0.774057	-2.931059	-0.013173	-0.013855	-0.045829	-0.586182	0.421631	0.497070	0.264495	-0.737367	-0.331100	-0.526027
26165		9.311574	-0.576859	-2.967049	0.043488	-0.021873	-0.075675	-0.593018	0.417480	0.503174	0.264360	-0.737194	-0.331768	-0.525916
26166		9.415256	-0.235313	-2.920550	0.022557	-0.009419	-0.104829	-0.590576	0.417236	0.498291	0.263937	-0.736939	-0.332487	-0.526033
26167		9.415786	-0.030141	-2.970935	-0.046800	0.008985	-0.124825	-0.592529	0.423340	0.501221	0.263091	-0.736683	-0.333003	-0.526488
26168		9.319945	-0.205332	-3.042733	-0.129893	0.017972	-0.126731	-0.594727	0.417480	0.502686	0.261763	-0.736588	-0.333101	-0.527221
26169		9.206540	-0.556699	-2.975254	-0.148283	0.012826	-0.128686	-0.591553	0.420410	0.505859	0.260278	-0.736542	-0.333154	-0.527987
26170		9.310223	-0.616195	-2.992931	-0.138225	0.015073	-0.151627	-0.590820	0.407471	0.500000	0.258768	-0.736435	-0.333332	-0.528765
26171		9.328669	-0.477812	-2.972768	-0.112165	0.021057	-0.200177	-0.603027	0.410156	0.504883	0.257230	-0.736057	-0.333997	-0.529621
26172		9.410583	-0.526596	-2.831746	-0.063692	0.027329	-0.266971	-0.593994	0.412354	0.494385	0.255694	-0.735357	-0.335248	-0.530546
26173		9.370199	-0.666007	-2.755590	0.017094	0.035419	-0.319101	-0.596924	0.397217	0.495850	0.254544	-0.734289	-0.337169	-0.531360
26174		9.396231	-0.772377	-2.676155	0.124938	0.030501	-0.343314	-0.604736	0.407715	0.502686	0.253876	-0.732922	-0.339770	-0.531910
26175		9.379845	-0.916745	-2.807712	0.202319	0.013907	-0.325397	-0.600830	0.403320	0.497314	0.253695	-0.731566	-0.342531	-0.532093
26176		9.388588	-0.962969	-3.085147	0.259849	0.005240	-0.303146	-0.607178	0.397949	0.486572	0.253958	-0.730176	-0.345444	-0.531994
26177		9.444666	-0.868785	-3.206523	0.282488	0.018921	-0.261089	-0.607422	0.401855	0.490234	0.254629	-0.728712	-0.348272	-0.531836
26178		9.368602	-0.517471	-3.269231	0.322214	0.028807	-0.245296	-0.612549	0.402344	0.489746	0.255611	-0.727208	-0.351086	-0.531573
26179		9.338770	-0.224435	-3.318159	0.327792	0.036903	-0.246175	-0.611328	0.398438	0.495605	0.256630	-0.725647	-0.353903	-0.531348
26180		9.262592	-0.006585	-3.219106	0.308764	0.042346	-0.243066	-0.611816	0.403809	0.499512	0.257492	-0.724152	-0.356554	-0.531197
26181		9.252123	-0.100792	-3.194895	0.260450	0.028626	-0.248079	-0.618652	0.400146	0.487793	0.257970	-0.722855	-0.358972	-0.531103
26182		9.482279	-0.276327	-3.122987	0.315822	0.027295	-0.237530	-0.614746	0.409912	0.475342	0.258876	-0.721389	-0.361671	-0.530825
26183		9.465536	-0.041201	-2.906740	0.401787	0.029819	-0.215254	-0.623047	0.398926	0.483643	0.260490	-0.719781	-0.364587	-0.530224
26184		9.467014	0.096587	-2.964592	0.447915	0.026417	-0.207964	-0.617432	0.405273	0.478760	0.262297	-0.718097	-0.367697	-0.529468
26185		9.334436	0.088995	-3.109129	0.410673	0.022644	-0.180473	-0.626465	0.397949	0.473145	0.264010	-0.716618	-0.370431	-0.528714
26186		9.374946	0.370054	-3.195192	0.265694	0.015517	-0.154449	-0.623779	0.405762	0.475098	0.264950	-0.715487	-0.372495	-0.528325
26187		9.277738	0.469813	-3.347778	0.113011	0.009819	-0.133935	-0.626953	0.401123	0.466553	0.265035	-0.714844	-0.373679	-0.528317
26188		9.318593	0.131447	-3.252998	0.014961	-0.003656	-0.110568	-0.630859	0.406982	0.468506	0.264642	-0.714479	-0.374414	-0.528487
26189		9.325569	-0.218716	-3.213258	-0.031693	-0.005452	-0.075609	-0.625244	0.407471	0.471191	0.264112	-0.714363	-0.374681	-0.528719
26190		9.367713	-0.196762	-3.172735	-0.014264	-0.010530	-0.059406	-0.626221	0.398193	0.465820	0.263728	-0.714323	-0.374889	-0.528817
26191		9.415914	0.041700	-3.063381	0.008101	-0.000114	-0.052877	-0.625000	0.400879	0.468018	0.263569	-0.714138	-0.375246	-0.528894
26192		9.457750	0.264670	-2.938640	0.029967	-0.000587	-0.043322	-0.623047	0.399170	0.458252	0.263568	-0.713968	-0.375596	-0.528876
26193		9.394487	0.488510	-2.929733	0.030703	-0.004682	-0.039418	-0.627930	0.393311	0.467529	0.263638	-0.713774	-0.376000	-0.528815
26194		9.334936	0.546987	-3.023724	0.034019	-0.010408	-0.029663	-0.622803	0.392334	0.470947	0.263682	-0.713642	-0.376379	-0.528702
26195		9.344679	0.628701	-3.009501	0.034729	-0.008654	-0.041570	-0.627686	0.401367	0.473877	0.263661	-0.713496	-0.376795	-0.528613
26196		9.381481	0.617487	-2.951670	0.029519	0.001170	-0.054640	-0.630371	0.403564	0.474365	0.263573	-0.713314	-0.377170	-0.528635
26197		9.386810	0.592021	-2.978177	0.002267	0.017775	-0.059086	-0.629150	0.396240	0.466797	0.263352	-0.713111	-0.377398	-0.528856
26198		9.383172	0.320636	-3.053612	0.020850	0.023722	-0.067130	-0.630127	0.397217	0.466797	0.263266	-0.712752	-0.377840	-0.529068
26199		9.288435	0.290345	-3.139122	0.045045	0.019871	-0.054818	-0.627930	0.399414	0.461182	0.263364	-0.712403	-0.378309	-0.529154
26200		9.327529	0.336306	-3.186211	0.080299	0.013304	-0.054656	-0.631104	0.402832	0.471436	0.263687	-0.711997	-0.378946	-0.529084
26201		9.332725	0.378484	-3.031312	0.115895	0.005801	-0.042043	-0.628418	0.398682	0.467041	0.264186	-0.711648	-0.379601	-0.528834
26202		9.445080	0.257485	-2.830050	0.133407	0.010740	-0.030907	-0.626953	0.404053	0.464111	0.264873	-0.711245	-0.380307	-0.528526
26203		9.470817	0.484396	-2.802341	0.166527	0.015822	-0.012025	-0.634766	0.402344	0.466309	0.265870	-0.710821	-0.380996	-0.528100
26204		9.440644	0.615555	-2.764756	0.158566	0.025725	-0.008902	-0.633301	0.404785	0.457275	0.266838	-0.710359	-0.381644	-0.527765
26205		9.367901	0.712609	-2.818273	0.147872	0.026728	-0.011982	-0.639404	0.409180	0.460205	0.267779	-0.709877	-0.382283	-0.527474
26206		9.353998	0.779846	-2.816348	0.141238	0.018394	0.001315	-0.625732	0.407959	0.458496	0.268684	-0.709507	-0.382797	-0.527139
26207		9.344903	0.811189	-2.929728	0.122436	0.010336	0.016907	-0.634033	0.398193	0.458252	0.269530	-0.709293	-0.383132	-0.526751
26208		9.423930	0.749848	-2.928222	0.112815	0.002679	0.035533	-0.633057	0.410889	0.455322	0.270367	-0.709116	-0.383472	-0.526314
26209		9.414270	0.790531	-2.958477	0.115893	0.011646	0.055478	-0.636719	0.407471	0.460449	0.271351	-0.709002	-0.383578	-0.525883
26210		9.472674	0.691568	-2.877992	0.075222	0.017267	0.065493	-0.630127	0.402832	0.451416	0.272118	-0.708981	-0.383469	-0.525595
26211		9.491983	0.465410	-2.891750	0.045110	0.014944	0.096828	-0.626465	0.409424	0.453613	0.272888	-0.709087	-0.383128	-0.525301
26212		9.419614	0.368574	-2.942964	0.041750	0.014633	0.133145	-0.628174	0.427002	0.456543	0.273783	-0.709366	-0.382480	-0.524931
26213		9.418786	0.246782	-3.136870	0.084475	0.030414	0.155639	-0.626465	0.414307	0.459229	0.275066	-0.709627	-0.381688	-0.524483
26214		9.442274	-0.033585	-3.345164	0.160009	0.060164	0.185691	-0.636963	0.417725	0.452637	0.276993	-0.709631	-0.381107	-0.523886
26215		9.404409	-0.104933	-3.079471	0.223565	0.063946	0.200073	-0.626953	0.419922	0.450195	0.279389	-0.709455	-0.380772	-0.523095
26216		9.298890	0.078941	-2.702596	0.150264	0.016692	0.220603	-0.627197	0.422119	0.454102	0.281297	-0.709737	-0.380088	-0.522187
26217		9.325761	0.553973	-2.830552	-0.001950	-0.029628	0.269711	-0.620361	0.423096	0.453369	0.282340	-0.710742	-0.378552	-0.521371
26218		9.285749	0.823816	-2.922258	-0.173288	-0.037648	0.290706	-0.626953	0.431152	0.456543	0.282442	-0.712249	-0.376169	-0.520985
26219		9.480742	0.732927	-2.674247	-0.375710	-0.001719	0.280456	-0.618896	0.427490	0.459961	0.281392	-0.714042	-0.372844	-0.521488
26220		9.489064	0.448704	-2.542936	-0.467308	0.010307	0.256528	-0.607910	0.425781	0.462891	0.279725	-0.715916	-0.369238	-0.522381
26221		9.418922	-0.122996	-2.525640	-0.472553	0.010016	0.229701	-0.621826	0.417969	0.464111	0.277910	-0.717732	-0.365728	-0.523326
26222		9.293001	-0.593206	-2.630364	-0.428780	0.002273	0.201368	-0.612061	0.423340	0.470215	0.276211	-0.719288	-0.362751	-0.524161
26223		9.227348	-0.701520	-2.850993	-0.384451	-0.002150	0.180620	-0.615234	0.428467	0.464844	0.274653	-0.720764	-0.359957	-0.524876
26224		9.216953	-0.758665	-2.975855	-0.318202	-0.009264	0.155270	-0.617188	0.429199	0.473877	0.273405	-0.722008	-0.357623	-0.525415
26225		9.302965	-0.769070	-2.927304	-0.266037	-0.012485	0.134020	-0.614502	0.423340	0.473145	0.272325	-0.723108	-0.355606	-0.525831
26226		9.450641	-0.637460	-2.840096	-0.230509	-0.014619	0.111092	-0.604492	0.418457	0.476807	0.271368	-0.724034	-0.353949	-0.526169
26227		9.503513	-0.735150	-2.886438	-0.196397	0.001949	0.086492	-0.610107	0.420898	0.480225	0.270550	-0.724758	-0.352535	-0.526544
26228		9.432920	-0.919433	-2.875335	-0.082240	0.017562	0.063666	-0.610596	0.424316	0.478027	0.270352	-0.725089	-0.351708	-0.526742
26229		9.375852	-0.881029	-2.843425	0.026745	0.021981	0.047872	-0.606201	0.416504	0.479736	0.270771	-0.725108	-0.351428	-0.526687
26230		9.363031	-0.573700	-2.796407	0.049668	0.014234	0.039844	-0.608154	0.424316	0.479492	0.271262	-0.725074	-0.351369	-0.526521
26231		9.314012	-0.428673	-2.858117	0.002121	0.008699	0.035078	-0.609131	0.424072	0.476807	0.271424	-0.725182	-0.351074	-0.526486
26232		9.339163	-0.494570	-2.886841	-0.033200	0.003878	0.022905	-0.608398	0.414795	0.481201	0.271321	-0.725336	-0.350739	-0.526550
26233		9.348753	-0.540122	-2.892529	-0.020847	0.010992	0.002355	-0.604736	0.429443	0.475098	0.271204	-0.725351	-0.350639	-0.526657
26234		9.343307	-0.524172	-2.999650	-0.000697	0.007380	-0.010678	-0.609375	0.424316	0.475098	0.271169	-0.725348	-0.350566	-0.526727
26235		9.342727	-0.439802	-3.042781	0.021430	0.003571	-0.016263	-0.614258	0.421387	0.470947	0.271235	-0.725256	-0.350717	-0.526719
26236		9.373248	-0.325309	-3.088281	0.011876	-0.003810	-0.007886	-0.607178	0.422119	0.474365	0.271285	-0.725192	-0.350886	-0.526669
26237		9.427341	-0.118516	-2.993525	0.026575	-0.017943	0.005340	-0.602295	0.416748	0.472168	0.271419	-0.725242	-0.350993	-0.526460
26238		9.405460	0.023391	-2.905289	0.014683	-0.029450	0.017620	-0.606689	0.427246	0.476807	0.271518	-0.725385	-0.351050	-0.526173
26239		9.439587	0.025417	-2.768512	-0.007042	-0.027512	0.027923	-0.600830	0.426270	0.476807	0.271504	-0.725650	-0.350829	-0.525963
26240		9.443149	0.092357	-2.794425	-0.047624	-0.019004	0.041603	-0.606201	0.423584	0.477051	0.271332	-0.726021	-0.350311	-0.525885
26241		9.413448	0.110554	-2.953851	-0.106506	-0.005790	0.054429	-0.604492	0.425049	0.482910	0.270901	-0.726469	-0.349497	-0.526030
26242		9.417500	0.006026	-2.940169	-0.156002	0.007036	0.065382	-0.597656	0.419678	0.482666	0.270224	-0.727042	-0.348303	-0.526379
26243		9.377887	-0.289787	-3.018372	-0.166666	0.002082	0.078265	-0.599121	0.427002	0.476318	0.269534	-0.727691	-0.347016	-0.526686
26244		9.405918	-0.527309	-2.994885	-0.114140	-0.003397	0.078958	-0.604492	0.423828	0.490967	0.269188	-0.728236	-0.345952	-0.526809
26245		9.382493	-0.599935	-2.917087	-0.060237	-0.001612	0.076610	-0.602051	0.428223	0.481445	0.269083	-0.728679	-0.345098	-0.526810
26246		9.416027	-0.503901	-2.907738	-0.011186	0.002183	0.069598	-0.594482	0.422852	0.486816	0.269311	-0.728951	-0.344511	-0.526702
26247		9.433293	-0.279090	-2.920978	-0.017815	0.008338	0.070853	-0.599365	0.418457	0.480225	0.269493	-0.729240	-0.343848	-0.526642
26248		9.419067	-0.137914	-2.891972	-0.052390	0.019352	0.070002	-0.600098	0.429443	0.484863	0.269548	-0.729472	-0.343176	-0.526729
26249		9.384671	-0.163699	-3.028814	-0.085131	0.016974	0.070199	-0.608643	0.419434	0.480713	0.269350	-0.729863	-0.342198	-0.526926
26250		9.342594	-0.167156	-2.983921	-0.067672	0.016050	0.073396	-0.608398	0.425293	0.487549	0.269326	-0.730114	-0.341517	-0.527032
26251		9.343005	-0.066911	-2.941023	-0.094096	0.021385	0.079189	-0.597656	0.426270	0.481201	0.269126	-0.730481	-0.340542	-0.527257
26252		9.453036	-0.109931	-2.885498	-0.118680	0.021575	0.087086	-0.598145	0.424805	0.482422	0.268847	-0.730933	-0.339381	-0.527521
26253		9.421572	-0.129772	-2.968865	-0.142524	0.031395	0.106454	-0.591797	0.423584	0.487061	0.268535	-0.731441	-0.337995	-0.527866
26254		9.321092	-0.188442	-2.986146	-0.149642	0.038192	0.108080	-0.603516	0.423096	0.485840	0.268177	-0.731975	-0.336484	-0.528272
26255		9.326860	-0.288050	-3.004005	-0.163623	0.032135	0.104629	-0.603027	0.430176	0.491699	0.267724	-0.732495	-0.335065	-0.528684
26256		9.382042	-0.368486	-2.994511	-0.162624	0.031370	0.107706	-0.598633	0.423828	0.486084	0.267240	-0.733085	-0.333494	-0.529104
26257		9.416999	-0.449609	-2.979790	-0.146933	0.039044	0.107480	-0.592285	0.422607	0.485352	0.266924	-0.733554	-0.332084	-0.529501
26258		9.360448	-0.634462	-2.941552	-0.128336	0.042648	0.115197	-0.597656	0.431152	0.486084	0.266772	-0.733995	-0.330680	-0.529844
26259		9.326138	-0.647064	-3.078555	-0.076306	0.029222	0.110283	-0.599365	0.431885	0.488037	0.266864	-0.734384	-0.329507	-0.529990
26260		9.266416	-0.688520	-3.057107	0.011993	0.022583	0.079724	-0.593506	0.424805	0.485596	0.267331	-0.734523	-0.328923	-0.529924
26261		9.286722	-0.955589	-3.086307	0.113636	0.007767	0.056017	-0.597900	0.429443	0.491211	0.268305	-0.734405	-0.329045	-0.529520
26262		9.385704	-0.876066	-3.031783	0.177336	0.005386	0.042368	-0.590820	0.429199	0.481445	0.269553	-0.734150	-0.329466	-0.528977
26263		9.417119	-0.784319	-3.123610	0.223146	-0.004527	0.035587	-0.600098	0.431396	0.480957	0.271082	-0.733784	-0.330214	-0.528238
26264		9.306514	-0.644710	-3.015964	0.290477	-0.014990	0.032664	-0.593018	0.433594	0.482178	0.272980	-0.733268	-0.331364	-0.527255
26265		9.324382	-0.582164	-2.944658	0.296551	-0.027597	0.030787	-0.598389	0.428223	0.485352	0.274845	-0.732826	-0.332497	-0.526186
26266		9.319753	-0.571189	-2.831014	0.285038	-0.032381	0.014525	-0.592773	0.439941	0.484375	0.276543	-0.732347	-0.333781	-0.525150
26267		9.321872	-0.763464	-2.844284	0.275622	-0.039801	-0.007083	-0.594971	0.443359	0.481201	0.278036	-0.731929	-0.335005	-0.524163
26268		9.367438	-0.761809	-2.872623	0.290187	-0.058778	-0.033033	-0.592041	0.442627	0.481934	0.279459	-0.731472	-0.336514	-0.523077
26269		9.433525	-0.528751	-2.971256	0.300320	-0.056838	-0.069345	-0.590332	0.444092	0.476807	0.280779	-0.730886	-0.338267	-0.522058
26270		9.336079	-0.297633	-2.997821	0.261569	-0.057056	-0.085165	-0.596191	0.443359	0.470215	0.281815	-0.730329	-0.339973	-0.521171
26271		9.325402	-0.024938	-2.979386	0.208704	-0.066159	-0.097639	-0.589600	0.444336	0.486816	0.282495	-0.729832	-0.341681	-0.520381
26272		9.315546	0.304823	-2.918121	0.137342	-0.070761	-0.119233	-0.598633	0.445312	0.478760	0.282507	-0.729588	-0.342963	-0.519872
26273		9.341451	0.200069	-2.842889	0.081318	-0.066483	-0.144523	-0.587158	0.444092	0.471924	0.282140	-0.729308	-0.344299	-0.519582
26274		9.408413	-0.178910	-2.755237	0.045623	-0.063485	-0.148392	-0.600830	0.446533	0.469727	0.281581	-0.729096	-0.345468	-0.519406
26275		9.438276	-0.515753	-2.781765	0.019242	-0.057154	-0.134760	-0.596436	0.449219	0.469482	0.280961	-0.728904	-0.346531	-0.519303
26276		9.483921	-0.802512	-2.754715	0.012336	-0.055871	-0.102401	-0.598389	0.435791	0.478271	0.280426	-0.728857	-0.347270	-0.519165
26277		9.517190	-1.081395	-2.737230	0.007474	-0.057074	-0.063715	-0.594238	0.444092	0.491699	0.280015	-0.728904	-0.347848	-0.518933
26278		9.560011	-1.152274	-2.776733	-0.001929	-0.042368	-0.024684	-0.594482	0.439697	0.489014	0.279633	-0.729170	-0.347798	-0.518800
26279		9.530996	-1.107350	-2.684057	0.000077	-0.020833	0.010389	-0.592773	0.439453	0.483154	0.279513	-0.729395	-0.347586	-0.518690
26280		9.417885	-0.851353	-2.719694	-0.024421	-0.004837	0.032096	-0.597168	0.436279	0.475830	0.279425	-0.729640	-0.347159	-0.518678
26281		9.283354	-0.605354	-2.714043	-0.074877	0.002689	0.041556	-0.593018	0.444336	0.482666	0.279175	-0.729904	-0.346638	-0.518790
26282		9.236311	-0.674055	-2.767965	-0.157509	0.000587	0.031873	-0.598145	0.431152	0.483887	0.278280	-0.730455	-0.345568	-0.519209
26283		9.329741	-0.616002	-2.824182	-0.192554	-0.001355	0.015129	-0.588379	0.436523	0.474365	0.277165	-0.730936	-0.344706	-0.519702
26284		9.400579	-0.437189	-2.891542	-0.183974	0.000393	-0.014444	-0.600586	0.438965	0.479736	0.276005	-0.731328	-0.343981	-0.520248
26285		9.371808	-0.308592	-3.010035	-0.170993	0.002676	-0.036340	-0.591064	0.434326	0.485352	0.274810	-0.731609	-0.343458	-0.520830
26286		9.344404	-0.277291	-2.994374	-0.159469	0.007141	-0.050418	-0.599854	0.432861	0.483887	0.273598	-0.731859	-0.342938	-0.521460
26287		9.295559	-0.268489	-2.936726	-0.175776	0.007943	-0.063320	-0.597900	0.443848	0.487305	0.272267	-0.732048	-0.342547	-0.522147
26288		9.338826	-0.143943	-2.939833	-0.205394	0.010979	-0.080004	-0.596436	0.428467	0.490723	0.270608	-0.732352	-0.341867	-0.523029
26289		9.379969	-0.093279	-2.865462	-0.251938	0.018959	-0.104299	-0.592041	0.422119	0.489014	0.268621	-0.732592	-0.341258	-0.524113
26290		9.404426	-0.095950	-2.896513	-0.304131	0.024186	-0.113562	-0.602539	0.419922	0.481934	0.266320	-0.732877	-0.340504	-0.525377
26291		9.368015	-0.133943	-2.874271	-0.371943	0.025681	-0.122640	-0.601807	0.420654	0.486572	0.263653	-0.733176	-0.339718	-0.526812
26292		9.385753	-0.344258	-2.855510	-0.409924	0.037130	-0.126877	-0.595215	0.411133	0.496826	0.260715	-0.733547	-0.338627	-0.528458
26293		9.380879	-0.505944	-2.805236	-0.390533	0.043974	-0.142931	-0.597656	0.407227	0.496582	0.257788	-0.733847	-0.337580	-0.530145
26294		9.442627	-0.797418	-2.758484	-0.330481	0.051034	-0.164806	-0.598145	0.404785	0.497803	0.255166	-0.733900	-0.336948	-0.531739
26295		9.489175	-0.918459	-2.769130	-0.238802	0.056171	-0.184699	-0.599365	0.394531	0.496094	0.253022	-0.733688	-0.336799	-0.533150
26296		9.408891	-0.994586	-2.858916	-0.160042	0.056339	-0.195703	-0.608398	0.400879	0.503418	0.251362	-0.733217	-0.337191	-0.534334
26297		9.297369	-0.818851	-2.879456	-0.052664	0.053815	-0.206105	-0.606689	0.398193	0.503906	0.250220	-0.732571	-0.337968	-0.535263
26298		9.347184	-0.629670	-2.973767	0.013918	0.044018	-0.217481	-0.609619	0.400146	0.495361	0.249391	-0.731817	-0.339085	-0.535974
26299		9.315032	-0.444165	-3.049316	0.062716	0.028472	-0.226109	-0.616455	0.396240	0.485840	0.248824	-0.730973	-0.340571	-0.536448
26300		9.342461	-0.573701	-3.056048	0.077299	0.017470	-0.232050	-0.617920	0.396729	0.499023	0.248381	-0.730030	-0.342392	-0.536779
26301		9.346791	-0.490179	-3.123855	0.092126	0.004667	-0.219155	-0.612061	0.390625	0.493652	0.247924	-0.729256	-0.343990	-0.537019
26302		9.353003	-0.187281	-3.185646	0.119851	0.000372	-0.214999	-0.617188	0.386475	0.493408	0.247688	-0.728425	-0.345759	-0.537120
26303		9.335211	-0.041536	-3.151140	0.165433	0.000515	-0.213468	-0.615234	0.383057	0.493408	0.247753	-0.727467	-0.347793	-0.537075
26304		9.361786	0.141162	-3.057006	0.158528	0.008834	-0.205852	-0.621338	0.388916	0.487549	0.247832	-0.726508	-0.349725	-0.537082
26305		9.299026	0.352639	-3.053540	0.127701	-0.007366	-0.194834	-0.622803	0.396484	0.490723	0.247737	-0.725708	-0.351494	-0.537053
26306		9.408257	0.404674	-3.161683	0.079455	-0.017220	-0.186850	-0.625000	0.389648	0.489746	0.247285	-0.725154	-0.352846	-0.537123
26307		9.440191	0.444675	-3.196094	0.008748	-0.015471	-0.169573	-0.625732	0.385010	0.491211	0.246519	-0.724742	-0.353869	-0.537358
26308		9.375128	0.296509	-3.107863	-0.065712	-0.014667	-0.133869	-0.624512	0.379639	0.489746	0.245469	-0.724573	-0.354365	-0.537740
26309		9.413484	0.295593	-3.085096	-0.054983	-0.022136	-0.115092	-0.621826	0.385010	0.486816	0.244578	-0.724440	-0.354874	-0.537989
26310		9.337318	0.534560	-2.903034	-0.035022	-0.015837	-0.113892	-0.622314	0.378662	0.490479	0.243818	-0.724279	-0.355371	-0.538223
26311		9.317607	0.479990	-2.741223	-0.024735	-0.012313	-0.118017	-0.620361	0.386963	0.486084	0.243113	-0.724055	-0.355961	-0.538453
26312		9.303115	0.716879	-2.777316	0.000508	-0.014231	-0.128819	-0.623047	0.374512	0.486572	0.242490	-0.723802	-0.356635	-0.538629
26313		9.360875	0.768369	-2.829922	0.017762	-0.010355	-0.149613	-0.625732	0.379883	0.492676	0.241945	-0.723350	-0.357675	-0.538790
26314		9.383802	0.607008	-2.912003	0.031342	-0.010398	-0.142759	-0.623779	0.369141	0.488770	0.241434	-0.722970	-0.358576	-0.538931
26315		9.364977	0.540355	-3.006491	0.077887	-0.006716	-0.126243	-0.625977	0.379395	0.489502	0.241363	-0.722447	-0.359745	-0.538886
26316		9.447494	0.666548	-3.150349	0.092191	-0.004695	-0.103524	-0.629150	0.374023	0.488037	0.241424	-0.722030	-0.360678	-0.538794
26317		9.391544	0.962383	-3.195334	0.055333	0.013898	-0.074347	-0.627686	0.377197	0.490479	0.241482	-0.721642	-0.361330	-0.538851
26318		9.369503	1.009569	-3.225194	0.011351	0.019593	-0.055634	-0.625244	0.373779	0.490967	0.241338	-0.721420	-0.361568	-0.539052
26319		9.290443	0.857080	-3.247197	0.002331	0.014462	-0.033543	-0.634277	0.370361	0.481689	0.241231	-0.721300	-0.361662	-0.539198
26320		9.363133	0.749192	-3.248736	0.035087	0.008831	-0.020668	-0.631348	0.369141	0.481201	0.241447	-0.721072	-0.362033	-0.539158
26321		9.360436	0.777935	-3.250676	0.063111	0.013303	-0.010463	-0.630615	0.375244	0.486084	0.241895	-0.720799	-0.362459	-0.539035
26322		9.315924	0.941367	-3.163590	0.069532	0.017607	0.012966	-0.633057	0.375244	0.490479	0.242436	-0.720637	-0.362626	-0.538896
26323		9.340915	0.975263	-3.097421	0.031462	0.017253	0.019464	-0.633057	0.374268	0.486084	0.242743	-0.720591	-0.362554	-0.538868
26324		9.411085	0.943648	-3.000280	0.003147	0.021115	0.028884	-0.631836	0.379639	0.481201	0.242968	-0.720581	-0.362350	-0.538917
26325		9.444447	0.833497	-2.903629	-0.027949	0.031149	0.041544	-0.631592	0.374268	0.487549	0.243104	-0.720635	-0.361887	-0.539095
26326		9.417499	0.625602	-2.821033	-0.043488	0.036909	0.052538	-0.628418	0.373535	0.482910	0.243193	-0.720729	-0.361284	-0.539333
26327		9.422970	0.343455	-2.886892	-0.012105	0.038895	0.068639	-0.632568	0.380859	0.482910	0.243585	-0.720776	-0.360766	-0.539442
26328		9.325079	0.420428	-2.911906	0.053584	0.036465	0.085979	-0.631836	0.370361	0.479004	0.244410	-0.720783	-0.360371	-0.539322
26329		9.372840	0.528047	-2.902291	0.058257	0.028209	0.084704	-0.624268	0.374512	0.486328	0.245297	-0.720728	-0.360193	-0.539112
26330		9.438929	0.399913	-2.888551	0.060610	0.024073	0.097999	-0.628418	0.374268	0.481689	0.246190	-0.720802	-0.359825	-0.538852
26331		9.513177	0.309969	-2.785760	0.045064	0.021942	0.112645	-0.627686	0.382324	0.476807	0.247073	-0.720921	-0.359369	-0.538593
26332		9.492117	0.102678	-2.838636	0.050289	0.016537	0.128380	-0.625000	0.384277	0.480713	0.248050	-0.721112	-0.358817	-0.538255
26333		9.451992	-0.077591	-2.870418	0.075710	0.010046	0.145580	-0.628418	0.385498	0.486328	0.249213	-0.721357	-0.358245	-0.537771
26334		9.441581	0.009408	-2.882372	0.094390	0.003272	0.170658	-0.632324	0.387695	0.477539	0.250538	-0.721686	-0.357587	-0.537152
26335		9.317586	0.358082	-2.946937	0.079114	0.001582	0.191079	-0.623535	0.395020	0.480469	0.251899	-0.722062	-0.356817	-0.536521
26336		9.288192	0.658378	-2.866290	0.008527	0.003765	0.192660	-0.630859	0.391357	0.484131	0.252828	-0.722631	-0.355630	-0.536106
26337		9.360379	0.887819	-2.873240	-0.117710	0.004202	0.186600	-0.627686	0.390381	0.481201	0.252948	-0.723421	-0.353955	-0.536092
26338		9.484324	0.672903	-2.852023	-0.229912	0.006805	0.168411	-0.624023	0.390869	0.480469	0.252344	-0.724355	-0.351927	-0.536450
26339		9.378584	0.187498	-2.902424	-0.295562	0.008209	0.160116	-0.629639	0.380127	0.479736	0.251325	-0.725389	-0.349657	-0.537016
26340		9.434076	-0.295830	-2.942760	-0.299204	0.007552	0.158802	-0.623047	0.392578	0.491211	0.250294	-0.726360	-0.347493	-0.537590
26341		9.351652	-0.397471	-2.902405	-0.255215	0.005174	0.158828	-0.624023	0.389648	0.486084	0.249453	-0.727355	-0.345329	-0.538030
26342		9.304964	-0.481531	-2.841890	-0.213357	0.000310	0.153748	-0.623047	0.392334	0.487549	0.248865	-0.728222	-0.343464	-0.538322
26343		9.282799	-0.439784	-2.876125	-0.192529	0.002781	0.136519	-0.618652	0.388672	0.495117	0.248328	-0.728995	-0.341765	-0.538606
26344		9.363778	-0.345116	-2.917869	-0.173180	0.006012	0.106101	-0.615234	0.391113	0.496338	0.247755	-0.729645	-0.340304	-0.538914
26345		9.361626	-0.364053	-2.884038	-0.120997	0.005822	0.074544	-0.617188	0.386963	0.499268	0.247360	-0.730111	-0.339245	-0.539132
26346		9.361923	-0.458832	-2.896534	-0.068432	0.005592	0.052952	-0.618896	0.391846	0.492920	0.247173	-0.730402	-0.338568	-0.539250
26347		9.398738	-0.412233	-2.824043	-0.007238	0.008365	0.042800	-0.615723	0.388428	0.493408	0.247349	-0.730509	-0.338235	-0.539233
26348		9.450107	-0.345441	-2.863448	0.021981	0.008851	0.035262	-0.615234	0.393799	0.495117	0.247677	-0.730525	-0.338101	-0.539145
26349		9.412035	-0.341438	-2.885969	0.016459	0.007366	0.036002	-0.617920	0.391113	0.488281	0.247957	-0.730587	-0.337889	-0.539064
26350		9.377973	-0.320757	-2.889669	0.023705	0.008714	0.033031	-0.615967	0.388184	0.488770	0.248304	-0.730576	-0.337799	-0.538977
26351		9.346405	-0.253081	-2.876706	0.022463	0.010788	0.017597	-0.619873	0.387451	0.494141	0.248582	-0.730509	-0.337808	-0.538934
26352		9.356540	-0.162312	-2.821590	0.033598	0.017129	-0.002238	-0.608887	0.388184	0.488525	0.248815	-0.730353	-0.337938	-0.538956
26353		9.419524	-0.074924	-2.681825	0.066192	0.018285	-0.010376	-0.617676	0.386475	0.496094	0.249269	-0.730091	-0.338298	-0.538876
26354		9.370035	-0.026032	-2.746711	0.131891	0.018137	-0.029740	-0.611816	0.391113	0.487793	0.249968	-0.729660	-0.339019	-0.538682
26355		9.389724	0.084281	-2.824995	0.189945	0.006892	-0.045609	-0.616455	0.396729	0.489990	0.250972	-0.729098	-0.340151	-0.538263
26356		9.356022	0.158435	-2.952620	0.180932	0.005032	-0.060400	-0.615234	0.391357	0.492676	0.251818	-0.728542	-0.341285	-0.537902
26357		9.452832	0.174275	-2.859379	0.098632	0.001961	-0.044154	-0.623535	0.398193	0.489990	0.252211	-0.728220	-0.341963	-0.537723
26358		9.500252	0.094983	-2.808115	0.019772	0.002405	-0.009800	-0.612793	0.393066	0.491455	0.252271	-0.728161	-0.342054	-0.537717
26359		9.500673	-0.070596	-2.831497	-0.037606	0.015093	0.028471	-0.613037	0.392334	0.484375	0.252211	-0.728277	-0.341653	-0.537844
26360		9.451754	-0.335526	-2.896173	-0.033575	0.013936	0.056867	-0.618896	0.397949	0.479492	0.252336	-0.728436	-0.341153	-0.537887
26361		9.387998	-0.362818	-2.897431	-0.002161	0.022455	0.061236	-0.620361	0.397705	0.482178	0.252705	-0.728492	-0.340750	-0.537893
26362		9.431723	-0.154397	-2.949631	0.029944	0.016985	0.056168	-0.625488	0.397461	0.482178	0.253209	-0.728500	-0.340515	-0.537794
26363		9.433109	0.000284	-2.921645	0.035961	0.022426	0.048349	-0.619873	0.389404	0.479248	0.253711	-0.728444	-0.340337	-0.537745
26364		9.354766	0.063359	-2.884534	0.007903	0.036277	0.056652	-0.610352	0.401367	0.484375	0.254141	-0.728384	-0.340012	-0.537830
26365		9.268964	0.009243	-2.982595	0.019201	0.026294	0.063553	-0.619873	0.401367	0.483154	0.254653	-0.728416	-0.339649	-0.537775
26366		9.419191	0.214434	-2.952604	0.027432	0.017118	0.071625	-0.618652	0.404297	0.478516	0.255197	-0.728484	-0.339287	-0.537653
26367		9.424914	0.342328	-2.869738	-0.025137	0.019715	0.089189	-0.625244	0.404053	0.482666	0.255535	-0.728687	-0.338602	-0.537648
26368		9.352513	0.112773	-2.932412	-0.096589	0.022204	0.116804	-0.614746	0.408447	0.480713	0.255523	-0.729122	-0.337386	-0.537828
26369		9.387952	-0.032876	-2.933624	-0.146310	0.023688	0.142084	-0.610840	0.399414	0.479492	0.255377	-0.729726	-0.335813	-0.538063
26370		9.414926	-0.006229	-2.951096	-0.146848	0.025492	0.163673	-0.611084	0.397949	0.483887	0.255335	-0.730359	-0.334146	-0.538262
26371		9.509022	0.263206	-2.889516	-0.151565	0.037716	0.173726	-0.612305	0.397949	0.484619	0.255314	-0.730985	-0.332347	-0.538536
26372		9.467195	0.295849	-2.931063	-0.181333	0.035155	0.184190	-0.613037	0.404297	0.483643	0.255142	-0.731712	-0.330349	-0.538860
26373		9.388533	-0.089536	-3.022993	-0.202947	0.022726	0.206684	-0.611816	0.396240	0.488770	0.254918	-0.732598	-0.328140	-0.539111
26374		9.367423	-0.428632	-3.084702	-0.138418	0.005494	0.217421	-0.608398	0.398438	0.484131	0.255048	-0.733457	-0.326176	-0.539074
26375		9.449708	-0.208478	-2.944946	-0.070760	-0.007947	0.215154	-0.612305	0.407471	0.490723	0.255581	-0.734203	-0.324596	-0.538758
26376		9.444215	0.053568	-2.776315	-0.064038	0.004809	0.208365	-0.600586	0.404297	0.491211	0.256128	-0.734887	-0.323000	-0.538526
26377		9.453058	-0.057137	-2.695944	-0.053482	0.007455	0.191301	-0.609619	0.407471	0.489258	0.256694	-0.735487	-0.321576	-0.538290
26378		9.407776	-0.178572	-2.752025	-0.009238	-0.000176	0.184305	-0.602051	0.412598	0.494873	0.257455	-0.735996	-0.320398	-0.537933
26379		9.399228	0.035399	-2.652649	0.102292	-0.008971	0.153026	-0.600586	0.414795	0.488770	0.258742	-0.736245	-0.319907	-0.537266
26380		9.433511	-0.071596	-2.730969	0.195262	-0.013358	0.120289	-0.598389	0.413086	0.488037	0.260469	-0.736202	-0.320081	-0.536387
26381		9.426801	-0.273986	-2.706931	0.294950	-0.027497	0.095860	-0.600830	0.421631	0.483643	0.262647	-0.735937	-0.320879	-0.535211
26382		9.515896	-0.292103	-2.776121	0.341878	-0.040815	0.077920	-0.597168	0.425293	0.484375	0.265011	-0.735565	-0.322034	-0.533860
26383		9.482133	-0.169517	-2.742878	0.385593	-0.017316	0.058211	-0.598389	0.423828	0.481689	0.267613	-0.734944	-0.323438	-0.532567
26384		9.488346	-0.007739	-2.637034	0.417638	-0.018469	0.035761	-0.593506	0.438965	0.481201	0.270282	-0.734186	-0.325114	-0.531244
26385		9.456237	0.004713	-2.594665	0.385515	-0.035833	0.016157	-0.599365	0.436279	0.480713	0.272662	-0.733527	-0.326807	-0.529897
26386		9.412230	-0.165293	-2.765731	0.379401	-0.039290	0.003949	-0.598389	0.438965	0.483398	0.274884	-0.732863	-0.328518	-0.528609
26387		9.290170	-0.351761	-2.946794	0.364951	-0.044741	-0.008423	-0.601074	0.442139	0.475586	0.276922	-0.732234	-0.330216	-0.527356
26388		9.385769	-0.351331	-2.945367	0.348242	-0.046537	-0.011724	-0.599365	0.443359	0.472656	0.278853	-0.731614	-0.331895	-0.526144
26389		9.390170	-0.088008	-2.861113	0.323712	-0.053804	-0.012717	-0.589111	0.442871	0.474365	0.280612	-0.731071	-0.333497	-0.524950
26390		9.435189	0.163202	-2.786849	0.247047	-0.038240	-0.012416	-0.597900	0.451416	0.467529	0.281959	-0.730649	-0.334719	-0.524037
26391		9.406193	0.130408	-2.771017	0.160300	-0.025008	-0.032494	-0.597412	0.441162	0.469482	0.282739	-0.730294	-0.335676	-0.523498
26392		9.316953	-0.089514	-2.764334	0.088157	-0.022302	-0.059003	-0.595947	0.453857	0.468994	0.282924	-0.730030	-0.336450	-0.523270
26393		9.350614	-0.239827	-2.741925	0.054896	-0.019175	-0.091845	-0.603516	0.439209	0.464600	0.282818	-0.729743	-0.337280	-0.523193
26394		9.290049	-0.433833	-2.754006	0.016119	-0.031529	-0.124274	-0.604004	0.453613	0.474365	0.282250	-0.729485	-0.338183	-0.523277
26395		9.347295	-0.700944	-2.805386	0.009423	-0.025279	-0.141845	-0.598389	0.447754	0.470215	0.281581	-0.729213	-0.339076	-0.523439
26396		9.353145	-0.950455	-2.942721	0.004446	-0.025522	-0.136142	-0.599121	0.438721	0.467529	0.280939	-0.728948	-0.339957	-0.523580
26397		9.375699	-1.144533	-2.887756	0.006493	-0.025237	-0.111388	-0.601318	0.437744	0.473633	0.280412	-0.728730	-0.340722	-0.523670
26398		9.466239	-1.237760	-2.822582	-0.004722	-0.026039	-0.058548	-0.603760	0.434326	0.472168	0.280006	-0.728718	-0.341063	-0.523682
26399		9.454474	-0.965500	-2.626515	-0.066159	-0.018705	-0.006668	-0.597168	0.442627	0.475342	0.279470	-0.728954	-0.340816	-0.523801
26400		9.456289	-0.749727	-2.587245	-0.180484	-0.007734	0.045041	-0.604980	0.439453	0.486084	0.278529	-0.729573	-0.339712	-0.524157
26401		9.449120	-0.790825	-2.570878	-0.311284	0.020573	0.078486	-0.603760	0.441162	0.470215	0.276932	-0.730501	-0.337670	-0.525029
26402		9.438035	-0.736374	-2.619300	-0.387971	0.026555	0.088695	-0.593750	0.434814	0.485352	0.275040	-0.731522	-0.335383	-0.526068
26403		9.405738	-0.695321	-2.798217	-0.414285	0.041567	0.070196	-0.598389	0.433594	0.469971	0.272894	-0.732536	-0.332939	-0.527325
26404		9.356461	-0.797524	-2.867065	-0.381752	0.037702	0.035460	-0.595459	0.422852	0.476562	0.270874	-0.733301	-0.331032	-0.528502
26405		9.350048	-0.904381	-2.893273	-0.288559	0.027471	-0.012815	-0.600098	0.423584	0.496826	0.269145	-0.733778	-0.329813	-0.529485
26406		9.365370	-0.958698	-2.878254	-0.194325	0.013220	-0.061668	-0.597656	0.419678	0.490234	0.267620	-0.734058	-0.329145	-0.530285
26407		9.367082	-0.958914	-2.791077	-0.110961	0.006868	-0.099712	-0.597656	0.426025	0.488281	0.266471	-0.734036	-0.329174	-0.530875
26408		9.425083	-0.867312	-2.694338	-0.049420	0.010698	-0.126655	-0.590332	0.421387	0.482666	0.265628	-0.733781	-0.329652	-0.531354
26409		9.444410	-0.719638	-2.624653	-0.047706	0.020018	-0.130543	-0.600342	0.425781	0.479492	0.264858	-0.733442	-0.330206	-0.531862
26410		9.395416	-0.720527	-2.702621	-0.077878	0.031438	-0.132997	-0.603271	0.420654	0.492188	0.263931	-0.733095	-0.330646	-0.532528
26411		9.346729	-0.799316	-2.825073	-0.114096	0.034386	-0.115512	-0.600586	0.415039	0.492676	0.262779	-0.732919	-0.330679	-0.533319
26412		9.292356	-0.857086	-2.884683	-0.142082	0.033330	-0.112404	-0.610107	0.417969	0.484131	0.261469	-0.732815	-0.330572	-0.534171
26413		9.329661	-0.937098	-2.920924	-0.093943	0.034966	-0.148556	-0.604980	0.411133	0.489990	0.260338	-0.732452	-0.330988	-0.534962
26414		9.319609	-1.130809	-2.942475	-0.001378	0.039918	-0.210250	-0.606445	0.415771	0.492188	0.259485	-0.731722	-0.332125	-0.535671
26415		9.321530	-1.183846	-2.914192	0.159044	0.035396	-0.270009	-0.602783	0.408203	0.491211	0.259330	-0.730516	-0.334318	-0.536028
26416		9.296272	-1.048390	-2.898343	0.364163	0.015330	-0.317467	-0.620605	0.414307	0.474609	0.260154	-0.728816	-0.337755	-0.535788
26417		9.358569	-1.003215	-2.787116	0.533569	-0.007423	-0.363940	-0.612549	0.416504	0.474609	0.261782	-0.726631	-0.342412	-0.535007
26418		9.392672	-0.557994	-2.659272	0.636780	-0.023525	-0.372368	-0.610840	0.411865	0.481689	0.263955	-0.724270	-0.347563	-0.533817
26419		9.401760	0.192351	-2.806131	0.553384	-0.024117	-0.338592	-0.619629	0.410156	0.468018	0.265698	-0.722220	-0.352021	-0.532808
26420		9.464004	0.318735	-2.884465	0.383604	-0.020348	-0.304850	-0.621094	0.416260	0.469238	0.266608	-0.720555	-0.355609	-0.532224
26421		9.392543	0.092230	-2.992995	0.181450	-0.013507	-0.255547	-0.621338	0.409180	0.464111	0.266532	-0.719473	-0.357942	-0.532163
26422		9.410895	-0.096661	-3.083286	0.058490	-0.018455	-0.205376	-0.626709	0.412598	0.467285	0.265942	-0.718804	-0.359487	-0.532320
26423		9.471622	-0.181624	-3.072299	0.012148	-0.027727	-0.160506	-0.625488	0.407715	0.471924	0.265222	-0.718434	-0.360536	-0.532470
26424		9.371336	-0.277311	-3.024109	0.032651	-0.042426	-0.149146	-0.620850	0.408447	0.468506	0.264604	-0.718136	-0.361601	-0.532457
26425		9.333019	-0.304151	-2.928118	0.109228	-0.048807	-0.160014	-0.626953	0.405762	0.476074	0.264419	-0.717649	-0.363119	-0.532173
26426		9.394936	-0.117957	-2.946683	0.152273	-0.056100	-0.164345	-0.618164	0.407959	0.464111	0.264383	-0.717119	-0.364795	-0.531759
26427		9.374552	0.184935	-2.924406	0.194924	-0.051943	-0.165416	-0.625488	0.410400	0.466553	0.264710	-0.716419	-0.366764	-0.531184
26428		9.354241	0.413711	-3.086042	0.182167	-0.057931	-0.155070	-0.632324	0.417480	0.460449	0.264954	-0.715820	-0.368590	-0.530606
26429		9.474072	0.696000	-3.183325	0.123602	-0.044990	-0.155811	-0.623291	0.412109	0.462158	0.264910	-0.715268	-0.370168	-0.530274
26430		9.292548	0.807953	-3.152955	0.061732	-0.017195	-0.150322	-0.634277	0.403564	0.465820	0.264616	-0.714752	-0.371372	-0.530275
26431		9.313043	0.466701	-3.278668	0.078343	-0.005304	-0.143279	-0.625244	0.406738	0.466553	0.264417	-0.714174	-0.372553	-0.530324
26432		9.316370	0.510832	-3.383286	0.107322	0.003429	-0.124873	-0.622559	0.407715	0.459717	0.264535	-0.713562	-0.373724	-0.530266
26433		9.375560	0.821168	-3.324568	0.145260	0.006270	-0.106515	-0.630127	0.401123	0.460693	0.265015	-0.712882	-0.375000	-0.530039
26434		9.369379	1.096525	-3.148482	0.160405	0.006530	-0.096882	-0.627197	0.400391	0.463867	0.265578	-0.712196	-0.376275	-0.529775
26435		9.375887	1.029815	-3.052227	0.160162	-0.002040	-0.078879	-0.626953	0.404297	0.458008	0.266181	-0.711622	-0.377431	-0.529422
26436		9.417087	0.926603	-2.827672	0.162130	-0.002628	-0.056849	-0.640625	0.407959	0.457764	0.266925	-0.711096	-0.378501	-0.528990
26437		9.472457	0.786266	-2.728377	0.136576	0.001039	-0.035918	-0.641113	0.403076	0.458740	0.267579	-0.710681	-0.379303	-0.528643
26438		9.489579	0.697187	-2.726166	0.105034	0.011044	-0.012275	-0.633301	0.400635	0.448486	0.268155	-0.710370	-0.379795	-0.528415
26439		9.474989	0.601536	-2.724290	0.087490	0.018903	0.011024	-0.630859	0.409668	0.453857	0.268823	-0.710090	-0.380143	-0.528202
26440		9.458976	0.705330	-2.761873	0.076733	0.027541	0.027807	-0.635498	0.415283	0.451660	0.269528	-0.709885	-0.380266	-0.528030
26441		9.425161	0.886212	-2.766426	0.049779	0.038537	0.039696	-0.628174	0.410156	0.450928	0.270164	-0.709727	-0.380176	-0.527982
26442		9.405838	0.890505	-2.845051	-0.008067	0.037283	0.049666	-0.634521	0.411621	0.457031	0.270507	-0.709731	-0.379790	-0.528079
26443		9.374204	0.681661	-2.854833	-0.044195	0.031532	0.065050	-0.635010	0.406006	0.450684	0.270634	-0.709918	-0.379113	-0.528249
26444		9.392705	0.373617	-2.857721	-0.028879	0.022118	0.073676	-0.633301	0.411621	0.457764	0.270867	-0.710110	-0.378521	-0.528296
26445		9.451667	0.096615	-2.945135	-0.004322	0.003896	0.096106	-0.624512	0.416748	0.442871	0.271275	-0.710429	-0.377893	-0.528107
26446		9.402262	0.068905	-2.888469	0.026240	-0.008352	0.125282	-0.633301	0.413330	0.449463	0.272067	-0.710762	-0.377369	-0.527626
26447		9.416230	0.330799	-2.811302	0.017851	-0.018913	0.156849	-0.636230	0.411377	0.457764	0.272828	-0.711288	-0.376583	-0.527085
26448		9.343427	0.742275	-2.842391	-0.060030	-0.019229	0.173595	-0.627930	0.421387	0.451416	0.273133	-0.712077	-0.375295	-0.526781
26449		9.349069	0.809798	-2.937432	-0.189725	-0.005715	0.167083	-0.627441	0.416992	0.446533	0.272770	-0.713051	-0.373501	-0.526927
26450		9.345796	0.551680	-2.961216	-0.297915	0.002367	0.166892	-0.629639	0.417725	0.455566	0.271793	-0.714205	-0.371255	-0.527456
26451		9.495466	0.120855	-2.957640	-0.341108	-0.005042	0.185430	-0.621582	0.410645	0.456055	0.270577	-0.715569	-0.368669	-0.528045
26452		9.490746	-0.312368	-2.967381	-0.319678	-0.015944	0.202163	-0.616699	0.410156	0.461182	0.269536	-0.716966	-0.366125	-0.528453
26453		9.431384	-0.706999	-2.966734	-0.279282	-0.015401	0.222092	-0.620361	0.423096	0.458252	0.268826	-0.718333	-0.363622	-0.528685
26454		9.331073	-0.717319	-2.929459	-0.211798	-0.013673	0.239846	-0.614502	0.418701	0.469482	0.268653	-0.719572	-0.361333	-0.528659
26455		9.339977	-0.372795	-2.827466	-0.175621	-0.020420	0.253720	-0.621582	0.415771	0.466797	0.268694	-0.720830	-0.359078	-0.528461
26456		9.373243	0.094316	-2.792494	-0.204270	-0.020302	0.258297	-0.614990	0.419189	0.475098	0.268536	-0.722153	-0.356663	-0.528370
26457		9.395210	0.263924	-2.766567	-0.291473	-0.009385	0.255340	-0.601074	0.420654	0.470459	0.267877	-0.723627	-0.353829	-0.528593
26458		9.425214	0.049355	-2.884599	-0.398752	-0.007428	0.235293	-0.612793	0.420410	0.477783	0.266571	-0.725232	-0.350707	-0.529134
26459		9.462185	-0.306264	-2.899437	-0.425698	-0.005359	0.216262	-0.614014	0.414307	0.472900	0.264945	-0.726844	-0.347514	-0.529845
26460		9.425751	-0.606105	-2.812437	-0.379594	-0.011566	0.201433	-0.606445	0.418701	0.483887	0.263500	-0.728308	-0.344650	-0.530426
26461		9.338475	-0.838840	-2.747676	-0.302417	-0.014815	0.195533	-0.611328	0.416260	0.478027	0.262513	-0.729610	-0.342146	-0.530746
26462		9.274516	-0.902196	-2.872631	-0.242790	-0.010880	0.191499	-0.607910	0.413086	0.485596	0.261866	-0.730729	-0.339941	-0.530944
26463		9.306554	-0.862613	-3.032207	-0.151802	-0.006429	0.174462	-0.602295	0.416016	0.482178	0.261684	-0.731596	-0.338196	-0.530954
26464		9.351469	-0.765155	-3.050299	-0.053950	-0.015023	0.161920	-0.608887	0.418213	0.482910	0.262065	-0.732231	-0.337022	-0.530637
26465		9.392566	-0.498402	-3.119607	-0.061502	-0.019889	0.168384	-0.605957	0.415039	0.487793	0.262381	-0.732927	-0.335761	-0.530319
26466		9.307314	-0.384467	-3.064657	-0.168996	-0.016963	0.187591	-0.597168	0.422119	0.488037	0.262104	-0.733912	-0.333870	-0.530288
26467		9.312445	-0.465271	-2.955797	-0.224899	-0.010948	0.183352	-0.597900	0.414795	0.486572	0.261555	-0.734963	-0.331789	-0.530410
26468		9.302958	-0.635764	-3.036551	-0.213465	0.002509	0.154478	-0.606445	0.416748	0.489014	0.260946	-0.735843	-0.329897	-0.530669
26469		9.247241	-0.845968	-3.088755	-0.125248	0.020642	0.116469	-0.597656	0.422607	0.491943	0.260719	-0.736353	-0.328555	-0.530906
26470		9.261245	-0.830840	-3.114294	-0.001988	0.019376	0.082981	-0.596680	0.418945	0.488525	0.261159	-0.736504	-0.327997	-0.530826
26471		9.325089	-0.386970	-3.280756	0.091099	0.003058	0.053130	-0.593506	0.417969	0.500977	0.261984	-0.736436	-0.328076	-0.530464
26472		9.267184	0.009352	-3.296795	0.162546	-0.004914	0.022981	-0.595703	0.418213	0.485840	0.263052	-0.736204	-0.328601	-0.529933
26473		9.335559	0.276198	-3.193551	0.123669	-0.007604	0.005620	-0.598877	0.433838	0.485596	0.263824	-0.735980	-0.329137	-0.529527
26474		9.402192	0.424142	-3.011994	0.034296	0.007403	-0.004083	-0.591064	0.427734	0.490967	0.264102	-0.735849	-0.329339	-0.529445
26475		9.497600	0.340581	-2.842530	-0.058843	0.013881	0.004827	-0.595459	0.430664	0.489746	0.263856	-0.735935	-0.329037	-0.529636
26476		9.459078	-0.005015	-2.782051	-0.134810	0.026709	0.013625	-0.603760	0.418945	0.492676	0.263219	-0.736150	-0.328325	-0.530096
26477		9.426078	-0.456650	-2.915841	-0.143521	0.030702	0.017845	-0.590820	0.427490	0.495605	0.262447	-0.736404	-0.327454	-0.530664
26478		9.400971	-0.710606	-2.975913	-0.110679	0.037173	0.024426	-0.595459	0.421875	0.491455	0.262038	-0.736557	-0.326749	-0.531088
26479		9.323168	-0.882201	-2.903150	-0.058547	0.031095	0.023348	-0.594482	0.414551	0.498779	0.261891	-0.736617	-0.326282	-0.531365
26480		9.403208	-0.832814	-2.838062	-0.004361	0.023590	0.023331	-0.600342	0.416748	0.497314	0.262001	-0.736620	-0.326008	-0.531474
26481		9.397845	-0.679986	-2.729546	0.048390	0.028120	0.011218	-0.593506	0.418457	0.495117	0.262378	-0.736454	-0.326025	-0.531509
26482		9.418408	-0.526130	-2.776918	0.079786	0.026135	-0.002983	-0.595703	0.419678	0.490723	0.262926	-0.736177	-0.326309	-0.531447
26483		9.396565	-0.382715	-2.780419	0.090220	0.032665	-0.016347	-0.598633	0.422119	0.483398	0.263500	-0.735803	-0.326721	-0.531428
26484		9.403027	-0.360801	-2.842614	0.071308	0.032153	-0.016912	-0.594971	0.416992	0.492676	0.263969	-0.735453	-0.327087	-0.531454
26485		9.400216	-0.264769	-2.899797	0.065755	0.029427	-0.013491	-0.597168	0.423340	0.497070	0.264373	-0.735168	-0.327349	-0.531487
26486		9.411151	-0.118860	-2.900951	0.039949	0.038301	-0.008075	-0.599609	0.429688	0.481689	0.264674	-0.734923	-0.327432	-0.531623
26487		9.495675	0.014067	-2.906578	-0.010288	0.046331	0.001505	-0.602295	0.420654	0.485352	0.264796	-0.734734	-0.327316	-0.531897
26488		9.474214	0.061468	-2.865412	-0.060682	0.055964	0.013397	-0.600098	0.419434	0.489502	0.264616	-0.734669	-0.326815	-0.532383
26489		9.336119	0.026639	-2.732754	-0.090145	0.065228	0.025510	-0.595459	0.426514	0.487061	0.264332	-0.734671	-0.326072	-0.532977
26490		9.382826	-0.154935	-2.939852	-0.083594	0.061345	0.025374	-0.599365	0.420898	0.486816	0.264148	-0.734654	-0.325430	-0.533484
26491		9.396166	-0.109369	-3.066206	-0.067754	0.056972	0.032580	-0.597168	0.419189	0.481934	0.264036	-0.734650	-0.324791	-0.533934
26492		9.361720	-0.273275	-3.033346	-0.049230	0.052417	0.051265	-0.599121	0.422852	0.488525	0.264126	-0.734661	-0.324160	-0.534257
26493		9.331975	-0.432536	-3.068772	-0.018204	0.034238	0.068836	-0.599609	0.423096	0.486572	0.264425	-0.734749	-0.323571	-0.534346
26494		9.332147	-0.278012	-3.025703	-0.015956	0.034779	0.080839	-0.595703	0.417725	0.500488	0.264792	-0.734857	-0.322923	-0.534408
26495		9.300181	-0.124754	-2.985094	-0.040537	0.039661	0.081829	-0.600342	0.419922	0.487061	0.264972	-0.735042	-0.322057	-0.534586
26496		9.280950	-0.276798	-2.928551	-0.079705	0.041460	0.075350	-0.596436	0.417236	0.485840	0.264910	-0.735253	-0.321117	-0.534892
26497		9.442669	-0.686375	-2.998359	-0.046988	0.030754	0.066519	-0.609131	0.425293	0.489502	0.264988	-0.735412	-0.320411	-0.535058
26498		9.430548	-0.670518	-2.866551	0.064148	0.008249	0.057790	-0.599854	0.424805	0.494873	0.265613	-0.735414	-0.320269	-0.534831
26499		9.514668	-0.568600	-2.734832	0.198971	0.000217	0.039180	-0.593994	0.422363	0.484619	0.266978	-0.735114	-0.320848	-0.534217
26500		9.517763	-0.451528	-2.724499	0.316124	0.004526	0.016298	-0.597656	0.425537	0.482666	0.269001	-0.734444	-0.322132	-0.533349
26501		9.499314	-0.326493	-2.625732	0.371353	-0.007590	0.002647	-0.598389	0.434570	0.478760	0.271250	-0.733664	-0.323758	-0.532298
26502		9.476136	-0.246143	-2.545908	0.349276	-0.022310	0.006145	-0.598633	0.438477	0.484375	0.273367	-0.732994	-0.325323	-0.531183
26503		9.485767	-0.418266	-2.628800	0.265996	-0.020918	0.027002	-0.591797	0.437012	0.474365	0.275047	-0.732581	-0.326337	-0.530263
26504		9.422354	-0.621119	-2.700758	0.182818	-0.019672	0.064115	-0.602295	0.437500	0.470215	0.276424	-0.732426	-0.326812	-0.529467
26505		9.389800	-0.859649	-2.679301	0.140957	-0.023463	0.094411	-0.592285	0.430908	0.478271	0.277616	-0.732466	-0.326904	-0.528731
26506		9.309727	-0.806941	-2.791494	0.134143	-0.044048	0.108568	-0.588379	0.441406	0.475830	0.278746	-0.732679	-0.326864	-0.527866
26507		9.284921	-0.682077	-2.811489	0.110483	-0.064010	0.088528	-0.593018	0.439209	0.477295	0.279647	-0.732962	-0.326938	-0.526950
26508		9.322193	-0.429832	-2.810263	0.088061	-0.063950	0.044347	-0.593018	0.443604	0.469971	0.280166	-0.733188	-0.327141	-0.526233
26509		9.384404	-0.184583	-2.706321	0.039062	-0.062152	-0.010193	-0.588867	0.445312	0.483398	0.280189	-0.733346	-0.327521	-0.525764
26510		9.449009	-0.143330	-2.661052	-0.004803	-0.053350	-0.057223	-0.592041	0.443359	0.486084	0.279737	-0.733478	-0.327893	-0.525589
26511		9.402800	-0.620490	-2.670600	-0.019576	-0.043375	-0.070910	-0.584473	0.449707	0.478271	0.279134	-0.733572	-0.328234	-0.525565
26512		9.424057	-1.150934	-2.753549	-0.026009	-0.044846	-0.050472	-0.595215	0.430420	0.481445	0.278673	-0.733708	-0.328523	-0.525440
26513		9.471759	-1.244855	-2.857403	-0.078384	-0.043632	0.000601	-0.592773	0.443359	0.482910	0.277983	-0.734125	-0.328173	-0.525441
26514		9.433646	-1.149665	-2.933851	-0.124709	-0.041030	0.054397	-0.590088	0.436279	0.474854	0.277316	-0.734776	-0.327323	-0.525414
26515		9.337287	-1.167903	-2.929328	-0.187636	-0.037787	0.101079	-0.587158	0.446045	0.489258	0.276497	-0.735654	-0.325965	-0.525461
26516		9.312657	-1.149850	-2.851179	-0.262255	-0.032578	0.129460	-0.587158	0.435791	0.489258	0.275354	-0.736793	-0.324016	-0.525670
26517		9.368704	-1.074673	-2.799105	-0.335744	-0.021333	0.126430	-0.580566	0.435791	0.495850	0.273743	-0.738035	-0.321728	-0.526175
26518		9.353483	-1.193361	-2.802879	-0.358416	-0.009409	0.098640	-0.584961	0.441406	0.494629	0.271910	-0.739207	-0.319456	-0.526864
26519		9.346527	-1.381281	-2.811457	-0.307387	-0.004005	0.055461	-0.591309	0.436768	0.494141	0.270237	-0.740103	-0.317702	-0.527527
26520		9.290644	-1.218826	-2.883991	-0.197634	-0.008953	0.008820	-0.584229	0.428223	0.493896	0.269000	-0.740637	-0.316740	-0.527989
26521		9.275585	-0.958995	-2.886932	-0.102496	-0.010940	-0.038776	-0.584473	0.428711	0.495605	0.268143	-0.740835	-0.316501	-0.528290
26522		9.323302	-0.839089	-2.837029	-0.031396	-0.018256	-0.074635	-0.587402	0.426758	0.491943	0.267549	-0.740813	-0.316807	-0.528437
26523		9.385781	-0.550615	-2.741316	0.005852	-0.014658	-0.103750	-0.585205	0.430176	0.502686	0.267073	-0.740601	-0.317483	-0.528570
26524		9.460390	-0.257304	-2.637011	-0.010607	-0.006646	-0.130661	-0.581055	0.426514	0.492432	0.266374	-0.740357	-0.318144	-0.528866
26525		9.402907	-0.097516	-2.752807	-0.080349	0.013607	-0.144378	-0.577637	0.429199	0.503906	0.265294	-0.740104	-0.318632	-0.529470
26526		9.369653	-0.146795	-2.798583	-0.178462	0.025067	-0.148667	-0.597412	0.427979	0.502441	0.263599	-0.740047	-0.318593	-0.530419
26527		9.347609	-0.455533	-2.833040	-0.230194	0.035295	-0.152451	-0.590576	0.417236	0.501709	0.261551	-0.740029	-0.318349	-0.531603
26528		9.368749	-0.857678	-2.785065	-0.217180	0.040255	-0.161242	-0.593750	0.414062	0.502686	0.259569	-0.739928	-0.318214	-0.532795
26529		9.391134	-1.127140	-2.921390	-0.160520	0.034603	-0.178019	-0.595459	0.414062	0.503418	0.257842	-0.739681	-0.318445	-0.533838
26530		9.379188	-1.245842	-2.987777	-0.076941	0.026435	-0.181214	-0.589355	0.409180	0.496094	0.256602	-0.739280	-0.319088	-0.534607
26531		9.319350	-1.314805	-3.121676	0.006312	0.015815	-0.194197	-0.601807	0.407227	0.498779	0.255839	-0.738684	-0.320272	-0.535086
26532		9.256389	-1.109088	-3.086116	0.057215	0.000312	-0.193273	-0.597168	0.408203	0.501221	0.255306	-0.738057	-0.321684	-0.535360
26533		9.243129	-0.605531	-3.004164	0.082858	-0.004474	-0.207114	-0.594482	0.407227	0.504150	0.254865	-0.737372	-0.323276	-0.535555
26534		9.374892	-0.260396	-2.804398	0.057808	0.018248	-0.242816	-0.598389	0.400391	0.498291	0.254167	-0.736556	-0.324891	-0.536032
26535		9.341386	-0.361707	-2.693440	0.065000	0.033557	-0.285830	-0.597900	0.408203	0.503662	0.253368	-0.735512	-0.326818	-0.536672
26536		9.367828	-0.718012	-2.891892	0.144021	0.029843	-0.314552	-0.598877	0.398926	0.491211	0.252915	-0.734265	-0.329227	-0.537120
26537		9.321722	-0.950116	-3.126710	0.235358	0.002332	-0.327908	-0.606445	0.403320	0.491699	0.252925	-0.732857	-0.332284	-0.537157
26538		9.386494	-0.889981	-3.225360	0.294629	-0.008600	-0.323040	-0.604980	0.398926	0.491943	0.253275	-0.731384	-0.335583	-0.536948
26539		9.354741	-0.410493	-3.306313	0.316426	-0.020108	-0.302895	-0.610596	0.398193	0.488037	0.253802	-0.729974	-0.338850	-0.536566
26540		9.410838	0.173811	-3.256010	0.254347	-0.020462	-0.282528	-0.615967	0.398682	0.491943	0.254038	-0.728735	-0.341734	-0.536310
26541		9.512784	0.584977	-2.942531	0.095044	-0.005830	-0.248428	-0.608398	0.397461	0.484619	0.253466	-0.727880	-0.343618	-0.536537
26542		9.582161	0.586901	-2.741692	-0.075681	0.000866	-0.200165	-0.609619	0.393555	0.482910	0.252151	-0.727468	-0.344493	-0.537154
26543		9.402572	0.243416	-2.846077	-0.181315	0.001181	-0.160511	-0.620117	0.397217	0.488770	0.250381	-0.727378	-0.344673	-0.537989
26544		9.360626	-0.062328	-2.956822	-0.191277	-0.001363	-0.149198	-0.614502	0.387939	0.485596	0.248565	-0.727365	-0.344711	-0.538823
26545		9.401389	-0.170250	-2.909151	-0.150049	-0.014573	-0.150236	-0.619385	0.385498	0.488281	0.246975	-0.727305	-0.344997	-0.539452
26546		9.465940	0.106122	-2.848427	-0.098758	-0.021686	-0.142472	-0.621826	0.386719	0.493652	0.245692	-0.727196	-0.345465	-0.539884
26547		9.431499	0.491849	-2.765530	-0.064925	-0.013893	-0.142930	-0.625244	0.383301	0.482422	0.244620	-0.726998	-0.346039	-0.540270
26548		9.356690	0.788278	-2.820419	-0.053663	0.014041	-0.169801	-0.618652	0.384766	0.496582	0.243617	-0.726525	-0.346865	-0.540830
26549		9.339271	1.067835	-2.989269	-0.052020	0.038234	-0.193995	-0.621338	0.386963	0.485352	0.242556	-0.725924	-0.347689	-0.541584
26550		9.291732	1.125064	-3.165395	-0.075638	0.052928	-0.197202	-0.626953	0.367920	0.495850	0.241442	-0.725247	-0.348498	-0.542467
26551		9.296578	1.139930	-3.359429	-0.059096	0.042242	-0.172038	-0.625977	0.376221	0.487549	0.240392	-0.724702	-0.349125	-0.543260
26552		9.351940	1.254788	-3.267987	-0.101131	0.028948	-0.133472	-0.622314	0.369629	0.490234	0.239305	-0.724376	-0.349450	-0.543964
26553		9.401396	0.969670	-3.153756	-0.184942	0.021727	-0.097653	-0.622559	0.366699	0.491211	0.237841	-0.724364	-0.349169	-0.544803
26554		9.342922	0.465122	-3.035665	-0.200057	0.023014	-0.080779	-0.622070	0.362305	0.491699	0.236365	-0.724422	-0.348715	-0.545657
26555		9.404682	-0.001581	-2.900069	-0.100887	0.012068	-0.063266	-0.632812	0.374756	0.491455	0.235532	-0.724384	-0.348626	-0.546124
26556		9.483764	-0.106356	-2.968585	0.016761	0.011365	-0.047992	-0.626465	0.366455	0.489258	0.235508	-0.724150	-0.349017	-0.546196
26557		9.426326	0.178082	-2.885631	0.116151	0.018022	-0.037111	-0.631836	0.358643	0.490234	0.236146	-0.723721	-0.349777	-0.546003
26558		9.407656	0.419580	-2.967786	0.147228	0.024995	-0.034268	-0.632568	0.364258	0.490967	0.236939	-0.723222	-0.350591	-0.545798
26559		9.313199	0.745062	-2.978947	0.153717	0.020963	-0.018825	-0.631348	0.371338	0.492432	0.237845	-0.722774	-0.351356	-0.545506
26560		9.397188	0.946579	-2.913279	0.180346	0.015434	-0.021984	-0.629639	0.370850	0.489990	0.238906	-0.722289	-0.352282	-0.545087
26561		9.461123	1.054187	-2.876165	0.197097	0.027066	-0.019342	-0.634277	0.367676	0.487793	0.240115	-0.721721	-0.353249	-0.544682
26562		9.440781	1.079944	-2.819152	0.183376	0.045590	-0.012432	-0.630371	0.371582	0.489502	0.241291	-0.721119	-0.354052	-0.544438
26563		9.436871	0.900039	-2.900896	0.165721	0.035122	0.014060	-0.638428	0.365723	0.482422	0.242467	-0.720683	-0.354637	-0.544113
26564		9.487101	0.725701	-2.931360	0.173646	0.039457	0.049918	-0.631104	0.385254	0.475586	0.243819	-0.720308	-0.355017	-0.543756
26565		9.542351	0.567662	-2.751627	0.149568	0.023126	0.087382	-0.634277	0.380859	0.481689	0.245279	-0.720127	-0.355214	-0.543211
26566		9.464282	0.353463	-2.654087	0.124295	0.013908	0.129730	-0.625732	0.381104	0.486572	0.246682	-0.720194	-0.354985	-0.542637
26567		9.534016	0.191177	-2.586606	0.102064	0.012247	0.163153	-0.634277	0.383301	0.471924	0.248097	-0.720427	-0.354441	-0.542038
26568		9.440584	0.120197	-2.590424	0.098718	0.014087	0.179894	-0.622070	0.382324	0.479492	0.249575	-0.720672	-0.353813	-0.541443
26569		9.400887	0.237192	-2.535960	0.068729	-0.003249	0.194805	-0.629395	0.389893	0.475342	0.250888	-0.721122	-0.352972	-0.540785
26570		9.423194	0.236921	-2.525771	0.024286	-0.019004	0.203831	-0.630615	0.381348	0.480225	0.251931	-0.721748	-0.351921	-0.540150
26571		9.434363	0.306942	-2.544897	0.005804	-0.020833	0.205203	-0.623047	0.393799	0.478271	0.252777	-0.722456	-0.350696	-0.539605
26572		9.415978	0.452271	-2.673270	-0.031243	-0.014250	0.202742	-0.622803	0.396973	0.475830	0.253495	-0.723176	-0.349384	-0.539154
26573		9.397694	0.326752	-2.733271	-0.066046	-0.012559	0.193522	-0.623291	0.399414	0.482910	0.253976	-0.723925	-0.347982	-0.538830
26574		9.342699	0.203681	-2.764740	-0.093678	-0.026770	0.198272	-0.616699	0.393799	0.480225	0.254249	-0.724825	-0.346425	-0.538495
26575		9.351539	0.187563	-2.816192	-0.128274	-0.042732	0.210518	-0.617188	0.391602	0.487305	0.254312	-0.725900	-0.344670	-0.538142
26576		9.382093	0.144255	-2.870693	-0.191182	-0.044502	0.217433	-0.618164	0.400635	0.481689	0.253976	-0.727155	-0.342543	-0.537965
26577		9.406784	0.320064	-2.820033	-0.243343	-0.038053	0.214399	-0.613281	0.399658	0.489258	0.253381	-0.728447	-0.340248	-0.537953
26578		9.392865	0.313064	-2.833170	-0.307745	-0.032805	0.206685	-0.617432	0.397949	0.482910	0.252365	-0.729837	-0.337681	-0.538165
26579		9.275807	0.179444	-2.763930	-0.347082	-0.020267	0.184065	-0.611328	0.392334	0.498047	0.251031	-0.731168	-0.335050	-0.538626
26580		9.344125	0.025794	-2.768376	-0.369501	-0.020260	0.161049	-0.607178	0.399170	0.491943	0.249416	-0.732508	-0.332399	-0.539198
26581		9.407803	-0.262024	-2.856732	-0.377272	-0.011795	0.127140	-0.610352	0.391846	0.495850	0.247703	-0.733688	-0.329988	-0.539864
26582		9.363383	-0.732023	-2.800044	-0.297017	-0.012040	0.095306	-0.609619	0.398193	0.491455	0.246282	-0.734624	-0.328079	-0.540405
26583		9.338511	-1.127511	-2.960820	-0.195488	-0.016427	0.073669	-0.607910	0.389160	0.506104	0.245433	-0.735281	-0.326834	-0.540652
26584		9.363275	-1.148512	-3.034829	-0.049639	-0.018302	0.045087	-0.607422	0.391846	0.500977	0.245268	-0.735613	-0.326331	-0.540579
26585		9.306130	-0.904938	-3.011436	0.052421	-0.017243	0.020534	-0.612549	0.386963	0.497070	0.245650	-0.735647	-0.326471	-0.540275
26586		9.361603	-0.538751	-2.991230	0.104102	-0.017136	0.000115	-0.608154	0.395264	0.500000	0.246207	-0.735526	-0.326923	-0.539912
26587		9.410130	-0.330814	-2.935523	0.136986	-0.010689	-0.023326	-0.608398	0.397705	0.498779	0.246934	-0.735234	-0.327703	-0.539504
26588		9.384333	-0.321292	-2.951977	0.170459	-0.002402	-0.037747	-0.601807	0.395508	0.491699	0.247833	-0.734792	-0.328715	-0.539079
26589		9.399500	-0.213233	-3.050269	0.221537	-0.006451	-0.046058	-0.607910	0.396484	0.505371	0.249020	-0.734224	-0.330047	-0.538491
26590		9.408046	-0.062820	-2.948594	0.251588	-0.001955	-0.042793	-0.606934	0.397949	0.492188	0.250354	-0.733620	-0.331401	-0.537865
26591		9.423188	0.074797	-2.998404	0.203333	-0.007774	-0.018951	-0.616211	0.403564	0.500000	0.251513	-0.733179	-0.332447	-0.537279
26592		9.393564	0.185681	-2.972464	0.122414	-0.010072	0.012942	-0.610596	0.396240	0.483643	0.252276	-0.733025	-0.332893	-0.536855
26593		9.373338	0.211428	-2.919449	0.054996	-0.011061	0.025200	-0.611572	0.398926	0.488525	0.252687	-0.733028	-0.332991	-0.536597
26594		9.388367	0.140830	-2.821669	0.029981	-0.002694	0.029642	-0.607422	0.403564	0.494629	0.252983	-0.733067	-0.332922	-0.536447
26595		9.454864	0.075850	-2.863229	0.005824	0.009417	0.034299	-0.598389	0.402832	0.492432	0.253214	-0.733118	-0.332713	-0.536398
26596		9.478096	-0.029247	-2.824181	0.004192	0.022559	0.043350	-0.609619	0.398438	0.500000	0.253551	-0.733127	-0.332456	-0.536386
26597		9.355160	-0.145828	-2.994369	0.004111	0.020234	0.041874	-0.611572	0.406738	0.493652	0.253774	-0.733181	-0.332099	-0.536427
26598		9.259805	-0.180119	-3.084108	0.029588	0.009403	0.034296	-0.601807	0.409180	0.483643	0.254141	-0.733182	-0.331987	-0.536322
26599		9.350684	-0.090924	-3.049707	0.036302	0.006044	0.027709	-0.597412	0.406006	0.493896	0.254588	-0.733129	-0.332045	-0.536146
26600		9.431178	-0.156284	-2.943699	0.001416	0.010946	0.022435	-0.604736	0.409180	0.485840	0.254785	-0.733140	-0.331931	-0.536108
26601		9.375977	-0.359337	-2.842020	-0.030478	0.042894	0.022478	-0.604492	0.413086	0.489258	0.254876	-0.733061	-0.331614	-0.536369
26602		9.331480	-0.153270	-2.962013	0.005162	0.049887	0.002535	-0.603516	0.399170	0.491455	0.255136	-0.732818	-0.331582	-0.536597
26603		9.265328	0.264971	-3.194670	0.039426	0.034675	-0.029153	-0.605225	0.404541	0.490967	0.255328	-0.732519	-0.331826	-0.536763
26604		9.213624	0.509326	-3.116916	0.049993	0.017825	-0.063410	-0.610107	0.401367	0.485596	0.255415	-0.732167	-0.332396	-0.536849
26605		9.335796	0.576381	-3.042591	-0.018128	0.007842	-0.081742	-0.613037	0.402100	0.494385	0.254943	-0.731957	-0.332763	-0.537133
26606		9.545305	0.576109	-3.011662	-0.106824	0.029896	-0.083741	-0.609131	0.400391	0.491211	0.253967	-0.731845	-0.332678	-0.537801
26607		9.574996	0.294841	-2.744763	-0.202391	0.063727	-0.058089	-0.609131	0.397949	0.501221	0.252647	-0.731840	-0.331971	-0.538865
26608		9.614243	-0.139770	-2.687818	-0.243958	0.074653	-0.015474	-0.610840	0.397705	0.489258	0.251279	-0.732005	-0.330772	-0.540016
26609		9.537568	-0.070092	-2.781722	-0.237422	0.064296	0.044201	-0.606934	0.398438	0.494629	0.250222	-0.732336	-0.329302	-0.540955
26610		9.346041	0.204170	-2.698230	-0.191668	0.055572	0.090478	-0.607178	0.393311	0.496094	0.249654	-0.732735	-0.327798	-0.541591
26611		9.280147	0.065066	-2.866333	-0.177390	0.035983	0.086622	-0.606445	0.405029	0.491455	0.249068	-0.733192	-0.326385	-0.542096
26612		9.245546	-0.328798	-3.164162	-0.175711	0.012951	0.073366	-0.614502	0.395752	0.497314	0.248464	-0.733671	-0.325216	-0.542427
26613		9.369168	-0.650546	-3.178783	-0.109488	-0.004892	0.067048	-0.608887	0.395264	0.491211	0.248079	-0.734115	-0.324299	-0.542551
26614		9.552954	-0.627462	-3.066314	-0.035874	-0.018811	0.079482	-0.610107	0.391602	0.497314	0.248196	-0.734487	-0.323707	-0.542349
26615		9.514723	-0.481404	-2.838394	-0.006079	-0.014304	0.111909	-0.610840	0.389404	0.496582	0.248606	-0.734885	-0.322985	-0.542051
26616		9.404377	-0.423050	-2.703861	0.010767	-0.009792	0.130301	-0.607666	0.407959	0.498047	0.249185	-0.735286	-0.322183	-0.541719
26617		9.342076	-0.360445	-2.729474	0.068131	-0.011587	0.121521	-0.610352	0.402100	0.500244	0.250199	-0.735509	-0.321841	-0.541152
26618		9.270325	-0.017229	-2.723048	0.158876	-0.039401	0.095382	-0.606201	0.399658	0.495361	0.251501	-0.735623	-0.322040	-0.540274
26619		9.301156	0.357537	-2.781029	0.189961	-0.072383	0.057918	-0.607666	0.405029	0.496338	0.252725	-0.735720	-0.322665	-0.539198
26620		9.375045	0.698983	-2.797937	0.131095	-0.079942	0.024020	-0.599121	0.399170	0.500732	0.253422	-0.735879	-0.323258	-0.538298
26621		9.493616	0.982662	-2.766015	-0.014052	-0.064551	-0.016989	-0.606689	0.407959	0.497559	0.253069	-0.736179	-0.323399	-0.537969
26622		9.521071	0.894886	-2.697886	-0.139208	-0.042728	-0.045988	-0.608398	0.402344	0.505371	0.251904	-0.736547	-0.323144	-0.538164
26623		9.489667	0.160715	-2.667491	-0.164977	-0.027913	-0.044349	-0.603027	0.401611	0.506348	0.250583	-0.736929	-0.322678	-0.538538
26624		9.476977	-0.752485	-2.673405	-0.163441	-0.032465	-0.026995	-0.600830	0.397949	0.505859	0.249371	-0.737362	-0.322162	-0.538816
26625		9.458930	-1.240005	-2.843818	-0.127827	-0.046785	0.003519	-0.598877	0.393799	0.502197	0.248476	-0.737866	-0.321647	-0.538848
26626		9.468912	-1.464988	-2.956473	-0.013546	-0.045159	0.020769	-0.601074	0.391602	0.506836	0.248358	-0.738169	-0.321528	-0.538558
26627		9.486331	-1.448733	-2.830555	0.087656	-0.045145	0.053062	-0.598877	0.402100	0.510010	0.248973	-0.738365	-0.321620	-0.537950
26628		9.503356	-1.203434	-2.902613	0.153927	-0.053352	0.070616	-0.596924	0.394043	0.504639	0.250115	-0.738489	-0.321987	-0.537030
26629		9.415052	-0.975007	-2.883755	0.191642	-0.037046	0.074265	-0.593018	0.401123	0.511475	0.251494	-0.738483	-0.322404	-0.536143
26630		9.408435	-0.769864	-2.796942	0.201212	-0.038476	0.080703	-0.595947	0.405518	0.500488	0.252991	-0.738477	-0.322859	-0.535172
26631		9.391856	-0.257887	-2.735692	0.150245	-0.049918	0.090553	-0.593506	0.412109	0.504150	0.254195	-0.738637	-0.323065	-0.534255
26632		9.379049	0.044233	-2.767088	0.091982	-0.042714	0.082027	-0.604004	0.406494	0.500977	0.255050	-0.738860	-0.323078	-0.533531
26633		9.323390	0.072134	-2.773670	0.031219	-0.026787	0.066346	-0.593018	0.408447	0.502686	0.255407	-0.739124	-0.322773	-0.533180
26634		9.217781	0.040083	-2.856796	-0.019329	-0.021342	0.033283	-0.593994	0.404053	0.505371	0.255375	-0.739369	-0.322497	-0.533022
26635		9.199866	-0.078200	-2.846965	-0.041372	-0.033077	0.002211	-0.600342	0.405518	0.510986	0.254998	-0.739646	-0.322294	-0.532942
26636		9.276701	-0.262303	-2.845451	-0.075639	-0.039810	-0.018924	-0.599121	0.406006	0.510254	0.254270	-0.739980	-0.322047	-0.532976
26637		9.360072	-0.314579	-2.899069	-0.085064	-0.027619	-0.029181	-0.591553	0.408203	0.513672	0.253486	-0.740244	-0.321815	-0.533121
26638		9.406364	-0.190863	-2.965398	-0.088108	-0.001243	-0.037482	-0.597412	0.408691	0.508789	0.252763	-0.740368	-0.321614	-0.533414
26639		9.373303	-0.065928	-3.007680	-0.100757	0.021221	-0.050872	-0.603516	0.401611	0.511963	0.251959	-0.740373	-0.321393	-0.533921
26640		9.264810	-0.155977	-2.979676	-0.116645	0.025687	-0.067215	-0.605713	0.400635	0.504639	0.250935	-0.740366	-0.321121	-0.534575
26641		9.334842	-0.246973	-2.878237	-0.114650	0.017381	-0.084756	-0.585693	0.403564	0.508789	0.249838	-0.740328	-0.321010	-0.535208
26642		9.395280	-0.267585	-2.855224	-0.106814	0.018669	-0.103861	-0.600586	0.398438	0.510742	0.248809	-0.740199	-0.321158	-0.535776
26643		9.506016	-0.343504	-2.850504	-0.115112	0.022380	-0.118613	-0.593994	0.401123	0.505615	0.247596	-0.740049	-0.321264	-0.536482
26644		9.339427	-0.384113	-2.844369	-0.142431	0.026844	-0.114331	-0.601318	0.396240	0.510742	0.246313	-0.739920	-0.321294	-0.537232
26645		9.229122	-0.392346	-2.823643	-0.151030	0.009636	-0.112549	-0.600586	0.389648	0.511719	0.244889	-0.739907	-0.321249	-0.537927
26646		9.319381	-0.285570	-2.754601	-0.148400	0.003646	-0.127766	-0.601074	0.385254	0.506592	0.243381	-0.739878	-0.321303	-0.538619
26647		9.458386	-0.260423	-2.670018	-0.143887	0.008938	-0.158040	-0.602295	0.391113	0.516357	0.241786	-0.739722	-0.321566	-0.539394
26648		9.516473	-0.458316	-2.644366	-0.138122	0.036728	-0.183106	-0.601562	0.381836	0.516357	0.240208	-0.739368	-0.321966	-0.540346
26649		9.475942	-0.679319	-2.728385	-0.097141	0.057044	-0.199747	-0.604980	0.388916	0.517334	0.238840	-0.738798	-0.322586	-0.541360
26650		9.467582	-0.579348	-2.850365	-0.023491	0.042464	-0.191937	-0.606201	0.377441	0.514160	0.237960	-0.738157	-0.323562	-0.542040
26651		9.460990	-0.102574	-2.977955	0.053542	0.024578	-0.179507	-0.610352	0.380859	0.510010	0.237524	-0.737481	-0.324804	-0.542408
26652		9.405175	-0.007440	-2.976228	0.056296	0.017229	-0.174812	-0.606934	0.380859	0.512939	0.237127	-0.736832	-0.326071	-0.542704
26653		9.314153	-0.482715	-2.885743	0.039198	0.020839	-0.184051	-0.609375	0.370850	0.505615	0.236609	-0.736176	-0.327324	-0.543066
26654		9.477134	-0.921135	-2.984504	0.067686	0.017059	-0.192995	-0.610840	0.380859	0.509766	0.236184	-0.735451	-0.328739	-0.543378
26655		9.515961	-0.986704	-3.077916	0.160354	0.016663	-0.202583	-0.615723	0.375244	0.510498	0.236325	-0.734513	-0.330676	-0.543410
26656		9.447591	-0.531842	-3.087844	0.317530	0.012019	-0.200570	-0.606201	0.382080	0.505615	0.237382	-0.733300	-0.333269	-0.543004
26657		9.329319	0.061277	-3.081590	0.382953	0.006776	-0.198089	-0.617432	0.376953	0.500244	0.238910	-0.731957	-0.336239	-0.542313
26658		9.258245	0.237130	-3.024319	0.274818	0.015272	-0.219968	-0.616943	0.376221	0.494873	0.239639	-0.730732	-0.338765	-0.542072
26659		9.392232	-0.099256	-3.052513	0.119732	0.018294	-0.207715	-0.609863	0.380859	0.496338	0.239497	-0.729826	-0.340524	-0.542254
26660		9.461841	-0.347698	-3.242815	0.084394	0.012001	-0.184843	-0.622803	0.378662	0.500732	0.239282	-0.729069	-0.342059	-0.542401
26661		9.341425	-0.390243	-3.366752	0.158041	-0.001990	-0.182605	-0.614746	0.379639	0.502441	0.239423	-0.728255	-0.343865	-0.542290
26662		9.352016	-0.095649	-3.418218	0.208476	-0.005714	-0.173660	-0.617188	0.372070	0.493164	0.239937	-0.727373	-0.345896	-0.541954
26663		9.208345	0.338845	-3.173647	0.198476	-0.009628	-0.157221	-0.621582	0.378906	0.493164	0.240422	-0.726572	-0.347757	-0.541623
26664		9.326659	0.508601	-3.072955	0.128956	-0.030483	-0.161592	-0.615967	0.373535	0.492676	0.240427	-0.725982	-0.349395	-0.541358
26665		9.323076	0.443474	-3.197094	0.064209	-0.027826	-0.151013	-0.623535	0.368896	0.486084	0.240093	-0.725540	-0.350671	-0.541273
26666		9.349397	0.385100	-3.285212	0.024000	-0.027202	-0.136499	-0.631836	0.372314	0.489502	0.239546	-0.725221	-0.351634	-0.541319
26667		9.421162	0.585553	-3.317396	0.024614	-0.029496	-0.106300	-0.630615	0.367188	0.492432	0.239122	-0.725002	-0.352408	-0.541296
26668		9.346665	0.860333	-3.131404	0.013669	-0.023861	-0.085723	-0.624756	0.378174	0.492432	0.238719	-0.724852	-0.352972	-0.541307
26669		9.375568	0.975940	-3.014650	-0.024952	-0.018886	-0.073418	-0.628174	0.372070	0.487793	0.238245	-0.724761	-0.353387	-0.541368
26670		9.306370	1.186136	-3.044774	-0.065783	-0.014948	-0.063775	-0.625244	0.375244	0.495361	0.237547	-0.724765	-0.353513	-0.541586
26671		9.252125	1.214567	-2.991329	-0.096843	-0.007768	-0.073687	-0.626953	0.365723	0.490723	0.236664	-0.724769	-0.353576	-0.541927
26672		9.236576	1.132591	-3.082910	-0.124551	-0.005921	-0.065962	-0.625977	0.369385	0.489258	0.235608	-0.724850	-0.353412	-0.542384
26673		9.290733	0.885155	-3.129423	-0.133914	-0.003850	-0.062658	-0.630615	0.365967	0.491699	0.234558	-0.724932	-0.353232	-0.542848
26674		9.349119	0.607749	-3.173884	-0.104619	0.005707	-0.056280	-0.632080	0.368652	0.497314	0.233711	-0.724942	-0.353088	-0.543292
26675		9.349813	0.546891	-3.153433	-0.050696	0.011746	-0.039320	-0.633301	0.364502	0.502197	0.233299	-0.724869	-0.353092	-0.543564
26676		9.366091	0.638415	-3.227836	0.010837	0.018476	-0.037923	-0.633789	0.376465	0.498779	0.233252	-0.724667	-0.353317	-0.543708
26677		9.351456	0.584516	-3.354317	0.100436	0.025536	-0.035519	-0.628174	0.370117	0.494141	0.233860	-0.724230	-0.354014	-0.543575
26678		9.368253	0.742220	-3.223690	0.156523	0.019599	-0.020739	-0.626221	0.371582	0.491455	0.234843	-0.723757	-0.354875	-0.543220
26679		9.313560	1.029764	-3.158302	0.190070	0.011676	-0.001178	-0.629395	0.363525	0.487549	0.236108	-0.723303	-0.355803	-0.542669
26680		9.300460	1.042889	-3.031514	0.195183	0.005070	0.019485	-0.632812	0.364014	0.483398	0.237396	-0.722957	-0.356545	-0.542081
26681		9.484221	1.057055	-2.800660	0.168550	0.015316	0.040251	-0.635498	0.376709	0.493164	0.238624	-0.722685	-0.356988	-0.541613
26682		9.457274	1.047795	-2.696862	0.124614	0.034779	0.070493	-0.632324	0.370605	0.494385	0.239838	-0.722484	-0.357084	-0.541282
26683		9.459612	0.948531	-2.638601	0.057523	0.047766	0.073572	-0.628418	0.371338	0.493408	0.240656	-0.722388	-0.356785	-0.541244
26684		9.415660	0.616956	-2.635075	0.020139	0.048913	0.093220	-0.626709	0.376465	0.489990	0.241355	-0.722415	-0.356217	-0.541271
26685		9.442535	0.415907	-2.728956	0.015107	0.038389	0.103624	-0.629395	0.378418	0.480713	0.242077	-0.722512	-0.355627	-0.541207
26686		9.464125	0.117457	-2.875910	0.032467	0.028702	0.126249	-0.624756	0.379639	0.485596	0.242971	-0.722680	-0.354981	-0.541006
26687		9.479908	-0.056997	-2.909101	0.082798	0.035862	0.144856	-0.631592	0.378174	0.485352	0.244287	-0.722766	-0.354460	-0.540639
26688		9.390612	0.055480	-2.878547	0.126957	0.035887	0.152052	-0.629395	0.382080	0.489746	0.245837	-0.722807	-0.354011	-0.540176
26689		9.296828	0.138509	-2.834208	0.134733	0.022934	0.148086	-0.625488	0.386719	0.480225	0.247391	-0.722875	-0.353669	-0.539599
26690		9.363167	0.183991	-2.759776	0.104583	0.011627	0.137499	-0.620361	0.383057	0.486572	0.248715	-0.723005	-0.353312	-0.539050
26691		9.412301	0.345046	-2.857591	0.071488	0.012279	0.136763	-0.625244	0.384766	0.477051	0.249813	-0.723213	-0.352790	-0.538605
26692		9.428463	0.381205	-2.866157	0.025886	0.022691	0.129898	-0.628174	0.388428	0.484619	0.250607	-0.723453	-0.352034	-0.538409
26693		9.383221	0.298008	-2.854175	0.003743	0.026086	0.122233	-0.621094	0.385742	0.482178	0.251237	-0.723706	-0.351217	-0.538308
26694		9.350334	0.258701	-2.732700	0.011133	0.022937	0.119389	-0.620605	0.383789	0.482178	0.251895	-0.723948	-0.350466	-0.538166
26695		9.438202	0.168206	-2.654559	-0.020255	0.015585	0.108147	-0.619873	0.391602	0.487305	0.252267	-0.724265	-0.349628	-0.538110
26696		9.490884	0.009958	-2.785357	-0.044313	0.011321	0.106160	-0.621338	0.393555	0.486816	0.252519	-0.724629	-0.348764	-0.538062
26697		9.464910	-0.166749	-2.756570	-0.048802	0.017143	0.106222	-0.616943	0.401123	0.487793	0.252760	-0.724975	-0.347862	-0.538067
26698		9.508310	-0.289655	-2.824357	-0.008119	0.028731	0.106200	-0.619873	0.396240	0.490234	0.253346	-0.725158	-0.347199	-0.537973
26699		9.431251	-0.502677	-2.925529	0.081566	0.048323	0.097006	-0.622070	0.389404	0.486816	0.254430	-0.725061	-0.346882	-0.537796
26700		9.312950	-0.630124	-2.726649	0.149165	0.040988	0.090267	-0.614990	0.398193	0.484131	0.255797	-0.724861	-0.346832	-0.537450
26701		9.291763	-0.273772	-2.637408	0.150067	-0.002765	0.092478	-0.612549	0.393799	0.483398	0.257135	-0.724827	-0.346966	-0.536770
26702		9.372443	0.016914	-2.677592	0.155398	-0.030371	0.101660	-0.621826	0.397461	0.483154	0.258428	-0.724947	-0.347084	-0.535911
26703		9.433320	0.089046	-2.805675	0.110664	-0.030809	0.101275	-0.618896	0.403076	0.476807	0.259406	-0.725176	-0.346946	-0.535216
26704		9.454825	0.182053	-2.872691	0.039479	-0.016996	0.102878	-0.618408	0.399170	0.483887	0.260041	-0.725481	-0.346494	-0.534787
26705		9.435344	0.053472	-2.931112	-0.006111	-0.016310	0.105013	-0.609619	0.399414	0.475342	0.260369	-0.725910	-0.345782	-0.534507
26706		9.282350	-0.156710	-2.980787	0.003873	-0.028714	0.108196	-0.609863	0.417480	0.482422	0.260778	-0.726359	-0.345171	-0.534092
26707		9.291295	-0.233140	-3.129744	-0.006290	-0.028097	0.097939	-0.616699	0.417236	0.478027	0.261178	-0.726764	-0.344690	-0.533656
26708		9.281088	-0.254952	-2.947730	-0.007768	-0.016202	0.079311	-0.611816	0.413818	0.483887	0.261480	-0.727075	-0.344233	-0.533379
26709		9.363808	-0.405482	-2.800196	-0.022365	-0.002801	0.070461	-0.616455	0.415771	0.476562	0.261682	-0.727342	-0.343732	-0.533239
26710		9.364327	-0.429029	-2.798593	0.008260	0.002271	0.049444	-0.615479	0.406006	0.475586	0.261979	-0.727458	-0.343457	-0.533112
26711		9.309478	-0.386902	-2.974672	0.064607	-0.004700	0.026600	-0.614258	0.406250	0.482422	0.262429	-0.727443	-0.343509	-0.532878
26712		9.311166	-0.173468	-3.111982	0.134426	-0.004723	-0.001411	-0.616211	0.412598	0.483887	0.263176	-0.727200	-0.344046	-0.532495
26713		9.374519	0.137324	-2.977929	0.199235	-0.013870	-0.039744	-0.614014	0.410889	0.480469	0.264143	-0.726736	-0.345150	-0.531935
26714		9.455841	0.330209	-2.876150	0.163495	-0.005694	-0.038607	-0.608887	0.411621	0.481201	0.264916	-0.726317	-0.346065	-0.531528
26715		9.435658	0.252618	-2.882659	0.041511	0.006240	-0.004222	-0.603271	0.415527	0.476318	0.265159	-0.726207	-0.346237	-0.531446
26716		9.501611	-0.032332	-2.693799	-0.071602	0.030761	0.038020	-0.615479	0.419189	0.483398	0.265029	-0.726337	-0.345661	-0.531708
26717		9.539075	-0.206770	-2.651619	-0.202180	0.038680	0.087613	-0.611572	0.416016	0.480469	0.264310	-0.726879	-0.344135	-0.532314
26718		9.451919	-0.271387	-2.713284	-0.263203	0.051809	0.124602	-0.613525	0.409424	0.481201	0.263427	-0.727596	-0.342091	-0.533089
26719		9.390711	-0.419067	-2.856391	-0.244240	0.044949	0.127921	-0.616699	0.420410	0.477295	0.262606	-0.728324	-0.340067	-0.533795
26720		9.375788	-0.351038	-2.954407	-0.168927	0.028500	0.101847	-0.612549	0.422852	0.478516	0.262138	-0.728856	-0.338632	-0.534212
26721		9.354666	-0.091232	-3.054582	-0.088987	0.016443	0.082804	-0.614746	0.412109	0.489746	0.262069	-0.729200	-0.337734	-0.534344
26722		9.413177	0.035390	-3.060977	-0.026378	0.011158	0.063293	-0.612549	0.413330	0.484619	0.262189	-0.729417	-0.337150	-0.534357
26723		9.405086	0.007088	-3.098330	-0.058356	0.003330	0.077886	-0.606689	0.413086	0.482178	0.262176	-0.729769	-0.336371	-0.534374
26724		9.457924	-0.168006	-2.982873	-0.070940	0.012149	0.131271	-0.605225	0.420654	0.480225	0.262374	-0.730248	-0.335223	-0.534344
26725		9.387086	-0.062170	-2.862091	-0.085942	0.010709	0.188365	-0.607178	0.420898	0.479980	0.262775	-0.730905	-0.333713	-0.534193
26726		9.354191	0.061481	-2.806429	-0.137588	0.006484	0.236919	-0.604004	0.427002	0.481934	0.263044	-0.731833	-0.331660	-0.534069
26727		9.542835	0.262178	-2.756758	-0.214034	0.011462	0.291410	-0.601807	0.421875	0.486572	0.263137	-0.733039	-0.328965	-0.534036
26728		9.608376	0.284268	-2.751397	-0.309447	0.038776	0.351381	-0.602051	0.416992	0.493896	0.262947	-0.734506	-0.325373	-0.534316
26729		9.455904	0.051748	-2.826552	-0.393888	0.054892	0.395079	-0.592285	0.429932	0.485107	0.262420	-0.736213	-0.321038	-0.534847
26730		9.240007	-0.445985	-3.079439	-0.434651	0.048190	0.416325	-0.598877	0.430664	0.485107	0.261833	-0.738030	-0.316534	-0.535314
26731		9.190643	-0.898854	-3.235131	-0.371529	0.027895	0.412817	-0.591553	0.417236	0.491943	0.261514	-0.739785	-0.312309	-0.535529
26732		9.244354	-1.191988	-3.202248	-0.232207	-0.014023	0.408524	-0.595459	0.420898	0.496338	0.261849	-0.741431	-0.308743	-0.535158
26733		9.308304	-1.368248	-3.068139	-0.097519	-0.028349	0.407282	-0.586914	0.427979	0.498291	0.262944	-0.742840	-0.305777	-0.534368
26734		9.351960	-1.343804	-2.890860	-0.031964	-0.038001	0.425530	-0.593262	0.429199	0.501465	0.264552	-0.744170	-0.303075	-0.533263
26735		9.358157	-1.114121	-2.855717	0.010760	-0.027688	0.435223	-0.588623	0.437988	0.495361	0.266422	-0.745396	-0.300388	-0.532139
26736		9.296545	-0.975369	-2.839725	0.076716	-0.036526	0.426213	-0.576172	0.446777	0.505859	0.268673	-0.746465	-0.298105	-0.530790
26737		9.147987	-0.776016	-2.852266	0.124960	-0.074619	0.393695	-0.576416	0.449219	0.489014	0.271046	-0.747495	-0.296407	-0.529083
26738		9.207685	-1.009873	-2.942863	0.192244	-0.093062	0.349147	-0.578125	0.451660	0.495605	0.273569	-0.748329	-0.295282	-0.527232
26739		9.429988	-1.441624	-2.875126	0.285237	-0.072092	0.298879	-0.569336	0.455322	0.493896	0.276453	-0.748744	-0.294773	-0.525418
26740		9.389146	-1.318076	-2.830513	0.353268	-0.066889	0.247472	-0.566650	0.463867	0.487305	0.279570	-0.748839	-0.294899	-0.523561
26741		9.435310	-1.146806	-2.756632	0.418167	-0.071277	0.208431	-0.565674	0.463867	0.492432	0.282929	-0.748683	-0.295585	-0.521588
26742		9.365910	-1.035202	-2.800826	0.429272	-0.073259	0.173976	-0.566650	0.469727	0.488281	0.286156	-0.748434	-0.296483	-0.519673
26743		9.356075	-0.904186	-2.830963	0.354743	-0.073330	0.148459	-0.561279	0.481201	0.486084	0.288794	-0.748290	-0.297201	-0.518007
26744		9.356112	-0.605233	-2.880759	0.263746	-0.064019	0.117994	-0.557373	0.482910	0.480713	0.290811	-0.748226	-0.297763	-0.516647
26745		9.502137	-0.401313	-2.743831	0.141690	-0.051177	0.082341	-0.561035	0.477539	0.483643	0.291954	-0.748305	-0.298002	-0.515749
26746		9.575152	-0.452256	-2.646936	0.031955	-0.030596	0.045360	-0.563721	0.480957	0.477539	0.292235	-0.748494	-0.297866	-0.515394
26747		9.463597	-0.755376	-2.605180	-0.034413	-0.029474	0.012105	-0.560547	0.483887	0.485840	0.291969	-0.748747	-0.297660	-0.515296
26748		9.459208	-1.191071	-2.823782	-0.051918	-0.026300	-0.008680	-0.568359	0.483643	0.490967	0.291533	-0.748980	-0.297525	-0.515284
26749		9.376582	-1.437068	-2.858600	-0.025355	-0.024460	-0.015924	-0.551758	0.479980	0.485107	0.291190	-0.749137	-0.297486	-0.515271
26750		9.162596	-1.417874	-2.821219	-0.022479	-0.021151	-0.003276	-0.560059	0.487305	0.483643	0.291003	-0.749281	-0.297468	-0.515177
26751		9.073633	-1.409093	-2.793297	-0.070929	-0.019284	0.028124	-0.554199	0.482178	0.487061	0.290652	-0.749607	-0.297041	-0.515148
26752		9.198961	-1.380558	-2.726531	-0.163576	-0.016157	0.065561	-0.555664	0.480469	0.487549	0.289889	-0.750241	-0.295970	-0.515271
26753		9.241235	-1.220242	-2.694358	-0.239356	-0.001743	0.098684	-0.551025	0.474121	0.486328	0.288814	-0.751078	-0.294314	-0.515603
26754		9.211055	-1.189104	-2.652010	-0.302187	0.013512	0.121663	-0.559326	0.473633	0.488770	0.287478	-0.752052	-0.292204	-0.516130
26755		9.271148	-1.297419	-2.759696	-0.345629	0.022131	0.144017	-0.552246	0.482178	0.495605	0.285942	-0.753149	-0.289695	-0.516798
26756		9.328258	-1.449725	-2.863183	-0.356341	0.039465	0.153537	-0.556396	0.475586	0.487061	0.284494	-0.754198	-0.287121	-0.517504
26757		9.283533	-1.693231	-2.912358	-0.322643	0.052945	0.140585	-0.561523	0.473145	0.508545	0.283199	-0.755064	-0.284712	-0.518281
26758		9.180813	-1.711852	-2.972469	-0.255762	0.043025	0.121535	-0.554688	0.466064	0.502197	0.282148	-0.755805	-0.282631	-0.518914
26759		9.250153	-1.647929	-2.973045	-0.192066	0.035450	0.084784	-0.555908	0.476074	0.501953	0.281337	-0.756326	-0.281100	-0.519425
26760		9.226996	-1.405943	-2.894197	-0.164793	0.036748	0.041986	-0.557373	0.465332	0.498291	0.280563	-0.756660	-0.280014	-0.519945
26761		9.389828	-1.193805	-2.920906	-0.149852	0.046931	-0.009041	-0.555664	0.471191	0.507080	0.279642	-0.756799	-0.279244	-0.520652
26762		9.360538	-1.178565	-2.918373	-0.161501	0.059379	-0.061261	-0.547607	0.481445	0.501221	0.278476	-0.756792	-0.278744	-0.521554
26763		9.457619	-1.325176	-2.648052	-0.112118	0.072390	-0.104263	-0.557861	0.460938	0.498047	0.277576	-0.756479	-0.278841	-0.522435
26764		9.472991	-1.491443	-2.577477	-0.014329	0.081583	-0.137510	-0.561279	0.460693	0.505859	0.277048	-0.755845	-0.279413	-0.523328
26765		9.384204	-1.430944	-2.799047	0.040717	0.076515	-0.184615	-0.562012	0.461182	0.499512	0.276628	-0.755009	-0.280496	-0.524176
26766		9.373352	-1.107107	-3.052237	0.091345	0.065385	-0.249687	-0.558838	0.460449	0.501953	0.276244	-0.753936	-0.282277	-0.524966
26767		9.359991	-0.789377	-3.083048	0.107199	0.045916	-0.324489	-0.560547	0.460205	0.503174	0.275607	-0.752733	-0.284657	-0.525742
26768		9.328803	-0.799594	-3.127446	0.124496	0.027592	-0.394297	-0.565186	0.457520	0.498291	0.274733	-0.751400	-0.287595	-0.526507
26769		9.308584	-0.885030	-3.107826	0.163687	0.007864	-0.464814	-0.569336	0.451416	0.490723	0.273746	-0.749876	-0.291199	-0.527211
26770		9.307194	-0.754584	-3.064922	0.193953	-0.011986	-0.535520	-0.575195	0.447266	0.502197	0.272584	-0.748175	-0.295429	-0.527876
26771		9.346678	-0.612712	-2.980559	0.244024	-0.011716	-0.608159	-0.577881	0.449707	0.487061	0.271362	-0.746193	-0.300247	-0.528593
26772		9.293705	-0.505491	-2.914641	0.271264	-0.016633	-0.662988	-0.574219	0.443115	0.496582	0.270121	-0.743967	-0.305641	-0.529274
26773		9.248624	-0.519083	-2.797986	0.239808	-0.013284	-0.707862	-0.588867	0.445557	0.484131	0.268482	-0.741679	-0.311121	-0.530125
26774		9.268373	-0.640101	-2.632269	0.221213	-0.016001	-0.720163	-0.589111	0.439453	0.485596	0.266677	-0.739355	-0.316643	-0.531013
26775		9.297142	-0.657392	-2.625903	0.210562	-0.007909	-0.689378	-0.586670	0.429688	0.484131	0.264965	-0.737075	-0.321899	-0.531878
