// Start Time: Unknown
// Update Rate: 60.0Hz
// Filter Profile: human (46.1)
// Firmware Version: 4.6.0
PacketCounter	SampleTimeFine	Acc_X	Acc_Y	Acc_Z	Gyr_X	Gyr_Y	Gyr_Z	Mag_X	Mag_Y	Mag_Z	Quat_q0	Quat_q1	Quat_q2	Quat_q3
18880		9.487100	-0.148148	-2.587789	0.026960	-0.001704	-0.008145	-0.838379	-0.213379	-0.102051	0.583365	0.219032	-0.762168	0.175528
18881		9.499539	-0.138150	-2.539946	0.033289	-0.003035	-0.008070	-0.842773	-0.207764	-0.107910	0.583291	0.219261	-0.762122	0.175689
18882		9.556630	-0.044686	-2.476404	0.034763	0.000588	-0.007269	-0.844971	-0.203613	-0.106445	0.583242	0.219475	-0.762055	0.175876
18883		9.504029	0.007926	-2.527074	0.024801	0.001551	-0.004970	-0.842773	-0.208984	-0.097656	0.583215	0.219626	-0.762001	0.176012
18884		9.498529	-0.090161	-2.496169	0.015577	-0.000405	-0.000146	-0.843262	-0.209961	-0.110840	0.583187	0.219706	-0.761977	0.176105
18885		9.511926	-0.110353	-2.513909	0.016798	-0.005726	0.001507	-0.843262	-0.207520	-0.111084	0.583122	0.219790	-0.761980	0.176204
18886		9.454017	-0.170783	-2.567464	0.029192	-0.005293	-0.002895	-0.841064	-0.210449	-0.098877	0.583044	0.219962	-0.761953	0.176361
18887		9.486614	-0.219844	-2.513464	0.038194	-0.009868	-0.003809	-0.838135	-0.210449	-0.108887	0.582920	0.220188	-0.761936	0.176564
18888		9.511227	-0.180698	-2.440608	0.037201	-0.009876	-0.008183	-0.844971	-0.210938	-0.109131	0.582802	0.220433	-0.761913	0.176745
18889		9.511315	-0.185342	-2.485701	0.026214	-0.009617	-0.014082	-0.841064	-0.207520	-0.093994	0.582721	0.220658	-0.761890	0.176834
18890		9.497762	-0.140472	-2.546458	0.012819	-0.009203	-0.014436	-0.835938	-0.210693	-0.100586	0.582668	0.220815	-0.761883	0.176841
18891		9.473139	-0.231863	-2.610633	0.008175	-0.006148	-0.017979	-0.840820	-0.212158	-0.101318	0.582649	0.220967	-0.761861	0.176809
18892		9.488292	-0.351408	-2.660784	0.035164	-0.005255	-0.027304	-0.848877	-0.206543	-0.103516	0.582590	0.221303	-0.761785	0.176910
18893		9.442988	-0.359499	-2.709497	0.077019	-0.003542	-0.038544	-0.840088	-0.208740	-0.106201	0.582468	0.221898	-0.761628	0.177241
18894		9.472374	-0.208513	-2.579687	0.103801	-0.005546	-0.049727	-0.849365	-0.211670	-0.103516	0.582281	0.222689	-0.761435	0.177696
18895		9.533018	0.012300	-2.428819	0.094356	-0.001991	-0.046412	-0.845459	-0.208008	-0.107910	0.582121	0.223399	-0.761250	0.178123
18896		9.511922	0.122620	-2.491619	0.037123	-0.001136	-0.036989	-0.843018	-0.205811	-0.102295	0.582078	0.223777	-0.761149	0.178218
18897		9.464827	-0.133711	-2.583108	0.016663	-0.001845	-0.033392	-0.838867	-0.214111	-0.099609	0.582075	0.224055	-0.761078	0.178182
18898		9.512319	-0.188293	-2.654392	0.053976	-0.003348	-0.037042	-0.840576	-0.218750	-0.105957	0.581992	0.224550	-0.760953	0.178361
18899		9.494027	0.050167	-2.586208	0.066429	-0.006307	-0.039904	-0.836426	-0.214600	-0.111084	0.581864	0.225121	-0.760827	0.178600
18900		9.506928	0.039469	-2.560652	0.034769	-0.005239	-0.029502	-0.840820	-0.217529	-0.100830	0.581799	0.225478	-0.760754	0.178668
18901		9.544580	-0.177714	-2.656568	0.038928	-0.009837	-0.031573	-0.839844	-0.220703	-0.104248	0.581688	0.225891	-0.760700	0.178742
18902		9.494836	-0.028333	-2.588380	0.055784	-0.007037	-0.029757	-0.834961	-0.211182	-0.103516	0.581556	0.226368	-0.760612	0.178939
18903		9.555939	0.147053	-2.537394	0.045808	-0.008683	-0.026274	-0.844971	-0.214111	-0.106445	0.581435	0.226768	-0.760553	0.179080
18904		9.493062	-0.026481	-2.438223	0.027306	-0.010926	-0.017348	-0.844482	-0.221680	-0.109619	0.581323	0.227031	-0.760548	0.179128
18905		9.473232	-0.049285	-2.402572	0.033182	-0.011524	-0.015636	-0.843506	-0.225098	-0.106689	0.581214	0.227328	-0.760522	0.179215
18906		9.510142	0.050521	-2.436363	-0.013211	-0.010571	-0.012925	-0.840820	-0.216309	-0.103516	0.581206	0.227394	-0.760554	0.179024
18907		9.451597	-0.224491	-2.619355	-0.043718	-0.011990	-0.010422	-0.843018	-0.217529	-0.103027	0.581253	0.227284	-0.760639	0.178647
18908		9.445021	-0.268361	-2.546975	-0.016141	-0.020109	-0.021734	-0.847412	-0.213379	-0.101562	0.581198	0.227384	-0.760712	0.178387
18909		9.471392	-0.051817	-2.444681	-0.015632	-0.024226	-0.021807	-0.840820	-0.219238	-0.102051	0.581102	0.227466	-0.760818	0.178147
18910		9.520641	0.018854	-2.333575	-0.039767	-0.024520	-0.016182	-0.846680	-0.221436	-0.099365	0.581061	0.227415	-0.760952	0.177772
18911		9.508367	-0.036994	-2.428724	-0.075588	-0.029615	-0.011230	-0.841064	-0.224609	-0.104004	0.581055	0.227176	-0.761165	0.177181
18912		9.448489	-0.029392	-2.508017	-0.081188	-0.029345	-0.013764	-0.839111	-0.218262	-0.103516	0.581098	0.226933	-0.761355	0.176537
18913		9.468097	0.206552	-2.505947	-0.111421	-0.020263	-0.008706	-0.839600	-0.216553	-0.102295	0.581244	0.226474	-0.761561	0.175753
18914		9.493843	0.198989	-2.521491	-0.173718	-0.020170	0.000868	-0.835938	-0.217529	-0.098633	0.581493	0.225661	-0.761876	0.174608
18915		9.480306	0.175395	-2.551699	-0.197497	-0.040317	0.019624	-0.842285	-0.216553	-0.108887	0.581618	0.224667	-0.762363	0.173342
18916		9.533283	0.102288	-2.725614	-0.222014	-0.045862	0.038831	-0.839111	-0.220459	-0.102051	0.581774	0.223427	-0.762912	0.172001
18917		9.476100	-0.052724	-2.773749	-0.186053	-0.040381	0.046109	-0.843262	-0.214600	-0.106201	0.581846	0.222347	-0.763420	0.170901
18918		9.484915	0.044971	-2.732465	-0.156403	-0.047236	0.055276	-0.846191	-0.211426	-0.100586	0.581806	0.221330	-0.763936	0.170050
18919		9.571863	0.186150	-2.729046	-0.175681	-0.033002	0.069023	-0.835693	-0.207520	-0.093994	0.581830	0.220109	-0.764466	0.169169
18920		9.487372	-0.238566	-2.679893	-0.175392	-0.022933	0.063587	-0.836670	-0.208984	-0.099609	0.581871	0.218909	-0.764977	0.168269
18921		9.468295	-0.337785	-2.811869	-0.120287	-0.023200	0.053273	-0.836914	-0.212646	-0.103516	0.581853	0.218037	-0.765370	0.167681
18922		9.491006	-0.219783	-2.685641	-0.082970	-0.022287	0.043313	-0.848145	-0.207031	-0.101807	0.581801	0.217418	-0.765671	0.167287
18923		9.494449	-0.101860	-2.597880	-0.061931	-0.018272	0.035287	-0.846191	-0.207520	-0.101074	0.581723	0.216910	-0.765930	0.167031
18924		9.518355	-0.017018	-2.579885	-0.052934	-0.017866	0.036234	-0.842529	-0.210693	-0.103516	0.581628	0.216443	-0.766177	0.166836
18925		9.517085	0.008574	-2.614942	-0.047749	-0.016871	0.044232	-0.841553	-0.203613	-0.106689	0.581548	0.215971	-0.766400	0.166701
18926		9.444561	-0.020698	-2.718230	-0.044046	-0.015176	0.049511	-0.845703	-0.201172	-0.099609	0.581482	0.215421	-0.766617	0.166646
18927		9.485944	-0.199041	-2.600978	-0.008745	-0.010603	0.041565	-0.840820	-0.197266	-0.110596	0.581330	0.215091	-0.766794	0.166787
18928		9.589586	-0.160237	-2.621414	0.018175	-0.006875	0.043279	-0.845459	-0.206055	-0.091064	0.581241	0.214801	-0.766866	0.167140
18929		9.592814	0.078506	-2.473952	0.005156	-0.003727	0.049075	-0.845459	-0.202637	-0.108398	0.581036	0.214562	-0.767030	0.167406
18930		9.566160	0.126971	-2.361618	-0.038841	0.002695	0.058395	-0.840332	-0.202148	-0.102295	0.581096	0.213948	-0.767146	0.167456
18931		9.558555	0.228575	-2.459204	-0.062539	0.007400	0.060972	-0.837158	-0.202148	-0.107666	0.581190	0.213234	-0.767294	0.167362
18932		9.502171	0.051333	-2.533546	-0.127445	0.027647	0.078816	-0.843994	-0.212158	-0.108887	0.581566	0.212063	-0.767422	0.166956
18933		9.478277	-0.094542	-2.497555	-0.090764	0.021192	0.083134	-0.842285	-0.210693	-0.102539	0.581850	0.211165	-0.767501	0.166739
18934		9.491116	0.015737	-2.422388	-0.075144	0.012738	0.090493	-0.833496	-0.196289	-0.109863	0.581978	0.210336	-0.767653	0.166643
18935		9.593660	0.441421	-2.332891	-0.111886	-0.009157	0.112764	-0.840088	-0.198730	-0.098389	0.582057	0.209051	-0.767986	0.166448
18936		9.601531	0.165413	-2.600040	-0.177697	-0.006634	0.139106	-0.847168	-0.191895	-0.103027	0.582124	0.207380	-0.768502	0.165921
18937		9.503658	-0.209249	-2.840196	-0.163892	-0.001834	0.144357	-0.847412	-0.183838	-0.106201	0.582220	0.205664	-0.768971	0.165546
18938		9.332397	-0.383909	-2.892185	-0.140861	-0.005374	0.140007	-0.846191	-0.184814	-0.103760	0.582264	0.204008	-0.769425	0.165331
18939		9.371153	-0.350054	-2.583742	-0.104090	-0.000314	0.116800	-0.843994	-0.182373	-0.103516	0.582269	0.202720	-0.769783	0.165232
18940		9.449121	-0.348875	-2.449069	-0.133751	-0.006749	0.115631	-0.846924	-0.183105	-0.109619	0.582275	0.201293	-0.770217	0.164933
18941		9.414235	-0.505538	-2.348390	-0.126140	-0.022173	0.094324	-0.841797	-0.185547	-0.105713	0.582271	0.200058	-0.770624	0.164549
18942		9.386052	-0.509046	-2.471645	-0.135791	-0.033441	0.079473	-0.854248	-0.183594	-0.110840	0.582199	0.198958	-0.771081	0.163994
18943		9.359808	-0.901270	-2.915884	-0.123217	-0.028646	0.058925	-0.844971	-0.181641	-0.104736	0.582214	0.197987	-0.771433	0.163457
18944		9.298420	-0.921655	-3.061580	-0.019898	-0.023749	0.020695	-0.845947	-0.184082	-0.105957	0.582056	0.197775	-0.771615	0.163420
18945		9.438957	-0.571739	-2.883731	0.067641	-0.022404	-0.005438	-0.850098	-0.179688	-0.114014	0.581801	0.198171	-0.771621	0.163819
18946		9.500341	-0.330518	-2.648824	0.098374	-0.018884	-0.016119	-0.848633	-0.175537	-0.108887	0.581620	0.198651	-0.771509	0.164406
18947		9.559258	-0.268638	-2.650951	0.069950	-0.016149	-0.017755	-0.850830	-0.182373	-0.104004	0.581437	0.198967	-0.771474	0.164838
18948		9.458724	-0.432941	-2.670193	0.044929	-0.013863	-0.016364	-0.848633	-0.176758	-0.108154	0.581262	0.199270	-0.771475	0.165081
18949		9.311640	-0.681468	-2.750458	0.104166	-0.009160	-0.040360	-0.852783	-0.186523	-0.106689	0.581100	0.199891	-0.771319	0.165628
18950		9.469255	-0.688943	-2.676918	0.190699	-0.010138	-0.064829	-0.850830	-0.180420	-0.111572	0.580817	0.201207	-0.770990	0.166559
18951		9.495701	0.089826	-2.502333	0.159799	-0.009181	-0.072437	-0.848633	-0.188232	-0.100830	0.580660	0.202266	-0.770670	0.167301
18952		9.580559	0.183839	-2.700783	0.038222	0.012449	-0.046561	-0.851074	-0.189209	-0.100342	0.580692	0.202742	-0.770502	0.167392
18953		9.413789	-0.135184	-3.069027	0.022098	0.008884	-0.041625	-0.848877	-0.187500	-0.108887	0.580715	0.203121	-0.770386	0.167387
18954		9.399697	-0.344017	-3.327827	0.095578	0.028785	-0.036135	-0.845215	-0.193604	-0.108643	0.580843	0.203688	-0.770029	0.167893
18955		9.395868	-0.356794	-3.051878	0.160962	0.030691	-0.049355	-0.858887	-0.190918	-0.094971	0.580885	0.204750	-0.769537	0.168710
18956		9.438131	-0.384720	-2.748456	0.159094	0.048205	-0.044062	-0.844238	-0.185303	-0.098389	0.580807	0.205767	-0.769116	0.169659
18957		9.558914	-0.452086	-2.581132	0.153438	0.060854	-0.046791	-0.847168	-0.186768	-0.098145	0.580870	0.206693	-0.768610	0.170605
18958		9.568335	-0.565621	-2.657309	0.159666	0.066202	-0.062035	-0.851562	-0.190674	-0.107910	0.580971	0.207734	-0.768048	0.171528
18959		9.401636	-0.565556	-2.669379	0.161463	0.066796	-0.082425	-0.844482	-0.192627	-0.105469	0.581237	0.208830	-0.767372	0.172317
18960		9.464888	-0.904106	-2.795377	0.244169	0.060631	-0.111553	-0.848877	-0.187744	-0.104980	0.581327	0.210591	-0.766558	0.173490
18961		9.552078	-0.220921	-2.561224	0.310777	0.060395	-0.130664	-0.845215	-0.186523	-0.110352	0.581289	0.212657	-0.765661	0.175052
18962		9.415728	0.240840	-2.693126	0.244509	0.060613	-0.114744	-0.847656	-0.200195	-0.101807	0.581429	0.214190	-0.764852	0.176251
18963		9.504460	0.071509	-2.743904	0.233987	0.052443	-0.096167	-0.849854	-0.202637	-0.102051	0.581392	0.215867	-0.764136	0.177430
18964		9.537952	0.280046	-2.769208	0.247975	0.052118	-0.084466	-0.838379	-0.204834	-0.108643	0.581312	0.217531	-0.763419	0.178740
18965		9.466773	0.412690	-2.743009	0.198476	0.060953	-0.062221	-0.839111	-0.201904	-0.106689	0.581467	0.218794	-0.762691	0.179796
18966		9.584481	0.196063	-2.922928	0.168179	0.071779	-0.031063	-0.840332	-0.205322	-0.111084	0.581657	0.219659	-0.762047	0.180857
18967		9.563564	-0.075332	-2.775055	0.203006	0.077441	-0.027285	-0.844971	-0.199219	-0.109375	0.581873	0.220646	-0.761296	0.182118
18968		9.568248	0.215552	-2.524180	0.200616	0.087068	-0.012624	-0.851807	-0.205322	-0.101807	0.582073	0.221403	-0.760590	0.183507
18969		9.604692	0.170327	-2.465694	0.148159	0.092273	0.013601	-0.842773	-0.203125	-0.100830	0.582233	0.221907	-0.760027	0.184717
18970		9.543315	0.227388	-2.529966	0.119497	0.093099	0.028994	-0.843506	-0.198486	-0.098877	0.582417	0.222220	-0.759522	0.185837
18971		9.481103	0.101219	-2.382904	0.113809	0.091285	0.053326	-0.836914	-0.198486	-0.109619	0.582514	0.222312	-0.759119	0.187065
18972		9.491511	0.076417	-2.377377	0.130106	0.087052	0.073819	-0.845459	-0.205078	-0.106201	0.582703	0.222256	-0.758659	0.188404
18973		9.568246	0.124039	-2.460521	0.122215	0.086157	0.098242	-0.843994	-0.205811	-0.102783	0.582788	0.222173	-0.758268	0.189811
18974		9.606927	-0.011769	-2.178775	0.116246	0.083325	0.115736	-0.843262	-0.197021	-0.113037	0.582779	0.222063	-0.757938	0.191275
18975		9.670247	0.156498	-2.270548	0.099794	0.086512	0.135113	-0.847412	-0.198975	-0.113281	0.582943	0.221461	-0.757629	0.192693
18976		9.552503	-0.216207	-2.376941	0.053413	0.085701	0.159362	-0.843262	-0.194580	-0.119873	0.583136	0.220553	-0.757431	0.193926
18977		9.405047	-0.508678	-2.396924	0.090770	0.082724	0.153329	-0.841553	-0.194336	-0.120850	0.583346	0.219769	-0.757136	0.195330
18978		9.435090	-0.676498	-2.213999	0.082007	0.077024	0.149644	-0.846680	-0.198730	-0.108398	0.583547	0.219017	-0.756858	0.196646
18979		9.466527	-1.209808	-2.201921	0.097484	0.089741	0.124521	-0.845947	-0.195557	-0.113525	0.583626	0.218764	-0.756511	0.198026
18980		9.519061	-1.436633	-2.202227	0.138986	0.087763	0.080486	-0.852295	-0.187256	-0.107910	0.583754	0.218895	-0.756002	0.199441
18981		9.485832	-1.631910	-1.935933	0.202704	0.074178	0.036003	-0.843506	-0.187256	-0.119873	0.583628	0.219536	-0.755476	0.201092
18982		9.530491	-1.032675	-1.854551	0.283364	0.078515	-0.015972	-0.852539	-0.192383	-0.119385	0.583671	0.220764	-0.754587	0.202952
18983		9.603883	-0.344664	-2.049116	0.206351	0.062459	-0.018163	-0.846436	-0.195801	-0.117676	0.583728	0.221718	-0.753901	0.204295
18984		9.443670	-0.310887	-2.276934	0.139327	0.065661	-0.006201	-0.844727	-0.183105	-0.117676	0.583900	0.222364	-0.753312	0.205271
18985		9.523619	-0.067346	-2.386005	0.125489	0.044266	-0.012945	-0.850098	-0.186523	-0.118164	0.583953	0.222785	-0.752911	0.206133
18986		9.590178	0.310019	-2.278753	0.077795	0.037288	0.017193	-0.844482	-0.197510	-0.115967	0.583994	0.222841	-0.752675	0.206818
18987		9.555551	0.204742	-2.203992	-0.002887	0.022950	0.052044	-0.844482	-0.191406	-0.120850	0.584030	0.222581	-0.752647	0.207096
18988		9.530983	-0.290557	-2.158504	-0.041035	0.014094	0.069795	-0.849609	-0.189941	-0.121338	0.584116	0.221883	-0.752759	0.207194
18989		9.464462	-0.793971	-2.085724	-0.051114	0.001310	0.069279	-0.839355	-0.191406	-0.114746	0.584131	0.221138	-0.752964	0.207207
18990		9.453773	-1.184338	-2.111049	-0.016637	-0.003072	0.042362	-0.856689	-0.189453	-0.121826	0.584029	0.220906	-0.753082	0.207314
18991		9.461162	-1.170839	-2.154951	-0.020489	-0.013121	0.011703	-0.847656	-0.190430	-0.119629	0.583985	0.220685	-0.753205	0.207225
18992		9.536443	-0.883153	-2.168837	-0.034031	-0.014077	-0.009045	-0.850830	-0.185059	-0.119141	0.583988	0.220603	-0.753303	0.206949
18993		9.461134	-0.784461	-2.249768	-0.066594	-0.017327	-0.019840	-0.840576	-0.185791	-0.120605	0.584025	0.220333	-0.753491	0.206442
18994		9.395662	-0.838220	-2.284976	-0.037019	-0.017742	-0.028969	-0.839111	-0.185791	-0.122070	0.584068	0.220294	-0.753575	0.206058
18995		9.438537	-0.847387	-2.017436	0.036638	-0.031057	-0.050093	-0.849365	-0.186523	-0.114990	0.583952	0.220749	-0.753546	0.206005
18996		9.491057	-0.637968	-1.782559	0.047769	-0.042533	-0.048024	-0.842529	-0.187012	-0.122314	0.583619	0.221307	-0.753627	0.206054
18997		9.570751	-0.685732	-1.867552	0.016275	-0.054663	-0.042718	-0.838623	-0.185303	-0.114258	0.583397	0.221619	-0.753759	0.205866
18998		9.568015	-0.827812	-2.090673	-0.020755	-0.073716	-0.037527	-0.843994	-0.193604	-0.114258	0.583012	0.221823	-0.754100	0.205485
18999		9.581173	-0.977368	-2.209710	0.017380	-0.078627	-0.062263	-0.843994	-0.189941	-0.114990	0.582587	0.222472	-0.754322	0.205176
19000		9.559572	-0.674695	-1.914229	0.018272	-0.071732	-0.093659	-0.845703	-0.197510	-0.117432	0.582276	0.223205	-0.754462	0.204748
19001		9.600812	-1.005125	-1.846380	-0.003891	-0.074507	-0.129267	-0.843262	-0.201172	-0.114258	0.582110	0.224108	-0.754536	0.203957
19002		9.795681	-1.186600	-1.809662	0.004505	-0.079473	-0.143637	-0.848633	-0.194336	-0.109619	0.581898	0.225213	-0.754590	0.203144
19003		9.617905	-0.814583	-2.038647	-0.063828	-0.075797	-0.172943	-0.840088	-0.193604	-0.116943	0.581808	0.226036	-0.754764	0.201839
19004		9.446529	-0.471872	-2.350087	-0.108702	-0.073519	-0.182129	-0.843750	-0.204346	-0.111084	0.581960	0.226583	-0.754923	0.200185
19005		9.468813	-0.471290	-2.539759	-0.113684	-0.075478	-0.193987	-0.835693	-0.200684	-0.111328	0.582058	0.227360	-0.755080	0.198418
19006		9.625303	-0.168390	-2.408882	-0.074319	-0.071547	-0.201784	-0.844238	-0.210205	-0.113037	0.582127	0.228308	-0.755139	0.196898
19007		9.558232	0.655845	-2.347015	-0.095083	-0.082975	-0.183781	-0.843750	-0.209473	-0.100830	0.582167	0.229081	-0.755301	0.195254
19008		9.633938	0.541822	-2.322799	-0.148181	-0.061736	-0.130924	-0.841797	-0.221924	-0.104248	0.582184	0.229338	-0.755623	0.193648
19009		9.613764	0.093150	-2.396648	-0.102088	-0.064628	-0.104493	-0.843018	-0.216064	-0.110596	0.582135	0.229770	-0.755859	0.192358
19010		9.694920	0.290245	-2.525636	-0.112541	-0.053910	-0.088190	-0.838867	-0.210449	-0.111816	0.582227	0.229840	-0.756083	0.191110
19011		9.583858	0.069942	-2.804391	-0.135768	-0.036581	-0.065667	-0.839355	-0.217285	-0.115234	0.582449	0.229544	-0.756310	0.189889
19012		9.491844	-0.324365	-2.729062	-0.071659	-0.020209	-0.062607	-0.845703	-0.216309	-0.111084	0.582702	0.229555	-0.756320	0.189057
19013		9.687084	-0.010233	-2.255165	-0.039249	-0.016076	-0.073150	-0.838135	-0.212402	-0.111572	0.582860	0.229770	-0.756293	0.188416
19014		9.675902	0.179819	-2.242895	-0.147165	0.004365	-0.055494	-0.843262	-0.211182	-0.106445	0.583330	0.229300	-0.756361	0.187255
19015		9.425439	-0.489170	-2.334929	-0.180382	0.000192	-0.049373	-0.837158	-0.213379	-0.107178	0.583738	0.228656	-0.756566	0.185942
19016		9.403567	-0.362011	-2.797058	-0.098916	-0.007496	-0.071252	-0.840332	-0.213867	-0.107666	0.583988	0.228612	-0.756614	0.185011
19017		9.429382	0.326704	-2.671999	-0.105698	-0.014296	-0.057315	-0.842041	-0.222412	-0.106201	0.584182	0.228431	-0.756744	0.184090
19018		9.680726	0.361980	-2.463729	-0.131409	0.000803	-0.040592	-0.848633	-0.215820	-0.113770	0.584488	0.228094	-0.756860	0.183058
19019		9.761799	0.643970	-2.250962	-0.195219	0.008689	-0.009298	-0.841553	-0.219971	-0.115479	0.584987	0.227041	-0.757093	0.181804
19020		9.695997	0.976727	-2.777637	-0.350481	0.016101	0.035568	-0.837891	-0.214844	-0.125000	0.585787	0.225017	-0.757567	0.179760
19021		9.434639	0.134339	-3.351164	-0.356144	0.021251	0.065923	-0.845703	-0.209961	-0.120605	0.586677	0.222662	-0.758030	0.177825
19022		9.233499	0.200826	-3.506955	-0.193623	0.010685	0.068888	-0.838623	-0.213867	-0.115723	0.587084	0.221099	-0.758374	0.176965
19023		9.274912	0.296346	-2.930746	-0.108705	0.006036	0.075669	-0.837891	-0.210693	-0.115723	0.587236	0.220071	-0.758630	0.176646
19024		9.712233	0.342121	-2.062189	-0.099622	0.001714	0.091260	-0.850586	-0.207031	-0.120850	0.587306	0.218995	-0.758928	0.176471
19025		9.806324	0.323905	-1.753259	-0.243595	0.006328	0.119370	-0.835938	-0.208740	-0.120117	0.587667	0.216888	-0.759473	0.175520
19026		9.551037	-0.492651	-2.375180	-0.299450	0.005074	0.125545	-0.837891	-0.202637	-0.119629	0.588121	0.214606	-0.760070	0.174217
19027		9.139632	-1.038996	-3.143745	-0.227009	-0.007777	0.094509	-0.847900	-0.197998	-0.120117	0.588369	0.212873	-0.760587	0.173247
19028		9.060084	-1.052777	-3.197635	-0.063564	-0.017781	0.047753	-0.834473	-0.198975	-0.123535	0.588301	0.212180	-0.760868	0.173094
19029		9.364747	-0.300708	-2.610673	0.069388	-0.031083	0.008277	-0.848877	-0.204834	-0.118164	0.588032	0.212451	-0.760900	0.173537
19030		9.550176	0.196060	-2.060009	0.029613	-0.030913	0.023084	-0.850342	-0.203613	-0.115234	0.587749	0.212455	-0.761065	0.173763
19031		9.761731	0.182265	-1.815290	-0.016240	-0.034052	0.038897	-0.844482	-0.201904	-0.113525	0.587473	0.212154	-0.761356	0.173792
19032		9.600155	0.254083	-2.106093	-0.092384	-0.032753	0.062799	-0.849121	-0.198242	-0.125732	0.587297	0.211366	-0.761782	0.173477
19033		9.463870	-0.020029	-2.514153	-0.100313	-0.045606	0.079904	-0.845215	-0.200684	-0.114258	0.587172	0.210271	-0.762261	0.173129
19034		9.469165	-0.304325	-2.852721	-0.027015	-0.053661	0.078809	-0.844238	-0.199463	-0.116455	0.586744	0.209729	-0.762713	0.173249
19035		9.440394	-0.533675	-2.742572	0.077749	-0.067264	0.069284	-0.846191	-0.197998	-0.110352	0.586095	0.209752	-0.763046	0.173950
19036		9.425173	-0.296758	-2.523777	0.112684	-0.078927	0.062350	-0.835938	-0.197754	-0.117676	0.585254	0.210047	-0.763404	0.174852
19037		9.609964	-0.294855	-2.383117	0.060520	-0.078683	0.056739	-0.839600	-0.192383	-0.117920	0.584634	0.210084	-0.763753	0.175352
19038		9.564871	-0.734278	-2.466869	0.016410	-0.051929	0.048609	-0.845215	-0.198242	-0.109375	0.584273	0.209855	-0.764032	0.175616
19039		9.497924	-0.818972	-2.484870	0.043946	-0.028318	0.013901	-0.839111	-0.188477	-0.114502	0.583983	0.210044	-0.764136	0.175902
19040		9.546295	-0.405505	-2.468378	0.107726	-0.032090	-0.030840	-0.840576	-0.192139	-0.109131	0.583669	0.210739	-0.764060	0.176441
19041		9.607295	0.086942	-2.481042	0.119601	-0.028991	-0.012874	-0.849854	-0.191162	-0.111816	0.583278	0.211434	-0.764005	0.177140
19042		9.543468	0.454092	-2.330521	0.036924	-0.033249	0.011345	-0.852539	-0.191650	-0.104248	0.582999	0.211489	-0.764140	0.177412
19043		9.565348	0.126597	-2.526150	0.011754	-0.028242	0.049446	-0.840820	-0.199707	-0.110107	0.582656	0.211241	-0.764393	0.177740
19044		9.473678	0.053014	-2.726536	0.008998	-0.039791	0.070426	-0.833496	-0.195312	-0.114014	0.582328	0.210916	-0.764667	0.178026
19045		9.433083	-0.063246	-2.746393	0.041280	-0.041274	0.087067	-0.843994	-0.180176	-0.107910	0.581958	0.210612	-0.764896	0.178609
19046		9.502625	-0.251566	-2.532581	0.097811	-0.048033	0.095340	-0.852295	-0.192871	-0.115479	0.581318	0.210447	-0.765168	0.179722
19047		9.545448	0.036277	-2.481330	0.109369	-0.051584	0.100694	-0.847168	-0.187744	-0.106201	0.580757	0.210282	-0.765394	0.180760
19048		9.484749	0.186518	-2.553114	-0.000921	-0.048116	0.129654	-0.850586	-0.189453	-0.099854	0.580265	0.209483	-0.765855	0.181317
19049		9.502560	0.058140	-2.597207	-0.063076	-0.043873	0.151179	-0.848633	-0.185791	-0.104736	0.579816	0.208309	-0.766453	0.181578
19050		9.459743	-0.290317	-2.758773	-0.086159	-0.040832	0.160842	-0.847412	-0.183350	-0.103760	0.579472	0.206904	-0.767057	0.181730
19051		9.390256	-0.472903	-2.732703	-0.046185	-0.038511	0.156790	-0.851562	-0.180664	-0.098633	0.579072	0.205729	-0.767581	0.182125
19052		9.450128	-0.778887	-2.618051	0.025850	-0.026648	0.130189	-0.854004	-0.179688	-0.102295	0.578605	0.205082	-0.767924	0.182894
19053		9.524841	-0.913028	-2.387933	0.067905	-0.025002	0.108340	-0.851807	-0.172119	-0.114746	0.578157	0.204729	-0.768138	0.183804
19054		9.504925	-0.789000	-2.342570	0.032976	-0.017386	0.091653	-0.848389	-0.183350	-0.107178	0.577974	0.204151	-0.768280	0.184431
19055		9.437855	-0.763095	-2.487542	-0.045427	-0.020905	0.089478	-0.854492	-0.180664	-0.098877	0.577862	0.203376	-0.768563	0.184458
19056		9.329972	-0.820448	-2.516427	-0.092200	-0.032361	0.078651	-0.841553	-0.174072	-0.111816	0.577671	0.202504	-0.769010	0.184155
19057		9.448370	-0.669500	-2.516630	-0.075885	-0.039195	0.068999	-0.847656	-0.167236	-0.105957	0.577563	0.201689	-0.769363	0.183912
19058		9.542666	-0.429526	-2.535846	-0.071755	-0.033555	0.062274	-0.853027	-0.170166	-0.105469	0.577408	0.200924	-0.769719	0.183744
19059		9.520893	-0.436191	-2.581236	-0.115404	-0.035459	0.078804	-0.845459	-0.170166	-0.107666	0.577293	0.199849	-0.770184	0.183332
19060		9.484842	-0.491916	-2.631179	-0.146769	-0.029217	0.092463	-0.852783	-0.171387	-0.104004	0.577284	0.198544	-0.770659	0.182777
19061		9.508879	-0.506048	-2.660641	-0.136235	-0.022603	0.098067	-0.851318	-0.166016	-0.097656	0.577253	0.197262	-0.771123	0.182310
19062		9.556354	-0.400834	-2.636722	-0.082549	-0.007489	0.095362	-0.855957	-0.166016	-0.105957	0.577152	0.196280	-0.771461	0.182258
19063		9.511363	-0.333501	-2.685323	-0.073535	-0.008132	0.105887	-0.852539	-0.166504	-0.107178	0.577106	0.195193	-0.771768	0.182270
19064		9.554472	-0.198589	-2.628024	-0.064908	-0.002942	0.115792	-0.854736	-0.160156	-0.107666	0.577085	0.194092	-0.772038	0.182370
19065		9.471079	-0.355635	-2.580503	-0.067122	-0.008089	0.137024	-0.852295	-0.166504	-0.105957	0.576987	0.192822	-0.772376	0.182592
19066		9.504937	-0.313439	-2.505850	-0.037102	-0.020066	0.131636	-0.858154	-0.156250	-0.100830	0.576782	0.191811	-0.772712	0.182883
19067		9.440155	-0.817625	-2.521513	-0.003890	-0.028468	0.105911	-0.853516	-0.160156	-0.088135	0.576425	0.191124	-0.773040	0.183344
19068		9.673940	-0.984085	-2.559612	-0.006615	-0.044009	0.105991	-0.855469	-0.148438	-0.099121	0.575866	0.190583	-0.773496	0.183741
19069		9.600963	-0.225472	-2.632581	-0.053290	-0.071727	0.124148	-0.861816	-0.153564	-0.098633	0.575264	0.189598	-0.774137	0.183949
19070		9.342428	-0.231158	-2.659742	-0.120085	-0.047056	0.130158	-0.859131	-0.149902	-0.098877	0.574937	0.188223	-0.774768	0.183720
19071		9.403926	-0.815597	-2.955269	-0.161462	-0.050722	0.148156	-0.858154	-0.148682	-0.093506	0.574628	0.186540	-0.775500	0.183317
19072		9.456989	-1.650161	-2.743453	-0.041336	-0.029614	0.115273	-0.860596	-0.149658	-0.097168	0.574270	0.185657	-0.775919	0.183563
19073		9.506823	-1.103094	-2.661483	0.043933	-0.023384	0.083236	-0.858643	-0.143311	-0.102539	0.573915	0.185356	-0.776105	0.184188
19074		9.500067	-0.835950	-2.522634	-0.012329	-0.014827	0.080442	-0.864014	-0.141357	-0.104492	0.573750	0.184736	-0.776303	0.184493
19075		9.538460	-0.738500	-2.401562	-0.093530	0.010406	0.078199	-0.855957	-0.141113	-0.097900	0.573890	0.183669	-0.776498	0.184301
19076		9.418845	-1.051212	-2.834081	-0.157097	0.006631	0.066968	-0.860107	-0.141602	-0.102783	0.574060	0.182456	-0.776814	0.183642
19077		9.366217	-1.311987	-2.777770	-0.076678	0.010883	0.038756	-0.858643	-0.143066	-0.097900	0.574223	0.181769	-0.776923	0.183353
19078		9.383563	-0.751362	-2.668406	-0.027064	0.004359	0.028942	-0.852783	-0.140869	-0.093506	0.574240	0.181438	-0.776998	0.183314
19079		9.391913	-0.532856	-2.359150	-0.060326	-0.004749	0.025643	-0.854736	-0.137695	-0.098145	0.574208	0.181023	-0.777179	0.183054
19080		9.352577	-0.850378	-2.540730	-0.126611	-0.011833	0.046912	-0.855469	-0.147705	-0.100586	0.574235	0.180117	-0.777506	0.182474
19081		9.402027	-1.359305	-2.578708	-0.038253	-0.026467	0.039841	-0.855713	-0.136963	-0.103027	0.574095	0.179744	-0.777732	0.182319
19082		9.387172	-0.771796	-2.546796	0.039201	-0.027410	0.012217	-0.856689	-0.136719	-0.104004	0.573872	0.179855	-0.777800	0.182621
19083		9.482115	-0.117699	-2.468083	0.014510	-0.025999	0.017463	-0.859375	-0.132812	-0.101807	0.573699	0.179802	-0.777900	0.182790
19084		9.403975	-0.361542	-2.804976	-0.133043	-0.030882	0.065083	-0.865723	-0.132568	-0.111084	0.573615	0.178725	-0.778337	0.182248
19085		9.302826	-1.006718	-3.101328	-0.088911	-0.024850	0.061818	-0.857422	-0.128174	-0.103271	0.573592	0.177814	-0.778627	0.181977
19086		9.304601	-1.213898	-2.934162	0.022430	-0.033125	0.030319	-0.860352	-0.133301	-0.101074	0.573320	0.177706	-0.778776	0.182299
19087		9.418384	-0.726438	-2.807419	0.069997	-0.031241	0.012244	-0.864014	-0.135986	-0.103027	0.573016	0.177959	-0.778826	0.182791
19088		9.393233	-0.600878	-2.708321	0.020936	-0.024378	0.020123	-0.862305	-0.130615	-0.098145	0.572845	0.177903	-0.778919	0.182985
19089		9.272548	-0.851846	-2.709554	-0.024218	-0.020530	0.025065	-0.855713	-0.133789	-0.104980	0.572704	0.177603	-0.779097	0.182960
19090		9.378286	-1.099156	-2.921160	0.023224	-0.021134	0.013088	-0.863037	-0.137695	-0.095215	0.572584	0.177615	-0.779135	0.183165
19091		9.453036	-0.722276	-2.862357	0.085196	-0.023030	-0.004400	-0.849609	-0.133789	-0.096924	0.572310	0.178063	-0.779125	0.183628
19092		9.455654	-0.452944	-2.827866	0.056244	-0.016135	0.004757	-0.866455	-0.134766	-0.094238	0.572124	0.178334	-0.779108	0.184017
19093		9.382544	-0.881526	-2.910954	0.061018	-0.010735	0.018723	-0.860107	-0.131348	-0.092041	0.571918	0.178477	-0.779118	0.184474
19094		9.439764	-0.879934	-3.001676	0.168178	-0.017209	0.001614	-0.866943	-0.122070	-0.089355	0.571513	0.179272	-0.778972	0.185571
19095		9.304369	-0.806899	-2.707043	0.305732	-0.027892	-0.007224	-0.861084	-0.132080	-0.095947	0.570796	0.180745	-0.778678	0.187575
19096		9.491523	-0.256905	-2.875587	0.289637	-0.014254	0.016996	-0.863770	-0.133057	-0.093994	0.570249	0.181986	-0.778313	0.189541
19097		9.491272	-0.986676	-2.654892	0.290413	-0.012071	0.028409	-0.863525	-0.132812	-0.090576	0.569684	0.183152	-0.777960	0.191554
19098		9.291521	-1.168544	-2.570936	0.302661	-0.005265	0.022821	-0.861328	-0.133057	-0.098145	0.569129	0.184409	-0.777557	0.193627
19099		9.443437	-1.430890	-2.763680	0.308143	-0.005395	-0.010839	-0.862061	-0.127686	-0.088867	0.568686	0.185890	-0.777036	0.195594
19100		9.428633	-1.470667	-2.782102	0.292053	0.009430	-0.021006	-0.859375	-0.131592	-0.089111	0.568286	0.187342	-0.776506	0.197466
19101		9.329436	-1.422309	-2.708737	0.275130	0.012507	-0.056865	-0.860352	-0.136230	-0.095215	0.568006	0.188956	-0.775918	0.199038
19102		9.250107	-1.299956	-2.925077	0.276076	0.013804	-0.074780	-0.853760	-0.139404	-0.087402	0.567824	0.190673	-0.775251	0.200517
19103		9.351196	-1.039890	-3.035616	0.291990	0.017151	-0.086343	-0.860352	-0.143799	-0.094482	0.567599	0.192587	-0.774550	0.202024
19104		9.489109	-1.028275	-2.800027	0.313477	0.025390	-0.106208	-0.864746	-0.143555	-0.086426	0.567488	0.194676	-0.773703	0.203575
19105		9.512734	-0.672144	-2.701070	0.288223	0.034114	-0.105458	-0.862549	-0.142822	-0.080566	0.567398	0.196622	-0.772908	0.204971
19106		9.436176	-0.744126	-2.931790	0.204339	0.037378	-0.090048	-0.861572	-0.143311	-0.088867	0.567385	0.198081	-0.772294	0.205911
19107		9.348999	-0.994165	-2.776596	0.202995	0.031907	-0.095044	-0.855469	-0.141357	-0.093506	0.567410	0.199550	-0.771649	0.206843
19108		9.313702	-0.744775	-2.586718	0.225225	0.026605	-0.108445	-0.864014	-0.149414	-0.079346	0.567413	0.201213	-0.770931	0.207896
19109		9.375839	-0.435078	-2.632708	0.193131	0.019894	-0.090557	-0.855957	-0.145508	-0.092285	0.567298	0.202650	-0.770420	0.208709
19110		9.454883	-0.420939	-2.788834	0.131268	0.026226	-0.065662	-0.863770	-0.145996	-0.095703	0.567376	0.203595	-0.769941	0.209345
19111		9.564979	-0.628312	-2.801085	0.109113	0.037102	-0.053938	-0.864746	-0.156738	-0.084229	0.567560	0.204303	-0.769461	0.209917
19112		9.580441	-0.795640	-2.648956	0.106935	0.032362	-0.041784	-0.856689	-0.149658	-0.086182	0.567633	0.204991	-0.769092	0.210401
19113		9.654927	-0.803694	-2.552622	0.139073	0.035378	-0.033046	-0.858643	-0.145508	-0.086914	0.567649	0.205770	-0.768648	0.211219
19114		9.513618	-0.659840	-2.393160	0.139160	0.041372	-0.012024	-0.855713	-0.150879	-0.094482	0.567655	0.206378	-0.768214	0.212185
19115		9.524872	-0.736933	-2.442489	0.124860	0.043345	0.009841	-0.852295	-0.151123	-0.085449	0.567733	0.206780	-0.767782	0.213148
19116		9.654516	-0.948930	-2.573794	0.106080	0.057643	0.027886	-0.862061	-0.157227	-0.088867	0.567833	0.206993	-0.767393	0.214075
19117		9.744740	-1.468589	-2.757545	0.121645	0.083989	0.036254	-0.854248	-0.154785	-0.092285	0.568095	0.207159	-0.766859	0.215131
19118		9.416165	-1.565780	-2.927626	0.224754	0.108598	0.022211	-0.855469	-0.146240	-0.091797	0.568376	0.207870	-0.765971	0.216857
19119		9.294704	-0.759671	-2.824494	0.234940	0.113066	-0.000685	-0.848877	-0.144531	-0.083740	0.568669	0.208734	-0.765020	0.218609
19120		9.588355	-0.042879	-2.506262	0.165508	0.105021	0.010606	-0.865234	-0.153320	-0.095459	0.568938	0.209249	-0.764296	0.219947
19121		9.518822	-0.083098	-2.424180	0.025220	0.099831	0.051529	-0.862061	-0.150391	-0.087646	0.569441	0.208797	-0.763878	0.220523
19122		9.409676	-0.678108	-2.441967	-0.012603	0.082227	0.073606	-0.857422	-0.148682	-0.100342	0.569785	0.208085	-0.763701	0.220919
19123		9.396599	-0.454974	-2.378957	-0.010839	0.062807	0.078361	-0.867920	-0.149414	-0.096680	0.570081	0.207367	-0.763549	0.221359
19124		9.354586	-0.817390	-2.365812	-0.065437	0.058905	0.095077	-0.859375	-0.146484	-0.103516	0.570381	0.206278	-0.763584	0.221484
19125		9.323162	-1.326376	-2.338224	-0.050959	0.049552	0.090424	-0.857178	-0.149658	-0.097900	0.570648	0.205311	-0.763582	0.221700
19126		9.390687	-1.173250	-2.311910	0.003750	0.037957	0.065709	-0.856445	-0.143066	-0.102051	0.570759	0.204828	-0.763520	0.222076
19127		9.415729	-0.719758	-2.315567	-0.014347	0.028359	0.066335	-0.861816	-0.139648	-0.101562	0.570850	0.204241	-0.763521	0.222378
19128		9.363583	-1.077948	-2.289653	-0.024905	0.015363	0.067213	-0.858643	-0.135010	-0.097900	0.570858	0.203600	-0.763621	0.222601
19129		9.270622	-1.232673	-2.405408	0.027983	0.011658	0.061177	-0.859863	-0.141602	-0.103516	0.570728	0.203262	-0.763650	0.223142
19130		9.267569	-1.069460	-2.529410	0.007515	0.000471	0.058926	-0.862793	-0.135742	-0.101074	0.570625	0.202874	-0.763730	0.223486
19131		9.419345	-1.162887	-2.569568	-0.057773	-0.003151	0.062654	-0.863037	-0.138916	-0.106689	0.570570	0.202136	-0.763977	0.223449
19132		9.557520	-1.766019	-2.286618	-0.056156	-0.004849	0.037744	-0.862305	-0.134277	-0.100098	0.570598	0.201570	-0.764153	0.223289
19133		9.479517	-1.735312	-2.228949	-0.005465	0.002885	0.004654	-0.858887	-0.135498	-0.102295	0.570593	0.201448	-0.764181	0.223317
19134		9.414806	-1.513708	-2.302417	-0.030415	0.004558	-0.019552	-0.861328	-0.139160	-0.104736	0.570706	0.201367	-0.764188	0.223076
19135		9.406989	-1.594574	-2.593822	-0.027784	0.013890	-0.039214	-0.856201	-0.141602	-0.104980	0.570935	0.201407	-0.764100	0.222755
19136		9.299634	-1.911599	-2.722335	0.052382	0.011656	-0.074274	-0.852295	-0.149414	-0.102783	0.571087	0.202077	-0.763806	0.222766
19137		9.281420	-1.406471	-2.349167	0.150234	0.015612	-0.106278	-0.859375	-0.141846	-0.105225	0.571160	0.203452	-0.763258	0.223206
19138		9.351712	-0.455904	-2.018501	0.102765	0.000928	-0.098335	-0.854004	-0.141846	-0.099854	0.571193	0.204514	-0.762886	0.223424
19139		9.327087	-0.675674	-2.051483	-0.029416	-0.010306	-0.064327	-0.858154	-0.149902	-0.101807	0.571279	0.204775	-0.762892	0.222942
19140		9.530912	-1.407410	-2.009065	-0.041731	-0.017734	-0.062419	-0.858643	-0.138672	-0.101562	0.571368	0.204987	-0.762948	0.222328
19141		9.640000	-1.597970	-2.035373	0.023996	-0.023335	-0.091713	-0.855225	-0.147217	-0.104736	0.571330	0.205664	-0.762870	0.222068
19142		9.431186	-0.976241	-2.282258	0.034740	-0.024422	-0.110686	-0.855225	-0.146729	-0.102295	0.571347	0.206542	-0.762712	0.221751
19143		9.427258	-1.220008	-2.453887	-0.077914	-0.039889	-0.096373	-0.855225	-0.146973	-0.099609	0.571412	0.206818	-0.762874	0.220766
19144		9.546494	-1.738520	-2.299672	-0.053425	-0.031511	-0.124188	-0.860107	-0.148926	-0.105225	0.571521	0.207373	-0.762916	0.219817
19145		9.520316	-1.714886	-1.954382	-0.002087	-0.045451	-0.159944	-0.856445	-0.150879	-0.096924	0.571556	0.208397	-0.762841	0.219015
19146		9.556943	-1.047058	-2.111582	-0.000013	-0.052850	-0.188251	-0.855957	-0.156982	-0.100830	0.571539	0.209653	-0.762784	0.218057
19147		9.493754	-0.840168	-2.320849	-0.085415	-0.056209	-0.187404	-0.854736	-0.160400	-0.096191	0.571687	0.210503	-0.762869	0.216548
19148		9.551795	-1.081586	-2.619264	-0.115400	-0.049062	-0.186338	-0.855713	-0.162354	-0.104248	0.571905	0.211206	-0.762992	0.214846
19149		9.499709	-1.097341	-2.763125	-0.073638	-0.043844	-0.201256	-0.858154	-0.161621	-0.093750	0.572163	0.212167	-0.762945	0.213378
19150		9.475550	-0.801453	-2.677370	-0.032077	-0.040743	-0.209936	-0.857666	-0.173584	-0.096924	0.572302	0.213378	-0.762853	0.212123
19151		9.536082	-0.187004	-2.616295	-0.042842	-0.038000	-0.204399	-0.857666	-0.167725	-0.094482	0.572512	0.214518	-0.762748	0.210779
19152		9.511793	-0.020946	-2.704256	-0.110851	-0.031328	-0.174355	-0.855469	-0.175537	-0.094238	0.572797	0.215105	-0.762800	0.209209
19153		9.411497	-0.754784	-2.682504	-0.109003	-0.026608	-0.152245	-0.851807	-0.173340	-0.099609	0.573083	0.215576	-0.762859	0.207724
19154		9.555508	-0.789031	-2.602439	0.046403	-0.023423	-0.170913	-0.850098	-0.172363	-0.101074	0.573169	0.216885	-0.762567	0.207195
19155		9.446545	-0.124529	-2.135075	0.037051	-0.024780	-0.160982	-0.855957	-0.187500	-0.095703	0.573249	0.218078	-0.762306	0.206682
19156		9.660078	-0.305821	-2.000415	0.035598	-0.026432	-0.149064	-0.852295	-0.178467	-0.095947	0.573295	0.219221	-0.762101	0.206099
19157		9.550296	-0.011890	-2.407907	-0.126323	-0.031584	-0.114492	-0.860352	-0.181152	-0.099854	0.573524	0.219356	-0.762259	0.204728
19158		9.249003	-0.791983	-2.925802	-0.198623	-0.026044	-0.101762	-0.848389	-0.179199	-0.098145	0.573923	0.219023	-0.762527	0.202962
19159		9.465562	-0.810806	-2.628438	-0.059935	-0.033984	-0.137468	-0.853271	-0.181885	-0.094238	0.574062	0.219627	-0.762526	0.201918
19160		9.710959	0.326960	-2.283347	-0.120031	-0.032991	-0.130162	-0.859131	-0.191406	-0.090088	0.574279	0.219889	-0.762660	0.200506
19161		9.696035	0.280687	-2.363867	-0.352173	-0.021478	-0.077658	-0.850342	-0.190674	-0.101074	0.574894	0.218696	-0.763243	0.197812
19162		9.486273	-1.159604	-2.604243	-0.329635	-0.027178	-0.080189	-0.850098	-0.186279	-0.099365	0.575500	0.217632	-0.763742	0.195281
19163		9.361218	-0.940833	-2.814615	-0.161262	-0.028864	-0.117874	-0.855713	-0.188965	-0.103027	0.575819	0.217614	-0.763917	0.193669
19164		9.445807	-0.387318	-2.440123	-0.149530	-0.027081	-0.132610	-0.840576	-0.186279	-0.101807	0.576173	0.217716	-0.764027	0.192058
19165		9.664338	0.083636	-2.744537	-0.293224	-0.002070	-0.124185	-0.849121	-0.192871	-0.100586	0.576920	0.217076	-0.764245	0.189659
19166		9.477749	-0.297000	-2.785121	-0.319484	0.000945	-0.104913	-0.848633	-0.186768	-0.097412	0.577692	0.216167	-0.764542	0.187132
19167		9.389786	-0.054005	-3.026512	-0.236691	-0.000612	-0.102324	-0.843018	-0.194336	-0.097900	0.578254	0.215643	-0.764739	0.185187
19168		9.553580	0.479026	-3.132015	-0.213359	0.004071	-0.071046	-0.853516	-0.191650	-0.097412	0.578769	0.215053	-0.764923	0.183499
19169		9.371160	0.427871	-3.090418	-0.197853	0.010361	-0.034070	-0.848145	-0.202637	-0.112061	0.579217	0.214254	-0.765140	0.182112
19170		9.470150	0.442556	-2.989564	-0.178029	0.009898	0.000789	-0.853760	-0.192139	-0.097900	0.579688	0.213323	-0.765316	0.180959
19171		9.524924	0.313579	-2.990200	-0.191005	0.008569	0.026166	-0.847656	-0.195312	-0.104248	0.580012	0.212179	-0.765641	0.179890
19172		9.323939	0.193396	-2.978222	-0.203330	0.003947	0.041795	-0.849365	-0.193604	-0.105957	0.580352	0.210889	-0.765997	0.178789
19173		9.123571	0.493229	-2.967559	-0.293134	-0.024325	0.060917	-0.844238	-0.195801	-0.104980	0.580641	0.209074	-0.766653	0.177161
19174		9.215809	-1.234807	-2.386863	-0.380716	-0.036413	0.059854	-0.848633	-0.187988	-0.107666	0.581003	0.206885	-0.767488	0.174917
19175		9.517676	-3.132867	-2.016137	-0.086738	-0.036101	-0.025167	-0.849609	-0.194092	-0.103760	0.580977	0.206633	-0.767740	0.174192
19176		9.599556	-1.403276	-1.766034	0.121659	-0.034676	-0.132896	-0.846436	-0.192627	-0.107178	0.580744	0.208096	-0.767511	0.174239
19177		9.519395	-0.770585	-2.083237	0.005411	-0.027782	-0.153152	-0.839600	-0.194092	-0.109863	0.580807	0.209106	-0.767357	0.173494
19178		9.334737	-1.095234	-2.404075	-0.008588	-0.032554	-0.195549	-0.847656	-0.193848	-0.110107	0.580946	0.210334	-0.767150	0.172460
19179		9.373920	-0.486083	-2.955890	0.010928	-0.040353	-0.225605	-0.844971	-0.195801	-0.094482	0.581034	0.211827	-0.766907	0.171411
19180		9.460852	0.281883	-2.815818	0.005127	-0.073823	-0.218492	-0.842529	-0.208984	-0.102051	0.580808	0.213353	-0.766903	0.170300
19181		9.557137	0.917765	-2.914378	-0.017210	-0.059870	-0.178517	-0.849121	-0.203369	-0.109375	0.580730	0.214483	-0.766893	0.169191
19182		9.612972	0.904666	-2.860082	-0.006218	-0.044799	-0.123871	-0.844238	-0.205322	-0.099854	0.580681	0.215232	-0.766871	0.168502
19183		9.540147	0.824964	-2.891035	0.054469	-0.037526	-0.079683	-0.842529	-0.208252	-0.099609	0.580454	0.216028	-0.766837	0.168420
19184		9.588674	0.719551	-2.763328	0.081123	-0.031734	-0.038825	-0.843018	-0.204590	-0.103760	0.580166	0.216688	-0.766808	0.168700
19185		9.555586	0.297723	-2.752546	0.102962	-0.018368	-0.007589	-0.844971	-0.210205	-0.098877	0.579902	0.217208	-0.766722	0.169325
19186		9.483705	0.265381	-2.756826	0.130817	-0.010273	0.009879	-0.845459	-0.208740	-0.103027	0.579596	0.217758	-0.766608	0.170184
19187		9.477899	0.608032	-2.778932	0.108636	-0.017926	0.033736	-0.849121	-0.210938	-0.101318	0.579275	0.218036	-0.766588	0.171010
19188		9.435537	0.282966	-2.766035	0.039108	-0.011605	0.062876	-0.845459	-0.202881	-0.095459	0.579074	0.217779	-0.766698	0.171521
19189		9.400642	-0.266814	-2.696451	0.021270	-0.002963	0.064089	-0.838379	-0.207275	-0.090332	0.578910	0.217446	-0.766809	0.172001
19190		9.391127	-0.414187	-2.701123	0.067314	-0.008010	0.042170	-0.838379	-0.209717	-0.091797	0.578644	0.217530	-0.766845	0.172625
19191		9.450076	-0.400576	-2.606708	0.050809	-0.008380	0.025020	-0.846191	-0.203613	-0.095215	0.578448	0.217641	-0.766868	0.173039
19192		9.502350	-0.388648	-2.536824	0.031443	-0.013609	0.009360	-0.849609	-0.204102	-0.099609	0.578285	0.217719	-0.766915	0.173281
19193		9.552344	-0.476480	-2.381207	0.057442	-0.006839	-0.008145	-0.843262	-0.211182	-0.103516	0.578172	0.217996	-0.766848	0.173607
19194		9.500238	-0.541895	-2.496384	0.082989	-0.005900	-0.029360	-0.839355	-0.206787	-0.102051	0.578092	0.218538	-0.766677	0.173944
19195		9.506846	-0.374342	-2.624036	0.074070	-0.000532	-0.037999	-0.845703	-0.204102	-0.101074	0.578061	0.219092	-0.766478	0.174229
19196		9.391901	-0.081529	-2.735607	0.031350	0.002566	-0.042259	-0.837646	-0.205322	-0.100830	0.578117	0.219446	-0.766329	0.174252
19197		9.418783	-0.085264	-2.705499	0.018383	-0.005360	-0.035587	-0.849365	-0.204346	-0.091064	0.578141	0.219727	-0.766241	0.174205
19198		9.502452	-0.054225	-2.744683	0.039835	-0.004482	-0.035037	-0.846436	-0.206299	-0.095703	0.578058	0.220126	-0.766162	0.174326
19199		9.506701	0.247591	-2.677831	0.016078	0.000267	-0.020068	-0.849121	-0.199219	-0.101562	0.578064	0.220290	-0.766104	0.174355
19200		9.443669	0.383656	-2.653942	-0.045915	0.001615	0.014225	-0.849121	-0.206543	-0.093750	0.578162	0.219890	-0.766180	0.174197
19201		9.532573	0.467480	-2.679257	-0.061168	0.000852	0.039866	-0.835938	-0.202637	-0.100586	0.578212	0.219305	-0.766350	0.174023
19202		9.518896	0.455775	-2.780528	-0.041245	0.008565	0.060741	-0.846680	-0.211670	-0.099854	0.578288	0.218661	-0.766461	0.174094
19203		9.571880	0.511342	-2.664013	-0.018535	0.012020	0.085204	-0.848633	-0.201660	-0.100830	0.578316	0.217955	-0.766580	0.174360
19204		9.533513	0.295400	-2.642013	-0.042075	0.020414	0.115100	-0.847656	-0.201904	-0.098389	0.578383	0.216916	-0.766747	0.174698
19205		9.535432	0.193631	-2.790624	-0.047619	0.025161	0.136417	-0.847168	-0.201904	-0.089844	0.578444	0.215729	-0.766943	0.175103
19206		9.504920	0.206813	-2.676522	-0.042295	0.031955	0.150088	-0.848389	-0.191406	-0.102539	0.578465	0.214530	-0.767143	0.175633
19207		9.496263	0.071681	-2.653618	-0.069433	0.028077	0.167059	-0.842041	-0.193359	-0.094482	0.578544	0.213013	-0.767403	0.176084
19208		9.451244	-0.290410	-2.654998	-0.070065	0.020751	0.178389	-0.840576	-0.194092	-0.095703	0.578516	0.211504	-0.767730	0.176568
19209		9.510984	-0.319072	-2.578798	-0.029966	0.015173	0.164479	-0.850098	-0.184570	-0.102783	0.578414	0.210288	-0.767994	0.177203
19210		9.442710	-0.125081	-2.574933	-0.051693	0.029305	0.171618	-0.849609	-0.180664	-0.105469	0.578453	0.208828	-0.768229	0.177784
19211		9.391936	-0.262093	-2.630278	-0.084156	0.040853	0.173283	-0.848145	-0.187744	-0.100342	0.578630	0.207169	-0.768452	0.178184
19212		9.447145	-0.577139	-2.651750	-0.074043	0.037556	0.158543	-0.851807	-0.188232	-0.101807	0.578771	0.205714	-0.768658	0.178526
19213		9.500935	-0.837403	-2.587923	-0.026653	0.017009	0.137516	-0.846924	-0.183594	-0.097900	0.578737	0.204645	-0.768855	0.179013
19214		9.500539	-0.677238	-2.442974	0.013713	0.015589	0.119733	-0.850342	-0.179688	-0.099121	0.578621	0.203922	-0.768973	0.179706
19215		9.467295	-0.334803	-2.352989	-0.024476	0.001534	0.118131	-0.852295	-0.174561	-0.107178	0.578483	0.203031	-0.769212	0.180135
19216		9.511617	-0.517154	-2.405376	-0.102179	-0.011084	0.122177	-0.848877	-0.179932	-0.107910	0.578431	0.201698	-0.769620	0.180056
19217		9.605606	-0.911705	-2.575330	-0.104995	-0.017355	0.110920	-0.850098	-0.180908	-0.106934	0.578381	0.200447	-0.770035	0.179843
19218		9.555451	-0.888743	-2.823321	-0.055389	-0.018285	0.097061	-0.852539	-0.171875	-0.108398	0.578259	0.199534	-0.770357	0.179867
19219		9.327017	-0.346769	-2.896828	-0.040355	-0.016899	0.080377	-0.844727	-0.170898	-0.104004	0.578138	0.198776	-0.770623	0.179956
19220		9.295429	-0.240200	-2.734696	-0.088634	-0.016654	0.080474	-0.854492	-0.174805	-0.100830	0.578076	0.197827	-0.770962	0.179750
19221		9.480989	-0.523293	-2.810367	-0.115328	-0.019774	0.091120	-0.851074	-0.165283	-0.102295	0.578006	0.196693	-0.771388	0.179392
19222		9.490578	-0.812926	-2.693347	-0.052385	-0.020789	0.081314	-0.853027	-0.171631	-0.105225	0.577835	0.195918	-0.771702	0.179441
19223		9.435655	-0.821718	-2.736555	-0.025568	-0.028785	0.066320	-0.855713	-0.165039	-0.097900	0.577624	0.195364	-0.771983	0.179514
19224		9.450057	-0.700924	-2.582392	0.028576	-0.029608	0.045155	-0.854492	-0.165527	-0.105713	0.577294	0.195243	-0.772172	0.179895
19225		9.511540	-0.600277	-2.347629	0.035994	-0.024995	0.037629	-0.853027	-0.161377	-0.108643	0.577049	0.195151	-0.772294	0.180259
19226		9.523288	-0.671481	-2.271626	0.044200	-0.029296	0.025995	-0.849121	-0.171875	-0.100830	0.576793	0.195159	-0.772396	0.180627
19227		9.553425	-0.725674	-2.320356	0.021419	-0.027382	0.026146	-0.854004	-0.160400	-0.097656	0.576566	0.195117	-0.772535	0.180805
19228		9.445191	-0.646885	-2.586580	0.015509	-0.028132	0.011805	-0.861572	-0.156982	-0.096680	0.576323	0.195139	-0.772675	0.180961
19229		9.403757	-0.696437	-2.614159	0.030754	-0.020489	-0.004537	-0.848145	-0.161133	-0.102783	0.576115	0.195313	-0.772737	0.181170
19230		9.397393	-0.672893	-2.574829	0.073463	-0.018753	-0.017212	-0.848877	-0.170654	-0.098145	0.575923	0.195760	-0.772678	0.181549
19231		9.423916	-0.738505	-2.438152	0.094026	-0.021302	-0.020689	-0.864990	-0.166992	-0.102295	0.575678	0.196369	-0.772601	0.181994
19232		9.500133	-0.486144	-2.350713	0.106605	-0.028218	-0.032250	-0.847412	-0.166504	-0.098877	0.575397	0.197059	-0.772524	0.182463
19233		9.567466	-0.207236	-2.420200	0.030874	-0.035021	-0.016523	-0.847900	-0.167725	-0.095947	0.575163	0.197343	-0.772610	0.182528
19234		9.437806	-0.074742	-2.781837	-0.035300	-0.041566	-0.006948	-0.845215	-0.169922	-0.100586	0.574969	0.197273	-0.772850	0.182202
19235		9.374819	-0.666785	-2.851024	-0.019675	-0.028645	-0.009170	-0.854736	-0.155762	-0.107178	0.574871	0.197251	-0.772985	0.181958
19236		9.357394	-0.376371	-2.871313	-0.016197	-0.030730	-0.005412	-0.860840	-0.170654	-0.097412	0.574757	0.197151	-0.773128	0.181822
19237		9.433804	-0.375698	-2.917088	-0.037383	-0.033156	0.003227	-0.847168	-0.166992	-0.104004	0.574619	0.196953	-0.773353	0.181512
19238		9.496634	-0.577163	-2.847344	0.018090	-0.020020	0.001624	-0.863770	-0.163818	-0.093506	0.574518	0.196995	-0.773402	0.181580
19239		9.435590	-0.192104	-2.835654	0.009056	-0.016878	0.008473	-0.851562	-0.162598	-0.096680	0.574366	0.196970	-0.773499	0.181676
19240		9.405915	-0.217301	-2.977134	-0.020202	-0.009137	0.021080	-0.854980	-0.162109	-0.092529	0.574317	0.196715	-0.773605	0.181654
19241		9.364127	-0.425775	-2.926781	0.016618	-0.009255	0.026279	-0.849609	-0.163330	-0.104004	0.574173	0.196620	-0.773678	0.181904
19242		9.407658	-0.559771	-2.924777	0.106805	-0.007366	0.016839	-0.854980	-0.167236	-0.090332	0.573982	0.196958	-0.773557	0.182651
19243		9.547491	-0.321950	-2.978458	0.172510	-0.003382	0.015341	-0.860107	-0.158447	-0.094971	0.573637	0.197681	-0.773350	0.183827
19244		9.539734	0.013187	-2.980593	0.170608	0.016065	0.024713	-0.856201	-0.170898	-0.102051	0.573415	0.198262	-0.773060	0.185112
19245		9.479177	-0.024615	-3.115321	0.121886	0.033358	0.060561	-0.852539	-0.160400	-0.095947	0.573400	0.198323	-0.772799	0.186176
19246		9.348963	-0.381198	-2.822284	0.158979	0.034040	0.078791	-0.862061	-0.164062	-0.098389	0.573242	0.198481	-0.772519	0.187650
19247		9.434119	-0.520378	-2.744620	0.240974	0.027253	0.070264	-0.854736	-0.160400	-0.099609	0.572936	0.199066	-0.772130	0.189558
19248		9.628933	-0.559660	-2.458845	0.261610	0.033027	0.091758	-0.857910	-0.163818	-0.097412	0.572602	0.199606	-0.771702	0.191729
19249		9.526088	-0.657008	-2.243501	0.207507	0.029886	0.096533	-0.854004	-0.164307	-0.095947	0.572325	0.199866	-0.771389	0.193540
19250		9.422442	-0.824145	-2.364657	0.133814	0.016906	0.081899	-0.859131	-0.151855	-0.094482	0.572106	0.199903	-0.771229	0.194780
19251		9.376982	-0.933673	-2.631352	0.140079	0.034513	0.064857	-0.854736	-0.151855	-0.106201	0.571979	0.200057	-0.770949	0.196098
19252		9.398509	-1.343498	-2.767757	0.178567	0.030226	0.038207	-0.862793	-0.149170	-0.090332	0.571873	0.200517	-0.770551	0.197497
19253		9.378314	-1.424050	-2.719592	0.288940	0.016336	-0.000050	-0.858887	-0.157715	-0.092285	0.571452	0.201849	-0.770012	0.199454
19254		9.450289	-1.236837	-2.694658	0.343265	0.022000	-0.031011	-0.856934	-0.156250	-0.092529	0.571060	0.203611	-0.769292	0.201552
19255		9.407369	-1.286892	-2.490225	0.350195	0.013541	-0.042169	-0.848877	-0.157715	-0.090820	0.570615	0.205492	-0.768571	0.203644
19256		9.366628	-0.785813	-2.672586	0.296321	0.022110	-0.067702	-0.854248	-0.155273	-0.095459	0.570355	0.207283	-0.767846	0.205284
19257		9.500760	-1.001863	-2.688197	0.267163	0.010893	-0.070008	-0.854248	-0.166748	-0.094727	0.570091	0.208933	-0.767209	0.206722
19258		9.401467	-0.458888	-2.790772	0.278258	0.007047	-0.069904	-0.855469	-0.166992	-0.084473	0.569805	0.210636	-0.766569	0.208150
19259		9.518011	-0.210053	-2.885800	0.231341	0.017901	-0.050339	-0.860840	-0.166016	-0.090332	0.569575	0.212020	-0.766014	0.209414
19260		9.377262	-0.410054	-2.924693	0.199711	0.027998	-0.024868	-0.857666	-0.167725	-0.082520	0.569448	0.213031	-0.765499	0.210615
19261		9.556208	-0.201845	-2.637083	0.221162	0.028772	-0.013143	-0.850342	-0.164551	-0.095215	0.569226	0.214108	-0.764977	0.212012
19262		9.649655	-0.165906	-2.671102	0.169743	0.025758	0.013226	-0.849365	-0.167969	-0.086182	0.569095	0.214729	-0.764569	0.213207
19263		9.589176	-0.300856	-2.687400	0.137977	0.032005	0.054165	-0.859619	-0.165527	-0.089600	0.568946	0.214970	-0.764280	0.214392
19264		9.549956	-0.312321	-2.825744	0.150638	0.035421	0.071009	-0.852539	-0.158936	-0.089355	0.568775	0.215124	-0.763983	0.215748
19265		9.448897	-0.223864	-2.828251	0.128941	0.042338	0.108700	-0.854980	-0.165283	-0.091553	0.568605	0.214936	-0.763752	0.217196
19266		9.457741	-0.771744	-2.740695	0.150320	0.048594	0.122967	-0.851074	-0.159424	-0.086914	0.568439	0.214732	-0.763475	0.218800
19267		9.411444	-0.892912	-2.507366	0.183125	0.060237	0.130839	-0.858154	-0.168457	-0.092285	0.568236	0.214641	-0.763103	0.220706
19268		9.559376	-0.593633	-2.466321	0.158964	0.062808	0.126150	-0.848389	-0.155029	-0.088623	0.568150	0.214428	-0.762746	0.222360
19269		9.677517	-1.088570	-2.327722	0.091867	0.069291	0.142324	-0.856934	-0.154541	-0.091064	0.568146	0.213814	-0.762512	0.223762
19270		9.527237	-1.094628	-2.540841	0.088785	0.078429	0.133862	-0.863037	-0.153320	-0.100830	0.568230	0.213201	-0.762226	0.225106
19271		9.517044	-0.875886	-2.675532	0.055158	0.077305	0.125753	-0.859131	-0.155029	-0.093262	0.568426	0.212435	-0.761974	0.226182
19272		9.485850	-1.241546	-2.572922	0.065797	0.072390	0.113818	-0.852051	-0.152100	-0.092285	0.568559	0.211848	-0.761722	0.227245
19273		9.389374	-1.063403	-2.360455	0.090728	0.072804	0.101375	-0.856201	-0.152344	-0.091309	0.568663	0.211475	-0.761396	0.228421
19274		9.438580	-0.707001	-2.305497	0.025984	0.072433	0.104745	-0.857178	-0.141846	-0.089600	0.568864	0.210777	-0.761209	0.229191
19275		9.512887	-1.172422	-2.386835	-0.032858	0.075228	0.113096	-0.860107	-0.143555	-0.099854	0.569133	0.209746	-0.761142	0.229689
19276		9.455740	-1.178844	-2.461473	-0.016751	0.079955	0.100676	-0.854980	-0.145508	-0.094727	0.569482	0.208821	-0.760978	0.230210
19277		9.431947	-1.168440	-2.449504	-0.005610	0.077201	0.099336	-0.848877	-0.142822	-0.100098	0.569774	0.207998	-0.760814	0.230774
19278		9.431627	-0.944488	-2.441538	0.045756	0.073512	0.097108	-0.859619	-0.137451	-0.103516	0.569980	0.207429	-0.760547	0.231653
19279		9.330354	-0.877099	-2.243264	0.066634	0.061130	0.112343	-0.856201	-0.144287	-0.105957	0.570040	0.206858	-0.760328	0.232733
19280		9.296234	-1.162459	-2.139192	0.064837	0.048806	0.125554	-0.860352	-0.144775	-0.101318	0.570029	0.206227	-0.760182	0.233796
19281		9.430985	-0.979092	-2.118918	0.062267	0.038754	0.122718	-0.859131	-0.139648	-0.100586	0.569939	0.205637	-0.760101	0.234798
19282		9.492853	-1.189121	-2.213153	-0.035274	0.034007	0.128208	-0.860596	-0.134277	-0.103760	0.569961	0.204561	-0.760244	0.235220
19283		9.401504	-1.551201	-2.376301	-0.076790	0.042426	0.122880	-0.860352	-0.128906	-0.106445	0.570122	0.203289	-0.760413	0.235387
19284		9.185940	-1.610626	-2.253115	-0.060310	0.036075	0.099351	-0.861816	-0.130615	-0.106201	0.570262	0.202247	-0.760533	0.235556
19285		9.253794	-1.779018	-2.252728	-0.078498	0.029337	0.084986	-0.860596	-0.132812	-0.106445	0.570420	0.201228	-0.760699	0.235512
19286		9.275611	-2.071585	-2.330853	-0.041564	0.040390	0.057239	-0.862061	-0.127197	-0.104004	0.570647	0.200548	-0.760690	0.235570
19287		9.440369	-1.962657	-2.303364	0.010720	0.039078	0.017214	-0.867676	-0.126953	-0.099121	0.570828	0.200374	-0.760531	0.235791
19288		9.507419	-1.369260	-2.418715	-0.012141	0.028618	-0.007871	-0.862061	-0.119873	-0.109375	0.571002	0.200279	-0.760447	0.235722
19289		9.605880	-1.560439	-2.260003	-0.036136	0.035280	-0.015665	-0.859131	-0.127930	-0.108643	0.571309	0.200074	-0.760332	0.235525
19290		9.303956	-1.363607	-2.205693	-0.025092	0.027606	-0.042877	-0.863525	-0.126953	-0.112061	0.571615	0.200130	-0.760183	0.235214
19291		9.207736	-1.627180	-2.064138	-0.035388	0.013007	-0.043057	-0.860107	-0.128418	-0.105225	0.571854	0.200150	-0.760119	0.234823
19292		9.093288	-1.998150	-2.007781	-0.020412	-0.001989	-0.070899	-0.862793	-0.135986	-0.103516	0.571996	0.200473	-0.760071	0.234357
19293		9.277804	-2.035250	-2.072791	0.011881	-0.013472	-0.111278	-0.857422	-0.132568	-0.114502	0.572095	0.201240	-0.759951	0.233848
19294		9.609430	-1.893751	-2.017334	0.068152	-0.014360	-0.145243	-0.853516	-0.138184	-0.104980	0.572203	0.202465	-0.759626	0.233582
19295		9.495597	-1.165224	-2.047220	0.089701	-0.021492	-0.167180	-0.852783	-0.137451	-0.102783	0.572237	0.203979	-0.759280	0.233306
19296		9.492819	-0.996685	-2.090157	0.033988	-0.038018	-0.169511	-0.858887	-0.144043	-0.102051	0.572250	0.205271	-0.759123	0.232649
19297		9.499991	-0.973478	-2.061121	0.000275	-0.045070	-0.156885	-0.844727	-0.146973	-0.103027	0.572255	0.206337	-0.759089	0.231805
19298		9.569740	-1.138972	-2.025899	-0.018298	-0.067388	-0.158258	-0.854492	-0.151855	-0.101074	0.572168	0.207385	-0.759172	0.230809
19299		9.638544	-1.364734	-2.074805	-0.007537	-0.066021	-0.163854	-0.853760	-0.146729	-0.101807	0.572075	0.208512	-0.759228	0.229838
19300		9.490703	-1.520268	-2.282086	-0.002893	-0.056901	-0.177954	-0.854248	-0.148193	-0.104492	0.572052	0.209710	-0.759206	0.228877
19301		9.615946	-1.254445	-2.492945	0.009475	-0.049375	-0.188405	-0.854980	-0.150391	-0.099854	0.572088	0.211008	-0.759092	0.227972
19302		9.664457	-0.752002	-2.202501	0.014111	-0.041059	-0.202098	-0.854492	-0.160400	-0.099609	0.572173	0.212401	-0.758919	0.227034
19303		9.622607	-0.036480	-2.303406	-0.065475	-0.030199	-0.171409	-0.852539	-0.165039	-0.114258	0.572422	0.213224	-0.758889	0.225736
19304		9.595774	-0.256482	-2.457798	-0.118453	-0.034128	-0.131290	-0.860352	-0.158691	-0.102539	0.572732	0.213538	-0.758985	0.224325
19305		9.416284	-0.645894	-2.813590	-0.131769	-0.017819	-0.094276	-0.858887	-0.156250	-0.105225	0.573033	0.213496	-0.759155	0.223016
19306		9.315140	-0.985055	-2.796586	-0.026209	-0.024527	-0.102029	-0.846191	-0.154785	-0.102051	0.573124	0.214008	-0.759139	0.222344
19307		9.475313	-0.685427	-2.235424	0.042052	-0.041057	-0.098819	-0.845215	-0.161133	-0.108154	0.572971	0.214869	-0.759084	0.222097
19308		9.694081	-0.429132	-1.871601	0.011347	-0.045617	-0.091098	-0.853516	-0.162842	-0.105225	0.572867	0.215552	-0.759089	0.221689
19309		9.713805	-0.516240	-2.411699	-0.075827	-0.042534	-0.052056	-0.850586	-0.163330	-0.099121	0.572853	0.215556	-0.759326	0.220907
19310		9.429163	-1.010951	-2.841629	-0.002144	-0.040761	-0.057818	-0.852295	-0.163330	-0.104980	0.572705	0.215956	-0.759427	0.220550
19311		9.551782	-0.712966	-2.810135	0.066342	-0.036941	-0.064774	-0.851562	-0.170410	-0.096680	0.572496	0.216707	-0.759351	0.220621
19312		9.543385	-0.343132	-2.488274	-0.028044	-0.022732	-0.053990	-0.852295	-0.170898	-0.096924	0.572503	0.216941	-0.759421	0.220128
19313		9.590688	-0.926467	-2.390301	-0.185863	-0.025389	-0.038006	-0.855957	-0.168457	-0.100342	0.572751	0.216323	-0.759821	0.218708
19314		9.440795	-1.254611	-2.439313	-0.175177	-0.019205	-0.068031	-0.855469	-0.164795	-0.103027	0.573080	0.215917	-0.760109	0.217239
19315		9.543898	-1.024593	-2.669730	-0.143112	-0.015870	-0.089516	-0.854736	-0.167236	-0.098633	0.573414	0.215778	-0.760279	0.215899
19316		9.373326	-0.596919	-2.512322	-0.159766	-0.007900	-0.093189	-0.854492	-0.164551	-0.092773	0.573817	0.215578	-0.760447	0.214431
19317		9.619289	-0.330739	-2.396036	-0.167781	0.002418	-0.085518	-0.855957	-0.166992	-0.106201	0.574253	0.215266	-0.760620	0.212958
19318		9.560690	-0.328743	-2.448303	-0.232277	0.000249	-0.058756	-0.852783	-0.167236	-0.111816	0.574799	0.214468	-0.760915	0.211232
19319		9.314164	-0.756942	-2.578483	-0.210788	-0.003385	-0.054078	-0.845459	-0.168213	-0.103760	0.575294	0.213746	-0.761175	0.209671
19320		9.435181	-0.489162	-2.700061	-0.167820	-0.008902	-0.060162	-0.852783	-0.165771	-0.103760	0.575655	0.213302	-0.761398	0.208321
19321		9.430359	-0.261113	-2.685132	-0.208911	-0.012349	-0.043098	-0.853271	-0.169189	-0.105957	0.576026	0.212536	-0.761749	0.206788
19322		9.539411	-0.428830	-2.344510	-0.217929	-0.002879	-0.021645	-0.857178	-0.171631	-0.097656	0.576447	0.211580	-0.762097	0.205309
19323		9.512510	-0.536009	-2.480487	-0.247424	-0.003678	-0.014682	-0.856201	-0.169678	-0.104980	0.576863	0.210453	-0.762541	0.203641
19324		9.431834	-0.851736	-2.712293	-0.243916	-0.000059	-0.012516	-0.857910	-0.178467	-0.114014	0.577317	0.209309	-0.762940	0.202034
19325		9.337263	-1.261214	-2.684102	-0.188558	-0.004577	-0.036959	-0.854248	-0.173340	-0.103516	0.577732	0.208606	-0.763186	0.200642
19326		9.337039	-1.386165	-2.517990	-0.065254	-0.008144	-0.077037	-0.853516	-0.169678	-0.108154	0.577922	0.208763	-0.763212	0.199829
19327		9.413380	-0.835203	-2.573029	-0.027764	-0.010818	-0.102321	-0.853271	-0.166748	-0.108643	0.578086	0.209247	-0.763131	0.199155
19328		9.453657	-0.767074	-2.553791	-0.043896	-0.018979	-0.113722	-0.849365	-0.182861	-0.108398	0.578240	0.209727	-0.763099	0.198324
19329		9.500352	-0.635697	-2.578967	-0.009109	-0.018181	-0.124621	-0.848633	-0.171143	-0.105713	0.578377	0.210489	-0.762969	0.197618
19330		9.552801	-0.316956	-2.543947	0.032682	-0.023920	-0.122451	-0.853271	-0.180908	-0.104492	0.578372	0.211416	-0.762821	0.197216
19331		9.584905	-0.185075	-2.584583	0.081068	-0.018532	-0.109394	-0.852051	-0.187256	-0.102783	0.578298	0.212498	-0.762590	0.197163
19332		9.575602	0.300442	-2.729801	0.048035	-0.019405	-0.083523	-0.850098	-0.183105	-0.102539	0.578235	0.213275	-0.762461	0.197006
19333		9.424628	0.146885	-2.525419	0.011081	-0.025380	-0.051998	-0.846924	-0.186035	-0.101562	0.578143	0.213669	-0.762481	0.196771
19334		9.516783	-0.117682	-2.694777	-0.019713	-0.023071	-0.019798	-0.843018	-0.180420	-0.100586	0.578069	0.213719	-0.762595	0.196492
19335		9.576414	-0.301399	-2.397685	-0.029178	-0.022109	-0.011049	-0.845947	-0.182617	-0.102783	0.577996	0.213655	-0.762740	0.196214
19336		9.510489	-0.401003	-2.484793	-0.038104	-0.026204	0.002296	-0.853760	-0.169922	-0.099854	0.577902	0.213468	-0.762936	0.195933
19337		9.574330	-0.343502	-2.557368	-0.037855	-0.028259	0.002281	-0.849854	-0.174561	-0.109375	0.577765	0.213239	-0.763171	0.195673
19338		9.482516	-0.510663	-2.585269	-0.036255	-0.023098	0.010629	-0.847900	-0.183838	-0.100830	0.577693	0.212957	-0.763354	0.195475
19339		9.481108	-0.481201	-2.677163	0.035372	-0.017836	0.004266	-0.845459	-0.175049	-0.104736	0.577515	0.213104	-0.763396	0.195677
19340		9.440379	-0.437406	-2.716903	0.024780	-0.022748	0.020721	-0.850342	-0.184326	-0.105225	0.577306	0.213068	-0.763504	0.195910
19341		9.460594	-0.729265	-2.691053	0.039056	-0.024308	0.022738	-0.851807	-0.175537	-0.110352	0.577071	0.213113	-0.763591	0.196215
19342		9.460198	-0.674681	-2.455572	0.069997	-0.015040	0.001721	-0.841797	-0.178467	-0.100098	0.576888	0.213382	-0.763540	0.196657
19343		9.544607	-0.564642	-2.346523	0.062123	-0.013941	-0.000655	-0.848633	-0.182129	-0.099365	0.576695	0.213676	-0.763508	0.197029
19344		9.536161	-0.327854	-2.360789	0.006019	-0.010033	0.010323	-0.847412	-0.177734	-0.101807	0.576607	0.213626	-0.763572	0.197092
19345		9.522215	-0.322900	-2.432667	-0.007491	-0.011331	0.010883	-0.847900	-0.177002	-0.101074	0.576542	0.213492	-0.763662	0.197082
19346		9.502616	-0.534382	-2.530200	0.001161	-0.012727	0.014616	-0.860596	-0.174072	-0.105957	0.576443	0.213376	-0.763753	0.197142
19347		9.436135	-0.535129	-2.586559	0.041894	-0.014218	0.010310	-0.842773	-0.176758	-0.099365	0.576282	0.213446	-0.763778	0.197441
19348		9.465956	-0.165850	-2.681720	0.023963	-0.012122	0.010315	-0.851074	-0.179199	-0.102783	0.576150	0.213479	-0.763820	0.197628
19349		9.492406	-0.283491	-2.626124	-0.045238	-0.010928	0.034122	-0.854492	-0.178955	-0.097656	0.576125	0.213010	-0.764008	0.197480
19350		9.408722	-0.764590	-2.601845	-0.039682	-0.006762	0.026166	-0.845215	-0.182617	-0.091553	0.576106	0.212624	-0.764168	0.197334
19351		9.454167	-0.754780	-2.556232	0.000406	-0.011568	0.012846	-0.852783	-0.179443	-0.099854	0.575988	0.212571	-0.764263	0.197367
19352		9.498454	-0.487774	-2.565635	-0.002850	-0.010822	0.008611	-0.853760	-0.178223	-0.095947	0.575919	0.212480	-0.764341	0.197364
19353		9.523921	-0.330995	-2.532534	-0.025596	-0.005534	0.014320	-0.850342	-0.179443	-0.103271	0.575896	0.212243	-0.764453	0.197254
19354		9.484555	-0.366430	-2.522733	-0.040674	-0.000130	0.022806	-0.850830	-0.182861	-0.101074	0.575955	0.211856	-0.764556	0.197096
19355		9.518206	-0.590593	-2.458818	-0.036444	0.004405	0.024771	-0.849121	-0.187012	-0.104248	0.576027	0.211489	-0.764635	0.196973
19356		9.517633	-0.631792	-2.565884	-0.041544	0.008030	0.027068	-0.859131	-0.181152	-0.103027	0.576146	0.211085	-0.764695	0.196826
19357		9.477887	-0.671890	-2.653083	-0.039158	0.005213	0.022712	-0.840332	-0.178467	-0.097656	0.576232	0.210698	-0.764775	0.196677
19358		9.517639	-0.504014	-2.569428	-0.016177	0.013066	0.013980	-0.851318	-0.180176	-0.104248	0.576324	0.210500	-0.764765	0.196658
19359		9.532189	-0.414427	-2.359400	-0.009268	0.010925	0.016600	-0.853760	-0.177734	-0.098389	0.576411	0.210294	-0.764750	0.196684
19360		9.539589	-0.407000	-2.236263	-0.040824	0.006122	0.025006	-0.853027	-0.175537	-0.097656	0.576479	0.209899	-0.764843	0.196544
19361		9.546057	-0.645359	-2.278880	-0.070707	0.007239	0.027896	-0.852783	-0.170410	-0.100098	0.576595	0.209338	-0.764988	0.196235
19362		9.492640	-0.595222	-2.483283	-0.121187	0.011335	0.028729	-0.853760	-0.178223	-0.104980	0.576829	0.208503	-0.765197	0.195624
19363		9.439919	-0.476219	-2.613165	-0.179632	0.016018	0.032607	-0.851318	-0.178223	-0.107422	0.577214	0.207368	-0.765464	0.194650
19364		9.525802	-0.328276	-2.642349	-0.228395	0.029769	0.049014	-0.857178	-0.173340	-0.103027	0.577751	0.205871	-0.765762	0.193465
19365		9.527637	-0.499840	-2.532889	-0.183945	0.064122	0.047527	-0.850830	-0.167969	-0.104736	0.578402	0.204538	-0.765841	0.192621
19366		9.549286	-0.448472	-2.596322	-0.163754	0.052607	0.051329	-0.853271	-0.171143	-0.107666	0.578936	0.203289	-0.765947	0.191915
19367		9.590492	-0.389043	-2.632373	-0.125820	0.048226	0.064273	-0.846924	-0.164795	-0.109863	0.579367	0.202154	-0.766027	0.191495
19368		9.564265	-0.656061	-2.695113	-0.029821	0.032486	0.063969	-0.859131	-0.169922	-0.104736	0.579539	0.201496	-0.766026	0.191672
19369		9.578669	-0.592956	-2.512764	0.009128	0.028940	0.054018	-0.854004	-0.166748	-0.107178	0.579614	0.201117	-0.765980	0.192027
19370		9.662733	-0.848684	-2.332878	0.060361	0.019786	0.051598	-0.852295	-0.161621	-0.111328	0.579558	0.201008	-0.765885	0.192689
19371		9.440078	-0.862939	-2.392017	0.069199	0.018923	0.036461	-0.851562	-0.168945	-0.111816	0.579518	0.201017	-0.765748	0.193342
19372		9.316838	-0.746730	-2.400285	-0.013983	0.018307	0.033830	-0.847656	-0.164795	-0.113281	0.579628	0.200667	-0.765733	0.193437
19373		9.491294	-1.066870	-2.473618	0.011211	0.011427	0.022198	-0.846191	-0.157715	-0.104736	0.579673	0.200514	-0.765689	0.193634
19374		9.559551	-0.799422	-2.334653	0.106558	0.019714	-0.003831	-0.852295	-0.164062	-0.105225	0.579611	0.200981	-0.765434	0.194342
19375		9.558168	-0.291282	-2.356886	0.065698	0.016067	0.013136	-0.850098	-0.163818	-0.115723	0.579571	0.201160	-0.765287	0.194854
19376		9.516340	0.106072	-2.282149	0.002160	0.011028	0.038913	-0.848877	-0.156494	-0.112549	0.579609	0.200846	-0.765285	0.195073
19377		9.493479	-0.267757	-2.497189	-0.080013	-0.004194	0.069193	-0.855469	-0.166992	-0.114746	0.579618	0.199953	-0.765557	0.194897
19378		9.626490	-0.646881	-2.540804	0.023129	-0.001435	0.074446	-0.856201	-0.161133	-0.109375	0.579480	0.199547	-0.765641	0.195389
19379		9.481546	-0.643150	-2.469179	0.111169	-0.005831	0.072198	-0.843994	-0.162598	-0.102295	0.579144	0.199588	-0.765618	0.196432
19380		9.477274	-0.395378	-2.304278	0.077223	-0.011606	0.078344	-0.858154	-0.158691	-0.116211	0.578797	0.199480	-0.765689	0.197286
19381		9.547518	-0.456400	-2.171171	-0.009394	-0.010145	0.093744	-0.854736	-0.154053	-0.111572	0.578628	0.198780	-0.765904	0.197654
19382		9.511544	-0.585477	-2.291079	-0.105205	-0.020748	0.109549	-0.853760	-0.157959	-0.110352	0.578503	0.197542	-0.766365	0.197476
19383		9.430157	-0.634875	-2.463802	-0.172686	-0.031025	0.115218	-0.852783	-0.152100	-0.112549	0.578414	0.195985	-0.766987	0.196870
19384		9.419122	-1.052211	-2.549370	-0.141697	-0.041033	0.098010	-0.855713	-0.155518	-0.114746	0.578243	0.194684	-0.767576	0.196368
19385		9.361011	-1.477245	-2.433249	-0.007418	-0.051262	0.054028	-0.851807	-0.151367	-0.118164	0.577873	0.194335	-0.767913	0.196487
19386		9.430583	-0.922532	-1.920537	0.104583	-0.062545	0.012583	-0.855225	-0.154541	-0.109619	0.577332	0.194791	-0.768043	0.197113
19387		9.610859	-0.083809	-2.015763	-0.038523	-0.070866	0.040516	-0.856445	-0.150879	-0.105469	0.576895	0.194424	-0.768509	0.196940
19388		9.499682	-0.428876	-2.533188	-0.243634	-0.070933	0.083626	-0.857910	-0.148682	-0.101562	0.576701	0.192794	-0.769391	0.195665
19389		9.266913	-1.352787	-3.055590	-0.169696	-0.073399	0.060218	-0.854980	-0.149170	-0.106445	0.576392	0.191679	-0.770133	0.194746
19390		9.411481	-1.144807	-3.155382	0.047230	-0.069299	0.003233	-0.858398	-0.147461	-0.111816	0.575880	0.191958	-0.770395	0.194952
19391		9.476976	-0.362349	-2.813068	0.069391	-0.056173	0.000150	-0.854004	-0.150391	-0.101807	0.575445	0.192314	-0.770541	0.195306
19392		9.575885	-0.288735	-2.713516	-0.025736	-0.039123	0.034868	-0.856934	-0.144531	-0.104492	0.575183	0.192003	-0.770831	0.195240
19393		9.478539	-0.645411	-2.849354	-0.042379	-0.021075	0.050703	-0.849854	-0.146729	-0.104736	0.575044	0.191451	-0.771088	0.195176
19394		9.416634	-1.137113	-3.000785	0.063066	-0.016466	0.034089	-0.860107	-0.146729	-0.096436	0.574801	0.191522	-0.771115	0.195718
19395		9.502214	-0.733601	-2.700460	0.193122	-0.001714	0.014158	-0.847656	-0.150879	-0.103027	0.574440	0.192329	-0.770852	0.197014
19396		9.570922	-0.490186	-2.422244	0.114908	0.009977	0.022189	-0.860596	-0.144043	-0.104736	0.574304	0.192701	-0.770642	0.197870
19397		9.474533	-0.894979	-2.395797	0.011954	-0.000426	0.039035	-0.850098	-0.149658	-0.099854	0.574234	0.192445	-0.770692	0.198128
19398		9.363206	-1.191701	-2.856317	0.086427	0.006832	0.007936	-0.857178	-0.135986	-0.103027	0.574133	0.192781	-0.770529	0.198726
19399		9.392467	-0.768254	-2.488327	0.176773	0.003672	-0.019977	-0.862549	-0.141113	-0.102051	0.573908	0.193670	-0.770201	0.199778
19400		9.385272	-0.532233	-2.627905	0.114214	0.004248	0.000874	-0.857666	-0.145264	-0.100098	0.573753	0.194135	-0.770007	0.200519
19401		9.536346	-0.960407	-2.691904	0.146201	-0.002272	0.009004	-0.862549	-0.144531	-0.099854	0.573489	0.194736	-0.769799	0.201490
19402		9.382446	-0.669885	-2.480858	0.215458	-0.023095	0.005258	-0.858154	-0.149658	-0.100830	0.572981	0.195717	-0.769570	0.202852
19403		9.509280	-0.591442	-2.369891	0.187662	-0.037260	0.016016	-0.855225	-0.149170	-0.101074	0.572423	0.196536	-0.769458	0.204060
19404		9.518667	-0.644562	-2.465852	0.126025	-0.027117	0.032675	-0.854248	-0.146729	-0.100098	0.572006	0.196936	-0.769423	0.204973
19405		9.432552	-1.049430	-2.530587	0.041990	-0.022574	0.035611	-0.859863	-0.147705	-0.097656	0.571748	0.196904	-0.769516	0.205371
19406		9.431559	-1.411022	-2.710170	0.097844	-0.018121	0.015866	-0.859619	-0.149902	-0.094238	0.571453	0.197259	-0.769468	0.206033
19407		9.471111	-1.134032	-2.799590	0.171072	-0.022286	-0.012561	-0.861572	-0.141357	-0.102051	0.571048	0.198168	-0.769270	0.207018
19408		9.436556	-1.233912	-2.631097	0.194385	-0.025321	-0.017377	-0.856445	-0.146729	-0.092041	0.570616	0.199173	-0.769028	0.208143
19409		9.493819	-1.263740	-2.686059	0.222155	-0.011160	-0.026322	-0.866455	-0.141846	-0.098389	0.570213	0.200386	-0.768666	0.209415
19410		9.342883	-1.025451	-2.789828	0.247858	-0.005147	-0.045381	-0.858154	-0.147705	-0.103027	0.569855	0.201786	-0.768193	0.210778
19411		9.270133	-1.040718	-2.853159	0.218632	-0.009654	-0.046634	-0.857422	-0.146973	-0.097900	0.569546	0.203076	-0.767761	0.211945
19412		9.460163	-1.063537	-2.864442	0.236003	-0.001751	-0.066444	-0.864258	-0.147949	-0.096680	0.569271	0.204566	-0.767239	0.213139
19413		9.410166	-1.031494	-2.835291	0.235947	0.003820	-0.072353	-0.864746	-0.154541	-0.097900	0.569035	0.206076	-0.766684	0.214308
19414		9.340424	-1.028566	-2.755555	0.231331	0.002715	-0.078116	-0.863037	-0.152832	-0.099854	0.568821	0.207608	-0.766120	0.215410
19415		9.579359	-0.242969	-2.606728	0.230325	0.023606	-0.082401	-0.854492	-0.153076	-0.093994	0.568753	0.209115	-0.765445	0.216529
19416		9.504773	-0.367253	-2.681355	0.111583	0.024419	-0.042505	-0.859863	-0.154053	-0.090332	0.568803	0.209823	-0.765057	0.217082
19417		9.552449	-0.918818	-2.690180	0.154846	0.031156	-0.023578	-0.855957	-0.157715	-0.100098	0.568770	0.210604	-0.764606	0.218003
19418		9.585035	-0.412755	-2.717999	0.236058	0.030862	-0.025096	-0.854980	-0.153320	-0.090088	0.568637	0.211767	-0.763973	0.219437
19419		9.704745	0.169579	-2.706109	0.176983	0.035964	0.016676	-0.854736	-0.156250	-0.094727	0.568517	0.212390	-0.763524	0.220703
19420		9.584364	-0.389731	-2.469095	0.129411	0.039799	0.068014	-0.861572	-0.151123	-0.087646	0.568433	0.212446	-0.763221	0.221911
19421		9.637305	0.096127	-2.450842	0.141979	0.041710	0.100320	-0.854492	-0.157227	-0.095459	0.568241	0.212354	-0.762969	0.223352
19422		9.606089	-0.148662	-2.607610	0.045767	0.045583	0.157533	-0.860352	-0.155762	-0.094727	0.568180	0.211437	-0.762947	0.224451
19423		9.477238	-1.048375	-2.607007	0.077952	0.058045	0.177374	-0.859131	-0.147461	-0.098389	0.568098	0.210518	-0.762846	0.225861
19424		9.261623	-1.650774	-2.584188	0.158587	0.051819	0.154490	-0.856689	-0.145996	-0.102051	0.567879	0.210124	-0.762576	0.227682
19425		9.355706	-1.760697	-2.520521	0.160769	0.052444	0.122013	-0.847900	-0.151611	-0.083740	0.567734	0.209941	-0.762229	0.229368
19426		9.464244	-1.665798	-2.528287	0.097234	0.069823	0.088300	-0.856689	-0.139404	-0.097412	0.567815	0.209707	-0.761894	0.230493
19427		9.504012	-2.060019	-2.282965	0.045957	0.081219	0.044585	-0.848389	-0.147461	-0.096924	0.568171	0.209426	-0.761509	0.231141
19428		9.399307	-1.775524	-2.260313	0.080757	0.074471	-0.008373	-0.857422	-0.148682	-0.094727	0.568534	0.209690	-0.760986	0.231732
19429		9.424078	-1.549570	-2.100816	0.093473	0.069617	-0.038848	-0.856689	-0.142090	-0.094238	0.568890	0.210214	-0.760420	0.232241
19430		9.461754	-1.149575	-2.090141	0.080567	0.065261	-0.044821	-0.851318	-0.150635	-0.104004	0.569236	0.210714	-0.759898	0.232648
19431		9.318069	-1.071197	-2.444144	0.099793	0.063124	-0.044626	-0.856445	-0.149170	-0.097656	0.569580	0.211310	-0.759313	0.233174
19432		9.292693	-1.482136	-2.260948	0.149725	0.049509	-0.044141	-0.858154	-0.144287	-0.103027	0.569718	0.212170	-0.758721	0.233984
19433		9.431110	-0.761560	-2.183821	0.237760	0.022275	-0.051082	-0.861572	-0.149414	-0.101318	0.569549	0.213522	-0.758065	0.235289
19434		9.583243	-0.182924	-2.211789	0.216159	0.017797	-0.023087	-0.862793	-0.158203	-0.098389	0.569333	0.214607	-0.757523	0.236566
19435		9.431203	-0.302143	-2.487425	0.183356	0.023111	0.025841	-0.858887	-0.153076	-0.094238	0.569113	0.215235	-0.757107	0.237853
19436		9.300143	-0.915504	-2.546767	0.227150	0.014090	0.052273	-0.854492	-0.145752	-0.099854	0.568684	0.215923	-0.756705	0.239529
19437		9.338204	-0.528273	-2.242814	0.197470	0.009364	0.069108	-0.852051	-0.143555	-0.092041	0.568254	0.216355	-0.756399	0.241117
19438		9.498608	-0.971660	-2.135907	0.100077	0.014609	0.080009	-0.854248	-0.145752	-0.103760	0.567983	0.216260	-0.756303	0.242143
19439		9.512060	-0.910355	-1.884291	-0.036954	0.026436	0.088977	-0.859131	-0.143311	-0.097656	0.568061	0.215416	-0.756409	0.242381
19440		9.555338	-1.353286	-2.160057	-0.121813	0.005999	0.088834	-0.854736	-0.142578	-0.098389	0.568135	0.214218	-0.756804	0.242033
19441		9.471418	-1.624067	-2.275582	-0.084130	-0.015699	0.068621	-0.860596	-0.145264	-0.100830	0.568050	0.213376	-0.757184	0.241791
19442		9.433563	-1.389414	-2.292423	-0.020052	-0.018849	0.040383	-0.851074	-0.143555	-0.095459	0.567899	0.213020	-0.757392	0.241807
19443		9.320995	-1.376900	-2.269853	-0.020401	-0.021050	0.038283	-0.869141	-0.142578	-0.097412	0.567722	0.212699	-0.757615	0.241809
19444		9.432958	-1.594405	-2.007572	-0.010375	-0.029688	0.026045	-0.862305	-0.143066	-0.094971	0.567499	0.212492	-0.757845	0.241791
19445		9.403335	-1.629302	-1.929474	-0.002930	-0.033939	0.004540	-0.861328	-0.140625	-0.093506	0.567275	0.212480	-0.758041	0.241712
19446		9.470261	-1.443496	-2.125792	0.003183	-0.042953	-0.013692	-0.868652	-0.138916	-0.094238	0.567014	0.212629	-0.758239	0.241574
19447		9.390880	-1.273489	-2.127920	-0.051270	-0.049754	-0.018217	-0.856201	-0.142090	-0.098877	0.566815	0.212548	-0.758574	0.241059
19448		9.508234	-1.550342	-2.082077	-0.109714	-0.066674	-0.033137	-0.859375	-0.148926	-0.098633	0.566669	0.212334	-0.759050	0.240092
19449		9.500168	-1.533141	-1.967944	-0.132855	-0.082334	-0.054506	-0.864014	-0.139404	-0.100098	0.566515	0.212188	-0.759601	0.238838
19450		9.561641	-1.432515	-2.030196	-0.141855	-0.084299	-0.078815	-0.863525	-0.138672	-0.091553	0.566405	0.212127	-0.760142	0.237429
19451		9.584679	-1.305081	-2.327429	-0.183703	-0.071722	-0.081097	-0.862793	-0.146729	-0.097412	0.566422	0.211865	-0.760724	0.235751
19452		9.616334	-1.617444	-2.489104	-0.150414	-0.090833	-0.088003	-0.856934	-0.145508	-0.092285	0.566304	0.211849	-0.761288	0.234222
19453		9.455885	-1.314520	-2.361808	-0.037545	-0.078225	-0.120970	-0.863525	-0.148193	-0.090332	0.566113	0.212558	-0.761524	0.233273
19454		9.370106	-0.681936	-2.642025	-0.055006	-0.078167	-0.113325	-0.860596	-0.154785	-0.089355	0.565935	0.213131	-0.761812	0.232240
19455		9.430792	-0.728116	-2.736117	-0.088664	-0.074395	-0.086956	-0.856934	-0.148926	-0.085205	0.565796	0.213383	-0.762186	0.231115
19456		9.461245	-0.997164	-2.430332	-0.055312	-0.073998	-0.084984	-0.852295	-0.147461	-0.086426	0.565577	0.213772	-0.762512	0.230217
19457		9.643969	-0.517120	-2.447991	-0.054867	-0.062389	-0.068729	-0.852783	-0.151855	-0.091064	0.565404	0.214034	-0.762803	0.229432
19458		9.566521	-0.744329	-2.793624	-0.139110	-0.046594	-0.038753	-0.863770	-0.155762	-0.090088	0.565446	0.213681	-0.763213	0.228289
19459		9.164180	-1.571537	-3.142625	-0.124494	-0.041507	-0.040226	-0.855225	-0.149658	-0.087158	0.565496	0.213391	-0.763576	0.227223
19460		9.257512	-1.771268	-3.030728	0.042371	-0.039821	-0.080768	-0.857422	-0.156250	-0.094482	0.565321	0.214139	-0.763550	0.227041
19461		9.536937	-0.964984	-2.257661	0.105491	-0.028016	-0.100129	-0.855957	-0.155518	-0.087646	0.565177	0.215289	-0.763285	0.227203
19462		9.620025	-0.448363	-1.843601	-0.034461	-0.031216	-0.080212	-0.857666	-0.149658	-0.084229	0.565203	0.215661	-0.763356	0.226549
19463		9.599142	-1.071822	-2.309687	-0.100679	-0.029351	-0.058032	-0.857178	-0.160400	-0.087646	0.565297	0.215560	-0.763600	0.225584
19464		9.485711	-0.824172	-2.868860	-0.044325	-0.024368	-0.062749	-0.859375	-0.147461	-0.083984	0.565356	0.215766	-0.763683	0.224957
19465		9.546668	-0.304660	-3.028035	-0.031035	-0.011878	-0.057733	-0.863281	-0.156006	-0.085938	0.565430	0.215949	-0.763719	0.224474
19466		9.678599	-0.117290	-2.754313	-0.134120	0.009826	-0.017090	-0.850098	-0.165039	-0.089600	0.565768	0.215356	-0.763907	0.223550
19467		9.465761	-0.687821	-2.651005	-0.254387	0.020818	0.012473	-0.851562	-0.155029	-0.084229	0.566361	0.214018	-0.764290	0.222018
19468		9.470233	-1.324093	-2.890112	-0.211745	0.029715	0.001697	-0.854492	-0.152832	-0.087158	0.566919	0.212915	-0.764560	0.220720
19469		9.309421	-0.879575	-2.950556	-0.178201	0.028989	-0.015666	-0.861572	-0.153809	-0.093018	0.567447	0.212073	-0.764737	0.219559
19470		9.460228	-0.373255	-2.815765	-0.238446	0.035074	-0.011284	-0.849365	-0.157959	-0.093262	0.568125	0.210896	-0.764990	0.218052
19471		9.364303	-0.211030	-2.441448	-0.302999	0.037056	0.015097	-0.860596	-0.155029	-0.095703	0.568885	0.209265	-0.765384	0.216255
19472		9.428501	-0.697118	-2.354385	-0.317514	0.027797	0.039378	-0.857910	-0.156494	-0.091309	0.569560	0.207405	-0.765892	0.214462
19473		9.548581	-1.110360	-2.620399	-0.249871	0.026456	0.038447	-0.853027	-0.146729	-0.095947	0.570095	0.205886	-0.766292	0.213072
19474		9.438583	-1.227278	-2.919258	-0.165719	0.024277	0.023930	-0.857910	-0.152344	-0.101318	0.570497	0.204848	-0.766518	0.212178
19475		9.337429	-1.115327	-2.871473	-0.097302	0.025594	0.007347	-0.855957	-0.150635	-0.105225	0.570841	0.204242	-0.766573	0.211642
19476		9.415672	-0.972608	-2.647268	-0.016186	0.016506	-0.005437	-0.855469	-0.152832	-0.099365	0.571020	0.204117	-0.766495	0.211561
19477		9.434846	-0.486840	-2.488654	-0.026925	0.013705	0.001858	-0.858643	-0.152832	-0.099365	0.571169	0.203909	-0.766479	0.211418
19478		9.318472	-0.708116	-2.531288	-0.013417	0.000819	0.017448	-0.851074	-0.151123	-0.099365	0.571184	0.203683	-0.766530	0.211410
19479		9.377593	-0.591510	-2.771647	0.023549	-0.001577	0.025910	-0.856445	-0.146729	-0.110107	0.571106	0.203591	-0.766537	0.211683
19480		9.444781	-0.766256	-2.846643	0.053008	-0.001563	0.038805	-0.851807	-0.149658	-0.094482	0.570983	0.203535	-0.766489	0.212240
19481		9.380311	-0.723234	-2.804829	0.093014	0.000782	0.045621	-0.853271	-0.151367	-0.105713	0.570751	0.203644	-0.766412	0.213039
19482		9.433659	-0.518680	-2.486722	0.062062	-0.004717	0.055957	-0.857910	-0.144043	-0.104980	0.570557	0.203542	-0.766398	0.213704
19483		9.482845	-0.935199	-2.374055	0.025709	0.001826	0.070687	-0.865723	-0.151611	-0.091309	0.570428	0.203146	-0.766452	0.214230
19484		9.516349	-1.361716	-2.417664	0.025408	-0.001491	0.059707	-0.861084	-0.149902	-0.101074	0.570264	0.202837	-0.766545	0.214628
19485		9.447159	-1.455359	-2.464312	0.105572	0.000164	0.018367	-0.859131	-0.151123	-0.100098	0.570080	0.203168	-0.766383	0.215380
19486		9.514287	-1.247471	-2.184295	0.139950	-0.002518	-0.002928	-0.858398	-0.145508	-0.095947	0.569858	0.203809	-0.766135	0.216242
19487		9.354551	-1.015892	-2.427635	0.135159	-0.004558	-0.008240	-0.857666	-0.144043	-0.093750	0.569619	0.204462	-0.765910	0.217052
19488		9.388284	-1.196969	-2.488181	0.153911	-0.017596	-0.015392	-0.864502	-0.148682	-0.095703	0.569270	0.205274	-0.765704	0.217927
19489		9.363397	-0.857700	-2.559327	0.169723	-0.028622	-0.024199	-0.860107	-0.156494	-0.094482	0.568850	0.206231	-0.765501	0.218831
19490		9.407585	-0.724932	-2.330647	0.119224	-0.034909	-0.019829	-0.857178	-0.148926	-0.098877	0.568479	0.206944	-0.765420	0.219404
19491		9.471342	-1.019309	-2.297760	0.089324	-0.030909	-0.009661	-0.859375	-0.149902	-0.088623	0.568170	0.207437	-0.765378	0.219882
19492		9.478873	-1.129253	-2.473343	0.096606	-0.024170	-0.012459	-0.855713	-0.150146	-0.092285	0.567868	0.207973	-0.765316	0.220372
19493		9.405519	-1.338494	-2.631772	0.116088	-0.028297	-0.027027	-0.859863	-0.145996	-0.095947	0.567546	0.208704	-0.765196	0.220927
19494		9.493704	-1.037732	-2.426746	0.111728	-0.024449	-0.037289	-0.858154	-0.155029	-0.081055	0.567279	0.209461	-0.765040	0.221436
19495		9.491318	-0.831614	-2.461065	0.029968	-0.027517	-0.036158	-0.864014	-0.147461	-0.092041	0.567102	0.209849	-0.765088	0.221358
19496		9.443880	-1.068962	-2.608811	-0.015797	-0.020065	-0.032273	-0.849609	-0.149170	-0.096436	0.567067	0.209959	-0.765166	0.221073
19497		9.326646	-0.667802	-2.721497	-0.060481	-0.028782	-0.025263	-0.863037	-0.152344	-0.095947	0.567062	0.209846	-0.765354	0.220541
19498		9.384492	-0.159101	-2.572802	-0.195008	-0.057084	0.022955	-0.862061	-0.152832	-0.080811	0.567022	0.208827	-0.766016	0.219309
19499		9.501265	-0.374813	-2.599791	-0.235075	-0.042710	0.041411	-0.866211	-0.152100	-0.092041	0.567064	0.207485	-0.766756	0.217883
19500		9.605803	-0.828367	-2.620844	-0.173753	-0.036102	0.060059	-0.862305	-0.145996	-0.088623	0.567041	0.206288	-0.767353	0.216977
19501		9.522257	-0.985435	-2.542459	-0.089970	-0.032732	0.063296	-0.860107	-0.149414	-0.093750	0.566872	0.205463	-0.767796	0.216635
19502		9.540798	-0.769678	-2.451261	-0.055331	-0.017861	0.060431	-0.863281	-0.154297	-0.088867	0.566768	0.204796	-0.768081	0.216530
19503		9.543532	-0.804176	-2.549049	-0.077528	-0.013786	0.069204	-0.857910	-0.146484	-0.086914	0.566705	0.203962	-0.768415	0.216295
19504		9.444279	-0.958679	-2.647148	-0.079144	-0.017850	0.073981	-0.852295	-0.146973	-0.093750	0.566594	0.203102	-0.768783	0.216085
19505		9.418003	-1.091497	-2.692628	-0.067747	-0.027161	0.069568	-0.864014	-0.146240	-0.094238	0.566437	0.202345	-0.769142	0.215930
19506		9.385885	-1.470387	-2.632177	-0.019386	-0.017462	0.049260	-0.860596	-0.143066	-0.083740	0.566298	0.201914	-0.769339	0.215999
19507		9.532588	-1.628551	-2.510144	0.064055	-0.015934	0.015566	-0.859375	-0.141113	-0.084229	0.566053	0.202099	-0.769350	0.216425
19508		9.504522	-1.315097	-2.414594	0.063256	-0.004605	-0.010039	-0.853027	-0.136230	-0.087891	0.565928	0.202426	-0.769263	0.216756
19509		9.459687	-0.981623	-2.566067	-0.017016	-0.009997	-0.008183	-0.852783	-0.153564	-0.083740	0.565906	0.202377	-0.769334	0.216608
19510		9.470933	-0.804731	-2.600555	-0.079511	-0.002698	-0.007662	-0.861328	-0.137207	-0.098145	0.566049	0.202028	-0.769490	0.216004
19511		9.494068	-0.859889	-2.666044	-0.066748	-0.002622	-0.003876	-0.859131	-0.142090	-0.100586	0.566180	0.201688	-0.769598	0.215592
19512		9.440136	-0.921710	-2.624868	-0.039285	-0.009719	0.007690	-0.862061	-0.144775	-0.088135	0.566214	0.201421	-0.769700	0.215390
19513		9.528094	-0.852628	-2.571888	0.014494	-0.006794	0.008586	-0.858643	-0.138672	-0.092773	0.566141	0.201398	-0.769732	0.215489
19514		9.478039	-0.511773	-2.658932	-0.025000	0.004788	0.021424	-0.858398	-0.137939	-0.095947	0.566191	0.201087	-0.769786	0.215454
19515		9.418535	-0.707149	-2.715166	-0.083707	0.016431	0.036307	-0.858643	-0.146729	-0.093506	0.566396	0.200382	-0.769907	0.215143
19516		9.525555	-0.847441	-2.744298	-0.067214	0.033059	0.039043	-0.855469	-0.138428	-0.093018	0.566681	0.199707	-0.769931	0.214931
19517		9.535097	-0.800421	-2.719539	-0.074804	0.033020	0.040530	-0.860352	-0.136963	-0.087402	0.566961	0.198992	-0.769974	0.214705
19518		9.453286	-1.088604	-2.752461	-0.047516	0.020819	0.050359	-0.855713	-0.146240	-0.087891	0.567078	0.198359	-0.770064	0.214656
19519		9.366982	-1.370878	-2.666545	0.021106	0.041321	0.041746	-0.865967	-0.144043	-0.089844	0.567247	0.198075	-0.769915	0.215007
19520		9.480133	-1.247339	-2.483033	0.036128	0.028455	0.031504	-0.856934	-0.135986	-0.095703	0.567326	0.197937	-0.769786	0.215387
19521		9.574827	-1.054489	-2.376245	-0.004275	0.041646	0.043335	-0.864014	-0.129395	-0.087891	0.567540	0.197520	-0.769664	0.215643
19522		9.458150	-0.901991	-2.268590	-0.120339	0.027025	0.056404	-0.857910	-0.137207	-0.095459	0.567792	0.196489	-0.769872	0.215179
19523		9.515411	-1.294996	-2.274115	-0.147756	0.014928	0.054220	-0.862793	-0.131348	-0.094238	0.568049	0.195371	-0.770154	0.214505
19524		9.415969	-1.134460	-2.295996	-0.080414	0.012081	0.043218	-0.861328	-0.133057	-0.100342	0.568184	0.194642	-0.770320	0.214214
19525		9.496189	-0.588451	-2.289196	-0.065526	0.005286	0.049768	-0.858887	-0.138672	-0.093506	0.568260	0.193955	-0.770483	0.214053
19526		9.432143	-0.181657	-2.393743	-0.189107	0.003233	0.083123	-0.857178	-0.126953	-0.088623	0.568453	0.192475	-0.770947	0.213202
19527		9.398389	-0.688108	-2.794899	-0.311875	0.004293	0.122377	-0.860596	-0.130127	-0.092773	0.568745	0.190161	-0.771701	0.211769
19528		9.305639	-1.408003	-2.867821	-0.253928	0.003037	0.120957	-0.862061	-0.129150	-0.094238	0.568955	0.188126	-0.772341	0.210685
19529		9.325679	-1.645593	-2.851158	-0.106630	-0.007135	0.088204	-0.864746	-0.122803	-0.101074	0.568927	0.187017	-0.772715	0.210376
19530		9.357926	-1.306567	-2.495608	-0.043084	-0.019930	0.068644	-0.861816	-0.129150	-0.098633	0.568763	0.186354	-0.772988	0.210405
19531		9.366314	-1.403112	-2.382648	-0.040977	-0.025308	0.061291	-0.858398	-0.126709	-0.101074	0.568578	0.185763	-0.773275	0.210372
19532		9.425208	-1.184490	-2.523554	-0.046226	-0.029351	0.053791	-0.861816	-0.117188	-0.089844	0.568395	0.185208	-0.773567	0.210285
19533		9.327279	-1.327065	-2.756786	-0.056488	-0.019417	0.039593	-0.864258	-0.118652	-0.093506	0.568271	0.184671	-0.773846	0.210063
19534		9.349715	-1.178054	-2.957525	-0.027991	-0.016183	0.021376	-0.862061	-0.123779	-0.091553	0.568170	0.184379	-0.774021	0.209949
19535		9.369127	-1.149006	-3.009581	0.028083	-0.012776	0.004846	-0.862305	-0.124512	-0.091309	0.568038	0.184456	-0.774059	0.210098
19536		9.300339	-0.994126	-2.846446	0.027793	-0.020021	0.009266	-0.859375	-0.119629	-0.094482	0.567852	0.184516	-0.774140	0.210251
19537		9.458278	-1.111632	-2.823992	0.064551	-0.005210	0.000758	-0.854980	-0.122559	-0.095703	0.567724	0.184782	-0.774060	0.210658
19538		9.434107	-0.853210	-2.705614	0.057088	-0.002959	-0.003988	-0.855957	-0.121338	-0.099121	0.567638	0.185047	-0.773967	0.210999
19539		9.340873	-1.279127	-2.675717	0.012520	-0.000933	0.000015	-0.862549	-0.124268	-0.098633	0.567634	0.185071	-0.773938	0.211092
19540		9.407286	-1.522635	-2.682960	0.065097	-0.003445	-0.021741	-0.864502	-0.116943	-0.101807	0.567574	0.185481	-0.773800	0.211400
19541		9.437290	-1.366240	-2.573371	0.126285	-0.006645	-0.044446	-0.864258	-0.129883	-0.093750	0.567434	0.186330	-0.773526	0.212031
19542		9.473540	-1.308003	-2.206033	0.158206	-0.018364	-0.062094	-0.860352	-0.127930	-0.096191	0.567198	0.187462	-0.773246	0.212686
19543		9.511684	-0.988465	-2.422129	0.146866	-0.022127	-0.070004	-0.858398	-0.128174	-0.097412	0.566971	0.188606	-0.772977	0.213256
19544		9.502172	-0.908348	-2.421559	0.031141	-0.024341	-0.052219	-0.866699	-0.129639	-0.095459	0.566884	0.189096	-0.772944	0.213176
19545		9.240887	-1.456823	-2.759138	0.075532	-0.005739	-0.058949	-0.867920	-0.130615	-0.094238	0.566854	0.189792	-0.772744	0.213358
19546		9.146328	-1.073821	-2.815137	0.124295	-0.020283	-0.066407	-0.861572	-0.127686	-0.098389	0.566663	0.190789	-0.772519	0.213790
19547		9.752997	-0.785887	-2.637002	0.138093	-0.011181	-0.076186	-0.860107	-0.126465	-0.095459	0.566532	0.191913	-0.772189	0.214325
19548		9.669902	-0.754851	-2.262334	0.082782	-0.003090	-0.040003	-0.859131	-0.131592	-0.091309	0.566465	0.192528	-0.771985	0.214684
19549		9.473209	-0.560642	-2.359200	-0.116744	0.004499	-0.025232	-0.857178	-0.132080	-0.086914	0.566739	0.192087	-0.772139	0.213803
19550		9.467960	-0.840318	-2.720511	-0.273417	0.025392	-0.006719	-0.863770	-0.126221	-0.094238	0.567352	0.190745	-0.772515	0.212009
19551		9.343174	-1.158438	-2.728556	-0.256477	-0.002836	-0.027961	-0.857422	-0.119141	-0.090576	0.567798	0.189668	-0.772941	0.210225
19552		9.304372	-1.046180	-2.599417	-0.178720	-0.004699	-0.049791	-0.859863	-0.134033	-0.098389	0.568124	0.189108	-0.773212	0.208845
19553		9.197070	-1.047599	-2.712284	-0.104766	-0.020056	-0.053490	-0.864014	-0.122314	-0.095459	0.568281	0.188952	-0.773394	0.207883
19554		9.094430	-1.329667	-3.013672	-0.043129	-0.018285	-0.051410	-0.864990	-0.131348	-0.099609	0.568321	0.189062	-0.773479	0.207356
19555		9.362565	-1.495253	-2.738412	0.075913	-0.016403	-0.060829	-0.863525	-0.133057	-0.101318	0.568226	0.189796	-0.773319	0.207545
19556		9.619429	-1.425050	-2.532146	0.138279	-0.009458	-0.078687	-0.859375	-0.132324	-0.089600	0.568113	0.190934	-0.772979	0.208074
19557		9.591494	-1.468451	-2.591481	0.138363	-0.020136	-0.088116	-0.862305	-0.134766	-0.092041	0.567916	0.192142	-0.772712	0.208490
19558		9.457507	-1.584763	-2.917777	0.144414	-0.010920	-0.100593	-0.854248	-0.144287	-0.100342	0.567798	0.193443	-0.772361	0.208912
19559		9.505797	-1.515812	-3.033326	0.230950	0.008306	-0.124365	-0.853516	-0.133545	-0.101074	0.567738	0.195296	-0.771687	0.209838
19560		9.556668	-1.605999	-2.839523	0.316746	0.025002	-0.147143	-0.860596	-0.138672	-0.094971	0.567663	0.197678	-0.770739	0.211291
19561		9.454818	-1.680646	-2.851348	0.405500	0.048543	-0.161225	-0.870605	-0.148926	-0.095947	0.567601	0.200506	-0.769518	0.213233
19562		9.609757	-1.110298	-2.710509	0.461104	0.062401	-0.184193	-0.857178	-0.143066	-0.088623	0.567581	0.203699	-0.768086	0.215411
19563		9.466087	-0.873270	-2.572844	0.409462	0.082443	-0.169098	-0.855469	-0.144043	-0.089600	0.567710	0.206526	-0.766683	0.217369
19564		9.350535	-0.546545	-2.774481	0.351960	0.087950	-0.169064	-0.860596	-0.144775	-0.094238	0.567966	0.209071	-0.765345	0.218979
19565		9.465441	-0.329610	-2.678016	0.297964	0.084737	-0.153409	-0.856934	-0.154053	-0.098145	0.568266	0.211261	-0.764129	0.220337
19566		9.662247	-0.044827	-2.279761	0.243666	0.088156	-0.122238	-0.856934	-0.155762	-0.091309	0.568643	0.212996	-0.763032	0.221495
19567		9.581508	0.308213	-2.612095	0.106114	0.096181	-0.071165	-0.855713	-0.160400	-0.097900	0.569201	0.213725	-0.762268	0.221991
19568		9.531671	-0.331427	-2.558434	0.093540	0.084972	-0.028304	-0.852783	-0.159912	-0.095215	0.569649	0.214149	-0.761634	0.222605
19569		9.500388	0.037427	-2.530820	0.111273	0.070750	-0.010690	-0.852539	-0.163574	-0.099854	0.569933	0.214570	-0.761078	0.223375
19570		9.640135	-0.015655	-2.536021	0.061300	0.064524	0.035889	-0.851318	-0.159668	-0.091309	0.570194	0.214474	-0.760713	0.224044
19571		9.503191	-0.190106	-2.552513	0.015029	0.077514	0.084032	-0.857666	-0.155762	-0.094971	0.570503	0.213816	-0.760493	0.224631
19572		9.397166	0.007495	-2.677167	-0.031088	0.066480	0.116016	-0.848145	-0.166260	-0.096924	0.570765	0.212750	-0.760465	0.225075
19573		9.528311	-0.162531	-2.685144	-0.082238	0.058439	0.154790	-0.859863	-0.153076	-0.106201	0.571016	0.211223	-0.760625	0.225333
19574		9.437123	-0.636418	-2.208241	-0.094239	0.052857	0.187555	-0.860107	-0.152344	-0.099365	0.571190	0.209435	-0.760871	0.225728
19575		9.378812	-0.634898	-1.982718	-0.068940	0.041119	0.194046	-0.854492	-0.146484	-0.104004	0.571218	0.207736	-0.761163	0.226243
19576		9.320009	-0.850968	-2.207863	-0.173758	0.025332	0.213919	-0.856445	-0.147461	-0.100098	0.571291	0.205457	-0.761740	0.226198
19577		9.364512	-1.933185	-2.309281	-0.183110	0.017382	0.199977	-0.859863	-0.134277	-0.100586	0.571350	0.203226	-0.762362	0.225969
19578		9.272005	-1.831366	-2.440282	-0.123212	0.029583	0.149479	-0.861572	-0.135742	-0.105469	0.571459	0.201577	-0.762728	0.225935
19579		9.307575	-1.504710	-2.604492	-0.176286	0.041771	0.123863	-0.864014	-0.139893	-0.110352	0.571798	0.199817	-0.763076	0.225468
19580		9.235356	-2.030950	-2.551085	-0.211267	0.062162	0.094028	-0.859863	-0.135254	-0.104980	0.572397	0.198039	-0.763327	0.224664
19581		9.332111	-2.602730	-2.514289	-0.142172	0.064084	0.029963	-0.859619	-0.129639	-0.106445	0.572992	0.196996	-0.763352	0.223980
19582		9.408131	-2.383971	-2.251420	0.004512	0.064845	-0.043083	-0.856445	-0.137207	-0.112061	0.573478	0.197120	-0.762977	0.223904
19583		9.481290	-1.743511	-1.982255	0.101247	0.056833	-0.086283	-0.863037	-0.135986	-0.113525	0.573857	0.198005	-0.762367	0.224228
19584		9.474869	-1.161604	-2.293760	0.109746	0.056173	-0.099776	-0.854004	-0.146240	-0.114014	0.574239	0.199010	-0.761724	0.224547
19585		9.332109	-1.475397	-2.641263	0.101271	0.043414	-0.102661	-0.854980	-0.134277	-0.113770	0.574573	0.200026	-0.761144	0.224756
19586		9.371887	-1.596603	-2.583333	0.172916	0.048911	-0.141517	-0.867188	-0.142822	-0.108887	0.574869	0.201625	-0.760340	0.225288
19587		9.384130	-1.264093	-2.173412	0.187372	0.042574	-0.159207	-0.856934	-0.148438	-0.112549	0.575130	0.203385	-0.759538	0.225749
19588		9.411849	-1.013259	-1.828719	0.153464	0.032997	-0.148579	-0.855713	-0.141357	-0.113525	0.575379	0.204953	-0.758838	0.226049
19589		9.603054	-0.714230	-1.556785	0.144229	0.022325	-0.130569	-0.848145	-0.137207	-0.108154	0.575526	0.206391	-0.758232	0.226400
19590		9.529518	-0.570764	-1.626746	0.126199	-0.008887	-0.119912	-0.854004	-0.152344	-0.107910	0.575464	0.207741	-0.757840	0.226637
19591		9.622837	-0.848320	-1.674396	0.120819	-0.025558	-0.097871	-0.854492	-0.148682	-0.113281	0.575286	0.208942	-0.757577	0.226863
19592		9.621414	-0.923265	-1.669828	0.132320	-0.054587	-0.101399	-0.855957	-0.156494	-0.108887	0.574915	0.210282	-0.757404	0.227142
19593		9.693040	-0.295154	-2.065635	0.031868	-0.081788	-0.083559	-0.853027	-0.154053	-0.113770	0.574516	0.211073	-0.757594	0.226786
19594		9.363218	-1.141120	-2.214847	-0.074881	-0.082053	-0.065174	-0.858398	-0.160645	-0.106689	0.574276	0.211248	-0.757995	0.225888
19595		9.537655	-1.616683	-2.180813	0.013587	-0.088009	-0.087874	-0.854980	-0.159668	-0.100830	0.573880	0.211985	-0.758242	0.225374
19596		9.784730	-0.648690	-2.030333	-0.025158	-0.093633	-0.108861	-0.851074	-0.151855	-0.104004	0.573542	0.212680	-0.758564	0.224495
19597		9.600038	-0.600621	-2.351424	-0.185779	-0.077867	-0.079531	-0.852295	-0.163086	-0.111572	0.573527	0.212406	-0.759144	0.222824
19598		9.365765	-0.862703	-2.808084	-0.253759	-0.063773	-0.069941	-0.856689	-0.170410	-0.102539	0.573737	0.211725	-0.759768	0.220798
19599		9.549918	-0.592088	-2.837618	-0.273457	-0.042563	-0.075899	-0.854004	-0.157471	-0.098877	0.574114	0.210927	-0.760345	0.218583
19600		9.584156	-0.286724	-2.510909	-0.326733	-0.040052	-0.059143	-0.859375	-0.161377	-0.099365	0.574536	0.209764	-0.761046	0.216140
19601		9.621960	-0.310690	-2.587903	-0.339342	-0.019106	-0.035893	-0.852783	-0.157959	-0.099121	0.575072	0.208343	-0.761708	0.213744
19602		9.575830	-0.198343	-2.832797	-0.383933	0.001741	-0.001138	-0.856445	-0.153076	-0.105469	0.575744	0.206460	-0.762400	0.211280
19603		9.449263	-0.505141	-2.916217	-0.382908	0.012094	0.019007	-0.857666	-0.155273	-0.101807	0.576445	0.204431	-0.763055	0.208965
19604		9.496205	-0.491385	-2.693571	-0.325857	0.019339	0.024446	-0.854736	-0.158691	-0.107178	0.577073	0.202620	-0.763595	0.207014
19605		9.460819	-0.110641	-2.401212	-0.401978	0.015347	0.050334	-0.848145	-0.158203	-0.107422	0.577771	0.200291	-0.764304	0.204704
19606		9.667206	-1.314317	-2.316413	-0.376168	0.017918	0.066443	-0.858887	-0.153320	-0.111816	0.578409	0.197987	-0.764972	0.202637
19607		9.462528	-1.428951	-2.306191	-0.267651	0.009843	0.026708	-0.848389	-0.153076	-0.111084	0.578880	0.196457	-0.765425	0.201067
19608		9.528716	-1.315654	-2.545046	-0.192535	0.003534	-0.005933	-0.851318	-0.155518	-0.116455	0.579239	0.195525	-0.765720	0.199814
19609		9.328236	-1.086214	-2.482967	-0.119950	-0.001653	-0.033398	-0.856201	-0.152344	-0.113770	0.579505	0.195126	-0.765860	0.198893
19610		9.361593	-0.308628	-2.366883	-0.116712	-0.016030	-0.040412	-0.859375	-0.154297	-0.109131	0.579673	0.194801	-0.766066	0.197925
19611		9.453012	-0.273182	-2.330167	-0.203302	-0.020192	-0.009810	-0.849365	-0.156494	-0.117188	0.579894	0.193859	-0.766501	0.196516
19612		9.566017	-1.576408	-2.378397	-0.132229	-0.026444	-0.017346	-0.853271	-0.153320	-0.108398	0.579995	0.193341	-0.766801	0.195552
19613		9.540548	-1.361082	-2.651450	-0.014978	-0.026346	-0.061720	-0.845215	-0.156006	-0.113037	0.579953	0.193662	-0.766870	0.195092
19614		9.366411	-1.038856	-2.625574	-0.005733	-0.015980	-0.088291	-0.853516	-0.159180	-0.114014	0.580020	0.194199	-0.766806	0.194607
19615		9.355788	-0.704220	-2.610630	-0.058153	-0.014590	-0.104277	-0.862305	-0.147949	-0.108398	0.580211	0.194569	-0.766797	0.193702
19616		9.468266	-0.595357	-2.557740	-0.090889	-0.010491	-0.103467	-0.854492	-0.159668	-0.113525	0.580448	0.194744	-0.766853	0.192593
19617		9.600790	-0.204941	-2.440625	-0.163291	-0.004401	-0.089012	-0.855469	-0.152832	-0.117676	0.580844	0.194487	-0.766990	0.191106
19618		9.549064	-1.130873	-2.378421	-0.153217	-0.000233	-0.080326	-0.849854	-0.157959	-0.111816	0.581234	0.194212	-0.767097	0.189763
19619		9.457743	-1.021892	-2.707799	-0.057733	0.000036	-0.116128	-0.850342	-0.160156	-0.121582	0.581518	0.194636	-0.767005	0.188829
19620		9.432235	-0.674366	-2.757694	-0.025861	0.003598	-0.134137	-0.854736	-0.166260	-0.117676	0.581826	0.195328	-0.766787	0.188052
19621		9.335759	-0.584555	-2.584380	-0.023686	-0.002090	-0.140345	-0.854248	-0.158691	-0.114746	0.582096	0.196070	-0.766596	0.187217
19622		9.329764	-0.446299	-2.448710	-0.005070	-0.013633	-0.143089	-0.845459	-0.166504	-0.112061	0.582247	0.196932	-0.766441	0.186479
19623		9.425940	-0.207827	-2.403261	0.007867	-0.031740	-0.131714	-0.854004	-0.172607	-0.117920	0.582245	0.197829	-0.766368	0.185836
19624		9.621872	-0.191287	-2.354462	0.066182	-0.032673	-0.110252	-0.851562	-0.171143	-0.119629	0.582126	0.198861	-0.766231	0.185669
19625		9.645580	0.373063	-2.352505	0.100430	-0.036403	-0.077638	-0.849365	-0.175293	-0.109619	0.581879	0.199860	-0.766106	0.185891
19626		9.519485	0.267813	-2.604299	0.026700	-0.039508	-0.027300	-0.842041	-0.166992	-0.109863	0.581636	0.200184	-0.766218	0.185840
19627		9.459161	-0.218396	-2.695299	0.021261	-0.041577	0.005553	-0.848633	-0.169189	-0.108643	0.581332	0.200284	-0.766398	0.185941
19628		9.440429	-0.392806	-2.691916	0.061032	-0.035874	0.014379	-0.850830	-0.166504	-0.104980	0.580984	0.200500	-0.766510	0.186332
19629		9.435940	-0.627842	-2.659475	0.138665	-0.036403	0.011129	-0.854248	-0.173096	-0.112793	0.580496	0.201106	-0.766511	0.187193
19630		9.568649	0.034988	-2.638033	0.195402	-0.030171	0.014298	-0.855957	-0.170166	-0.109375	0.579977	0.201957	-0.766371	0.188454
19631		9.495138	0.032873	-2.634151	0.080764	-0.033823	0.049261	-0.856445	-0.174805	-0.104492	0.579561	0.202030	-0.766498	0.189139
19632		9.522181	-0.566367	-2.556911	0.049022	-0.028361	0.057957	-0.848389	-0.168701	-0.108887	0.579216	0.201887	-0.766671	0.189648
19633		9.518816	-0.927222	-2.527827	0.046134	-0.022248	0.045073	-0.852539	-0.173828	-0.108643	0.578942	0.201815	-0.766780	0.190122
19634		9.483992	-1.097496	-2.796028	0.082620	-0.009672	0.024857	-0.856934	-0.168701	-0.113525	0.578725	0.202025	-0.766735	0.190738
19635		9.426318	-1.138748	-2.670649	0.130752	-0.002159	-0.006923	-0.851562	-0.172852	-0.112061	0.578532	0.202647	-0.766516	0.191541
19636		9.466403	-0.928372	-2.380610	0.143366	-0.003596	-0.037630	-0.852295	-0.178711	-0.108154	0.578359	0.203541	-0.766227	0.192270
19637		9.564391	-0.671687	-2.171825	0.088237	0.011268	-0.045040	-0.848145	-0.173340	-0.105713	0.578383	0.204193	-0.765949	0.192616
19638		9.530875	-0.684701	-2.354089	0.037267	0.009646	-0.053077	-0.850342	-0.175293	-0.106689	0.578483	0.204658	-0.765752	0.192606
19639		9.477792	-0.617344	-2.416174	0.031084	0.002260	-0.058327	-0.852783	-0.169678	-0.105225	0.578558	0.205136	-0.765590	0.192517
19640		9.488070	-0.384177	-2.421489	0.006756	0.004705	-0.057900	-0.856689	-0.175537	-0.103516	0.578677	0.205482	-0.765465	0.192285
19641		9.553448	-0.429658	-2.561479	-0.034085	-0.000552	-0.045221	-0.844971	-0.178223	-0.106445	0.578813	0.205554	-0.765458	0.191824
19642		9.482689	-0.497634	-2.603053	-0.024277	0.005583	-0.045817	-0.853027	-0.171875	-0.109375	0.578984	0.205689	-0.765386	0.191451
19643		9.503108	-0.430326	-2.478499	0.011620	0.003333	-0.046730	-0.841064	-0.173828	-0.106689	0.579078	0.205987	-0.765270	0.191309
19644		9.526470	-0.247132	-2.466853	-0.011011	-0.000990	-0.032318	-0.846680	-0.176025	-0.105469	0.579156	0.206115	-0.765232	0.191091
19645		9.538373	-0.231555	-2.572626	-0.056036	-0.000850	-0.017999	-0.855469	-0.177002	-0.108643	0.579288	0.205923	-0.765296	0.190640
19646		9.445626	-0.517187	-2.581320	-0.063560	-0.001186	-0.012330	-0.849609	-0.175781	-0.111084	0.579429	0.205643	-0.765384	0.190160
19647		9.472682	-0.578196	-2.636024	-0.028250	0.000791	-0.017434	-0.852539	-0.169922	-0.111328	0.579535	0.205571	-0.765387	0.189899
19648		9.532831	-0.237110	-2.530510	0.001515	0.004407	-0.013161	-0.860352	-0.171387	-0.108154	0.579599	0.205602	-0.765339	0.189863
19649		9.452806	0.199573	-2.473520	-0.074879	0.000827	0.021500	-0.853760	-0.167236	-0.114502	0.579708	0.205036	-0.765503	0.189481
19650		9.515839	-0.057660	-2.553681	-0.132635	-0.008975	0.046805	-0.848389	-0.179932	-0.110107	0.579826	0.204051	-0.765830	0.188861
19651		9.532911	-0.269100	-2.499217	-0.090171	-0.007767	0.060378	-0.849365	-0.172363	-0.106445	0.579862	0.203199	-0.766107	0.188547
19652		9.599559	-0.356709	-2.455167	-0.059019	-0.012966	0.072199	-0.848145	-0.171631	-0.109375	0.579776	0.202428	-0.766392	0.188486
19653		9.506307	-0.391417	-2.551601	-0.064173	-0.008471	0.087581	-0.850830	-0.164795	-0.107422	0.579710	0.201528	-0.766680	0.188479
19654		9.505063	-0.449934	-2.649897	-0.048745	-0.007475	0.083451	-0.859131	-0.170898	-0.107910	0.579619	0.200722	-0.766941	0.188556
19655		9.451857	-0.415942	-2.592912	-0.027939	-0.001275	0.080229	-0.846191	-0.164062	-0.114502	0.579546	0.200015	-0.767137	0.188737
19656		9.484405	-0.436273	-2.581756	-0.038694	0.007576	0.081893	-0.849854	-0.170410	-0.108887	0.579557	0.199247	-0.767286	0.188908
19657		9.527572	-0.635788	-2.376063	-0.023512	0.008035	0.078986	-0.849365	-0.165039	-0.111084	0.579544	0.198571	-0.767416	0.189133
19658		9.537016	-0.782013	-2.182150	-0.034615	0.016614	0.073439	-0.847656	-0.164307	-0.106689	0.579612	0.197862	-0.767509	0.189288
19659		9.475251	-0.563261	-2.218721	-0.140040	0.005275	0.082160	-0.853027	-0.158691	-0.114014	0.579755	0.196614	-0.767845	0.188787
19660		9.565427	-0.551536	-2.320961	-0.250127	0.013283	0.079756	-0.855957	-0.163818	-0.114258	0.580144	0.194819	-0.768301	0.187595
19661		9.400853	-0.738580	-2.458302	-0.301903	0.002346	0.082013	-0.854492	-0.152588	-0.110352	0.580547	0.192774	-0.768890	0.186045
19662		9.557079	-0.984208	-2.559620	-0.232070	-0.011613	0.061096	-0.850586	-0.156982	-0.107178	0.580752	0.191226	-0.769413	0.184833
19663		9.535640	-0.946553	-2.550906	-0.128498	-0.028336	0.055483	-0.851074	-0.156494	-0.120605	0.580690	0.190255	-0.769847	0.184221
19664		9.508638	-0.650264	-2.373214	-0.051728	-0.029337	0.045793	-0.848145	-0.151367	-0.116943	0.580551	0.189703	-0.770125	0.184068
19665		9.633563	-0.313717	-2.104702	-0.094471	-0.051909	0.045142	-0.853760	-0.151367	-0.112061	0.580322	0.188990	-0.770582	0.183610
19666		9.590214	-0.548697	-2.277277	-0.193821	-0.058643	0.063484	-0.852295	-0.150146	-0.121826	0.580165	0.187686	-0.771264	0.182578
19667		9.491145	-0.919817	-2.631439	-0.179966	-0.058594	0.053198	-0.850098	-0.150635	-0.107666	0.580028	0.186505	-0.771885	0.181598
19668		9.502082	-1.168231	-2.550427	-0.138102	-0.059779	0.033400	-0.858398	-0.151123	-0.102783	0.579811	0.185677	-0.772440	0.180775
19669		9.384644	-1.270499	-2.750139	-0.006190	-0.072361	-0.006048	-0.862793	-0.147949	-0.114746	0.579356	0.185751	-0.772810	0.180575
19670		9.421677	-0.989764	-2.749061	0.028152	-0.061261	-0.031009	-0.858154	-0.150146	-0.115234	0.578989	0.186111	-0.773014	0.180509
19671		9.455483	-0.570403	-2.585143	0.025548	-0.049594	-0.029626	-0.857422	-0.156250	-0.104492	0.578704	0.186440	-0.773161	0.180454
19672		9.421463	-0.517761	-2.549402	-0.008600	-0.056612	-0.020843	-0.853760	-0.153564	-0.105713	0.578393	0.186573	-0.773423	0.180191
19673		9.438198	-0.324790	-2.585958	-0.015814	-0.058120	-0.006364	-0.856201	-0.151611	-0.106689	0.578064	0.186584	-0.773719	0.179962
19674		9.509346	-0.499637	-2.517452	0.023978	-0.062358	-0.002687	-0.855469	-0.155518	-0.098389	0.577643	0.186761	-0.773982	0.180001
19675		9.504906	-0.344909	-2.604732	0.025121	-0.067472	0.003973	-0.851807	-0.153564	-0.104736	0.577161	0.186922	-0.774289	0.180059
19676		9.479085	-0.272332	-2.470460	-0.008833	-0.059598	0.009278	-0.862305	-0.155273	-0.106445	0.576793	0.186869	-0.774601	0.179950
19677		9.459795	-0.361712	-2.636610	-0.051280	-0.061317	0.015964	-0.859863	-0.158691	-0.103516	0.576478	0.186550	-0.774998	0.179583
19678		9.432638	-0.391901	-2.848293	-0.069662	-0.051371	0.019743	-0.867432	-0.151611	-0.107422	0.576249	0.186112	-0.775380	0.179123
19679		9.379646	-0.769499	-3.033196	-0.008812	-0.049465	0.018063	-0.848877	-0.148682	-0.091797	0.575943	0.185952	-0.775661	0.179058
19680		9.329086	-0.693857	-2.871151	0.096255	-0.048626	-0.006233	-0.861084	-0.160400	-0.103027	0.575473	0.186506	-0.775758	0.179572
19681		9.434329	-0.338981	-2.543427	0.063774	-0.042958	-0.001592	-0.855225	-0.151855	-0.102539	0.575130	0.186829	-0.775863	0.179880
19682		9.419982	-0.390313	-2.769757	-0.041802	-0.037988	0.012882	-0.858398	-0.152588	-0.089600	0.574951	0.186553	-0.776125	0.179607
19683		9.455762	-0.826071	-3.065039	-0.054190	-0.029765	0.013657	-0.860107	-0.152344	-0.106445	0.574811	0.186211	-0.776393	0.179251
19684		9.357229	-0.953506	-3.022279	0.059521	-0.024658	-0.005643	-0.864014	-0.150391	-0.097656	0.574603	0.186506	-0.776405	0.179561
19685		9.387348	-0.466165	-2.866814	0.111136	-0.023656	-0.025547	-0.860352	-0.155518	-0.102783	0.574325	0.187179	-0.776324	0.180102
19686		9.528635	-0.490732	-2.717825	0.089171	-0.014042	-0.019286	-0.857666	-0.144287	-0.093018	0.574155	0.187690	-0.776223	0.180545
19687		9.518519	-0.664514	-2.847953	0.068387	0.022304	-0.004190	-0.862793	-0.151611	-0.110352	0.574190	0.187968	-0.776023	0.181003
19688		9.418993	-0.679185	-2.927417	0.129867	0.025985	-0.004628	-0.853760	-0.150635	-0.092773	0.574208	0.188504	-0.775681	0.181854
19689		9.248130	-0.333943	-2.999048	0.143621	0.039346	-0.012784	-0.857422	-0.149414	-0.101318	0.574253	0.189179	-0.775266	0.182775
19690		9.426430	-0.638497	-2.772380	0.175702	0.029630	-0.021915	-0.858154	-0.156250	-0.107178	0.574219	0.190061	-0.774822	0.183848
19691		9.401083	-0.999659	-2.551796	0.176717	0.018972	-0.034408	-0.861572	-0.154053	-0.103271	0.574156	0.191033	-0.774394	0.184839
19692		9.374238	-1.386972	-2.395707	0.133064	0.013747	-0.053097	-0.854248	-0.157471	-0.091553	0.574142	0.191925	-0.774038	0.185450
19693		9.411769	-1.320512	-2.533093	0.139151	0.007535	-0.095392	-0.851562	-0.150879	-0.098389	0.574114	0.193158	-0.773647	0.185886
19694		9.467663	-1.332212	-2.511766	0.135391	0.013139	-0.131897	-0.860107	-0.157715	-0.100098	0.574192	0.194599	-0.773161	0.186160
19695		9.462956	-1.134892	-2.545541	0.117415	0.027131	-0.159965	-0.857666	-0.166260	-0.093262	0.574443	0.196092	-0.772592	0.186187
19696		9.346064	-1.060826	-2.912878	0.095590	0.036110	-0.186632	-0.853516	-0.166504	-0.099854	0.574816	0.197650	-0.771975	0.185945
19697		9.379892	-1.240331	-3.172226	0.180357	0.035685	-0.207766	-0.848145	-0.159668	-0.090332	0.575090	0.199748	-0.771178	0.186160
19698		9.420162	-0.615009	-2.985578	0.284151	0.035463	-0.234000	-0.858643	-0.169922	-0.096436	0.575188	0.202540	-0.770188	0.186942
19699		9.519073	0.133838	-2.798605	0.273510	0.043463	-0.212268	-0.851074	-0.170654	-0.102295	0.575341	0.205094	-0.769202	0.187745
19700		9.488977	0.370869	-2.820315	0.220041	0.053126	-0.173033	-0.856689	-0.172363	-0.101562	0.575596	0.207125	-0.768300	0.188423
19701		9.522381	0.092797	-2.899702	0.218075	0.061100	-0.131542	-0.853271	-0.186035	-0.107910	0.575833	0.208858	-0.767439	0.189292
19702		9.441117	0.277449	-2.913477	0.249187	0.059575	-0.101835	-0.851074	-0.178467	-0.104492	0.575989	0.210540	-0.766569	0.190475
19703		9.567846	0.493608	-2.962140	0.238213	0.077575	-0.054621	-0.842041	-0.179443	-0.097168	0.576180	0.211851	-0.765717	0.191866
19704		9.613596	0.214713	-2.870349	0.243532	0.076370	-0.017382	-0.849854	-0.187500	-0.100586	0.576271	0.212978	-0.764931	0.193473
19705		9.595927	0.562316	-2.743688	0.222391	0.079539	0.023121	-0.852295	-0.179443	-0.100342	0.576371	0.213714	-0.764234	0.195115
19706		9.607416	0.627372	-2.539694	0.193673	0.075705	0.068409	-0.856445	-0.175781	-0.091064	0.576408	0.214030	-0.763685	0.196799
19707		9.602284	0.274221	-2.414583	0.169087	0.066752	0.125573	-0.858154	-0.182861	-0.096680	0.576305	0.213891	-0.763339	0.198586
19708		9.587003	-0.074413	-2.390396	0.194814	0.057208	0.169725	-0.847656	-0.179443	-0.103760	0.576047	0.213591	-0.763064	0.200706
19709		9.666814	-0.147548	-2.484726	0.168741	0.052184	0.208990	-0.854248	-0.175537	-0.100098	0.575753	0.212928	-0.762903	0.202851
19710		9.566226	-0.416007	-2.588851	0.168465	0.068535	0.224930	-0.848389	-0.177002	-0.097900	0.575521	0.212132	-0.762700	0.205096
19711		9.596275	-0.554451	-2.482928	0.186182	0.077152	0.226815	-0.856201	-0.165283	-0.101807	0.575305	0.211407	-0.762421	0.207472
19712		9.704489	-0.784060	-2.407646	0.163236	0.082428	0.242912	-0.858643	-0.167969	-0.105713	0.575128	0.210445	-0.762184	0.209801
19713		9.566781	-0.803106	-2.405855	0.177847	0.089134	0.246024	-0.854980	-0.170410	-0.115234	0.574976	0.209506	-0.761885	0.212230
19714		9.341648	0.015747	-2.585679	0.126060	0.081052	0.248459	-0.856689	-0.159668	-0.094727	0.574889	0.208300	-0.761698	0.214311
19715		9.502817	-0.149641	-2.390772	0.072501	0.066890	0.270427	-0.854492	-0.154785	-0.113281	0.574691	0.206773	-0.761742	0.216159
19716		9.409446	-0.895445	-1.951028	0.042893	0.051010	0.285179	-0.852295	-0.149902	-0.107422	0.574462	0.205002	-0.761910	0.217856
19717		9.323280	-1.337548	-1.909759	0.009697	0.041975	0.266222	-0.852051	-0.143555	-0.111572	0.574244	0.203229	-0.762151	0.219245
19718		9.277127	-1.453652	-2.162089	-0.035750	0.033236	0.235931	-0.859131	-0.147949	-0.111328	0.574106	0.201441	-0.762456	0.220192
19719		9.175800	-2.056936	-2.199266	-0.037890	0.021837	0.201182	-0.862549	-0.143066	-0.108154	0.573971	0.199869	-0.762763	0.220912
19720		9.060032	-2.041934	-2.204428	0.010033	0.016303	0.146535	-0.851807	-0.133545	-0.106445	0.573807	0.198889	-0.762922	0.221671
19721		9.376276	-2.093339	-2.258697	-0.009285	0.003034	0.099405	-0.855225	-0.135010	-0.104980	0.573658	0.198175	-0.763096	0.222099
19722		9.468888	-1.982523	-2.185414	-0.037067	0.002146	0.055675	-0.859863	-0.133545	-0.106445	0.573630	0.197604	-0.763256	0.222130
19723		9.390591	-1.928757	-2.271856	-0.016142	0.003926	0.009065	-0.854736	-0.138916	-0.109131	0.573667	0.197416	-0.763294	0.222072
19724		9.285022	-1.957675	-2.369108	0.035171	-0.005328	-0.036621	-0.859375	-0.148926	-0.113525	0.573663	0.197780	-0.763195	0.222098
19725		9.390711	-1.471529	-2.447804	0.090348	0.002530	-0.070115	-0.861084	-0.140137	-0.112061	0.573707	0.198580	-0.762896	0.222296
19726		9.531903	-1.142557	-2.388422	0.077892	0.007025	-0.077344	-0.849365	-0.142578	-0.107178	0.573794	0.199366	-0.762592	0.222413
19727		9.501142	-0.866915	-2.226657	0.063379	0.012451	-0.076051	-0.856445	-0.132812	-0.104492	0.573924	0.200096	-0.762287	0.222467
19728		9.346315	-0.795548	-2.326392	0.031230	0.005165	-0.060755	-0.856201	-0.146484	-0.108154	0.574005	0.200594	-0.762114	0.222401
19729		9.310759	-0.970214	-2.132965	0.037771	-0.010352	-0.045058	-0.860840	-0.133057	-0.109375	0.573981	0.201030	-0.762021	0.222387
19730		9.378972	-0.851943	-2.069338	0.043411	-0.020651	-0.041692	-0.859131	-0.140625	-0.110840	0.573856	0.201492	-0.761978	0.222440
19731		9.547225	-1.282016	-1.916931	0.042114	-0.034677	-0.033802	-0.853027	-0.147949	-0.103027	0.573646	0.201916	-0.762012	0.222481
19732		9.483693	-1.504736	-1.852964	0.050763	-0.042435	-0.044731	-0.854736	-0.138672	-0.107910	0.573383	0.202488	-0.762051	0.222505
19733		9.630576	-1.286273	-2.086136	0.031237	-0.059188	-0.075435	-0.850586	-0.147217	-0.102051	0.573102	0.203186	-0.762150	0.222254
19734		9.495096	-1.532884	-2.014213	-0.009754	-0.068783	-0.089404	-0.861572	-0.156494	-0.105957	0.572854	0.203807	-0.762347	0.221648
19735		9.480924	-1.514893	-2.205653	-0.001527	-0.073752	-0.113457	-0.862061	-0.143311	-0.106445	0.572630	0.204593	-0.762511	0.220937
19736		9.508161	-1.483034	-2.156109	-0.023173	-0.083791	-0.147022	-0.857666	-0.151855	-0.101074	0.572420	0.205517	-0.762706	0.219949
19737		9.572794	-1.571744	-2.235785	-0.067181	-0.074318	-0.166120	-0.856689	-0.160645	-0.098877	0.572378	0.206345	-0.762903	0.218596
19738		9.437572	-1.258494	-2.388259	-0.085065	-0.082774	-0.193337	-0.852783	-0.157227	-0.089844	0.572368	0.207275	-0.763122	0.216970
19739		9.443955	-0.875674	-2.620619	-0.129653	-0.073869	-0.209132	-0.851562	-0.150146	-0.102295	0.572485	0.208106	-0.763359	0.215024
19740		9.598985	-0.907276	-2.795033	-0.114223	-0.058265	-0.200908	-0.854004	-0.160400	-0.096680	0.572678	0.208911	-0.763488	0.213263
19741		9.498981	-0.833454	-2.501750	-0.033778	-0.046751	-0.208317	-0.861572	-0.163818	-0.100586	0.572814	0.210125	-0.763412	0.211976
19742		9.650938	-0.115303	-2.643253	-0.020905	-0.045901	-0.195317	-0.855713	-0.164062	-0.100098	0.572921	0.211290	-0.763330	0.210822
19743		9.485462	-0.367112	-2.818865	-0.054172	-0.036686	-0.160285	-0.853027	-0.165039	-0.096680	0.573079	0.212069	-0.763318	0.209649
19744		9.351896	-0.892586	-2.937757	0.032872	-0.026468	-0.164316	-0.853516	-0.166748	-0.095459	0.573144	0.213281	-0.763100	0.209034
19745		9.171267	-0.761543	-2.746434	0.089936	-0.025778	-0.165203	-0.855713	-0.171631	-0.098633	0.573109	0.214770	-0.762779	0.208779
19746		9.694677	-0.178065	-2.294780	0.125858	-0.021172	-0.167667	-0.843994	-0.174805	-0.092529	0.573056	0.216422	-0.762363	0.208737
19747		9.723812	0.578560	-2.048034	-0.026968	-0.011872	-0.113002	-0.852295	-0.175537	-0.092773	0.573227	0.217013	-0.762263	0.208015
19748		9.734281	0.702766	-2.371032	-0.200884	-0.017033	-0.045503	-0.851318	-0.175781	-0.091309	0.573563	0.216335	-0.762618	0.206491
19749		9.511513	0.235763	-2.902148	-0.269255	-0.004138	0.006830	-0.852051	-0.168945	-0.094971	0.574006	0.214979	-0.763123	0.204804
19750		9.471061	-0.039563	-2.914627	-0.296793	-0.013813	0.028277	-0.846191	-0.171875	-0.098389	0.574397	0.213364	-0.763754	0.203035
19751		9.541000	-0.127184	-2.735609	-0.362731	-0.019396	0.059703	-0.859131	-0.170898	-0.093994	0.574825	0.211243	-0.764565	0.200980
19752		9.583419	-0.594043	-2.661227	-0.375857	-0.015197	0.071222	-0.858154	-0.167480	-0.107422	0.575265	0.208964	-0.765407	0.198888
19753		9.602419	-0.629141	-2.679350	-0.317402	-0.006406	0.064637	-0.855957	-0.178467	-0.104248	0.575696	0.206966	-0.766076	0.197147
19754		9.320968	-0.286251	-2.649665	-0.297011	-0.006072	0.063855	-0.852783	-0.167480	-0.091064	0.576098	0.205078	-0.766701	0.195511
19755		9.404987	-0.253272	-2.649124	-0.269589	-0.012113	0.071949	-0.849365	-0.161621	-0.105225	0.576346	0.203320	-0.767338	0.194112
19756		9.501963	-0.217949	-2.644980	-0.276016	-0.013231	0.092810	-0.850586	-0.168945	-0.097656	0.576593	0.201373	-0.768004	0.192770
19757		9.463753	-0.994132	-2.745407	-0.262508	-0.014452	0.099534	-0.848389	-0.161377	-0.099854	0.576784	0.199464	-0.768668	0.191529
19758		9.430823	-1.065452	-3.050931	-0.174283	-0.006117	0.074176	-0.861328	-0.162354	-0.107422	0.576918	0.198129	-0.769104	0.190758
19759		9.301049	-1.229071	-3.012043	-0.094164	-0.003537	0.045563	-0.856934	-0.160400	-0.105469	0.577003	0.197319	-0.769352	0.190343
19760		9.343501	-0.900916	-2.611295	-0.041537	-0.007205	0.021924	-0.856689	-0.155762	-0.109131	0.577007	0.196932	-0.769494	0.190154
19761		9.390944	-0.431030	-2.246221	-0.091046	-0.004248	0.014402	-0.857422	-0.157227	-0.099365	0.577128	0.196344	-0.769685	0.189623
19762		9.334352	-0.968006	-2.388067	-0.162677	-0.007635	0.025550	-0.859863	-0.154297	-0.105225	0.577301	0.195368	-0.770034	0.188685
19763		9.494695	-1.108328	-2.628992	-0.078895	-0.002582	-0.007485	-0.852783	-0.155762	-0.102783	0.577434	0.194981	-0.770169	0.188131
19764		9.452233	-0.540326	-2.846170	-0.043450	-0.000293	-0.013941	-0.857910	-0.163086	-0.105957	0.577528	0.194823	-0.770222	0.187785
19765		9.381016	-0.546473	-2.814043	-0.036871	0.003195	-0.003691	-0.862061	-0.160156	-0.109863	0.577635	0.194607	-0.770263	0.187514
19766		9.317527	-0.577458	-2.724516	0.025206	-0.004788	-0.003419	-0.858398	-0.164551	-0.106201	0.577596	0.194684	-0.770245	0.187625
19767		9.412313	-0.586200	-2.544010	0.069885	-0.020662	-0.004493	-0.859131	-0.159424	-0.107910	0.577380	0.195021	-0.770233	0.187991
19768		9.364085	-0.472108	-2.544635	0.058140	-0.036200	0.005243	-0.848877	-0.156738	-0.107178	0.577068	0.195258	-0.770329	0.188311
19769		9.364338	-0.601080	-2.503015	0.028087	-0.054068	0.019167	-0.849854	-0.156982	-0.101562	0.576664	0.195309	-0.770574	0.188492
19770		9.405694	-0.911881	-2.747484	0.036445	-0.054153	0.019029	-0.860840	-0.160889	-0.097900	0.576234	0.195411	-0.770811	0.188730
19771		9.482675	-1.187875	-2.828902	0.088547	-0.048653	0.010641	-0.858154	-0.151855	-0.104492	0.575764	0.195797	-0.770936	0.189254
19772		9.479526	-1.158381	-2.595836	0.190918	-0.035121	-0.035830	-0.855957	-0.154297	-0.106445	0.575295	0.196939	-0.770750	0.190248
19773		9.573831	-0.758649	-2.291363	0.219700	-0.031010	-0.063486	-0.854980	-0.157471	-0.100830	0.574859	0.198385	-0.770446	0.191297
19774		9.634730	-0.586147	-2.119419	0.153427	-0.025793	-0.052917	-0.860596	-0.158691	-0.105225	0.574536	0.199451	-0.770241	0.191982
19775		9.587598	-0.955705	-2.347027	0.133146	-0.022748	-0.061050	-0.851807	-0.151855	-0.105469	0.574293	0.200443	-0.770037	0.192490
19776		9.573434	-1.023750	-2.706385	0.202707	-0.016468	-0.081625	-0.856689	-0.170410	-0.092529	0.573998	0.201907	-0.769651	0.193383
19777		9.459044	-0.798493	-2.729561	0.257598	-0.008518	-0.092835	-0.854004	-0.174561	-0.101562	0.573666	0.203708	-0.769127	0.194560
19778		9.453709	-0.306739	-2.658881	0.230312	-0.009585	-0.090241	-0.855957	-0.164062	-0.100586	0.573398	0.205338	-0.768641	0.195556
19779		9.436097	-0.002971	-2.628151	0.156038	-0.012677	-0.063913	-0.856689	-0.166260	-0.096924	0.573175	0.206453	-0.768339	0.196221
19780		9.359677	-0.172889	-2.633239	0.091711	-0.026824	-0.043521	-0.851074	-0.178223	-0.101074	0.572931	0.207159	-0.768248	0.196547
19781		9.512425	-0.288425	-2.604579	0.097754	-0.026243	-0.028861	-0.854248	-0.167236	-0.092041	0.572686	0.207784	-0.768158	0.196951
19782		9.480011	-0.045727	-2.622719	0.071772	-0.032832	-0.011719	-0.855225	-0.168701	-0.085693	0.572375	0.208215	-0.768184	0.197298
19783		9.416714	0.046667	-2.663829	-0.001538	-0.037081	0.014490	-0.861328	-0.171875	-0.095459	0.572106	0.208149	-0.768403	0.197296
19784		9.400867	0.057179	-2.696798	-0.113063	-0.042576	0.044173	-0.851562	-0.157471	-0.093750	0.571980	0.207326	-0.768877	0.196680
19785		9.381860	-0.627527	-2.808461	-0.191981	-0.040714	0.069303	-0.854248	-0.165283	-0.087402	0.571937	0.205995	-0.769510	0.195726
19786		9.386758	-1.425380	-2.790498	-0.118892	-0.046703	0.049989	-0.853271	-0.166504	-0.088623	0.571756	0.205152	-0.770023	0.195122
19787		9.462125	-1.264346	-2.730457	-0.045231	-0.037641	0.014181	-0.844971	-0.166992	-0.093506	0.571572	0.204871	-0.770308	0.194830
19788		9.513792	-0.590725	-2.563609	-0.088188	-0.034487	0.004077	-0.851318	-0.164795	-0.090576	0.571514	0.204442	-0.770620	0.194218
19789		9.450066	-0.387592	-2.577011	-0.171146	-0.021774	0.013799	-0.853516	-0.174316	-0.094238	0.571651	0.203535	-0.771028	0.193145
19790		9.425336	0.035391	-2.697299	-0.232009	-0.035366	0.043081	-0.857422	-0.160400	-0.095459	0.571779	0.202150	-0.771641	0.191765
