// Start Time: Unknown
// Update Rate: 60.0Hz
// Filter Profile: human (46.1)
// Firmware Version: 4.6.0
PacketCounter	SampleTimeFine	Acc_X	Acc_Y	Acc_Z	Gyr_X	Gyr_Y	Gyr_Z	Mag_X	Mag_Y	Mag_Z	Quat_q0	Quat_q1	Quat_q2	Quat_q3
56495		9.705921	-1.401692	0.105638	0.007443	-0.009479	-0.006221	-0.925537	0.012451	0.515869	-0.035761	-0.690098	0.135441	-0.710029
56496		9.708931	-1.388739	0.112630	0.013595	-0.007710	-0.007243	-0.927734	0.001709	0.520996	-0.035717	-0.690156	0.135321	-0.709998
56497		9.724482	-1.315147	0.105631	0.008162	-0.008319	-0.001823	-0.924805	0.002441	0.510986	-0.035827	-0.690200	0.135223	-0.709968
56498		9.705792	-1.379149	0.099161	0.005663	-0.006499	-0.000867	-0.925537	0.010986	0.523682	-0.035942	-0.690227	0.135145	-0.709951
56499		9.703897	-1.431862	0.096824	0.003280	-0.003594	0.000421	-0.934082	0.016113	0.516357	-0.035906	-0.690250	0.135131	-0.709933
56500		9.685136	-1.496316	0.090726	0.006838	-0.006439	0.002419	-0.916992	0.005371	0.516357	-0.035806	-0.690291	0.135117	-0.709901
56501		9.695325	-1.467828	0.071114	0.012827	-0.004333	0.000151	-0.928223	0.013672	0.516113	-0.035794	-0.690314	0.135028	-0.709896
56502		9.703875	-1.432126	0.095025	0.013855	-0.005447	-0.001736	-0.928223	0.015869	0.512207	-0.035699	-0.690354	0.134948	-0.709877
56503		9.678819	-1.419071	0.111441	0.012338	-0.003320	-0.003578	-0.927490	0.017334	0.515137	-0.035613	-0.690384	0.134870	-0.709867
56504		9.699458	-1.436405	0.129634	0.006862	-0.002508	0.000931	-0.934814	0.008301	0.513672	-0.035508	-0.690404	0.134857	-0.709855
56505		9.701632	-1.463601	0.089412	0.016655	-0.002587	-0.002603	-0.929688	0.011230	0.514893	-0.035488	-0.690419	0.134735	-0.709865
56506		9.699807	-1.381462	0.076550	0.022511	-0.000049	-0.001274	-0.919189	0.015381	0.520508	-0.035381	-0.690423	0.134602	-0.709892
56507		9.675171	-1.389148	0.096672	0.020947	-0.005776	-0.000134	-0.913574	0.014893	0.517822	-0.035198	-0.690470	0.134503	-0.709874
56508		9.707340	-1.439692	0.106013	0.015155	0.001149	0.004324	-0.924072	0.012451	0.513428	-0.035039	-0.690463	0.134459	-0.709897
56509		9.680222	-1.480365	0.121793	0.014875	0.000401	0.002749	-0.928711	0.007080	0.524170	-0.034940	-0.690450	0.134399	-0.709926
56510		9.684653	-1.476004	0.087029	0.021968	0.000070	0.004348	-0.921143	0.010254	0.508301	-0.034831	-0.690479	0.134301	-0.709922
56511		9.723443	-1.409413	0.107902	0.020381	-0.000311	0.003084	-0.926514	0.011230	0.518799	-0.034712	-0.690426	0.134213	-0.709995
56512		9.730256	-1.372814	0.077690	0.009576	-0.000633	0.004575	-0.929688	0.010986	0.515625	-0.034638	-0.690437	0.134202	-0.709991
56513		9.714305	-1.291511	0.068870	0.001618	0.000482	0.006106	-0.923828	0.003174	0.514404	-0.034614	-0.690419	0.134242	-0.710002
56514		9.710353	-1.263929	0.053433	-0.007766	-0.008392	0.011520	-0.928467	0.010986	0.519287	-0.034676	-0.690445	0.134352	-0.709953
56515		9.722370	-1.259671	0.091568	-0.024173	0.001806	0.017212	-0.922607	0.010010	0.516113	-0.034744	-0.690428	0.134593	-0.709920
56516		9.689126	-1.327086	0.090109	-0.036736	-0.000863	0.026462	-0.928467	0.018555	0.516113	-0.034831	-0.690397	0.134954	-0.709878
56517		9.668481	-1.409176	0.130590	-0.041395	0.000605	0.026934	-0.916260	0.017090	0.515869	-0.034875	-0.690353	0.135347	-0.709843
56518		9.673211	-1.449659	0.101175	-0.040431	0.002438	0.028072	-0.924805	0.011230	0.519775	-0.034902	-0.690300	0.135747	-0.709817
56519		9.705868	-1.490957	0.062839	-0.036705	-0.002244	0.027390	-0.921143	0.015869	0.514160	-0.034975	-0.690297	0.136112	-0.709746
56520		9.729863	-1.482464	0.139544	-0.037561	-0.002963	0.026597	-0.926270	0.016846	0.517334	-0.035007	-0.690264	0.136492	-0.709704
56521		9.669625	-1.535777	0.099115	-0.044411	-0.001941	0.021744	-0.919678	0.013672	0.517090	-0.035103	-0.690242	0.136887	-0.709645
56522		9.660117	-1.633380	0.028624	-0.021311	0.000262	0.009419	-0.927979	0.012451	0.518799	-0.035159	-0.690230	0.137078	-0.709617
56523		9.647562	-1.071132	0.082922	-0.079276	0.009231	0.013979	-0.927734	0.022705	0.522461	-0.035545	-0.690148	0.137650	-0.709567
56524		9.689980	-0.958200	0.158044	-0.249682	-0.002578	0.040765	-0.933838	0.012451	0.516113	-0.036641	-0.690077	0.139374	-0.709244
56525		9.664887	-1.346872	0.207966	-0.376612	-0.001516	0.059876	-0.926270	0.007812	0.520020	-0.038474	-0.689891	0.141910	-0.708824
56526		9.684537	-1.492491	0.277470	-0.417870	-0.005943	0.056313	-0.920654	0.007324	0.527344	-0.040572	-0.689743	0.144655	-0.708296
56527		9.688286	-1.042102	0.439547	-0.513114	-0.011547	0.067953	-0.934326	0.008545	0.525391	-0.043096	-0.689611	0.148034	-0.707577
56528		9.701274	-0.547535	0.433971	-0.718042	-0.003468	0.098529	-0.927002	0.000488	0.515869	-0.046615	-0.689254	0.152766	-0.706696
56529		9.675441	-0.840524	0.268243	-0.934195	0.008761	0.140142	-0.925781	-0.000732	0.516113	-0.051210	-0.688592	0.158926	-0.705664
56530		9.723203	-1.050947	0.082349	-1.064017	0.004574	0.158570	-0.922607	-0.008057	0.524414	-0.056393	-0.687826	0.165911	-0.704407
56531		9.707931	-0.882469	0.063314	-1.215043	0.012863	0.179347	-0.929443	-0.017578	0.522705	-0.062309	-0.686917	0.173858	-0.702877
56532		9.721003	-1.379597	-0.129010	-1.325147	0.016748	0.196849	-0.921875	-0.034424	0.521484	-0.068805	-0.685810	0.182494	-0.701161
56533		9.701017	-1.329988	-0.306874	-1.372139	0.020572	0.198703	-0.932617	-0.026367	0.527832	-0.075622	-0.684601	0.191389	-0.699266
56534		9.692188	-1.220917	-0.302167	-1.486734	0.022461	0.215133	-0.922363	-0.045898	0.526367	-0.082822	-0.683178	0.201040	-0.697131
56535		9.639052	-1.083623	-0.289691	-1.630092	0.027039	0.233113	-0.934082	-0.046143	0.524170	-0.090790	-0.681548	0.211572	-0.694613
56536		9.665404	-1.283000	-0.269561	-1.778356	0.028474	0.258023	-0.930176	-0.055908	0.528320	-0.099393	-0.679559	0.223061	-0.691784
56537		9.628566	-1.521157	-0.213300	-1.852561	0.032699	0.272463	-0.935303	-0.074463	0.528320	-0.108253	-0.677356	0.235008	-0.688651
56538		9.627542	-1.813834	-0.297816	-1.861377	0.037335	0.275051	-0.933838	-0.083984	0.514648	-0.117218	-0.674976	0.246949	-0.685334
56539		9.534278	-1.907174	-0.429119	-1.830084	0.037308	0.267717	-0.941650	-0.092285	0.520020	-0.126028	-0.672398	0.258635	-0.681987
56540		9.556051	-1.989277	-0.786390	-1.806639	0.042330	0.267755	-0.937012	-0.110352	0.518311	-0.134654	-0.669678	0.270171	-0.678533
56541		9.530317	-2.119818	-0.957115	-1.781162	0.049758	0.259890	-0.936279	-0.110107	0.519043	-0.143182	-0.666882	0.281445	-0.674949
56542		9.543126	-2.189000	-0.998613	-1.748709	0.053843	0.258049	-0.934814	-0.135010	0.512451	-0.151368	-0.663950	0.292561	-0.671317
56543		9.599386	-2.592840	-0.990711	-1.654948	0.056305	0.228949	-0.945068	-0.138916	0.514404	-0.159286	-0.661132	0.302856	-0.667690
56544		9.472795	-2.671553	-1.046474	-1.517059	0.057887	0.200313	-0.943604	-0.140869	0.505859	-0.166539	-0.658410	0.312277	-0.664262
56545		9.452789	-2.610778	-1.134568	-1.407047	0.048292	0.185839	-0.943604	-0.149170	0.506348	-0.173164	-0.655762	0.321066	-0.660990
56546		9.519322	-2.455836	-1.015154	-1.336050	0.050241	0.170599	-0.947998	-0.162109	0.495361	-0.179492	-0.653164	0.329359	-0.657785
56547		9.466875	-2.543987	-0.974225	-1.257267	0.050072	0.157248	-0.946533	-0.169434	0.496826	-0.185526	-0.650600	0.337094	-0.654727
56548		9.514040	-2.497934	-1.036941	-1.154984	0.052571	0.137768	-0.942871	-0.187500	0.498291	-0.191069	-0.648182	0.344139	-0.651860
56549		9.569741	-2.109220	-0.996845	-1.142445	0.051166	0.135543	-0.951416	-0.185303	0.488037	-0.196545	-0.645764	0.351039	-0.648946
56550		9.644790	-2.222789	-0.938970	-1.162217	0.057694	0.126516	-0.940674	-0.185547	0.482178	-0.202186	-0.643175	0.358024	-0.645961
56551		9.506275	-2.491981	-0.865699	-1.091638	0.066206	0.108133	-0.947021	-0.199463	0.486572	-0.207544	-0.640655	0.364492	-0.643142
56552		9.458713	-2.361265	-0.807349	-1.016763	0.059714	0.094347	-0.957764	-0.209717	0.482910	-0.212538	-0.638303	0.370452	-0.640439
56553		9.402734	-2.716262	-0.956431	-0.942339	0.061359	0.086324	-0.947510	-0.211426	0.472412	-0.217171	-0.636037	0.375952	-0.637929
56554		9.356278	-2.786986	-1.110334	-0.798600	0.053989	0.064279	-0.959717	-0.215332	0.464844	-0.221118	-0.634088	0.380589	-0.635760
56555		9.419301	-2.382149	-1.231449	-0.718475	0.039152	0.043643	-0.957764	-0.221191	0.469238	-0.224682	-0.632387	0.384733	-0.633707
56556		9.373434	-2.413924	-1.263096	-0.732280	0.031331	0.047659	-0.959717	-0.219727	0.466064	-0.228257	-0.630680	0.388969	-0.631541
56557		9.436016	-2.609576	-1.229500	-0.701848	0.023013	0.030781	-0.952881	-0.231201	0.457520	-0.231718	-0.629103	0.392974	-0.629371
56558		9.503900	-2.610796	-0.894197	-0.640708	0.023701	0.018099	-0.952881	-0.229492	0.462646	-0.234927	-0.627655	0.396584	-0.627359
56559		9.441260	-2.585402	-0.859248	-0.528799	0.016171	0.008681	-0.955078	-0.237061	0.465332	-0.237550	-0.626481	0.399569	-0.625649
56560		9.441368	-2.710050	-0.920641	-0.376626	0.016065	-0.004251	-0.949951	-0.246094	0.457764	-0.239439	-0.625635	0.401685	-0.624419
56561		9.326399	-2.903846	-1.145613	-0.136310	0.025035	-0.019855	-0.966553	-0.240723	0.450928	-0.240189	-0.625253	0.402456	-0.624016
56562		9.371108	-2.785703	-1.569517	0.120015	0.012900	-0.050809	-0.957031	-0.240479	0.456543	-0.239706	-0.625531	0.401785	-0.624356
56563		9.468083	-2.270363	-1.711552	0.259571	0.007964	-0.061440	-0.963623	-0.240234	0.458008	-0.238527	-0.626158	0.400348	-0.625102
56564		9.590235	-1.678863	-1.447309	0.238423	0.003176	-0.049146	-0.960205	-0.235352	0.459473	-0.237376	-0.626728	0.399102	-0.625765
56565		9.678201	-1.737791	-1.026508	0.165569	0.001639	-0.034789	-0.952637	-0.237305	0.456787	-0.236536	-0.627126	0.398301	-0.626195
56566		9.668803	-2.060505	-0.776165	0.194321	0.005307	-0.041699	-0.953857	-0.234131	0.466064	-0.235610	-0.627588	0.397286	-0.626725
56567		9.675004	-1.749344	-0.758510	0.210677	0.004958	-0.041372	-0.949463	-0.229980	0.460938	-0.234589	-0.628087	0.396168	-0.627316
56568		9.629830	-1.667383	-0.840396	0.179857	0.001613	-0.029682	-0.947510	-0.237305	0.466064	-0.233672	-0.628498	0.395266	-0.627816
56569		9.544876	-1.737252	-0.951410	0.148744	-0.001744	-0.015480	-0.957275	-0.235107	0.458984	-0.232842	-0.628828	0.394577	-0.628226
56570		9.551890	-1.897725	-0.920731	0.130053	-0.005058	-0.006644	-0.960449	-0.235840	0.464111	-0.232062	-0.629100	0.394037	-0.628582
56571		9.504619	-2.124268	-0.999593	0.131773	-0.012710	-0.002925	-0.956787	-0.237549	0.463867	-0.231227	-0.629411	0.393506	-0.628911
56572		9.488191	-2.548257	-1.029159	0.181322	-0.016214	-0.010591	-0.950928	-0.238281	0.457031	-0.230166	-0.629863	0.392674	-0.629367
56573		9.491402	-2.627919	-1.093779	0.312674	-0.022693	-0.029227	-0.945312	-0.234863	0.466064	-0.228499	-0.630646	0.391075	-0.630185
56574		9.556655	-2.479558	-1.078260	0.424615	-0.026269	-0.052219	-0.948975	-0.221680	0.460449	-0.226332	-0.631743	0.388768	-0.631296
56575		9.551097	-2.622404	-1.080896	0.541319	-0.038327	-0.067585	-0.949951	-0.227295	0.471680	-0.223582	-0.633134	0.385811	-0.632695
56576		9.539002	-2.942650	-1.048924	0.743140	-0.048137	-0.103482	-0.947510	-0.216553	0.478271	-0.219914	-0.635070	0.381586	-0.634600
56577		9.479357	-3.005326	-1.103792	0.950908	-0.052086	-0.137401	-0.952393	-0.225342	0.469727	-0.215279	-0.637478	0.376085	-0.637054
56578		9.414285	-2.944022	-1.190272	1.123092	-0.059141	-0.159325	-0.958008	-0.213623	0.483887	-0.209865	-0.640207	0.369557	-0.639937
56579		9.455865	-2.966188	-1.187763	1.307623	-0.064129	-0.183160	-0.957031	-0.200928	0.489502	-0.203506	-0.643306	0.361894	-0.643254
56580		9.470792	-2.959580	-1.211673	1.515300	-0.059877	-0.212823	-0.949219	-0.195068	0.486572	-0.196162	-0.646724	0.352918	-0.647084
56581		9.463621	-2.760072	-1.205546	1.708980	-0.055439	-0.243680	-0.946045	-0.183594	0.491211	-0.187954	-0.650386	0.342680	-0.651338
56582		9.474489	-2.416226	-1.210359	1.816777	-0.054373	-0.254458	-0.946777	-0.169434	0.494141	-0.179179	-0.654098	0.331732	-0.655747
56583		9.508640	-2.371706	-1.103750	1.865339	-0.047802	-0.260396	-0.946777	-0.168457	0.498047	-0.170147	-0.657694	0.320410	-0.660172
56584		9.524637	-2.209819	-0.831741	1.906278	-0.050896	-0.266407	-0.941406	-0.150146	0.505371	-0.160926	-0.661213	0.308748	-0.664511
56585		9.526923	-2.266626	-0.652669	1.944650	-0.049028	-0.276496	-0.940918	-0.142822	0.510254	-0.151478	-0.664643	0.296727	-0.668773
56586		9.528735	-2.071793	-0.586547	1.986926	-0.042503	-0.283672	-0.941162	-0.125488	0.510010	-0.141844	-0.667923	0.284336	-0.672988
56587		9.566822	-1.778439	-0.645402	1.974371	-0.045085	-0.284057	-0.940430	-0.113770	0.507324	-0.132233	-0.670989	0.271951	-0.677001
56588		9.557107	-1.682565	-0.643402	1.911680	-0.042238	-0.275033	-0.937012	-0.098389	0.514648	-0.122941	-0.673740	0.259906	-0.680741
56589		9.551714	-1.656545	-0.538487	1.864332	-0.041890	-0.264028	-0.934814	-0.088379	0.521484	-0.113786	-0.676279	0.248098	-0.684212
56590		9.579689	-1.447119	-0.361849	1.808858	-0.040896	-0.255211	-0.933350	-0.084473	0.516846	-0.104877	-0.678609	0.236571	-0.687404
56591		9.577685	-1.398522	-0.300381	1.733151	-0.039680	-0.243977	-0.934814	-0.062256	0.527100	-0.096438	-0.680657	0.225502	-0.690329
56592		9.603414	-1.430690	-0.254350	1.670763	-0.031657	-0.239851	-0.933594	-0.060303	0.520508	-0.088170	-0.682504	0.214713	-0.693046
56593		9.626497	-1.235269	-0.158228	1.571139	-0.024867	-0.224248	-0.932861	-0.046631	0.523438	-0.080534	-0.684038	0.204565	-0.695528
56594		9.645763	-1.131126	-0.082390	1.418228	-0.018787	-0.209489	-0.935059	-0.039551	0.517334	-0.073636	-0.685316	0.195322	-0.697689
56595		9.718714	-1.610917	0.151769	1.305508	-0.023227	-0.201288	-0.925781	-0.030029	0.520020	-0.067388	-0.686394	0.186758	-0.699603
56596		9.687159	-1.615846	-0.029415	1.365543	-0.005052	-0.218071	-0.937500	-0.026611	0.520752	-0.060878	-0.687396	0.177690	-0.701575
56597		9.635182	-1.356172	-0.179325	1.334665	-0.008040	-0.224710	-0.926514	-0.018799	0.521729	-0.054662	-0.688272	0.168744	-0.703434
56598		9.608293	-1.277075	-0.397882	1.236852	-0.006431	-0.197793	-0.919678	-0.006836	0.526123	-0.048827	-0.689046	0.160488	-0.705036
56599		9.706428	-1.452699	-0.313859	1.168305	-0.015440	-0.191816	-0.928223	-0.001221	0.521973	-0.043229	-0.689835	0.152629	-0.706373
56600		9.673243	-1.348306	0.074749	1.147522	-0.008238	-0.191748	-0.930176	-0.004639	0.519775	-0.037813	-0.690439	0.144872	-0.707726
56601		9.740732	-1.576396	0.165877	1.161902	-0.008484	-0.185775	-0.929688	0.011719	0.511963	-0.032449	-0.690971	0.137066	-0.709027
56602		9.729918	-1.539800	0.146590	1.243642	0.006121	-0.206580	-0.922363	0.019043	0.514160	-0.026568	-0.691347	0.128581	-0.710493
56603		9.722629	-1.341815	-0.017532	1.256596	-0.000234	-0.200134	-0.929443	0.020508	0.516357	-0.020535	-0.691751	0.120061	-0.711790
56604		9.686770	-1.537105	-0.001480	1.278615	0.002253	-0.195792	-0.928955	0.031006	0.519287	-0.014437	-0.692067	0.111453	-0.713031
56605		9.665169	-1.681988	-0.035429	1.392452	0.009854	-0.209864	-0.932129	0.035156	0.505859	-0.007700	-0.692305	0.102073	-0.714308
56606		9.737430	-1.583832	0.112376	1.462041	0.006310	-0.215488	-0.926270	0.053955	0.508545	-0.000633	-0.692429	0.092234	-0.715566
56607		9.770700	-2.023417	0.101324	1.600562	0.006599	-0.227435	-0.915527	0.049561	0.505371	0.007291	-0.692486	0.081470	-0.716779
56608		9.729060	-1.682597	0.108111	1.809771	0.016358	-0.270762	-0.930176	0.057373	0.506104	0.016051	-0.692379	0.069244	-0.718025
56609		9.658967	-1.296124	-0.139766	1.872548	0.013891	-0.268850	-0.928711	0.075684	0.494385	0.025176	-0.692100	0.056654	-0.719134
56610		9.684857	-1.275451	0.020212	1.891744	0.003231	-0.264179	-0.918945	0.085205	0.496826	0.034485	-0.691706	0.043937	-0.720016
56611		9.754254	-1.122848	0.299468	1.917723	0.008088	-0.266625	-0.921875	0.091309	0.486328	0.043913	-0.691115	0.031046	-0.720741
56612		9.693823	-1.119580	0.384343	1.971850	0.011193	-0.282053	-0.925049	0.110840	0.487305	0.053522	-0.690302	0.017746	-0.721321
56613		9.716010	-0.570178	0.419085	1.970424	0.005543	-0.276281	-0.933105	0.115967	0.482422	0.063175	-0.689338	0.004459	-0.721667
56614		9.691893	-0.338233	0.306728	1.918912	0.009846	-0.263946	-0.919922	0.132324	0.474854	0.072555	-0.688192	-0.008434	-0.721842
56615		9.753803	-0.102483	0.474044	1.826985	0.007939	-0.252235	-0.921631	0.128662	0.469238	0.081489	-0.686948	-0.020735	-0.721826
56616		9.790457	-0.163979	0.581214	1.707586	0.003765	-0.231234	-0.930908	0.143066	0.464111	0.089789	-0.685666	-0.032169	-0.721641
56617		9.803522	-0.066639	0.669319	1.626600	0.016550	-0.211543	-0.928467	0.158203	0.457275	0.097747	-0.684240	-0.043009	-0.721396
56618		9.858324	-0.511446	0.436189	1.593243	0.011757	-0.210053	-0.920410	0.166504	0.446777	0.105526	-0.682745	-0.053663	-0.721002
56619		9.786940	-0.269588	0.238161	1.571181	0.018822	-0.219808	-0.928711	0.175781	0.441162	0.113111	-0.681104	-0.064233	-0.720540
56620		9.778523	-0.086920	0.325624	1.381000	0.000461	-0.196453	-0.926025	0.175537	0.440186	0.119731	-0.679664	-0.073545	-0.719940
56621		9.708032	-0.156625	0.549211	1.220615	-0.008173	-0.188000	-0.931396	0.179688	0.430176	0.125445	-0.678365	-0.081833	-0.719297
56622		9.626646	0.351938	0.849128	1.050130	-0.010467	-0.162440	-0.927490	0.192383	0.433350	0.130336	-0.677215	-0.088956	-0.718665
56623		9.621544	0.253077	0.986503	0.876862	-0.021562	-0.126454	-0.929199	0.199463	0.436035	0.134465	-0.676298	-0.094867	-0.718012
56624		9.733268	0.082230	0.910294	0.752397	-0.024045	-0.111383	-0.925781	0.194336	0.428467	0.137975	-0.675512	-0.099955	-0.717395
56625		9.786048	0.118492	0.814993	0.612535	-0.027670	-0.098924	-0.929688	0.194092	0.426758	0.140742	-0.674898	-0.104128	-0.716841
56626		9.717233	-0.044219	0.687924	0.489511	-0.029300	-0.088783	-0.922363	0.199463	0.425293	0.142863	-0.674433	-0.107506	-0.716361
56627		9.678602	-0.065431	0.723938	0.397434	-0.030930	-0.072380	-0.924072	0.197266	0.430664	0.144574	-0.674090	-0.110255	-0.715922
56628		9.652156	-0.109227	0.589813	0.358727	-0.030150	-0.063836	-0.928711	0.200195	0.421875	0.146096	-0.673794	-0.112710	-0.715510
56629		9.642533	0.081222	0.588010	0.313397	-0.029163	-0.051143	-0.925049	0.205078	0.424805	0.147454	-0.673551	-0.114835	-0.715122
56630		9.660068	0.032951	0.669932	0.221718	-0.026448	-0.033545	-0.925781	0.209717	0.423340	0.148411	-0.673417	-0.116320	-0.714810
56631		9.703409	0.143857	0.835231	0.101218	-0.024234	-0.015992	-0.922119	0.205566	0.424316	0.148810	-0.673433	-0.116998	-0.714602
56632		9.762846	-0.135026	0.939044	-0.001163	-0.028312	-0.011924	-0.927490	0.200195	0.421387	0.148639	-0.673604	-0.117041	-0.714469
56633		9.844363	-0.567347	0.962086	-0.021458	-0.027866	-0.017034	-0.929199	0.215576	0.418701	0.148314	-0.673792	-0.116983	-0.714369
56634		9.795565	-0.689085	0.608091	0.034809	-0.024168	-0.037790	-0.925537	0.208496	0.426514	0.148238	-0.673858	-0.117407	-0.714252
56635		9.729636	-0.337105	0.223968	0.063607	-0.024011	-0.037773	-0.928955	0.205811	0.426270	0.148294	-0.673895	-0.117975	-0.714112
56636		9.746033	0.151698	0.194237	0.010072	-0.029454	-0.025190	-0.914795	0.207031	0.420410	0.148112	-0.674046	-0.118156	-0.713977
56637		9.852563	-0.051978	0.436621	-0.040802	-0.022603	-0.017045	-0.923340	0.202637	0.435547	0.147717	-0.674226	-0.117997	-0.713916
56638		9.884222	-0.220058	0.669735	-0.014950	-0.018825	-0.016038	-0.925537	0.203613	0.430176	0.147442	-0.674359	-0.117958	-0.713853
56639		9.863926	-0.050480	0.746362	-0.021416	-0.019696	-0.015144	-0.918701	0.197998	0.422607	0.147148	-0.674503	-0.117886	-0.713790
56640		9.804593	0.055656	0.651999	-0.080267	-0.021369	0.000121	-0.923096	0.200684	0.429688	0.146610	-0.674743	-0.117380	-0.713757
56641		9.708496	-0.029068	0.554014	-0.142687	-0.028593	0.015302	-0.924805	0.210693	0.430420	0.145804	-0.675117	-0.116427	-0.713725
56642		9.759379	-0.261341	0.490145	-0.176510	-0.037294	0.020049	-0.929932	0.203857	0.424561	0.144860	-0.675581	-0.115283	-0.713664
56643		9.774500	-0.076455	0.463722	-0.183215	-0.032391	0.017014	-0.920898	0.200928	0.433594	0.143854	-0.676020	-0.114104	-0.713641
56644		9.844503	0.247544	0.362190	-0.230646	-0.037840	0.026237	-0.929443	0.199219	0.422607	0.142618	-0.676560	-0.112587	-0.713618
56645		9.850591	0.790185	0.602413	-0.342920	-0.034306	0.041136	-0.914551	0.195068	0.431152	0.140852	-0.677217	-0.110330	-0.713699
56646		9.891622	0.436709	0.707592	-0.457615	-0.042295	0.061735	-0.923828	0.197021	0.430176	0.138539	-0.678070	-0.107279	-0.713807
56647		9.853769	0.968675	0.849679	-0.589292	-0.034692	0.081526	-0.925781	0.196533	0.442139	0.135617	-0.679027	-0.103339	-0.714039
56648		9.662710	2.354031	1.223841	-1.034666	-0.005338	0.167243	-0.921387	0.196777	0.445312	0.130698	-0.680352	-0.096230	-0.714688
56649		9.729065	0.567378	0.590144	-1.435843	-0.016229	0.248342	-0.916260	0.181396	0.452148	0.123981	-0.682156	-0.086305	-0.715432
56650		9.796896	0.286752	0.532927	-1.565745	-0.016719	0.250653	-0.916260	0.187744	0.449951	0.116485	-0.683992	-0.075565	-0.716153
56651		9.704277	0.535137	0.538220	-1.783221	-0.009301	0.283107	-0.907715	0.169922	0.467773	0.107988	-0.685863	-0.063363	-0.716879
56652		9.744817	0.467828	0.526219	-1.997952	-0.007360	0.315519	-0.927490	0.157715	0.466553	0.098384	-0.687773	-0.049651	-0.717512
56653		9.739139	0.213675	0.463568	-2.168463	0.005322	0.349511	-0.914795	0.144287	0.467529	0.087971	-0.689529	-0.034709	-0.718057
56654		9.702486	-0.336595	0.220648	-2.258458	0.018567	0.371914	-0.917969	0.139893	0.475342	0.077157	-0.691038	-0.019082	-0.718435
56655		9.653948	-0.712695	-0.015270	-2.315327	0.029484	0.387119	-0.918945	0.121094	0.482666	0.066111	-0.692263	-0.003024	-0.718604
56656		9.557992	-0.767694	-0.185103	-2.374418	0.042446	0.395409	-0.921875	0.120361	0.494629	0.054714	-0.693177	0.013459	-0.718561
56657		9.581920	-1.224487	-0.184117	-2.434820	0.043949	0.409237	-0.922119	0.111816	0.495605	0.043090	-0.693829	0.030364	-0.718208
56658		9.591155	-1.540093	-0.124281	-2.389507	0.051559	0.393328	-0.925537	0.098389	0.495850	0.031644	-0.694128	0.046885	-0.717626
56659		9.719259	-1.564552	-0.038070	-2.347881	0.047360	0.378348	-0.920410	0.077148	0.510498	0.020334	-0.694159	0.063054	-0.716766
56660		9.656773	-1.809959	-0.085205	-2.242768	0.051449	0.360067	-0.921387	0.074463	0.514648	0.009470	-0.693947	0.078487	-0.715673
56661		9.683902	-1.679687	-0.192973	-2.134795	0.050258	0.341240	-0.925781	0.059814	0.514160	-0.000799	-0.693509	0.093134	-0.714402
56662		9.632050	-1.946936	-0.257303	-2.005884	0.047796	0.330778	-0.927002	0.047607	0.518799	-0.010408	-0.692869	0.106929	-0.713015
56663		9.632934	-2.303614	-0.248944	-1.814048	0.042986	0.305740	-0.928467	0.035645	0.512207	-0.019048	-0.692132	0.119417	-0.711569
56664		9.595671	-2.830595	-0.159135	-1.546903	0.033757	0.264081	-0.924316	0.027344	0.507324	-0.026407	-0.691354	0.130070	-0.710221
56665		9.617737	-3.133920	-0.145116	-1.220422	0.030604	0.211849	-0.934570	0.017578	0.521484	-0.032180	-0.690611	0.138484	-0.709115
56666		9.618861	-3.151451	-0.212835	-0.905594	0.017856	0.148219	-0.930664	0.020508	0.516846	-0.036515	-0.690099	0.144673	-0.708167
56667		9.576044	-3.203239	-0.266954	-0.612641	0.002585	0.098990	-0.928223	0.013916	0.514648	-0.039340	-0.689773	0.148865	-0.707464
56668		9.556782	-3.032840	-0.205295	-0.327635	-0.012846	0.042295	-0.922607	0.011230	0.520264	-0.040877	-0.689685	0.151064	-0.706996
56669		9.595153	-2.757213	-0.107615	-0.096088	-0.019512	-0.002168	-0.925293	0.011475	0.520020	-0.041319	-0.689830	0.151642	-0.706705
56670		9.646025	-2.490744	-0.110950	0.110288	-0.025293	-0.041195	-0.927490	0.008057	0.524170	-0.040789	-0.690111	0.150794	-0.706643
56671		9.684512	-1.775908	0.070242	0.243238	-0.026281	-0.064640	-0.926758	0.010986	0.520020	-0.039675	-0.690493	0.149022	-0.706709
56672		9.662263	-1.319286	0.121381	0.244875	-0.025874	-0.061965	-0.934326	0.016357	0.518311	-0.038526	-0.690825	0.147270	-0.706815
56673		9.724210	-1.335472	0.217086	0.195605	-0.021079	-0.051422	-0.922852	0.016113	0.521240	-0.037565	-0.691037	0.145886	-0.706947
56674		9.701639	-1.286927	0.141500	0.144004	-0.020479	-0.046034	-0.929932	0.012451	0.518799	-0.036860	-0.691306	0.144814	-0.706941
56675		9.671118	-1.236775	0.088728	0.081021	-0.017484	-0.035363	-0.922852	0.020996	0.520020	-0.036550	-0.691460	0.144172	-0.706938
56676		9.714355	-1.371580	-0.013415	0.023073	-0.014273	-0.028149	-0.929199	0.021973	0.517822	-0.036385	-0.691611	0.143927	-0.706849
56677		9.760300	-1.376537	-0.017496	-0.013374	-0.011450	-0.024368	-0.932617	0.012939	0.512451	-0.036414	-0.691663	0.143935	-0.706795
56678		9.735723	-1.420187	-0.047633	-0.028897	-0.007483	-0.019310	-0.923828	0.016113	0.521484	-0.036692	-0.691603	0.144053	-0.706815
56679		9.699898	-1.452517	-0.064985	-0.023494	-0.007773	-0.015417	-0.921875	0.015625	0.517334	-0.036792	-0.691704	0.144130	-0.706695
56680		9.652974	-1.507751	-0.019630	-0.010356	-0.005894	-0.011329	-0.921387	0.008545	0.533936	-0.036818	-0.691751	0.144168	-0.706640
56681		9.692119	-1.660014	0.058275	0.022914	-0.011897	-0.012224	-0.923828	0.009033	0.525146	-0.036701	-0.692069	0.143912	-0.706387
56682		9.682327	-1.700101	0.123631	0.069013	-0.006442	-0.018973	-0.929932	0.011963	0.522949	-0.036406	-0.692234	0.143388	-0.706347
56683		9.655396	-1.648431	0.037444	0.100210	-0.007743	-0.021468	-0.927246	0.018066	0.521484	-0.035915	-0.692338	0.142696	-0.706410
56684		9.619040	-1.659673	0.020415	0.121222	-0.010805	-0.022262	-0.928467	0.010742	0.525391	-0.035199	-0.692456	0.141912	-0.706489
56685		9.651307	-1.557619	-0.026801	0.138230	-0.007415	-0.024489	-0.921143	0.014893	0.521973	-0.034552	-0.692615	0.140954	-0.706557
56686		9.685203	-1.470551	0.027382	0.129389	-0.006988	-0.023662	-0.923828	0.010254	0.520752	-0.033891	-0.692765	0.140081	-0.706615
56687		9.676181	-1.495486	0.048440	0.118457	-0.008385	-0.022405	-0.927002	0.017334	0.515625	-0.033412	-0.692883	0.139254	-0.706686
56688		9.707253	-1.313456	0.041302	0.096789	-0.003823	-0.021717	-0.927002	0.027588	0.516846	-0.032949	-0.692850	0.138619	-0.706865
56689		9.707627	-1.310655	0.042293	0.049439	-0.003694	-0.012270	-0.930908	0.021973	0.521729	-0.032477	-0.692799	0.138369	-0.706986
56690		9.700416	-1.365291	0.022158	0.026786	-0.002037	-0.008233	-0.923096	0.017334	0.524170	-0.032240	-0.692782	0.138220	-0.707043
56691		9.719989	-1.340587	0.033648	0.005505	-0.002159	-0.003597	-0.923096	0.018311	0.517578	-0.032189	-0.692870	0.138175	-0.706968
56692		9.704412	-1.299616	0.031130	-0.017767	0.002409	0.004203	-0.924805	0.019775	0.519043	-0.032245	-0.692800	0.138344	-0.707000
56693		9.700886	-1.352333	-0.024785	-0.038827	0.004454	0.009490	-0.923096	0.019775	0.521240	-0.032353	-0.692715	0.138671	-0.707014
56694		9.664484	-1.283068	-0.092438	-0.075964	0.008912	0.016660	-0.927734	0.030273	0.522217	-0.032620	-0.692642	0.139244	-0.706961
56695		9.690818	-1.039995	-0.068716	-0.170414	0.012393	0.031724	-0.923828	0.009521	0.524170	-0.033073	-0.692464	0.140530	-0.706860
56696		9.684691	-1.044524	0.008265	-0.301897	0.017491	0.052376	-0.920166	0.020508	0.525879	-0.034673	-0.692302	0.142552	-0.706538
56697		9.687815	-1.164892	0.166274	-0.400361	0.026114	0.060139	-0.927246	0.012207	0.521240	-0.036450	-0.692094	0.145274	-0.706097
56698		9.730104	-1.346406	0.207524	-0.479454	0.021176	0.070881	-0.921143	0.012451	0.521240	-0.038812	-0.691726	0.148503	-0.705660
56699		9.662661	-1.224777	0.134573	-0.520949	0.021380	0.074741	-0.931396	0.004639	0.524658	-0.041291	-0.691387	0.152014	-0.705104
56700		9.683054	-0.434839	0.127296	-0.692746	0.031122	0.102059	-0.929932	0.005615	0.518555	-0.044730	-0.690854	0.156636	-0.704405
56701		9.595958	-0.073655	0.138905	-1.031516	0.036011	0.167047	-0.932617	0.001709	0.523438	-0.049632	-0.689936	0.163678	-0.703373
56702		9.728246	-0.527728	0.176484	-1.350525	0.034744	0.225189	-0.928223	-0.010010	0.524658	-0.055925	-0.688826	0.172897	-0.701782
56703		9.748631	-1.001613	0.239664	-1.539383	0.046102	0.254867	-0.928467	-0.023193	0.520508	-0.063213	-0.687516	0.183302	-0.699805
56704		9.689624	-1.243794	0.094847	-1.646749	0.051320	0.273439	-0.931641	-0.029053	0.527588	-0.071138	-0.685913	0.194377	-0.697624
56705		9.636445	-1.307922	-0.275487	-1.724002	0.055547	0.290000	-0.935303	-0.042236	0.515869	-0.079224	-0.684214	0.205954	-0.695096
56706		9.513969	-1.083779	-0.710457	-1.823532	0.069580	0.308691	-0.940918	-0.049316	0.521973	-0.087946	-0.681944	0.218182	-0.692542
56707		9.619248	-1.153698	-0.727556	-2.028508	0.072067	0.343772	-0.935547	-0.051514	0.522217	-0.097441	-0.679387	0.231739	-0.689374
56708		9.578708	-1.369522	-0.782890	-2.161381	0.072468	0.365611	-0.936035	-0.068604	0.517090	-0.107241	-0.676569	0.246200	-0.685667
56709		9.598046	-1.383347	-0.435852	-2.305671	0.074605	0.387540	-0.935547	-0.080566	0.517822	-0.117847	-0.673315	0.261458	-0.681468
56710		9.536731	-2.014989	-0.414229	-2.340019	0.080136	0.402144	-0.942139	-0.102051	0.521240	-0.128464	-0.669814	0.276865	-0.676899
56711		9.515743	-2.231654	-0.578631	-2.273215	0.079277	0.396827	-0.941650	-0.114258	0.509521	-0.138824	-0.666263	0.291603	-0.672153
56712		9.499555	-2.387405	-0.877177	-2.174015	0.088241	0.389340	-0.944336	-0.115234	0.510742	-0.148752	-0.662370	0.305703	-0.667597
56713		9.424371	-2.561142	-1.230800	-2.100783	0.079220	0.368920	-0.944092	-0.136475	0.498779	-0.158176	-0.658429	0.319289	-0.662952
56714		9.361580	-2.853310	-1.313229	-1.982428	0.072762	0.359128	-0.949951	-0.140625	0.506348	-0.167176	-0.654423	0.332019	-0.658442
56715		9.435049	-3.299587	-1.381756	-1.809652	0.075782	0.326179	-0.944336	-0.156494	0.497559	-0.175314	-0.650582	0.343562	-0.654197
56716		9.490684	-3.519888	-1.581069	-1.562151	0.069397	0.263961	-0.946533	-0.155273	0.491699	-0.182468	-0.647139	0.353359	-0.650426
56717		9.493844	-2.963673	-1.590784	-1.426916	0.070056	0.222862	-0.951904	-0.174072	0.487305	-0.189071	-0.643894	0.362175	-0.646902
56718		9.416470	-3.279746	-1.372669	-1.400154	0.058088	0.200486	-0.952881	-0.168701	0.492188	-0.195608	-0.640732	0.370687	-0.643266
56719		9.474422	-2.972285	-0.797760	-1.283602	0.045717	0.174178	-0.950928	-0.186279	0.476562	-0.201585	-0.637828	0.378420	-0.639795
56720		9.465871	-3.219930	-0.478993	-1.156446	0.031590	0.138066	-0.956299	-0.194824	0.481689	-0.207025	-0.635250	0.385267	-0.636528
56721		9.482952	-3.105306	-0.798984	-0.894401	0.032289	0.094442	-0.970947	-0.196045	0.475098	-0.211290	-0.633216	0.390464	-0.633981
56722		9.518119	-1.926565	-1.145882	-0.861332	0.044870	0.082539	-0.947998	-0.209717	0.479248	-0.215470	-0.631172	0.395387	-0.631557
56723		9.401363	-2.313972	-1.478540	-0.944299	0.031967	0.101462	-0.959229	-0.205811	0.474854	-0.219934	-0.628955	0.400841	-0.628786
56724		9.466413	-2.029016	-1.230590	-0.957460	0.028649	0.108126	-0.963135	-0.212646	0.457031	-0.224404	-0.626666	0.406385	-0.625926
56725		9.448749	-2.011185	-0.854803	-1.018299	0.029100	0.118929	-0.961426	-0.224121	0.468262	-0.229126	-0.624179	0.412275	-0.622841
56726		9.460984	-2.905268	-0.883154	-0.929574	0.024752	0.111433	-0.960938	-0.225098	0.464600	-0.233393	-0.621874	0.417641	-0.619980
56727		9.504827	-2.732773	-0.910412	-0.752800	0.026660	0.074199	-0.961670	-0.224121	0.464111	-0.236930	-0.619998	0.421880	-0.617644
56728		9.346250	-2.510166	-1.168321	-0.737887	0.007969	0.061890	-0.961426	-0.233154	0.449707	-0.240377	-0.618266	0.426000	-0.615215
56729		9.265010	-3.029985	-1.394343	-0.747376	-0.003743	0.062571	-0.954834	-0.237061	0.448730	-0.243821	-0.616546	0.430180	-0.612672
56730		9.168141	-3.534453	-1.276361	-0.637111	0.001173	0.048544	-0.966064	-0.239014	0.445801	-0.246776	-0.615057	0.433703	-0.610499
56731		9.286777	-3.476046	-1.176681	-0.385959	-0.002501	0.000147	-0.964844	-0.245117	0.451172	-0.248670	-0.614260	0.435705	-0.609105
56732		9.337333	-3.145628	-1.581821	-0.084801	0.005742	-0.047701	-0.973633	-0.251709	0.453857	-0.249294	-0.614216	0.435916	-0.608744
56733		9.435809	-2.178902	-1.961892	0.084193	0.004244	-0.066289	-0.955811	-0.246094	0.444824	-0.249140	-0.614595	0.435182	-0.608950
56734		9.458098	-1.563300	-1.998704	0.050731	0.005651	-0.036318	-0.961670	-0.242432	0.449463	-0.249011	-0.614788	0.434770	-0.609102
56735		9.578147	-1.421839	-1.485281	-0.041108	0.007845	-0.007821	-0.963623	-0.246338	0.447754	-0.249215	-0.614679	0.434966	-0.608988
56736		9.620327	-1.844702	-0.959527	-0.104271	0.008601	0.013769	-0.960938	-0.242432	0.451660	-0.249639	-0.614357	0.435588	-0.608694
56737		9.644041	-2.612330	-0.811779	-0.002982	0.003878	0.006368	-0.960449	-0.241699	0.442627	-0.249563	-0.614300	0.435666	-0.608727
56738		9.496853	-2.382944	-0.936673	0.137312	0.007069	-0.016317	-0.965576	-0.241699	0.452148	-0.248898	-0.614594	0.434911	-0.609243
56739		9.409627	-2.056443	-1.261322	0.112918	-0.002277	-0.004699	-0.968262	-0.241699	0.449463	-0.248262	-0.614847	0.434354	-0.609645
56740		9.356064	-2.074383	-1.412362	0.030188	-0.008221	0.014486	-0.960205	-0.243164	0.444824	-0.247932	-0.614886	0.434328	-0.609757
56741		9.368989	-2.435217	-1.321368	-0.049444	-0.020514	0.028631	-0.964111	-0.248047	0.440918	-0.247897	-0.614773	0.434804	-0.609547
56742		9.323523	-3.132852	-1.231836	0.035350	-0.025813	0.010719	-0.955322	-0.248047	0.453857	-0.247502	-0.614922	0.434770	-0.609581
56743		9.358077	-2.903925	-1.418314	0.199386	-0.016450	-0.028685	-0.956787	-0.242920	0.447021	-0.246491	-0.615518	0.433675	-0.610169
56744		9.328001	-2.210627	-1.445308	0.185335	-0.026892	-0.020571	-0.960938	-0.243164	0.456787	-0.245474	-0.616090	0.432726	-0.610675
56745		9.339356	-2.456827	-1.199470	0.172066	-0.032953	-0.004634	-0.960449	-0.239502	0.447266	-0.244419	-0.616616	0.431933	-0.611129
56746		9.413696	-2.706434	-1.117207	0.322462	-0.027289	-0.021813	-0.963623	-0.235107	0.450684	-0.242702	-0.617464	0.430281	-0.612121
56747		9.490638	-2.115986	-1.120962	0.425019	-0.018064	-0.036441	-0.968750	-0.243164	0.453613	-0.240557	-0.618521	0.428007	-0.613493
56748		9.406928	-2.005432	-1.329351	0.370874	-0.022647	-0.007298	-0.950684	-0.235107	0.452881	-0.238539	-0.619384	0.426156	-0.614698
56749		9.477497	-2.624328	-1.265847	0.408115	-0.030541	-0.008114	-0.959961	-0.228516	0.455566	-0.236292	-0.620369	0.424116	-0.615982
56750		9.451695	-3.153760	-1.123497	0.589634	-0.028682	-0.027583	-0.961670	-0.225098	0.460938	-0.233201	-0.621749	0.421045	-0.617873
56751		9.459123	-3.440476	-0.992014	0.860187	-0.022385	-0.073253	-0.963867	-0.219482	0.461426	-0.228957	-0.623761	0.416313	-0.620633
56752		9.403931	-3.957478	-1.378730	1.197944	-0.019891	-0.134340	-0.959473	-0.212646	0.467773	-0.223268	-0.626555	0.409489	-0.624420
56753		9.450096	-4.120695	-1.710647	1.540652	-0.034711	-0.200695	-0.959229	-0.199951	0.481201	-0.216053	-0.630214	0.400503	-0.629086
56754		9.369829	-4.268389	-1.924935	1.913252	-0.031979	-0.263192	-0.960449	-0.195068	0.478760	-0.207151	-0.634618	0.389147	-0.634755
56755		9.383840	-3.840533	-1.797690	2.203288	-0.046119	-0.325146	-0.958496	-0.177246	0.482910	-0.196972	-0.639567	0.375855	-0.641006
56756		9.294123	-3.689277	-1.629657	2.418696	-0.046704	-0.357671	-0.953857	-0.164795	0.485352	-0.185726	-0.644724	0.361114	-0.647637
56757		9.308197	-3.522509	-1.525770	2.625981	-0.055641	-0.402418	-0.955566	-0.144043	0.495361	-0.173513	-0.650083	0.344869	-0.654485
56758		9.361792	-2.617512	-1.306713	2.732499	-0.054346	-0.424187	-0.951904	-0.136963	0.496094	-0.160727	-0.655323	0.327756	-0.661283
56759		9.337865	-2.311128	-1.025818	2.738032	-0.051490	-0.420165	-0.943604	-0.119873	0.503174	-0.147878	-0.660174	0.310455	-0.667772
56760		9.452430	-2.358555	-0.965010	2.748585	-0.048762	-0.425409	-0.944336	-0.103027	0.502441	-0.134920	-0.664708	0.292886	-0.673927
56761		9.411548	-2.087071	-0.820293	2.744180	-0.042417	-0.430775	-0.947754	-0.091553	0.503418	-0.121975	-0.668822	0.275163	-0.679768
56762		9.514417	-1.545422	-0.794313	2.613338	-0.045293	-0.412590	-0.943115	-0.074219	0.510010	-0.109645	-0.672404	0.258152	-0.684988
56763		9.467864	-1.856336	-0.647205	2.459989	-0.047914	-0.389729	-0.950928	-0.065918	0.515869	-0.097966	-0.675539	0.242011	-0.689551
56764		9.454195	-1.749569	-0.557483	2.391953	-0.049279	-0.374731	-0.947021	-0.040771	0.508545	-0.086616	-0.678302	0.226246	-0.693698
56765		9.525277	-1.109504	-0.525200	2.249540	-0.053046	-0.367550	-0.938477	-0.034424	0.512939	-0.075886	-0.680663	0.211267	-0.697356
56766		9.608526	-0.946232	-0.390113	2.038652	-0.050710	-0.327054	-0.941650	-0.028564	0.519775	-0.066177	-0.682642	0.197651	-0.700396
56767		9.759655	-1.257562	-0.145749	1.901376	-0.043557	-0.321089	-0.934326	-0.011475	0.501953	-0.057291	-0.684334	0.184805	-0.703030
56768		9.751351	-1.541557	0.038222	1.871477	-0.035534	-0.315965	-0.938232	-0.001221	0.505615	-0.048458	-0.685691	0.172098	-0.705594
56769		9.674989	-1.523998	0.056864	1.911583	-0.027196	-0.321477	-0.931885	0.013672	0.507568	-0.039423	-0.686881	0.159076	-0.708050
56770		9.571993	-1.555390	-0.104399	1.947039	-0.030416	-0.306760	-0.922852	0.019531	0.504639	-0.030015	-0.687963	0.145887	-0.710298
56771		9.594770	-1.843266	-0.287417	2.045260	-0.027314	-0.304852	-0.934570	0.030273	0.502930	-0.020069	-0.688881	0.132094	-0.712454
56772		9.626490	-1.485678	-0.129265	2.106065	-0.025930	-0.295740	-0.937500	0.034668	0.491699	-0.009722	-0.689561	0.117971	-0.714488
56773		9.575038	-1.945565	-0.073580	2.214265	-0.007155	-0.296116	-0.933838	0.057129	0.495850	0.001212	-0.689919	0.103184	-0.716494
56774		9.618820	-2.077277	-0.219259	2.346727	-0.019897	-0.319970	-0.934814	0.072754	0.494385	0.012830	-0.690141	0.087419	-0.718261
56775		9.698579	-1.659855	-0.020470	2.366064	-0.032363	-0.325910	-0.921631	0.079102	0.490234	0.024527	-0.690170	0.071467	-0.719692
56776		9.681833	-1.566313	0.147242	2.347889	-0.038790	-0.339502	-0.925049	0.101318	0.481934	0.036011	-0.689981	0.055529	-0.720795
56777		9.707512	-1.537988	0.411431	2.347934	-0.046214	-0.345079	-0.934082	0.100830	0.479736	0.047475	-0.689569	0.039520	-0.721581
56778		9.691544	-1.428233	0.274283	2.420775	-0.036787	-0.364525	-0.927979	0.117432	0.477539	0.059172	-0.688802	0.022978	-0.722165
56779		9.633726	-0.669387	0.104312	2.412540	-0.035983	-0.367111	-0.928467	0.128662	0.470459	0.070794	-0.687754	0.006457	-0.722455
56780		9.683141	-0.301236	0.149624	2.310971	-0.035874	-0.342733	-0.927734	0.136963	0.466553	0.081946	-0.686494	-0.009316	-0.722443
56781		9.788522	-0.202370	0.337164	2.205668	-0.038087	-0.323045	-0.922363	0.155762	0.454834	0.092572	-0.685077	-0.024336	-0.722155
56782		9.785920	-0.006089	0.442802	2.090480	-0.029561	-0.303799	-0.936279	0.155273	0.453613	0.102651	-0.683480	-0.038561	-0.721686
56783		9.731412	0.419128	0.558028	1.886166	-0.032496	-0.274150	-0.923584	0.181641	0.446533	0.111678	-0.681898	-0.051359	-0.721045
56784		9.719103	0.582912	0.679838	1.638549	-0.026153	-0.238302	-0.934082	0.173584	0.439941	0.119540	-0.680371	-0.062488	-0.720348
56785		9.733561	0.481759	0.715633	1.401838	-0.026210	-0.203574	-0.931152	0.180420	0.433350	0.126204	-0.678992	-0.071967	-0.719628
56786		9.813135	0.366679	0.771064	1.169863	-0.029570	-0.170689	-0.922852	0.194824	0.430664	0.131740	-0.677817	-0.079871	-0.718909
56787		9.740639	0.416186	0.719461	0.969368	-0.024470	-0.152671	-0.924805	0.193604	0.426758	0.136265	-0.676787	-0.086480	-0.718270
56788		9.737262	0.331014	0.688499	0.752785	-0.029756	-0.115887	-0.929443	0.194824	0.426758	0.139764	-0.676027	-0.091582	-0.717681
56789		9.668777	0.098140	0.643113	0.615143	-0.032668	-0.092076	-0.915283	0.200439	0.425537	0.142615	-0.675442	-0.095726	-0.717130
56790		9.609127	0.226810	0.870026	0.475565	-0.031425	-0.069987	-0.922852	0.200195	0.415527	0.144819	-0.675018	-0.098916	-0.716654
56791		9.625421	-0.096569	1.049716	0.368792	-0.027343	-0.048553	-0.932617	0.198486	0.427490	0.146553	-0.674707	-0.101347	-0.716255
56792		9.726885	-0.171232	0.788181	0.324318	-0.021778	-0.041019	-0.919434	0.205078	0.417969	0.148062	-0.674421	-0.103447	-0.715914
56793		9.773008	0.035337	0.546428	0.237267	-0.020291	-0.032192	-0.920898	0.206787	0.418213	0.149158	-0.674234	-0.104993	-0.715638
56794		9.708865	-0.127130	0.650271	0.083299	-0.031968	-0.014719	-0.927246	0.202881	0.425537	0.149483	-0.674322	-0.105540	-0.715407
56795		9.752754	-0.538598	0.797955	0.048643	-0.027493	-0.002066	-0.921143	0.204346	0.422119	0.149673	-0.674439	-0.105791	-0.715219
56796		9.697043	-0.525111	1.023309	0.059816	-0.025245	-0.016719	-0.930664	0.206543	0.426514	0.149850	-0.674516	-0.106194	-0.715050
56797		9.733669	-0.407566	0.995161	0.038287	-0.020027	-0.022908	-0.918213	0.207520	0.413574	0.149871	-0.674582	-0.106495	-0.714939
56798		9.759658	-0.454250	0.832122	-0.004520	-0.021723	-0.024130	-0.923340	0.208496	0.418457	0.149662	-0.674707	-0.106563	-0.714854
56799		9.756453	-0.533325	0.418056	-0.021107	-0.020220	-0.030985	-0.921631	0.211426	0.422119	0.149317	-0.674838	-0.106568	-0.714802
56800		9.741366	-0.542149	0.418227	-0.019747	-0.029030	-0.022620	-0.922607	0.202637	0.422363	0.149028	-0.675026	-0.106547	-0.714687
56801		9.803849	-0.484021	0.502907	-0.002132	-0.025024	-0.019869	-0.926514	0.209717	0.420166	0.148838	-0.675175	-0.106598	-0.714578
56802		9.862327	-0.145586	0.575818	0.002665	-0.017479	-0.025816	-0.928467	0.200684	0.427979	0.148667	-0.675265	-0.106715	-0.714511
56803		9.858928	0.082750	0.742818	-0.078321	-0.015904	-0.015761	-0.923096	0.205566	0.426270	0.148072	-0.675460	-0.106273	-0.714517
56804		9.891698	-0.215661	0.698426	-0.149476	-0.015767	-0.005098	-0.925049	0.205078	0.427002	0.147158	-0.675747	-0.105360	-0.714570
56805		9.767227	-0.208320	0.471604	-0.146461	-0.021482	-0.004840	-0.933105	0.193848	0.428467	0.146257	-0.676062	-0.104472	-0.714587
56806		9.749670	0.098214	0.292846	-0.176414	-0.029712	0.008577	-0.925781	0.194092	0.422363	0.145235	-0.676478	-0.103324	-0.714569
56807		9.690877	0.527374	0.404671	-0.302164	-0.021051	0.042085	-0.930908	0.203613	0.432129	0.143723	-0.677018	-0.101238	-0.714662
56808		9.788526	0.154467	0.550342	-0.372543	-0.031072	0.061905	-0.922119	0.202637	0.428467	0.141938	-0.677711	-0.098647	-0.714724
56809		9.932399	0.243717	0.843288	-0.417342	-0.032299	0.065059	-0.919189	0.206543	0.437256	0.139925	-0.678457	-0.095780	-0.714803
56810		9.840090	1.218112	1.119338	-0.608541	-0.020743	0.088605	-0.924316	0.193115	0.435791	0.136984	-0.679361	-0.091632	-0.715058
56811		9.734964	1.987199	1.221794	-1.060459	-0.018651	0.161437	-0.930420	0.186279	0.435791	0.131891	-0.680787	-0.084364	-0.715553
56812		9.718831	1.582883	1.089069	-1.548016	-0.020371	0.249875	-0.927979	0.184814	0.440674	0.124539	-0.682732	-0.073686	-0.716196
56813		9.698070	1.492032	0.939573	-1.967073	-0.008414	0.318785	-0.918945	0.174316	0.454590	0.115208	-0.684926	-0.060103	-0.716932
56814		9.581026	1.109159	0.662589	-2.367937	0.003608	0.396874	-0.917725	0.169678	0.460938	0.104016	-0.687238	-0.043649	-0.717621
56815		9.599676	-0.020891	0.322988	-2.600158	0.017118	0.456988	-0.919678	0.156250	0.465576	0.091834	-0.689382	-0.025450	-0.718103
56816		9.584987	-0.386087	-0.097098	-2.680617	0.039364	0.473514	-0.918457	0.144043	0.473633	0.079245	-0.691111	-0.006648	-0.718360
56817		9.657978	-0.674744	-0.209857	-2.829592	0.049830	0.505651	-0.926514	0.137695	0.479004	0.065954	-0.692502	0.013239	-0.718272
56818		9.626644	-1.262813	-0.356353	-2.884657	0.064284	0.518467	-0.925781	0.117188	0.486084	0.052408	-0.693425	0.033515	-0.717838
56819		9.587454	-1.356004	-0.443700	-2.908849	0.077504	0.504420	-0.919922	0.097656	0.494141	0.038579	-0.693872	0.053851	-0.717045
56820		9.503101	-1.778136	-0.477930	-2.937757	0.079484	0.508626	-0.927002	0.088867	0.498535	0.024573	-0.693899	0.074362	-0.715800
56821		9.631101	-2.467455	-0.550743	-2.824984	0.078530	0.488760	-0.921143	0.074707	0.500244	0.011123	-0.693500	0.094034	-0.714207
56822		9.579531	-2.834783	-0.476744	-2.568253	0.074318	0.446358	-0.924561	0.054932	0.499512	-0.001082	-0.692777	0.111885	-0.712419
56823		9.556461	-2.807873	-0.406449	-2.266872	0.075932	0.396439	-0.927979	0.048828	0.510742	-0.011887	-0.691793	0.127623	-0.710629
56824		9.593918	-2.909217	-0.368598	-2.005823	0.063357	0.362135	-0.936279	0.038330	0.510986	-0.021317	-0.690745	0.141580	-0.708782
56825		9.620352	-3.433542	-0.332821	-1.677631	0.053929	0.306021	-0.924561	0.032471	0.517578	-0.029178	-0.689690	0.153247	-0.707100
56826		9.592147	-3.713334	-0.292832	-1.293801	0.038472	0.240643	-0.934570	0.014404	0.517090	-0.035140	-0.688844	0.162258	-0.705642
56827		9.549249	-3.615081	-0.264332	-0.926272	0.029994	0.175183	-0.922852	0.020508	0.514404	-0.039473	-0.688160	0.168732	-0.704562
56828		9.550698	-3.796228	-0.268187	-0.553152	0.008133	0.105113	-0.924316	0.023438	0.511475	-0.041928	-0.687804	0.172615	-0.703827
56829		9.499692	-3.890001	-0.287473	-0.131588	-0.008021	0.037538	-0.925293	0.015381	0.518799	-0.042289	-0.687752	0.173648	-0.703602
56830		9.533772	-3.577590	-0.287989	0.260860	-0.021041	-0.034303	-0.930664	0.019043	0.513428	-0.040871	-0.688062	0.171973	-0.703794
56831		9.535650	-2.787691	-0.164799	0.538683	-0.037149	-0.073538	-0.926514	0.023682	0.517334	-0.038068	-0.688549	0.168461	-0.704323
56832		9.606183	-1.574898	0.193719	0.581270	-0.036995	-0.088185	-0.921387	0.019043	0.530029	-0.035080	-0.689090	0.164610	-0.704860
56833		9.633408	-1.236633	0.357310	0.452919	-0.032460	-0.068845	-0.930908	0.015137	0.514648	-0.032784	-0.689643	0.161598	-0.705127
56834		9.681361	-1.409616	0.372377	0.320448	-0.026880	-0.057580	-0.926270	0.024902	0.502930	-0.031337	-0.689947	0.159438	-0.705387
56835		9.648113	-1.426109	0.268624	0.206389	-0.024013	-0.044564	-0.925781	0.033691	0.521484	-0.030390	-0.690094	0.158037	-0.705600
56836		9.642550	-1.411592	0.103957	0.091143	-0.026638	-0.033884	-0.925781	0.031494	0.515625	-0.029887	-0.690362	0.157366	-0.705509
56837		9.670721	-1.511290	-0.045801	0.004801	-0.021395	-0.022977	-0.928711	0.021484	0.518311	-0.029879	-0.690509	0.157265	-0.705388
56838		9.664213	-1.604914	-0.064718	-0.023231	-0.013653	-0.015405	-0.929688	0.021484	0.512939	-0.030149	-0.690611	0.157360	-0.705255
56839		9.645875	-1.587868	-0.030939	-0.023347	-0.015704	-0.006401	-0.923828	0.034180	0.518555	-0.030375	-0.690653	0.157513	-0.705171
56840		9.632023	-1.587052	-0.029256	-0.026287	-0.011327	-0.000360	-0.927002	0.037109	0.516846	-0.030347	-0.690729	0.157721	-0.705051
56841		9.625425	-1.660357	0.047910	-0.028479	-0.005839	0.010076	-0.928467	0.025879	0.511719	-0.030238	-0.690716	0.158004	-0.705005
56842		9.662104	-1.797323	0.120575	-0.013970	-0.009791	0.016186	-0.926758	0.020264	0.516113	-0.030228	-0.690672	0.158232	-0.704997
56843		9.620371	-2.012901	0.099285	0.028162	-0.008635	0.011418	-0.914307	0.034668	0.518066	-0.030099	-0.690702	0.158179	-0.704985
56844		9.627162	-1.996580	0.072853	0.091392	-0.009771	0.001241	-0.927734	0.024414	0.516602	-0.029358	-0.690845	0.157699	-0.704984
56845		9.612206	-1.806518	0.016897	0.099006	-0.008681	0.001115	-0.935059	0.027100	0.522461	-0.028838	-0.690894	0.157171	-0.705076
56846		9.624926	-1.766261	0.007403	0.073207	-0.010271	0.004595	-0.924561	0.032959	0.514404	-0.028411	-0.690958	0.156818	-0.705108
56847		9.638096	-1.781533	0.049610	0.037877	-0.007219	0.006937	-0.927002	0.033691	0.512207	-0.028066	-0.690954	0.156688	-0.705155
56848		9.618064	-1.806275	0.037119	-0.001379	-0.007005	0.011714	-0.930420	0.031738	0.509521	-0.027930	-0.690885	0.156817	-0.705199
56849		9.596175	-1.883976	0.021758	-0.022997	-0.005158	0.009464	-0.921387	0.029785	0.509521	-0.028002	-0.690745	0.157060	-0.705279
56850		9.614461	-1.900693	-0.016330	-0.019182	-0.003415	0.006684	-0.926270	0.034424	0.511963	-0.028092	-0.690671	0.157261	-0.705304
56851		9.654338	-1.875803	0.009015	-0.015278	-0.008433	0.007191	-0.935059	0.031982	0.518799	-0.028045	-0.690615	0.157443	-0.705320
56852		9.646087	-1.887323	0.078164	-0.008833	-0.003511	0.002288	-0.926025	0.037354	0.514648	-0.028070	-0.690565	0.157565	-0.705341
56853		9.627526	-1.837694	0.064215	-0.011185	-0.007438	0.002053	-0.931641	0.026855	0.516113	-0.027950	-0.690543	0.157690	-0.705339
56854		9.617546	-1.867068	0.081801	-0.008662	-0.003853	0.003529	-0.926514	0.038574	0.517578	-0.028108	-0.690487	0.157821	-0.705358
56855		9.630877	-1.812641	0.023928	-0.002181	-0.004271	0.001005	-0.937744	0.032715	0.512451	-0.027905	-0.690486	0.157885	-0.705353
56856		9.622171	-1.734333	-0.008180	-0.008701	-0.000953	0.006559	-0.932861	0.035400	0.519531	-0.027934	-0.690286	0.158033	-0.705515
56857		9.658943	-1.800981	-0.032860	-0.009165	-0.003781	0.009151	-0.927002	0.028076	0.517578	-0.027834	-0.690251	0.158190	-0.705517
56858		9.648426	-1.696787	-0.024438	-0.015512	0.001634	0.010538	-0.928955	0.032471	0.513916	-0.027973	-0.690216	0.158400	-0.705499
56859		9.618497	-1.671830	0.024853	-0.030458	0.003263	0.020298	-0.922119	0.031738	0.514160	-0.028034	-0.690070	0.158746	-0.705562
56860		9.636592	-1.611428	0.030539	-0.056099	0.008144	0.026578	-0.920166	0.031494	0.515381	-0.028212	-0.689954	0.159274	-0.705549
56861		9.621304	-1.595690	0.031480	-0.099410	0.009990	0.035985	-0.923340	0.032471	0.519287	-0.028583	-0.689845	0.160109	-0.705451
56862		9.558992	-1.215408	-0.183231	-0.185485	0.029418	0.043350	-0.933105	0.030762	0.512695	-0.029395	-0.689625	0.161488	-0.705319
56863		9.651310	-0.619539	0.015997	-0.469595	0.027959	0.080738	-0.931396	0.029785	0.513916	-0.031702	-0.689085	0.164754	-0.704992
56864		9.722639	-1.163990	0.126601	-0.774774	0.032320	0.130406	-0.928711	0.029785	0.518066	-0.035408	-0.688393	0.170085	-0.704224
56865		9.642282	-1.437549	0.126928	-0.911746	0.039916	0.133851	-0.927246	0.020996	0.522217	-0.039716	-0.687677	0.176218	-0.703186
56866		9.579669	-1.080681	0.100658	-1.140009	0.042910	0.169526	-0.936035	0.011230	0.519775	-0.045204	-0.686867	0.183878	-0.701684
56867		9.607320	-0.032533	0.242400	-1.521686	0.052193	0.223469	-0.930664	0.003662	0.523682	-0.052699	-0.685562	0.194060	-0.699691
56868		9.599585	-0.659670	0.092102	-1.944161	0.044650	0.313363	-0.927490	-0.008789	0.521973	-0.061950	-0.683967	0.207160	-0.696733
56869		9.618797	-0.798830	0.005994	-2.162475	0.071591	0.347173	-0.923340	-0.015137	0.525146	-0.072288	-0.681861	0.221631	-0.693340
56870		9.557934	-1.168908	-0.386122	-2.392787	0.074293	0.401559	-0.930664	-0.023682	0.520020	-0.083332	-0.679382	0.237635	-0.689220
56871		9.501181	-1.807910	-0.744853	-2.488059	0.071537	0.424397	-0.935791	-0.045166	0.519775	-0.094614	-0.676376	0.254240	-0.684782
56872		9.493441	-1.609875	-1.122332	-2.556462	0.083598	0.432874	-0.938965	-0.065430	0.522217	-0.106429	-0.672957	0.271128	-0.679920
56873		9.342954	-1.823892	-1.200503	-2.701493	0.083013	0.474905	-0.944336	-0.072021	0.518799	-0.118874	-0.669118	0.288882	-0.674312
56874		9.407752	-2.683471	-1.152368	-2.674432	0.083656	0.478024	-0.934814	-0.086670	0.510010	-0.130840	-0.664881	0.306402	-0.668529
56875		9.433278	-3.090145	-0.957331	-2.533010	0.080519	0.451574	-0.942627	-0.100586	0.511963	-0.142148	-0.660587	0.322838	-0.662718
56876		9.363791	-3.723092	-1.059669	-2.284510	0.072205	0.413981	-0.945801	-0.112549	0.509766	-0.152191	-0.656513	0.337539	-0.657188
56877		9.313926	-4.002806	-1.512458	-1.918573	0.076132	0.348515	-0.948730	-0.116943	0.503418	-0.160611	-0.652824	0.349763	-0.652450
56878		9.343337	-3.754663	-1.620052	-1.621293	0.063316	0.286523	-0.946289	-0.137939	0.504883	-0.167746	-0.649492	0.360032	-0.648381
56879		9.275075	-3.989282	-1.665758	-1.301196	0.047023	0.241018	-0.948730	-0.142334	0.496582	-0.173514	-0.646759	0.368224	-0.644985
56880		9.399756	-3.931844	-1.515964	-0.925062	0.041335	0.176249	-0.952881	-0.148193	0.493652	-0.177593	-0.644637	0.374086	-0.642623
56881		9.385206	-3.019383	-1.772415	-0.655618	0.045400	0.127022	-0.950195	-0.148193	0.495850	-0.180500	-0.643003	0.378226	-0.641024
56882		9.440839	-2.081159	-1.619490	-0.681862	0.039698	0.121269	-0.953125	-0.158447	0.490967	-0.183542	-0.641369	0.382473	-0.639276
56883		9.458031	-1.973166	-1.283247	-0.864870	0.038347	0.156733	-0.951172	-0.159912	0.490723	-0.187380	-0.639311	0.387871	-0.636967
56884		9.484874	-2.265658	-0.571089	-0.989546	0.019398	0.180092	-0.951416	-0.163818	0.499268	-0.191675	-0.637049	0.394060	-0.634149
56885		9.507431	-2.603546	-0.039585	-0.991384	0.031816	0.185922	-0.956299	-0.165771	0.492188	-0.195973	-0.634661	0.400238	-0.631356
56886		9.373939	-2.949461	-0.479091	-0.923578	0.037355	0.172232	-0.955078	-0.179199	0.489990	-0.199993	-0.632347	0.405955	-0.628761
56887		9.271263	-3.120681	-1.315734	-0.896718	0.036165	0.165046	-0.956787	-0.183838	0.481689	-0.203896	-0.630072	0.411469	-0.626202
56888		9.240083	-2.816883	-1.694167	-0.951136	0.023941	0.157798	-0.951172	-0.187744	0.475586	-0.208067	-0.627753	0.417228	-0.623343
56889		9.191403	-3.088457	-1.463589	-0.981557	0.005574	0.159101	-0.958496	-0.188477	0.484131	-0.212311	-0.625430	0.423157	-0.620241
56890		9.244168	-3.958154	-1.239343	-0.781454	-0.001907	0.117616	-0.956543	-0.207764	0.484375	-0.215684	-0.623615	0.427826	-0.617697
56891		9.208244	-4.162964	-1.437645	-0.374951	0.000065	0.054241	-0.951416	-0.195557	0.483887	-0.217278	-0.622725	0.430062	-0.616482
56892		9.245151	-2.860752	-1.963002	-0.077305	0.010857	0.008865	-0.957031	-0.187500	0.474854	-0.217591	-0.622476	0.430516	-0.616306
56893		9.261221	-1.826210	-2.078239	-0.147420	0.012308	0.035831	-0.956787	-0.194824	0.479248	-0.218137	-0.621993	0.431471	-0.615934
56894		9.354123	-2.239767	-1.577715	-0.293580	-0.009239	0.071969	-0.964844	-0.197266	0.467041	-0.219178	-0.621225	0.433398	-0.614984
56895		9.349908	-3.301516	-0.769701	-0.172017	-0.008179	0.062081	-0.959717	-0.194092	0.475830	-0.219645	-0.620703	0.434651	-0.614461
56896		9.350986	-3.198544	-1.059793	0.097116	0.027397	0.020507	-0.965332	-0.191406	0.477783	-0.219057	-0.620647	0.434240	-0.615018
56897		9.402455	-2.412986	-1.651030	0.097544	0.015128	0.018928	-0.961914	-0.198730	0.468994	-0.218431	-0.620657	0.433842	-0.615511
56898		9.338139	-2.154638	-1.646251	-0.083637	0.013710	0.042414	-0.960449	-0.192139	0.478271	-0.218622	-0.620256	0.434499	-0.615385
56899		9.348401	-2.891019	-1.406777	-0.178959	0.012589	0.047017	-0.959229	-0.195312	0.476074	-0.219270	-0.619676	0.435667	-0.614912
56900		9.417305	-3.392425	-1.008323	-0.102908	-0.001087	0.025194	-0.953369	-0.189453	0.462646	-0.219592	-0.619380	0.436358	-0.614606
56901		9.338321	-3.407170	-1.186785	0.083458	-0.001006	-0.014452	-0.961182	-0.195557	0.476074	-0.219153	-0.619561	0.435895	-0.614908
56902		9.318124	-2.753887	-1.369088	0.179793	-0.000544	-0.037378	-0.953857	-0.195068	0.478516	-0.218336	-0.620006	0.434812	-0.615516
56903		9.325698	-2.329133	-1.509929	0.098291	-0.016531	-0.023536	-0.954102	-0.193115	0.480469	-0.217809	-0.620334	0.434247	-0.615771
56904		9.310818	-2.711652	-1.385603	0.045621	-0.015700	-0.011732	-0.961914	-0.188965	0.468262	-0.217497	-0.620518	0.434014	-0.615861
56905		9.330959	-2.803848	-1.337331	0.081878	-0.013682	-0.021911	-0.958984	-0.195068	0.475342	-0.217059	-0.620780	0.433547	-0.616080
56906		9.292478	-2.782840	-1.361402	0.106957	-0.023886	-0.017441	-0.952881	-0.194580	0.474609	-0.216434	-0.621136	0.432982	-0.616338
56907		9.300615	-3.069551	-1.292781	0.183651	-0.031615	-0.026139	-0.958008	-0.189453	0.479736	-0.215427	-0.621701	0.431991	-0.616816
56908		9.269536	-3.119071	-1.357112	0.321615	-0.025088	-0.043478	-0.958740	-0.194824	0.483398	-0.213809	-0.622539	0.430190	-0.617792
56909		9.259771	-2.603302	-1.531379	0.363328	-0.028992	-0.042480	-0.956543	-0.184326	0.483887	-0.211963	-0.623461	0.428181	-0.618893
56910		9.308159	-2.359233	-1.456143	0.304628	-0.024357	-0.026617	-0.960449	-0.181885	0.485596	-0.210345	-0.624193	0.426550	-0.619833
56911		9.328369	-2.655654	-1.284859	0.250692	-0.031339	-0.019081	-0.962646	-0.189941	0.475342	-0.208947	-0.624834	0.425246	-0.620556
56912		9.343327	-3.108764	-1.005479	0.296913	-0.029199	-0.024084	-0.957520	-0.183105	0.479736	-0.207358	-0.625546	0.423677	-0.621444
56913		9.336325	-3.724135	-1.211199	0.503738	-0.028027	-0.061850	-0.966309	-0.178711	0.489990	-0.204873	-0.626748	0.420825	-0.622993
56914		9.340476	-3.311749	-1.356279	0.737814	-0.022455	-0.103765	-0.956787	-0.170166	0.492432	-0.201390	-0.628453	0.416517	-0.625302
56915		9.296299	-3.282701	-1.643138	0.865608	-0.030061	-0.118444	-0.954590	-0.171143	0.488770	-0.197276	-0.630436	0.411459	-0.627960
56916		9.303936	-3.235389	-1.741184	0.976822	-0.030776	-0.140581	-0.957520	-0.162109	0.483643	-0.192697	-0.632631	0.405687	-0.630923
56917		9.360883	-2.950899	-1.516737	1.000727	-0.033782	-0.144408	-0.954102	-0.160156	0.493164	-0.187987	-0.634832	0.399759	-0.633910
56918		9.282729	-3.362276	-1.208423	1.017369	-0.042323	-0.153441	-0.955566	-0.151367	0.496338	-0.183197	-0.637108	0.393666	-0.636835
56919		9.347622	-4.239210	-1.060876	1.253692	-0.048972	-0.200221	-0.950439	-0.143311	0.492188	-0.177353	-0.639871	0.386049	-0.640373
56920		9.351209	-3.766128	-1.038767	1.547198	-0.044933	-0.257626	-0.952881	-0.137451	0.501953	-0.170247	-0.643121	0.376512	-0.644709
56921		9.258907	-3.613002	-1.237449	1.728148	-0.047184	-0.292699	-0.948975	-0.124512	0.508789	-0.162324	-0.646637	0.365738	-0.649421
56922		9.248104	-3.617992	-1.539102	1.912003	-0.060255	-0.322198	-0.953613	-0.116699	0.507812	-0.153472	-0.650423	0.353735	-0.654422
56923		9.229738	-2.929290	-1.419448	2.023737	-0.067861	-0.331442	-0.947266	-0.105225	0.514893	-0.144035	-0.654200	0.341011	-0.659537
56924		9.282149	-2.549664	-1.068502	1.993687	-0.062458	-0.327731	-0.943359	-0.085693	0.507080	-0.134713	-0.657736	0.328353	-0.664394
56925		9.392168	-3.160340	-0.781579	1.986204	-0.077748	-0.328467	-0.948486	-0.083008	0.518799	-0.125329	-0.661119	0.315683	-0.668998
56926		9.359004	-3.513474	-0.725012	2.166450	-0.076993	-0.359656	-0.941162	-0.061279	0.522217	-0.115155	-0.664580	0.301732	-0.673818
56927		9.423637	-2.724656	-0.772448	2.302470	-0.074617	-0.389938	-0.940918	-0.048340	0.512451	-0.104281	-0.668022	0.286720	-0.678722
56928		9.398052	-2.306923	-0.949425	2.266902	-0.074647	-0.380455	-0.941650	-0.041992	0.513672	-0.093563	-0.671077	0.271899	-0.683354
56929		9.363557	-2.488882	-0.883711	2.234287	-0.081700	-0.365544	-0.939209	-0.028076	0.516357	-0.082988	-0.673852	0.257271	-0.687639
56930		9.404866	-2.424798	-0.765762	2.256179	-0.077393	-0.366751	-0.937988	-0.015625	0.520508	-0.072272	-0.676394	0.242405	-0.691743
56931		9.468802	-1.869620	-0.589420	2.172528	-0.077081	-0.360810	-0.942139	0.001221	0.513428	-0.061987	-0.678656	0.227962	-0.695426
56932		9.444048	-1.750925	-0.504097	2.016530	-0.073494	-0.334868	-0.936035	0.007568	0.515869	-0.052396	-0.680483	0.214501	-0.698704
56933		9.491037	-1.426159	-0.210321	1.850699	-0.068302	-0.312253	-0.934082	0.025391	0.510498	-0.043694	-0.682026	0.202078	-0.701496
56934		9.590749	-1.233861	0.052367	1.647800	-0.067157	-0.283963	-0.926270	0.032715	0.519531	-0.035859	-0.683273	0.190915	-0.703849
56935		9.631539	-1.674852	0.317618	1.543186	-0.059793	-0.265929	-0.937988	0.038818	0.508301	-0.028541	-0.684404	0.180421	-0.705850
56936		9.607511	-2.060719	0.196063	1.570996	-0.057236	-0.255331	-0.935547	0.047852	0.512939	-0.021103	-0.685250	0.169830	-0.707916
56937		9.589333	-2.315349	-0.098046	1.705169	-0.049953	-0.266810	-0.924805	0.049316	0.506104	-0.012961	-0.686034	0.158340	-0.710013
56938		9.509626	-2.337526	-0.263468	1.795971	-0.048068	-0.267137	-0.933594	0.056641	0.502930	-0.004377	-0.686701	0.146297	-0.712054
56939		9.497618	-2.827963	-0.533796	1.946381	-0.058232	-0.277133	-0.931885	0.071289	0.499512	0.005070	-0.687282	0.133269	-0.714043
56940		9.584011	-2.496589	-0.314834	2.066392	-0.060353	-0.301580	-0.928711	0.089844	0.497803	0.015160	-0.687742	0.119328	-0.715920
56941		9.577766	-2.465559	-0.150419	2.130896	-0.067930	-0.307982	-0.933105	0.101562	0.493896	0.025623	-0.688047	0.104917	-0.717585
56942		9.525573	-2.741435	-0.020714	2.264470	-0.068210	-0.344688	-0.925537	0.106934	0.489258	0.036608	-0.688121	0.089468	-0.719128
56943		9.650839	-2.398482	0.112469	2.359175	-0.072130	-0.373316	-0.928711	0.119385	0.487549	0.047934	-0.687954	0.073267	-0.720454
56944		9.597240	-2.366850	0.035188	2.480959	-0.067432	-0.400972	-0.926270	0.135010	0.479248	0.059767	-0.687442	0.056152	-0.721595
56945		9.648334	-2.034191	0.018704	2.588423	-0.071406	-0.429115	-0.925781	0.145508	0.469971	0.072027	-0.686601	0.038199	-0.722448
56946		9.629827	-1.466609	-0.051152	2.640854	-0.062147	-0.446019	-0.932861	0.148438	0.473877	0.084438	-0.685348	0.019826	-0.723032
56947		9.596548	-0.986020	0.034408	2.594302	-0.067341	-0.434877	-0.915771	0.168213	0.458252	0.096577	-0.683827	0.001806	-0.723222
56948		9.610631	-0.598008	0.137526	2.523390	-0.053805	-0.425447	-0.922363	0.183105	0.448975	0.108351	-0.681966	-0.015744	-0.723142
56949		9.732982	0.064017	0.493389	2.301912	-0.056750	-0.398121	-0.917725	0.188232	0.437988	0.118990	-0.680046	-0.031808	-0.722749
56950		9.757409	-0.000081	0.667702	2.036408	-0.048859	-0.362472	-0.930664	0.204834	0.430908	0.128292	-0.678126	-0.046053	-0.722195
56951		9.823392	0.083586	0.672024	1.779640	-0.038589	-0.346530	-0.931152	0.195312	0.426758	0.136224	-0.676248	-0.058654	-0.721589
56952		9.858570	0.300941	0.359918	1.515262	-0.034485	-0.324004	-0.926514	0.203613	0.423096	0.142738	-0.674529	-0.069500	-0.720976
56953		9.672837	0.878683	0.508587	1.191175	-0.033657	-0.277439	-0.924072	0.216064	0.424561	0.147698	-0.673129	-0.078137	-0.720401
56954		9.643742	0.912570	0.616294	0.932943	-0.027422	-0.195971	-0.926025	0.217773	0.406982	0.151705	-0.672007	-0.084767	-0.719866
56955		9.619625	0.730927	0.720774	0.831598	-0.014159	-0.148507	-0.924805	0.218262	0.410889	0.155439	-0.670928	-0.090516	-0.719375
56956		9.670474	0.933749	0.925439	0.684805	-0.015828	-0.092349	-0.921143	0.227783	0.413086	0.158670	-0.670067	-0.095066	-0.718886
56957		9.750211	0.141915	1.220380	0.508090	-0.018586	-0.048515	-0.935303	0.220459	0.410156	0.161179	-0.669473	-0.098324	-0.718443
56958		9.738775	-0.102711	1.341995	0.320626	-0.015202	-0.037369	-0.929688	0.227295	0.410645	0.162687	-0.669113	-0.100380	-0.718153
56959		9.703851	-0.214211	1.106683	0.159783	-0.018057	-0.034529	-0.928223	0.226318	0.399902	0.163323	-0.668987	-0.101469	-0.717974
56960		9.576815	-0.486507	0.776817	0.049670	-0.018299	-0.021124	-0.927979	0.223633	0.412842	0.163432	-0.669020	-0.101832	-0.717866
56961		9.658373	-0.721680	0.570180	0.058029	-0.019233	-0.012456	-0.916504	0.218994	0.407715	0.163620	-0.669058	-0.102184	-0.717738
56962		9.684114	-0.993689	0.776114	0.077606	-0.023365	-0.011209	-0.927002	0.225342	0.405029	0.163920	-0.669096	-0.102651	-0.717568
56963		9.696436	-0.908738	1.317994	0.079311	-0.023243	-0.027162	-0.934570	0.229980	0.408936	0.164147	-0.669115	-0.103225	-0.717416
56964		9.670835	-0.846150	1.520059	0.027929	-0.024194	-0.038286	-0.920898	0.227295	0.408936	0.164023	-0.669199	-0.103556	-0.717318
56965		9.671172	-0.758626	1.317241	-0.008331	-0.027134	-0.052804	-0.926514	0.223633	0.409180	0.163606	-0.669337	-0.103753	-0.717256
56966		9.690966	-1.088072	0.716708	-0.017669	-0.030194	-0.052757	-0.929688	0.231201	0.405518	0.163128	-0.669507	-0.103893	-0.717186
56967		9.789889	-0.778763	0.390583	0.014966	-0.027512	-0.063933	-0.923340	0.226562	0.406738	0.162789	-0.669604	-0.104299	-0.717114
56968		9.756161	-0.375552	0.527605	0.012901	-0.038367	-0.055628	-0.925781	0.231201	0.404785	0.162471	-0.669777	-0.104657	-0.716972
56969		9.834933	-0.166242	0.923997	-0.002152	-0.027998	-0.045790	-0.928955	0.215332	0.415771	0.162150	-0.669915	-0.104865	-0.716885
56970		9.905527	-0.091020	0.974263	-0.019153	-0.030170	-0.035493	-0.919434	0.217529	0.405029	0.161752	-0.670105	-0.104889	-0.716794
56971		9.873042	-0.032277	0.780316	-0.044883	-0.024012	-0.025384	-0.931885	0.225586	0.403809	0.161296	-0.670297	-0.104710	-0.716743
56972		9.684631	0.174367	0.675505	-0.183025	-0.034722	0.015997	-0.929688	0.218262	0.409668	0.160322	-0.670772	-0.103503	-0.716693
56973		9.712953	-0.487364	0.604880	-0.241770	-0.049642	0.050764	-0.924072	0.223145	0.413330	0.159197	-0.671444	-0.101760	-0.716564
56974		9.805761	-0.221968	0.750687	-0.207293	-0.042881	0.046448	-0.923340	0.217285	0.412354	0.158255	-0.672022	-0.100245	-0.716444
56975		9.819972	-0.202525	0.830447	-0.225223	-0.042309	0.058207	-0.928223	0.217529	0.414307	0.157275	-0.672629	-0.098552	-0.716326
56976		9.761158	0.335603	0.874906	-0.350136	-0.026232	0.076106	-0.929199	0.215576	0.416992	0.155714	-0.673312	-0.095992	-0.716372
56977		9.821874	-0.223195	0.817159	-0.529367	-0.031613	0.098139	-0.927490	0.207520	0.425781	0.153270	-0.674268	-0.092245	-0.716493
56978		9.765541	-0.342350	0.916934	-0.581608	-0.018066	0.094068	-0.922363	0.215576	0.428955	0.150497	-0.675193	-0.088177	-0.716722
56979		9.687502	0.406351	0.975730	-0.758997	-0.012991	0.106962	-0.920898	0.205811	0.421875	0.146825	-0.676292	-0.082983	-0.717067
56980		9.809976	0.493029	0.826848	-1.037724	-0.019574	0.140005	-0.927246	0.202393	0.430420	0.141762	-0.677754	-0.075942	-0.717486
56981		9.760169	0.853612	0.877228	-1.352370	-0.016687	0.176303	-0.925781	0.200195	0.430908	0.135125	-0.679522	-0.066805	-0.718003
56982		9.626042	0.835005	0.786562	-1.696223	-0.016167	0.245720	-0.916260	0.202393	0.444824	0.126948	-0.681595	-0.055220	-0.718515
56983		9.672447	0.418718	0.659406	-1.940114	0.000963	0.311775	-0.918945	0.184570	0.441162	0.117780	-0.683690	-0.041784	-0.718992
56984		9.642633	-0.145360	0.323727	-2.095343	0.018712	0.358352	-0.926270	0.170654	0.450195	0.107964	-0.685645	-0.027119	-0.719374
56985		9.690627	-0.691558	-0.023918	-2.147555	0.033553	0.385363	-0.921631	0.166260	0.466553	0.097969	-0.687342	-0.011958	-0.719597
56986		9.753821	-0.768191	-0.020634	-2.188836	0.042290	0.397406	-0.925049	0.156982	0.473877	0.087788	-0.688790	0.003528	-0.719617
56987		9.721207	-1.336351	0.044500	-2.205711	0.058928	0.408313	-0.918945	0.149414	0.477539	0.077547	-0.689908	0.019185	-0.719476
56988		9.686937	-1.902191	-0.006975	-2.138023	0.064960	0.387366	-0.919434	0.139160	0.475830	0.067557	-0.690713	0.034307	-0.719148
56989		9.579917	-2.024967	-0.009733	-2.029963	0.065800	0.367970	-0.925293	0.120605	0.477783	0.058055	-0.691237	0.048656	-0.718647
56990		9.435007	-1.978944	-0.067245	-1.923967	0.068811	0.358344	-0.929688	0.111328	0.496582	0.049056	-0.691499	0.062322	-0.718010
56991		9.608307	-2.005265	-0.030300	-1.882966	0.073401	0.349510	-0.927490	0.108154	0.493652	0.040227	-0.691553	0.075688	-0.717222
56992		9.583923	-2.656017	-0.113847	-1.773594	0.071581	0.329463	-0.923828	0.099609	0.502686	0.031932	-0.691417	0.088249	-0.716334
56993		9.599815	-2.522466	0.025592	-1.629619	0.070470	0.288521	-0.917725	0.097656	0.495850	0.024223	-0.691146	0.099701	-0.715395
56994		9.584059	-2.588646	0.148202	-1.581566	0.065466	0.269185	-0.930908	0.082520	0.510010	0.016714	-0.690771	0.110716	-0.714352
56995		9.633058	-2.841698	0.019464	-1.457367	0.058193	0.223775	-0.924805	0.076904	0.509521	0.009607	-0.690363	0.120737	-0.713252
56996		9.667733	-2.352695	-0.011565	-1.396432	0.058957	0.186496	-0.930908	0.073730	0.513428	0.002652	-0.689884	0.130157	-0.712118
56997		9.590525	-2.452116	-0.029111	-1.380407	0.042444	0.181097	-0.936035	0.061279	0.511230	-0.004192	-0.689413	0.139422	-0.710812
56998		9.632579	-2.488745	0.121557	-1.222554	0.037262	0.153318	-0.931396	0.058350	0.513184	-0.010324	-0.688912	0.147587	-0.709586
56999		9.595044	-2.549894	0.176418	-1.009533	0.040032	0.132737	-0.931396	0.059326	0.518311	-0.015309	-0.688387	0.154347	-0.708566
57000		9.600986	-2.711089	-0.000557	-0.778721	0.034830	0.108721	-0.929688	0.050049	0.512207	-0.019036	-0.687931	0.159575	-0.707760
57001		9.590061	-2.661023	-0.145260	-0.576058	0.028032	0.081462	-0.924561	0.043945	0.516113	-0.021802	-0.687540	0.163465	-0.707172
57002		9.477280	-2.730551	-0.118039	-0.416033	0.020797	0.062607	-0.927734	0.033447	0.518066	-0.023762	-0.687263	0.166306	-0.706716
57003		9.482926	-3.129696	0.058646	-0.224191	0.010295	0.041762	-0.932373	0.040283	0.512939	-0.024816	-0.687110	0.167930	-0.706444
57004		9.490371	-3.326437	0.091750	0.017004	0.007398	-0.000188	-0.932617	0.040283	0.505371	-0.024664	-0.687044	0.167875	-0.706527
57005		9.562550	-3.180817	-0.022652	0.242874	-0.004346	-0.048196	-0.930664	0.043213	0.501221	-0.023506	-0.687120	0.166229	-0.706881
57006		9.554347	-2.404740	-0.135028	0.396061	-0.011116	-0.074887	-0.927979	0.042725	0.518555	-0.021605	-0.687282	0.163527	-0.707415
57007		9.575506	-1.204304	-0.091609	0.342231	-0.007531	-0.065278	-0.923584	0.044678	0.509521	-0.019953	-0.687500	0.161190	-0.707788
57008		9.644292	-1.274537	0.267901	0.185651	-0.006001	-0.034906	-0.930176	0.042725	0.516357	-0.019035	-0.687599	0.159952	-0.707997
57009		9.642945	-1.738942	0.484412	0.103771	0.001018	-0.019232	-0.933350	0.045898	0.504639	-0.018545	-0.687643	0.159298	-0.708115
57010		9.627700	-2.101599	0.369055	0.083953	0.012126	-0.018101	-0.931396	0.044922	0.510254	-0.018173	-0.687530	0.158766	-0.708354
57011		9.568974	-2.206542	0.103112	0.099462	0.007700	-0.031549	-0.928955	0.043457	0.505371	-0.017792	-0.687510	0.158067	-0.708539
57012		9.587308	-2.028259	-0.182547	0.095633	0.008414	-0.034162	-0.928467	0.040771	0.506592	-0.017484	-0.687465	0.157388	-0.708742
57013		9.581468	-1.899649	-0.065971	0.067852	0.003393	-0.029382	-0.927002	0.051025	0.507812	-0.017347	-0.687453	0.156919	-0.708861
57014		9.627119	-1.811418	0.116824	0.051064	0.005320	-0.018605	-0.934082	0.050049	0.509033	-0.017064	-0.687428	0.156544	-0.708975
57015		9.698148	-1.850281	0.292003	0.049927	0.009268	-0.018553	-0.936768	0.042480	0.507568	-0.016832	-0.687360	0.156191	-0.709124
57016		9.674353	-1.854878	0.315290	0.036071	0.009173	-0.019186	-0.923096	0.049072	0.511475	-0.016839	-0.687271	0.155972	-0.709259
57017		9.560414	-2.029013	0.166342	0.023818	0.010973	-0.014659	-0.927490	0.041260	0.505615	-0.016719	-0.687259	0.155789	-0.709313
57018		9.529680	-2.030987	0.024845	0.029822	0.006294	-0.018436	-0.935547	0.047119	0.509521	-0.016763	-0.687212	0.155613	-0.709397
57019		9.517404	-2.001697	-0.062180	0.033848	0.006321	-0.019050	-0.934814	0.038574	0.505859	-0.016686	-0.687162	0.155376	-0.709499
57020		9.521003	-1.866994	0.036812	0.041015	0.011589	-0.010255	-0.932373	0.050049	0.506348	-0.016710	-0.687043	0.155212	-0.709649
57021		9.665274	-1.750844	0.192545	0.021405	0.013529	0.004377	-0.927734	0.054199	0.507324	-0.016506	-0.686911	0.155153	-0.709795
57022		9.677939	-1.931259	0.246478	0.008630	0.014785	0.001248	-0.928223	0.050049	0.508789	-0.016293	-0.686811	0.155115	-0.709905
57023		9.648638	-1.889506	0.251059	0.002150	0.016014	-0.005609	-0.929443	0.052246	0.510986	-0.016260	-0.686725	0.155114	-0.709988
57024		9.605957	-1.894339	0.168516	-0.030821	0.014663	-0.005072	-0.923584	0.041992	0.507324	-0.016361	-0.686661	0.155295	-0.710009
57025		9.583562	-1.989945	0.106147	-0.046480	0.015008	0.000197	-0.929688	0.044434	0.501953	-0.016749	-0.686584	0.155678	-0.709990
57026		9.583489	-1.896319	0.101134	-0.053411	0.018868	-0.001642	-0.925293	0.044678	0.505615	-0.017158	-0.686395	0.156075	-0.710076
57027		9.623046	-1.742576	0.072074	-0.067943	0.015299	0.003594	-0.931396	0.038330	0.512939	-0.017573	-0.686288	0.156576	-0.710059
57028		9.659815	-1.669079	0.135462	-0.113989	0.024516	0.013590	-0.927002	0.050293	0.509521	-0.018366	-0.686152	0.157472	-0.709972
57029		9.650723	-1.581149	0.056175	-0.164666	0.029919	0.026534	-0.927246	0.047607	0.508057	-0.019036	-0.685950	0.158615	-0.709896
57030		9.624022	-1.647285	0.074878	-0.226249	0.031097	0.037755	-0.927979	0.046875	0.512695	-0.020045	-0.685701	0.160201	-0.709752
57031		9.600383	-1.723973	0.103674	-0.277169	0.039731	0.049049	-0.934570	0.039551	0.506592	-0.021270	-0.685429	0.162146	-0.709538
57032		9.590070	-1.896390	0.131396	-0.329713	0.045347	0.056201	-0.928711	0.037109	0.506592	-0.022959	-0.684990	0.164502	-0.709367
57033		9.560648	-2.019750	0.143483	-0.370177	0.046852	0.054670	-0.934326	0.041016	0.499023	-0.024881	-0.684577	0.167083	-0.709097
57034		9.586146	-1.801302	0.116043	-0.421966	0.042632	0.054365	-0.932129	0.034668	0.510742	-0.026963	-0.684044	0.169917	-0.708861
57035		9.646262	-1.005438	0.270796	-0.617340	0.061535	0.075417	-0.933594	0.025879	0.510254	-0.030126	-0.683486	0.174051	-0.708269
57036		9.629427	-1.119291	0.175667	-0.874665	0.063272	0.117572	-0.929443	0.027832	0.510010	-0.034653	-0.682757	0.179981	-0.707282
57037		9.653186	-1.216007	0.059066	-1.059795	0.074367	0.141078	-0.938232	0.024414	0.515869	-0.039870	-0.681865	0.187037	-0.706037
57038		9.674556	-1.018979	-0.023461	-1.263803	0.085720	0.172004	-0.934814	0.010010	0.501221	-0.045997	-0.680753	0.195425	-0.704464
57039		9.654956	-1.257242	-0.035649	-1.481522	0.090452	0.210620	-0.936768	0.012695	0.507080	-0.053364	-0.679215	0.205339	-0.702606
57040		9.590757	-1.676042	-0.051471	-1.603194	0.104767	0.231608	-0.940430	-0.007812	0.507324	-0.060933	-0.677481	0.215930	-0.700486
57041		9.559775	-1.713181	-0.159677	-1.682633	0.112706	0.244675	-0.946777	-0.017822	0.505127	-0.069204	-0.675517	0.227101	-0.698078
57042		9.517866	-1.683756	-0.352678	-1.805343	0.122667	0.270399	-0.945801	-0.023926	0.502441	-0.078040	-0.673181	0.239084	-0.695396
57043		9.533633	-1.741820	-0.513304	-1.930874	0.127079	0.298812	-0.940186	-0.031738	0.506592	-0.087255	-0.670529	0.251850	-0.692351
57044		9.455971	-1.934338	-0.488446	-1.990027	0.134983	0.317587	-0.942139	-0.048096	0.505615	-0.096496	-0.667741	0.264907	-0.688937
57045		9.481004	-2.092218	-0.632610	-2.018710	0.151241	0.330920	-0.945801	-0.054688	0.502441	-0.105960	-0.664659	0.278124	-0.685309
57046		9.465208	-2.197811	-0.603072	-2.090525	0.157781	0.344916	-0.950439	-0.075195	0.500977	-0.115593	-0.661235	0.291710	-0.681404
57047		9.392302	-3.021552	-0.649844	-2.096726	0.147062	0.349825	-0.945068	-0.080078	0.490967	-0.125404	-0.657678	0.305288	-0.677151
57048		9.370587	-3.649280	-0.567066	-1.934297	0.150101	0.313465	-0.948242	-0.084229	0.489014	-0.134378	-0.654107	0.317666	-0.673183
57049		9.333940	-3.366268	-0.736330	-1.784086	0.143817	0.273376	-0.953857	-0.091309	0.494873	-0.142567	-0.650686	0.328901	-0.669408
57050		9.323755	-3.075995	-1.025036	-1.715833	0.129574	0.260915	-0.951660	-0.101807	0.492432	-0.150332	-0.647384	0.339594	-0.665560
57051		9.372998	-3.214148	-1.173058	-1.601859	0.121651	0.243543	-0.950195	-0.105225	0.483643	-0.157702	-0.644096	0.349545	-0.661883
57052		9.397607	-3.210124	-1.048186	-1.403187	0.107866	0.222660	-0.955078	-0.118408	0.472168	-0.164159	-0.640980	0.358311	-0.658642
57053		9.463276	-3.258999	-0.884644	-1.194754	0.110065	0.195482	-0.961670	-0.130371	0.474609	-0.169730	-0.638093	0.365773	-0.655926
57054		9.483560	-3.012694	-1.050889	-1.019630	0.103749	0.173825	-0.969238	-0.134521	0.475586	-0.174453	-0.635514	0.372132	-0.653610
57055		9.448989	-2.611706	-1.041413	-0.966790	0.102394	0.161689	-0.958740	-0.139648	0.473389	-0.178929	-0.633012	0.378113	-0.651391
57056		9.386673	-2.846500	-0.930164	-0.965252	0.093486	0.164564	-0.958252	-0.146729	0.470947	-0.183340	-0.630512	0.384088	-0.649090
57057		9.433935	-3.063868	-0.682769	-0.905532	0.089343	0.149416	-0.962891	-0.147949	0.469238	-0.187497	-0.628130	0.389646	-0.646895
57058		9.375163	-3.055672	-0.677161	-0.848900	0.088396	0.132879	-0.960938	-0.156982	0.463623	-0.191430	-0.625859	0.394794	-0.644820
57059		9.353026	-3.261313	-0.822811	-0.799533	0.087582	0.115820	-0.966064	-0.154297	0.455566	-0.195189	-0.623696	0.399571	-0.642843
57060		9.382532	-3.132817	-0.983598	-0.747481	0.089456	0.094598	-0.960693	-0.162842	0.456543	-0.198785	-0.621648	0.403942	-0.640990
57061		9.260587	-3.001372	-1.026270	-0.756106	0.081083	0.079488	-0.960205	-0.175537	0.458740	-0.202466	-0.619665	0.408271	-0.639013
57062		9.194123	-3.476827	-1.076688	-0.711076	0.066202	0.071926	-0.973389	-0.172363	0.455322	-0.205898	-0.617840	0.412331	-0.637074
57063		9.248291	-3.256445	-1.119734	-0.582930	0.061759	0.047761	-0.973877	-0.174561	0.457520	-0.208779	-0.616315	0.415591	-0.635493
57064		9.297798	-2.595661	-1.046163	-0.538645	0.064443	0.044342	-0.972656	-0.178467	0.452393	-0.211456	-0.614852	0.418586	-0.634058
57065		9.307988	-2.628069	-0.959780	-0.553898	0.059801	0.056278	-0.966553	-0.185791	0.446289	-0.214128	-0.613331	0.421723	-0.632553
57066		9.317868	-3.123346	-0.888397	-0.471298	0.055929	0.059583	-0.970459	-0.177734	0.442627	-0.216344	-0.611956	0.424439	-0.631313
57067		9.334047	-3.152415	-0.896622	-0.321129	0.061073	0.040301	-0.976562	-0.180176	0.437988	-0.217908	-0.610884	0.426255	-0.630590
57068		9.279209	-3.137199	-1.127025	-0.243658	0.055936	0.037567	-0.971680	-0.189453	0.444092	-0.219075	-0.609985	0.427657	-0.630106
57069		9.187930	-3.395824	-1.215301	-0.184404	0.045224	0.023125	-0.973633	-0.185791	0.434326	-0.219978	-0.609302	0.428691	-0.629750
57070		9.204310	-3.686250	-1.178144	-0.075168	0.024234	-0.005796	-0.975342	-0.185791	0.442627	-0.220402	-0.609027	0.429048	-0.629624
57071		9.288405	-3.664665	-1.073399	0.087312	0.015069	-0.039679	-0.970703	-0.196777	0.441895	-0.220143	-0.609223	0.428396	-0.629969
57072		9.274028	-3.500845	-1.021401	0.252153	-0.000716	-0.069963	-0.976562	-0.191406	0.438965	-0.219154	-0.609908	0.426754	-0.630765
57073		9.344828	-2.787671	-0.939828	0.340951	-0.003311	-0.087203	-0.976074	-0.188965	0.432373	-0.217791	-0.610823	0.424564	-0.631829
57074		9.381942	-1.900594	-1.074031	0.295328	0.002337	-0.067914	-0.976318	-0.183838	0.434570	-0.216579	-0.611551	0.422699	-0.632791
57075		9.480903	-1.511953	-0.974450	0.140405	0.005519	-0.029932	-0.976562	-0.179688	0.441162	-0.215962	-0.611850	0.421834	-0.633290
57076		9.465516	-2.054589	-0.634562	0.043481	-0.001047	0.004488	-0.970215	-0.187988	0.444824	-0.215632	-0.611893	0.421663	-0.633474
57077		9.390834	-2.757361	-0.532505	0.116868	0.004827	0.014167	-0.972168	-0.173584	0.445557	-0.214906	-0.612004	0.421139	-0.633962
57078		9.350291	-2.927763	-0.686269	0.213546	0.007526	0.004876	-0.973389	-0.186279	0.440186	-0.213734	-0.612303	0.420053	-0.634790
57079		9.272163	-2.949147	-0.885681	0.248111	0.000911	0.003916	-0.973145	-0.181641	0.448486	-0.212384	-0.612693	0.418793	-0.635699
57080		9.272401	-3.154957	-1.064856	0.288748	-0.015735	-0.001465	-0.973633	-0.174805	0.444824	-0.210786	-0.613265	0.417313	-0.636652
57081		9.291520	-3.168488	-1.036489	0.370909	-0.024892	-0.015179	-0.976074	-0.182373	0.445068	-0.208806	-0.614068	0.415345	-0.637816
57082		9.365468	-3.140355	-0.827101	0.418101	-0.037791	-0.028325	-0.966064	-0.171631	0.440674	-0.206617	-0.615058	0.413077	-0.639046
57083		9.332262	-3.522744	-0.621255	0.532572	-0.046499	-0.047781	-0.968994	-0.175537	0.448486	-0.203902	-0.616349	0.410109	-0.640584
57084		9.412306	-3.730241	-0.776236	0.742177	-0.059177	-0.094967	-0.966553	-0.172119	0.448975	-0.200319	-0.618210	0.405786	-0.642671
57085		9.343745	-2.883678	-0.936534	0.880773	-0.050476	-0.124980	-0.966797	-0.162598	0.448486	-0.196203	-0.620324	0.400536	-0.645193
57086		9.341762	-2.701941	-0.885087	0.838445	-0.062226	-0.119886	-0.967773	-0.158691	0.460693	-0.192224	-0.622377	0.395542	-0.647490
57087		9.288466	-4.207645	-0.874119	0.987092	-0.091002	-0.143576	-0.967773	-0.143799	0.452881	-0.187489	-0.624878	0.389634	-0.650047
57088		9.364549	-4.074936	-0.756593	1.342208	-0.091182	-0.204116	-0.966064	-0.130127	0.459229	-0.181209	-0.628046	0.381468	-0.653608
57089		9.360716	-3.292243	-0.861472	1.547501	-0.088036	-0.237473	-0.968750	-0.138672	0.459473	-0.174003	-0.631526	0.371942	-0.657691
57090		9.367309	-3.231888	-1.217352	1.676207	-0.095894	-0.250528	-0.973145	-0.130371	0.465820	-0.166200	-0.635136	0.361604	-0.661984
57091		9.319684	-2.759072	-1.271831	1.755727	-0.091437	-0.256150	-0.964600	-0.122070	0.472412	-0.157985	-0.638714	0.350717	-0.666395
57092		9.385883	-1.809190	-0.976512	1.628619	-0.084375	-0.228388	-0.956543	-0.109375	0.472412	-0.150280	-0.641891	0.340592	-0.670364
57093		9.390727	-2.519573	-0.557140	1.470944	-0.096491	-0.199076	-0.961670	-0.106445	0.473145	-0.143182	-0.644748	0.331459	-0.673746
57094		9.448860	-3.024476	-0.122732	1.507527	-0.093066	-0.205839	-0.957031	-0.090332	0.480225	-0.135954	-0.647520	0.322051	-0.677140
57095		9.453768	-3.086823	0.018333	1.587001	-0.091580	-0.216041	-0.955811	-0.086914	0.472900	-0.128280	-0.650317	0.312055	-0.680627
57096		9.354343	-3.009442	-0.091576	1.678889	-0.079039	-0.236730	-0.953857	-0.073730	0.483643	-0.120321	-0.653016	0.301412	-0.684284
57097		9.273788	-2.914202	-0.627183	1.735656	-0.086347	-0.241510	-0.966309	-0.060303	0.491211	-0.111993	-0.655729	0.290332	-0.687885
57098		9.372271	-2.742586	-0.937420	1.790269	-0.090727	-0.245755	-0.957275	-0.050049	0.479736	-0.103335	-0.658373	0.278857	-0.691451
57099		9.378558	-2.722043	-0.609270	1.764754	-0.103699	-0.233973	-0.951660	-0.043457	0.488281	-0.094736	-0.660847	0.267578	-0.694772
57100		9.423542	-3.003088	-0.332599	1.854516	-0.100646	-0.233707	-0.953857	-0.020996	0.484131	-0.085650	-0.663260	0.255705	-0.698116
57101		9.432483	-3.031724	-0.157886	2.008988	-0.102936	-0.252960	-0.955322	-0.027588	0.494385	-0.075695	-0.665634	0.242737	-0.701627
57102		9.384936	-2.905892	-0.329817	2.161710	-0.097738	-0.266899	-0.945557	-0.015137	0.493896	-0.065187	-0.667906	0.228799	-0.705198
57103		9.358764	-2.152632	-0.521198	2.136479	-0.099429	-0.268950	-0.949951	0.009766	0.485107	-0.054814	-0.669981	0.214920	-0.708470
57104		9.438899	-1.868037	-0.216321	1.996315	-0.102098	-0.247382	-0.950195	0.013428	0.490967	-0.044940	-0.671714	0.201881	-0.711354
57105		9.573630	-1.883977	0.109446	1.882649	-0.087042	-0.245468	-0.944580	0.027832	0.490234	-0.035838	-0.673151	0.189517	-0.713910
57106		9.624304	-1.875355	0.404705	1.772211	-0.082146	-0.238988	-0.943115	0.040527	0.484863	-0.027256	-0.674381	0.177763	-0.716148
57107		9.586629	-1.888998	0.293262	1.670122	-0.077846	-0.236869	-0.944580	0.039551	0.484863	-0.019204	-0.675397	0.166572	-0.718139
57108		9.493533	-1.818666	0.247229	1.573796	-0.078927	-0.223725	-0.941162	0.057373	0.486084	-0.011788	-0.676254	0.156080	-0.719848
57109		9.589051	-2.026549	0.393952	1.538144	-0.074638	-0.218947	-0.937500	0.052734	0.476318	-0.004374	-0.677006	0.145714	-0.721396
57110		9.597618	-2.470167	0.326326	1.588439	-0.070849	-0.236060	-0.937744	0.069580	0.479492	0.003082	-0.677622	0.134987	-0.722909
57111		9.574776	-2.171122	0.191108	1.621029	-0.070633	-0.250265	-0.944580	0.075439	0.478516	0.010791	-0.678179	0.123894	-0.724298
57112		9.562795	-1.960605	0.095050	1.606754	-0.071599	-0.260828	-0.939453	0.085938	0.475098	0.018338	-0.678632	0.112818	-0.725531
57113		9.588008	-1.649401	0.259732	1.570658	-0.068358	-0.259135	-0.941162	0.091553	0.470703	0.025713	-0.678958	0.101937	-0.726611
57114		9.625876	-1.431569	0.369463	1.493612	-0.069717	-0.246158	-0.942871	0.101074	0.471191	0.032717	-0.679186	0.091584	-0.727495
57115		9.645060	-1.356388	0.586516	1.420378	-0.065552	-0.243305	-0.935791	0.108398	0.468506	0.039323	-0.679309	0.081674	-0.728232
57116		9.696859	-1.335132	0.663489	1.349912	-0.059410	-0.231856	-0.941650	0.108154	0.472412	0.045593	-0.679320	0.072245	-0.728853
57117		9.737820	-1.705259	0.821046	1.314027	-0.060900	-0.241635	-0.944336	0.112793	0.462158	0.051571	-0.679275	0.062982	-0.729355
57118		9.610690	-2.345623	0.622916	1.388356	-0.060156	-0.260459	-0.940186	0.115234	0.456055	0.057847	-0.679112	0.053153	-0.729819
57119		9.579929	-2.258173	0.368795	1.516864	-0.054422	-0.294542	-0.930664	0.129150	0.447021	0.064626	-0.678767	0.042352	-0.730277
57120		9.732583	-2.192366	0.220402	1.563224	-0.058726	-0.311983	-0.940918	0.133789	0.455322	0.071572	-0.678317	0.031146	-0.730611
57121		9.735955	-2.643250	0.240099	1.662203	-0.059887	-0.355375	-0.931152	0.143066	0.447754	0.078787	-0.677703	0.019097	-0.730854
57122		9.715794	-2.620418	0.397808	1.817250	-0.058443	-0.411331	-0.934082	0.143311	0.443848	0.086528	-0.676839	0.005781	-0.731005
57123		9.619484	-2.001063	0.427372	1.953451	-0.058947	-0.456705	-0.936279	0.156494	0.441406	0.094722	-0.675710	-0.008609	-0.731006
57124		9.401177	-1.307352	0.329857	2.043531	-0.071764	-0.436791	-0.932129	0.166748	0.428955	0.103527	-0.674397	-0.023449	-0.730699
57125		9.406889	-1.095069	0.371139	2.170695	-0.066962	-0.417021	-0.934814	0.167480	0.425049	0.113144	-0.672734	-0.038949	-0.730144
57126		9.454399	-0.676659	0.662082	2.276419	-0.055721	-0.395112	-0.938965	0.174072	0.424072	0.123432	-0.670677	-0.054933	-0.729341
57127		9.605385	0.006652	0.808896	2.250136	-0.061893	-0.374727	-0.940918	0.183838	0.415039	0.133638	-0.668454	-0.070623	-0.728232
57128		9.800781	0.736969	0.864159	2.053285	-0.065460	-0.355452	-0.921875	0.185303	0.411377	0.142821	-0.666265	-0.084997	-0.726959
57129		9.798924	1.539490	0.885564	1.682532	-0.063870	-0.324077	-0.934082	0.193359	0.406494	0.150091	-0.664366	-0.096924	-0.725739
57130		9.906482	1.712238	1.153742	1.217879	-0.064363	-0.259892	-0.927734	0.199463	0.391357	0.155154	-0.663001	-0.105679	-0.724699
57131		9.852274	1.209772	1.279992	0.865257	-0.065447	-0.218180	-0.930664	0.199219	0.390625	0.158525	-0.662080	-0.112087	-0.723848
57132		9.722222	0.916152	1.289702	0.657900	-0.061590	-0.172754	-0.932373	0.197998	0.392334	0.161017	-0.661425	-0.116983	-0.723122
57133		9.541250	0.652324	1.216648	0.513230	-0.056366	-0.128333	-0.932861	0.195068	0.403564	0.162971	-0.660960	-0.120750	-0.722490
57134		9.715739	0.850837	1.279224	0.404920	-0.054799	-0.098730	-0.930664	0.206543	0.393799	0.164486	-0.660656	-0.123684	-0.721928
57135		9.743941	0.929158	0.918405	0.307610	-0.036404	-0.079154	-0.938965	0.197510	0.390381	0.165629	-0.660384	-0.125923	-0.721529
57136		9.612197	1.343802	0.857854	0.144251	-0.027597	-0.037518	-0.931396	0.206299	0.407715	0.166117	-0.660327	-0.126931	-0.721292
57137		9.752726	0.865792	1.014079	-0.067193	-0.036066	0.011605	-0.933838	0.201660	0.395752	0.165725	-0.660666	-0.126410	-0.721163
57138		9.797543	-0.077132	1.248635	-0.082775	-0.012834	0.015483	-0.935059	0.209229	0.393799	0.165300	-0.660889	-0.125749	-0.721172
57139		9.731685	-0.383737	1.272668	-0.056658	0.000711	0.011253	-0.932617	0.201416	0.390381	0.165024	-0.660986	-0.125262	-0.721231
57140		9.672793	-0.768201	0.917244	-0.098577	-0.008300	0.013606	-0.929932	0.211426	0.401611	0.164512	-0.661198	-0.124515	-0.721283
57141		9.619719	-0.843725	0.537109	-0.113511	-0.011655	-0.003137	-0.929443	0.205566	0.394531	0.163822	-0.661433	-0.123778	-0.721352
57142		9.623949	-0.783380	0.741691	-0.147862	-0.019254	0.001363	-0.929932	0.194824	0.395996	0.162961	-0.661764	-0.122819	-0.721407
57143		9.692705	-0.972306	0.821788	-0.055978	-0.008002	-0.018616	-0.933838	0.207520	0.397217	0.162479	-0.661884	-0.122493	-0.721460
57144		9.823046	-0.206819	1.040381	0.022357	-0.007434	-0.043497	-0.929688	0.191895	0.400146	0.162304	-0.661867	-0.122789	-0.721466
57145		9.779384	0.375148	1.030653	-0.052096	-0.013129	-0.026833	-0.932617	0.206055	0.394775	0.161782	-0.662006	-0.122532	-0.721499
57146		9.776665	0.706520	1.131996	-0.234751	-0.019701	0.007206	-0.928955	0.197998	0.406250	0.160483	-0.662458	-0.121023	-0.721629
57147		9.891331	0.238782	1.184278	-0.359841	-0.033759	0.024194	-0.935791	0.201660	0.395020	0.158558	-0.663178	-0.118670	-0.721784
57148		9.875204	0.501462	1.095275	-0.447142	-0.036640	0.027620	-0.931396	0.189941	0.401611	0.156189	-0.664021	-0.115795	-0.721992
57149		9.734771	1.087755	0.912854	-0.611099	-0.036300	0.038718	-0.941406	0.192139	0.406494	0.152956	-0.665075	-0.111855	-0.722335
57150		9.694094	1.504815	0.813979	-0.895537	-0.041505	0.087043	-0.921631	0.183594	0.415039	0.148433	-0.666538	-0.105945	-0.722821
57151		9.760484	1.863348	0.843078	-1.247100	-0.036072	0.152406	-0.935303	0.179688	0.405518	0.142335	-0.668405	-0.097535	-0.723507
57152		9.795523	1.531752	1.098137	-1.618706	-0.023712	0.227107	-0.919922	0.175049	0.417236	0.134621	-0.670594	-0.086457	-0.724366
57153		9.820241	0.511161	0.797033	-1.788684	-0.021539	0.270422	-0.930908	0.168945	0.424561	0.126195	-0.672851	-0.074095	-0.725160
57154		9.787122	0.420856	0.694393	-1.840650	-0.020562	0.286905	-0.933350	0.162109	0.430908	0.117549	-0.675005	-0.061310	-0.725804
57155		9.788347	0.118553	0.493511	-1.889632	-0.014675	0.299339	-0.927734	0.160645	0.440918	0.108679	-0.677009	-0.048141	-0.726313
57156		9.792823	0.411139	0.344878	-1.981069	-0.004229	0.307375	-0.933105	0.142822	0.440918	0.099332	-0.678851	-0.034362	-0.726714
57157		9.647414	1.445943	0.155452	-2.264142	0.018517	0.374111	-0.922852	0.137695	0.452393	0.088747	-0.680588	-0.018453	-0.727037
57158		9.565358	0.595827	0.225732	-2.750104	0.031108	0.494995	-0.926514	0.124268	0.461182	0.076114	-0.682316	0.001091	-0.727083
57159		9.680804	-2.097307	-0.016276	-2.791905	0.031839	0.509721	-0.924072	0.116455	0.459961	0.063287	-0.683687	0.020971	-0.726723
57160		9.709139	-2.422046	0.359984	-2.567203	0.048068	0.447616	-0.935791	0.105469	0.466797	0.051349	-0.684494	0.039124	-0.726155
57161		9.629081	-2.798698	0.287258	-2.329154	0.038709	0.403015	-0.930908	0.096191	0.466309	0.040478	-0.684973	0.055567	-0.725318
57162		9.542482	-3.494520	-0.086463	-1.991489	0.038334	0.341676	-0.934326	0.088135	0.485352	0.031163	-0.685137	0.069598	-0.724412
57163		9.502511	-3.105828	-0.182319	-1.663293	0.031868	0.271940	-0.941162	0.081055	0.480713	0.023303	-0.685147	0.081238	-0.723486
57164		9.524699	-2.440197	-0.026597	-1.522699	0.025331	0.237402	-0.932861	0.069092	0.487549	0.016039	-0.685052	0.091819	-0.722507
57165		9.502803	-2.606790	0.125729	-1.444053	0.022437	0.226919	-0.931152	0.054688	0.486572	0.009152	-0.684878	0.101861	-0.721445
57166		9.559511	-3.128728	0.386162	-1.255178	0.016954	0.192158	-0.937500	0.057373	0.481689	0.003102	-0.684657	0.110577	-0.720422
57167		9.534852	-3.172306	0.574802	-0.986780	0.015468	0.144657	-0.927490	0.051758	0.496826	-0.001650	-0.684401	0.117377	-0.719594
57168		9.509704	-3.012782	0.472917	-0.733763	0.011448	0.106014	-0.928223	0.043213	0.491699	-0.005167	-0.684214	0.122431	-0.718912
57169		9.453539	-2.767278	0.230493	-0.496719	0.000573	0.076576	-0.933105	0.052002	0.487061	-0.007533	-0.684097	0.125914	-0.718401
57170		9.476779	-2.628522	0.298189	-0.290977	-0.006206	0.058320	-0.938477	0.042480	0.492432	-0.008753	-0.684025	0.128022	-0.718083
57171		9.579364	-2.960453	0.374104	-0.076603	-0.008662	0.030359	-0.938965	0.048584	0.487305	-0.008985	-0.684018	0.128727	-0.717961
57172		9.496785	-2.886859	0.357635	0.153174	-0.016048	-0.007472	-0.934326	0.048340	0.484863	-0.008081	-0.684094	0.127820	-0.718061
57173		9.617015	-2.449605	0.259101	0.318717	-0.024592	-0.037152	-0.944336	0.046631	0.484375	-0.006413	-0.684260	0.125762	-0.718283
57174		9.634682	-1.899473	0.420212	0.359966	-0.023363	-0.054624	-0.935791	0.048096	0.493896	-0.004671	-0.684415	0.123389	-0.718561
57175		9.662773	-1.759206	0.461906	0.317560	-0.023117	-0.059567	-0.940674	0.046143	0.494629	-0.003180	-0.684615	0.121230	-0.718746
57176		9.592664	-1.429092	0.433465	0.268419	-0.018400	-0.061599	-0.928223	0.056396	0.491699	-0.002035	-0.684775	0.119381	-0.718907
57177		9.579416	-1.017756	0.291816	0.206342	-0.015951	-0.041933	-0.936523	0.045898	0.488525	-0.001009	-0.684911	0.117948	-0.719016
57178		9.689952	-1.096183	0.349691	0.122186	-0.010569	-0.008640	-0.942139	0.060059	0.491699	-0.000429	-0.684948	0.117295	-0.719088
57179		9.750657	-1.400378	0.398410	0.079023	0.002569	0.006848	-0.928955	0.050537	0.484863	0.000141	-0.684893	0.116901	-0.719205
57180		9.762391	-1.531650	0.390308	0.069846	0.004388	0.003993	-0.930908	0.057129	0.490967	0.000523	-0.684829	0.116607	-0.719313
57181		9.730795	-1.516320	0.341661	0.064525	0.006097	0.008641	-0.927734	0.055908	0.498535	0.000986	-0.684776	0.116327	-0.719409
57182		9.679324	-1.404618	0.180295	0.049393	0.008476	0.010901	-0.932617	0.054688	0.493896	0.001364	-0.684750	0.116160	-0.719460
57183		9.702671	-1.290641	0.207840	-0.004502	0.007634	0.021626	-0.932129	0.061035	0.493408	0.001453	-0.684684	0.116399	-0.719484
57184		9.656851	-1.428159	0.408301	-0.068528	0.007452	0.036773	-0.938721	0.051514	0.485840	0.001356	-0.684605	0.117058	-0.719452
57185		9.685862	-1.634893	0.457070	-0.079816	0.009774	0.046551	-0.935791	0.058105	0.488037	0.001073	-0.684443	0.117934	-0.719463
57186		9.721518	-1.794956	0.478548	-0.065891	0.012167	0.039641	-0.932129	0.053223	0.486328	0.000940	-0.684295	0.118626	-0.719491
57187		9.690564	-1.899014	0.482998	-0.053884	0.014591	0.028970	-0.932861	0.056396	0.485596	0.000732	-0.684144	0.119227	-0.719536
57188		9.620474	-1.909277	0.360559	-0.037610	0.010577	0.021375	-0.930908	0.052246	0.492432	0.000626	-0.684019	0.119659	-0.719583
57189		9.559394	-1.867673	0.265614	-0.029544	0.009644	0.021257	-0.930420	0.058105	0.494873	0.000506	-0.683947	0.120082	-0.719581
57190		9.589811	-1.801536	0.315265	-0.025234	0.007433	0.014601	-0.936768	0.058350	0.494629	0.000482	-0.683912	0.120384	-0.719563
57191		9.636170	-1.707960	0.464362	-0.028336	0.005780	0.021409	-0.933838	0.052002	0.485352	0.000463	-0.683859	0.120753	-0.719553
57192		9.653034	-1.812899	0.522043	-0.024970	0.005771	0.016832	-0.936035	0.063477	0.495605	0.000306	-0.683758	0.121139	-0.719583
57193		9.660793	-1.796872	0.548550	-0.015366	0.008450	0.007955	-0.935059	0.062988	0.489014	0.000377	-0.683714	0.121300	-0.719598
57194		9.651445	-1.763796	0.519657	-0.034463	0.009044	0.006945	-0.933105	0.056396	0.499023	0.000315	-0.683625	0.121573	-0.719636
57195		9.602698	-1.841590	0.365490	-0.042626	0.006424	0.007489	-0.938965	0.054688	0.497070	0.000102	-0.683630	0.121968	-0.719565
57196		9.590756	-1.673832	0.275655	-0.048542	0.006287	0.004285	-0.939209	0.051758	0.496094	-0.000221	-0.683602	0.122409	-0.719517
57197		9.628217	-1.568537	0.345061	-0.093313	0.007277	0.012691	-0.937500	0.049805	0.493408	-0.000812	-0.683550	0.123199	-0.719431
57198		9.650384	-1.592196	0.465714	-0.132161	0.009350	0.019813	-0.938477	0.059570	0.485352	-0.001614	-0.683462	0.124277	-0.719327
57199		9.650472	-1.563921	0.465485	-0.163753	0.013097	0.020866	-0.941650	0.067139	0.482422	-0.002374	-0.683287	0.125420	-0.719294
57200		9.628846	-1.351388	0.442944	-0.233138	0.018170	0.032079	-0.927979	0.065674	0.488037	-0.003292	-0.683034	0.126942	-0.719263
57201		9.601793	-1.051331	0.353323	-0.364942	0.022786	0.044501	-0.934082	0.058838	0.485352	-0.004833	-0.682839	0.129299	-0.719020
57202		9.610200	-1.066656	0.380552	-0.541539	0.027472	0.082103	-0.938965	0.052734	0.490479	-0.007307	-0.682507	0.133005	-0.718637
57203		9.615744	-1.100691	0.398072	-0.688725	0.031380	0.102889	-0.942383	0.040527	0.491211	-0.010577	-0.682123	0.137753	-0.718067
57204		9.769754	-0.695625	0.551764	-0.860176	0.039985	0.115850	-0.931885	0.040527	0.496826	-0.014969	-0.681613	0.143712	-0.717305
57205		9.681641	-0.389565	0.622575	-1.121340	0.052869	0.152692	-0.938721	0.036377	0.496338	-0.020443	-0.681005	0.151318	-0.716183
57206		9.679847	-0.495866	0.371946	-1.395582	0.066787	0.195579	-0.934326	0.024414	0.493652	-0.027198	-0.680101	0.160761	-0.714758
57207		9.682755	-0.539500	0.236638	-1.682029	0.073447	0.245317	-0.936523	0.019287	0.496582	-0.035367	-0.678910	0.172201	-0.712865
57208		9.626418	-0.863156	0.241284	-1.956257	0.082645	0.289679	-0.943848	0.009766	0.489990	-0.044697	-0.677390	0.185402	-0.710473
57209		9.615434	-1.351641	0.171934	-2.097002	0.094695	0.322930	-0.937744	-0.001221	0.500488	-0.054646	-0.675406	0.199580	-0.707820
57210		9.577243	-1.726330	-0.145796	-2.127699	0.109871	0.339011	-0.937744	-0.009277	0.504883	-0.064541	-0.673249	0.213864	-0.704864
57211		9.515649	-1.927183	-0.537125	-2.105149	0.124681	0.351477	-0.947021	-0.027588	0.495850	-0.074083	-0.670872	0.227911	-0.701783
57212		9.470292	-2.242199	-0.740003	-2.091123	0.131889	0.368106	-0.944092	-0.040771	0.499023	-0.083704	-0.668095	0.242034	-0.698614
57213		9.439348	-2.533673	-0.793311	-2.058074	0.137507	0.366456	-0.955811	-0.034668	0.489258	-0.093108	-0.665207	0.255831	-0.695256
57214		9.439566	-2.821547	-0.635959	-2.045585	0.139380	0.358376	-0.949219	-0.058838	0.488770	-0.102213	-0.662001	0.269388	-0.691909
57215		9.416209	-3.287729	-0.489013	-1.991642	0.131747	0.329390	-0.954346	-0.065186	0.491699	-0.111410	-0.658825	0.282469	-0.688293
57216		9.377506	-3.381976	-0.447808	-1.866493	0.124121	0.298202	-0.957520	-0.076416	0.481445	-0.119963	-0.655731	0.294555	-0.684735
57217		9.406715	-3.238343	-0.499379	-1.710456	0.117500	0.272169	-0.955078	-0.084961	0.478760	-0.127911	-0.652636	0.305645	-0.681386
57218		9.420207	-3.146245	-0.673031	-1.585068	0.118181	0.241728	-0.961182	-0.095947	0.478027	-0.135335	-0.649624	0.315800	-0.678191
57219		9.429076	-3.246581	-0.795292	-1.502046	0.105999	0.226653	-0.968018	-0.101074	0.474365	-0.142377	-0.646691	0.325382	-0.675016
57220		9.372026	-3.338333	-0.765436	-1.382451	0.100098	0.200520	-0.965820	-0.114014	0.468262	-0.148886	-0.643881	0.334126	-0.672019
57221		9.409158	-3.052549	-0.625528	-1.252507	0.096047	0.176766	-0.960693	-0.116943	0.479004	-0.154848	-0.641228	0.342001	-0.669242
57222		9.389383	-2.816359	-0.534382	-1.196186	0.089935	0.163142	-0.964844	-0.121338	0.469238	-0.160494	-0.638687	0.349423	-0.666502
57223		9.465995	-2.942628	-0.636791	-1.135833	0.082764	0.160404	-0.971191	-0.125488	0.466797	-0.165820	-0.636182	0.356495	-0.663843
57224		9.407000	-3.024068	-0.665171	-1.016531	0.074834	0.140828	-0.966064	-0.135986	0.466797	-0.170575	-0.633897	0.362777	-0.661416
57225		9.420899	-2.852967	-0.627407	-0.905711	0.069378	0.134773	-0.968018	-0.143311	0.467773	-0.174754	-0.631778	0.368401	-0.659240
57226		9.412683	-2.821783	-0.594873	-0.832674	0.064447	0.121266	-0.961182	-0.143066	0.465820	-0.178597	-0.629799	0.373542	-0.657209
57227		9.387793	-3.055083	-0.650707	-0.757160	0.067529	0.115751	-0.977783	-0.150391	0.466064	-0.182072	-0.627904	0.378217	-0.655392
57228		9.347962	-2.801098	-0.925482	-0.701106	0.084892	0.106936	-0.969727	-0.148193	0.454834	-0.185354	-0.626001	0.382503	-0.653803
57229		9.337265	-2.097186	-0.993801	-0.808756	0.078369	0.118163	-0.968750	-0.152832	0.462158	-0.189106	-0.623906	0.387428	-0.651828
57230		9.394219	-2.275469	-0.687097	-1.008677	0.071878	0.146560	-0.975098	-0.159668	0.448242	-0.193711	-0.621404	0.393573	-0.649179
57231		9.316379	-3.243281	-0.458513	-1.036416	0.071772	0.141252	-0.966309	-0.165771	0.442627	-0.198475	-0.618828	0.399813	-0.646382
57232		9.396147	-3.703416	-0.485376	-0.871454	0.073747	0.105820	-0.970947	-0.172852	0.449219	-0.202578	-0.616589	0.404957	-0.644042
57233		9.339563	-3.436326	-0.715106	-0.717927	0.066465	0.070827	-0.970215	-0.167725	0.442139	-0.206038	-0.614743	0.409086	-0.642097
57234		9.299464	-3.578333	-1.096966	-0.573106	0.057582	0.051921	-0.970459	-0.176025	0.447998	-0.208812	-0.613241	0.412343	-0.640552
57235		9.221585	-3.568605	-1.322658	-0.371082	0.049236	0.023573	-0.971436	-0.179199	0.440918	-0.210682	-0.612219	0.414391	-0.639595
57236		9.249019	-3.061401	-1.415524	-0.204417	0.040918	0.011612	-0.974854	-0.171631	0.437256	-0.211737	-0.611568	0.415506	-0.639145
57237		9.252777	-2.832804	-1.380158	-0.141662	0.023139	0.012198	-0.967285	-0.181885	0.434082	-0.212404	-0.611120	0.416322	-0.638822
57238		9.326836	-2.919128	-1.012720	-0.088060	0.013712	0.013825	-0.973145	-0.176514	0.436035	-0.212759	-0.610811	0.416876	-0.638638
57239		9.389855	-2.868821	-0.636944	-0.025527	0.006938	0.008025	-0.981689	-0.187744	0.435059	-0.212794	-0.610673	0.417075	-0.638628
57240		9.377893	-3.076100	-0.431375	0.025445	0.003778	0.000058	-0.975586	-0.177979	0.428711	-0.212615	-0.610663	0.416977	-0.638761
57241		9.357826	-3.190175	-0.497618	0.111980	0.003535	-0.010740	-0.976562	-0.186035	0.435791	-0.212045	-0.610846	0.416361	-0.639178
57242		9.373883	-2.868553	-0.838761	0.162521	0.016061	-0.024777	-0.978271	-0.173584	0.438721	-0.211338	-0.611100	0.415380	-0.639806
57243		9.351704	-2.553468	-1.015800	0.099533	0.013466	-0.019445	-0.974365	-0.177979	0.429688	-0.210909	-0.611238	0.414766	-0.640214
57244		9.323327	-2.689938	-0.994984	-0.002723	0.008030	-0.009888	-0.976562	-0.168945	0.435303	-0.210938	-0.611188	0.414759	-0.640257
57245		9.290494	-2.945559	-0.908371	-0.018787	0.005634	-0.013482	-0.971436	-0.185791	0.432861	-0.211052	-0.611140	0.414820	-0.640226
57246		9.301988	-2.956025	-0.797314	0.000020	-0.001717	-0.022452	-0.978516	-0.182129	0.435059	-0.211110	-0.611190	0.414754	-0.640202
57247		9.331146	-3.028883	-0.700751	0.048664	-0.009158	-0.027568	-0.984131	-0.176758	0.440674	-0.210910	-0.611386	0.414412	-0.640302
57248		9.352581	-2.849474	-0.741016	0.107934	-0.008746	-0.034021	-0.975342	-0.174072	0.432617	-0.210438	-0.611707	0.413718	-0.640600
57249		9.361178	-2.616917	-0.747890	0.121182	-0.012681	-0.030698	-0.977783	-0.176758	0.435547	-0.209873	-0.612056	0.412980	-0.640928
57250		9.363850	-2.646384	-0.750047	0.130153	-0.011236	-0.024389	-0.976562	-0.178223	0.440186	-0.209233	-0.612393	0.412221	-0.641303
57251		9.351932	-2.648368	-0.804372	0.171114	-0.014820	-0.019867	-0.965088	-0.185059	0.438965	-0.208347	-0.612807	0.411270	-0.641808
57252		9.311943	-2.665688	-0.785115	0.198804	-0.016703	-0.017071	-0.980957	-0.185791	0.433594	-0.207304	-0.613265	0.410189	-0.642398
57253		9.347783	-2.744648	-0.853897	0.230344	-0.022758	-0.013852	-0.972656	-0.179688	0.443359	-0.206068	-0.613787	0.408975	-0.643072
57254		9.359968	-2.972862	-0.679194	0.313860	-0.034664	-0.011789	-0.977051	-0.164795	0.436279	-0.204332	-0.614521	0.407326	-0.643970
57255		9.378748	-3.405936	-0.617117	0.490948	-0.043454	-0.028775	-0.972168	-0.172852	0.437988	-0.201747	-0.615646	0.404657	-0.645392
57256		9.355465	-3.591812	-0.770994	0.732519	-0.037668	-0.058757	-0.977783	-0.169434	0.450195	-0.198113	-0.617229	0.400516	-0.647585
57257		9.345936	-2.858684	-0.915441	0.847255	-0.040308	-0.075911	-0.970459	-0.165039	0.448242	-0.193956	-0.619052	0.395648	-0.650091
57258		9.317301	-2.992784	-0.937184	0.827143	-0.054896	-0.083111	-0.976807	-0.160645	0.447754	-0.189889	-0.620910	0.390861	-0.652411
57259		9.320949	-3.731715	-0.896891	0.941713	-0.073790	-0.099488	-0.975830	-0.148438	0.457031	-0.185249	-0.623064	0.385381	-0.654947
57260		9.336833	-3.524245	-0.608692	1.108178	-0.072892	-0.141058	-0.968018	-0.146973	0.457764	-0.179944	-0.625567	0.378737	-0.657909
57261		9.379300	-3.629992	-0.700882	1.240890	-0.073507	-0.178656	-0.970215	-0.146240	0.449951	-0.174147	-0.628325	0.371138	-0.661163
57262		9.352625	-3.545333	-1.019334	1.388697	-0.069811	-0.217688	-0.971436	-0.123779	0.469482	-0.167805	-0.631299	0.362491	-0.664758
57263		9.309909	-2.836164	-1.151863	1.405215	-0.069843	-0.227897	-0.977051	-0.124756	0.468750	-0.161354	-0.634270	0.353615	-0.668298
57264		9.339509	-2.175482	-0.893172	1.231382	-0.072162	-0.212400	-0.970947	-0.121094	0.464844	-0.155745	-0.636877	0.345770	-0.671249
57265		9.386475	-2.217906	-0.534503	0.998861	-0.071004	-0.186421	-0.966797	-0.116699	0.471191	-0.151227	-0.639035	0.339340	-0.673508
57266		9.465586	-2.295805	-0.247004	0.857381	-0.064224	-0.169392	-0.963623	-0.111328	0.466797	-0.147369	-0.640900	0.333753	-0.675380
57267		9.498917	-2.160158	0.030503	0.741828	-0.055134	-0.163860	-0.961182	-0.104980	0.472168	-0.144120	-0.642518	0.328827	-0.676958
57268		9.508081	-2.166742	0.170710	0.639478	-0.046472	-0.153717	-0.956787	-0.109863	0.475098	-0.141363	-0.643926	0.324495	-0.678291
57269		9.484075	-2.572359	0.076545	0.637267	-0.041229	-0.151025	-0.962402	-0.104004	0.472412	-0.138661	-0.645264	0.320199	-0.679617
57270		9.395105	-2.892449	-0.242135	0.750015	-0.044895	-0.156574	-0.962646	-0.097412	0.468750	-0.135370	-0.646729	0.315240	-0.681205
57271		9.431527	-2.767264	-0.480635	0.876162	-0.041473	-0.166118	-0.964355	-0.089844	0.482422	-0.131455	-0.648298	0.309504	-0.683108
57272		9.321395	-2.776851	-0.726363	0.940155	-0.053451	-0.156428	-0.959473	-0.087646	0.474365	-0.127052	-0.649980	0.303406	-0.685076
57273		9.336626	-3.051811	-0.669333	1.047451	-0.065836	-0.168032	-0.968750	-0.083252	0.480469	-0.122141	-0.651797	0.296666	-0.687191
57274		9.393669	-2.894948	-0.407256	1.150596	-0.070226	-0.170302	-0.963623	-0.078613	0.486328	-0.116676	-0.653686	0.289314	-0.689477
57275		9.412082	-3.030908	-0.300135	1.243788	-0.079978	-0.179681	-0.963867	-0.072510	0.484619	-0.110723	-0.655696	0.281345	-0.691844
57276		9.421306	-3.139457	-0.274115	1.395629	-0.090703	-0.200188	-0.962158	-0.058350	0.476318	-0.104050	-0.657852	0.272392	-0.694411
57277		9.438768	-2.583176	-0.196373	1.484593	-0.090101	-0.213049	-0.953369	-0.055908	0.476562	-0.096928	-0.659983	0.262821	-0.697103
57278		9.406536	-2.375859	-0.317729	1.469536	-0.096244	-0.205771	-0.955078	-0.047852	0.497803	-0.089882	-0.662015	0.253374	-0.699613
57279		9.519538	-2.209577	-0.147769	1.437220	-0.092171	-0.200615	-0.950684	-0.034912	0.491211	-0.082934	-0.663968	0.244041	-0.701935
57280		9.571126	-2.239476	0.144412	1.378503	-0.093190	-0.195278	-0.951172	-0.027344	0.479980	-0.076235	-0.665761	0.235040	-0.704065
57281		9.533571	-2.505566	0.141268	1.410969	-0.091193	-0.207123	-0.958252	-0.024658	0.482666	-0.069473	-0.667428	0.225804	-0.706205
57282		9.601358	-2.393779	0.134648	1.455911	-0.093744	-0.216987	-0.952393	-0.018555	0.487549	-0.062597	-0.669030	0.216279	-0.708311
57283		9.582987	-2.155824	0.002220	1.457126	-0.088793	-0.218724	-0.946045	-0.008301	0.482910	-0.055736	-0.670538	0.206695	-0.710317
57284		9.523433	-1.988727	-0.125163	1.383557	-0.089778	-0.217235	-0.936523	0.002441	0.489746	-0.049232	-0.671920	0.197499	-0.712105
57285		9.501179	-1.572185	0.047216	1.252667	-0.087233	-0.203799	-0.942139	0.004639	0.483887	-0.043298	-0.673194	0.189062	-0.713576
57286		9.608019	-1.325862	0.268302	1.038685	-0.082273	-0.179219	-0.940674	0.017090	0.487061	-0.038514	-0.674208	0.182081	-0.714708
57287		9.660570	-1.522777	0.522295	0.859931	-0.078792	-0.163285	-0.942139	0.020020	0.485352	-0.034523	-0.675115	0.176157	-0.715540
57288		9.619370	-1.585219	0.776890	0.765292	-0.078066	-0.155442	-0.950928	0.023926	0.493408	-0.031046	-0.675937	0.170850	-0.716209
57289		9.614361	-1.921584	0.828474	0.777159	-0.070038	-0.163350	-0.938721	0.020996	0.480957	-0.027567	-0.676711	0.165423	-0.716895
57290		9.541167	-2.083333	0.420706	0.867795	-0.067210	-0.170474	-0.947510	0.024902	0.477295	-0.023673	-0.677450	0.159435	-0.717692
57291		9.535694	-1.506390	0.181845	0.877603	-0.064197	-0.165280	-0.937744	0.036865	0.498047	-0.019679	-0.678130	0.153400	-0.718485
57292		9.495991	-1.501120	0.099613	0.791898	-0.064594	-0.131558	-0.938232	0.034180	0.493896	-0.015872	-0.678790	0.147995	-0.719089
57293		9.640098	-1.980772	0.146857	0.797981	-0.065926	-0.121063	-0.944092	0.041016	0.490723	-0.012019	-0.679395	0.142642	-0.719674
57294		9.675098	-1.987864	0.261174	0.852321	-0.065899	-0.129157	-0.947266	0.044189	0.490234	-0.007896	-0.679974	0.136903	-0.720299
57295		9.723490	-1.775277	0.473610	0.848514	-0.061203	-0.130409	-0.944336	0.050537	0.482666	-0.003818	-0.680489	0.131181	-0.720910
57296		9.651950	-2.030900	0.534212	0.860512	-0.065520	-0.137276	-0.945312	0.059082	0.484619	0.000303	-0.680999	0.125332	-0.721479
57297		9.707985	-2.146110	0.468909	0.944878	-0.060673	-0.159551	-0.933350	0.057861	0.486572	0.004781	-0.681472	0.118830	-0.722117
57298		9.613544	-2.006561	0.514657	1.012404	-0.072352	-0.169963	-0.937256	0.053955	0.485352	0.009569	-0.681985	0.111871	-0.722697
57299		9.546278	-2.328067	0.452733	1.136983	-0.077346	-0.176580	-0.926758	0.070557	0.491211	0.014995	-0.682462	0.104138	-0.723310
57300		9.533593	-2.591262	0.235108	1.345682	-0.077468	-0.200334	-0.933838	0.067627	0.482666	0.021515	-0.682869	0.094968	-0.724022
57301		9.542412	-2.181891	0.176264	1.516268	-0.081993	-0.213027	-0.932129	0.082031	0.481201	0.028887	-0.683174	0.084712	-0.724750
57302		9.599869	-2.027801	0.272542	1.617631	-0.087153	-0.216320	-0.941406	0.098877	0.467285	0.036836	-0.683375	0.073796	-0.725394
57303		9.626325	-2.024446	0.373844	1.713646	-0.089514	-0.234125	-0.930908	0.099854	0.478271	0.045230	-0.683436	0.062172	-0.725950
57304		9.748953	-1.789873	0.518012	1.763149	-0.089871	-0.249537	-0.933838	0.114502	0.469238	0.053783	-0.683352	0.050166	-0.726376
57305		9.613131	-1.724115	0.490707	1.790929	-0.084944	-0.265258	-0.934814	0.123291	0.469238	0.062396	-0.683077	0.037883	-0.726690
57306		9.716408	-1.467893	0.656644	1.816673	-0.087342	-0.276486	-0.931152	0.128906	0.458252	0.071069	-0.682652	0.025374	-0.726837
57307		9.699704	-1.410280	0.611522	1.818643	-0.088056	-0.298262	-0.934814	0.127686	0.461914	0.079598	-0.682076	0.012726	-0.726825
57308		9.687132	-1.357895	0.579007	1.863302	-0.089051	-0.298251	-0.928955	0.143555	0.452148	0.088339	-0.681315	-0.000177	-0.726640
57309		9.601342	-1.082674	0.335630	1.894104	-0.080874	-0.302322	-0.926758	0.158936	0.451904	0.097225	-0.680313	-0.013298	-0.726323
57310		9.590943	-0.420727	0.204240	1.816907	-0.073198	-0.284467	-0.933838	0.156738	0.447266	0.105768	-0.679166	-0.025849	-0.725864
57311		9.668135	-0.447432	0.401450	1.653215	-0.078233	-0.245749	-0.928955	0.161865	0.441895	0.113572	-0.678060	-0.037174	-0.725227
57312		9.824006	-0.321672	0.717447	1.522673	-0.061526	-0.249121	-0.929199	0.178223	0.434570	0.120599	-0.676857	-0.047708	-0.724600
57313		9.791628	-0.270957	0.848805	1.366989	-0.054073	-0.229638	-0.927490	0.182617	0.435791	0.126871	-0.675673	-0.057194	-0.723947
57314		9.782618	-0.354953	0.700727	1.238230	-0.045430	-0.229633	-0.927979	0.177979	0.421875	0.132400	-0.674494	-0.065883	-0.723317
57315		9.813661	-0.257672	0.493026	1.072410	-0.040388	-0.224129	-0.922852	0.183594	0.426270	0.137011	-0.673407	-0.073526	-0.722734
57316		9.725463	-0.397325	0.543922	0.933575	-0.036641	-0.223017	-0.921875	0.187988	0.426270	0.140840	-0.672410	-0.080316	-0.722204
57317		9.737828	-0.280253	0.895091	0.794258	-0.036042	-0.199671	-0.922119	0.192871	0.419922	0.144022	-0.671553	-0.086134	-0.721703
57318		9.783198	-0.756598	0.723960	0.768111	-0.024525	-0.201947	-0.924561	0.189209	0.416748	0.147054	-0.670627	-0.091797	-0.721254
57319		9.667662	-0.099029	0.883855	0.752241	-0.023808	-0.203216	-0.929443	0.202637	0.412109	0.149974	-0.669689	-0.097360	-0.720795
57320		9.604206	-0.039263	0.915394	0.656833	-0.037146	-0.156482	-0.927734	0.193359	0.416992	0.152646	-0.668962	-0.102119	-0.720250
57321		9.665306	-0.011548	0.860864	0.669670	-0.021502	-0.145546	-0.925049	0.207031	0.413818	0.155440	-0.668117	-0.106853	-0.719750
57322		9.785402	0.415065	0.938545	0.611724	-0.026636	-0.129669	-0.927002	0.211182	0.407227	0.158018	-0.667370	-0.111172	-0.719228
57323		9.849024	0.374762	1.052213	0.478846	-0.026378	-0.107492	-0.934814	0.203369	0.402100	0.159994	-0.666802	-0.114577	-0.718783
57324		9.776684	0.111185	1.087235	0.362155	-0.021769	-0.087372	-0.926758	0.205811	0.409180	0.161431	-0.666374	-0.117155	-0.718443
57325		9.643546	0.062449	1.069333	0.276077	-0.020405	-0.071950	-0.927246	0.204346	0.410400	0.162478	-0.666065	-0.119128	-0.718169
57326		9.629733	0.145667	1.003588	0.183895	-0.019616	-0.057527	-0.926025	0.199463	0.408203	0.163095	-0.665889	-0.120463	-0.717970
57327		9.630610	0.347188	1.000740	0.079822	-0.019013	-0.039267	-0.929199	0.209229	0.403320	0.163238	-0.665868	-0.121070	-0.717855
57328		9.763342	0.553715	0.877984	-0.097093	-0.011605	-0.009865	-0.921631	0.207520	0.405273	0.162602	-0.666070	-0.120463	-0.717914
57329		9.795354	-0.191250	0.829420	-0.206414	-0.010793	0.012517	-0.931641	0.209473	0.404541	0.161492	-0.666436	-0.119076	-0.718056
57330		9.738019	-0.593095	0.797696	-0.173207	0.003208	0.011994	-0.931885	0.205078	0.410156	0.160582	-0.666670	-0.117876	-0.718241
57331		9.694942	-0.122274	0.639565	-0.132655	0.004613	0.010824	-0.928223	0.203613	0.403809	0.159881	-0.666841	-0.116914	-0.718396
57332		9.717869	0.114624	0.555007	-0.201133	0.004567	0.030123	-0.931396	0.199463	0.403564	0.158921	-0.667119	-0.115441	-0.718589
57333		9.813841	-0.020144	0.502157	-0.269510	0.007414	0.036844	-0.934570	0.198242	0.410645	0.157617	-0.667476	-0.113513	-0.718852
57334		9.910308	0.171173	0.707252	-0.363644	0.004091	0.047842	-0.925293	0.197998	0.406982	0.155846	-0.667982	-0.110961	-0.719166
57335		9.798153	0.015044	0.921447	-0.484964	-0.001258	0.069754	-0.923584	0.193604	0.416992	0.153532	-0.668687	-0.107572	-0.719523
57336		9.800693	0.108198	0.854199	-0.575723	-0.004095	0.080911	-0.932373	0.199463	0.416748	0.150763	-0.669523	-0.103570	-0.719919
57337		9.725774	0.795073	0.889805	-0.743234	-0.011257	0.101023	-0.926514	0.195557	0.420166	0.147185	-0.670605	-0.098469	-0.720368
57338		9.818903	1.304863	1.064478	-1.041822	-0.002234	0.142998	-0.920898	0.190186	0.424072	0.142188	-0.671993	-0.091327	-0.721018
57339		9.831335	0.726656	1.035366	-1.306687	-0.004062	0.193157	-0.927490	0.178711	0.418945	0.135994	-0.673675	-0.082308	-0.721729
57340		9.847944	0.510291	0.794767	-1.447935	0.001244	0.207577	-0.930420	0.177490	0.437256	0.129075	-0.675402	-0.072342	-0.722453
57341		9.740396	0.680548	0.810743	-1.646252	0.006897	0.244447	-0.923584	0.170166	0.431641	0.121244	-0.677214	-0.060957	-0.723164
57342		9.740756	0.328516	0.683037	-1.872727	0.018135	0.292235	-0.925049	0.163086	0.443604	0.112412	-0.679056	-0.047923	-0.723844
57343		9.732460	-0.500594	0.449129	-1.965926	0.022080	0.317509	-0.929443	0.151367	0.446533	0.103176	-0.680793	-0.034168	-0.724368
57344		9.706188	-0.838988	0.493649	-1.977848	0.034732	0.315379	-0.929932	0.139404	0.452148	0.093831	-0.682270	-0.020330	-0.724769
57345		9.645874	-1.357806	0.353631	-1.929423	0.035731	0.309404	-0.927490	0.142090	0.459961	0.084695	-0.683516	-0.006807	-0.724974
57346		9.634218	-1.068592	0.224050	-1.870647	0.041862	0.298925	-0.932861	0.135498	0.468750	0.075839	-0.684504	0.006289	-0.725026
57347		9.580085	-0.921097	0.314558	-1.931401	0.052868	0.326779	-0.929932	0.113770	0.461182	0.066787	-0.685287	0.019914	-0.724931
57348		9.629778	-1.941476	0.146316	-1.908148	0.056909	0.335837	-0.923340	0.109863	0.469727	0.057872	-0.685841	0.033468	-0.724674
57349		9.633533	-2.304603	0.246058	-1.740482	0.057111	0.303880	-0.930908	0.105713	0.475586	0.049732	-0.686163	0.045808	-0.724299
57350		9.574937	-1.847031	0.263166	-1.609389	0.056560	0.267564	-0.929688	0.096191	0.479736	0.042124	-0.686308	0.057135	-0.723839
57351		9.679015	-1.978612	0.282897	-1.578930	0.041831	0.256120	-0.931641	0.094482	0.487305	0.034617	-0.686413	0.068203	-0.723179
57352		9.672966	-2.144670	0.385475	-1.460854	0.034526	0.222376	-0.936279	0.077881	0.486572	0.027609	-0.686438	0.078336	-0.722429
57353		9.652548	-1.747007	0.631128	-1.369596	0.029782	0.196580	-0.937744	0.073730	0.484131	0.020921	-0.686382	0.087790	-0.721620
57354		9.635834	-1.705638	0.659387	-1.311328	0.029668	0.195719	-0.935059	0.065186	0.490479	0.014576	-0.686221	0.096866	-0.720767
57355		9.588422	-1.922201	0.449465	-1.232357	0.031202	0.195890	-0.925781	0.062744	0.487061	0.008680	-0.685971	0.105462	-0.719894
57356		9.541346	-2.209854	0.329519	-1.127617	0.028328	0.194876	-0.936523	0.061279	0.493408	0.003415	-0.685663	0.113388	-0.719026
57357		9.541371	-2.673081	0.154704	-0.961493	0.021907	0.180972	-0.929443	0.060059	0.494873	-0.000956	-0.685349	0.120217	-0.718222
57358		9.526934	-2.591171	0.009969	-0.758954	0.023948	0.149706	-0.930664	0.053223	0.489258	-0.004321	-0.685029	0.125627	-0.717589
57359		9.560700	-2.396225	-0.024593	-0.665430	0.017911	0.128421	-0.935791	0.050049	0.501465	-0.007309	-0.684731	0.130375	-0.717003
57360		9.594281	-2.393680	0.024543	-0.606241	0.016918	0.109892	-0.936523	0.039795	0.487549	-0.010055	-0.684464	0.134653	-0.716433
57361		9.596419	-2.316179	0.313028	-0.578027	0.013752	0.088246	-0.932129	0.045166	0.495605	-0.012855	-0.684186	0.138699	-0.715882
57362		9.579539	-2.505823	0.475661	-0.527165	0.007737	0.071622	-0.933838	0.032959	0.496826	-0.015355	-0.683984	0.142274	-0.715323
57363		9.537143	-2.496228	0.431082	-0.420147	0.011396	0.044543	-0.942627	0.036621	0.497070	-0.017500	-0.683790	0.145117	-0.714889
57364		9.548387	-2.253985	0.287258	-0.297968	0.004417	0.026910	-0.936523	0.032959	0.497314	-0.018997	-0.683661	0.147101	-0.714569
57365		9.564588	-2.264201	0.140754	-0.199053	0.003783	0.023047	-0.937988	0.032227	0.496582	-0.019960	-0.683561	0.148478	-0.714353
57366		9.596979	-2.348096	0.088513	-0.070256	0.001568	0.013190	-0.936523	0.029297	0.494141	-0.020245	-0.683502	0.149035	-0.714285
57367		9.610450	-2.425232	0.123238	0.051543	-0.006281	-0.005406	-0.934082	0.038086	0.498779	-0.019972	-0.683526	0.148787	-0.714322
57368		9.668969	-2.408512	0.115873	0.171514	-0.011636	-0.027069	-0.933838	0.027832	0.491699	-0.019021	-0.683655	0.147620	-0.714467
57369		9.695798	-1.852602	0.152073	0.234165	-0.008220	-0.040972	-0.939453	0.026855	0.497070	-0.017963	-0.683751	0.146117	-0.714711
57370		9.641570	-1.556718	0.294746	0.177633	-0.012439	-0.034407	-0.931885	0.034424	0.496094	-0.017211	-0.683861	0.145008	-0.714850
57371		9.692075	-1.598011	0.303466	0.110473	-0.009160	-0.028040	-0.931641	0.044922	0.498047	-0.016706	-0.683951	0.144261	-0.714927
57372		9.719055	-1.507376	0.297421	0.071142	-0.008888	-0.022272	-0.933838	0.036377	0.494385	-0.016246	-0.684046	0.143678	-0.714964
57373		9.650284	-1.484814	0.370481	0.027339	-0.006296	-0.011017	-0.936523	0.030029	0.493164	-0.016119	-0.684075	0.143524	-0.714970
57374		9.632127	-1.618086	0.397157	-0.001513	-0.007951	0.000686	-0.933105	0.042480	0.498779	-0.016193	-0.684076	0.143686	-0.714935
57375		9.643194	-1.793325	0.368245	0.000626	-0.007470	0.001160	-0.936279	0.036865	0.494873	-0.016036	-0.684122	0.143682	-0.714896
57376		9.597104	-1.775780	0.322104	0.006355	-0.002139	0.001764	-0.931396	0.040039	0.494141	-0.015964	-0.684102	0.143729	-0.714907
57377		9.574587	-1.706700	0.211478	0.002166	-0.001496	0.009450	-0.935547	0.033203	0.497070	-0.015810	-0.684081	0.143801	-0.714916
57378		9.601792	-1.773029	0.195200	-0.016499	-0.007777	0.013399	-0.936768	0.032227	0.503174	-0.015854	-0.684084	0.144094	-0.714853
57379		9.647023	-1.890521	0.229779	-0.007484	-0.005938	0.009737	-0.935547	0.029053	0.498779	-0.015874	-0.684105	0.144312	-0.714788
57380		9.663372	-1.901303	0.326307	0.011057	-0.006820	0.006474	-0.936768	0.036133	0.499023	-0.015880	-0.684113	0.144455	-0.714752
57381		9.609840	-1.858386	0.354731	0.023602	-0.003714	0.003286	-0.936768	0.033447	0.500000	-0.015718	-0.684115	0.144422	-0.714760
57382		9.609673	-1.815028	0.310620	0.021462	-0.004191	0.002814	-0.936279	0.040527	0.502930	-0.015626	-0.684119	0.144438	-0.714755
57383		9.577872	-1.776034	0.310697	0.004893	-0.004999	0.005954	-0.938965	0.040039	0.500732	-0.015470	-0.684150	0.144470	-0.714722
57384		9.607194	-1.785408	0.257778	-0.005252	-0.005876	0.006667	-0.932861	0.034424	0.497803	-0.015397	-0.684162	0.144591	-0.714687
57385		9.631427	-1.724435	0.289405	-0.023347	-0.002059	0.012067	-0.936279	0.037109	0.501709	-0.015504	-0.684134	0.144923	-0.714645
57386		9.642906	-1.738529	0.276279	-0.028933	-0.002717	0.011421	-0.932373	0.039307	0.501465	-0.015594	-0.684126	0.145247	-0.714585
57387		9.632538	-1.780887	0.288303	-0.039031	0.000984	0.007305	-0.939209	0.042236	0.497559	-0.015713	-0.684113	0.145565	-0.714530
57388		9.640048	-1.742635	0.219201	-0.040786	-0.001640	0.005470	-0.936035	0.042480	0.506836	-0.015825	-0.684078	0.145870	-0.714499
57389		9.663885	-1.658585	0.156267	-0.071697	0.006410	0.002582	-0.936279	0.041260	0.501709	-0.016087	-0.684061	0.146296	-0.714422
57390		9.699301	-1.739093	0.162532	-0.120544	0.006447	0.000294	-0.937012	0.038086	0.504395	-0.016678	-0.684006	0.147029	-0.714311
57391		9.732152	-1.748448	0.306972	-0.182390	0.008173	0.001976	-0.932373	0.037354	0.499512	-0.017655	-0.683940	0.148166	-0.714115
57392		9.631412	-1.614560	0.335453	-0.247320	0.002788	0.003456	-0.938232	0.033691	0.495117	-0.018976	-0.683878	0.149693	-0.713823
57393		9.583656	-0.843832	0.300235	-0.379093	0.014628	0.024301	-0.936035	0.019043	0.498047	-0.021025	-0.683639	0.152186	-0.713466
57394		9.618686	-0.297083	0.318053	-0.683240	0.025999	0.082734	-0.929199	0.020508	0.502686	-0.024727	-0.683192	0.156990	-0.712735
57395		9.670992	-0.667457	0.350539	-0.979235	0.033120	0.134640	-0.934570	0.025635	0.500977	-0.029627	-0.682609	0.163694	-0.711598
57396		9.735257	-0.938144	0.521497	-1.178736	0.035872	0.168301	-0.936035	0.016602	0.500977	-0.035227	-0.681853	0.171592	-0.710205
57397		9.664070	-1.253774	0.452975	-1.318197	0.043297	0.195915	-0.940674	0.013184	0.507568	-0.041514	-0.680891	0.180486	-0.708582
57398		9.611305	-1.472362	0.208259	-1.384050	0.050756	0.217255	-0.938232	-0.010742	0.494873	-0.047924	-0.679792	0.189766	-0.706806
57399		9.553869	-1.792804	-0.217746	-1.391716	0.053149	0.239301	-0.943115	-0.008057	0.504395	-0.054703	-0.678416	0.199517	-0.704948
57400		9.534926	-2.050235	-0.324455	-1.365123	0.064048	0.244329	-0.944092	-0.021973	0.499512	-0.061000	-0.676985	0.208881	-0.703092
57401		9.483807	-2.245405	-0.477455	-1.334715	0.072466	0.246557	-0.935791	-0.010986	0.501709	-0.067309	-0.675373	0.218182	-0.701240
57402		9.522987	-2.333049	-0.571810	-1.330916	0.071579	0.237648	-0.948975	-0.033203	0.498535	-0.073111	-0.673839	0.227017	-0.699328
57403		9.524933	-2.253278	-0.358253	-1.374050	0.072544	0.237049	-0.939941	-0.032227	0.508789	-0.079604	-0.672060	0.236385	-0.697223
57404		9.518437	-2.494239	-0.184523	-1.404661	0.076669	0.230056	-0.949707	-0.035400	0.502441	-0.085937	-0.670356	0.245571	-0.694933
57405		9.498347	-2.420562	-0.040573	-1.419161	0.078316	0.220817	-0.945068	-0.053467	0.507324	-0.092384	-0.668482	0.254778	-0.692594
57406		9.466244	-2.476351	-0.221064	-1.431752	0.080116	0.217032	-0.945557	-0.056885	0.508301	-0.099066	-0.666554	0.264053	-0.690049
57407		9.484005	-2.299173	-0.335054	-1.444955	0.081261	0.216635	-0.947510	-0.071777	0.498047	-0.105735	-0.664517	0.273322	-0.687410
