// Start Time: Unknown
// Update Rate: 60.0Hz
// Filter Profile: human (46.1)
// Firmware Version: 4.6.0
PacketCounter	SampleTimeFine	Acc_X	Acc_Y	Acc_Z	Gyr_X	Gyr_Y	Gyr_Z	Mag_X	Mag_Y	Mag_Z	Quat_q0	Quat_q1	Quat_q2	Quat_q3
28280		9.436742	2.283045	-0.969463	0.027518	0.012270	-0.022814	-0.816406	-0.514404	-0.028076	0.597393	0.483348	-0.562207	0.305647
28281		9.451653	2.298319	-0.985310	0.031330	0.004544	-0.027840	-0.815918	-0.515137	-0.028076	0.597359	0.483623	-0.561992	0.305674
28282		9.461098	2.268226	-1.027728	0.035821	-0.000141	-0.031821	-0.817139	-0.512939	-0.022461	0.597295	0.483950	-0.561773	0.305682
28283		9.459777	2.272850	-1.029673	0.034151	-0.007735	-0.034438	-0.816406	-0.518066	-0.028076	0.597179	0.484340	-0.561593	0.305623
28284		9.434357	2.280280	-1.041038	0.032380	-0.016767	-0.035259	-0.811768	-0.517578	-0.031494	0.597060	0.484706	-0.561453	0.305533
28285		9.390147	2.335683	-1.036449	0.025811	-0.025426	-0.026720	-0.815430	-0.517578	-0.032959	0.596928	0.484990	-0.561403	0.305432
28286		9.380575	2.287282	-0.980944	0.018721	-0.035274	-0.015526	-0.819092	-0.520508	-0.031738	0.596768	0.485189	-0.561461	0.305322
28287		9.423234	2.290814	-0.983499	0.012231	-0.043007	-0.005133	-0.815186	-0.515381	-0.031006	0.596563	0.485337	-0.561618	0.305198
28288		9.428756	2.294144	-0.956030	-0.001879	-0.052481	0.003249	-0.820068	-0.515381	-0.022705	0.596355	0.485392	-0.561891	0.305014
28289		9.440900	2.299727	-0.893918	-0.011299	-0.055167	0.010090	-0.812744	-0.520264	-0.027100	0.596112	0.485432	-0.562237	0.304787
28290		9.464962	2.323043	-0.859860	-0.018637	-0.053704	0.019098	-0.813232	-0.518555	-0.030029	0.595900	0.485372	-0.562624	0.304584
28291		9.458835	2.251329	-0.817274	-0.020953	-0.052533	0.021054	-0.813721	-0.514648	-0.028564	0.595728	0.485253	-0.563008	0.304401
28292		9.482841	2.245678	-0.817050	-0.012486	-0.054485	0.021744	-0.814697	-0.514648	-0.029053	0.595514	0.485168	-0.563381	0.304266
28293		9.570073	2.249676	-0.762813	0.000505	-0.054205	0.013970	-0.817139	-0.515137	-0.023682	0.595284	0.485171	-0.563677	0.304162
28294		9.554763	2.263985	-0.721101	0.014333	-0.048531	0.007291	-0.810059	-0.515625	-0.025146	0.595022	0.485282	-0.563883	0.304115
28295		9.574152	2.363604	-0.729997	0.034379	-0.042228	0.001477	-0.824951	-0.517822	-0.030273	0.594748	0.485500	-0.563962	0.304158
28296		9.616272	2.410404	-0.688837	0.031751	-0.036173	0.002093	-0.811768	-0.510254	-0.024414	0.594583	0.485615	-0.563987	0.304249
28297		9.644135	2.496193	-0.671848	0.030877	-0.026990	0.000714	-0.825684	-0.512695	-0.018799	0.594406	0.485752	-0.563988	0.304377
28298		9.668141	2.591070	-0.610975	0.034200	-0.018710	0.010384	-0.807617	-0.518555	-0.020508	0.594252	0.485829	-0.563951	0.304622
28299		9.750838	2.650608	-0.464909	0.034550	-0.008596	0.016932	-0.817383	-0.518311	-0.024658	0.594152	0.485929	-0.563850	0.304843
28300		9.822343	2.952859	-0.258650	0.044289	0.005884	0.027090	-0.818359	-0.522217	-0.023193	0.594144	0.485923	-0.563638	0.305261
28301		9.922578	3.314026	-0.006069	0.033023	0.024528	0.046718	-0.827881	-0.519043	-0.020020	0.594280	0.485738	-0.563382	0.305762
28302		10.099883	3.465155	0.281384	0.012022	0.057281	0.068341	-0.815186	-0.515625	-0.018066	0.594676	0.485247	-0.563020	0.306438
28303		10.202141	3.828568	0.710885	-0.015004	0.098778	0.075514	-0.823486	-0.516113	-0.019043	0.595329	0.484551	-0.562542	0.307149
28304		10.282177	4.241545	1.419773	-0.098623	0.143490	0.079372	-0.817871	-0.512695	-0.029297	0.596691	0.483283	-0.561909	0.307663
28305		10.508034	4.235961	1.832585	-0.193421	0.199208	0.065594	-0.823730	-0.503174	-0.026855	0.598848	0.481473	-0.561030	0.307912
28306		10.859177	3.866268	2.516161	-0.230144	0.283122	0.003986	-0.821045	-0.505371	-0.031982	0.601764	0.479538	-0.559423	0.308169
28307		11.048647	3.817399	2.990882	-0.236399	0.368617	-0.093573	-0.824463	-0.508545	-0.038086	0.605476	0.477771	-0.556877	0.308257
28308		11.277479	3.681014	3.545965	-0.215463	0.487498	-0.219912	-0.819092	-0.514648	-0.049316	0.610205	0.476296	-0.552927	0.308324
28309		11.414066	3.909721	3.751814	-0.216893	0.605508	-0.348159	-0.816162	-0.523438	-0.057861	0.615936	0.475027	-0.547704	0.308208
28310		11.590191	4.325728	3.875679	-0.288750	0.725175	-0.444553	-0.818115	-0.527832	-0.072998	0.622918	0.473382	-0.541512	0.307648
28311		11.813205	4.657744	3.891602	-0.420705	0.843978	-0.485566	-0.811523	-0.528076	-0.091309	0.631310	0.470815	-0.534400	0.306918
28312		12.117476	5.327780	4.034419	-0.630357	0.976099	-0.463722	-0.801270	-0.534668	-0.115234	0.640897	0.466746	-0.526896	0.306234
28313		12.360243	5.165939	4.108775	-0.854566	1.137291	-0.403883	-0.801514	-0.537354	-0.135498	0.651794	0.460817	-0.519128	0.305481
28314		12.724630	4.517846	4.050897	-0.976257	1.341403	-0.351936	-0.799316	-0.537842	-0.155518	0.663970	0.453266	-0.510336	0.305370
28315		12.967662	4.078317	4.195078	-1.021887	1.565298	-0.325493	-0.787109	-0.540283	-0.180908	0.676989	0.444489	-0.500404	0.306122
28316		12.687421	4.171101	4.611733	-1.084980	1.729909	-0.317029	-0.779053	-0.545898	-0.218262	0.690321	0.434721	-0.490128	0.307000
28317		12.684124	4.286305	4.444520	-1.255256	1.789942	-0.291171	-0.760254	-0.537598	-0.257080	0.704431	0.423455	-0.479685	0.307190
28318		12.997102	3.806744	3.896846	-1.435007	1.836627	-0.290609	-0.759277	-0.536865	-0.299561	0.718281	0.411394	-0.469373	0.307433
28319		13.031437	3.659784	3.692121	-1.587398	1.908309	-0.303082	-0.738770	-0.538574	-0.325684	0.733201	0.397795	-0.457977	0.307299
28320		12.785665	3.402133	3.726773	-1.697059	1.965877	-0.299466	-0.729980	-0.529785	-0.369873	0.747791	0.383061	-0.447908	0.305698
28321		12.646159	3.153601	3.594858	-1.747631	2.004774	-0.267920	-0.710449	-0.530029	-0.405518	0.762284	0.367587	-0.437027	0.304650
28322		12.482987	3.024993	3.537975	-1.754535	2.043559	-0.209728	-0.690430	-0.520264	-0.446533	0.776333	0.351432	-0.426767	0.302775
28323		12.226035	2.743311	3.554832	-1.753171	2.084047	-0.135174	-0.668945	-0.507080	-0.483398	0.789714	0.334901	-0.416392	0.301348
28324		12.018856	2.307025	3.750593	-1.731119	2.102707	-0.046803	-0.650635	-0.498535	-0.531982	0.802116	0.318187	-0.406240	0.300559
28325		11.749093	2.242843	3.660462	-1.690838	2.110312	0.052698	-0.616699	-0.482422	-0.563477	0.814411	0.300634	-0.395441	0.299969
28326		11.479097	1.795217	3.671826	-1.657592	2.109867	0.162904	-0.595215	-0.472656	-0.589844	0.825354	0.283257	-0.385573	0.299816
28327		11.101424	1.695107	3.730781	-1.577879	2.106143	0.258390	-0.577393	-0.449707	-0.626221	0.835473	0.265932	-0.376293	0.299445
28328		10.801463	1.897981	3.854807	-1.560234	2.085778	0.367720	-0.547363	-0.434814	-0.648193	0.844730	0.248301	-0.366707	0.300505
28329		10.360925	1.587506	3.781144	-1.539520	2.074146	0.467303	-0.524658	-0.414551	-0.672852	0.853067	0.230664	-0.357698	0.301865
28330		10.134843	1.367397	3.865089	-1.469743	2.062276	0.551171	-0.497070	-0.396484	-0.705566	0.860515	0.213132	-0.348163	0.304749
28331		9.651815	0.880131	3.996488	-1.384621	2.041656	0.589356	-0.470703	-0.378662	-0.725098	0.867232	0.195882	-0.338044	0.308649
28332		9.225919	0.571231	4.022763	-1.255892	2.016203	0.598296	-0.446533	-0.363037	-0.744385	0.873181	0.179532	-0.327736	0.312908
28333		8.750050	0.664440	4.035744	-1.137175	1.980911	0.578672	-0.408691	-0.348633	-0.753174	0.878516	0.164146	-0.317349	0.317104
28334		8.371515	0.486401	3.780281	-1.022937	1.941307	0.542599	-0.386963	-0.335693	-0.775146	0.883334	0.149775	-0.306906	0.321088
28335		7.904299	0.151846	3.387308	-0.894945	1.886564	0.481862	-0.355957	-0.312988	-0.794434	0.887699	0.136640	-0.296463	0.324700
28336		7.307798	0.073521	3.206579	-0.749092	1.814332	0.394235	-0.333740	-0.313232	-0.803711	0.891680	0.124992	-0.286090	0.327775
28337		6.561124	0.418786	2.703338	-0.648656	1.716052	0.317293	-0.306152	-0.308350	-0.807129	0.895299	0.114547	-0.276121	0.330265
28338		5.885397	0.298747	2.246225	-0.589249	1.599599	0.253793	-0.283203	-0.298096	-0.815430	0.898576	0.105036	-0.266822	0.332168
28339		5.293060	0.339620	1.826426	-0.506502	1.467855	0.186674	-0.253418	-0.299072	-0.823730	0.901514	0.096685	-0.258246	0.333517
28340		4.699967	0.384238	1.422066	-0.424408	1.323596	0.126865	-0.241699	-0.286865	-0.827393	0.904119	0.089513	-0.250500	0.334375
28341		3.975021	0.503623	1.094189	-0.340298	1.156533	0.075692	-0.221924	-0.290283	-0.830322	0.906363	0.083580	-0.243761	0.334815
28342		3.330594	0.521256	0.855721	-0.265455	0.959089	0.039187	-0.208740	-0.279053	-0.837891	0.908196	0.078874	-0.238291	0.334929
28343		2.923767	0.574725	0.382189	-0.208872	0.737723	0.005868	-0.189697	-0.278564	-0.833008	0.909610	0.075313	-0.234319	0.334712
28344		2.476398	0.518460	0.245884	-0.203826	0.513199	-0.027940	-0.180420	-0.278076	-0.846924	0.910662	0.072516	-0.232016	0.334073
28345		2.016613	0.479974	0.116364	-0.152158	0.291514	-0.073173	-0.174561	-0.283447	-0.836670	0.911376	0.070843	-0.231221	0.333034
28346		1.760438	0.489678	0.209468	-0.027985	0.065378	-0.131373	-0.174561	-0.276855	-0.836670	0.911744	0.070875	-0.231753	0.331648
28347		1.836492	0.919432	0.600490	0.081127	-0.140165	-0.185095	-0.176270	-0.282715	-0.842529	0.911798	0.072426	-0.233495	0.329937
28348		2.015822	1.028351	1.087473	0.153325	-0.318929	-0.202679	-0.178223	-0.281494	-0.837402	0.911503	0.075077	-0.236359	0.328115
28349		2.338266	0.556977	1.397465	0.288511	-0.476903	-0.223748	-0.193848	-0.281982	-0.836426	0.910851	0.079253	-0.240009	0.326289
28350		2.819101	0.224400	1.578485	0.432799	-0.627822	-0.250453	-0.202393	-0.283691	-0.824463	0.909835	0.084997	-0.244368	0.324438
28351		3.104888	0.584902	1.691163	0.549718	-0.766089	-0.272173	-0.204590	-0.297119	-0.827148	0.908448	0.092044	-0.249423	0.322549
28352		3.488820	1.047657	1.858395	0.622020	-0.900348	-0.260614	-0.227051	-0.299805	-0.828369	0.906610	0.099979	-0.255284	0.320770
28353		3.917439	1.451605	1.833716	0.676546	-1.057451	-0.217749	-0.241211	-0.307129	-0.819336	0.904169	0.108663	-0.262191	0.319261
28354		4.664071	1.247559	2.038210	0.688978	-1.214442	-0.199219	-0.253174	-0.321533	-0.806396	0.901190	0.117829	-0.270231	0.317723
28355		5.446731	0.906890	2.306383	0.666353	-1.367758	-0.224307	-0.280762	-0.326172	-0.803711	0.897792	0.127288	-0.279428	0.315733
28356		5.969429	0.928134	2.798302	0.666054	-1.516995	-0.279434	-0.302490	-0.336426	-0.796387	0.893997	0.137250	-0.289652	0.313104
28357		6.520183	1.003677	3.071602	0.708412	-1.653958	-0.326345	-0.324951	-0.347412	-0.787109	0.889716	0.147974	-0.300687	0.309993
28358		7.038140	1.292505	3.109084	0.825026	-1.753209	-0.359389	-0.346924	-0.349609	-0.776367	0.884864	0.159867	-0.312058	0.306721
28359		7.617933	1.372698	3.280021	0.932802	-1.822942	-0.370373	-0.377686	-0.369141	-0.763184	0.879419	0.172719	-0.323580	0.303458
28360		8.089202	1.100343	3.327597	1.107126	-1.887609	-0.391915	-0.401855	-0.381104	-0.742920	0.873271	0.187014	-0.335018	0.300312
28361		8.506300	1.740622	3.558274	1.252260	-1.967754	-0.392643	-0.425781	-0.396484	-0.725342	0.866303	0.202488	-0.346570	0.297333
28362		9.000230	2.363702	3.826920	1.245878	-2.034390	-0.332371	-0.464355	-0.408447	-0.714355	0.858313	0.218310	-0.358490	0.295167
28363		9.733052	2.308145	4.275186	1.200129	-2.059042	-0.249901	-0.483154	-0.427490	-0.677979	0.849800	0.233440	-0.370700	0.293135
28364		10.180048	1.978046	4.352148	1.282106	-2.039984	-0.173855	-0.516113	-0.428223	-0.654785	0.840578	0.248821	-0.382528	0.291872
28365		10.558765	1.345325	4.566099	1.515497	-2.026658	-0.148707	-0.545654	-0.453369	-0.630127	0.830546	0.265435	-0.393608	0.291222
28366		10.630742	2.774870	4.667842	1.546908	-2.065199	-0.113033	-0.568359	-0.466064	-0.604736	0.819797	0.282106	-0.404741	0.290747
28367		11.345141	3.273437	4.688586	1.292420	-2.044943	-0.018226	-0.590332	-0.470703	-0.581055	0.809172	0.296393	-0.416383	0.289857
28368		11.398218	3.003717	5.124542	1.086903	-2.030432	0.038212	-0.610107	-0.480957	-0.545898	0.798732	0.308767	-0.428371	0.288424
28369		11.825797	2.897710	5.167617	1.011570	-2.000269	0.093744	-0.639893	-0.490479	-0.502197	0.788167	0.320245	-0.440204	0.287152
28370		11.961037	2.934835	5.248376	1.004053	-1.956385	0.130443	-0.650635	-0.496582	-0.489502	0.777384	0.331378	-0.451569	0.286265
28371		11.969921	3.521511	5.497842	0.951198	-1.894014	0.176657	-0.669189	-0.500488	-0.468018	0.766746	0.341548	-0.462553	0.285464
28372		12.315655	3.297897	5.851201	0.850629	-1.801870	0.225745	-0.696289	-0.497559	-0.433105	0.756472	0.350472	-0.473105	0.284765
28373		12.485816	3.078525	5.952177	0.890400	-1.658616	0.226120	-0.712158	-0.500244	-0.408936	0.746470	0.359197	-0.482433	0.284637
28374		12.365577	3.446836	6.037263	0.958827	-1.543938	0.222143	-0.723877	-0.505127	-0.378174	0.736601	0.367961	-0.490673	0.285068
28375		12.500514	3.315928	5.437057	0.929442	-1.459966	0.221202	-0.743896	-0.507568	-0.351562	0.727026	0.376268	-0.498270	0.285626
28376		12.242982	3.054130	5.006878	0.839300	-1.364233	0.195566	-0.743652	-0.501709	-0.333496	0.718077	0.383820	-0.505264	0.285931
28377		11.737982	3.221108	5.530807	0.791073	-1.233424	0.136515	-0.754883	-0.510010	-0.306885	0.709899	0.390907	-0.511285	0.286047
28378		11.740237	2.594396	5.094892	0.850861	-1.109581	0.068200	-0.760498	-0.510742	-0.281982	0.702122	0.398308	-0.516079	0.286421
28379		11.597017	2.819335	4.688880	1.074431	-0.970145	-0.030992	-0.769287	-0.518555	-0.264404	0.694355	0.407053	-0.519087	0.287625
28380		11.220221	3.822816	3.938921	1.137406	-0.883453	-0.064995	-0.767090	-0.525879	-0.239746	0.686747	0.416033	-0.521227	0.289168
28381		10.724326	4.304655	3.219330	0.994984	-0.844946	-0.038588	-0.773926	-0.524658	-0.234131	0.679651	0.423947	-0.523487	0.290351
28382		10.339507	4.422399	2.547552	0.718232	-0.841686	0.017615	-0.779785	-0.521240	-0.206543	0.673376	0.429959	-0.526548	0.290597
28383		10.096403	3.691360	2.073638	0.480830	-0.817499	0.067613	-0.788574	-0.531738	-0.195312	0.667884	0.434351	-0.530170	0.290156
28384		10.234724	3.060788	1.727788	0.419127	-0.788597	0.085707	-0.785400	-0.530518	-0.181152	0.662662	0.438227	-0.533807	0.289632
28385		10.101873	2.768582	1.522352	0.441053	-0.757608	0.084100	-0.791504	-0.525146	-0.165527	0.657467	0.442133	-0.537181	0.289294
28386		9.977929	2.689882	1.308777	0.489990	-0.735032	0.097229	-0.788330	-0.524414	-0.153809	0.652129	0.446168	-0.540333	0.289314
28387		9.860682	3.065173	1.193558	0.534190	-0.702704	0.120398	-0.795898	-0.524902	-0.140625	0.646684	0.450232	-0.543258	0.289762
28388		9.818578	3.377259	0.909086	0.535830	-0.680434	0.176746	-0.799316	-0.526367	-0.123291	0.641164	0.453970	-0.546241	0.290587
28389		9.914174	3.844515	0.622292	0.521307	-0.656224	0.243326	-0.790283	-0.525635	-0.107666	0.635610	0.457255	-0.549345	0.291782
28390		10.027206	3.609369	0.366748	0.449720	-0.614982	0.298569	-0.809082	-0.513672	-0.099121	0.630348	0.459798	-0.552582	0.293088
28391		10.027994	3.310037	0.322393	0.366325	-0.569136	0.318016	-0.809814	-0.516846	-0.088379	0.625554	0.461663	-0.555842	0.294260
28392		10.096610	3.099422	0.471786	0.290566	-0.538398	0.301948	-0.813232	-0.515625	-0.083984	0.621209	0.463123	-0.559042	0.295107
28393		10.082698	3.047461	0.556124	0.241918	-0.518900	0.261964	-0.815186	-0.508301	-0.071045	0.617228	0.464448	-0.562093	0.295582
28394		10.129184	2.931893	0.708026	0.209083	-0.485976	0.219114	-0.815918	-0.502930	-0.067627	0.613616	0.465717	-0.564872	0.295806
28395		10.219198	2.705117	0.829162	0.206361	-0.450570	0.164613	-0.819092	-0.502441	-0.056396	0.610312	0.467121	-0.567257	0.295866
28396		10.231707	2.792893	0.995470	0.206776	-0.414147	0.105419	-0.823486	-0.509033	-0.044678	0.607310	0.468717	-0.569209	0.295769
28397		10.261532	2.953616	1.057726	0.158263	-0.378304	0.062029	-0.818359	-0.497559	-0.044434	0.604761	0.470191	-0.570912	0.295370
28398		10.285129	2.865271	1.024496	0.078829	-0.323908	0.027004	-0.813232	-0.507324	-0.043213	0.602875	0.471276	-0.572399	0.294618
28399		10.305370	2.756414	1.024503	0.015505	-0.264603	-0.015148	-0.819092	-0.496826	-0.034424	0.601620	0.472098	-0.573570	0.293588
28400		10.323361	2.862615	1.115168	-0.029848	-0.210115	-0.043699	-0.820068	-0.505127	-0.031006	0.600874	0.472693	-0.574461	0.292414
28401		10.293231	2.687292	0.944436	-0.066243	-0.159609	-0.059104	-0.827148	-0.509766	-0.036133	0.600548	0.473063	-0.575118	0.291194
28402		10.334212	2.411195	0.854323	-0.053238	-0.099356	-0.073261	-0.817627	-0.500488	-0.030273	0.600501	0.473406	-0.575388	0.290199
28403		10.261949	2.589077	0.756833	-0.024189	-0.037161	-0.084642	-0.812988	-0.501953	-0.038330	0.600662	0.473802	-0.575226	0.289537
28404		10.120483	2.810661	0.704501	-0.029038	0.010814	-0.061401	-0.819092	-0.503174	-0.036865	0.601026	0.473934	-0.574930	0.289154
28405		10.134578	2.968068	0.510053	-0.050582	0.059362	-0.029893	-0.814697	-0.503174	-0.034424	0.601631	0.473691	-0.574565	0.289020
28406		10.040079	2.685995	0.435531	-0.092282	0.110279	-0.010182	-0.815918	-0.506592	-0.041992	0.602594	0.473029	-0.574116	0.288991
28407		10.019094	2.498798	0.311443	-0.083431	0.154338	-0.017129	-0.805420	-0.502930	-0.034912	0.603753	0.472331	-0.573397	0.289140
28408		9.968136	2.585527	0.158263	-0.073473	0.178491	-0.039213	-0.823975	-0.506104	-0.043457	0.605029	0.471747	-0.572434	0.289332
28409		9.855550	2.608377	-0.103611	-0.079891	0.199213	-0.064657	-0.816650	-0.508057	-0.041748	0.606498	0.471186	-0.571286	0.289440
28410		9.753512	2.647417	-0.248861	-0.086618	0.222865	-0.086014	-0.819092	-0.502441	-0.049316	0.608148	0.470646	-0.569943	0.289505
28411		9.627550	2.666883	-0.324860	-0.083211	0.236648	-0.105864	-0.818115	-0.517334	-0.050293	0.609902	0.470169	-0.568447	0.289533
28412		9.586559	2.981140	-0.205929	-0.077639	0.244649	-0.113294	-0.812012	-0.506592	-0.053955	0.611678	0.469748	-0.566857	0.289585
28413		9.604484	3.413908	-0.065030	-0.146071	0.239954	-0.090178	-0.815918	-0.505127	-0.056396	0.613644	0.468871	-0.565547	0.289408
28414		9.747876	3.465290	0.358322	-0.220948	0.255073	-0.067598	-0.809326	-0.503906	-0.064941	0.615916	0.467466	-0.564423	0.289049
28415		10.004913	4.306893	1.236045	-0.295832	0.302418	-0.036470	-0.820068	-0.507812	-0.073730	0.618626	0.465407	-0.563351	0.288676
28416		10.702089	4.887069	2.612939	-0.413231	0.405932	0.002628	-0.808350	-0.516113	-0.087402	0.622178	0.462298	-0.562166	0.288348
28417		10.943600	4.330324	3.366275	-0.391159	0.621442	-0.020148	-0.818359	-0.516602	-0.086426	0.626696	0.458882	-0.559694	0.288830
28418		11.183343	4.157161	4.597404	-0.328502	0.739291	-0.055784	-0.812500	-0.508057	-0.096680	0.631576	0.455678	-0.556275	0.289876
28419		12.095371	4.603168	4.844363	-0.353844	0.879675	-0.138780	-0.811768	-0.509766	-0.121338	0.637376	0.452359	-0.551818	0.290896
28420		12.236278	4.727891	5.137314	-0.499098	1.037644	-0.241812	-0.810791	-0.507568	-0.137695	0.644667	0.448304	-0.546431	0.291274
28421		12.557687	4.410680	5.383561	-0.664741	1.169698	-0.362069	-0.802734	-0.518066	-0.166260	0.653403	0.443531	-0.540209	0.290722
28422		12.823557	4.746141	5.436912	-0.799270	1.291254	-0.489178	-0.799316	-0.517578	-0.182861	0.663399	0.438222	-0.533084	0.289284
28423		13.129219	4.737969	5.110830	-0.956269	1.435920	-0.583968	-0.783691	-0.528076	-0.205811	0.674701	0.432034	-0.525063	0.287112
28424		13.145309	4.922748	5.058730	-1.111565	1.573318	-0.641486	-0.772461	-0.525391	-0.243652	0.687119	0.424797	-0.516277	0.284382
28425		13.154972	5.076089	4.600055	-1.272823	1.674679	-0.644648	-0.755371	-0.530273	-0.274658	0.700355	0.416241	-0.507121	0.281202
28426		13.230262	4.859201	4.403728	-1.437207	1.762061	-0.625839	-0.745850	-0.534180	-0.309326	0.714228	0.406292	-0.497711	0.277650
28427		13.048420	5.127699	4.386000	-1.640189	1.851093	-0.574338	-0.732178	-0.540283	-0.339600	0.728733	0.394542	-0.488200	0.273760
28428		13.011180	4.506691	4.238584	-1.896137	1.925742	-0.498147	-0.721680	-0.535156	-0.378906	0.743829	0.380599	-0.478816	0.269440
28429		12.975374	3.775281	4.315811	-2.045804	1.993569	-0.417203	-0.692383	-0.519775	-0.424805	0.759068	0.365040	-0.469341	0.265106
28430		12.915662	3.357749	4.282400	-2.107448	2.052506	-0.332493	-0.662842	-0.516113	-0.465332	0.774098	0.348370	-0.459620	0.261075
28431		12.831889	2.890343	4.405330	-2.149598	2.100148	-0.238005	-0.648682	-0.495850	-0.518555	0.788730	0.330765	-0.449664	0.257491
28432		12.694447	2.634200	4.278058	-2.121356	2.149112	-0.128520	-0.623535	-0.485596	-0.546631	0.802750	0.312544	-0.439376	0.254672
28433		12.355483	2.279491	4.269622	-1.996577	2.186681	-0.009991	-0.596436	-0.464600	-0.585449	0.815782	0.294521	-0.428602	0.253096
28434		11.862490	2.496523	4.120788	-1.841097	2.193231	0.133925	-0.565918	-0.450928	-0.619629	0.827672	0.276826	-0.417563	0.252918
28435		11.284175	2.528031	3.964029	-1.802665	2.178078	0.298553	-0.559570	-0.427002	-0.651855	0.838597	0.258728	-0.406665	0.253848
28436		11.014602	2.145976	3.844143	-1.815264	2.152901	0.460353	-0.517822	-0.404541	-0.685547	0.848602	0.239890	-0.396180	0.255673
28437		10.682167	1.528112	3.661272	-1.789260	2.129004	0.590250	-0.500244	-0.392090	-0.710938	0.857764	0.220714	-0.385750	0.258309
28438		10.265551	1.165140	3.808143	-1.693645	2.109061	0.675018	-0.460205	-0.362305	-0.736084	0.865972	0.201995	-0.375215	0.261732
28439		9.910961	1.391248	3.763091	-1.596686	2.096757	0.744031	-0.435547	-0.334961	-0.763184	0.873385	0.183587	-0.364491	0.265783
28440		9.531840	0.661979	3.781190	-1.491363	2.091838	0.776651	-0.406006	-0.316162	-0.763916	0.880083	0.165704	-0.353538	0.270197
28441		9.139664	0.119644	3.623358	-1.284685	2.064664	0.747018	-0.372803	-0.302002	-0.783936	0.886069	0.149366	-0.342154	0.274776
28442		8.612664	0.130838	3.342001	-1.094746	2.015059	0.670579	-0.346680	-0.281494	-0.808594	0.891471	0.134693	-0.330479	0.279141
28443		8.090182	0.132263	3.066568	-0.966192	1.953910	0.587258	-0.322510	-0.259766	-0.819336	0.896414	0.121295	-0.318762	0.283055
28444		7.333845	0.360802	2.705539	-0.867655	1.867762	0.502354	-0.291748	-0.253906	-0.832275	0.900925	0.109021	-0.307282	0.286402
28445		6.641695	0.269020	2.306355	-0.779485	1.764223	0.410715	-0.260742	-0.247314	-0.839355	0.905044	0.097861	-0.296214	0.289093
28446		5.890662	0.095136	1.848768	-0.686907	1.638908	0.312188	-0.237061	-0.239990	-0.848145	0.908790	0.087921	-0.285732	0.291082
28447		5.053349	0.279256	1.419682	-0.623852	1.489867	0.219943	-0.211426	-0.230957	-0.851074	0.912170	0.079024	-0.276115	0.292339
28448		4.221043	0.308460	1.061100	-0.587303	1.304645	0.150333	-0.186035	-0.219971	-0.858154	0.915119	0.071006	-0.267741	0.292967
28449		3.474555	0.219593	0.596283	-0.532931	1.111045	0.091602	-0.172119	-0.217285	-0.855957	0.917634	0.064001	-0.260655	0.293105
28450		2.610719	0.288542	0.371303	-0.442301	0.904404	0.044068	-0.159912	-0.217285	-0.852051	0.919687	0.058295	-0.254890	0.292930
28451		1.979978	0.471762	0.090376	-0.348078	0.689475	0.010304	-0.145508	-0.203125	-0.855469	0.921270	0.053908	-0.250521	0.292567
28452		1.488865	0.445483	-0.113033	-0.249577	0.470231	-0.033264	-0.147461	-0.206543	-0.860596	0.922429	0.050904	-0.247574	0.291959
28453		1.295861	0.534513	-0.031560	-0.174381	0.237109	-0.081562	-0.134521	-0.204834	-0.857910	0.923182	0.049147	-0.246218	0.291026
28454		1.156369	0.654538	0.118706	-0.106511	0.013370	-0.120286	-0.131104	-0.202637	-0.859131	0.923539	0.048538	-0.246406	0.289835
28455		1.198068	0.184030	0.201851	0.021282	-0.182290	-0.160899	-0.137451	-0.211182	-0.855713	0.923538	0.049472	-0.247777	0.288509
28456		1.261772	0.164069	0.442618	0.207838	-0.374789	-0.211273	-0.148926	-0.209473	-0.864746	0.923173	0.052410	-0.250161	0.287095
28457		1.572076	0.743767	0.714396	0.344129	-0.542824	-0.236610	-0.162109	-0.209961	-0.850586	0.922437	0.056852	-0.253499	0.285687
28458		2.043668	1.126989	1.126895	0.364521	-0.724280	-0.216886	-0.161377	-0.217529	-0.854492	0.921222	0.061842	-0.258185	0.284370
28459		2.872987	0.559628	1.467836	0.340603	-0.906115	-0.195669	-0.170166	-0.212646	-0.855957	0.919523	0.067035	-0.264324	0.283047
28460		3.574856	-0.074772	1.793816	0.393252	-1.071412	-0.214019	-0.196777	-0.225586	-0.853271	0.917399	0.073061	-0.271580	0.281578
28461		3.964529	0.199889	2.119050	0.533738	-1.198214	-0.241258	-0.203857	-0.226318	-0.850830	0.914862	0.080512	-0.279440	0.280105
28462		4.473958	0.540624	2.420593	0.709837	-1.298367	-0.253631	-0.233398	-0.236084	-0.840332	0.911870	0.089559	-0.287615	0.278836
28463		5.007063	0.602856	2.756858	0.876246	-1.428220	-0.260645	-0.251709	-0.242676	-0.837646	0.908293	0.100175	-0.296344	0.277758
28464		5.903230	0.654546	2.913104	0.995353	-1.581792	-0.282329	-0.289062	-0.255859	-0.821289	0.904078	0.112082	-0.305886	0.276614
28465		6.609005	1.302690	3.180853	0.971134	-1.717552	-0.303088	-0.306152	-0.274170	-0.818848	0.899343	0.124145	-0.316421	0.275043
28466		7.531644	1.041672	3.271483	0.908201	-1.809153	-0.305691	-0.330811	-0.281738	-0.805420	0.894174	0.135921	-0.327709	0.273103
28467		8.323906	-0.053480	3.365928	1.097368	-1.868745	-0.375389	-0.367432	-0.298096	-0.792236	0.888497	0.149392	-0.338846	0.270996
28468		8.610098	0.768001	3.605124	1.376748	-1.938385	-0.457582	-0.384033	-0.315918	-0.775879	0.882118	0.165262	-0.349659	0.268879
28469		8.871273	1.916762	3.910208	1.484931	-1.996706	-0.466698	-0.423096	-0.332275	-0.753174	0.875050	0.182012	-0.360515	0.266811
28470		9.298437	2.402702	4.168903	1.416574	-2.070320	-0.396180	-0.453369	-0.352295	-0.732178	0.867304	0.198136	-0.372022	0.264812
28471		9.752105	2.249588	4.086541	1.367212	-2.128109	-0.283941	-0.483887	-0.372559	-0.714111	0.858755	0.213701	-0.384071	0.263366
28472		10.358061	1.722342	4.339107	1.432835	-2.129928	-0.195719	-0.511719	-0.384277	-0.694336	0.849487	0.229352	-0.395981	0.262618
28473		10.641262	1.985337	4.762738	1.546825	-2.123900	-0.122000	-0.545410	-0.403076	-0.663330	0.839480	0.245365	-0.407583	0.262576
28474		11.129816	2.731165	4.448757	1.592127	-2.121037	-0.024151	-0.570801	-0.417725	-0.628418	0.828734	0.261262	-0.419077	0.263280
28475		11.589741	2.303984	4.385884	1.590247	-2.097942	0.048318	-0.596436	-0.431396	-0.604736	0.817499	0.276714	-0.430370	0.264399
28476		11.809751	2.250658	4.530539	1.602459	-2.093589	0.067588	-0.635742	-0.435059	-0.568115	0.805828	0.291979	-0.441454	0.265532
28477		11.824259	3.277753	5.066555	1.501950	-2.115323	0.112405	-0.649170	-0.451660	-0.538818	0.793834	0.306289	-0.452814	0.266411
28478		12.270264	3.989737	4.876822	1.179312	-2.110087	0.240893	-0.663574	-0.461670	-0.514648	0.782046	0.317811	-0.464984	0.266815
28479		12.837789	2.575825	5.218192	0.888435	-2.054707	0.364658	-0.697510	-0.475342	-0.479980	0.770677	0.326674	-0.477590	0.266925
28480		12.773582	2.094506	5.741741	0.820993	-1.954570	0.464496	-0.716309	-0.461182	-0.448975	0.759369	0.334422	-0.489780	0.267649
28481		12.990594	1.487667	6.018308	0.926592	-1.794797	0.530793	-0.731689	-0.462402	-0.415283	0.748051	0.342053	-0.500746	0.269580
28482		13.062479	1.294546	6.060271	1.157058	-1.647405	0.538945	-0.746094	-0.458252	-0.380127	0.736440	0.350659	-0.510117	0.272902
28483		13.172618	1.723521	5.490964	1.392321	-1.485256	0.510051	-0.770996	-0.460693	-0.354736	0.724674	0.360351	-0.517692	0.277472
28484		12.836886	2.676634	5.116053	1.458067	-1.403858	0.467455	-0.782959	-0.465332	-0.324951	0.712951	0.370310	-0.524315	0.282250
28485		11.933721	4.323144	5.307212	1.226919	-1.354668	0.484716	-0.788818	-0.467529	-0.297119	0.701925	0.378605	-0.531073	0.286218
28486		11.954287	3.842587	4.630024	0.932726	-1.267395	0.511255	-0.790283	-0.463379	-0.277832	0.692006	0.384776	-0.537959	0.289267
28487		11.771794	2.865176	4.682970	0.893326	-1.130235	0.439210	-0.805664	-0.460938	-0.258057	0.682898	0.390633	-0.543804	0.292118
28488		11.653618	2.870171	4.014248	0.995961	-1.001350	0.326018	-0.814453	-0.451904	-0.234619	0.674225	0.397210	-0.548193	0.295177
28489		11.611410	3.089743	3.512138	1.008548	-0.914892	0.198391	-0.818604	-0.460938	-0.220703	0.666136	0.404169	-0.551549	0.297832
28490		11.128550	3.067173	2.839312	0.901434	-0.855091	0.073590	-0.820068	-0.463379	-0.196045	0.658923	0.410911	-0.554336	0.299475
28491		10.521114	3.334896	2.463675	0.732282	-0.837939	-0.027432	-0.827393	-0.462891	-0.179688	0.652556	0.417123	-0.557033	0.299823
28492		10.507210	3.076095	1.709330	0.611450	-0.816332	-0.126264	-0.825439	-0.460693	-0.171631	0.646913	0.423047	-0.559516	0.299126
28493		10.445137	2.861594	1.363305	0.532297	-0.815756	-0.212417	-0.823242	-0.465088	-0.155273	0.641736	0.428899	-0.561847	0.297569
28494		10.373095	3.469012	0.957167	0.453864	-0.815264	-0.251686	-0.828125	-0.469727	-0.135742	0.636899	0.434491	-0.564185	0.295419
28495		10.123948	3.802354	0.720368	0.304053	-0.811774	-0.238313	-0.825195	-0.468750	-0.127686	0.632548	0.439201	-0.566878	0.292634
28496		9.977845	4.088030	0.511470	0.146818	-0.818784	-0.184124	-0.821533	-0.480713	-0.120605	0.628585	0.442809	-0.570159	0.289344
28497		9.863316	4.100217	0.474257	0.005153	-0.791237	-0.104310	-0.818115	-0.477783	-0.102783	0.625057	0.445211	-0.573902	0.285882
28498		10.021877	3.572646	0.394100	-0.037496	-0.729333	-0.032987	-0.825195	-0.479736	-0.090820	0.621785	0.446896	-0.577657	0.282808
28499		10.026533	2.955438	0.541729	0.030492	-0.668187	-0.003651	-0.827637	-0.480225	-0.085205	0.618465	0.448638	-0.581019	0.280432
28500		10.060640	2.686118	0.582308	0.129716	-0.616323	0.003719	-0.829346	-0.478027	-0.079834	0.614996	0.450716	-0.583891	0.278760
28501		10.091970	2.373830	0.445397	0.205746	-0.570894	-0.007350	-0.830811	-0.484131	-0.070801	0.611478	0.453112	-0.586296	0.277563
28502		10.175958	2.225940	0.297015	0.276785	-0.519190	-0.033179	-0.827881	-0.473633	-0.059326	0.607990	0.455868	-0.588157	0.276774
28503		10.133462	2.425783	0.166798	0.319119	-0.471950	-0.052345	-0.830322	-0.488281	-0.046387	0.604604	0.458811	-0.589593	0.276272
28504		9.925551	2.788709	0.260586	0.298187	-0.437875	-0.054377	-0.826416	-0.490479	-0.043457	0.601452	0.461585	-0.590877	0.275787
28505		9.978603	2.973732	0.168966	0.174290	-0.420722	-0.022266	-0.825928	-0.483154	-0.041260	0.598782	0.463527	-0.592474	0.274914
28506		10.160388	2.625091	0.133452	0.016638	-0.393030	0.006397	-0.824463	-0.480225	-0.032959	0.596794	0.464459	-0.594399	0.273505
28507		10.281208	2.347649	0.282567	-0.133939	-0.351730	0.012493	-0.835938	-0.485840	-0.025146	0.595573	0.464517	-0.596475	0.271542
28508		10.254805	2.127005	0.472587	-0.265660	-0.310642	0.022251	-0.828857	-0.482910	-0.025635	0.595035	0.463781	-0.598672	0.269134
28509		10.258357	1.971530	0.633546	-0.336925	-0.260847	0.029336	-0.833740	-0.491455	-0.018799	0.595001	0.462535	-0.600799	0.266598
28510		10.331238	1.740730	0.661791	-0.337818	-0.203859	0.034373	-0.834961	-0.484619	-0.022217	0.595232	0.461143	-0.602650	0.264308
28511		10.253779	1.894983	0.780936	-0.294567	-0.135186	0.040950	-0.836426	-0.480225	-0.026367	0.595629	0.459765	-0.604086	0.262531
28512		10.098558	2.289089	0.761295	-0.294837	-0.078061	0.076156	-0.829346	-0.478271	-0.021973	0.596239	0.458070	-0.605370	0.261147
28513		10.048300	2.652651	0.790623	-0.383468	-0.031917	0.134273	-0.843750	-0.481201	-0.027832	0.597284	0.455550	-0.606825	0.259786
28514		10.308548	2.559597	0.628916	-0.507088	0.027891	0.198847	-0.836182	-0.471436	-0.029053	0.598958	0.451944	-0.608485	0.258345
28515		10.496071	2.143958	0.622698	-0.570912	0.110373	0.217544	-0.835938	-0.473145	-0.034424	0.601235	0.447741	-0.609922	0.256982
28516		10.466618	2.064913	1.054519	-0.580258	0.185305	0.193552	-0.845459	-0.466064	-0.044678	0.603960	0.443445	-0.610893	0.255730
28517		10.478037	2.267228	1.207626	-0.582516	0.233909	0.161885	-0.842041	-0.466797	-0.050293	0.607000	0.439169	-0.611491	0.254480
28518		10.663586	2.274151	1.453966	-0.574706	0.303713	0.136492	-0.846191	-0.464355	-0.065186	0.610400	0.434910	-0.611601	0.253396
28519		11.069114	1.743446	1.844053	-0.432369	0.419756	0.074377	-0.844238	-0.468018	-0.065186	0.613998	0.431420	-0.610578	0.253136
28520		11.161995	1.575099	2.207825	-0.100854	0.576271	-0.056838	-0.852295	-0.459229	-0.072754	0.617452	0.429975	-0.607556	0.254461
28521		11.101796	2.114730	2.961330	0.203222	0.702700	-0.176570	-0.842529	-0.468262	-0.076172	0.620699	0.430407	-0.602787	0.257158
28522		11.414788	3.024416	3.163625	0.295122	0.806790	-0.270817	-0.840088	-0.469727	-0.093262	0.624305	0.431561	-0.596903	0.260203
28523		11.828284	4.069760	3.044483	0.128891	0.935077	-0.337838	-0.838379	-0.470947	-0.109131	0.629267	0.431857	-0.590430	0.262515
28524		11.650580	4.271765	3.356581	-0.146616	1.084920	-0.313390	-0.835938	-0.476807	-0.119873	0.635866	0.430210	-0.583812	0.264116
28525		12.104215	3.568603	3.536379	-0.381948	1.197655	-0.285481	-0.826904	-0.472168	-0.137207	0.643727	0.426899	-0.577142	0.265105
28526		12.419674	3.364143	4.006008	-0.465792	1.338873	-0.340151	-0.824219	-0.481689	-0.164307	0.652605	0.423026	-0.569622	0.265869
28527		12.284529	4.173802	4.405861	-0.681262	1.426682	-0.365162	-0.816650	-0.484375	-0.188721	0.662614	0.417823	-0.561914	0.265742
28528		12.733643	4.395525	4.299339	-1.114668	1.481613	-0.304335	-0.812500	-0.484863	-0.214355	0.674115	0.409726	-0.554947	0.264060
28529		13.048337	3.432370	4.266736	-1.374023	1.586809	-0.263253	-0.802979	-0.476074	-0.245850	0.686707	0.399638	-0.547936	0.261704
28530		13.104600	3.301839	4.355434	-1.447697	1.692990	-0.232711	-0.788330	-0.482666	-0.278564	0.699741	0.388607	-0.540398	0.259457
28531		13.133216	3.428480	4.692777	-1.541212	1.791076	-0.169141	-0.771729	-0.473389	-0.318848	0.713109	0.376406	-0.532487	0.257394
28532		13.356414	3.177228	4.823846	-1.621601	1.890429	-0.082086	-0.771484	-0.472412	-0.353271	0.726701	0.362938	-0.524216	0.255692
28533		13.605543	2.886851	4.941773	-1.658432	1.987680	0.020018	-0.752441	-0.460449	-0.397949	0.740269	0.348450	-0.515501	0.254645
28534		13.746919	2.372223	5.081987	-1.653613	2.091555	0.122882	-0.738525	-0.448730	-0.421875	0.753706	0.333119	-0.506191	0.254420
28535		13.488296	2.046338	4.982962	-1.588409	2.190552	0.211972	-0.718262	-0.435303	-0.464355	0.766771	0.317504	-0.496104	0.255216
28536		13.273167	2.077848	4.749833	-1.550654	2.273181	0.303248	-0.701416	-0.428955	-0.508545	0.779485	0.301386	-0.485392	0.256833
28537		13.180451	2.241910	4.543733	-1.560000	2.322354	0.415144	-0.685547	-0.400879	-0.551025	0.791748	0.284493	-0.474394	0.259130
28538		12.839230	2.257199	4.066507	-1.599517	2.352141	0.528955	-0.651123	-0.383057	-0.587158	0.803541	0.266583	-0.463311	0.261912
28539		12.631158	1.774101	3.924683	-1.647683	2.359386	0.649909	-0.631348	-0.355225	-0.621338	0.814728	0.247717	-0.452263	0.265167
28540		12.266763	1.452047	3.547349	-1.641427	2.359345	0.739074	-0.606201	-0.354004	-0.649902	0.825193	0.228380	-0.441138	0.268880
28541		11.706051	1.113634	3.748545	-1.634769	2.345375	0.810583	-0.568359	-0.317871	-0.679443	0.834874	0.208909	-0.429907	0.272988
28542		11.103442	1.365775	3.600307	-1.614895	2.334217	0.870969	-0.544922	-0.305176	-0.706787	0.843852	0.189148	-0.418570	0.277372
28543		10.672115	0.761844	3.302855	-1.588066	2.324264	0.912587	-0.514648	-0.277832	-0.729248	0.852094	0.169436	-0.407063	0.282005
28544		10.267283	0.052022	3.017847	-1.428144	2.310686	0.877794	-0.480713	-0.257568	-0.759277	0.859627	0.150875	-0.395037	0.286747
28545		9.751217	0.300187	2.342548	-1.271221	2.243082	0.799175	-0.454346	-0.229492	-0.784668	0.866465	0.133751	-0.382831	0.291185
28546		9.086804	0.402311	1.725626	-1.240181	2.127713	0.724214	-0.421631	-0.211914	-0.790771	0.872674	0.117268	-0.371136	0.294868
28547		8.182350	0.622380	1.016003	-1.253743	1.988354	0.661609	-0.388916	-0.198242	-0.808838	0.878236	0.101165	-0.360279	0.297770
28548		7.291629	0.449608	0.414026	-1.218675	1.814042	0.600903	-0.366699	-0.173828	-0.823242	0.883054	0.085895	-0.350436	0.300055
28549		6.392880	-0.095256	-0.098755	-1.056151	1.637838	0.512773	-0.332520	-0.160156	-0.827148	0.887178	0.072492	-0.341321	0.301929
28550		5.532990	-0.384226	-0.329587	-0.796383	1.439816	0.384158	-0.309570	-0.154297	-0.844971	0.890690	0.061856	-0.332870	0.303385
28551		4.486563	-0.021452	-0.409376	-0.556694	1.206301	0.242379	-0.294434	-0.146240	-0.842529	0.893644	0.053973	-0.325432	0.304273
28552		3.719230	-0.021909	-0.567386	-0.372452	0.975724	0.134524	-0.281738	-0.144043	-0.844482	0.896071	0.048335	-0.319171	0.304713
28553		3.004809	0.002014	-0.525704	-0.138684	0.772787	0.024488	-0.268555	-0.133545	-0.858398	0.898091	0.045249	-0.313777	0.304844
28554		2.515690	0.227830	-0.353526	0.075150	0.551900	-0.075905	-0.250488	-0.145020	-0.848877	0.899678	0.044587	-0.309452	0.304682
28555		2.051744	1.186873	-0.258231	0.145225	0.325661	-0.128082	-0.244629	-0.148438	-0.855469	0.900774	0.045160	-0.306626	0.304214
28556		2.030170	1.216311	-0.122940	0.059126	0.134973	-0.124684	-0.245605	-0.147705	-0.843994	0.901403	0.045565	-0.305454	0.303471
28557		1.902783	0.608883	0.374069	0.077876	-0.022057	-0.145364	-0.239502	-0.152832	-0.842529	0.901676	0.046563	-0.305409	0.302551
28558		2.099854	0.997883	0.935690	0.169467	-0.180419	-0.163630	-0.251953	-0.156250	-0.851074	0.901554	0.048697	-0.306319	0.301659
28559		2.376615	0.910625	1.422231	0.166273	-0.352982	-0.139949	-0.250732	-0.152588	-0.849365	0.900925	0.051184	-0.308542	0.300859
28560		3.027452	0.248051	1.391175	0.216555	-0.500818	-0.131684	-0.267578	-0.161865	-0.845459	0.899860	0.054399	-0.311749	0.300176
28561		3.495325	-0.116740	1.799404	0.306072	-0.610839	-0.148571	-0.274902	-0.169678	-0.851318	0.898485	0.058604	-0.315546	0.299536
28562		3.852397	-0.009673	2.186355	0.406534	-0.745962	-0.174732	-0.283447	-0.170654	-0.840332	0.896731	0.063967	-0.320081	0.298882
28563		4.258882	0.287003	2.439484	0.463591	-0.880718	-0.178509	-0.290283	-0.173584	-0.829834	0.894540	0.070098	-0.325464	0.298257
28564		4.769771	0.171717	2.714490	0.521610	-1.009572	-0.168566	-0.316895	-0.183105	-0.840820	0.891867	0.076952	-0.331648	0.297759
28565		5.376196	0.429508	3.108214	0.607753	-1.104869	-0.171869	-0.330811	-0.184570	-0.817627	0.888792	0.084684	-0.338296	0.297378
28566		5.822065	0.225675	3.375351	0.670197	-1.199332	-0.180754	-0.348389	-0.196777	-0.818115	0.885317	0.093130	-0.345447	0.296998
28567		6.718538	-0.492476	3.559707	0.851549	-1.268253	-0.234932	-0.372070	-0.203369	-0.811035	0.881502	0.103226	-0.352569	0.296638
28568		7.173018	0.007872	3.756234	1.050471	-1.346242	-0.311107	-0.387695	-0.221436	-0.812256	0.877306	0.115181	-0.359650	0.296176
28569		7.511432	0.314365	3.917568	1.134153	-1.435437	-0.353391	-0.410889	-0.231689	-0.787354	0.872662	0.128074	-0.367062	0.295506
28570		7.866543	0.587677	4.113404	1.144491	-1.511653	-0.371664	-0.430664	-0.237305	-0.777100	0.867600	0.141248	-0.374899	0.294568
28571		8.254503	0.392375	4.145610	1.204455	-1.544931	-0.369053	-0.459717	-0.268555	-0.762939	0.862120	0.154892	-0.382740	0.293714
28572		8.472326	0.654466	4.478558	1.341326	-1.567333	-0.352208	-0.484131	-0.287354	-0.747070	0.856084	0.169497	-0.390326	0.293321
28573		8.895880	0.840622	4.208559	1.515206	-1.595383	-0.328406	-0.493164	-0.301758	-0.711670	0.849369	0.185279	-0.397600	0.293526
28574		9.251822	0.973527	4.258681	1.548363	-1.669569	-0.310001	-0.527344	-0.324463	-0.698242	0.842017	0.201324	-0.405215	0.293730
28575		9.690343	1.750094	3.836054	1.463767	-1.751952	-0.263398	-0.550293	-0.329834	-0.684814	0.834082	0.216775	-0.413554	0.293750
28576		10.017640	1.851464	3.849871	1.262415	-1.830807	-0.188316	-0.570557	-0.352051	-0.657227	0.825785	0.230601	-0.422942	0.293295
28577		10.214697	1.454878	4.196100	1.175998	-1.844479	-0.135413	-0.600586	-0.357910	-0.637695	0.817175	0.243647	-0.432588	0.292795
28578		10.695913	0.789915	4.229798	1.327333	-1.810956	-0.126569	-0.619385	-0.379395	-0.610596	0.808077	0.257474	-0.441542	0.292848
28579		10.662660	1.722221	4.642518	1.548315	-1.796624	-0.135988	-0.645752	-0.394531	-0.583008	0.798268	0.272732	-0.449653	0.293594
28580		10.953473	2.992792	4.886094	1.481631	-1.783263	-0.089454	-0.655029	-0.407227	-0.550781	0.788233	0.287224	-0.457784	0.294322
28581		11.474688	2.206253	4.472149	1.284355	-1.781742	-0.034320	-0.672607	-0.416748	-0.520996	0.778264	0.300100	-0.466348	0.294558
28582		11.689911	1.590347	4.170923	1.285034	-1.749171	-0.039462	-0.699707	-0.420410	-0.495850	0.768168	0.312815	-0.474537	0.294752
28583		11.688173	1.732610	4.034360	1.395585	-1.691654	-0.071330	-0.715576	-0.425781	-0.470215	0.757841	0.326095	-0.481848	0.295231
28584		11.586200	2.754805	4.262026	1.449038	-1.637904	-0.082893	-0.726807	-0.438477	-0.440186	0.747369	0.339492	-0.488495	0.295900
28585		11.614535	3.449973	4.844640	1.258847	-1.586638	-0.061313	-0.739502	-0.450684	-0.410400	0.737357	0.351387	-0.495197	0.295992
28586		11.742913	2.873742	4.764558	1.107150	-1.510263	-0.049377	-0.755371	-0.454102	-0.375000	0.727875	0.362028	-0.501697	0.295691
28587		11.908260	2.005735	4.355183	1.115297	-1.469205	-0.084114	-0.762939	-0.464844	-0.353271	0.718443	0.372689	-0.507690	0.295286
28588		12.022685	1.791821	3.812333	1.218139	-1.395423	-0.129231	-0.776367	-0.479248	-0.322998	0.708947	0.383876	-0.512719	0.295216
28589		11.709655	2.557934	3.327724	1.264206	-1.322041	-0.128726	-0.773926	-0.470947	-0.298584	0.699441	0.395074	-0.517070	0.295529
28590		11.515255	2.456613	3.220048	1.256998	-1.229689	-0.092987	-0.783203	-0.478516	-0.280273	0.690126	0.405734	-0.520898	0.296261
28591		11.414062	2.207246	3.104797	1.450304	-1.127809	-0.057945	-0.790771	-0.486084	-0.246094	0.680370	0.416996	-0.523658	0.298319
28592		11.132452	2.550097	3.241725	1.743053	-1.027245	-0.027608	-0.793213	-0.502197	-0.222900	0.669776	0.429442	-0.525076	0.302117
28593		10.845398	3.695717	2.978138	1.873824	-0.998879	0.066819	-0.794922	-0.501953	-0.197510	0.658405	0.442005	-0.526178	0.307036
28594		10.880213	3.867780	2.318087	1.770405	-0.972261	0.199685	-0.808594	-0.499512	-0.164795	0.647006	0.453208	-0.527722	0.312243
28595		10.642792	4.086501	2.057479	1.553702	-0.926378	0.308062	-0.811768	-0.499512	-0.144775	0.636178	0.462537	-0.529842	0.317183
28596		10.691160	4.019451	1.739410	1.250405	-0.883783	0.403407	-0.815430	-0.503906	-0.120361	0.626336	0.469623	-0.532790	0.321392
28597		10.877822	3.285165	1.761271	0.999927	-0.835475	0.433041	-0.820801	-0.490234	-0.100098	0.617513	0.475080	-0.536181	0.324789
28598		11.093520	2.961045	1.935257	0.852211	-0.770754	0.396064	-0.825928	-0.493896	-0.083496	0.609597	0.479709	-0.539421	0.327560
28599		11.029760	2.854076	2.163546	0.705710	-0.721418	0.326114	-0.825928	-0.492920	-0.073730	0.602627	0.483735	-0.542473	0.329491
28600		10.931090	2.470995	1.945265	0.611863	-0.669031	0.240615	-0.826904	-0.489990	-0.055176	0.596474	0.487491	-0.545131	0.330761
28601		10.772655	2.177022	1.751215	0.581444	-0.618993	0.141738	-0.828125	-0.485107	-0.047852	0.590909	0.491390	-0.547181	0.331595
28602		10.587800	2.176967	1.517396	0.611906	-0.543027	0.039822	-0.826904	-0.489990	-0.026611	0.585830	0.495658	-0.548324	0.332366
28603		10.443770	2.464161	1.502362	0.612462	-0.472468	-0.029011	-0.825928	-0.484863	-0.013916	0.581226	0.500046	-0.548801	0.333089
28604		10.332838	2.859769	1.261107	0.563527	-0.422821	-0.065378	-0.833008	-0.482910	-0.014404	0.577135	0.504207	-0.548994	0.333611
28605		10.298339	3.128390	1.129283	0.427787	-0.367434	-0.054619	-0.825195	-0.493652	-0.005127	0.573839	0.507478	-0.549327	0.333788
28606		10.278332	3.135228	0.990265	0.259294	-0.316814	-0.027550	-0.827393	-0.490723	0.007812	0.571402	0.509678	-0.549985	0.333533
28607		10.240147	3.089585	1.074206	0.080911	-0.264985	0.004444	-0.831299	-0.485840	0.019043	0.569862	0.510745	-0.551015	0.332836
28608		10.207553	3.131056	1.050903	-0.090779	-0.211458	0.047817	-0.833740	-0.481445	0.008789	0.569172	0.510658	-0.552440	0.331787
28609		10.237949	2.768824	0.961817	-0.227872	-0.148108	0.097105	-0.825684	-0.484863	0.001465	0.569237	0.509493	-0.554152	0.330609
28610		10.213720	2.378275	0.826006	-0.282363	-0.085383	0.114303	-0.830811	-0.482910	0.006836	0.569780	0.507805	-0.555787	0.329524
28611		10.175737	2.059400	0.668644	-0.293274	-0.027243	0.112275	-0.841309	-0.489014	-0.000732	0.570635	0.505921	-0.557156	0.328628
28612		10.114338	1.748257	0.390754	-0.277944	0.022342	0.095283	-0.831055	-0.481445	0.005615	0.571708	0.504039	-0.558173	0.327930
28613		10.020093	1.522162	0.234279	-0.230918	0.072660	0.059189	-0.834473	-0.479736	-0.001709	0.572900	0.502426	-0.558660	0.327494
28614		9.792698	1.881678	0.120043	-0.148975	0.113812	0.019710	-0.838379	-0.489990	-0.001709	0.574055	0.501263	-0.558561	0.327424
28615		9.627665	2.358585	-0.040094	-0.108893	0.141832	0.023372	-0.833496	-0.480469	-0.001709	0.575155	0.500205	-0.558230	0.327675
28616		9.774669	2.131024	-0.324751	-0.086907	0.163859	0.036567	-0.831299	-0.477295	-0.007080	0.576228	0.499133	-0.557784	0.328184
28617		9.858326	1.850429	-0.559660	-0.043293	0.192714	0.026195	-0.840332	-0.480469	-0.002441	0.577283	0.498233	-0.557037	0.328965
28618		9.845111	1.910743	-0.490015	0.010773	0.213240	-0.003622	-0.833252	-0.474609	-0.017090	0.578279	0.497688	-0.555914	0.329939
28619		9.744119	2.346341	-0.224916	0.019278	0.215331	-0.026043	-0.837158	-0.478516	-0.016357	0.579326	0.497256	-0.554668	0.330848
28620		9.803397	3.039977	0.183000	-0.048288	0.215349	-0.017083	-0.833984	-0.478760	-0.024902	0.580621	0.496463	-0.553642	0.331488
28621		9.948907	3.184958	0.486895	-0.137377	0.225107	0.017929	-0.831299	-0.480225	-0.027588	0.582238	0.495038	-0.552959	0.331922
28622		10.415109	3.747312	1.301944	-0.204513	0.268540	0.040336	-0.837402	-0.477783	-0.030518	0.584265	0.493067	-0.552335	0.332333
28623		10.505249	3.642915	1.738668	-0.241684	0.376697	0.048070	-0.833984	-0.482666	-0.034424	0.586914	0.490577	-0.551308	0.333055
28624		10.723842	3.993156	3.033231	-0.275935	0.462237	0.055872	-0.836670	-0.468506	-0.049072	0.590061	0.487647	-0.549973	0.334003
28625		11.394785	4.038322	3.656475	-0.334968	0.570258	0.015412	-0.837646	-0.478516	-0.057617	0.594058	0.484279	-0.548087	0.334917
28626		11.706230	4.227588	4.099807	-0.421969	0.703356	-0.064902	-0.836914	-0.480469	-0.064453	0.599213	0.480464	-0.545431	0.335565
28627		12.194434	4.027986	4.394519	-0.575839	0.832933	-0.159310	-0.830322	-0.482422	-0.076904	0.605796	0.475930	-0.542134	0.335549
28628		12.697225	3.556185	4.574525	-0.716197	0.979836	-0.316697	-0.819092	-0.475342	-0.101074	0.613980	0.470952	-0.537803	0.334665
28629		12.794739	3.957290	4.850112	-0.862905	1.146347	-0.476348	-0.824951	-0.481934	-0.132080	0.623867	0.465384	-0.532326	0.332923
28630		13.005895	4.148613	4.977133	-1.064164	1.317698	-0.609146	-0.810791	-0.491699	-0.155029	0.635566	0.458758	-0.525896	0.330199
28631		13.215302	4.371219	4.955021	-1.284163	1.484733	-0.701506	-0.807373	-0.500244	-0.187256	0.648919	0.450795	-0.518686	0.326577
28632		12.902485	4.731567	5.150380	-1.559729	1.610755	-0.758913	-0.796143	-0.504150	-0.213867	0.663790	0.441073	-0.511146	0.321819
28633		13.018162	4.687574	4.733710	-1.882178	1.658318	-0.726711	-0.788574	-0.507568	-0.253418	0.679659	0.429129	-0.504094	0.315914
28634		13.504130	3.864397	4.354624	-2.170899	1.736088	-0.680957	-0.765869	-0.504395	-0.296143	0.696416	0.414909	-0.497261	0.309170
28635		13.651947	3.640634	4.767012	-2.430998	1.825313	-0.601516	-0.760254	-0.494629	-0.339600	0.713814	0.398336	-0.490551	0.301923
28636		13.666679	3.250321	4.753142	-2.587410	1.920854	-0.454227	-0.739746	-0.491943	-0.382812	0.731250	0.379683	-0.483814	0.295023
28637		13.597668	1.721798	4.760848	-2.557739	1.994482	-0.296089	-0.714844	-0.473633	-0.421875	0.747941	0.360129	-0.476697	0.289225
28638		13.252148	1.413333	5.211536	-2.296162	2.065402	-0.138019	-0.694336	-0.469971	-0.464111	0.763210	0.341148	-0.468653	0.285470
28639		13.131906	2.809266	4.998971	-2.162727	2.122094	0.107054	-0.678955	-0.449219	-0.511963	0.777217	0.321742	-0.460311	0.283777
28640		12.900015	2.164967	4.801061	-2.186915	2.172426	0.387791	-0.657227	-0.422852	-0.542969	0.790325	0.300706	-0.452162	0.283746
28641		12.770768	1.386266	4.243859	-2.045993	2.220970	0.614152	-0.645020	-0.404053	-0.584473	0.802160	0.279460	-0.443650	0.285685
28642		12.656085	1.331282	4.072386	-1.902620	2.261074	0.765148	-0.608887	-0.380127	-0.620361	0.812914	0.258370	-0.434573	0.289071
28643		12.230189	1.459722	3.943879	-1.877133	2.275874	0.878734	-0.593018	-0.350830	-0.653076	0.822897	0.236844	-0.425222	0.293141
28644		11.837943	0.588160	3.838146	-1.843676	2.267479	0.930469	-0.560303	-0.323242	-0.680908	0.832077	0.215231	-0.415721	0.297488
28645		11.737056	-0.426458	3.852849	-1.642637	2.264438	0.895813	-0.535400	-0.304932	-0.718018	0.840456	0.195031	-0.405376	0.302104
28646		11.327059	-0.423015	3.964133	-1.343794	2.255363	0.802393	-0.508301	-0.289062	-0.729980	0.848094	0.177182	-0.393900	0.306898
28647		10.877154	-0.436354	4.035945	-1.130051	2.231683	0.689714	-0.474609	-0.271240	-0.754639	0.855104	0.161251	-0.381825	0.311456
28648		10.367048	-0.503548	3.882076	-0.938831	2.205006	0.570393	-0.438965	-0.259277	-0.780273	0.861697	0.146981	-0.369162	0.315585
28649		9.659695	-0.417749	3.719766	-0.786603	2.156074	0.463238	-0.410889	-0.250488	-0.786133	0.867893	0.134171	-0.356191	0.319198
28650		8.895947	0.179541	3.609163	-0.688745	2.106708	0.383156	-0.380371	-0.247070	-0.797363	0.873728	0.122379	-0.343108	0.322335
28651		8.225825	0.294394	3.281480	-0.660789	2.050777	0.350268	-0.337891	-0.237305	-0.813477	0.879162	0.110990	-0.330216	0.325134
28652		7.603671	-0.136337	2.773189	-0.631716	1.986539	0.314177	-0.308838	-0.230713	-0.828369	0.884208	0.100052	-0.317586	0.327574
28653		6.913085	-0.486055	2.273906	-0.547264	1.899228	0.265016	-0.281494	-0.217041	-0.831787	0.888827	0.090073	-0.305244	0.329696
28654		5.963918	0.032647	1.699991	-0.476815	1.773851	0.218067	-0.248779	-0.218018	-0.834229	0.892974	0.081057	-0.293532	0.331460
28655		5.032357	0.259731	1.230937	-0.461678	1.612935	0.210647	-0.230957	-0.209961	-0.846924	0.896543	0.072598	-0.282916	0.333014
28656		3.989563	0.807225	0.571972	-0.429517	1.434343	0.218856	-0.205322	-0.214355	-0.851318	0.899489	0.064843	-0.273505	0.334528
28657		3.232690	0.691227	0.115838	-0.366958	1.259919	0.231257	-0.185791	-0.203857	-0.851318	0.901844	0.058008	-0.265203	0.336126
28658		2.397928	0.292300	-0.240861	-0.240435	1.050458	0.198868	-0.167969	-0.206543	-0.846191	0.903673	0.052778	-0.258082	0.337615
28659		1.812519	0.592061	-0.547392	-0.119821	0.801259	0.138226	-0.156494	-0.201416	-0.855225	0.905025	0.049286	-0.252459	0.338769
28660		1.196534	0.982964	-0.707385	-0.098431	0.545993	0.076017	-0.147217	-0.203369	-0.856934	0.905978	0.046806	-0.248670	0.339376
28661		0.601704	1.187034	-0.752523	-0.086091	0.308414	0.032226	-0.147461	-0.196289	-0.847412	0.906546	0.045184	-0.246622	0.339575
28662		0.334056	1.096428	-0.528662	-0.061238	0.065292	-0.002089	-0.146729	-0.197998	-0.852051	0.906699	0.044510	-0.246328	0.339468
28663		0.663936	1.082765	-0.379445	-0.002688	-0.176528	-0.035206	-0.151855	-0.193848	-0.845215	0.906428	0.045033	-0.247683	0.339137
28664		1.124387	0.729439	0.190725	0.038581	-0.367129	-0.075673	-0.144043	-0.194580	-0.846191	0.905858	0.046491	-0.250346	0.338507
28665		1.441352	0.765684	0.681749	0.133323	-0.544706	-0.125495	-0.154785	-0.193359	-0.844238	0.905007	0.049271	-0.254060	0.337621
28666		1.884851	0.737119	1.164763	0.201554	-0.716379	-0.159202	-0.170166	-0.203857	-0.844727	0.903832	0.053120	-0.258856	0.336541
28667		2.484143	0.431380	1.570654	0.300442	-0.877929	-0.190344	-0.182373	-0.210693	-0.845215	0.902306	0.058234	-0.264567	0.335346
28668		3.290902	0.391227	1.813272	0.436387	-1.018701	-0.210482	-0.190430	-0.213623	-0.848389	0.900392	0.064805	-0.270929	0.334203
28669		3.752832	0.448498	2.241206	0.552135	-1.145495	-0.223812	-0.217041	-0.218262	-0.837158	0.898075	0.072623	-0.277889	0.333113
28670		4.235296	0.383997	2.724942	0.628403	-1.287425	-0.223274	-0.242188	-0.229004	-0.834961	0.895265	0.081397	-0.285667	0.332070
28671		5.073265	0.321913	3.060657	0.692436	-1.423576	-0.223356	-0.260498	-0.226318	-0.831543	0.891941	0.091013	-0.294242	0.331027
28672		5.587644	0.661858	3.484209	0.725364	-1.557530	-0.219110	-0.275391	-0.239746	-0.820312	0.888080	0.101218	-0.303673	0.329926
28673		6.356915	0.695436	3.764251	0.706514	-1.667140	-0.179969	-0.309082	-0.243652	-0.814453	0.883655	0.111464	-0.313939	0.328896
28674		7.371052	0.139105	3.871482	0.801959	-1.722360	-0.161237	-0.337402	-0.267822	-0.798096	0.878730	0.122490	-0.324297	0.328116
28675		8.004030	-0.032636	4.163589	0.993379	-1.782502	-0.195925	-0.368896	-0.270752	-0.800049	0.873302	0.135143	-0.334457	0.327443
28676		8.338474	0.124535	4.269866	1.086987	-1.877125	-0.229551	-0.394043	-0.289062	-0.778076	0.867321	0.148787	-0.344916	0.326573
28677		8.715744	0.739816	4.083143	1.078306	-1.966861	-0.244684	-0.423828	-0.295654	-0.757568	0.860834	0.162604	-0.355919	0.325341
28678		9.111271	0.768793	4.387705	1.059907	-2.004281	-0.237637	-0.460938	-0.305176	-0.745605	0.853931	0.176311	-0.367130	0.323932
28679		9.422008	1.360440	4.628386	1.126836	-2.035673	-0.201490	-0.478271	-0.320068	-0.719727	0.846388	0.190455	-0.378311	0.322853
28680		10.086154	0.911835	4.693582	1.220346	-2.075943	-0.159156	-0.514160	-0.333008	-0.701416	0.838149	0.205106	-0.389447	0.322132
28681		10.602365	0.326566	4.631238	1.365036	-2.101468	-0.164702	-0.533691	-0.348877	-0.674805	0.829212	0.220808	-0.400209	0.321689
28682		10.763591	1.193310	5.017867	1.339617	-2.126344	-0.137304	-0.568359	-0.356445	-0.658447	0.819804	0.236197	-0.411088	0.321153
28683		11.383708	1.380521	4.853503	1.255122	-2.097521	-0.060067	-0.591309	-0.368408	-0.624512	0.810122	0.250498	-0.421996	0.320737
28684		11.447769	1.000388	5.163204	1.281343	-2.064326	-0.019277	-0.627441	-0.376709	-0.603760	0.800041	0.264662	-0.432526	0.320639
28685		11.803282	1.138236	5.341530	1.431637	-2.011234	-0.032586	-0.647705	-0.388428	-0.569580	0.789532	0.279596	-0.442090	0.320970
28686		11.956879	1.764811	5.041303	1.398384	-2.017406	-0.043615	-0.663086	-0.393555	-0.532715	0.778768	0.294260	-0.451566	0.320967
28687		12.456165	1.886620	5.339137	1.161074	-2.003900	-0.045892	-0.690430	-0.408203	-0.510010	0.768335	0.307231	-0.461404	0.319964
28688		12.932824	1.699898	5.076556	0.981660	-1.950788	-0.047086	-0.704834	-0.423828	-0.479004	0.758296	0.318802	-0.471214	0.318292
28689		12.772214	1.480357	5.408386	0.968502	-1.859658	-0.064045	-0.721191	-0.424072	-0.453613	0.748440	0.330029	-0.480285	0.316615
28690		12.631981	2.052342	5.376229	1.118165	-1.749324	-0.055137	-0.733154	-0.430664	-0.422363	0.738373	0.341736	-0.488151	0.315802
28691		12.250262	2.417719	5.304390	1.212079	-1.635144	-0.045808	-0.747070	-0.428711	-0.396729	0.728259	0.353583	-0.494944	0.315673
28692		11.969342	2.311063	5.114508	1.191628	-1.562854	-0.030255	-0.755615	-0.438965	-0.371826	0.718270	0.364930	-0.501255	0.315686
28693		12.283846	1.610535	4.490193	1.295888	-1.445400	-0.079786	-0.780762	-0.449707	-0.343506	0.708398	0.376699	-0.506298	0.316121
28694		12.304594	1.528896	4.154996	1.525116	-1.352240	-0.185443	-0.777100	-0.449951	-0.313232	0.698276	0.389925	-0.509709	0.317122
28695		11.625202	2.150557	3.705280	1.688965	-1.289390	-0.264210	-0.780518	-0.470459	-0.279297	0.687890	0.404144	-0.511903	0.318480
28696		11.024907	3.701761	3.390739	1.642652	-1.273410	-0.262776	-0.794678	-0.479980	-0.254639	0.677501	0.417942	-0.513967	0.319616
28697		11.006788	3.352792	2.792060	1.446675	-1.220592	-0.194820	-0.792725	-0.489990	-0.227539	0.667660	0.430078	-0.516342	0.320397
28698		10.776165	2.678078	3.145889	1.444007	-1.127770	-0.174073	-0.797363	-0.490967	-0.187256	0.658012	0.441759	-0.518150	0.321544
28699		10.500146	3.030201	3.277120	1.520737	-1.047935	-0.165747	-0.804932	-0.502686	-0.182861	0.648236	0.453529	-0.519212	0.323298
28700		10.725745	3.474638	3.176382	1.490442	-0.983777	-0.128490	-0.805908	-0.509521	-0.151855	0.638630	0.464659	-0.520027	0.325294
28701		11.207246	3.381118	2.627117	1.380271	-0.910850	-0.093622	-0.802002	-0.504883	-0.131348	0.629537	0.474772	-0.520769	0.327223
28702		11.349390	3.535012	2.236237	1.215439	-0.837237	-0.060969	-0.810791	-0.507568	-0.107422	0.621228	0.483589	-0.521608	0.328850
28703		11.279167	3.615797	2.010136	0.996987	-0.778561	-0.019141	-0.809570	-0.518555	-0.084961	0.613859	0.490876	-0.522833	0.329945
28704		11.003388	3.415987	1.940463	0.755290	-0.732293	0.019761	-0.808350	-0.504395	-0.070312	0.607511	0.496596	-0.524588	0.330349
28705		10.547558	3.714381	2.065353	0.551766	-0.683848	0.059012	-0.812256	-0.508789	-0.063721	0.602078	0.500942	-0.526779	0.330248
28706		10.355384	3.800223	1.910956	0.356846	-0.635609	0.126708	-0.813721	-0.513672	-0.042725	0.597466	0.503848	-0.529518	0.329820
28707		10.432253	3.146727	1.596806	0.248217	-0.575168	0.196877	-0.812988	-0.511475	-0.040527	0.593355	0.505742	-0.532522	0.329509
28708		10.542983	3.073627	1.645521	0.203807	-0.505521	0.224615	-0.817627	-0.511230	-0.029297	0.589658	0.507077	-0.535402	0.329426
28709		10.334067	3.281368	1.558446	0.094495	-0.446488	0.255991	-0.816406	-0.500977	-0.022461	0.586586	0.507568	-0.538406	0.329257
28710		10.209752	3.192741	1.599439	-0.013535	-0.381443	0.295828	-0.819336	-0.506592	-0.014160	0.584146	0.507165	-0.541542	0.329072
28711		10.342140	2.549121	1.400761	-0.028173	-0.300102	0.301490	-0.819336	-0.497803	-0.006836	0.582108	0.506446	-0.544331	0.329191
28712		10.438113	1.935083	1.268784	0.019785	-0.225596	0.261943	-0.821777	-0.490234	-0.018555	0.580305	0.505934	-0.546449	0.329652
28713		10.499762	1.921983	1.194678	0.081274	-0.156748	0.190951	-0.823730	-0.491699	-0.003174	0.578769	0.505824	-0.547763	0.330340
28714		10.435923	2.025486	0.897811	0.070391	-0.110990	0.112131	-0.817627	-0.490723	-0.008789	0.577687	0.505916	-0.548543	0.330797
28715		10.388822	1.987120	0.734168	0.005881	-0.072385	0.048240	-0.830811	-0.479492	-0.005127	0.577239	0.505872	-0.549045	0.330814
28716		10.378824	2.210296	0.479134	-0.054457	-0.044315	-0.008333	-0.822510	-0.484863	-0.012695	0.577333	0.505716	-0.549335	0.330409
28717		10.160528	2.300339	0.423380	-0.128081	-0.014593	-0.042675	-0.822510	-0.489990	-0.003174	0.577975	0.505270	-0.549541	0.329625
28718		9.990993	2.372450	0.381875	-0.159449	0.017463	-0.055030	-0.824951	-0.496826	-0.006104	0.578914	0.504662	-0.549620	0.328774
28719		9.857671	2.536137	0.497121	-0.180647	0.058124	-0.050972	-0.829346	-0.489258	-0.006348	0.580119	0.503820	-0.549575	0.328017
28720		9.940069	2.511721	0.525688	-0.169160	0.108541	-0.033390	-0.823730	-0.480957	-0.018555	0.581458	0.502813	-0.549324	0.327611
28721		9.937533	2.465719	0.785437	-0.123758	0.159127	-0.023249	-0.818604	-0.491211	-0.016357	0.582823	0.501820	-0.548747	0.327675
28722		10.024230	2.743669	0.871799	-0.067627	0.215423	-0.010994	-0.833984	-0.489502	-0.022705	0.584166	0.500903	-0.547788	0.328289
28723		10.120549	3.303779	1.254485	-0.093463	0.257374	0.020679	-0.828857	-0.481689	-0.018311	0.585728	0.499589	-0.546823	0.329117
28724		10.344352	3.526317	1.499258	-0.169922	0.305359	0.060418	-0.830322	-0.489014	-0.033691	0.587704	0.497601	-0.545989	0.329990
28725		10.837868	3.729433	1.958378	-0.193772	0.408870	0.076852	-0.825928	-0.485107	-0.040771	0.590212	0.495113	-0.544774	0.331261
28726		11.071340	3.708442	2.673203	-0.229749	0.529846	0.052273	-0.822266	-0.479736	-0.039795	0.593475	0.492217	-0.542948	0.332743
28727		11.067208	4.077678	3.354440	-0.283581	0.619338	0.035927	-0.819092	-0.476318	-0.056152	0.597380	0.488887	-0.540735	0.334264
28728		11.345937	4.793708	4.269250	-0.427599	0.699692	0.001464	-0.822510	-0.485596	-0.076172	0.602319	0.484736	-0.538357	0.335283
28729		11.987648	4.473922	4.108721	-0.588897	0.801835	-0.042839	-0.817871	-0.487305	-0.082764	0.608469	0.479646	-0.535701	0.335751
28730		12.507053	3.919140	4.221260	-0.672508	0.983649	-0.169172	-0.822510	-0.480225	-0.103027	0.616053	0.474167	-0.531797	0.335912
28731		12.805759	3.928273	4.653021	-0.746467	1.183209	-0.327580	-0.817383	-0.481201	-0.128662	0.625193	0.468376	-0.526376	0.335688
28732		12.822007	4.331288	4.892048	-0.835380	1.358583	-0.488265	-0.813477	-0.498779	-0.158203	0.635805	0.462237	-0.519569	0.334871
28733		12.977686	4.727696	4.984903	-1.036096	1.497319	-0.615674	-0.798828	-0.501953	-0.183594	0.648009	0.455079	-0.511977	0.332967
28734		13.101121	5.115510	5.074137	-1.336603	1.619344	-0.689071	-0.791504	-0.505615	-0.210205	0.661881	0.446135	-0.504122	0.329753
28735		12.891647	5.127102	4.950164	-1.687986	1.678161	-0.711176	-0.779297	-0.508545	-0.236572	0.677100	0.435024	-0.496626	0.325042
28736		13.293885	4.526645	4.534390	-2.002957	1.738738	-0.685204	-0.765137	-0.513184	-0.284912	0.693291	0.421691	-0.489493	0.319250
28737		13.431769	3.858572	4.541537	-2.271851	1.838423	-0.644880	-0.744141	-0.503906	-0.330811	0.710349	0.406090	-0.482366	0.312758
28738		13.402760	2.904304	4.821897	-2.451880	1.926625	-0.570048	-0.720703	-0.496338	-0.364990	0.727723	0.388577	-0.475128	0.306072
28739		13.353023	2.926221	4.944616	-2.445655	2.009918	-0.456800	-0.718750	-0.482178	-0.407959	0.744571	0.370204	-0.467401	0.300165
28740		13.439061	2.836831	4.843466	-2.351502	2.105859	-0.285943	-0.689697	-0.473389	-0.454346	0.760541	0.351240	-0.459045	0.295780
28741		13.210173	2.342435	5.163788	-2.210386	2.184797	-0.105626	-0.668213	-0.457520	-0.498047	0.775438	0.332027	-0.450055	0.293094
28742		13.394673	2.111554	5.180697	-2.035779	2.234593	0.065688	-0.649170	-0.448242	-0.543945	0.789111	0.312937	-0.440504	0.292112
28743		13.318894	1.781901	4.865731	-2.000535	2.246930	0.194255	-0.624023	-0.427490	-0.577637	0.801922	0.293382	-0.430835	0.291942
28744		12.884737	1.471512	4.449055	-2.078939	2.249059	0.300933	-0.591797	-0.410645	-0.619629	0.814128	0.272739	-0.421341	0.292028
28745		12.589859	1.638827	4.508764	-2.173915	2.287719	0.378348	-0.574219	-0.382812	-0.640625	0.825972	0.250904	-0.411651	0.292166
28746		12.026000	1.625380	4.482525	-2.256183	2.264932	0.437522	-0.534668	-0.365967	-0.679932	0.837070	0.228260	-0.402255	0.292235
28747		11.868757	0.298081	4.103419	-2.174423	2.271653	0.462622	-0.519775	-0.334961	-0.709473	0.847429	0.205971	-0.392242	0.292551
28748		11.308665	-0.690141	4.343373	-1.916331	2.274764	0.424090	-0.484375	-0.312012	-0.739258	0.856825	0.185475	-0.381368	0.293273
28749		10.793615	-0.521161	4.162210	-1.558753	2.269742	0.384046	-0.450684	-0.284912	-0.755127	0.865264	0.167548	-0.369341	0.294675
28750		10.016035	-0.196598	3.832788	-1.257875	2.257410	0.382812	-0.414062	-0.270020	-0.777588	0.872796	0.151697	-0.356538	0.296811
28751		9.291238	0.031652	3.387120	-1.011355	2.231211	0.407026	-0.379639	-0.257812	-0.798096	0.879493	0.137531	-0.343195	0.299658
28752		8.450798	0.257113	2.531934	-0.821405	2.191579	0.441878	-0.348389	-0.257812	-0.811768	0.885406	0.124696	-0.329580	0.303124
28753		7.517432	0.540746	1.832616	-0.740286	2.105157	0.472161	-0.316650	-0.235596	-0.821777	0.890584	0.112544	-0.316314	0.306822
28754		6.497453	0.696420	1.075247	-0.741613	1.971573	0.512442	-0.286865	-0.229980	-0.831299	0.895000	0.100578	-0.303981	0.310572
28755		5.529897	0.655244	0.398787	-0.745954	1.809227	0.533997	-0.255371	-0.221436	-0.831299	0.898678	0.088914	-0.292802	0.314229
28756		4.604374	0.437210	-0.128402	-0.718895	1.606831	0.531354	-0.232422	-0.211426	-0.841309	0.901614	0.077965	-0.282998	0.317688
28757		3.654358	0.557953	-0.435033	-0.643296	1.382319	0.505333	-0.207520	-0.205078	-0.847900	0.903854	0.068225	-0.274611	0.320909
28758		2.681452	0.787553	-0.845098	-0.556194	1.142225	0.466066	-0.191406	-0.191162	-0.848633	0.905461	0.059862	-0.267741	0.323838
28759		1.881259	0.905405	-1.053948	-0.479690	0.875557	0.419402	-0.180664	-0.195312	-0.856445	0.906468	0.052896	-0.262630	0.326411
28760		1.354465	0.895800	-1.160542	-0.340921	0.652369	0.358934	-0.165527	-0.189697	-0.854492	0.907032	0.047715	-0.258786	0.328704
28761		1.028264	0.843395	-1.204973	-0.144116	0.417949	0.273515	-0.164795	-0.193604	-0.856201	0.907217	0.044848	-0.256136	0.330666
28762		0.901567	0.879531	-0.883031	0.018652	0.185678	0.174043	-0.149414	-0.185303	-0.857178	0.907111	0.044065	-0.254755	0.332127
28763		1.037269	1.435771	-0.874480	0.058542	-0.060599	0.097829	-0.157471	-0.188721	-0.844971	0.906676	0.044428	-0.255099	0.333001
28764		1.372670	1.142408	-0.732673	0.056777	-0.252358	0.023323	-0.162598	-0.187988	-0.851318	0.906040	0.045470	-0.256869	0.333230
28765		1.649518	0.895478	-0.043188	0.140064	-0.450752	-0.094194	-0.179443	-0.189941	-0.850586	0.905266	0.047945	-0.259861	0.332667
28766		2.058530	1.469059	0.534872	0.158040	-0.675821	-0.185614	-0.178711	-0.186768	-0.857910	0.904229	0.051379	-0.264459	0.331349
28767		2.940217	1.034579	0.684983	0.118745	-0.887664	-0.245257	-0.194092	-0.197021	-0.857422	0.902864	0.055233	-0.270726	0.329382
28768		3.782008	-0.327150	1.269671	0.239020	-1.034135	-0.342670	-0.212646	-0.193848	-0.846924	0.901317	0.060612	-0.277703	0.326856
28769		4.094075	0.135557	1.929883	0.485939	-1.162360	-0.447450	-0.235596	-0.198975	-0.848145	0.899539	0.068432	-0.284893	0.324012
28770		4.339133	1.031782	2.441236	0.587565	-1.309425	-0.475844	-0.248535	-0.210449	-0.840576	0.897303	0.077470	-0.292858	0.321061
28771		4.914663	1.003206	2.722077	0.606427	-1.442240	-0.471730	-0.268311	-0.214844	-0.827881	0.894566	0.086983	-0.301721	0.318040
28772		5.783682	0.568541	2.904700	0.667827	-1.559528	-0.474277	-0.294434	-0.227783	-0.835938	0.891318	0.097256	-0.311237	0.314999
28773		6.667445	0.387178	3.298878	0.833246	-1.652121	-0.480150	-0.324707	-0.233887	-0.816406	0.887502	0.108994	-0.320933	0.312189
28774		7.278344	0.675417	3.526981	0.983913	-1.735375	-0.471832	-0.338623	-0.243652	-0.801758	0.883062	0.122011	-0.330779	0.309677
28775		7.857818	0.317121	3.850208	1.134626	-1.778799	-0.464594	-0.367676	-0.261963	-0.792969	0.878057	0.136193	-0.340468	0.307487
28776		8.306407	0.320853	4.194938	1.295066	-1.844118	-0.486449	-0.400879	-0.274902	-0.774414	0.872435	0.151730	-0.350086	0.305408
28777		8.618042	1.588305	3.976749	1.344056	-1.943114	-0.458824	-0.428467	-0.293457	-0.761963	0.866054	0.167736	-0.360206	0.303426
28778		9.433516	1.675861	4.058168	1.242967	-1.997641	-0.398650	-0.456055	-0.312988	-0.743408	0.859146	0.182911	-0.370922	0.301378
28779		9.857517	1.420363	4.307190	1.183931	-2.022822	-0.371466	-0.480469	-0.328369	-0.723877	0.851838	0.197578	-0.381868	0.299184
28780		10.104384	0.889628	4.424388	1.313648	-2.050044	-0.400387	-0.520752	-0.339600	-0.695801	0.843960	0.213230	-0.392488	0.297015
28781		10.361640	1.504100	4.642515	1.444615	-2.121564	-0.440377	-0.546143	-0.363281	-0.674072	0.835317	0.230024	-0.403067	0.294740
28782		11.140329	2.255252	4.584779	1.374979	-2.159858	-0.393759	-0.570557	-0.378906	-0.644043	0.826176	0.246168	-0.413968	0.292343
28783		11.421190	2.211189	4.799021	1.250209	-2.137993	-0.316500	-0.593018	-0.393799	-0.615479	0.816803	0.261014	-0.425007	0.289955
28784		11.505736	2.319521	5.128129	1.272541	-2.103482	-0.246568	-0.615234	-0.395752	-0.595459	0.806983	0.275564	-0.435727	0.288071
28785		11.763844	2.559603	5.015975	1.301708	-2.071549	-0.184553	-0.646484	-0.415527	-0.556152	0.796756	0.289815	-0.446128	0.286631
28786		12.453917	2.430041	5.079768	1.279282	-2.000568	-0.166589	-0.666504	-0.425049	-0.532959	0.786449	0.303625	-0.455970	0.285310
28787		12.976329	1.776878	5.062162	1.261231	-1.930635	-0.216364	-0.681641	-0.441162	-0.503906	0.776283	0.317189	-0.465097	0.283655
28788		12.836935	2.124439	5.072746	1.314166	-1.880521	-0.315755	-0.700928	-0.447021	-0.471924	0.766112	0.331244	-0.473341	0.281597
28789		12.713488	2.791200	4.723812	1.240203	-1.861224	-0.360341	-0.710693	-0.453369	-0.442627	0.756050	0.344824	-0.481340	0.278921
28790		12.207103	3.238185	4.879624	1.135154	-1.768575	-0.345932	-0.730225	-0.465820	-0.400391	0.746380	0.357335	-0.488879	0.276091
28791		11.901497	3.666326	5.178672	1.052696	-1.669478	-0.287057	-0.746094	-0.471680	-0.382080	0.736983	0.368794	-0.496017	0.273521
28792		11.969991	3.323076	5.102957	1.073560	-1.554131	-0.218777	-0.757568	-0.486816	-0.353027	0.727663	0.379712	-0.502474	0.271745
28793		12.190403	2.814841	4.704943	1.217552	-1.441680	-0.187542	-0.765381	-0.492920	-0.320068	0.718099	0.391034	-0.507890	0.271061
28794		12.364601	2.502421	4.295721	1.421662	-1.294182	-0.193987	-0.764160	-0.496338	-0.298828	0.708322	0.403179	-0.511807	0.271625
28795		12.157049	2.240691	3.853683	1.644608	-1.172405	-0.228877	-0.762939	-0.513184	-0.274170	0.698212	0.416384	-0.514239	0.273281
28796		11.477211	3.040794	3.608810	1.793708	-1.098430	-0.257720	-0.777344	-0.522949	-0.245361	0.687761	0.430286	-0.515644	0.275591
28797		10.588635	5.399263	3.504141	1.616463	-1.101782	-0.182075	-0.767090	-0.528564	-0.205322	0.677560	0.442729	-0.517590	0.277495
28798		10.480261	5.520702	2.718968	1.166671	-1.116342	-0.004765	-0.781250	-0.532959	-0.181885	0.668385	0.451825	-0.521189	0.278349
28799		10.633762	4.448944	2.416066	0.805592	-1.095903	0.133161	-0.787598	-0.535645	-0.166748	0.660237	0.458193	-0.525943	0.278441
28800		10.778440	3.728550	2.532456	0.574479	-1.034440	0.217236	-0.784912	-0.525391	-0.152100	0.652978	0.462719	-0.531152	0.278190
28801		10.997820	3.174219	2.942543	0.460431	-0.920497	0.283194	-0.792725	-0.530273	-0.132568	0.646458	0.466018	-0.536206	0.278213
28802		11.024887	2.417300	3.286746	0.498828	-0.808767	0.293230	-0.802002	-0.530029	-0.114014	0.640213	0.469196	-0.540561	0.278884
28803		10.958807	1.912340	3.243837	0.705068	-0.700761	0.277425	-0.805420	-0.529053	-0.106689	0.633638	0.473268	-0.543751	0.280812
28804		10.786474	2.421650	2.955310	0.853484	-0.618673	0.239707	-0.800781	-0.522705	-0.083496	0.626898	0.478056	-0.545962	0.283526
28805		10.853678	2.749077	2.372996	0.818697	-0.546873	0.228731	-0.807373	-0.519043	-0.070312	0.620597	0.482518	-0.547786	0.286298
28806		10.800160	2.626141	1.726852	0.726665	-0.479003	0.205284	-0.807617	-0.520264	-0.052002	0.614997	0.486417	-0.549342	0.288791
28807		10.603794	2.744611	1.369607	0.613166	-0.414666	0.181928	-0.816162	-0.524414	-0.050293	0.610173	0.489675	-0.550714	0.290897
28808		10.450071	2.984792	1.116629	0.464517	-0.359406	0.162002	-0.809082	-0.516602	-0.042725	0.606247	0.492107	-0.552064	0.292439
28809		10.313781	3.159906	1.122147	0.258195	-0.309530	0.161863	-0.823730	-0.512207	-0.036133	0.603389	0.493365	-0.553649	0.293234
28810		10.256025	2.991986	0.959837	0.062637	-0.271351	0.166910	-0.819580	-0.517578	-0.032715	0.601496	0.493515	-0.555530	0.293311
28811		10.258015	2.593512	0.659549	-0.046064	-0.233358	0.166281	-0.817383	-0.509277	-0.019043	0.600223	0.493032	-0.557477	0.293037
28812		10.167241	2.264277	0.497433	-0.092324	-0.189336	0.147368	-0.823242	-0.508301	-0.027588	0.599378	0.492312	-0.559231	0.292635
28813		10.094218	2.151323	0.185588	-0.122645	-0.154984	0.115165	-0.827148	-0.512451	-0.018066	0.598905	0.491488	-0.560753	0.292075
28814		9.896538	2.160075	-0.074874	-0.210742	-0.141402	0.094587	-0.821289	-0.517822	-0.026611	0.598895	0.490301	-0.562331	0.291056
28815		9.811238	2.143752	-0.394641	-0.343934	-0.140673	0.082946	-0.826660	-0.501465	-0.015869	0.599461	0.488490	-0.564179	0.289354
28816		9.773604	2.035938	-0.625904	-0.483901	-0.154246	0.077503	-0.826660	-0.505371	-0.026123	0.600532	0.486042	-0.566398	0.286912
28817		9.752993	1.939841	-0.731378	-0.556357	-0.151280	0.092972	-0.825439	-0.508057	-0.032715	0.601867	0.483130	-0.568828	0.284211
28818		9.768865	1.715662	-0.618889	-0.515088	-0.128607	0.102086	-0.824707	-0.497314	-0.029541	0.603110	0.480314	-0.571073	0.281836
28819		9.861566	1.448916	-0.382613	-0.362654	-0.104166	0.099147	-0.830811	-0.500244	-0.033691	0.603854	0.478219	-0.572815	0.280267
28820		9.784180	1.613328	-0.149481	-0.141645	-0.064339	0.097735	-0.824951	-0.502930	-0.036621	0.603909	0.477142	-0.573832	0.279904
28821		9.615073	1.767802	-0.027338	0.101295	-0.015059	0.097952	-0.827148	-0.489014	-0.027832	0.603231	0.477171	-0.574034	0.280900
28822		9.620970	2.023848	0.064686	0.319435	0.018779	0.117056	-0.830811	-0.500732	-0.029053	0.601798	0.478130	-0.573624	0.283173
28823		9.614241	2.423382	0.214369	0.463917	0.060045	0.140564	-0.829590	-0.493896	-0.038574	0.599923	0.479599	-0.572752	0.286414
28824		9.846559	3.406144	0.530232	0.468817	0.102963	0.189441	-0.822754	-0.484863	-0.022705	0.598122	0.480723	-0.571841	0.290091
28825		10.286414	4.197214	1.088380	0.268273	0.172469	0.243282	-0.832520	-0.490234	-0.027100	0.597303	0.480442	-0.571268	0.293355
28826		10.298856	4.267671	1.531776	0.001414	0.262733	0.303502	-0.834717	-0.478027	-0.034424	0.597833	0.478316	-0.571130	0.296007
28827		10.637274	4.070902	2.446605	-0.203282	0.347078	0.346248	-0.835938	-0.480225	-0.037109	0.599474	0.474741	-0.571235	0.298234
28828		11.154127	3.891480	3.138616	-0.343673	0.448600	0.327643	-0.840332	-0.462402	-0.044678	0.602178	0.470302	-0.571087	0.300094
28829		11.468027	3.946300	4.052088	-0.416762	0.585153	0.267820	-0.838623	-0.468750	-0.052246	0.605953	0.465418	-0.570174	0.301842
28830		11.997384	3.678206	4.766779	-0.499889	0.714134	0.181170	-0.837158	-0.465820	-0.076172	0.610844	0.460193	-0.568448	0.303246
28831		12.604785	3.423561	5.236032	-0.543460	0.894845	0.033729	-0.831055	-0.466553	-0.081543	0.617106	0.454937	-0.565304	0.304375
28832		12.757046	3.576988	5.589855	-0.549426	1.093095	-0.137949	-0.835205	-0.464111	-0.112061	0.624688	0.449940	-0.560442	0.305326
28833		13.145825	3.362309	5.662473	-0.545238	1.302529	-0.311247	-0.835449	-0.459473	-0.123535	0.633618	0.445149	-0.553751	0.306154
28834		13.403331	3.904592	5.651784	-0.586385	1.499028	-0.480159	-0.822754	-0.470703	-0.160645	0.643921	0.440355	-0.545395	0.306590
28835		13.276974	4.453181	5.550242	-0.799274	1.689400	-0.611081	-0.821533	-0.477539	-0.185303	0.656077	0.434387	-0.535951	0.305987
28836		13.467571	4.840100	5.264769	-1.258675	1.749390	-0.658863	-0.806885	-0.488281	-0.215820	0.670074	0.425837	-0.527003	0.303203
28837		13.985473	4.343449	4.817300	-1.722879	1.837763	-0.677042	-0.798340	-0.479248	-0.257080	0.685863	0.414388	-0.518450	0.298470
28838		14.051518	3.955213	4.818659	-2.135672	1.928671	-0.657019	-0.773193	-0.484375	-0.296875	0.703070	0.399998	-0.510191	0.292232
28839		14.085972	3.042990	4.996006	-2.362092	2.025737	-0.588719	-0.767334	-0.478516	-0.344482	0.720804	0.383506	-0.501816	0.285562
28840		13.995909	2.333689	4.928060	-2.328557	2.130828	-0.487838	-0.741455	-0.475098	-0.386963	0.738128	0.366244	-0.492701	0.279783
28841		13.924731	2.193559	5.092852	-2.130136	2.252258	-0.373845	-0.722412	-0.462402	-0.429932	0.754550	0.349211	-0.482388	0.275695
28842		13.680170	2.597087	5.097396	-1.991428	2.328341	-0.195549	-0.697998	-0.449463	-0.477051	0.769958	0.331907	-0.471480	0.273329
28843		13.611870	2.414510	4.690623	-1.940780	2.394636	0.024336	-0.682373	-0.443848	-0.515137	0.784492	0.313649	-0.460333	0.272563
28844		13.456985	2.127624	4.401340	-1.873731	2.442882	0.238223	-0.650391	-0.424561	-0.555176	0.797981	0.294774	-0.448977	0.273413
28845		13.220976	2.164610	3.970650	-1.845709	2.466283	0.433238	-0.625977	-0.407959	-0.601807	0.810515	0.275089	-0.437578	0.275530
28846		12.975959	1.623857	3.576775	-1.892752	2.483072	0.596838	-0.603760	-0.379883	-0.631592	0.822303	0.254246	-0.426224	0.278407
28847		12.706844	1.086119	3.391670	-1.861411	2.495221	0.691199	-0.570557	-0.359131	-0.671387	0.833215	0.233097	-0.414674	0.281895
28848		12.157427	0.599544	3.175785	-1.760585	2.498038	0.712889	-0.538330	-0.335449	-0.698730	0.843343	0.212421	-0.402544	0.285672
28849		11.748140	-0.079412	3.449109	-1.610300	2.460044	0.668544	-0.507812	-0.314453	-0.725586	0.852600	0.192941	-0.389988	0.289408
28850		11.126617	0.253508	3.295973	-1.382707	2.405382	0.587044	-0.474609	-0.302734	-0.751221	0.860974	0.175380	-0.376933	0.293066
28851		10.558993	0.425116	3.187013	-1.220946	2.354538	0.507119	-0.442139	-0.286133	-0.772705	0.868649	0.159271	-0.363586	0.296457
28852		9.853045	0.279282	2.947105	-1.039279	2.289429	0.428500	-0.403809	-0.261230	-0.783447	0.875652	0.144780	-0.350021	0.299596
28853		9.070454	0.427307	2.506682	-0.909255	2.186225	0.366827	-0.373535	-0.252197	-0.797607	0.882011	0.131536	-0.336672	0.302337
28854		8.238280	0.852761	2.019831	-0.835033	2.089023	0.339804	-0.336426	-0.246338	-0.812012	0.887747	0.119105	-0.323701	0.304855
28855		7.178347	0.979288	1.363003	-0.820929	1.975111	0.336537	-0.306885	-0.240479	-0.829102	0.892866	0.107034	-0.311431	0.307156
28856		6.347210	0.462613	0.651939	-0.777930	1.840233	0.341361	-0.283447	-0.237305	-0.831787	0.897311	0.095582	-0.299971	0.309378
28857		5.316720	0.131979	0.242848	-0.660006	1.680902	0.311677	-0.249512	-0.211426	-0.840332	0.901107	0.085470	-0.289304	0.311454
28858		4.187324	0.653133	-0.099205	-0.543696	1.475199	0.306775	-0.226074	-0.213867	-0.851562	0.904152	0.076760	-0.279823	0.313553
28859		3.174960	0.816349	-0.354159	-0.402732	1.292571	0.320724	-0.206543	-0.216064	-0.847656	0.906504	0.069545	-0.271320	0.315911
28860		2.303225	0.475058	-0.302949	-0.126433	1.127178	0.320738	-0.187744	-0.198975	-0.846924	0.908218	0.064844	-0.263312	0.318752
28861		1.791981	0.608792	-0.487780	0.282324	0.956380	0.278089	-0.176514	-0.212646	-0.853760	0.909372	0.063779	-0.255467	0.322042
28862		1.385006	1.082441	-0.710119	0.564191	0.743820	0.214081	-0.160400	-0.218262	-0.843262	0.910035	0.065553	-0.248427	0.325305
28863		1.019604	1.629437	-1.270185	0.607268	0.490205	0.161271	-0.157227	-0.227295	-0.838867	0.910244	0.068448	-0.243153	0.328096
28864		0.839035	2.503930	-1.551188	0.400409	0.184269	0.118262	-0.156006	-0.232666	-0.838135	0.910045	0.070697	-0.240735	0.329950
28865		0.745833	2.447282	-1.487663	0.076229	-0.131600	0.087411	-0.162354	-0.234375	-0.843750	0.909482	0.071420	-0.241586	0.330722
28866		1.153222	1.966836	-0.720886	-0.189185	-0.428227	0.029927	-0.160889	-0.231445	-0.850342	0.908634	0.071068	-0.245381	0.330337
28867		1.792684	1.172417	-0.097339	-0.296240	-0.673156	-0.052127	-0.169678	-0.225342	-0.845947	0.907551	0.070747	-0.251273	0.328950
28868		2.764875	-0.324105	0.635143	-0.134104	-0.836781	-0.182928	-0.189697	-0.226562	-0.848389	0.906349	0.072374	-0.257871	0.326797
28869		3.180744	-0.426328	1.349494	0.217478	-0.970407	-0.341055	-0.203125	-0.222168	-0.840820	0.905021	0.077356	-0.264411	0.324100
28870		3.408028	0.436713	1.886054	0.523282	-1.107352	-0.422551	-0.217529	-0.231445	-0.834473	0.903326	0.085186	-0.271083	0.321340
28871		3.858275	1.241768	2.019334	0.665953	-1.251332	-0.406437	-0.234863	-0.230225	-0.828369	0.901042	0.094429	-0.278435	0.318874
28872		4.280502	1.329980	2.308858	0.651217	-1.396930	-0.343817	-0.266846	-0.250732	-0.832520	0.898120	0.103790	-0.286926	0.316672
28873		4.965610	1.416893	2.587096	0.618790	-1.544800	-0.279189	-0.282227	-0.259521	-0.817139	0.894537	0.113126	-0.296615	0.314683
28874		5.982088	1.530073	3.010878	0.548076	-1.681173	-0.210279	-0.309326	-0.266357	-0.815674	0.890316	0.122100	-0.307514	0.312832
28875		7.188840	0.883394	3.312129	0.520322	-1.809757	-0.183233	-0.335449	-0.267822	-0.809326	0.885516	0.131106	-0.319399	0.310897
28876		8.178902	0.220800	3.495838	0.622748	-1.914385	-0.217762	-0.370605	-0.273438	-0.801758	0.880179	0.141195	-0.331673	0.308776
28877		8.519638	0.782277	4.272872	0.793322	-1.956997	-0.258385	-0.395752	-0.281250	-0.773682	0.874345	0.152749	-0.343680	0.306714
28878		8.648793	1.303459	4.675496	0.976505	-1.976187	-0.264793	-0.420166	-0.293945	-0.761963	0.867969	0.165620	-0.355242	0.304964
28879		9.190115	0.746615	4.693460	1.219279	-2.013559	-0.274801	-0.457520	-0.307373	-0.740479	0.860854	0.180310	-0.366320	0.303692
28880		9.999209	1.296564	4.480101	1.400873	-2.078571	-0.274375	-0.489746	-0.326904	-0.722168	0.852884	0.196433	-0.377258	0.302784
28881		10.408611	1.900198	4.517654	1.322697	-2.138869	-0.250610	-0.515137	-0.329834	-0.700195	0.844413	0.211992	-0.388700	0.301561
28882		11.092410	1.343990	4.406883	1.161294	-2.184108	-0.194667	-0.543457	-0.357666	-0.687500	0.835601	0.226182	-0.400810	0.299941
28883		11.153748	1.165367	4.875211	1.210039	-2.137885	-0.188713	-0.579590	-0.365723	-0.652832	0.826480	0.240501	-0.412301	0.298494
28884		11.225561	1.548426	5.099826	1.332732	-2.101744	-0.173884	-0.600098	-0.377197	-0.627930	0.816822	0.255427	-0.423128	0.297526
28885		11.525127	2.182824	5.542231	1.375382	-2.074666	-0.181733	-0.624756	-0.387939	-0.595947	0.806853	0.270462	-0.433457	0.296568
28886		11.692644	2.634766	5.469461	1.178590	-2.105798	-0.168985	-0.651123	-0.404053	-0.566406	0.796843	0.284088	-0.444333	0.294794
28887		12.502547	1.675634	4.836335	0.989948	-2.068091	-0.139503	-0.659668	-0.413086	-0.531738	0.787031	0.296163	-0.455317	0.292501
28888		12.396033	0.645187	5.566242	1.088254	-1.970305	-0.196401	-0.699219	-0.417969	-0.511963	0.777197	0.308755	-0.465117	0.290347
28889		11.905348	2.795660	5.788208	1.202149	-1.898914	-0.181093	-0.704102	-0.425049	-0.470215	0.767045	0.321712	-0.474055	0.288818
28890		12.495609	3.518878	5.091705	1.071029	-1.810765	-0.078963	-0.729492	-0.435547	-0.445557	0.757083	0.333124	-0.482860	0.287575
28891		12.818362	2.494750	4.715277	0.947925	-1.723801	-0.037660	-0.742676	-0.442139	-0.422607	0.747497	0.343284	-0.491385	0.286260
28892		12.593397	2.150682	5.034062	0.962923	-1.639585	-0.069969	-0.755859	-0.445557	-0.398193	0.738099	0.353368	-0.499129	0.284977
28893		12.322690	2.094390	5.106255	1.008107	-1.565302	-0.108956	-0.756104	-0.457031	-0.372314	0.728791	0.363616	-0.506068	0.283799
28894		12.250782	1.544459	5.190751	1.079130	-1.460813	-0.168071	-0.778809	-0.466309	-0.341797	0.719675	0.374214	-0.511902	0.282821
28895		11.909579	2.024003	5.034699	1.205621	-1.344379	-0.210398	-0.775391	-0.469482	-0.309082	0.710589	0.385402	-0.516483	0.282444
28896		11.898570	2.609696	4.004112	1.277746	-1.249963	-0.197217	-0.785889	-0.487793	-0.283447	0.701483	0.396655	-0.520253	0.282707
28897		11.751914	2.756215	3.805985	1.273917	-1.156530	-0.162110	-0.795410	-0.487061	-0.255615	0.692556	0.407437	-0.523485	0.283417
28898		11.598382	2.909582	3.397340	1.268734	-1.059599	-0.120097	-0.797119	-0.490479	-0.245117	0.683836	0.417693	-0.526202	0.284629
28899		11.069455	2.740726	3.637198	1.287568	-0.961240	-0.104908	-0.794922	-0.492920	-0.217285	0.675334	0.427655	-0.528265	0.286307
28900		10.715935	3.065779	3.228975	1.292727	-0.918539	-0.070760	-0.802490	-0.505371	-0.192871	0.666798	0.437325	-0.530097	0.288312
28901		10.917243	2.749822	2.630547	1.283486	-0.847016	-0.035446	-0.796143	-0.502686	-0.172607	0.658412	0.446552	-0.531586	0.290691
28902		11.029226	2.457700	2.019474	1.280502	-0.786053	-0.036241	-0.804688	-0.507568	-0.141846	0.650208	0.455542	-0.532655	0.293240
28903		10.850127	2.722219	1.907402	1.200643	-0.748625	-0.020073	-0.801025	-0.520752	-0.125244	0.642330	0.463884	-0.533692	0.295628
28904		10.249286	3.201121	2.030184	1.044168	-0.721110	0.025519	-0.814697	-0.518066	-0.104492	0.634987	0.471063	-0.535073	0.297637
28905		10.010668	3.601450	1.982074	0.839990	-0.687139	0.105952	-0.808350	-0.511475	-0.096924	0.628338	0.476674	-0.537038	0.299273
28906		10.142324	3.091404	1.814675	0.711152	-0.624462	0.189542	-0.818359	-0.517090	-0.080811	0.622237	0.481032	-0.539284	0.301001
28907		10.505552	2.766294	1.560725	0.678216	-0.525526	0.244277	-0.814453	-0.512695	-0.068604	0.616537	0.484702	-0.541282	0.303249
28908		10.483234	2.628765	1.491141	0.654264	-0.432386	0.267612	-0.821045	-0.509033	-0.051758	0.611265	0.487886	-0.542923	0.305873
28909		10.433234	2.519738	1.521179	0.586243	-0.361399	0.285887	-0.815186	-0.509277	-0.046875	0.606513	0.490446	-0.544420	0.308563
28910		10.426520	2.223142	1.381579	0.543597	-0.299725	0.286747	-0.822754	-0.500244	-0.042969	0.602196	0.492609	-0.545696	0.311308
28911		10.402173	2.048351	1.254787	0.570953	-0.252153	0.246366	-0.822021	-0.497559	-0.034180	0.598076	0.494945	-0.546474	0.314167
28912		10.208277	2.139369	1.020038	0.611310	-0.216782	0.200448	-0.826904	-0.502930	-0.024902	0.594051	0.497586	-0.546759	0.317122
28913		10.157919	2.552037	0.789528	0.575005	-0.189658	0.164748	-0.827637	-0.500977	-0.012451	0.590376	0.500128	-0.546837	0.319839
28914		10.187106	2.537142	0.472755	0.452854	-0.166066	0.132267	-0.830811	-0.488525	0.000977	0.587385	0.502154	-0.546972	0.321935
28915		10.212667	2.524477	0.251931	0.353035	-0.134894	0.087361	-0.833252	-0.498047	-0.010742	0.585062	0.503812	-0.547022	0.323484
28916		10.132447	2.751596	0.174067	0.247387	-0.118828	0.037128	-0.830078	-0.490967	-0.005371	0.583403	0.505116	-0.547065	0.324372
28917		10.045330	2.962066	0.146285	0.082242	-0.101857	0.004971	-0.834717	-0.486572	0.000244	0.582602	0.505720	-0.547332	0.324424
28918		9.949404	2.887686	0.028979	-0.095280	-0.082662	-0.018550	-0.830322	-0.492188	-0.009033	0.582697	0.505520	-0.547882	0.323634
28919		9.878149	2.569446	-0.138623	-0.185268	-0.061184	-0.039875	-0.832031	-0.497559	-0.002930	0.583335	0.504910	-0.548481	0.322419
28920		9.836204	2.309493	-0.219250	-0.179440	-0.040224	-0.062722	-0.830078	-0.491455	-0.002197	0.584096	0.504388	-0.548863	0.321206
28921		9.810132	2.299202	-0.203095	-0.121226	-0.019730	-0.082767	-0.826660	-0.499512	0.003418	0.584759	0.504186	-0.548902	0.320250
28922		9.788842	2.459509	-0.122262	-0.060227	0.013760	-0.097998	-0.823486	-0.502686	-0.003418	0.585349	0.504274	-0.548549	0.319638
28923		9.714689	2.257790	-0.057253	-0.007918	0.036670	-0.101546	-0.825928	-0.499512	-0.010254	0.585839	0.504564	-0.547930	0.319343
28924		9.762339	2.375020	-0.005147	0.073353	0.057090	-0.108438	-0.824951	-0.494141	-0.013916	0.586108	0.505216	-0.546965	0.319474
28925		9.776009	2.685097	0.033265	0.112499	0.078243	-0.101898	-0.825195	-0.504639	-0.006836	0.586295	0.505964	-0.545819	0.319906
28926		9.885017	2.777210	0.261317	0.097960	0.120002	-0.084812	-0.820312	-0.505127	-0.002197	0.586678	0.506466	-0.544575	0.320529
28927		9.921784	3.177791	0.673910	0.031062	0.154666	-0.071431	-0.822266	-0.508545	-0.012695	0.587457	0.506496	-0.543393	0.321061
28928		10.262958	3.890239	1.338620	-0.127530	0.202232	-0.042526	-0.825439	-0.504639	-0.012939	0.589052	0.505478	-0.542522	0.321217
28929		10.796267	4.713422	1.984357	-0.410586	0.270594	0.000111	-0.824707	-0.499268	-0.013916	0.592025	0.502693	-0.542241	0.320593
28930		10.922232	4.470365	2.807461	-0.675297	0.403113	0.053823	-0.830811	-0.498047	-0.033691	0.596541	0.498000	-0.542217	0.319587
28931		11.206835	3.760574	3.796059	-0.787540	0.519721	0.096376	-0.825195	-0.503174	-0.043701	0.601916	0.492206	-0.542055	0.318759
28932		11.758204	3.240596	4.647649	-0.718193	0.652234	0.056874	-0.821777	-0.498291	-0.064941	0.607665	0.486564	-0.540840	0.318576
28933		12.314582	2.975895	4.712857	-0.635707	0.845980	-0.030731	-0.826660	-0.495117	-0.074707	0.614152	0.481172	-0.538023	0.319095
28934		12.798576	3.137602	5.413245	-0.638678	1.081276	-0.169565	-0.828613	-0.497559	-0.089844	0.622009	0.475725	-0.533392	0.319818
28935		12.767647	3.551897	5.337914	-0.718959	1.323220	-0.302523	-0.818848	-0.506592	-0.111572	0.631522	0.469749	-0.527110	0.320423
28936		12.441355	3.638838	5.585857	-0.844575	1.452663	-0.419477	-0.809082	-0.507324	-0.149414	0.642283	0.463200	-0.519918	0.320317
28937		12.823243	4.378303	5.107685	-1.038848	1.502462	-0.490693	-0.803223	-0.507324	-0.178955	0.654075	0.455645	-0.512580	0.319117
28938		13.180782	4.668168	4.464185	-1.426493	1.604247	-0.513261	-0.803467	-0.511963	-0.208008	0.667644	0.445654	-0.505478	0.316442
28939		13.358367	3.796274	4.431964	-1.758633	1.727673	-0.521469	-0.776123	-0.513916	-0.236328	0.682717	0.433359	-0.498333	0.312666
28940		13.233998	3.244436	4.557400	-1.845188	1.830430	-0.544861	-0.777588	-0.518555	-0.281006	0.698249	0.420227	-0.490515	0.308629
28941		13.458504	3.425617	4.520652	-1.857366	1.916388	-0.540409	-0.746094	-0.510986	-0.332031	0.713815	0.406557	-0.481999	0.304723
28942		13.416270	3.565394	4.635218	-1.934595	1.999550	-0.505052	-0.739014	-0.501465	-0.368896	0.729538	0.391788	-0.473054	0.300825
28943		13.384801	3.218463	4.535408	-1.975532	2.089337	-0.420896	-0.718262	-0.493164	-0.404785	0.745107	0.375989	-0.463673	0.297414
28944		13.373076	2.715041	4.627362	-1.935122	2.150872	-0.334566	-0.694336	-0.487793	-0.447754	0.760118	0.359746	-0.453812	0.294716
28945		13.204641	2.453123	4.600532	-1.812876	2.186855	-0.237446	-0.679932	-0.482178	-0.485107	0.774221	0.343607	-0.443454	0.293025
28946		12.923998	2.978577	4.446838	-1.781285	2.207115	-0.096235	-0.647705	-0.465088	-0.525391	0.787502	0.326933	-0.433053	0.292268
28947		12.660868	3.043324	4.472552	-1.853831	2.235937	0.092594	-0.626709	-0.456299	-0.560791	0.800192	0.308804	-0.422904	0.292379
28948		12.323166	2.449094	4.335559	-1.854675	2.262678	0.273787	-0.598389	-0.429443	-0.603760	0.812036	0.289836	-0.412788	0.293594
28949		12.068264	1.712298	4.171584	-1.762847	2.263291	0.423943	-0.575195	-0.424805	-0.619629	0.822848	0.270715	-0.402562	0.295937
28950		12.024006	1.393260	4.150902	-1.662840	2.275968	0.537569	-0.544678	-0.400391	-0.663574	0.832622	0.251918	-0.392023	0.299325
28951		11.701519	1.828382	4.228912	-1.657018	2.270437	0.639502	-0.515869	-0.379883	-0.690430	0.841687	0.232596	-0.381467	0.303223
28952		11.312508	1.311868	4.103150	-1.685372	2.279037	0.723661	-0.489258	-0.353027	-0.717041	0.850096	0.212651	-0.370908	0.307478
28953		10.749879	0.168775	4.369643	-1.583896	2.259836	0.716572	-0.457764	-0.328857	-0.739990	0.857776	0.193342	-0.360052	0.311774
28954		10.314276	0.535141	4.392306	-1.372812	2.245833	0.661591	-0.430908	-0.305420	-0.765381	0.864748	0.175628	-0.348482	0.316111
28955		9.710584	0.670166	4.282189	-1.258780	2.222977	0.604288	-0.390137	-0.288818	-0.786621	0.871214	0.158854	-0.336532	0.320151
28956		9.312757	0.469107	3.902446	-1.144904	2.191551	0.538764	-0.356201	-0.276367	-0.794434	0.877223	0.143078	-0.324273	0.323813
28957		8.539301	0.563948	3.511377	-1.060047	2.136527	0.462015	-0.327637	-0.270996	-0.806641	0.882802	0.128231	-0.311966	0.326947
28958		8.005225	0.430940	2.928792	-1.003259	2.050339	0.399160	-0.301514	-0.252441	-0.822021	0.887921	0.114147	-0.299956	0.329534
28959		7.041780	0.433007	2.443901	-0.918879	1.946920	0.328882	-0.273193	-0.245605	-0.831299	0.892582	0.101105	-0.288316	0.331585
28960		6.048724	0.652598	1.840391	-0.840799	1.815395	0.286210	-0.237305	-0.225586	-0.837402	0.896706	0.089078	-0.277321	0.333282
28961		4.901669	0.804409	1.256150	-0.757181	1.652623	0.272800	-0.220703	-0.224854	-0.838379	0.900197	0.078135	-0.267234	0.334853
28962		4.071586	0.581704	0.674400	-0.631481	1.484198	0.265796	-0.190430	-0.222412	-0.842285	0.903063	0.068604	-0.258005	0.336459
28963		3.096644	0.257813	0.356798	-0.448611	1.303169	0.242950	-0.170654	-0.208008	-0.851807	0.905354	0.060995	-0.249576	0.338120
28964		2.102812	0.512324	0.149570	-0.238708	1.096270	0.204016	-0.156250	-0.202393	-0.848389	0.907118	0.055627	-0.242071	0.339772
28965		1.346798	1.361977	-0.354652	-0.123195	0.853377	0.190862	-0.139648	-0.207764	-0.841553	0.908310	0.051843	-0.236054	0.341414
28966		1.050788	1.704565	-0.765456	-0.109309	0.625980	0.190273	-0.124512	-0.212646	-0.845215	0.909014	0.048812	-0.231710	0.342959
28967		0.906618	1.312377	-0.825633	-0.164433	0.364204	0.169188	-0.126221	-0.215332	-0.855469	0.909278	0.046152	-0.229495	0.344116
28968		0.917941	1.130124	-0.904776	-0.171235	0.097352	0.105921	-0.120850	-0.209473	-0.852051	0.909209	0.044328	-0.229297	0.344669
28969		1.078443	1.255792	-0.500501	-0.198710	-0.163777	0.022177	-0.131836	-0.198975	-0.847412	0.908890	0.043208	-0.231125	0.344432
28970		1.292005	1.486797	-0.212598	-0.253408	-0.395907	-0.054685	-0.127930	-0.202393	-0.848389	0.908357	0.042489	-0.234840	0.343414
28971		1.820261	1.059691	0.453260	-0.214200	-0.562348	-0.130731	-0.145752	-0.187256	-0.851562	0.907684	0.042693	-0.239673	0.341824
28972		2.394110	0.212227	1.183948	-0.006127	-0.703110	-0.233040	-0.149902	-0.191406	-0.852783	0.906920	0.045077	-0.244935	0.339809
28973		2.910599	-0.399149	1.644948	0.302722	-0.858995	-0.353939	-0.169922	-0.204102	-0.847656	0.906019	0.050482	-0.250444	0.337431
28974		3.373477	-0.085564	1.942281	0.545402	-0.992827	-0.445709	-0.178223	-0.200684	-0.858398	0.904918	0.058282	-0.256224	0.334778
28975		3.687907	0.387624	2.366619	0.651779	-1.122100	-0.476879	-0.199219	-0.214111	-0.842773	0.903470	0.067307	-0.262639	0.332011
28976		3.883374	0.881955	2.894585	0.685928	-1.255549	-0.453232	-0.217041	-0.224609	-0.841064	0.901517	0.076897	-0.269943	0.329370
28977		4.505961	1.057900	3.248265	0.700274	-1.401154	-0.383767	-0.238037	-0.226318	-0.842529	0.898886	0.086826	-0.278303	0.327128
28978		5.460655	0.861460	3.717425	0.694284	-1.498778	-0.306980	-0.260010	-0.237305	-0.830566	0.895656	0.096784	-0.287418	0.325308
28979		6.510750	0.265312	4.004605	0.773056	-1.560353	-0.281798	-0.286621	-0.253418	-0.821777	0.891962	0.107416	-0.296743	0.323741
28980		6.701068	0.220772	4.543923	0.852653	-1.662044	-0.288752	-0.319580	-0.258789	-0.818115	0.887759	0.118907	-0.306539	0.322147
28981		7.288061	0.496413	4.184111	0.875166	-1.782630	-0.279051	-0.339844	-0.275879	-0.799316	0.882965	0.130832	-0.317101	0.320473
28982		7.926484	0.852535	4.497577	0.763788	-1.874618	-0.263043	-0.369873	-0.275391	-0.796143	0.877755	0.142102	-0.328569	0.318426
28983		8.788951	0.170061	4.336630	0.769453	-1.887193	-0.252479	-0.397705	-0.285889	-0.777100	0.872196	0.153418	-0.340035	0.316407
28984		8.961088	-0.098116	4.987289	0.999434	-1.913543	-0.318058	-0.427246	-0.292725	-0.756104	0.866193	0.166570	-0.350904	0.314374
28985		9.100662	1.191969	5.166023	1.151882	-2.004825	-0.350213	-0.457275	-0.316650	-0.741455	0.859486	0.181094	-0.361868	0.312313
28986		9.986521	1.485615	4.620781	1.042449	-2.079870	-0.314748	-0.483154	-0.325684	-0.726074	0.852254	0.194929	-0.373571	0.310016
28987		10.662673	0.172795	4.220942	0.964638	-2.098244	-0.322984	-0.505127	-0.329102	-0.708008	0.844809	0.208170	-0.385459	0.307220
28988		10.698498	0.119169	4.651234	1.239466	-2.049082	-0.398297	-0.538330	-0.345703	-0.683594	0.836934	0.223314	-0.396030	0.304683
28989		10.238072	2.595999	5.148040	1.360508	-2.081443	-0.379906	-0.559082	-0.368408	-0.657471	0.828309	0.239242	-0.406400	0.302501
28990		10.998086	2.014789	4.594214	1.273650	-2.080667	-0.299436	-0.592529	-0.378174	-0.627686	0.819298	0.254210	-0.416956	0.300460
28991		11.555018	1.353482	4.815092	1.261031	-2.064063	-0.290128	-0.618896	-0.383301	-0.595215	0.809996	0.268901	-0.427305	0.298344
28992		11.726465	1.665846	4.568621	1.360603	-2.043797	-0.282878	-0.632324	-0.399902	-0.566406	0.800195	0.284064	-0.437098	0.296549
28993		11.511265	2.489325	4.959662	1.383875	-2.036335	-0.245168	-0.657959	-0.418457	-0.542236	0.789936	0.299098	-0.446685	0.294980
28994		11.639858	3.184190	4.912654	1.228087	-1.989064	-0.145122	-0.684570	-0.433105	-0.515381	0.779678	0.312488	-0.456417	0.293491
28995		12.092545	2.280583	5.045452	1.107134	-1.901859	-0.082046	-0.694580	-0.439209	-0.480225	0.769629	0.324527	-0.465880	0.292077
28996		12.504295	1.496474	4.825111	1.218644	-1.826317	-0.108622	-0.715820	-0.444092	-0.453369	0.759373	0.337092	-0.474359	0.291040
28997		12.479405	2.211629	4.958364	1.299677	-1.760326	-0.144812	-0.735596	-0.452393	-0.409668	0.748991	0.350022	-0.481963	0.290189
28998		12.483663	2.826137	4.773369	1.195092	-1.704293	-0.138210	-0.740479	-0.454102	-0.382324	0.738866	0.362054	-0.489332	0.289047
28999		11.976568	3.124111	4.809600	1.010720	-1.646421	-0.104135	-0.752197	-0.473877	-0.365723	0.729253	0.372550	-0.496751	0.287463
29000		11.787038	3.027371	4.830018	0.890192	-1.565056	-0.064142	-0.770752	-0.474121	-0.337891	0.720081	0.381856	-0.503966	0.285811
29001		11.835041	2.637261	4.624752	1.020850	-1.429261	-0.067545	-0.777100	-0.481934	-0.302002	0.710913	0.391551	-0.509927	0.285070
29002		11.465513	3.034696	4.568594	1.212754	-1.318739	-0.083892	-0.787598	-0.482178	-0.282471	0.701461	0.402124	-0.514605	0.285360
29003		11.249852	3.748482	3.976561	1.290322	-1.287366	-0.063729	-0.787842	-0.487793	-0.246338	0.691688	0.412880	-0.518860	0.286151
29004		11.324489	4.025221	3.217686	1.209724	-1.260068	-0.019865	-0.800781	-0.503662	-0.231201	0.682044	0.422842	-0.523180	0.286886
29005		11.310436	3.650527	2.654693	1.037757	-1.207088	0.020283	-0.802002	-0.497314	-0.200684	0.673016	0.431434	-0.527646	0.287236
29006		11.409430	3.150450	2.348654	0.943611	-1.136176	0.035302	-0.809326	-0.503174	-0.183594	0.664491	0.439196	-0.531901	0.287472
29007		11.440098	2.773597	2.331720	0.885728	-1.080088	0.021255	-0.810791	-0.502686	-0.162354	0.656369	0.446497	-0.535854	0.287544
29008		11.292372	2.760219	2.315052	0.844424	-1.017564	0.015142	-0.808838	-0.502686	-0.141602	0.648612	0.453391	-0.539466	0.287601
29009		11.309428	2.624430	2.397135	0.824565	-0.926125	0.013310	-0.817139	-0.507568	-0.115234	0.641273	0.459918	-0.542558	0.287880
29010		10.908684	2.939802	2.530677	0.745301	-0.861819	0.019611	-0.812744	-0.508789	-0.106445	0.634444	0.465805	-0.545460	0.288062
29011		10.803641	3.154181	2.123019	0.571693	-0.812629	0.060392	-0.819092	-0.503174	-0.088135	0.628372	0.470426	-0.548628	0.287845
29012		10.990325	3.320975	1.740848	0.335939	-0.760799	0.115136	-0.823242	-0.511719	-0.075928	0.623294	0.473413	-0.552266	0.287032
29013		10.746203	3.431771	1.667487	0.036142	-0.702500	0.186534	-0.825195	-0.510986	-0.062744	0.619469	0.474359	-0.556570	0.285431
29014		10.471087	3.005965	1.573926	-0.193145	-0.632996	0.267546	-0.828857	-0.505859	-0.063477	0.616654	0.473572	-0.561355	0.283455
29015		10.380211	2.207629	1.620029	-0.239411	-0.529389	0.327174	-0.825195	-0.501953	-0.050537	0.614353	0.471999	-0.565931	0.281974
29016		10.253111	1.683756	1.874450	-0.139251	-0.426094	0.341775	-0.825928	-0.493408	-0.045898	0.612088	0.470629	-0.569777	0.281445
29017		10.332729	1.894206	1.887394	-0.014445	-0.347882	0.353811	-0.835693	-0.495850	-0.040283	0.609664	0.469647	-0.572962	0.281879
29018		10.615129	1.927607	1.494135	0.017878	-0.266106	0.359761	-0.835449	-0.489990	-0.033691	0.607480	0.468608	-0.575663	0.282820
29019		10.761876	1.269053	1.146841	0.018213	-0.189747	0.333223	-0.838623	-0.479248	-0.031738	0.605713	0.467518	-0.577860	0.283930
29020		10.658255	1.015602	0.810206	0.038219	-0.124848	0.264126	-0.848145	-0.472412	-0.027100	0.604342	0.466702	-0.579404	0.285045
29021		10.501200	1.152708	0.626556	0.021882	-0.084207	0.202892	-0.846924	-0.470703	-0.033691	0.603374	0.466002	-0.580537	0.285936
29022		10.445965	1.251300	0.407199	-0.014018	-0.055737	0.148013	-0.840332	-0.470215	-0.028809	0.602817	0.465309	-0.581396	0.286491
29023		10.411786	1.452010	0.208370	-0.067630	-0.031884	0.104651	-0.847656	-0.475342	-0.028809	0.602681	0.464510	-0.582091	0.286664
29024		10.409184	1.563615	-0.006932	-0.105755	-0.002671	0.074434	-0.846680	-0.467773	-0.038574	0.602904	0.463598	-0.582610	0.286616
29025		10.243700	1.508161	-0.050399	-0.102333	0.021640	0.055194	-0.844971	-0.468262	-0.029053	0.603288	0.462723	-0.582925	0.286583
29026		9.972450	1.548700	-0.054562	-0.065909	0.047543	0.044532	-0.845459	-0.464111	-0.039795	0.603671	0.462038	-0.582977	0.286776
29027		9.817423	1.773494	-0.136067	-0.017191	0.071278	0.045751	-0.843506	-0.453613	-0.038330	0.603989	0.461518	-0.582799	0.287305
29028		9.787756	1.772827	-0.065334	0.041279	0.099837	0.051639	-0.850830	-0.459717	-0.031982	0.604206	0.461196	-0.582357	0.288260
29029		9.859891	2.000511	0.003633	0.108793	0.121386	0.055872	-0.844971	-0.457764	-0.036377	0.604249	0.461154	-0.581657	0.289646
29030		10.087485	2.118121	0.210848	0.181311	0.132960	0.044969	-0.844971	-0.461914	-0.033203	0.604097	0.461497	-0.580679	0.291374
29031		10.164994	2.397289	0.609619	0.275313	0.170543	0.022439	-0.843018	-0.467285	-0.049805	0.603812	0.462337	-0.579192	0.293585
29032		10.347398	2.933407	0.926058	0.320627	0.260083	0.003358	-0.848633	-0.460693	-0.040283	0.603839	0.463252	-0.577066	0.296261
29033		10.413026	3.422780	1.715526	0.298537	0.365351	0.003309	-0.845703	-0.467529	-0.031738	0.604442	0.463803	-0.574450	0.299238
29034		10.463205	4.537254	2.960239	0.190561	0.464876	0.000463	-0.851562	-0.466309	-0.042480	0.605922	0.463591	-0.571576	0.302065
29035		10.723482	5.454340	3.884772	-0.060940	0.574458	0.037059	-0.844238	-0.460693	-0.062988	0.608799	0.461640	-0.568905	0.304301
29036		11.154335	5.067077	5.176817	-0.317614	0.733165	0.074568	-0.845703	-0.462402	-0.067871	0.613315	0.457774	-0.566199	0.306116
29037		11.872649	3.945473	6.287607	-0.390624	0.952027	0.049227	-0.842529	-0.462891	-0.088623	0.619161	0.453084	-0.562420	0.308284
29038		12.905845	2.701335	6.890474	-0.187057	1.306226	-0.079302	-0.845947	-0.463135	-0.107178	0.626172	0.449088	-0.555739	0.312063
29039		13.200559	2.353942	7.688617	0.040539	1.605549	-0.293325	-0.840820	-0.464111	-0.130371	0.634177	0.446423	-0.546004	0.316869
29040		13.507977	3.288629	7.132462	0.047531	1.745344	-0.440898	-0.823486	-0.475342	-0.152344	0.643054	0.443997	-0.534836	0.321400
29041		14.164586	4.018675	5.901938	-0.225992	1.869921	-0.551132	-0.826904	-0.473877	-0.185059	0.653628	0.440158	-0.523183	0.324516
29042		14.360252	4.185662	4.870422	-0.631623	2.015045	-0.590854	-0.814209	-0.484619	-0.212891	0.666248	0.433725	-0.511524	0.326096
29043		14.496841	4.706326	4.550240	-1.047412	2.113259	-0.572538	-0.797607	-0.490967	-0.252197	0.680478	0.424488	-0.500324	0.326245
29044		14.512052	5.034473	4.143145	-1.482444	2.176919	-0.487505	-0.791016	-0.489990	-0.283691	0.695972	0.412049	-0.490021	0.325142
29045		14.663819	4.351257	4.053039	-1.934809	2.208675	-0.395081	-0.754883	-0.486328	-0.335449	0.712487	0.396323	-0.480809	0.322667
29046		14.574936	3.812887	3.993066	-2.254285	2.258580	-0.294050	-0.745605	-0.476807	-0.376221	0.729532	0.377855	-0.472184	0.319455
29047		14.306373	2.873593	4.161651	-2.437007	2.310473	-0.198008	-0.734375	-0.462402	-0.432373	0.746530	0.357495	-0.463687	0.316044
29048		14.003176	2.334926	4.530295	-2.426010	2.341682	-0.105438	-0.710938	-0.446045	-0.480713	0.762799	0.336437	-0.454887	0.313090
29049		13.796842	2.041302	4.718337	-2.319778	2.411828	-0.008960	-0.680176	-0.436279	-0.529785	0.778187	0.315220	-0.445288	0.311096
29050		13.469290	1.355667	4.865769	-2.153438	2.473418	0.051103	-0.656738	-0.414062	-0.562744	0.792617	0.294454	-0.434678	0.310015
29051		13.092403	1.089342	4.463879	-1.918996	2.527510	0.094796	-0.626953	-0.395264	-0.601562	0.805942	0.274750	-0.422924	0.310010
29052		12.831798	0.775694	4.074873	-1.716080	2.532860	0.102251	-0.589355	-0.385010	-0.640137	0.818257	0.256179	-0.410338	0.310564
29053		12.546092	1.062552	3.532607	-1.567720	2.520755	0.119509	-0.553467	-0.368652	-0.677002	0.829666	0.238452	-0.397185	0.311510
29054		11.988542	1.468560	3.484550	-1.605568	2.482874	0.141546	-0.524658	-0.348389	-0.700684	0.840467	0.220309	-0.384202	0.312198
29055		11.457383	0.954535	3.333156	-1.726415	2.418201	0.187105	-0.492920	-0.327637	-0.727295	0.850606	0.201220	-0.371894	0.312529
29056		10.920774	0.702910	3.440520	-1.756569	2.364724	0.195002	-0.452637	-0.320068	-0.753418	0.860079	0.181908	-0.359850	0.312542
29057		10.331231	0.644280	3.277308	-1.740028	2.298261	0.193910	-0.422852	-0.293457	-0.775146	0.868791	0.162819	-0.348035	0.312353
29058		9.732422	0.501500	3.213217	-1.715007	2.233739	0.191211	-0.383789	-0.267090	-0.794922	0.876799	0.143978	-0.336442	0.311931
29059		9.068129	0.476879	2.874629	-1.621512	2.164955	0.204776	-0.356201	-0.250244	-0.807373	0.884016	0.125852	-0.324958	0.311575
29060		8.436051	0.379102	2.424555	-1.426837	2.121361	0.217923	-0.314209	-0.228027	-0.818115	0.890456	0.109161	-0.313158	0.311616
29061		7.603527	-0.120674	1.502386	-1.121213	2.090494	0.208456	-0.285156	-0.217529	-0.833252	0.896182	0.094794	-0.300660	0.312210
29062		6.519716	-0.598796	0.962103	-0.754783	2.029292	0.132291	-0.257812	-0.208984	-0.847412	0.901341	0.083477	-0.287506	0.312980
29063		5.177759	0.137502	0.223048	-0.435228	1.920069	0.057297	-0.223389	-0.208008	-0.854980	0.905943	0.074997	-0.274207	0.313771
29064		3.802290	0.321948	-0.725136	-0.170246	1.740722	-0.018175	-0.197021	-0.207275	-0.849609	0.909951	0.069140	-0.261462	0.314399
29065		2.609310	0.729443	-1.411235	0.112926	1.513250	-0.103933	-0.166260	-0.213135	-0.854980	0.913356	0.066200	-0.249607	0.314793
29066		1.819075	0.800266	-2.024942	0.318925	1.219515	-0.180820	-0.146484	-0.218018	-0.856201	0.916116	0.065749	-0.239373	0.314816
29067		1.050353	0.767365	-2.196859	0.372225	0.863612	-0.244378	-0.132812	-0.222412	-0.851074	0.918224	0.066760	-0.231664	0.314229
29068		0.565875	2.053669	-2.169875	0.304830	0.499063	-0.234849	-0.127686	-0.221191	-0.856445	0.919600	0.068189	-0.226918	0.313360
29069		-0.127092	2.924470	-2.046438	0.045208	0.175206	-0.158290	-0.120605	-0.224365	-0.847168	0.920300	0.068331	-0.225373	0.312388
29070		-0.343164	2.234482	-1.530153	-0.144652	-0.117626	-0.040442	-0.120361	-0.215576	-0.850342	0.920251	0.067561	-0.226636	0.311786
29071		0.538397	2.232074	-0.703367	-0.140818	-0.335667	0.029329	-0.126465	-0.230713	-0.850830	0.919603	0.067256	-0.229600	0.311593
29072		1.392634	0.909138	-0.292503	-0.084713	-0.526028	0.034446	-0.136963	-0.221924	-0.846191	0.918536	0.067868	-0.233878	0.311428
29073		2.513759	-0.136520	0.209162	0.122390	-0.699868	-0.056023	-0.147217	-0.228271	-0.850098	0.917223	0.070691	-0.238893	0.310862
29074		3.370452	0.404257	0.817199	0.301663	-0.838784	-0.177629	-0.160645	-0.226074	-0.850342	0.915801	0.075484	-0.244425	0.309623
29075		3.618998	0.164532	1.412620	0.437192	-1.004590	-0.284744	-0.186279	-0.235352	-0.842529	0.914168	0.081953	-0.250791	0.307709
29076		4.025009	0.344501	1.898318	0.667228	-1.154783	-0.382809	-0.197021	-0.243408	-0.843506	0.912214	0.090756	-0.257619	0.305387
29077		4.393818	0.979598	2.381593	0.877162	-1.321014	-0.419108	-0.218262	-0.253906	-0.834229	0.909692	0.101642	-0.265112	0.303059
29078		5.004872	1.824055	3.006156	0.937960	-1.463138	-0.394552	-0.235107	-0.264893	-0.828857	0.906559	0.113274	-0.273499	0.300863
29079		5.760941	1.940588	3.136761	0.849142	-1.588707	-0.347381	-0.260498	-0.272461	-0.823486	0.902901	0.124418	-0.283044	0.298624
29080		6.607224	0.422213	3.596918	0.837616	-1.702140	-0.337688	-0.292236	-0.293213	-0.803711	0.898742	0.135704	-0.293418	0.296230
29081		6.968705	0.926532	3.855897	1.000377	-1.802306	-0.348800	-0.318604	-0.301758	-0.809814	0.893930	0.148445	-0.304050	0.293949
29082		7.391974	1.959425	4.240478	1.022206	-1.892401	-0.281823	-0.345947	-0.306396	-0.796631	0.888393	0.161391	-0.315286	0.292070
29083		7.574084	2.548406	4.460352	0.925819	-1.964009	-0.156047	-0.375488	-0.317139	-0.783691	0.882223	0.173378	-0.327364	0.290613
29084		8.378828	1.620214	4.333115	0.926673	-2.013727	-0.060845	-0.410156	-0.331055	-0.763916	0.875395	0.185165	-0.339839	0.289668
29085		9.762441	0.620252	4.320542	1.108783	-2.047010	-0.054548	-0.442139	-0.344727	-0.740723	0.867845	0.198302	-0.352008	0.289158
29086		10.327206	0.732547	4.271447	1.244740	-2.090005	-0.103285	-0.470947	-0.353760	-0.722900	0.859708	0.212607	-0.363946	0.288521
29087		10.178897	2.394475	4.685642	1.149279	-2.180678	-0.097790	-0.498779	-0.371582	-0.701172	0.851110	0.226298	-0.376635	0.287308
29088		10.518979	2.938111	4.688069	0.935828	-2.222424	-0.031816	-0.531006	-0.375000	-0.677246	0.842270	0.238285	-0.390099	0.285700
29089		11.132118	1.817991	4.849140	0.948898	-2.213111	-0.003436	-0.565186	-0.389893	-0.646484	0.833031	0.250117	-0.403397	0.284203
29090		11.489020	1.486442	4.759852	1.137364	-2.198453	-0.050739	-0.594238	-0.392822	-0.627686	0.823187	0.263328	-0.415874	0.282967
29091		12.036152	1.850335	4.835078	1.199270	-2.191841	-0.108356	-0.616455	-0.414307	-0.596924	0.813044	0.276967	-0.427861	0.281395
29092		12.091613	2.572554	5.013272	1.031680	-2.200624	-0.123551	-0.640869	-0.419922	-0.570312	0.802933	0.289460	-0.440075	0.279008
29093		12.486846	2.782561	5.223224	0.904077	-2.121815	-0.079315	-0.661377	-0.415771	-0.541748	0.793011	0.300608	-0.452004	0.276515
29094		12.539809	2.606379	5.120937	0.973056	-2.037170	-0.011272	-0.685547	-0.429688	-0.509033	0.782804	0.311614	-0.463228	0.274834
29095		12.338499	2.974181	5.364667	1.057834	-1.931829	0.050621	-0.710449	-0.430420	-0.475586	0.772357	0.322610	-0.473570	0.274080
29096		12.686025	2.569975	4.964877	1.016752	-1.844742	0.065439	-0.723389	-0.440918	-0.456299	0.762078	0.332976	-0.483331	0.273414
29097		12.898170	1.117309	4.889535	0.967825	-1.761032	-0.040534	-0.742432	-0.449951	-0.413818	0.752296	0.343150	-0.492238	0.272031
29098		13.460149	1.322422	4.417949	1.179148	-1.643177	-0.193325	-0.751465	-0.465576	-0.389648	0.742504	0.354946	-0.499345	0.270841
29099		12.633476	2.949361	4.804857	1.297016	-1.575900	-0.304739	-0.762207	-0.466553	-0.360107	0.732679	0.367676	-0.505293	0.269583
29100		11.857807	4.366780	4.518911	1.144863	-1.548900	-0.227309	-0.762695	-0.469971	-0.330566	0.723061	0.378972	-0.511513	0.268175
29101		11.688919	3.734001	4.120746	1.003788	-1.451111	-0.114355	-0.780518	-0.485107	-0.305664	0.713883	0.388623	-0.517690	0.267098
29102		11.637048	2.644857	4.127951	1.058563	-1.322109	-0.059085	-0.786865	-0.495117	-0.276855	0.704808	0.398002	-0.523044	0.266958
29103		11.375302	2.528756	3.853453	1.212012	-1.231697	-0.065936	-0.790771	-0.491943	-0.252930	0.695484	0.408040	-0.527390	0.267706
29104		11.176811	3.391595	3.341952	1.130470	-1.198875	-0.052745	-0.790527	-0.498291	-0.230957	0.686421	0.417383	-0.531662	0.268242
29105		10.828001	3.758454	3.136358	0.770802	-1.177318	0.015079	-0.803711	-0.497559	-0.204102	0.678442	0.424251	-0.536760	0.267613
29106		10.677593	3.690746	2.886439	0.407010	-1.143190	0.111693	-0.804688	-0.497803	-0.186035	0.671603	0.428509	-0.542745	0.266001
29107		10.910152	2.538395	2.800992	0.262140	-1.051581	0.163180	-0.805664	-0.501221	-0.172607	0.665520	0.431483	-0.548667	0.264331
29108		11.116139	1.657335	2.867791	0.360154	-0.922241	0.163681	-0.800049	-0.494629	-0.157959	0.659622	0.434683	-0.553608	0.263566
29109		11.261964	1.779668	3.006240	0.492468	-0.797935	0.125395	-0.811279	-0.494629	-0.140137	0.653862	0.438485	-0.557393	0.263646
29110		11.132341	2.115887	2.631939	0.554147	-0.692202	0.097345	-0.817627	-0.501465	-0.127441	0.648388	0.442501	-0.560322	0.264243
29111		10.974644	2.142532	2.358660	0.558182	-0.606363	0.083191	-0.818848	-0.498291	-0.113770	0.643298	0.446400	-0.562690	0.265096
29112		10.714397	2.526355	2.042834	0.578212	-0.532667	0.079113	-0.822021	-0.504150	-0.105957	0.638459	0.450243	-0.564570	0.266292
29113		10.524984	2.919402	1.751383	0.517235	-0.479104	0.102249	-0.825684	-0.490723	-0.093506	0.634027	0.453518	-0.566360	0.267522
29114		10.351329	2.858266	1.508491	0.442832	-0.417447	0.138765	-0.829102	-0.493896	-0.081787	0.630070	0.456073	-0.568104	0.268826
29115		10.223787	2.759571	1.160428	0.377583	-0.367160	0.160489	-0.829102	-0.495850	-0.079590	0.626533	0.458066	-0.569794	0.270125
29116		10.146123	2.587411	1.005900	0.326778	-0.305016	0.183374	-0.828857	-0.494141	-0.071289	0.623425	0.459534	-0.571347	0.271537
29117		10.122934	2.405078	0.814648	0.307449	-0.253520	0.202509	-0.825684	-0.488037	-0.058838	0.620583	0.460691	-0.572737	0.273153
29118		10.108560	2.116738	0.634285	0.342227	-0.187632	0.203504	-0.825195	-0.495850	-0.062988	0.617907	0.461877	-0.573698	0.275194
29119		9.972621	1.694103	0.622386	0.437729	-0.119156	0.194096	-0.833984	-0.486328	-0.056396	0.615206	0.463430	-0.574041	0.277903
29120		9.966325	1.601536	0.418401	0.576531	-0.076791	0.173532	-0.834717	-0.477295	-0.049316	0.612210	0.465684	-0.573750	0.281335
29121		9.908332	1.838261	0.253501	0.677468	-0.053676	0.155187	-0.837891	-0.489990	-0.052734	0.608958	0.468472	-0.573012	0.285241
29122		9.779185	2.070869	0.021938	0.708474	-0.044194	0.155965	-0.832520	-0.482910	-0.031738	0.605611	0.471368	-0.572135	0.289324
29123		9.751932	2.107420	-0.139814	0.691971	-0.028694	0.160605	-0.842773	-0.473389	-0.039062	0.602358	0.474125	-0.571211	0.293407
29124		9.789122	2.035756	-0.302357	0.674676	-0.020892	0.163906	-0.839355	-0.475586	-0.029541	0.599197	0.476722	-0.570285	0.297447
29125		9.765005	2.136649	-0.455264	0.646519	-0.015518	0.162367	-0.838867	-0.477539	-0.027588	0.596153	0.479166	-0.569374	0.301356
29126		9.744545	2.440998	-0.467477	0.569142	-0.012949	0.172322	-0.843750	-0.476074	-0.015137	0.593390	0.481156	-0.568670	0.304947
29127		9.818111	2.791682	-0.347478	0.433490	-0.004206	0.194932	-0.840576	-0.469238	-0.017090	0.591136	0.482347	-0.568342	0.308037
29128		9.825681	2.842634	-0.402694	0.297645	0.024589	0.207766	-0.837158	-0.474121	-0.009766	0.589531	0.482721	-0.568266	0.310658
29129		9.807121	2.530922	-0.264052	0.190905	0.051791	0.219246	-0.844727	-0.461914	-0.010986	0.588441	0.482454	-0.568372	0.312935
29130		9.882325	2.392360	-0.202674	0.109875	0.080135	0.216523	-0.844238	-0.460205	-0.015869	0.587821	0.481719	-0.568536	0.314930
29131		9.942659	2.166211	-0.107129	0.030284	0.103066	0.186416	-0.842529	-0.452637	-0.020996	0.587708	0.480671	-0.568673	0.316489
29132		9.997950	1.926156	-0.070881	-0.041619	0.115769	0.129914	-0.842285	-0.456299	-0.010498	0.588095	0.479498	-0.568709	0.317483
29133		10.104844	1.708349	-0.101596	-0.075944	0.130116	0.057198	-0.852539	-0.453613	-0.023193	0.588866	0.478482	-0.568470	0.318015
29134		10.094945	1.673182	-0.144425	-0.086943	0.143482	-0.019536	-0.855469	-0.462402	-0.015381	0.589957	0.477723	-0.567888	0.318174
29135		10.067578	1.702998	-0.112264	-0.082582	0.159824	-0.101494	-0.854980	-0.463623	-0.026123	0.591313	0.477346	-0.566883	0.318015
29136		10.008317	2.100204	0.033818	-0.107511	0.174184	-0.154315	-0.851318	-0.466064	-0.031250	0.592981	0.477045	-0.565662	0.317535
29137		10.129529	2.770503	0.353599	-0.207780	0.179561	-0.170523	-0.840576	-0.458008	-0.039307	0.595113	0.476306	-0.564611	0.316523
29138		10.594310	2.963922	0.604092	-0.334376	0.212579	-0.176664	-0.843506	-0.459961	-0.036865	0.597918	0.474870	-0.563700	0.315014
29139		10.780299	4.527332	1.698935	-0.580337	0.274906	-0.182103	-0.835693	-0.471191	-0.043457	0.601984	0.472071	-0.563086	0.312566
29140		10.840987	5.641978	2.992802	-0.990763	0.379062	-0.052815	-0.841309	-0.468994	-0.056641	0.607781	0.466317	-0.563494	0.309232
29141		11.278278	3.918021	3.520764	-1.326764	0.554916	0.074900	-0.837891	-0.455566	-0.080322	0.615314	0.457757	-0.564305	0.305626
29142		12.274850	0.002319	4.494200	-1.138515	0.738276	0.001992	-0.841797	-0.470215	-0.095215	0.623100	0.449967	-0.563335	0.303200
29143		12.278514	-0.313988	4.710466	-0.471209	0.956562	-0.253597	-0.843994	-0.466797	-0.104980	0.629981	0.446254	-0.558521	0.303374
29144		11.946394	2.481542	4.708450	-0.207139	1.101219	-0.435027	-0.838867	-0.466064	-0.125488	0.636945	0.444374	-0.551541	0.304360
29145		11.874453	3.396943	3.787882	-0.388218	1.193210	-0.506957	-0.828369	-0.474121	-0.148438	0.645120	0.441569	-0.544195	0.304450
29146		11.696718	3.166812	2.695450	-0.539598	1.278288	-0.536626	-0.820068	-0.467041	-0.171143	0.654224	0.437800	-0.536586	0.303969
29147		11.354435	2.630378	1.660012	-0.543994	1.321336	-0.583310	-0.813477	-0.487305	-0.190430	0.663556	0.434024	-0.528495	0.303331
29148		11.008103	2.440405	0.737535	-0.504888	1.318554	-0.622591	-0.805908	-0.486572	-0.211426	0.672715	0.430583	-0.520092	0.302585
29149		10.610533	2.420385	0.079731	-0.564583	1.295855	-0.638493	-0.803955	-0.490967	-0.240234	0.681918	0.426853	-0.511825	0.301362
29150		10.329983	2.480989	-0.682059	-0.716697	1.261062	-0.672547	-0.791748	-0.500000	-0.260986	0.691489	0.422400	-0.503933	0.299119
29151		10.067712	2.490495	-1.539030	-0.894293	1.231292	-0.712271	-0.769043	-0.508057	-0.277588	0.701526	0.417086	-0.496429	0.295734
29152		9.623710	2.057797	-2.119029	-0.977352	1.188214	-0.725939	-0.764648	-0.515381	-0.309326	0.711560	0.411375	-0.489244	0.291706
29153		8.904714	1.629752	-2.123345	-0.935612	1.101490	-0.703641	-0.748047	-0.518066	-0.327393	0.720913	0.405938	-0.482467	0.287618
29154		8.225770	1.755912	-1.944876	-0.732423	0.958893	-0.696240	-0.729980	-0.521973	-0.343750	0.728871	0.401971	-0.476017	0.283855
29155		7.444538	2.437143	-1.376670	-0.542748	0.758786	-0.634507	-0.731689	-0.535889	-0.358154	0.735171	0.399338	-0.470497	0.280508
29156		7.222339	2.717782	-1.617276	-0.356283	0.561938	-0.514628	-0.714111	-0.527100	-0.364746	0.739744	0.397816	-0.466120	0.277944
29157		7.094610	2.229304	-1.742883	-0.209626	0.413506	-0.415562	-0.709717	-0.522949	-0.374512	0.743000	0.397133	-0.462638	0.276047
29158		7.149973	1.298783	-2.123090	0.034921	0.286928	-0.344519	-0.704102	-0.533203	-0.378418	0.744785	0.397963	-0.459610	0.275099
29159		7.258517	1.544672	-1.899324	0.273753	0.193652	-0.276107	-0.700928	-0.539795	-0.385254	0.745253	0.400224	-0.456841	0.275163
29160		7.161325	2.822048	-1.874480	0.339020	0.105108	-0.212218	-0.701660	-0.549316	-0.377686	0.745015	0.402837	-0.454687	0.275562
29161		7.090843	2.900850	-1.513237	0.214211	-0.019473	-0.092261	-0.701416	-0.550537	-0.374268	0.744435	0.404514	-0.453999	0.275806
29162		7.447625	2.453845	-1.528162	0.137471	-0.142823	0.015218	-0.704102	-0.549805	-0.373779	0.743398	0.405589	-0.454621	0.276000
