// Start Time: Unknown
// Update Rate: 60.0Hz
// Filter Profile: human (46.1)
// Firmware Version: 4.6.0
PacketCounter	SampleTimeFine	Acc_X	Acc_Y	Acc_Z	Gyr_X	Gyr_Y	Gyr_Z	Mag_X	Mag_Y	Mag_Z	Quat_q0	Quat_q1	Quat_q2	Quat_q3
20797		9.747380	0.425842	-1.003236	0.008765	-0.003627	-0.004200	-0.917236	-0.180664	0.623779	-0.108171	-0.737170	0.087789	-0.661190
20798		9.759007	0.403189	-0.983759	0.012503	-0.000920	-0.004968	-0.915283	-0.177979	0.630615	-0.108121	-0.737190	0.087691	-0.661189
20799		9.752978	0.445469	-0.996754	0.014370	-0.003618	-0.004924	-0.916260	-0.189697	0.630859	-0.108052	-0.737232	0.087585	-0.661167
20800		9.743148	0.455431	-1.013334	0.013685	-0.005320	-0.005947	-0.916260	-0.189941	0.617432	-0.107997	-0.737278	0.087478	-0.661139
20801		9.734106	0.427895	-1.052708	0.014570	-0.004495	-0.006434	-0.919189	-0.180420	0.629395	-0.107941	-0.737321	0.087362	-0.661116
20802		9.725638	0.401959	-1.037441	0.014095	-0.007371	-0.011668	-0.916016	-0.184082	0.628418	-0.107913	-0.737384	0.087218	-0.661069
20803		9.755061	0.277002	-1.063600	0.021821	-0.005151	-0.015554	-0.914062	-0.176758	0.635010	-0.107861	-0.737445	0.087008	-0.661037
20804		9.737056	0.504235	-0.975335	0.018767	-0.006153	-0.013757	-0.925293	-0.190918	0.625488	-0.107810	-0.737510	0.086832	-0.660997
20805		9.741943	0.523700	-1.023754	0.003733	-0.004836	-0.015260	-0.911377	-0.177979	0.629150	-0.107864	-0.737553	0.086725	-0.660954
20806		9.757429	0.353567	-1.040727	0.015528	-0.006859	-0.015844	-0.913330	-0.189453	0.626221	-0.107852	-0.737620	0.086547	-0.660905
20807		9.732651	0.478625	-0.981912	0.016115	-0.008910	-0.014980	-0.917480	-0.193359	0.630127	-0.107825	-0.737698	0.086377	-0.660843
20808		9.753282	0.447130	-1.002172	0.009868	-0.004552	-0.014279	-0.919922	-0.190186	0.631592	-0.107839	-0.737745	0.086240	-0.660807
20809		9.715924	0.390219	-1.028769	0.010276	-0.006604	-0.019996	-0.921875	-0.184082	0.628906	-0.107880	-0.737807	0.086067	-0.660753
20810		9.729967	0.378815	-1.033783	0.017894	-0.007839	-0.021342	-0.910645	-0.187744	0.630859	-0.107877	-0.737885	0.085848	-0.660696
20811		9.726770	0.433782	-1.016805	0.015197	-0.008578	-0.024427	-0.918701	-0.178711	0.634521	-0.107903	-0.737967	0.085630	-0.660628
20812		9.753033	0.422800	-1.029869	0.010094	-0.006892	-0.029256	-0.921875	-0.188477	0.630127	-0.107984	-0.738038	0.085411	-0.660563
20813		9.753841	0.451064	-1.004284	0.008664	-0.007686	-0.027762	-0.912354	-0.188965	0.630615	-0.108067	-0.738110	0.085211	-0.660495
20814		9.763720	0.468653	-1.017866	0.006157	-0.008720	-0.026964	-0.916992	-0.187988	0.623779	-0.108162	-0.738185	0.085029	-0.660419
20815		9.746970	0.501281	-1.019817	0.004533	-0.008929	-0.026656	-0.915039	-0.189453	0.633789	-0.108266	-0.738255	0.084859	-0.660346
20816		9.754983	0.593418	-0.987936	0.009665	-0.004235	-0.018137	-0.919434	-0.190918	0.624512	-0.108296	-0.738303	0.084704	-0.660307
20817		9.747429	0.613703	-1.028316	-0.000949	-0.006049	-0.013135	-0.918945	-0.184326	0.626709	-0.108378	-0.738338	0.084632	-0.660264
20818		9.746247	0.509195	-1.022800	0.003026	-0.005939	-0.010859	-0.908203	-0.183594	0.629639	-0.108425	-0.738378	0.084542	-0.660223
20819		9.747192	0.534320	-0.996878	0.009500	-0.004497	-0.006684	-0.910889	-0.189697	0.631104	-0.108411	-0.738423	0.084437	-0.660189
20820		9.752148	0.469772	-1.012117	0.010490	-0.008012	-0.006143	-0.904297	-0.197998	0.634033	-0.108401	-0.738485	0.084327	-0.660135
20821		9.749376	0.400436	-1.039012	0.020013	-0.005845	-0.006451	-0.916504	-0.186768	0.631104	-0.108351	-0.738553	0.084161	-0.660088
20822		9.718287	0.526454	-1.069963	0.023537	-0.002243	-0.005713	-0.915771	-0.184570	0.628662	-0.108244	-0.738587	0.083988	-0.660090
20823		9.726312	0.553976	-1.086999	0.012534	-0.002891	-0.003083	-0.909180	-0.191406	0.633789	-0.108186	-0.738612	0.083891	-0.660084
20824		9.737745	0.508647	-1.039613	0.005511	-0.003723	-0.000874	-0.910400	-0.191650	0.630371	-0.108182	-0.738657	0.083841	-0.660040
20825		9.729600	0.481443	-1.023549	0.004175	-0.000767	0.000768	-0.915771	-0.185059	0.629883	-0.108183	-0.738676	0.083803	-0.660024
20826		9.737332	0.485903	-1.012102	0.006137	0.000301	0.000974	-0.914795	-0.182861	0.626221	-0.108147	-0.738678	0.083760	-0.660032
20827		9.761870	0.484359	-1.028205	0.002752	-0.001567	0.002256	-0.909424	-0.180420	0.624023	-0.108110	-0.738676	0.083747	-0.660042
20828		9.754149	0.479516	-1.039722	-0.003834	0.001620	-0.000259	-0.913574	-0.190430	0.636963	-0.108111	-0.738655	0.083754	-0.660066
20829		9.774762	0.423717	-1.030380	-0.010709	0.001931	-0.001420	-0.914307	-0.194824	0.622314	-0.108214	-0.738660	0.083788	-0.660039
20830		9.758378	0.452288	-1.030363	-0.012189	0.003450	0.000899	-0.917480	-0.189941	0.635254	-0.108345	-0.738605	0.083837	-0.660073
20831		9.726355	0.366649	-0.992028	-0.012327	0.001424	-0.003808	-0.921875	-0.179443	0.618896	-0.108464	-0.738599	0.083876	-0.660054
20832		9.746336	0.371874	-0.988202	-0.004562	0.001351	-0.008523	-0.919922	-0.191650	0.625732	-0.108486	-0.738528	0.083849	-0.660134
20833		9.762488	0.427724	-1.021029	0.005954	-0.000289	-0.010982	-0.906494	-0.183838	0.633789	-0.108534	-0.738507	0.083756	-0.660161
20834		9.742897	0.509287	-1.003192	0.011156	0.001210	-0.011380	-0.917725	-0.182617	0.623779	-0.108468	-0.738553	0.083636	-0.660135
20835		9.763802	0.477453	-1.022148	0.005756	0.000298	-0.012165	-0.910645	-0.187500	0.626465	-0.108449	-0.738521	0.083543	-0.660187
20836		9.748290	0.469599	-1.045117	0.003932	0.001256	-0.007663	-0.913330	-0.184570	0.624512	-0.108456	-0.738515	0.083482	-0.660200
20837		9.724802	0.495937	-1.002038	0.002258	0.003065	-0.009222	-0.919189	-0.181396	0.633789	-0.108458	-0.738480	0.083422	-0.660246
20838		9.750367	0.458359	-1.039855	-0.003940	0.005373	-0.006674	-0.909424	-0.185303	0.628662	-0.108427	-0.738447	0.083403	-0.660290
20839		9.749001	0.474934	-0.988547	-0.004080	0.003641	-0.008688	-0.914307	-0.189697	0.629150	-0.108464	-0.738441	0.083373	-0.660295
20840		9.736707	0.476835	-0.980152	-0.001667	0.001222	-0.006942	-0.919189	-0.179688	0.623779	-0.108518	-0.738429	0.083348	-0.660303
20841		9.738733	0.402914	-1.025016	-0.000241	0.001731	-0.011119	-0.916748	-0.185547	0.624512	-0.108484	-0.738366	0.083302	-0.660384
20842		9.728901	0.475252	-0.991054	0.002256	0.003068	-0.009219	-0.916016	-0.194092	0.631104	-0.108490	-0.738312	0.083256	-0.660449
20843		9.756550	0.424177	-1.025041	-0.005442	0.000230	-0.010720	-0.918945	-0.183105	0.627197	-0.108630	-0.738308	0.083234	-0.660434
20844		9.717892	0.464181	-1.033266	-0.011580	-0.000075	-0.011692	-0.916504	-0.183350	0.630371	-0.108675	-0.738267	0.083244	-0.660471
20845		9.751101	0.493705	-1.010809	-0.019880	-0.000570	-0.011363	-0.920166	-0.184082	0.632324	-0.108754	-0.738254	0.083288	-0.660467
20846		9.735980	0.403964	-1.000318	-0.010899	0.001343	-0.013362	-0.912842	-0.195801	0.632324	-0.108782	-0.738234	0.083267	-0.660487
20847		9.743922	0.494880	-0.966963	-0.007860	0.002656	-0.012459	-0.916992	-0.190918	0.631104	-0.108952	-0.738244	0.083236	-0.660452
20848		9.735480	0.490819	-1.032633	-0.013322	0.004348	-0.009722	-0.913330	-0.185547	0.623047	-0.109072	-0.738208	0.083257	-0.660470
20849		9.741360	0.533799	-1.052702	-0.010363	0.001613	-0.011665	-0.918457	-0.192871	0.629150	-0.109155	-0.738157	0.083272	-0.660512
20850		9.727361	0.467257	-1.015305	-0.010710	0.001342	-0.006793	-0.915527	-0.186523	0.623535	-0.109275	-0.738120	0.083308	-0.660528
20851		9.737108	0.459848	-0.999531	-0.009905	-0.002165	-0.012816	-0.913330	-0.191162	0.629883	-0.109358	-0.738086	0.083316	-0.660551
20852		9.728288	0.433505	-1.037946	-0.004025	0.001046	-0.012196	-0.923340	-0.188965	0.628174	-0.109436	-0.738097	0.083266	-0.660532
20853		9.731652	0.468303	-1.034605	-0.002601	0.001563	-0.016370	-0.914795	-0.190674	0.631348	-0.109481	-0.738042	0.083207	-0.660594
20854		9.730386	0.508663	-1.011963	-0.012263	-0.002058	-0.015384	-0.917969	-0.199219	0.630127	-0.109594	-0.738072	0.083180	-0.660545
20855		9.727346	0.396430	-0.981941	-0.004361	-0.000380	-0.018078	-0.916260	-0.192627	0.626465	-0.109812	-0.738070	0.083115	-0.660520
20856		9.740759	0.445144	-0.991193	-0.000522	-0.001993	-0.017822	-0.923828	-0.190430	0.627441	-0.109915	-0.738062	0.083039	-0.660520
20857		9.718451	0.458278	-0.999249	-0.003078	-0.001586	-0.024261	-0.917480	-0.192139	0.622559	-0.110004	-0.738019	0.082939	-0.660566
20858		9.730805	0.483877	-1.035400	-0.000183	-0.001424	-0.019996	-0.915771	-0.195312	0.625244	-0.110120	-0.737973	0.082867	-0.660608
20859		9.737111	0.529435	-1.001559	0.001296	-0.002644	-0.019623	-0.916016	-0.193848	0.629150	-0.110261	-0.737965	0.082780	-0.660604
20860		9.733543	0.500088	-1.004937	-0.000387	-0.000546	-0.018486	-0.920166	-0.191650	0.623535	-0.110349	-0.737976	0.082684	-0.660589
20861		9.747816	0.488802	-1.008791	0.000152	-0.000566	-0.019481	-0.905762	-0.197266	0.628906	-0.110420	-0.737917	0.082601	-0.660654
20862		9.726431	0.525318	-0.990025	0.003113	-0.003006	-0.018736	-0.920898	-0.187988	0.629395	-0.110570	-0.738006	0.082485	-0.660544
20863		9.750537	0.504701	-0.978568	-0.000668	-0.003423	-0.017133	-0.925049	-0.197754	0.629883	-0.110510	-0.738007	0.082387	-0.660565
20864		9.751788	0.492507	-1.029846	-0.002426	-0.005369	-0.018840	-0.906494	-0.190430	0.624268	-0.110637	-0.737989	0.082313	-0.660573
20865		9.756947	0.597987	-1.001749	-0.009849	-0.004766	-0.016309	-0.916992	-0.195312	0.628418	-0.110737	-0.738032	0.082287	-0.660511
20866		9.749346	0.534829	-1.063505	-0.021929	-0.005985	-0.017056	-0.913574	-0.195801	0.620850	-0.110949	-0.738037	0.082323	-0.660465
20867		9.698859	0.493460	-1.031562	-0.028687	-0.009747	-0.014492	-0.913330	-0.189453	0.625488	-0.111252	-0.738009	0.082450	-0.660430
20868		9.728457	0.597967	-1.019604	-0.047921	-0.007478	-0.014039	-0.911377	-0.185791	0.630859	-0.111494	-0.738000	0.082637	-0.660375
20869		9.752954	0.516173	-1.057781	-0.055958	-0.004815	-0.012343	-0.918457	-0.191406	0.624512	-0.111656	-0.738035	0.082831	-0.660286
20870		9.755872	0.528684	-1.027191	-0.054621	-0.007181	-0.008599	-0.914551	-0.191162	0.631836	-0.111931	-0.737970	0.083110	-0.660276
20871		9.739950	0.476595	-0.995222	-0.052672	-0.006375	-0.011062	-0.912842	-0.190674	0.632324	-0.112131	-0.738002	0.083299	-0.660183
20872		9.728636	0.419363	-0.982805	-0.036607	-0.005322	-0.010747	-0.921387	-0.198242	0.624512	-0.112207	-0.738058	0.083393	-0.660095
20873		9.749627	0.495434	-1.008469	-0.023644	-0.004106	-0.018555	-0.915283	-0.194336	0.630127	-0.112456	-0.737987	0.083469	-0.660122
20874		9.732743	0.526565	-1.009074	-0.020064	-0.002256	-0.013285	-0.908936	-0.191650	0.623535	-0.112517	-0.738004	0.083482	-0.660091
20875		9.694843	0.507005	-1.012545	-0.020341	-0.005691	-0.017310	-0.915039	-0.202393	0.624023	-0.112633	-0.738020	0.083521	-0.660049
20876		9.714699	0.536901	-1.037505	-0.011493	-0.004919	-0.015972	-0.918945	-0.192871	0.629883	-0.112875	-0.737998	0.083547	-0.660029
20877		9.734286	0.521348	-1.007002	-0.008186	-0.006785	-0.017419	-0.918213	-0.207275	0.627930	-0.112825	-0.738029	0.083476	-0.660012
20878		9.718666	0.514748	-1.030999	-0.006969	-0.004827	-0.014713	-0.915283	-0.188477	0.624756	-0.113060	-0.738026	0.083455	-0.659977
20879		9.758248	0.503111	-0.996968	-0.004201	-0.006675	-0.015164	-0.917480	-0.201660	0.628906	-0.112943	-0.738034	0.083410	-0.659994
20880		9.748071	0.514838	-1.013777	0.000526	-0.007451	-0.015413	-0.926270	-0.198242	0.623779	-0.113006	-0.738070	0.083326	-0.659954
20881		9.757764	0.508160	-0.999141	0.008225	-0.004879	-0.016618	-0.921143	-0.198730	0.624512	-0.113002	-0.737993	0.083253	-0.660050
20882		9.727679	0.515529	-1.019009	0.012481	-0.001882	-0.015705	-0.909668	-0.198242	0.624512	-0.112978	-0.737945	0.083141	-0.660121
20883		9.737417	0.508867	-1.003992	0.014368	-0.004835	-0.018348	-0.913574	-0.196045	0.632324	-0.112972	-0.737993	0.082983	-0.660090
20884		9.717244	0.507303	-1.008305	0.017202	-0.002926	-0.018631	-0.914062	-0.201904	0.625732	-0.112802	-0.738083	0.082729	-0.660049
20885		9.733864	0.504636	-1.036531	0.020103	-0.003326	-0.019748	-0.922363	-0.196533	0.627686	-0.112819	-0.738105	0.082537	-0.660046
20886		9.739062	0.525974	-1.029862	0.021925	-0.003691	-0.018872	-0.915039	-0.193359	0.621338	-0.112668	-0.738100	0.082323	-0.660104
20887		9.751098	0.528201	-1.038656	0.021384	-0.003671	-0.017871	-0.921631	-0.190674	0.627197	-0.112551	-0.738079	0.082166	-0.660167
20888		9.744042	0.549670	-1.023913	0.020975	-0.002207	-0.017541	-0.910400	-0.200928	0.619141	-0.112295	-0.738067	0.081952	-0.660250
20889		9.738413	0.533647	-1.032046	0.021041	-0.004514	-0.018369	-0.913574	-0.197021	0.621826	-0.112391	-0.738054	0.081842	-0.660262
20890		9.745884	0.540836	-1.021244	0.018812	-0.002409	-0.016232	-0.923584	-0.200684	0.618164	-0.112356	-0.738036	0.081707	-0.660305
20891		9.731139	0.557531	-1.017973	0.018267	-0.002665	-0.017912	-0.913330	-0.200928	0.625000	-0.112428	-0.737919	0.081630	-0.660433
20892		9.747793	0.554286	-1.046047	0.016450	-0.001745	-0.013423	-0.913818	-0.186279	0.625000	-0.112433	-0.737926	0.081502	-0.660440
20893		9.745344	0.547464	-1.022862	0.012873	-0.003047	-0.013316	-0.916504	-0.194824	0.629150	-0.112124	-0.737950	0.081312	-0.660489
20894		9.752903	0.553930	-1.011570	0.010576	0.001366	-0.010355	-0.910645	-0.203613	0.624268	-0.111963	-0.737959	0.081161	-0.660525
20895		9.742026	0.518487	-1.026450	0.009765	-0.002055	-0.013373	-0.915039	-0.201172	0.629883	-0.112097	-0.737968	0.081095	-0.660501
20896		9.729630	0.520843	-1.018739	0.009357	-0.000594	-0.013048	-0.911865	-0.204102	0.625244	-0.112092	-0.737998	0.080960	-0.660485
20897		9.749441	0.527182	-1.015422	0.013338	-0.000746	-0.013473	-0.910400	-0.200439	0.628418	-0.112191	-0.738003	0.080862	-0.660474
20898		9.744680	0.557049	-1.024019	0.007731	-0.001096	-0.015417	-0.914551	-0.193848	0.623047	-0.112219	-0.738050	0.080733	-0.660433
20899		9.744557	0.559050	-1.024096	0.009490	0.001129	-0.011037	-0.917236	-0.201172	0.634766	-0.112115	-0.738011	0.080640	-0.660505
20900		9.756727	0.560475	-1.031976	0.008202	0.001477	-0.012903	-0.914062	-0.201172	0.623779	-0.112052	-0.738060	0.080466	-0.660482
20901		9.732129	0.563045	-1.015693	0.004019	0.002497	-0.010976	-0.917969	-0.196289	0.630127	-0.112136	-0.738013	0.080430	-0.660525
20902		9.748946	0.536866	-1.015106	0.003883	0.000778	-0.012980	-0.912109	-0.207520	0.622559	-0.112044	-0.738019	0.080304	-0.660549
20903		9.736588	0.539120	-1.007029	0.006789	0.000661	-0.011417	-0.911865	-0.202881	0.626953	-0.112257	-0.737982	0.080285	-0.660557
20904		9.764090	0.550201	-0.991939	0.007863	0.000630	-0.013403	-0.919434	-0.204346	0.627197	-0.112325	-0.737994	0.080188	-0.660544
20905		9.741018	0.537577	-1.026199	0.002534	0.003989	-0.008664	-0.913330	-0.204590	0.623535	-0.112401	-0.737937	0.080147	-0.660599
20906		9.738650	0.552925	-1.029954	0.003143	0.001664	-0.010484	-0.910400	-0.194580	0.631348	-0.112535	-0.737898	0.080122	-0.660623
20907		9.731635	0.573651	-1.014490	0.004088	0.000190	-0.011798	-0.905762	-0.196289	0.626465	-0.112404	-0.737965	0.079991	-0.660586
20908		9.733819	0.583978	-1.038029	0.002940	0.002532	-0.008984	-0.920166	-0.200439	0.625488	-0.112360	-0.737996	0.079923	-0.660568
20909		9.726172	0.558156	-1.021353	-0.000095	0.001206	-0.009874	-0.911865	-0.194824	0.621094	-0.112384	-0.737939	0.079886	-0.660632
20910		9.733052	0.540845	-1.036343	-0.002329	0.003026	-0.010424	-0.918457	-0.204346	0.627930	-0.112379	-0.737883	0.079870	-0.660696
20911		9.740672	0.547244	-1.024372	-0.005358	0.001976	-0.008639	-0.915283	-0.194092	0.625000	-0.112485	-0.737849	0.079863	-0.660718
20912		9.733672	0.567755	-1.008723	-0.005695	0.001124	-0.009144	-0.917236	-0.198242	0.632080	-0.112425	-0.737820	0.079838	-0.660764
20913		9.723675	0.555699	-0.996480	-0.000017	-0.000826	-0.008024	-0.908203	-0.199463	0.629395	-0.112332	-0.737855	0.079750	-0.660750
20914		9.728170	0.552043	-1.016246	-0.002514	-0.002168	-0.009907	-0.912109	-0.193359	0.632324	-0.112340	-0.737921	0.079692	-0.660683
20915		9.705750	0.563179	-1.024411	-0.001568	-0.003641	-0.011221	-0.917480	-0.197021	0.628662	-0.112193	-0.738002	0.079582	-0.660630
20916		9.733306	0.551443	-0.981799	-0.000018	-0.000825	-0.008023	-0.912354	-0.194092	0.626465	-0.112114	-0.738003	0.079523	-0.660650
20917		9.727888	0.534269	-0.989457	0.002211	-0.002919	-0.010146	-0.909424	-0.196777	0.632324	-0.112020	-0.738028	0.079458	-0.660646
20918		9.749922	0.548788	-1.010233	0.003707	-0.003856	-0.007104	-0.916992	-0.202881	0.624512	-0.111885	-0.738122	0.079343	-0.660577
20919		9.735190	0.563952	-1.006950	0.002760	-0.002383	-0.005790	-0.915771	-0.200928	0.625977	-0.111931	-0.738093	0.079339	-0.660603
20920		9.739682	0.559717	-1.027042	-0.000066	-0.004303	-0.005503	-0.916260	-0.197754	0.631348	-0.111943	-0.738092	0.079334	-0.660602
20921		9.729669	0.547084	-1.015453	0.003505	-0.002989	-0.005606	-0.917725	-0.205078	0.622803	-0.111817	-0.738133	0.079248	-0.660588
20922		9.736504	0.529121	-1.031497	0.005734	-0.005081	-0.007728	-0.912354	-0.207031	0.619629	-0.111905	-0.738104	0.079236	-0.660607
20923		9.729411	0.549403	-1.016676	0.006115	-0.000750	-0.009741	-0.917969	-0.201660	0.631348	-0.112085	-0.738053	0.079239	-0.660633
20924		9.711717	0.532443	-1.016634	0.007761	-0.006306	-0.008352	-0.915039	-0.204346	0.627686	-0.112006	-0.738108	0.079125	-0.660599
20925		9.733827	0.524427	-1.009946	0.010787	-0.005251	-0.010135	-0.912598	-0.199951	0.626221	-0.112008	-0.738142	0.079019	-0.660572
20926		9.716640	0.553860	-1.011324	0.011531	-0.005855	-0.009950	-0.916748	-0.195068	0.625244	-0.111957	-0.738181	0.078922	-0.660549
20927		9.731070	0.541260	-1.016243	0.014966	-0.006256	-0.012052	-0.918457	-0.199219	0.616211	-0.111818	-0.738199	0.078797	-0.660567
20928		9.735460	0.537870	-1.036809	0.015092	-0.004811	-0.012722	-0.911865	-0.203125	0.625488	-0.111840	-0.738126	0.078751	-0.660651
20929		9.753487	0.581559	-1.011648	0.019823	-0.005278	-0.010286	-0.920654	-0.203613	0.627930	-0.111807	-0.738165	0.078620	-0.660629
20930		9.742549	0.568249	-1.055366	0.015708	-0.006856	-0.011860	-0.917236	-0.205322	0.625244	-0.111761	-0.738187	0.078475	-0.660629
20931		9.727215	0.537741	-1.051350	0.013396	-0.002729	-0.011587	-0.905029	-0.202637	0.629883	-0.111794	-0.738177	0.078369	-0.660647
20932		9.745267	0.581464	-1.025809	0.012858	-0.002714	-0.010594	-0.910889	-0.203369	0.630127	-0.111786	-0.738261	0.078250	-0.660569
20933		9.729799	0.573372	-1.049325	0.007053	-0.002218	-0.011042	-0.920166	-0.197998	0.632324	-0.111805	-0.738309	0.078152	-0.660524
20934		9.729850	0.552530	-1.021848	0.006181	-0.003056	-0.010553	-0.910400	-0.197021	0.628174	-0.111689	-0.738336	0.078029	-0.660527
20935		9.719848	0.540768	-1.010076	0.010820	-0.001762	-0.012638	-0.917969	-0.198242	0.624756	-0.111614	-0.738375	0.077907	-0.660512
20936		9.727134	0.569854	-1.027149	0.012186	-0.004413	-0.011594	-0.917236	-0.200195	0.632812	-0.111543	-0.738366	0.077802	-0.660545
20937		9.741632	0.557352	-1.031552	0.016958	-0.001398	-0.011681	-0.912842	-0.197266	0.623291	-0.111409	-0.738410	0.077611	-0.660542
20938		9.721578	0.554647	-1.035400	0.014585	-0.001304	-0.014230	-0.920166	-0.201172	0.617920	-0.111364	-0.738400	0.077495	-0.660574
20939		9.761242	0.565776	-1.028797	0.012968	-0.001537	-0.013925	-0.918457	-0.205322	0.623291	-0.111404	-0.738316	0.077422	-0.660670
20940		9.736829	0.545604	-0.985204	0.013397	-0.002438	-0.008901	-0.914551	-0.197510	0.631592	-0.111429	-0.738283	0.077341	-0.660712
20941		9.748303	0.522954	-1.020499	0.013176	-0.002124	-0.012745	-0.917236	-0.201904	0.635986	-0.111307	-0.738332	0.077176	-0.660697
20942		9.740889	0.566208	-1.033740	0.013921	-0.002726	-0.012558	-0.918945	-0.194092	0.623535	-0.111197	-0.738403	0.076978	-0.660659
20943		9.753230	0.545388	-1.014224	0.012963	-0.001532	-0.013917	-0.913574	-0.195557	0.627686	-0.111092	-0.738370	0.076859	-0.660728
20944		9.731648	0.558033	-0.967418	0.010400	-0.000296	-0.012305	-0.909180	-0.193359	0.632080	-0.110999	-0.738381	0.076739	-0.660745
20945		9.728195	0.572186	-1.026768	0.011557	-0.002354	-0.012434	-0.911377	-0.198730	0.627441	-0.110845	-0.738454	0.076584	-0.660707
20946		9.737865	0.587452	-1.039470	0.011890	-0.001500	-0.011931	-0.915771	-0.198975	0.627441	-0.110799	-0.738477	0.076469	-0.660703
20947		9.707974	0.571133	-1.031280	0.009482	-0.004885	-0.011956	-0.916992	-0.196777	0.624756	-0.110754	-0.738497	0.076364	-0.660700
20948		9.720343	0.550023	-1.011884	0.010818	-0.001470	-0.009948	-0.913086	-0.199707	0.629883	-0.110686	-0.738474	0.076283	-0.660746
20949		9.752365	0.555742	-1.016914	0.009614	-0.003162	-0.009960	-0.915771	-0.191406	0.625732	-0.110627	-0.738512	0.076171	-0.660727
20950		9.722503	0.539277	-1.008686	0.012298	-0.002951	-0.012241	-0.911621	-0.198975	0.629395	-0.110488	-0.738513	0.076061	-0.660761
20951		9.742240	0.545739	-1.005805	0.014447	-0.002725	-0.013530	-0.905029	-0.196533	0.629639	-0.110422	-0.738557	0.075906	-0.660741
20952		9.731951	0.556557	-1.022330	0.012375	-0.005257	-0.013053	-0.906006	-0.199219	0.629395	-0.110354	-0.738641	0.075774	-0.660674
20953		9.746451	0.544403	-1.026950	0.010881	-0.004052	-0.013424	-0.912354	-0.197266	0.629639	-0.110334	-0.738708	0.075651	-0.660616
20954		9.721419	0.569727	-1.039778	0.014299	-0.004718	-0.018182	-0.919678	-0.200928	0.632324	-0.110270	-0.738761	0.075470	-0.660589
20955		9.738972	0.568137	-1.013185	0.011334	-0.001752	-0.013593	-0.908691	-0.203857	0.618652	-0.110194	-0.738779	0.075296	-0.660601
20956		9.733569	0.551595	-1.021261	0.013519	-0.007586	-0.015837	-0.915283	-0.200195	0.623535	-0.110332	-0.738778	0.075250	-0.660584
20957		9.713981	0.573368	-0.999297	0.014919	-0.006756	-0.017312	-0.912598	-0.201904	0.624023	-0.110342	-0.738785	0.075124	-0.660589
20958		9.740326	0.583709	-1.040398	0.012235	-0.006967	-0.015029	-0.909668	-0.195801	0.629639	-0.110382	-0.738802	0.075028	-0.660574
20959		9.715569	0.586522	-1.025590	0.010620	-0.007205	-0.014724	-0.908203	-0.191406	0.626953	-0.110310	-0.738870	0.074898	-0.660525
20960		9.752406	0.565324	-1.022939	0.008684	-0.008019	-0.012256	-0.916504	-0.197998	0.627197	-0.110207	-0.738926	0.074814	-0.660488
20961		9.725164	0.581738	-1.012615	0.009417	-0.008897	-0.014732	-0.909668	-0.193359	0.626221	-0.110170	-0.738956	0.074703	-0.660474
20962		9.749371	0.583357	-1.030078	0.005028	-0.007321	-0.014000	-0.912354	-0.200928	0.627930	-0.110130	-0.738993	0.074635	-0.660447
20963		9.749127	0.585448	-1.031193	0.004081	-0.005853	-0.012697	-0.916504	-0.195801	0.626953	-0.110165	-0.739018	0.074570	-0.660421
20964		9.719249	0.569378	-1.023395	0.005027	-0.007319	-0.013997	-0.914551	-0.201172	0.632324	-0.110125	-0.739031	0.074486	-0.660422
20965		9.751133	0.575806	-1.029203	0.001599	-0.006934	-0.011904	-0.913574	-0.190674	0.622559	-0.110122	-0.739079	0.074398	-0.660378
20966		9.741312	0.610551	-1.019362	0.002465	-0.006091	-0.012392	-0.911133	-0.196289	0.627197	-0.110077	-0.739065	0.074377	-0.660404
20967		9.718548	0.575306	-1.026734	0.008798	-0.006565	-0.012922	-0.911377	-0.195557	0.626465	-0.110033	-0.739098	0.074287	-0.660385
20968		9.728044	0.590668	-1.040223	0.008265	-0.006552	-0.011932	-0.913086	-0.202637	0.628174	-0.109984	-0.739123	0.074212	-0.660373
20969		9.730300	0.578738	-1.037267	0.006732	-0.009101	-0.012440	-0.911865	-0.195312	0.629150	-0.110019	-0.739163	0.074141	-0.660331
20970		9.749939	0.585204	-1.035198	0.007730	-0.006537	-0.010941	-0.903809	-0.203369	0.631348	-0.109937	-0.739202	0.074049	-0.660312
20971		9.742076	0.581710	-1.047796	0.005051	-0.006755	-0.008662	-0.911133	-0.202148	0.624756	-0.109977	-0.739277	0.073999	-0.660226
20972		9.742330	0.561103	-1.020687	0.004939	-0.005003	-0.013175	-0.910889	-0.193604	0.630859	-0.110062	-0.739275	0.073965	-0.660218
20973		9.726816	0.553001	-1.044551	0.005368	-0.006177	-0.010823	-0.916260	-0.203125	0.624756	-0.109959	-0.739322	0.073871	-0.660193
20974		9.724070	0.568671	-1.049876	0.004604	-0.005856	-0.013671	-0.906006	-0.196533	0.625977	-0.110041	-0.739305	0.073829	-0.660203
20975		9.728961	0.589467	-1.043771	0.004819	-0.006442	-0.012494	-0.917969	-0.183350	0.628906	-0.110051	-0.739339	0.073786	-0.660169
20976		9.740969	0.591205	-1.052763	0.002576	-0.004644	-0.013055	-0.913086	-0.200439	0.625977	-0.109827	-0.739343	0.073664	-0.660215
20977		9.733085	0.588268	-1.065188	0.000512	-0.007183	-0.012573	-0.917725	-0.198242	0.626953	-0.109896	-0.739349	0.073646	-0.660199
20978		9.725774	0.609119	-1.050747	-0.004157	-0.002444	-0.009549	-0.918701	-0.201904	0.624756	-0.109922	-0.739313	0.073643	-0.660235
20979		9.725576	0.611020	-1.051483	-0.002930	-0.007081	-0.013141	-0.907471	-0.197266	0.632080	-0.110022	-0.739289	0.073643	-0.660246
20980		9.729942	0.607518	-1.071894	-0.004059	-0.004472	-0.007695	-0.912354	-0.201660	0.634766	-0.110006	-0.739333	0.073619	-0.660201
20981		9.739968	0.553992	-1.055354	-0.006437	-0.004395	-0.010239	-0.914795	-0.205078	0.619141	-0.110033	-0.739374	0.073572	-0.660156
20982		9.715881	0.580162	-1.013205	0.001310	-0.003749	-0.009590	-0.910889	-0.204346	0.629395	-0.110197	-0.739309	0.073637	-0.660194
20983		9.739627	0.603726	-1.058055	0.006129	-0.003292	-0.013158	-0.915527	-0.201416	0.627930	-0.110255	-0.739327	0.073564	-0.660173
20984		9.744565	0.578081	-1.049998	0.002705	-0.002916	-0.011066	-0.912598	-0.208252	0.623535	-0.110273	-0.739315	0.073512	-0.660188
20985		9.729618	0.547771	-1.045454	0.005462	-0.004999	-0.014150	-0.918945	-0.200684	0.628418	-0.110432	-0.739300	0.073494	-0.660181
20986		9.726866	0.563606	-1.050415	0.006460	-0.002435	-0.012657	-0.910156	-0.198242	0.630127	-0.110400	-0.739283	0.073391	-0.660217
20987		9.738871	0.565786	-1.059210	0.008866	-0.005648	-0.018897	-0.905762	-0.198730	0.631836	-0.110378	-0.739331	0.073243	-0.660184
20988		9.721254	0.596117	-1.060676	0.007072	-0.004750	-0.014448	-0.909424	-0.203857	0.626953	-0.110354	-0.739392	0.073134	-0.660131
20989		9.743492	0.589521	-1.053589	0.002249	-0.002015	-0.016067	-0.914551	-0.199219	0.629639	-0.110463	-0.739390	0.073085	-0.660120
20990		9.725889	0.619803	-1.054764	0.004909	-0.005259	-0.015813	-0.911865	-0.197754	0.636719	-0.110443	-0.739410	0.072972	-0.660113
20991		9.748117	0.613264	-1.047748	0.004076	-0.002354	-0.015192	-0.912354	-0.198730	0.628174	-0.110365	-0.739463	0.072818	-0.660084
20992		9.733150	0.629564	-1.044104	0.003575	0.001406	-0.014075	-0.903320	-0.201904	0.625244	-0.110363	-0.739443	0.072735	-0.660117
20993		9.740184	0.612633	-1.059265	0.005289	-0.000376	-0.012525	-0.917725	-0.203369	0.631836	-0.110444	-0.739442	0.072712	-0.660106
20994		9.722763	0.596263	-1.058393	0.006132	0.000193	-0.015671	-0.918457	-0.210205	0.626465	-0.110440	-0.739434	0.072578	-0.660131
20995		9.725238	0.584508	-1.054064	0.006170	0.000747	-0.010355	-0.911865	-0.204102	0.632324	-0.110530	-0.739384	0.072533	-0.660177
20996		9.738437	0.587936	-1.007329	0.006681	0.000462	-0.013998	-0.904297	-0.210205	0.628906	-0.110542	-0.739395	0.072421	-0.660175
20997		9.725021	0.588336	-1.053932	0.007562	0.001584	-0.011829	-0.913086	-0.194824	0.629395	-0.110673	-0.739400	0.072386	-0.660151
20998		9.712533	0.636723	-1.047194	0.009704	0.001824	-0.013117	-0.906006	-0.195557	0.626953	-0.110555	-0.739391	0.072245	-0.660197
20999		9.722239	0.605687	-1.057853	0.008111	0.001853	-0.010157	-0.906250	-0.205078	0.626465	-0.110490	-0.739386	0.072173	-0.660221
21000		9.736817	0.639540	-1.062863	0.007362	0.002451	-0.010343	-0.911865	-0.198730	0.643799	-0.110557	-0.739368	0.072139	-0.660233
21001		9.729118	0.636072	-1.073915	0.008223	0.003297	-0.010832	-0.904785	-0.202393	0.626465	-0.110403	-0.739428	0.071954	-0.660212
21002		9.719462	0.623891	-1.061126	0.005769	0.002481	-0.007384	-0.918701	-0.205078	0.626709	-0.110435	-0.739413	0.071942	-0.660225
21003		9.725070	0.621450	-1.025750	0.005543	-0.000404	-0.006029	-0.913086	-0.205566	0.625488	-0.110425	-0.739372	0.071901	-0.660276
21004		9.741867	0.616525	-1.053165	0.005807	0.003035	-0.002072	-0.916992	-0.200928	0.627197	-0.110433	-0.739321	0.071907	-0.660332
21005		9.737317	0.622290	-1.032976	0.003122	0.006000	-0.004983	-0.922119	-0.194824	0.648926	-0.110390	-0.739254	0.071869	-0.660418
21006		9.739310	0.631412	-1.056273	0.004064	0.001067	-0.003748	-0.916260	-0.197510	0.632568	-0.110106	-0.739317	0.071684	-0.660415
21007		9.725095	0.623636	-1.024188	0.002784	0.001673	-0.002950	-0.915039	-0.197266	0.631592	-0.109987	-0.739305	0.071630	-0.660455
21008		9.735351	0.615207	-1.008194	-0.001498	0.001193	-0.000376	-0.909424	-0.196289	0.638916	-0.109891	-0.739288	0.071627	-0.660490
21009		9.732348	0.604963	-1.038776	0.001305	0.003143	-0.000671	-0.919922	-0.208008	0.631592	-0.109733	-0.739319	0.071557	-0.660489
21010		9.728223	0.634355	-0.992112	0.001636	0.003999	-0.000174	-0.913330	-0.212402	0.625244	-0.109703	-0.739274	0.071525	-0.660548
21011		9.755360	0.620172	-1.003284	0.000025	0.003749	0.000127	-0.919189	-0.201416	0.626709	-0.109803	-0.739213	0.071575	-0.660594
21012		9.725565	0.577310	-1.020276	-0.000268	0.003449	0.004942	-0.917969	-0.201172	0.632324	-0.109737	-0.739145	0.071625	-0.660675
21013		9.742900	0.595144	-1.020769	0.003372	0.002496	0.004031	-0.906494	-0.206055	0.634521	-0.109611	-0.739121	0.071608	-0.660725
21014		9.735986	0.567179	-1.003612	0.002623	0.003092	0.003844	-0.911621	-0.205566	0.632324	-0.109564	-0.739136	0.071606	-0.660717
21015		9.738063	0.574992	-1.026957	0.004234	0.003342	0.003543	-0.908447	-0.200684	0.631348	-0.109502	-0.739125	0.071597	-0.660740
21016		9.736157	0.566028	-1.002600	0.001324	0.003421	0.001985	-0.907715	-0.203369	0.627930	-0.109448	-0.739116	0.071614	-0.660757
21017		9.743840	0.570732	-0.990831	0.004851	0.001025	0.001753	-0.916016	-0.203857	0.620605	-0.109426	-0.739108	0.071641	-0.660767
21018		9.728638	0.560269	-1.013388	0.006906	0.003573	0.001271	-0.910400	-0.207031	0.624756	-0.109422	-0.739029	0.071680	-0.660852
21019		9.726090	0.573637	-1.017331	0.006793	0.002130	0.001949	-0.914551	-0.200928	0.627441	-0.109433	-0.738994	0.071712	-0.660886
21020		9.718489	0.568467	-1.028593	0.005363	0.000738	-0.001887	-0.917236	-0.199707	0.627930	-0.109383	-0.738971	0.071696	-0.660921
21021		9.731317	0.546278	-1.008519	0.005781	-0.000714	-0.002195	-0.917480	-0.206787	0.625977	-0.109305	-0.738954	0.071664	-0.660957
21022		9.733889	0.532956	-1.004336	0.008454	-0.000483	-0.004466	-0.906982	-0.200195	0.629395	-0.109296	-0.738928	0.071615	-0.660993
21023		9.753048	0.560802	-1.029455	0.007242	-0.002463	-0.007128	-0.908936	-0.202637	0.631592	-0.109280	-0.738958	0.071577	-0.660966
21024		9.750950	0.553399	-1.006070	0.008853	-0.002213	-0.007428	-0.914795	-0.203613	0.629883	-0.109255	-0.738993	0.071508	-0.660939
21025		9.731390	0.573620	-0.983387	0.013041	-0.002895	-0.006665	-0.911621	-0.200195	0.631348	-0.109189	-0.739011	0.071409	-0.660939
21026		9.722626	0.567614	-1.050025	0.011323	-0.001116	-0.008215	-0.913330	-0.197998	0.625488	-0.109123	-0.739034	0.071313	-0.660935
21027		9.742774	0.597658	-1.020510	0.009600	-0.002807	-0.007236	-0.911865	-0.199707	0.630127	-0.109071	-0.739032	0.071263	-0.660951
21028		9.722784	0.593811	-1.024574	0.006797	-0.004758	-0.006941	-0.920654	-0.190430	0.618408	-0.109027	-0.739063	0.071210	-0.660929
21029		9.743135	0.577429	-0.993874	0.008626	-0.005094	-0.006067	-0.905273	-0.204102	0.625732	-0.108919	-0.739021	0.071185	-0.660997
21030		9.710264	0.595813	-1.018245	0.007876	-0.004497	-0.006255	-0.911865	-0.200928	0.625000	-0.108966	-0.739046	0.071186	-0.660961
21031		9.754445	0.600973	-1.031797	0.008426	-0.004227	-0.004585	-0.915039	-0.199463	0.634766	-0.108943	-0.739050	0.071168	-0.660963
21032		9.713969	0.614015	-1.067425	0.003707	-0.003537	-0.004362	-0.909668	-0.191650	0.627930	-0.108865	-0.739083	0.071112	-0.660944
21033		9.712590	0.583792	-1.015767	0.002029	-0.001201	-0.000606	-0.914551	-0.201172	0.626221	-0.108778	-0.739082	0.071141	-0.660957
21034		9.741993	0.602399	-1.025165	-0.002072	-0.002828	-0.002170	-0.912354	-0.202148	0.633789	-0.108791	-0.739066	0.071177	-0.660969
21035		9.736897	0.583994	-1.032914	-0.002845	-0.005982	-0.002482	-0.911133	-0.202637	0.627686	-0.108785	-0.739106	0.071188	-0.660923
21036		9.744457	0.589278	-1.022028	-0.000861	-0.000846	0.000490	-0.916992	-0.195312	0.633057	-0.108799	-0.739093	0.071239	-0.660930
21037		9.722195	0.551892	-1.028463	-0.001104	-0.004009	-0.000807	-0.906982	-0.203125	0.627441	-0.108699	-0.739110	0.071232	-0.660929
21038		9.749604	0.562025	-1.014301	0.002116	-0.003508	-0.001408	-0.921875	-0.203369	0.625977	-0.108730	-0.739124	0.071278	-0.660904
21039		9.746510	0.551804	-1.045669	0.003308	-0.001805	-0.001402	-0.910645	-0.192383	0.631836	-0.108687	-0.739088	0.071256	-0.660953
21040		9.726995	0.571423	-1.022886	0.002427	-0.002931	-0.003566	-0.913086	-0.190430	0.628418	-0.108599	-0.739113	0.071246	-0.660941
21041		9.734148	0.552763	-1.038502	0.001367	-0.002912	-0.001597	-0.911133	-0.201904	0.620117	-0.108500	-0.739115	0.071261	-0.660953
21042		9.739049	0.572159	-1.032026	0.001546	-0.004057	-0.005730	-0.913818	-0.193115	0.626953	-0.108575	-0.739091	0.071310	-0.660962
21043		9.756807	0.569434	-1.005705	0.004542	-0.006438	-0.004973	-0.913330	-0.202148	0.626953	-0.108497	-0.739109	0.071292	-0.660957
21044		9.733759	0.554985	-1.040959	0.001964	-0.005507	-0.006035	-0.911621	-0.201660	0.635742	-0.108521	-0.739119	0.071290	-0.660942
21045		9.721379	0.556114	-1.033888	0.005072	-0.006446	-0.005957	-0.908691	-0.202637	0.632568	-0.108481	-0.739180	0.071234	-0.660887
21046		9.725815	0.551674	-1.054324	0.007873	-0.004492	-0.006253	-0.919189	-0.197021	0.624023	-0.108466	-0.739224	0.071188	-0.660845
21047		9.728053	0.584971	-1.052258	0.007255	-0.002175	-0.004467	-0.907471	-0.197998	0.627686	-0.108393	-0.739193	0.071148	-0.660895
21048		9.723376	0.590942	-1.033248	0.008533	-0.002779	-0.005262	-0.916992	-0.200684	0.625732	-0.108367	-0.739210	0.071134	-0.660882
21049		9.741189	0.588014	-1.006660	0.005534	-0.003868	-0.003486	-0.916992	-0.195312	0.635010	-0.108331	-0.739199	0.071114	-0.660903
21050		9.740700	0.564111	-1.033871	0.009523	-0.003679	-0.001244	-0.910889	-0.200439	0.623291	-0.108168	-0.739229	0.071039	-0.660903
21051		9.735654	0.545390	-1.041398	0.004916	-0.001551	-0.001701	-0.913574	-0.198486	0.633057	-0.108176	-0.739206	0.071076	-0.660924
21052		9.755468	0.550484	-1.038324	0.002557	-0.001208	-0.001590	-0.916016	-0.200684	0.626221	-0.108115	-0.739216	0.071063	-0.660925
21053		9.727949	0.540717	-1.053233	0.001808	-0.000614	-0.001780	-0.918701	-0.204102	0.634766	-0.108101	-0.739187	0.071075	-0.660958
21054		9.733619	0.537775	-1.018065	0.003947	-0.000371	-0.003065	-0.916748	-0.196289	0.629639	-0.108048	-0.739189	0.071014	-0.660970
21055		9.733604	0.538216	-1.017977	0.004388	0.001926	-0.003250	-0.912354	-0.201172	0.641602	-0.107973	-0.739163	0.070979	-0.661015
21056		9.710371	0.569712	-1.053781	0.005336	0.000466	-0.004539	-0.922119	-0.195312	0.634033	-0.107894	-0.739207	0.070893	-0.660989
21057		9.737821	0.580454	-1.038955	-0.000462	0.000890	-0.005001	-0.914551	-0.189209	0.624756	-0.107801	-0.739191	0.070830	-0.661029
21058		9.752681	0.566966	-1.042501	0.002469	0.001099	-0.000791	-0.910889	-0.187988	0.631104	-0.107723	-0.739150	0.070870	-0.661082
21059		9.720219	0.538325	-1.064145	0.000309	0.000576	-0.002159	-0.915527	-0.184082	0.629150	-0.107637	-0.739147	0.070891	-0.661098
21060		9.729282	0.499675	-0.996077	0.003308	0.001666	-0.003934	-0.918701	-0.202881	0.622070	-0.107508	-0.739124	0.070879	-0.661146
21061		9.725857	0.536534	-1.028668	0.006042	-0.000688	-0.009654	-0.915283	-0.193115	0.625000	-0.107549	-0.739082	0.070841	-0.661190
21062		9.720465	0.565257	-1.037513	0.006923	0.000440	-0.007491	-0.912598	-0.198730	0.634521	-0.107504	-0.739055	0.070808	-0.661232
21063		9.728026	0.571539	-1.026116	0.005843	0.000179	-0.008174	-0.918213	-0.191650	0.632568	-0.107457	-0.739074	0.070723	-0.661227
21064		9.718006	0.535135	-1.040224	0.008730	-0.000171	-0.009268	-0.917725	-0.193115	0.631836	-0.107337	-0.739079	0.070608	-0.661253
21065		9.731245	0.538148	-0.993796	0.009920	-0.001935	-0.006728	-0.915527	-0.197266	0.627441	-0.107212	-0.739091	0.070509	-0.661271
21066		9.728106	0.528847	-1.025042	0.010757	-0.001367	-0.009870	-0.908936	-0.198975	0.628174	-0.107170	-0.739088	0.070426	-0.661290
21067		9.722671	0.557547	-1.034140	0.009699	-0.001348	-0.007901	-0.915771	-0.197754	0.629150	-0.107162	-0.739099	0.070381	-0.661283
21068		9.740479	0.555413	-1.007323	0.010426	-0.002222	-0.010361	-0.910645	-0.197021	0.629639	-0.107113	-0.739107	0.070283	-0.661292
21069		9.746870	0.559900	-1.051030	0.008397	-0.001025	-0.009757	-0.911621	-0.195801	0.623047	-0.107093	-0.739119	0.070219	-0.661289
21070		9.727254	0.580679	-1.028305	0.008486	-0.003331	-0.010552	-0.915039	-0.192139	0.628418	-0.107110	-0.739114	0.070196	-0.661294
21071		9.714906	0.582314	-1.020657	0.007867	-0.001014	-0.008771	-0.907227	-0.195312	0.626221	-0.107043	-0.739111	0.070133	-0.661315
21072		9.734649	0.588542	-1.017552	0.003900	-0.000929	-0.008362	-0.909668	-0.198975	0.633301	-0.107075	-0.739110	0.070143	-0.661310
21073		9.724269	0.598308	-1.033381	0.000593	0.000870	-0.006966	-0.918701	-0.188721	0.631836	-0.107084	-0.739119	0.070118	-0.661301
21074		9.734142	0.566593	-1.044204	0.001654	-0.002615	-0.006397	-0.910889	-0.197266	0.623779	-0.106979	-0.739125	0.070068	-0.661317
21075		9.717263	0.573175	-1.016732	0.000922	0.001727	-0.006472	-0.917480	-0.205811	0.623047	-0.107032	-0.739088	0.070105	-0.661346
21076		9.752388	0.518872	-1.015185	-0.000045	-0.000562	-0.005301	-0.914551	-0.194580	0.630371	-0.107105	-0.739046	0.070125	-0.661378
21077		9.737426	0.533636	-1.011638	0.002313	-0.000901	-0.005410	-0.915039	-0.194580	0.622314	-0.107059	-0.739046	0.070101	-0.661389
21078		9.746902	0.548027	-1.024186	0.000813	0.000286	-0.005791	-0.917480	-0.211914	0.629395	-0.107074	-0.739004	0.070131	-0.661431
21079		9.727020	0.544031	-1.027400	0.001671	0.001134	-0.006281	-0.916016	-0.192383	0.628906	-0.107143	-0.738981	0.070095	-0.661448
21080		9.732347	0.517623	-1.018540	0.002091	-0.000315	-0.006583	-0.908691	-0.194336	0.623535	-0.107090	-0.738970	0.070065	-0.661472
21081		9.719273	0.541258	-1.038727	0.002705	0.000837	-0.010896	-0.913574	-0.193115	0.626221	-0.107145	-0.738948	0.070075	-0.661487
21082		9.748579	0.561119	-1.047689	0.002529	0.001983	-0.006770	-0.911133	-0.193848	0.623779	-0.107125	-0.738919	0.070067	-0.661523
21083		9.724087	0.562812	-1.031363	0.004535	0.000508	-0.010021	-0.912842	-0.192139	0.627197	-0.107143	-0.738897	0.070055	-0.661546
21084		9.714481	0.550845	-1.018836	0.004534	0.000509	-0.010020	-0.916260	-0.201904	0.626953	-0.107118	-0.738887	0.070013	-0.661567
21085		9.719315	0.571177	-1.011844	0.006364	0.000181	-0.009145	-0.918457	-0.195801	0.631104	-0.107129	-0.738870	0.069958	-0.661589
21086		9.758558	0.558303	-1.031952	0.005597	-0.002974	-0.009449	-0.923096	-0.197021	0.626221	-0.107065	-0.738884	0.069869	-0.661593
21087		9.740827	0.587127	-1.033038	0.004448	-0.000650	-0.006689	-0.906494	-0.189697	0.634033	-0.107005	-0.738855	0.069805	-0.661643
21088		9.740290	0.634141	-1.034821	0.004380	0.001938	-0.003245	-0.909912	-0.192871	0.631348	-0.106924	-0.738871	0.069795	-0.661639
21089		9.744908	0.628993	-1.054028	0.001187	0.001706	0.000003	-0.922852	-0.193359	0.631836	-0.106865	-0.738866	0.069825	-0.661650
21090		9.725882	0.602074	-1.028983	0.000199	-0.000865	-0.001475	-0.921387	-0.193604	0.630615	-0.106750	-0.738854	0.069785	-0.661686
21091		9.734042	0.560611	-1.015503	-0.004762	0.003541	0.006309	-0.915283	-0.196045	0.634277	-0.106643	-0.738808	0.069832	-0.661751
21092		9.727305	0.532610	-0.998316	0.000245	-0.000303	0.003823	-0.915283	-0.198242	0.623291	-0.106539	-0.738814	0.069841	-0.661760
21093		9.747179	0.536848	-0.995003	0.004012	0.000482	0.004891	-0.913818	-0.197510	0.622314	-0.106499	-0.738775	0.069917	-0.661802
21094		9.722488	0.512274	-1.005131	0.006255	0.002171	0.002928	-0.917236	-0.195557	0.622070	-0.106468	-0.738729	0.069980	-0.661851
21095		9.742343	0.516929	-1.001776	0.007074	-0.001009	-0.000324	-0.911133	-0.192871	0.625244	-0.106417	-0.738697	0.070005	-0.661892
21096		9.732800	0.503313	-0.989585	0.004609	-0.002114	0.000465	-0.912354	-0.201904	0.630859	-0.106373	-0.738692	0.070057	-0.661899
21097		9.725158	0.497922	-1.001343	0.005688	-0.001849	0.001149	-0.914062	-0.194824	0.627197	-0.106336	-0.738705	0.070068	-0.661890
21098		9.729232	0.538927	-1.023018	0.004364	-0.001811	-0.003358	-0.916504	-0.200439	0.632568	-0.106300	-0.738703	0.070071	-0.661898
21099		9.744037	0.525787	-1.027377	0.007211	-0.006186	-0.007209	-0.914795	-0.197510	0.627197	-0.106255	-0.738745	0.069995	-0.661866
21100		9.733594	0.535140	-1.043917	0.008857	-0.001899	-0.004746	-0.921143	-0.198730	0.627441	-0.106213	-0.738746	0.069963	-0.661875
21101		9.709062	0.536213	-1.028330	0.008949	-0.004205	-0.005539	-0.914062	-0.191406	0.622314	-0.106142	-0.738750	0.069891	-0.661889
21102		9.723861	0.523049	-1.032783	0.011306	-0.004540	-0.005646	-0.920898	-0.197754	0.624756	-0.106086	-0.738752	0.069875	-0.661898
21103		9.738170	0.556178	-1.038949	0.009384	-0.001906	-0.005727	-0.916992	-0.194092	0.631104	-0.106028	-0.738735	0.069816	-0.661933
21104		9.738060	0.556998	-1.039546	0.007868	-0.004469	-0.006220	-0.918457	-0.197266	0.622314	-0.105945	-0.738761	0.069747	-0.661924
21105		9.740667	0.544068	-1.035681	0.012070	-0.001382	-0.005341	-0.915039	-0.191895	0.629639	-0.105897	-0.738738	0.069705	-0.661962
21106		9.740638	0.544451	-1.035756	0.004072	0.001363	-0.001088	-0.917480	-0.187988	0.627930	-0.105820	-0.738724	0.069703	-0.661990
21107		9.720755	0.539986	-1.039258	0.006367	-0.003284	-0.006601	-0.909668	-0.197998	0.632568	-0.105729	-0.738730	0.069653	-0.662002
21108		9.738608	0.537271	-1.012656	0.007692	-0.003319	-0.002095	-0.920166	-0.198242	0.625244	-0.105685	-0.738765	0.069644	-0.661972
21109		9.740422	0.545918	-1.037016	0.005969	-0.001552	-0.003652	-0.919189	-0.197754	0.621338	-0.105646	-0.738745	0.069619	-0.662003
21110		9.728984	0.524501	-1.000970	0.002977	-0.002650	-0.001881	-0.913574	-0.198486	0.628418	-0.105642	-0.738714	0.069653	-0.662034
21111		9.727759	0.522638	-1.056272	0.007668	-0.003601	-0.004742	-0.918945	-0.192871	0.624268	-0.105622	-0.738730	0.069635	-0.662022
21112		9.725786	0.515114	-1.032879	0.004337	-0.002092	-0.006001	-0.914551	-0.197021	0.624268	-0.105585	-0.738712	0.069615	-0.662050
21113		9.753461	0.550397	-0.992130	0.002532	-0.001483	-0.004228	-0.918701	-0.189209	0.629395	-0.105604	-0.738695	0.069645	-0.662063
21114		9.740045	0.548864	-1.039002	0.001254	-0.000883	-0.003438	-0.909180	-0.190918	0.629883	-0.105523	-0.738686	0.069625	-0.662088
21115		9.737294	0.562984	-1.043490	-0.001302	0.000317	-0.001857	-0.911865	-0.189209	0.629150	-0.105517	-0.738684	0.069686	-0.662085
21116		9.742691	0.536227	-1.034725	0.001980	-0.001758	-0.005893	-0.916504	-0.188232	0.626709	-0.105489	-0.738692	0.069692	-0.662080
21117		9.736168	0.534018	-0.991528	-0.000024	-0.000283	-0.002647	-0.917725	-0.194336	0.625732	-0.105436	-0.738672	0.069712	-0.662108
21118		9.735827	0.510157	-1.018128	0.002754	-0.002066	-0.003054	-0.917480	-0.192139	0.630371	-0.105405	-0.738659	0.069721	-0.662127
21119		9.755587	0.515686	-1.015238	0.005639	-0.002407	-0.004142	-0.917480	-0.189697	0.624268	-0.105323	-0.738668	0.069680	-0.662134
21120		9.732964	0.524882	-1.023356	0.004361	-0.001807	-0.003352	-0.916748	-0.196289	0.624756	-0.105267	-0.738650	0.069685	-0.662162
21121		9.723393	0.511995	-1.011343	0.004981	-0.004122	-0.005124	-0.919189	-0.197998	0.631836	-0.105259	-0.738650	0.069686	-0.662164
21122		9.745019	0.526034	-1.032228	0.007786	0.001591	-0.005314	-0.916748	-0.191406	0.624268	-0.105193	-0.738641	0.069610	-0.662192
21123		9.760196	0.537378	-1.009551	0.008077	-0.001581	-0.007577	-0.920410	-0.191895	0.636719	-0.105154	-0.738630	0.069575	-0.662215
21124		9.732702	0.527702	-1.024391	0.011141	0.000370	-0.001407	-0.914307	-0.198975	0.634277	-0.104971	-0.738645	0.069464	-0.662238
21125		9.734546	0.536234	-1.048352	0.012722	0.000345	-0.004351	-0.909424	-0.192383	0.620605	-0.104886	-0.738664	0.069377	-0.662240
21126		9.728045	0.533906	-1.005117	0.010786	-0.000771	-0.004543	-0.917969	-0.188965	0.628174	-0.104895	-0.738646	0.069420	-0.662254
21127		9.739920	0.509945	-1.039758	0.008429	-0.000439	-0.004436	-0.911865	-0.192139	0.627441	-0.104797	-0.738639	0.069372	-0.662283
21128		9.727641	0.510778	-1.031999	0.008522	-0.002745	-0.005225	-0.917969	-0.197021	0.622803	-0.104763	-0.738651	0.069365	-0.662275
21129		9.744601	0.530279	-1.034009	0.009036	-0.006500	-0.006311	-0.913086	-0.196777	0.631104	-0.104749	-0.738659	0.069344	-0.662270
21130		9.735007	0.517419	-1.022290	0.005861	-0.002986	-0.002963	-0.908691	-0.193604	0.625977	-0.104720	-0.738679	0.069343	-0.662252
21131		9.737105	0.550213	-1.020132	0.005569	0.000187	-0.000702	-0.918457	-0.197998	0.626953	-0.104721	-0.738669	0.069410	-0.662257
21132		9.732197	0.531650	-1.027145	0.005742	-0.000964	-0.004820	-0.915039	-0.193604	0.629150	-0.104701	-0.738656	0.069386	-0.662276
21133		9.750119	0.528980	-1.000150	0.004688	-0.000947	-0.002857	-0.913086	-0.191406	0.629883	-0.104663	-0.738655	0.069389	-0.662284
21134		9.757427	0.510232	-1.015212	0.004266	0.000502	-0.002559	-0.908691	-0.190186	0.621094	-0.104624	-0.738650	0.069403	-0.662294
21135		9.744943	0.486420	-1.033254	0.003094	0.002541	-0.002454	-0.912842	-0.187988	0.625000	-0.104656	-0.738610	0.069492	-0.662325
21136		9.734882	0.519427	-1.022466	0.002462	0.001109	-0.000789	-0.921875	-0.194092	0.634521	-0.104622	-0.738584	0.069546	-0.662353
21137		9.737590	0.506254	-1.018067	0.001977	-0.001759	-0.005887	-0.912109	-0.190918	0.627441	-0.104556	-0.738594	0.069482	-0.662358
21138		9.737574	0.506857	-1.017920	0.001065	0.003730	-0.001859	-0.911621	-0.196045	0.625977	-0.104552	-0.738562	0.069535	-0.662389
21139		9.737568	0.507417	-1.017704	0.002306	-0.000900	-0.005397	-0.912842	-0.191162	0.633057	-0.104599	-0.738555	0.069579	-0.662386
21140		9.747012	0.521577	-1.030123	0.001263	0.002864	-0.003330	-0.913574	-0.191406	0.628174	-0.104577	-0.738546	0.069599	-0.662397
21141		9.739679	0.541156	-1.014804	0.001159	0.001423	-0.002646	-0.918457	-0.187988	0.629883	-0.104568	-0.738528	0.069638	-0.662415
21142		9.744265	0.536061	-1.034191	0.003410	-0.000347	-0.002067	-0.911377	-0.196533	0.627686	-0.104481	-0.738520	0.069627	-0.662438
21143		9.745137	0.514438	-1.005863	0.005016	-0.000087	-0.002365	-0.912109	-0.195557	0.626953	-0.104493	-0.738515	0.069670	-0.662437
21144		9.732045	0.536551	-1.026036	0.003342	0.002245	0.001366	-0.912842	-0.191406	0.627686	-0.104490	-0.738490	0.069741	-0.662458
21145		9.732050	0.536409	-1.026063	0.005135	-0.002109	-0.000506	-0.909912	-0.192383	0.630615	-0.104452	-0.738493	0.069784	-0.662456
21146		9.755226	0.481512	-1.016462	0.003962	-0.000070	-0.000402	-0.910645	-0.191650	0.620850	-0.104442	-0.738497	0.069849	-0.662446
21147		9.730777	0.481965	-1.000534	0.008018	-0.002447	-0.001591	-0.922119	-0.189941	0.629395	-0.104430	-0.738487	0.069902	-0.662454
21148		9.750293	0.462945	-1.023841	0.007148	0.000165	-0.003643	-0.918213	-0.192383	0.626953	-0.104323	-0.738475	0.069840	-0.662490
21149		9.720313	0.491323	-1.016925	0.005835	-0.003269	-0.005603	-0.914795	-0.193604	0.626221	-0.104283	-0.738479	0.069814	-0.662495
21150		9.730578	0.483835	-1.001563	0.004860	-0.002097	-0.006970	-0.906982	-0.196289	0.627930	-0.104291	-0.738479	0.069813	-0.662494
21151		9.750306	0.489935	-0.998690	0.003254	-0.002358	-0.006672	-0.918701	-0.187744	0.629639	-0.104375	-0.738493	0.069884	-0.662458
21152		9.752039	0.499387	-1.023093	0.005584	-0.002972	-0.009421	-0.918945	-0.194336	0.632568	-0.104321	-0.738505	0.069824	-0.662459
21153		9.732082	0.495904	-1.026892	0.006637	-0.002988	-0.011382	-0.914795	-0.189209	0.626465	-0.104302	-0.738527	0.069747	-0.662446
21154		9.729222	0.510877	-1.031702	0.005515	-0.000378	-0.005989	-0.913086	-0.195312	0.616211	-0.104275	-0.738518	0.069742	-0.662460
21155		9.723574	0.539474	-1.041229	0.001388	-0.006069	-0.010293	-0.915039	-0.189941	0.628662	-0.104363	-0.738511	0.069772	-0.662452
21156		9.714883	0.505665	-1.001097	0.000438	-0.004612	-0.009015	-0.914062	-0.196533	0.630127	-0.104379	-0.738528	0.069777	-0.662429
21157		9.726668	0.482720	-1.036368	0.003519	-0.005814	-0.011569	-0.916992	-0.191895	0.627197	-0.104434	-0.738561	0.069766	-0.662385
21158		9.729485	0.495326	-1.006555	0.002439	-0.006083	-0.012251	-0.911377	-0.192627	0.629883	-0.104453	-0.738583	0.069729	-0.662361
21159		9.738699	0.510861	-1.020234	0.001031	-0.007211	-0.013422	-0.907959	-0.196289	0.629150	-0.104529	-0.738625	0.069739	-0.662301
21160		9.759009	0.471914	-1.015896	-0.001222	-0.005442	-0.014001	-0.911621	-0.196289	0.627197	-0.104671	-0.738657	0.069791	-0.662238
21161		9.776767	0.523018	-1.069634	-0.007197	0.003302	-0.012804	-0.909180	-0.192139	0.632568	-0.104822	-0.738624	0.069845	-0.662246
21162		9.769338	0.544232	-1.054097	-0.018106	0.002326	-0.010228	-0.914551	-0.197754	0.627441	-0.105017	-0.738603	0.069998	-0.662221
21163		9.748658	0.510942	-1.004239	-0.020560	0.004961	-0.009335	-0.922119	-0.193359	0.635010	-0.105215	-0.738545	0.070122	-0.662242
21164		9.755475	0.564512	-0.994243	-0.021873	0.001530	-0.011289	-0.918213	-0.193848	0.625244	-0.105347	-0.738518	0.070190	-0.662243
21165		9.721151	0.504582	-1.017713	-0.017885	0.001751	-0.009046	-0.906738	-0.188965	0.625732	-0.105469	-0.738472	0.070263	-0.662268
21166		9.724884	0.470753	-0.984329	-0.008779	0.003334	-0.009853	-0.912354	-0.196777	0.619629	-0.105601	-0.738440	0.070376	-0.662270
21167		9.740886	0.513164	-1.013420	-0.001708	0.002355	-0.010169	-0.909424	-0.189941	0.620361	-0.105687	-0.738398	0.070398	-0.662302
21168		9.746670	0.511549	-0.977466	0.004117	0.006001	-0.006951	-0.916748	-0.197510	0.635254	-0.105703	-0.738345	0.070420	-0.662355
21169		9.755885	0.502041	-1.015730	0.014469	0.002961	-0.011292	-0.917236	-0.186523	0.625000	-0.105682	-0.738349	0.070348	-0.662361
21170		9.739827	0.462881	-0.985709	0.013190	0.003558	-0.010503	-0.909668	-0.190430	0.628418	-0.105582	-0.738325	0.070237	-0.662416
21171		9.744400	0.459028	-1.004823	0.012534	0.001842	-0.011480	-0.910156	-0.200195	0.626465	-0.105580	-0.738326	0.070209	-0.662419
21172		9.738897	0.512778	-0.987187	0.010449	0.002462	-0.016168	-0.917236	-0.192383	0.636230	-0.105672	-0.738317	0.070172	-0.662418
21173		9.751016	0.515021	-0.994930	0.007566	0.002794	-0.015082	-0.915771	-0.197754	0.626709	-0.105688	-0.738321	0.070115	-0.662417
21174		9.733138	0.544628	-0.995155	0.007268	0.005966	-0.012826	-0.915039	-0.189697	0.629639	-0.105722	-0.738283	0.070058	-0.662460
21175		9.736892	0.587313	-1.015884	0.009850	0.005061	-0.011756	-0.918945	-0.195068	0.625977	-0.105698	-0.738261	0.070001	-0.662494
21176		9.734045	0.602485	-1.019808	0.009449	0.003045	-0.008919	-0.911377	-0.195801	0.628662	-0.105653	-0.738235	0.069925	-0.662538
21177		9.707505	0.546933	-1.031852	0.009249	0.003911	-0.007450	-0.913574	-0.192871	0.629150	-0.105673	-0.738218	0.069939	-0.662553
21178		9.700945	0.520425	-1.014255	0.008976	0.003619	-0.002657	-0.911865	-0.195312	0.629150	-0.105636	-0.738198	0.069964	-0.662578
21179		9.741533	0.509489	-0.979041	0.010326	0.000436	-0.006867	-0.913818	-0.193359	0.628418	-0.105642	-0.738201	0.069979	-0.662572
21180		9.709506	0.505212	-0.974031	0.010779	0.003020	-0.004420	-0.914307	-0.199951	0.620361	-0.105606	-0.738185	0.069983	-0.662595
21181		9.761153	0.491807	-1.001713	0.014812	0.000374	-0.008243	-0.914551	-0.184570	0.626709	-0.105575	-0.738170	0.069907	-0.662625
21182		9.731039	0.520499	-0.994421	0.015237	0.002675	-0.008436	-0.915039	-0.196289	0.625977	-0.105472	-0.738160	0.069835	-0.662660
21183		9.737569	0.548706	-1.011326	0.009572	0.001026	-0.007056	-0.915283	-0.188721	0.618652	-0.105460	-0.738148	0.069814	-0.662677
21184		9.715794	0.512019	-1.016878	0.001850	0.000273	-0.007728	-0.913330	-0.195801	0.627686	-0.105428	-0.738120	0.069780	-0.662718
21185		9.703484	0.513483	-1.009040	0.005584	-0.002949	-0.009397	-0.914795	-0.193604	0.626709	-0.105469	-0.738134	0.069796	-0.662694
21186		9.720333	0.533546	-1.010736	0.004858	-0.002076	-0.006950	-0.909180	-0.186035	0.624268	-0.105474	-0.738138	0.069809	-0.662687
21187		9.740036	0.539645	-1.007817	0.007015	-0.001532	-0.005585	-0.924072	-0.195312	0.629150	-0.105448	-0.738142	0.069843	-0.662683
21188		9.722971	0.521804	-1.007087	0.006562	-0.004116	-0.008028	-0.916992	-0.186279	0.632324	-0.105391	-0.738155	0.069771	-0.662685
21189		9.728504	0.495630	-0.998803	0.009996	-0.004164	-0.007446	-0.919678	-0.195557	0.628418	-0.105322	-0.738187	0.069751	-0.662663
21190		9.725544	0.510261	-1.004023	0.008718	-0.003570	-0.006661	-0.914795	-0.198730	0.633789	-0.105278	-0.738201	0.069711	-0.662659
21191		9.733013	0.516572	-0.993228	0.007213	-0.002395	-0.007049	-0.913574	-0.196045	0.627441	-0.105321	-0.738223	0.069753	-0.662623
21192		9.745110	0.517576	-1.001840	0.007412	-0.003260	-0.008515	-0.923828	-0.197754	0.623779	-0.105344	-0.738238	0.069761	-0.662602
21193		9.708217	0.494896	-1.004695	0.011145	-0.006478	-0.010181	-0.916260	-0.192627	0.626465	-0.105262	-0.738257	0.069623	-0.662608
21194		9.705152	0.510132	-1.010547	0.011770	-0.008789	-0.011938	-0.919434	-0.196777	0.628906	-0.105229	-0.738304	0.069555	-0.662567
21195		9.704893	0.512014	-1.012074	0.012819	-0.008799	-0.013892	-0.910400	-0.192383	0.631104	-0.105205	-0.738355	0.069457	-0.662525
21196		9.728321	0.483900	-0.977538	0.012919	-0.011103	-0.014670	-0.913086	-0.189941	0.623535	-0.105240	-0.738432	0.069447	-0.662435
21197		9.695874	0.456990	-1.001198	0.010180	-0.015959	-0.020423	-0.915039	-0.189697	0.624268	-0.105254	-0.738519	0.069344	-0.662347
21198		9.805878	0.431768	-0.969045	0.009846	-0.009323	-0.020718	-0.919678	-0.200684	0.627930	-0.105258	-0.738567	0.069219	-0.662305
21199		9.819486	0.592126	-0.978213	0.009799	-0.002699	-0.014569	-0.909668	-0.199219	0.631592	-0.105268	-0.738577	0.069118	-0.662303
21200		9.777747	0.675876	-0.989242	0.013710	0.003876	-0.008818	-0.913330	-0.195068	0.628418	-0.105314	-0.738567	0.069140	-0.662304
21201		9.745539	0.622652	-1.036855	0.011947	-0.002733	-0.004605	-0.909912	-0.193604	0.622559	-0.105280	-0.738581	0.069145	-0.662294
21202		9.732378	0.520037	-1.055432	0.011718	-0.002152	-0.005777	-0.914551	-0.197021	0.625000	-0.105247	-0.738583	0.069133	-0.662298
21203		9.726998	0.471685	-1.009963	0.006609	0.000212	-0.002647	-0.913818	-0.197021	0.624023	-0.105222	-0.738566	0.069144	-0.662319
21204		9.777054	0.498963	-0.961498	0.004976	-0.000343	-0.004988	-0.921387	-0.194580	0.622314	-0.105222	-0.738551	0.069152	-0.662335
21205		9.761866	0.489027	-0.984081	0.009881	0.001906	-0.006560	-0.910400	-0.198486	0.627930	-0.105115	-0.738520	0.069030	-0.662401
21206		9.746769	0.503532	-0.980313	0.012790	0.001872	-0.005000	-0.917480	-0.190674	0.624756	-0.105128	-0.738510	0.069061	-0.662406
21207		9.730466	0.515226	-1.031326	0.010632	0.001322	-0.006363	-0.916260	-0.197021	0.628418	-0.105040	-0.738491	0.068989	-0.662448
21208		9.730405	0.516095	-1.031471	0.008283	-0.002109	-0.006353	-0.916504	-0.191650	0.630371	-0.105033	-0.738496	0.068986	-0.662444
21209		9.719945	0.549884	-1.021252	0.005367	0.001672	-0.007821	-0.920410	-0.197510	0.633545	-0.105030	-0.738483	0.068990	-0.662459
21210		9.732144	0.575235	-1.003255	0.002199	-0.002328	-0.004685	-0.909668	-0.191406	0.625732	-0.105045	-0.738489	0.069030	-0.662445
21211		9.743604	0.521502	-0.985397	0.005403	-0.001787	-0.005275	-0.912109	-0.187988	0.624756	-0.105060	-0.738491	0.069085	-0.662435
21212		9.740647	0.535532	-0.990440	0.011125	-0.003293	-0.001469	-0.915283	-0.200439	0.627686	-0.104972	-0.738501	0.069094	-0.662437
21213		9.730115	0.543893	-1.006941	0.013250	-0.003027	-0.002740	-0.924805	-0.197754	0.628418	-0.104940	-0.738512	0.069099	-0.662430
21214		9.717799	0.519421	-1.025579	0.014358	-0.002463	0.000578	-0.916504	-0.194824	0.630615	-0.104790	-0.738512	0.069022	-0.662461
21215		9.720642	0.505705	-1.021487	0.009618	-0.002122	-0.001858	-0.916992	-0.187744	0.625977	-0.104751	-0.738520	0.069054	-0.662455
21216		9.720551	0.505893	-1.022263	0.005342	-0.006685	-0.002038	-0.923096	-0.196289	0.626709	-0.104667	-0.738542	0.069056	-0.662444
21217		9.747114	0.462774	-0.982515	0.005835	-0.006978	-0.005650	-0.908447	-0.193848	0.634766	-0.104600	-0.738562	0.068994	-0.662439
21218		9.745805	0.485448	-1.012074	0.007303	-0.004688	-0.007805	-0.917480	-0.193848	0.636963	-0.104690	-0.738599	0.069112	-0.662371
21219		9.741610	0.521740	-1.046025	0.006256	-0.004677	-0.005850	-0.913818	-0.197021	0.628906	-0.104717	-0.738630	0.069181	-0.662325
21220		9.717053	0.523054	-1.030790	0.003449	-0.006951	-0.008184	-0.916016	-0.193604	0.620117	-0.104772	-0.738660	0.069226	-0.662278
21221		9.759327	0.521193	-1.020845	0.004099	-0.005229	-0.007213	-0.913330	-0.196289	0.618896	-0.104722	-0.738664	0.069160	-0.662288
21222		9.742376	0.527957	-0.994064	0.005272	-0.003512	-0.007218	-0.916016	-0.198242	0.622803	-0.104700	-0.738660	0.069112	-0.662302
21223		9.712000	0.531838	-1.013816	0.003900	-0.004362	-0.005750	-0.915039	-0.189453	0.623535	-0.104691	-0.738662	0.069094	-0.662303
21224		9.721102	0.521572	-1.053476	0.001450	-0.005489	-0.004962	-0.909424	-0.192627	0.619629	-0.104656	-0.738671	0.069096	-0.662298
21225		9.719251	0.514362	-1.030365	-0.001983	-0.005453	-0.005544	-0.912598	-0.191406	0.626709	-0.104691	-0.738674	0.069146	-0.662283
21226		9.747607	0.479707	-1.014307	0.004652	-0.004945	-0.005553	-0.920410	-0.193604	0.626221	-0.104691	-0.738691	0.069183	-0.662261
21227		9.732351	0.494690	-1.011652	0.004588	-0.005520	-0.010821	-0.910156	-0.193848	0.626221	-0.104661	-0.738706	0.069108	-0.662256
21228		9.741449	0.509562	-1.025425	0.005278	-0.007254	-0.007301	-0.915283	-0.194824	0.628174	-0.104698	-0.738737	0.069159	-0.662211
21229		9.722700	0.483923	-1.001223	0.004492	-0.006958	-0.010131	-0.908936	-0.197021	0.627197	-0.104727	-0.738766	0.069162	-0.662173
21230		9.751560	0.504176	-1.011825	0.005895	-0.005819	-0.008965	-0.923828	-0.189941	0.630615	-0.104804	-0.738792	0.069226	-0.662125
21231		9.710146	0.486994	-0.995208	0.009294	-0.006139	-0.011016	-0.917480	-0.191406	0.626953	-0.104717	-0.738820	0.069114	-0.662120
21232		9.746504	0.488365	-1.020752	0.006289	-0.007549	-0.011884	-0.913086	-0.186768	0.627197	-0.104694	-0.738852	0.069051	-0.662095
21233		9.728238	0.517604	-1.023041	0.010012	-0.007007	-0.013450	-0.918457	-0.192139	0.627441	-0.104668	-0.738889	0.068993	-0.662063
21234		9.735542	0.500386	-1.039075	0.005534	-0.006964	-0.012077	-0.919434	-0.190674	0.627930	-0.104649	-0.738917	0.068927	-0.662042
21235		9.758029	0.494024	-1.032404	0.004026	-0.005797	-0.012469	-0.914795	-0.196045	0.632080	-0.104626	-0.738937	0.068856	-0.662031
21236		9.774728	0.539169	-1.008602	0.002262	-0.004916	-0.008079	-0.913330	-0.189941	0.629150	-0.104683	-0.738957	0.068913	-0.661993
21237		9.796058	0.578208	-1.004147	0.006251	-0.004664	-0.005842	-0.918701	-0.194092	0.628906	-0.104664	-0.738976	0.068938	-0.661972
21238		9.726119	0.570993	-1.030273	0.007885	-0.004102	-0.003504	-0.913330	-0.189697	0.628662	-0.104599	-0.738986	0.068921	-0.661973
21239		9.737693	0.467850	-1.064838	0.007132	-0.003519	-0.003701	-0.918701	-0.186035	0.623779	-0.104560	-0.738997	0.068948	-0.661964
21240		9.745254	0.498439	-1.027800	0.009997	-0.000088	-0.004694	-0.925781	-0.192627	0.620117	-0.104416	-0.738980	0.068847	-0.662016
21241		9.743534	0.490945	-1.004116	-0.000778	-0.003449	-0.002910	-0.911865	-0.186768	0.624756	-0.104293	-0.738958	0.068745	-0.662071
21242		9.746350	0.453687	-1.026018	0.002772	-0.001177	-0.008971	-0.909424	-0.201660	0.629395	-0.104293	-0.738950	0.068747	-0.662080
21243		9.761412	0.466123	-1.003752	0.006923	-0.002077	-0.010825	-0.916504	-0.193115	0.625488	-0.104404	-0.738959	0.068808	-0.662046
21244		9.760039	0.489254	-1.032408	0.009068	0.002225	-0.009383	-0.910645	-0.194336	0.626953	-0.104368	-0.738934	0.068743	-0.662086
21245		9.723428	0.491187	-1.007846	0.011062	0.000769	-0.012596	-0.910400	-0.196289	0.623779	-0.104403	-0.738928	0.068723	-0.662090
21246		9.734215	0.514430	-1.044639	0.008093	-0.000357	-0.010831	-0.918945	-0.196289	0.631104	-0.104444	-0.738918	0.068718	-0.662094
21247		9.721913	0.516224	-1.036785	0.005843	-0.002354	-0.011500	-0.907715	-0.193604	0.626709	-0.104464	-0.738925	0.068689	-0.662087
21248		9.726370	0.537116	-1.030711	0.007547	-0.004382	-0.012564	-0.910400	-0.186768	0.629150	-0.104536	-0.738946	0.068721	-0.662049
21249		9.745956	0.544271	-1.028269	0.001796	-0.003760	-0.010415	-0.913818	-0.193359	0.628662	-0.104578	-0.738961	0.068764	-0.662020
21250		9.726061	0.540406	-1.031904	0.007477	-0.001787	-0.009162	-0.909912	-0.196289	0.629395	-0.104587	-0.738965	0.068764	-0.662015
21251		9.725974	0.541713	-1.032038	0.005017	0.000824	-0.008295	-0.902588	-0.191406	0.625244	-0.104665	-0.738954	0.068838	-0.662007
21252		9.747019	0.502046	-1.026113	0.007265	0.002823	-0.007624	-0.918457	-0.199219	0.623535	-0.104735	-0.738935	0.068926	-0.662009
21253		9.725592	0.489768	-1.005006	0.008449	0.000799	-0.007712	-0.915283	-0.189697	0.632812	-0.104695	-0.738911	0.068851	-0.662049
21254		9.734722	0.504573	-1.017883	0.009597	-0.001513	-0.010429	-0.921143	-0.189941	0.626221	-0.104691	-0.738922	0.068845	-0.662038
21255		9.752730	0.503497	-0.991029	0.005643	-0.001484	-0.010035	-0.916260	-0.199463	0.636475	-0.104614	-0.738915	0.068737	-0.662069
21256		9.746711	0.507418	-1.026390	0.002662	0.001130	-0.008194	-0.918701	-0.190186	0.616943	-0.104719	-0.738907	0.068837	-0.662052
21257		9.742032	0.514283	-1.007008	0.007799	-0.000921	-0.008674	-0.917969	-0.189453	0.630615	-0.104581	-0.738886	0.068662	-0.662115
21258		9.714637	0.504668	-1.021466	0.006614	0.001103	-0.008586	-0.912598	-0.195557	0.630371	-0.104547	-0.738874	0.068632	-0.662137
21259		9.725129	0.498034	-1.005426	0.010854	0.001650	-0.011125	-0.917480	-0.191406	0.621582	-0.104587	-0.738866	0.068639	-0.662139
21260		9.723683	0.521355	-1.034067	0.007529	-0.000631	-0.012473	-0.911377	-0.194824	0.630615	-0.104530	-0.738852	0.068515	-0.662176
21261		9.717301	0.520722	-0.991083	0.008102	-0.004089	-0.010894	-0.916016	-0.189697	0.630371	-0.104590	-0.738875	0.068557	-0.662137
21262		9.724743	0.503098	-1.006630	0.009933	-0.004387	-0.010015	-0.908447	-0.188477	0.628662	-0.104558	-0.738898	0.068526	-0.662119
21263		9.733740	0.518337	-1.020348	0.009249	-0.006399	-0.013606	-0.917236	-0.185303	0.627197	-0.104597	-0.738936	0.068537	-0.662069
21264		9.742718	0.533704	-1.034107	0.007776	-0.004948	-0.011372	-0.917725	-0.188477	0.627197	-0.104525	-0.738957	0.068448	-0.662067
21265		9.725801	0.516205	-1.033434	0.003860	-0.004634	-0.008351	-0.906494	-0.190918	0.629150	-0.104477	-0.738969	0.068407	-0.662065
21266		9.733216	0.523299	-1.022811	0.003158	-0.002904	-0.011867	-0.919434	-0.186279	0.621826	-0.104578	-0.738982	0.068488	-0.662025
21267		9.734652	0.533039	-1.047561	0.004577	-0.005502	-0.010779	-0.914551	-0.201660	0.631348	-0.104475	-0.738992	0.068353	-0.662045
21268		9.719267	0.572686	-1.018748	0.002387	-0.003183	-0.006117	-0.915283	-0.193604	0.628174	-0.104559	-0.738999	0.068448	-0.662015
21269		9.732784	0.527397	-1.024817	0.001309	-0.003465	-0.006796	-0.915771	-0.200439	0.625244	-0.104577	-0.739002	0.068481	-0.662004
21270		9.741816	0.542073	-1.038251	-0.000093	-0.004609	-0.007956	-0.915527	-0.190918	0.625488	-0.104633	-0.739005	0.068512	-0.661989
21271		9.723367	0.516162	-1.013292	0.001111	-0.002599	-0.005340	-0.927246	-0.190430	0.624756	-0.104608	-0.739000	0.068517	-0.661999
21272		9.732418	0.530476	-1.026698	-0.000900	-0.005179	-0.004835	-0.916748	-0.190674	0.624512	-0.104483	-0.738998	0.068410	-0.662032
21273		9.750528	0.504191	-1.026017	0.003642	-0.000022	-0.006818	-0.909424	-0.183350	0.625488	-0.104441	-0.738978	0.068376	-0.662063
21274		9.738229	0.529861	-0.992021	0.005386	-0.001758	-0.005250	-0.918945	-0.186523	0.633301	-0.104399	-0.738978	0.068398	-0.662068
21275		9.730609	0.500568	-1.029918	0.004092	-0.005206	-0.007174	-0.905518	-0.186279	0.627197	-0.104349	-0.739003	0.068386	-0.662049
21276		9.747203	0.520330	-1.032275	0.004688	-0.004631	-0.002894	-0.916992	-0.198730	0.628418	-0.104356	-0.739021	0.068490	-0.662017
21277		9.737933	0.507442	-1.020309	0.004650	-0.004920	-0.005521	-0.914795	-0.187256	0.626709	-0.104368	-0.739032	0.068521	-0.661999
21278		9.742414	0.502787	-1.040419	0.001307	-0.003464	-0.006793	-0.913818	-0.191650	0.635986	-0.104344	-0.739036	0.068526	-0.661999
21279		9.739263	0.517384	-1.045728	0.002816	-0.004622	-0.006397	-0.918701	-0.191650	0.625000	-0.104385	-0.739061	0.068613	-0.661955
21280		9.746648	0.548581	-1.009120	0.000786	-0.003460	-0.005818	-0.916504	-0.194092	0.628174	-0.104347	-0.739057	0.068593	-0.661968
21281		9.734470	0.524638	-1.027286	0.001560	-0.000009	-0.002922	-0.911133	-0.194824	0.625244	-0.104338	-0.739038	0.068637	-0.661986
21282		9.746516	0.549800	-1.009735	0.002100	-0.003754	-0.003968	-0.918945	-0.189453	0.625732	-0.104368	-0.739040	0.068714	-0.661971
21283		9.729787	0.506775	-1.034635	0.000678	-0.001157	-0.005055	-0.913330	-0.192383	0.618896	-0.104316	-0.739024	0.068692	-0.661999
21284		9.750960	0.491186	-1.002856	0.004039	0.001419	-0.001084	-0.915039	-0.193848	0.628906	-0.104262	-0.738986	0.068703	-0.662049
21285		9.723630	0.480535	-1.017273	0.004864	-0.001752	-0.004275	-0.914062	-0.196289	0.628906	-0.104258	-0.738983	0.068745	-0.662049
21286		9.749453	0.489219	-1.058034	0.004502	-0.002903	-0.007381	-0.914551	-0.192383	0.634277	-0.104296	-0.738988	0.068792	-0.662032
21287		9.738584	0.493597	-0.995557	0.005668	-0.001181	-0.007393	-0.922607	-0.197998	0.636230	-0.104322	-0.738994	0.068843	-0.662016
21288		9.743094	0.489123	-1.015301	0.007697	-0.002341	-0.007970	-0.908691	-0.192383	0.632568	-0.104317	-0.739004	0.068839	-0.662006
21289		9.739950	0.504222	-1.020211	0.005157	-0.000316	-0.012361	-0.915283	-0.182129	0.625732	-0.104417	-0.739009	0.068912	-0.661978
21290		9.729236	0.513876	-1.036309	0.009059	-0.001482	-0.009435	-0.903809	-0.191406	0.630615	-0.104320	-0.739009	0.068823	-0.662001
21291		9.744240	0.526429	-1.014284	0.006815	-0.003487	-0.010100	-0.910889	-0.194336	0.625488	-0.104420	-0.739032	0.068934	-0.661949
21292		9.739556	0.508938	-1.021632	0.007766	-0.004930	-0.011354	-0.917480	-0.188965	0.628418	-0.104454	-0.739050	0.068937	-0.661923
21293		9.748507	0.524033	-1.035234	0.013117	-0.003798	-0.010586	-0.914551	-0.193115	0.629639	-0.104375	-0.739068	0.068845	-0.661925
21294		9.740736	0.544556	-1.020892	0.013652	0.000231	-0.008863	-0.916504	-0.191895	0.622803	-0.104344	-0.739066	0.068815	-0.661936
21295		9.737706	0.534294	-1.051709	0.008057	-0.001184	-0.004860	-0.918701	-0.196045	0.627197	-0.104264	-0.739053	0.068762	-0.661968
21296		9.723930	0.527210	-1.019649	0.008662	0.000252	-0.006524	-0.911621	-0.188232	0.632080	-0.104224	-0.739037	0.068728	-0.661995
21297		9.734572	0.495360	-1.029984	0.005058	-0.002612	-0.005722	-0.919434	-0.189941	0.631104	-0.104235	-0.739049	0.068795	-0.661974
21298		9.745092	0.488083	-1.014699	0.006805	-0.004343	-0.004152	-0.909668	-0.195801	0.627441	-0.104166	-0.739063	0.068786	-0.661970
21299		9.757151	0.488972	-1.023427	0.005860	-0.002041	-0.008839	-0.917236	-0.199219	0.617676	-0.104233	-0.739065	0.068849	-0.661951
21300		9.735726	0.530784	-1.029454	0.003114	-0.000015	-0.005838	-0.919922	-0.190430	0.626221	-0.104204	-0.739032	0.068804	-0.661997
21301		9.749456	0.485557	-1.034901	0.004152	-0.000019	-0.007783	-0.908691	-0.188721	0.631592	-0.104148	-0.739014	0.068744	-0.662031
21302		9.737200	0.486845	-1.027017	0.005017	-0.002900	-0.008343	-0.917236	-0.190186	0.623535	-0.104200	-0.739029	0.068824	-0.661998
21303		9.738515	0.520803	-1.025568	0.004262	-0.002322	-0.008542	-0.912598	-0.189453	0.627197	-0.104153	-0.739023	0.068768	-0.662018
21304		9.718541	0.541518	-1.003215	0.005732	-0.003767	-0.010767	-0.915527	-0.194336	0.633789	-0.104164	-0.739036	0.068763	-0.662003
21305		9.747346	0.537009	-1.039512	0.003460	-0.002892	-0.005424	-0.918457	-0.194824	0.630127	-0.104199	-0.739045	0.068843	-0.661979
21306		9.744164	0.522399	-0.991885	0.002105	-0.002892	-0.009896	-0.927246	-0.187988	0.631592	-0.104228	-0.739048	0.068849	-0.661970
21307		9.744135	0.499135	-1.018503	0.008320	-0.004634	-0.009689	-0.917969	-0.195801	0.623047	-0.104105	-0.739065	0.068714	-0.661985
21308		9.739370	0.506284	-0.999915	0.004889	-0.004625	-0.010270	-0.912842	-0.189941	0.627686	-0.104095	-0.739069	0.068665	-0.661986
21309		9.755991	0.502000	-1.028175	0.005771	-0.003474	-0.008140	-0.917236	-0.191162	0.620605	-0.104093	-0.739079	0.068679	-0.661974
21310		9.733068	0.511269	-1.036408	0.005855	-0.002035	-0.008832	-0.916992	-0.187012	0.623047	-0.104037	-0.739067	0.068604	-0.662004
21311		9.732975	0.512605	-1.036620	0.004666	-0.000018	-0.008751	-0.914551	-0.200928	0.624512	-0.103978	-0.739048	0.068536	-0.662042
21312		9.732881	0.514027	-1.036800	0.004021	-0.001743	-0.009708	-0.920410	-0.195801	0.633789	-0.104046	-0.739038	0.068569	-0.662039
21313		9.728191	0.520945	-1.017582	0.003628	-0.000013	-0.006806	-0.908691	-0.182861	0.620605	-0.104052	-0.739029	0.068590	-0.662045
21314		9.737213	0.535437	-1.030385	0.003950	0.000850	-0.006327	-0.923096	-0.196045	0.625977	-0.104016	-0.739006	0.068589	-0.662077
21315		9.753910	0.530736	-1.058093	0.003222	-0.002314	-0.006591	-0.911133	-0.189941	0.629639	-0.103976	-0.738996	0.068549	-0.662099
21316		9.743229	0.510361	-1.021606	0.001625	-0.002598	-0.006296	-0.911621	-0.192139	0.629395	-0.104013	-0.739001	0.068626	-0.662080
21317		9.755319	0.511278	-1.029969	0.000757	0.000282	-0.005737	-0.916748	-0.193848	0.629639	-0.104065	-0.738987	0.068715	-0.662078
21318		9.744649	0.520065	-1.045627	-0.003304	0.002592	-0.004590	-0.919434	-0.189209	0.623047	-0.104107	-0.738953	0.068791	-0.662101
21319		9.723431	0.507239	-1.024220	-0.003584	0.002019	-0.002446	-0.921143	-0.195801	0.629883	-0.104062	-0.738911	0.068796	-0.662155
21320		9.746237	0.499892	-1.016247	-0.007658	0.000298	-0.003985	-0.923096	-0.195312	0.627197	-0.104106	-0.738883	0.068872	-0.662171
21321		9.729590	0.481574	-1.014528	-0.002114	0.000576	-0.004669	-0.912842	-0.187500	0.624512	-0.104091	-0.738854	0.068879	-0.662205
21322		9.744626	0.493818	-0.992253	0.001066	-0.002884	-0.007945	-0.915771	-0.183594	0.633057	-0.104099	-0.738853	0.068901	-0.662203
21323		9.727677	0.530019	-1.017805	0.004902	-0.000587	-0.007577	-0.912109	-0.201416	0.629883	-0.104057	-0.738856	0.068894	-0.662207
21324		9.735186	0.536468	-1.006553	0.000042	0.001149	-0.003314	-0.912842	-0.193115	0.628418	-0.104158	-0.738833	0.069045	-0.662200
21325		9.739938	0.506723	-1.051730	-0.000518	0.000861	-0.004963	-0.921387	-0.194336	0.633057	-0.104210	-0.738813	0.069138	-0.662205
21326		9.735277	0.513237	-1.032380	-0.000405	-0.001441	-0.005721	-0.906738	-0.186768	0.630615	-0.104219	-0.738808	0.069175	-0.662205
21327		9.718596	0.494962	-1.031048	-0.000167	-0.002016	-0.004550	-0.914062	-0.192627	0.629150	-0.104281	-0.738813	0.069312	-0.662176
21328		9.739837	0.480044	-0.999510	0.001709	-0.001157	-0.006987	-0.909912	-0.183350	0.620605	-0.104320	-0.738808	0.069373	-0.662169
21329		9.738119	0.502651	-1.028757	0.002256	-0.004898	-0.008023	-0.908447	-0.200195	0.627686	-0.104297	-0.738816	0.069372	-0.662163
21330		9.722912	0.492662	-1.051602	0.001791	0.000282	-0.007679	-0.914795	-0.191406	0.633545	-0.104430	-0.738802	0.069512	-0.662144
21331		9.725940	0.480578	-1.047039	0.002184	-0.001446	-0.010578	-0.910889	-0.199463	0.633057	-0.104491	-0.738807	0.069565	-0.662123
21332		9.757533	0.512583	-1.026368	0.004101	-0.000296	-0.010394	-0.906494	-0.195312	0.628174	-0.104624	-0.738805	0.069685	-0.662091
21333		9.760561	0.500698	-1.021725	0.003344	0.000281	-0.010592	-0.922363	-0.193848	0.630615	-0.104750	-0.738797	0.069800	-0.662068
21334		9.764909	0.521545	-1.015091	0.004183	0.001144	-0.011085	-0.918701	-0.191406	0.629639	-0.104744	-0.738780	0.069754	-0.662093
21335		9.734459	0.525389	-1.033983	0.006256	0.000280	-0.009037	-0.921387	-0.196533	0.629883	-0.104723	-0.738771	0.069728	-0.662109
21336		9.732877	0.518959	-1.010026	0.003261	-0.001156	-0.009897	-0.919189	-0.186768	0.622070	-0.104736	-0.738764	0.069716	-0.662116
21337		9.713053	0.514818	-1.013465	0.003935	-0.003170	-0.009005	-0.914062	-0.196777	0.628174	-0.104648	-0.738763	0.069616	-0.662141
21338		9.741648	0.535378	-1.023873	0.003613	-0.004033	-0.009482	-0.910400	-0.190674	0.632080	-0.104709	-0.738774	0.069669	-0.662114
21339		9.747795	0.509440	-1.015035	0.003781	-0.002017	-0.004935	-0.900635	-0.192871	0.633301	-0.104756	-0.738781	0.069784	-0.662087
21340		9.744601	0.523789	-1.019894	0.004701	0.000284	-0.006121	-0.921631	-0.195312	0.625000	-0.104912	-0.738781	0.070008	-0.662038
21341		9.749168	0.519058	-1.039279	0.004701	0.000285	-0.006121	-0.918457	-0.195557	0.633301	-0.104852	-0.738760	0.069954	-0.662077
21342		9.743250	0.492945	-1.021553	-0.000440	0.002300	-0.005653	-0.915527	-0.187988	0.624023	-0.104909	-0.738735	0.070043	-0.662087
21343		9.729603	0.485918	-0.988950	-0.002553	0.002013	-0.004387	-0.908936	-0.187256	0.629150	-0.104886	-0.738701	0.070059	-0.662126
21344		9.746366	0.481135	-1.016247	0.001591	0.001149	-0.006225	-0.919678	-0.193848	0.623291	-0.104934	-0.738687	0.070156	-0.662124
21345		9.734164	0.482166	-1.007990	0.005218	0.000286	-0.007091	-0.916748	-0.189697	0.629395	-0.104877	-0.738667	0.070096	-0.662162
21346		9.749371	0.470137	-1.011666	0.007920	-0.002017	-0.012701	-0.919678	-0.191895	0.629639	-0.104872	-0.738675	0.070056	-0.662158
21347		9.751984	0.512328	-1.034258	0.007445	-0.001727	-0.009110	-0.912354	-0.196289	0.626709	-0.104841	-0.738678	0.070024	-0.662163
21348		9.723169	0.494654	-1.024684	0.008043	-0.000288	-0.010773	-0.918213	-0.187500	0.630615	-0.104889	-0.738672	0.070048	-0.662160
21349		9.730591	0.501982	-1.013748	0.009754	-0.002301	-0.011821	-0.917969	-0.187744	0.627197	-0.104850	-0.738684	0.069989	-0.662158
21350		9.716621	0.525338	-1.034627	0.006164	-0.000289	-0.014265	-0.910400	-0.197266	0.624023	-0.104829	-0.738680	0.069906	-0.662175
21351		9.750036	0.511678	-1.011087	0.009076	-0.000285	-0.012711	-0.913818	-0.192139	0.625977	-0.104887	-0.738673	0.069916	-0.662172
21352		9.743594	0.540535	-1.020769	0.009752	-0.002297	-0.011817	-0.913818	-0.184814	0.625244	-0.104885	-0.738681	0.069884	-0.662168
21353		9.728362	0.531037	-1.043813	0.007516	-0.004313	-0.012476	-0.911865	-0.194092	0.631104	-0.104845	-0.738700	0.069817	-0.662160
21354		9.734276	0.530426	-1.009172	0.008957	-0.002870	-0.008704	-0.908447	-0.191895	0.632568	-0.104889	-0.738714	0.069880	-0.662130
21355		9.731243	0.520552	-1.040217	0.008475	-0.001720	-0.011043	-0.916748	-0.186279	0.628906	-0.104974	-0.738727	0.069969	-0.662093
21356		9.718962	0.521998	-1.032477	0.005010	-0.002874	-0.008315	-0.921875	-0.190918	0.623291	-0.104935	-0.738735	0.069948	-0.662092
21357		9.737349	0.496323	-1.031602	0.002737	-0.001151	-0.008914	-0.910156	-0.185303	0.632812	-0.104864	-0.738722	0.069854	-0.662128
21358		9.743049	0.524922	-1.049480	0.001855	-0.002304	-0.011037	-0.919678	-0.189697	0.628662	-0.104931	-0.738734	0.069927	-0.662096
21359		9.749009	0.524423	-1.014454	0.000901	-0.000866	-0.009789	-0.911377	-0.196045	0.629395	-0.104923	-0.738726	0.069904	-0.662109
21360		9.732401	0.506613	-1.013015	-0.002564	-0.002021	-0.007062	-0.912598	-0.191895	0.631592	-0.105034	-0.738722	0.070039	-0.662082
21361		9.764156	0.513552	-1.018373	-0.000133	-0.000866	-0.007849	-0.916504	-0.192139	0.631592	-0.105112	-0.738718	0.070142	-0.662063
21362		9.755136	0.501253	-1.005296	0.002500	0.003455	-0.007406	-0.912842	-0.197266	0.627441	-0.105145	-0.738689	0.070192	-0.662084
21363		9.732204	0.510434	-1.012993	0.003690	-0.002585	-0.010158	-0.912109	-0.193359	0.620850	-0.105218	-0.738692	0.070250	-0.662063
21364		9.739619	0.517425	-1.002193	0.004812	-0.002006	-0.006865	-0.919922	-0.188965	0.629395	-0.105198	-0.738686	0.070244	-0.662074
21365		9.735190	0.499491	-1.008917	0.003571	-0.000283	-0.009404	-0.913086	-0.190430	0.624023	-0.105170	-0.738678	0.070209	-0.662091
21366		9.735097	0.500901	-1.009109	0.003493	-0.001721	-0.008710	-0.922119	-0.190674	0.625488	-0.105167	-0.738674	0.070208	-0.662096
21367		9.739636	0.496550	-1.028730	0.003812	-0.000856	-0.008233	-0.903076	-0.184082	0.620605	-0.105099	-0.738663	0.070132	-0.662128
21368		9.728507	0.530597	-1.019159	0.001259	-0.003739	-0.009368	-0.915283	-0.196289	0.630127	-0.105133	-0.738671	0.070180	-0.662108
21369		9.742303	0.510673	-0.998946	0.007757	-0.000846	-0.008619	-0.912842	-0.188477	0.628662	-0.105164	-0.738669	0.070218	-0.662101
21370		9.740453	0.533367	-1.027903	0.007515	-0.000270	-0.009788	-0.915771	-0.189453	0.630859	-0.105164	-0.738668	0.070220	-0.662103
21371		9.716039	0.534697	-1.011814	0.004249	-0.002292	-0.008507	-0.916748	-0.194092	0.626953	-0.105172	-0.738674	0.070246	-0.662091
21372		9.734483	0.508954	-1.011004	0.006085	-0.002574	-0.007630	-0.912842	-0.186523	0.626221	-0.105161	-0.738677	0.070248	-0.662090
21373		9.750823	0.529456	-1.013333	0.008313	-0.004581	-0.009644	-0.916748	-0.192871	0.616699	-0.105124	-0.738697	0.070219	-0.662076
21374		9.726665	0.505839	-1.023742	0.005367	-0.005740	-0.007887	-0.916748	-0.197266	0.624756	-0.105045	-0.738705	0.070132	-0.662089
21375		9.747580	0.520769	-1.045864	0.006080	-0.006601	-0.010300	-0.921631	-0.184326	0.628418	-0.105055	-0.738728	0.070122	-0.662063
21376		9.741664	0.495336	-1.029189	0.006476	-0.004297	-0.010517	-0.917236	-0.194580	0.628418	-0.104963	-0.738744	0.070018	-0.662070
21377		9.742617	0.529723	-1.027964	0.005036	-0.001713	-0.011611	-0.914795	-0.190430	0.643555	-0.104987	-0.738745	0.070010	-0.662067
21378		9.744310	0.510248	-0.999236	-0.000865	0.000856	-0.011349	-0.920166	-0.195068	0.625244	-0.105118	-0.738747	0.070140	-0.662030
21379		9.757792	0.519763	-1.031462	-0.000381	-0.000291	-0.009010	-0.906494	-0.186279	0.619873	-0.105123	-0.738727	0.070125	-0.662052
21380		9.740907	0.526961	-1.004084	0.004519	-0.001712	-0.010640	-0.911377	-0.190186	0.636719	-0.105129	-0.738725	0.070119	-0.662055
21381		9.738980	0.549667	-1.033264	0.003730	-0.002289	-0.007532	-0.920898	-0.194824	0.627930	-0.105199	-0.738739	0.070233	-0.662016
21382		9.737452	0.542946	-1.009720	0.006005	-0.004006	-0.006931	-0.909180	-0.189453	0.633545	-0.105160	-0.738748	0.070212	-0.662015
21383		9.716583	0.505592	-1.015190	0.006521	-0.004003	-0.007899	-0.914551	-0.195068	0.630615	-0.105210	-0.738771	0.070305	-0.661971
21384		9.728933	0.481989	-1.049939	0.010981	-0.003985	-0.009253	-0.914062	-0.191406	0.628662	-0.105218	-0.738791	0.070323	-0.661945
21385		9.760231	0.514197	-1.030217	0.010538	-0.006575	-0.011645	-0.904785	-0.186279	0.626709	-0.105210	-0.738826	0.070300	-0.661910
21386		9.743595	0.496615	-1.029584	0.010856	-0.005710	-0.011169	-0.910889	-0.189453	0.628906	-0.105223	-0.738859	0.070320	-0.661869
21387		9.747711	0.517407	-1.023924	0.008383	-0.003131	-0.010326	-0.908447	-0.201660	0.634033	-0.105235	-0.738874	0.070334	-0.661849
21388		9.756449	0.532708	-1.037549	0.010368	-0.004560	-0.013504	-0.910889	-0.193848	0.628662	-0.105380	-0.738903	0.070449	-0.661781
21389		9.744117	0.534454	-1.030188	0.008822	-0.004565	-0.010597	-0.907471	-0.191650	0.623779	-0.105415	-0.738924	0.070480	-0.661749
21390		9.724294	0.530215	-1.033885	0.008381	-0.003128	-0.010323	-0.916260	-0.191162	0.635254	-0.105425	-0.738935	0.070482	-0.661735
21391		9.731639	0.537428	-1.023567	0.009505	-0.006572	-0.009699	-0.906006	-0.185303	0.626709	-0.105441	-0.738972	0.070518	-0.661687
21392		9.736081	0.533036	-1.044003	0.010900	-0.005413	-0.008549	-0.913086	-0.189209	0.625244	-0.105415	-0.739002	0.070527	-0.661657
21393		9.754205	0.532285	-1.017827	0.010141	-0.004841	-0.008749	-0.917236	-0.195557	0.629639	-0.105353	-0.739022	0.070473	-0.661650
21394		9.743287	0.541247	-1.034475	0.007349	-0.003130	-0.008383	-0.906494	-0.195312	0.630371	-0.105351	-0.739030	0.070478	-0.661641
21395		9.769361	0.521106	-1.022451	0.005365	-0.001700	-0.005205	-0.911377	-0.189209	0.629395	-0.105433	-0.739031	0.070622	-0.661611
21396		9.729974	0.510292	-1.028641	0.003847	-0.000558	-0.005607	-0.915039	-0.187256	0.628418	-0.105441	-0.739025	0.070679	-0.661611
21397		9.731286	0.518824	-1.052879	0.003332	-0.000560	-0.004639	-0.907715	-0.199707	0.636475	-0.105397	-0.739016	0.070689	-0.661627
21398		9.746242	0.531170	-1.030836	0.003968	-0.002858	-0.006353	-0.911865	-0.185791	0.625488	-0.105566	-0.739026	0.070917	-0.661564
21399		9.746151	0.532018	-1.031264	0.003772	-0.001995	-0.004911	-0.912354	-0.195557	0.628174	-0.105507	-0.739025	0.070908	-0.661576
21400		9.718933	0.520989	-1.045536	0.001862	0.000872	-0.002430	-0.915039	-0.190674	0.630859	-0.105535	-0.739003	0.071007	-0.661585
21401		9.747445	0.540682	-1.055542	0.003061	-0.001134	-0.002501	-0.906982	-0.195801	0.632324	-0.105528	-0.738996	0.071082	-0.661586
21402		9.729650	0.514091	-1.029817	0.002817	-0.000562	-0.003670	-0.915283	-0.192383	0.628418	-0.105641	-0.738989	0.071277	-0.661555
21403		9.743649	0.493424	-1.009357	0.004335	-0.001703	-0.003268	-0.914307	-0.185059	0.628174	-0.105617	-0.738984	0.071318	-0.661560
21404		9.722019	0.509333	-1.041569	0.005608	-0.002271	-0.004034	-0.917236	-0.191162	0.631592	-0.105545	-0.738987	0.071312	-0.661568
21405		9.752395	0.508059	-1.022985	0.004090	-0.001129	-0.004436	-0.920654	-0.190918	0.636230	-0.105538	-0.738981	0.071364	-0.661570
21406		9.728047	0.508545	-1.006927	0.004016	-0.002567	-0.003740	-0.916016	-0.188232	0.625977	-0.105545	-0.738985	0.071448	-0.661556
21407		9.732582	0.503482	-1.026830	0.008154	-0.003406	-0.005566	-0.921143	-0.198242	0.631104	-0.105453	-0.738994	0.071395	-0.661567
21408		9.737092	0.498481	-1.046917	0.009672	-0.004546	-0.005162	-0.910400	-0.198975	0.629639	-0.105427	-0.739007	0.071411	-0.661554
21409		9.744484	0.505099	-1.036507	0.005999	-0.003995	-0.006914	-0.913818	-0.197266	0.628174	-0.105506	-0.739019	0.071523	-0.661516
21410		9.728923	0.519509	-1.033951	0.005607	-0.006297	-0.006690	-0.914551	-0.188721	0.627441	-0.105533	-0.739041	0.071581	-0.661482
21411		9.735711	0.468532	-1.051136	0.006243	-0.004566	-0.005744	-0.912598	-0.191162	0.618896	-0.105481	-0.739056	0.071571	-0.661474
21412		9.742705	0.500377	-1.015034	0.005116	-0.005151	-0.009027	-0.915039	-0.191406	0.629395	-0.105398	-0.739069	0.071469	-0.661483
21413		9.766820	0.501806	-1.032299	0.006193	-0.004855	-0.008352	-0.911621	-0.194580	0.630615	-0.105394	-0.739087	0.071481	-0.661463
21414		9.731600	0.510658	-1.032575	0.008616	-0.003689	-0.009139	-0.908203	-0.191650	0.627686	-0.105438	-0.739102	0.071538	-0.661433
21415		9.735710	0.531060	-1.026745	0.005556	-0.002557	-0.006640	-0.917480	-0.194336	0.629150	-0.105466	-0.739107	0.071604	-0.661415
21416		9.729026	0.559018	-1.036760	0.004478	-0.002852	-0.007313	-0.917969	-0.188232	0.630615	-0.105465	-0.739109	0.071619	-0.661412
21417		9.726026	0.548308	-1.067779	0.002423	-0.002862	-0.003443	-0.922363	-0.192139	0.630615	-0.105425	-0.739111	0.071647	-0.661413
21418		9.738717	0.520090	-1.023377	0.003769	-0.001991	-0.004906	-0.909180	-0.193604	0.624023	-0.105379	-0.739106	0.071640	-0.661427
21419		9.741933	0.507368	-1.018966	0.003768	-0.001991	-0.004905	-0.912109	-0.185303	0.621582	-0.105380	-0.739102	0.071683	-0.661427
21420		9.745164	0.494531	-1.014482	0.003573	-0.001128	-0.003466	-0.911133	-0.184082	0.628662	-0.105275	-0.739092	0.071631	-0.661460
21421		9.750662	0.522001	-1.032439	0.003573	-0.001128	-0.003466	-0.916016	-0.189697	0.630127	-0.105237	-0.739088	0.071669	-0.661466
21422		9.749682	0.489886	-1.034255	0.005677	-0.000827	-0.004726	-0.912598	-0.196533	0.630127	-0.105208	-0.739082	0.071693	-0.661475
21423		9.738821	0.498038	-1.050408	0.005410	-0.001401	-0.002589	-0.908691	-0.193604	0.629395	-0.105239	-0.739076	0.071803	-0.661465
21424		9.729929	0.484989	-1.037723	0.004845	-0.001695	-0.004230	-0.919678	-0.192383	0.633301	-0.105286	-0.739074	0.071917	-0.661447
21425		9.741605	0.510667	-1.020451	0.004086	-0.001125	-0.004432	-0.914795	-0.188721	0.625244	-0.105287	-0.739068	0.071974	-0.661448
21426		9.730724	0.519005	-1.036666	0.003768	-0.001990	-0.004904	-0.916748	-0.195312	0.626709	-0.105230	-0.739064	0.071958	-0.661463
21427		9.741464	0.511906	-1.021170	0.005851	-0.002835	-0.002858	-0.918701	-0.196289	0.625488	-0.105192	-0.739062	0.071983	-0.661468
21428		9.741782	0.487508	-1.047392	0.005040	-0.002557	-0.005668	-0.917480	-0.189941	0.633301	-0.105157	-0.739059	0.071971	-0.661479
21429		9.730505	0.520794	-1.037815	0.007071	0.000336	-0.003579	-0.923584	-0.188965	0.633789	-0.105136	-0.739048	0.072021	-0.661489
21430		9.737076	0.494107	-1.028476	0.007492	-0.002244	-0.000542	-0.913330	-0.192627	0.628906	-0.105050	-0.739048	0.072038	-0.661501
21431		9.737019	0.494366	-1.028895	0.005604	-0.002262	-0.004026	-0.906250	-0.192871	0.629395	-0.105051	-0.739048	0.072101	-0.661494
21432		9.733634	0.508323	-1.034188	0.007123	-0.003400	-0.003621	-0.918457	-0.187012	0.638672	-0.105095	-0.739058	0.072228	-0.661461
21433		9.741061	0.514591	-1.023670	0.005532	-0.003699	-0.003328	-0.919434	-0.185547	0.635010	-0.105108	-0.739072	0.072336	-0.661432
21434		9.745609	0.508956	-1.043583	0.005388	-0.002544	0.000719	-0.913574	-0.187500	0.626953	-0.105052	-0.739074	0.072409	-0.661430
21435		9.733425	0.508982	-1.035837	0.007440	-0.002534	-0.003149	-0.912354	-0.190186	0.631836	-0.104984	-0.739077	0.072412	-0.661437
21436		9.752126	0.482407	-1.034748	0.002863	-0.000267	-0.001058	-0.920410	-0.181641	0.636719	-0.105005	-0.739065	0.072537	-0.661434
21437		9.739993	0.482428	-1.026533	0.003181	0.000599	-0.000586	-0.911865	-0.187500	0.629883	-0.104960	-0.739051	0.072605	-0.661450
21438		9.720339	0.476803	-1.029417	0.003129	0.000307	-0.003194	-0.911865	-0.184814	0.627441	-0.104963	-0.739037	0.072683	-0.661456
21439		9.736657	0.496589	-1.031248	0.003129	0.000307	-0.003194	-0.915283	-0.191895	0.629639	-0.104927	-0.739022	0.072717	-0.661474
21440		9.743232	0.470333	-1.021781	0.008537	-0.001091	-0.005779	-0.924072	-0.187012	0.627930	-0.104913	-0.739019	0.072744	-0.661477
21441		9.747389	0.489996	-1.015713	0.006731	-0.001671	-0.000742	-0.916016	-0.189941	0.629883	-0.104776	-0.739012	0.072690	-0.661513
21442		9.732289	0.478839	-1.038404	0.009491	-0.002522	-0.007014	-0.916748	-0.181885	0.633301	-0.104749	-0.739019	0.072693	-0.661510
21443		9.744321	0.479694	-1.047153	0.003694	-0.003426	-0.004201	-0.910156	-0.190918	0.626221	-0.104717	-0.739028	0.072736	-0.661499
21444		9.746248	0.459320	-1.018711	0.006628	-0.002255	-0.005956	-0.916748	-0.192139	0.624756	-0.104716	-0.739030	0.072774	-0.661493
21445		9.725413	0.507966	-1.049250	0.002051	0.000010	-0.003867	-0.913086	-0.195801	0.634277	-0.104684	-0.739010	0.072783	-0.661520
21446		9.744133	0.481793	-1.047939	0.003323	-0.000555	-0.004630	-0.916016	-0.190918	0.629883	-0.104776	-0.739001	0.072938	-0.661498
21447		9.743704	0.507428	-1.022104	0.003517	0.002611	-0.003420	-0.919678	-0.188721	0.635742	-0.104777	-0.738972	0.072999	-0.661524
21448		9.735301	0.469526	-1.034562	0.005744	0.000614	-0.005418	-0.916504	-0.188477	0.635742	-0.104791	-0.738959	0.073065	-0.661528
21449		9.728611	0.497444	-1.044168	0.003025	-0.000277	-0.008406	-0.914307	-0.187256	0.625977	-0.104859	-0.738953	0.073156	-0.661515
21450		9.736059	0.504356	-1.033126	0.003836	-0.000552	-0.005596	-0.910156	-0.195312	0.634277	-0.104822	-0.738942	0.073154	-0.661533
21451		9.763624	0.491753	-1.044536	0.000407	0.003446	-0.003533	-0.919434	-0.190918	0.629639	-0.104952	-0.738909	0.073358	-0.661526
21452		9.747309	0.473009	-1.042357	-0.000299	0.000278	-0.003776	-0.908691	-0.198730	0.626221	-0.104956	-0.738888	0.073413	-0.661543
21453		9.745989	0.466151	-1.018080	-0.002383	0.001118	-0.005822	-0.916016	-0.191162	0.635254	-0.105071	-0.738861	0.073556	-0.661539
21454		9.766746	0.419273	-0.987798	0.006380	-0.001681	-0.007122	-0.912109	-0.191162	0.630371	-0.105135	-0.738863	0.073663	-0.661515
21455		9.721608	0.468180	-1.001847	0.012810	0.000961	-0.008990	-0.917480	-0.188965	0.626709	-0.105149	-0.738855	0.073690	-0.661518
21456		9.739574	0.471347	-1.053696	0.012421	-0.001341	-0.008761	-0.915039	-0.192139	0.628174	-0.105071	-0.738858	0.073612	-0.661536
21457		9.723146	0.453415	-1.052301	0.009632	-0.003669	-0.011048	-0.912354	-0.186768	0.626709	-0.105076	-0.738872	0.073598	-0.661521
21458		9.746738	0.418758	-0.992083	0.016236	-0.003032	-0.011047	-0.920410	-0.187744	0.629395	-0.105009	-0.738892	0.073519	-0.661519
21459		9.744065	0.466547	-0.996358	0.018075	-0.007328	-0.012811	-0.912109	-0.174805	0.627686	-0.104917	-0.738935	0.073396	-0.661499
21460		9.742623	0.522193	-1.024965	0.016624	-0.004755	-0.013914	-0.915527	-0.189209	0.630127	-0.104800	-0.738970	0.073247	-0.661494
21461		9.718182	0.523905	-1.009392	0.014838	-0.004192	-0.012184	-0.918213	-0.192139	0.629639	-0.104775	-0.738995	0.073199	-0.661477
21462		9.748965	0.498922	-1.016840	0.012045	-0.002493	-0.011827	-0.915527	-0.195312	0.631104	-0.104760	-0.739004	0.073155	-0.661473
21463		9.745491	0.513859	-1.022117	0.009749	-0.001934	-0.009133	-0.915039	-0.185547	0.632080	-0.104795	-0.739007	0.073196	-0.661459
21464		9.737875	0.509309	-1.033619	0.011337	-0.001630	-0.009424	-0.917236	-0.189209	0.628174	-0.104778	-0.739015	0.073191	-0.661454
21465		9.734415	0.523771	-1.038939	0.008143	-0.003378	-0.005535	-0.913574	-0.190430	0.633789	-0.104725	-0.739023	0.073179	-0.661455
21466		9.738098	0.486487	-1.060432	0.010897	-0.004226	-0.011796	-0.909424	-0.192139	0.626465	-0.104778	-0.739045	0.073224	-0.661417
21467		9.757614	0.493725	-1.057983	0.003831	-0.000548	-0.005588	-0.912109	-0.192627	0.628662	-0.104803	-0.739035	0.073289	-0.661417
21468		9.733325	0.494410	-1.041537	0.008913	0.001230	-0.005994	-0.914795	-0.189209	0.617676	-0.104810	-0.739020	0.073332	-0.661428
21469		9.752931	0.501226	-1.038435	0.005804	0.002059	-0.006110	-0.908691	-0.187012	0.625732	-0.104680	-0.738993	0.073198	-0.661493
21470		9.744144	0.488579	-1.025206	0.005735	0.000623	-0.005410	-0.916504	-0.188232	0.628174	-0.104664	-0.738980	0.073225	-0.661507
21471		9.716507	0.502670	-1.013452	0.004215	0.001756	-0.005818	-0.918701	-0.186279	0.623535	-0.104643	-0.738957	0.073233	-0.661536
21472		9.721101	0.497847	-1.032579	0.002061	0.001154	-0.007164	-0.909424	-0.179932	0.620117	-0.104572	-0.738934	0.073160	-0.661581
21473		9.733171	0.498768	-1.040894	-0.002275	-0.002333	-0.003250	-0.910889	-0.186035	0.626709	-0.104498	-0.738928	0.073142	-0.661601
21474		9.731054	0.459550	-1.018512	-0.002631	-0.002353	-0.009626	-0.906494	-0.187256	0.625977	-0.104550	-0.738926	0.073188	-0.661589
21475		9.730148	0.428451	-1.020605	0.002954	-0.005741	-0.010330	-0.916016	-0.185547	0.627686	-0.104598	-0.738950	0.073234	-0.661551
21476		9.753747	0.455485	-1.012140	0.004677	-0.002563	-0.012022	-0.918213	-0.188232	0.631104	-0.104591	-0.738956	0.073192	-0.661550
21477		9.727959	0.510820	-1.024068	0.006574	-0.006563	-0.011177	-0.915527	-0.189941	0.624268	-0.104596	-0.738985	0.073185	-0.661517
21478		9.739905	0.512310	-1.033251	0.007260	-0.004534	-0.007635	-0.903076	-0.197021	0.626709	-0.104548	-0.738997	0.073148	-0.661515
21479		9.739769	0.513665	-1.033856	0.005240	-0.002264	-0.010381	-0.909668	-0.186523	0.629639	-0.104666	-0.739002	0.073262	-0.661479
21480		9.720018	0.509049	-1.037296	0.006499	-0.003967	-0.007838	-0.913574	-0.188965	0.625488	-0.104682	-0.739018	0.073309	-0.661453
21481		9.748414	0.468480	-0.996410	0.005422	-0.004268	-0.008510	-0.912354	-0.183594	0.624756	-0.104663	-0.739030	0.073296	-0.661444
21482		9.719017	0.478808	-1.040077	0.007326	-0.003095	-0.008333	-0.915039	-0.180420	0.630615	-0.104600	-0.739040	0.073242	-0.661449
21483		9.747240	0.499492	-1.050890	0.002562	-0.004011	-0.007457	-0.917480	-0.190186	0.631836	-0.104575	-0.739053	0.073246	-0.661438
21484		9.742998	0.481429	-1.057792	0.000724	-0.003748	-0.008334	-0.911621	-0.187012	0.630127	-0.104621	-0.739060	0.073305	-0.661417
21485		9.730769	0.482417	-1.050102	-0.000493	-0.002892	-0.004971	-0.915527	-0.187744	0.624512	-0.104657	-0.739061	0.073397	-0.661399
21486		9.740351	0.468306	-1.010315	0.000085	-0.001452	-0.006636	-0.918213	-0.182617	0.626953	-0.104636	-0.739051	0.073392	-0.661414
21487		9.733480	0.496061	-1.020344	0.001095	-0.002586	-0.005263	-0.911621	-0.188232	0.629150	-0.104575	-0.739049	0.073369	-0.661429
21488		9.746754	0.504407	-1.053048	0.001216	-0.000855	-0.003362	-0.912842	-0.188477	0.625732	-0.104593	-0.739039	0.073456	-0.661428
21489		9.743311	0.518418	-1.058016	-0.000621	-0.000593	-0.004239	-0.903564	-0.187744	0.632568	-0.104597	-0.739023	0.073509	-0.661439
21490		9.737961	0.492027	-1.040125	-0.002914	-0.000040	-0.001549	-0.904053	-0.186279	0.633545	-0.104698	-0.739010	0.073716	-0.661414
21491		9.722916	0.480663	-1.062576	-0.002591	-0.003202	-0.003714	-0.909424	-0.182861	0.634033	-0.104806	-0.739016	0.073912	-0.661368
21492		9.744644	0.466367	-1.030985	-0.002209	-0.000898	-0.003946	-0.919678	-0.187256	0.637207	-0.104868	-0.739010	0.074052	-0.661350
21493		9.740504	0.447644	-1.037390	-0.004308	-0.001209	-0.002690	-0.917236	-0.192383	0.628174	-0.104933	-0.738998	0.074201	-0.661337
21494		9.739952	0.473467	-1.011755	-0.001317	0.001409	-0.005143	-0.911377	-0.195068	0.629150	-0.104963	-0.738969	0.074263	-0.661356
21495		9.739233	0.441635	-1.013031	0.000716	0.000284	-0.005699	-0.916748	-0.190918	0.631592	-0.105043	-0.738951	0.074381	-0.661351
21496		9.740405	0.449993	-1.037298	0.004075	-0.001108	-0.004414	-0.911133	-0.184082	0.629395	-0.105060	-0.738943	0.074457	-0.661348
21497		9.727674	0.475862	-1.003920	0.005987	-0.003963	-0.006870	-0.919434	-0.194824	0.628662	-0.105047	-0.738959	0.074485	-0.661330
21498		9.734081	0.511340	-1.046575	0.003193	-0.002273	-0.006518	-0.910889	-0.183838	0.626465	-0.105063	-0.738954	0.074522	-0.661329
21499		9.744205	0.472108	-1.032524	0.004715	-0.003402	-0.006109	-0.920898	-0.195068	0.621582	-0.105027	-0.738963	0.074527	-0.661323
21500		9.740665	0.486569	-1.038103	0.004593	-0.005131	-0.008009	-0.922119	-0.194336	0.631348	-0.104972	-0.738972	0.074460	-0.661330
21501		9.766957	0.466907	-1.026367	0.006747	-0.004525	-0.006664	-0.913574	-0.183838	0.630127	-0.104970	-0.738983	0.074487	-0.661315
21502		9.728279	0.488632	-1.031408	0.004147	-0.003699	-0.007744	-0.917725	-0.186523	0.632080	-0.104964	-0.738995	0.074508	-0.661300
21503		9.740282	0.489831	-1.040159	0.003191	-0.002272	-0.006516	-0.922852	-0.192627	0.625732	-0.104967	-0.738996	0.074547	-0.661294
21504		9.735590	0.496472	-1.021145	0.002487	-0.001413	-0.004120	-0.908691	-0.192139	0.632080	-0.104918	-0.738982	0.074535	-0.661319
21505		9.740167	0.491189	-1.040593	0.003118	0.000321	-0.003185	-0.914062	-0.187012	0.634766	-0.104988	-0.738968	0.074686	-0.661306
21506		9.755686	0.478317	-1.043900	0.001847	0.000881	-0.002425	-0.921875	-0.187744	0.622314	-0.105026	-0.738950	0.074814	-0.661305
21507		9.734825	0.465337	-1.022820	0.003126	-0.003707	-0.005814	-0.918945	-0.186768	0.629883	-0.104928	-0.738951	0.074730	-0.661329
21508		9.739376	0.460171	-1.042484	0.005466	0.000065	-0.003272	-0.911621	-0.186523	0.627686	-0.104880	-0.738937	0.074747	-0.661351
21509		9.739331	0.460766	-1.042644	0.001409	-0.001716	-0.004791	-0.916748	-0.195557	0.630615	-0.104885	-0.738933	0.074805	-0.661348
21510		9.750191	0.454123	-1.026876	0.005409	-0.000229	-0.005872	-0.925293	-0.193115	0.627197	-0.104923	-0.738920	0.074879	-0.661348
21511		9.734598	0.468315	-1.023623	0.006680	-0.000788	-0.006631	-0.913818	-0.176270	0.629150	-0.104869	-0.738907	0.074836	-0.661376
21512		9.730458	0.450082	-1.030061	0.006113	-0.001086	-0.008266	-0.910156	-0.188721	0.627197	-0.104806	-0.738909	0.074791	-0.661389
21513		9.739071	0.465075	-1.043153	0.007262	0.001796	-0.011596	-0.922363	-0.187744	0.630859	-0.104834	-0.738894	0.074791	-0.661401
21514		9.723513	0.479687	-1.039328	0.006168	0.004380	-0.006338	-0.913330	-0.187012	0.625000	-0.104801	-0.738857	0.074778	-0.661449
21515		9.741889	0.479354	-1.012073	0.010558	-0.001026	-0.009606	-0.914795	-0.184814	0.628906	-0.104755	-0.738858	0.074726	-0.661462
21516		9.742376	0.455528	-1.037781	0.008525	0.000097	-0.009051	-0.912842	-0.191650	0.629883	-0.104728	-0.738852	0.074703	-0.661475
21517		9.745178	0.468685	-1.007341	0.009349	0.000970	-0.009547	-0.915527	-0.179199	0.633301	-0.104756	-0.738841	0.074732	-0.661479
21518		9.734187	0.477549	-1.023268	0.010620	0.000412	-0.010304	-0.923828	-0.188721	0.627686	-0.104720	-0.738841	0.074697	-0.661489
21519		9.737529	0.465709	-1.018619	0.009164	-0.002195	-0.010740	-0.909668	-0.181152	0.626953	-0.104668	-0.738843	0.074617	-0.661505
21520		9.718423	0.493927	-1.020421	0.010304	-0.000453	-0.010769	-0.911865	-0.187256	0.618896	-0.104631	-0.738845	0.074570	-0.661513
21521		9.750038	0.501522	-1.026021	0.004525	-0.001391	-0.007967	-0.914307	-0.181396	0.624756	-0.104585	-0.738837	0.074522	-0.661535
21522		9.722870	0.490591	-1.040248	0.006362	-0.001649	-0.007090	-0.919678	-0.193115	0.626465	-0.104518	-0.738836	0.074477	-0.661551
21523		9.748698	0.496269	-1.002236	0.003316	0.000603	-0.007911	-0.913086	-0.191895	0.627441	-0.104530	-0.738815	0.074489	-0.661571
21524		9.737123	0.471945	-1.019630	0.006929	-0.001348	-0.005454	-0.915771	-0.190674	0.633301	-0.104534	-0.738811	0.074538	-0.661570
21525		9.733610	0.486118	-1.024717	0.007753	-0.000475	-0.005950	-0.915771	-0.188477	0.625000	-0.104553	-0.738807	0.074603	-0.661564
21526		9.732356	0.479594	-1.000791	0.007633	-0.002205	-0.007845	-0.919678	-0.182373	0.625732	-0.104518	-0.738808	0.074580	-0.661571
21527		9.743800	0.448052	-1.010781	0.005537	-0.002520	-0.006591	-0.911133	-0.185547	0.629395	-0.104443	-0.738808	0.074527	-0.661589
21528		9.740235	0.462493	-1.016226	0.002560	-0.004004	-0.007437	-0.914795	-0.184082	0.628174	-0.104468	-0.738821	0.074583	-0.661564
21529		9.756251	0.483103	-1.018853	0.004460	-0.002825	-0.007262	-0.914307	-0.191895	0.627441	-0.104450	-0.738826	0.074591	-0.661560
21530		9.752672	0.497607	-1.024322	0.002559	-0.004003	-0.007436	-0.916504	-0.188232	0.632080	-0.104486	-0.738834	0.074648	-0.661540
21531		9.749133	0.511876	-1.029502	0.001276	0.000583	-0.004057	-0.917725	-0.183594	0.622803	-0.104509	-0.738816	0.074731	-0.661547
21532		9.725522	0.486779	-1.038387	0.003996	0.001495	-0.001079	-0.913330	-0.193848	0.630371	-0.104416	-0.738788	0.074714	-0.661595
21533		9.737630	0.487090	-1.046557	0.003366	-0.000241	-0.002011	-0.910400	-0.187988	0.622070	-0.104451	-0.738774	0.074835	-0.661591
21534		9.745691	0.468248	-1.061107	0.005147	-0.000793	-0.003731	-0.916016	-0.188721	0.626709	-0.104420	-0.738763	0.074861	-0.661605
21535		9.739862	0.467082	-1.017695	0.003875	-0.000235	-0.002974	-0.914307	-0.188965	0.628906	-0.104399	-0.738747	0.074906	-0.661621
21536		9.716749	0.474846	-1.025745	0.003693	-0.003402	-0.004166	-0.915039	-0.186768	0.633301	-0.104405	-0.738753	0.074975	-0.661606
21537		9.739164	0.435557	-1.019906	0.008136	-0.003336	-0.005505	-0.914307	-0.190674	0.625732	-0.104400	-0.738766	0.075028	-0.661586
21538		9.719454	0.430323	-1.023527	0.008777	-0.005628	-0.007192	-0.916016	-0.190918	0.632324	-0.104382	-0.738786	0.075037	-0.661565
21539		9.744064	0.464349	-1.039630	0.005667	-0.004815	-0.007312	-0.920898	-0.179688	0.632324	-0.104416	-0.738804	0.075105	-0.661533
21540		9.728318	0.478903	-1.037246	0.006056	-0.006541	-0.010168	-0.920410	-0.187012	0.633301	-0.104377	-0.738834	0.075065	-0.661510
21541		9.743106	0.492386	-1.016044	0.004337	-0.004554	-0.009151	-0.911865	-0.183105	0.638916	-0.104392	-0.738850	0.075088	-0.661487
21542		9.742435	0.461096	-1.018047	0.003575	-0.003991	-0.009356	-0.913574	-0.187500	0.628906	-0.104461	-0.738871	0.075182	-0.661441
21543		9.716868	0.490579	-1.055789	0.003961	-0.006856	-0.008912	-0.912109	-0.186035	0.629639	-0.104482	-0.738899	0.075216	-0.661403
21544		9.742602	0.496731	-1.018751	0.001360	-0.006039	-0.009994	-0.914062	-0.189453	0.629883	-0.104527	-0.738923	0.075261	-0.661365
21545		9.751692	0.486472	-1.058134	-0.003977	-0.003248	-0.008135	-0.903564	-0.186523	0.631104	-0.104607	-0.738923	0.075354	-0.661341
21546		9.749815	0.505389	-1.008945	-0.003156	-0.003514	-0.005333	-0.914795	-0.185059	0.632568	-0.104704	-0.738931	0.075511	-0.661299
21547		9.731329	0.507273	-1.036061	-0.008567	0.001869	-0.000154	-0.913330	-0.186523	0.631104	-0.104761	-0.738896	0.075667	-0.661311
21548		9.745779	0.486895	-1.015118	-0.005892	-0.001539	-0.002392	-0.906982	-0.185303	0.627930	-0.104817	-0.738884	0.075803	-0.661300
21549		9.745240	0.454604	-1.016566	-0.003230	-0.000920	-0.002012	-0.915771	-0.190186	0.628418	-0.104855	-0.738872	0.075926	-0.661293
21550		9.729605	0.468136	-1.013475	-0.000943	-0.002604	-0.001396	-0.910889	-0.183105	0.635498	-0.104867	-0.738865	0.076024	-0.661288
21551		9.746273	0.462844	-1.041372	-0.001451	-0.001470	-0.003732	-0.904785	-0.185059	0.623047	-0.104926	-0.738862	0.076163	-0.661266
21552		9.749704	0.450177	-1.036739	0.001405	-0.001712	-0.004780	-0.913818	-0.183105	0.622559	-0.104924	-0.738858	0.076210	-0.661265
21553		9.744512	0.424282	-1.019015	0.001346	-0.002007	-0.007375	-0.921387	-0.183838	0.631836	-0.104883	-0.738854	0.076177	-0.661280
21554		9.732340	0.425115	-1.011044	-0.000942	-0.001463	-0.004693	-0.920898	-0.189697	0.626465	-0.104878	-0.738845	0.076220	-0.661286
21555		9.729880	0.446944	-1.040579	0.004141	-0.003684	-0.007721	-0.916748	-0.190186	0.632324	-0.104858	-0.738848	0.076208	-0.661287
21556		9.745857	0.467554	-1.043159	0.008702	-0.001883	-0.007168	-0.912598	-0.190918	0.627930	-0.104864	-0.738851	0.076245	-0.661278
21557		9.749734	0.488149	-1.037385	0.008641	-0.002177	-0.009762	-0.913330	-0.186768	0.628906	-0.104879	-0.738857	0.076257	-0.661268
21558		9.737508	0.489384	-1.029669	0.008581	-0.003612	-0.009058	-0.914551	-0.184814	0.626465	-0.104869	-0.738871	0.076257	-0.661254
21559		9.744386	0.463926	-1.020528	0.008072	-0.003617	-0.008095	-0.919678	-0.194824	0.631592	-0.104826	-0.738883	0.076227	-0.661251
21560		9.740313	0.445574	-1.027200	0.008192	-0.001886	-0.006203	-0.916504	-0.178223	0.633545	-0.104839	-0.738882	0.076276	-0.661245
21561		9.736692	0.459973	-1.032707	0.010104	-0.004731	-0.008644	-0.921143	-0.187988	0.625488	-0.104787	-0.738907	0.076247	-0.661228
21562		9.731917	0.467317	-1.014208	0.009281	-0.004465	-0.011443	-0.919922	-0.178955	0.627686	-0.104738	-0.738922	0.076166	-0.661228
21563		9.725359	0.470520	-1.050444	0.007067	-0.006515	-0.012079	-0.911865	-0.187500	0.633057	-0.104676	-0.738951	0.076072	-0.661216
21564		9.744310	0.445606	-1.049816	0.005917	-0.004229	-0.009432	-0.921875	-0.195068	0.629395	-0.104716	-0.738970	0.076124	-0.661183
21565		9.759108	0.459416	-1.028412	0.005600	-0.003957	-0.013192	-0.912598	-0.189941	0.623047	-0.104759	-0.738979	0.076116	-0.661167
21566		9.763564	0.455530	-1.048367	0.004329	-0.003403	-0.012435	-0.916260	-0.182861	0.634521	-0.104777	-0.738986	0.076089	-0.661159
21567		9.766313	0.469290	-1.018207	0.004058	0.001192	-0.010991	-0.914307	-0.191895	0.629883	-0.104806	-0.738974	0.076101	-0.661166
21568		9.736078	0.504931	-1.035673	0.001083	-0.000299	-0.011832	-0.910400	-0.191406	0.631348	-0.104886	-0.738964	0.076147	-0.661160
21569		9.732048	0.487167	-1.041840	0.006152	0.000375	-0.008946	-0.922607	-0.193115	0.626709	-0.104940	-0.738956	0.076209	-0.661154
21570		9.728031	0.469337	-1.047985	0.002159	0.000010	-0.011161	-0.917725	-0.184326	0.624756	-0.104964	-0.738938	0.076192	-0.661172
21571		9.732548	0.465119	-1.067530	0.003627	-0.002544	-0.010044	-0.910889	-0.180664	0.625977	-0.104932	-0.738938	0.076140	-0.661183
21572		9.735269	0.478599	-1.037650	0.004389	-0.003103	-0.009838	-0.906494	-0.187744	0.631836	-0.104909	-0.738948	0.076110	-0.661179
21573		9.749703	0.459500	-1.017155	0.007107	-0.001043	-0.010162	-0.915771	-0.184082	0.627441	-0.104958	-0.738953	0.076162	-0.661159
21574		9.738607	0.468184	-1.033302	0.009260	-0.000424	-0.008822	-0.923584	-0.184814	0.627441	-0.104909	-0.738949	0.076115	-0.661177
21575		9.753081	0.448808	-1.012636	0.012369	-0.001226	-0.008700	-0.920898	-0.188232	0.628662	-0.104816	-0.738947	0.076020	-0.661205
21576		9.738082	0.437927	-1.034790	0.011976	0.001638	-0.009146	-0.920166	-0.186279	0.637451	-0.104765	-0.738931	0.075962	-0.661238
21577		9.757959	0.478370	-1.030672	0.010330	0.001027	-0.011445	-0.911865	-0.183350	0.631836	-0.104774	-0.738925	0.075954	-0.661243
21578		9.742597	0.525800	-1.026194	0.002668	-0.001122	-0.008821	-0.921143	-0.182617	0.628418	-0.104801	-0.738925	0.075991	-0.661236
21579		9.753903	0.461676	-1.036895	0.003863	0.000918	-0.006263	-0.916260	-0.190674	0.627930	-0.104754	-0.738905	0.075968	-0.661268
21580		9.738221	0.475964	-1.033381	0.009627	0.001884	-0.009058	-0.906982	-0.188965	0.627197	-0.104745	-0.738886	0.075954	-0.661292
21581		9.726084	0.477068	-1.024946	0.004877	0.000933	-0.008184	-0.909668	-0.186768	0.629395	-0.104779	-0.738873	0.076000	-0.661295
21582		9.721033	0.451532	-1.006916	0.003431	-0.001680	-0.008612	-0.911865	-0.187988	0.619141	-0.104813	-0.738875	0.076045	-0.661283
21583		9.752614	0.459367	-1.012398	0.003856	0.002059	-0.009557	-0.922607	-0.191162	0.633545	-0.104799	-0.738848	0.076007	-0.661320
21584		9.737975	0.481414	-1.033175	-0.000443	-0.000321	-0.008940	-0.910889	-0.185547	0.627441	-0.104858	-0.738833	0.076064	-0.661320
21585		9.724725	0.475509	-1.000696	-0.001269	-0.000058	-0.011737	-0.922363	-0.194336	0.629883	-0.104919	-0.738822	0.076091	-0.661320
21586		9.744907	0.458367	-1.023524	-0.001638	-0.002361	-0.011495	-0.919922	-0.196777	0.627197	-0.104998	-0.738816	0.076133	-0.661309
21587		9.729153	0.473233	-1.020301	-0.001971	0.000797	-0.009352	-0.915283	-0.191162	0.632080	-0.105076	-0.738789	0.076193	-0.661320
21588		9.748609	0.481245	-1.017586	-0.002402	-0.001802	-0.011701	-0.910645	-0.184570	0.628906	-0.105179	-0.738786	0.076267	-0.661299
21589		9.705816	0.483967	-1.028346	-0.002403	-0.001801	-0.011700	-0.919189	-0.187012	0.627686	-0.105247	-0.738785	0.076306	-0.661284
21590		9.748363	0.485052	-1.018141	0.001020	-0.001730	-0.011114	-0.909668	-0.187500	0.622070	-0.105267	-0.738781	0.076296	-0.661287
21591		9.751843	0.473354	-1.013382	-0.000445	-0.000318	-0.008937	-0.911865	-0.191650	0.626709	-0.105292	-0.738766	0.076312	-0.661298
21592		9.732209	0.468636	-1.016298	-0.001834	-0.001497	-0.010068	-0.914307	-0.189453	0.623291	-0.105368	-0.738759	0.076372	-0.661287
21593		9.759859	0.457581	-1.028155	-0.001897	-0.001791	-0.012657	-0.907471	-0.188965	0.623779	-0.105422	-0.738752	0.076373	-0.661286
21594		9.751487	0.478685	-1.014309	-0.000167	-0.004908	-0.010373	-0.915771	-0.192383	0.635986	-0.105473	-0.738766	0.076411	-0.661257
21595		9.751114	0.447651	-1.015668	0.001245	0.002874	-0.010633	-0.912109	-0.192871	0.623047	-0.105570	-0.738742	0.076492	-0.661259
21596		9.723594	0.494731	-1.002371	0.002384	0.003480	-0.007374	-0.914307	-0.181885	0.630859	-0.105593	-0.738707	0.076521	-0.661292
21597		9.743908	0.476905	-1.024572	0.004419	0.002372	-0.007921	-0.921631	-0.180176	0.626465	-0.105581	-0.738687	0.076522	-0.661316
21598		9.731767	0.478043	-1.016144	0.005065	0.000085	-0.009599	-0.915283	-0.189209	0.634033	-0.105520	-0.738675	0.076445	-0.661348
21599		9.751216	0.485836	-1.013512	0.005517	-0.001341	-0.009855	-0.920654	-0.187500	0.627686	-0.105559	-0.738678	0.076484	-0.661334
21600		9.742610	0.473949	-1.000618	0.003365	-0.001963	-0.011192	-0.913574	-0.187500	0.622559	-0.105564	-0.738676	0.076459	-0.661338
21601		9.731422	0.482792	-1.017207	0.009533	-0.004988	-0.010242	-0.917725	-0.188965	0.627441	-0.105522	-0.738695	0.076405	-0.661329
21602		9.742306	0.477009	-1.002127	0.012955	-0.004913	-0.009656	-0.921875	-0.195801	0.625977	-0.105473	-0.738718	0.076357	-0.661317
21603		9.726243	0.458869	-1.000569	0.008368	-0.001567	-0.010895	-0.908691	-0.192383	0.632080	-0.105478	-0.738713	0.076334	-0.661325
21604		9.763690	0.501134	-1.048592	0.007720	0.000721	-0.009217	-0.917236	-0.185791	0.624512	-0.105526	-0.738708	0.076390	-0.661317
21605		9.742238	0.513982	-1.001746	0.004814	-0.000487	-0.007469	-0.913086	-0.183838	0.623291	-0.105490	-0.738696	0.076364	-0.661338
21606		9.751468	0.503242	-1.040445	0.001961	-0.000259	-0.006426	-0.917236	-0.195557	0.631836	-0.105464	-0.738682	0.076360	-0.661358
21607		9.730835	0.490557	-1.019103	0.005578	-0.001043	-0.007261	-0.927002	-0.187256	0.630127	-0.105503	-0.738678	0.076423	-0.661350
21608		9.727141	0.504839	-1.024327	0.004254	-0.001930	-0.005804	-0.910645	-0.185303	0.625977	-0.105465	-0.738671	0.076416	-0.661365
21609		9.730653	0.492458	-1.019919	0.004396	-0.004225	-0.006521	-0.914795	-0.191162	0.639404	-0.105449	-0.738684	0.076435	-0.661350
21610		9.735166	0.487572	-1.040013	0.004084	-0.005095	-0.006982	-0.916260	-0.188965	0.627441	-0.105507	-0.738709	0.076538	-0.661301
21611		9.727600	0.482429	-1.051766	0.004706	-0.003355	-0.006058	-0.910156	-0.188232	0.626953	-0.105495	-0.738714	0.076561	-0.661295
21612		9.721793	0.482053	-1.008976	0.001931	-0.005719	-0.008318	-0.915039	-0.195068	0.628906	-0.105522	-0.738735	0.076604	-0.661262
21613		9.754101	0.464382	-1.040643	0.004706	-0.003354	-0.006058	-0.917969	-0.181152	0.632324	-0.105549	-0.738740	0.076670	-0.661244
21614		9.729816	0.464890	-1.024745	0.004394	-0.004224	-0.006519	-0.920166	-0.192139	0.634033	-0.105518	-0.738755	0.076675	-0.661232
21615		9.752838	0.458870	-1.017868	0.009852	-0.005249	-0.006479	-0.917725	-0.189941	0.626953	-0.105506	-0.738777	0.076707	-0.661206
21616		9.760170	0.465878	-1.007495	0.012108	-0.001752	-0.006550	-0.916016	-0.188477	0.632568	-0.105450	-0.738779	0.076680	-0.661216
21617		9.729685	0.500177	-1.025390	0.013494	-0.000568	-0.005420	-0.922607	-0.188965	0.626709	-0.105402	-0.738780	0.076684	-0.661222
21618		9.725770	0.481744	-1.031991	0.014530	-0.004575	-0.009933	-0.915283	-0.189209	0.626465	-0.105329	-0.738798	0.076603	-0.661223
21619		9.725652	0.482767	-1.032629	0.010019	-0.002081	-0.005298	-0.917480	-0.192383	0.634033	-0.105281	-0.738800	0.076600	-0.661229
21620		9.741280	0.470392	-1.036482	0.010472	-0.003506	-0.005551	-0.919434	-0.184082	0.623535	-0.105272	-0.738813	0.076643	-0.661210
21621		9.736532	0.477133	-1.017809	0.008631	-0.003263	-0.006426	-0.912598	-0.189453	0.629639	-0.105189	-0.738818	0.076586	-0.661225
21622		9.752128	0.465030	-1.021870	0.011936	-0.004912	-0.007720	-0.923340	-0.186768	0.635010	-0.105163	-0.738842	0.076588	-0.661201
21623		9.732465	0.459817	-1.025428	0.013256	-0.004023	-0.009175	-0.923096	-0.185547	0.628418	-0.105118	-0.738862	0.076553	-0.661190
21624		9.733156	0.435777	-1.051639	0.014214	-0.005438	-0.010385	-0.905518	-0.187012	0.624268	-0.105042	-0.738887	0.076467	-0.661185
21625		9.735928	0.482060	-1.021254	0.014213	-0.005437	-0.010383	-0.913330	-0.194092	0.624512	-0.105002	-0.738918	0.076424	-0.661161
21626		9.743043	0.456962	-1.012389	0.012321	-0.006629	-0.010552	-0.913330	-0.190430	0.629639	-0.104988	-0.738948	0.076401	-0.661133
21627		9.740179	0.479449	-1.042659	0.008118	-0.005018	-0.014635	-0.913818	-0.182617	0.619873	-0.105026	-0.738973	0.076383	-0.661101
21628		9.739983	0.481353	-1.043610	0.009209	-0.005840	-0.010674	-0.913330	-0.191406	0.627441	-0.104957	-0.738995	0.076292	-0.661098
21629		9.739921	0.515700	-1.043512	0.006098	-0.005053	-0.010799	-0.918213	-0.187500	0.626465	-0.104981	-0.739013	0.076301	-0.661072
21630		9.735000	0.490432	-1.026103	0.002743	-0.004841	-0.008799	-0.912598	-0.179932	0.631104	-0.104981	-0.739024	0.076301	-0.661061
21631		9.721046	0.519407	-1.072214	0.001423	-0.005729	-0.007341	-0.910156	-0.193115	0.636475	-0.104973	-0.739046	0.076322	-0.661034
21632		9.743007	0.473658	-1.042036	-0.002142	-0.003519	-0.007215	-0.914551	-0.197754	0.630371	-0.105074	-0.739056	0.076454	-0.660992
21633		9.734588	0.494024	-1.028285	0.001279	-0.003433	-0.006630	-0.918213	-0.186768	0.628662	-0.105142	-0.739059	0.076552	-0.660967
21634		9.765016	0.461476	-1.011111	0.002161	-0.002257	-0.004544	-0.930420	-0.183350	0.623047	-0.105125	-0.739054	0.076584	-0.660972
21635		9.730562	0.443265	-1.036180	0.002733	-0.001951	-0.002918	-0.916504	-0.184814	0.635742	-0.105031	-0.739035	0.076539	-0.661012
21636		9.735220	0.470475	-1.054918	0.005532	-0.003605	-0.003252	-0.918945	-0.191162	0.629883	-0.105005	-0.739047	0.076591	-0.660997
21637		9.730413	0.444269	-1.037145	0.003741	-0.001932	-0.004834	-0.918213	-0.181152	0.632568	-0.105006	-0.739041	0.076639	-0.660998
21638		9.757282	0.457802	-1.023808	0.003673	-0.002228	-0.007418	-0.911133	-0.190918	0.628418	-0.104986	-0.739044	0.076640	-0.660998
21639		9.733892	0.433303	-1.033028	0.001714	-0.003720	-0.010170	-0.916748	-0.198730	0.621582	-0.105040	-0.739053	0.076683	-0.660974
21640		9.733815	0.467836	-1.032714	0.004757	-0.004799	-0.012627	-0.909424	-0.183105	0.632080	-0.105089	-0.739061	0.076684	-0.660957
21641		9.749455	0.489381	-1.035911	0.005783	-0.005916	-0.011252	-0.911377	-0.178223	0.631104	-0.105100	-0.739093	0.076684	-0.660920
21642		9.737193	0.490788	-1.028648	0.007624	-0.006153	-0.010375	-0.910156	-0.189453	0.634766	-0.105065	-0.739126	0.076645	-0.660893
21643		9.746351	0.513121	-1.067039	0.006714	-0.003304	-0.009873	-0.911621	-0.187012	0.636719	-0.105098	-0.739143	0.076683	-0.660864
21644		9.749875	0.501295	-1.062878	0.007119	-0.006162	-0.009415	-0.918701	-0.191895	0.636230	-0.105118	-0.739178	0.076717	-0.660818
21645		9.718086	0.463216	-1.059171	0.005395	-0.004193	-0.008414	-0.914307	-0.176025	0.629639	-0.105150	-0.739193	0.076765	-0.660791
21646		9.744884	0.477293	-1.046191	0.004056	-0.003945	-0.010247	-0.908447	-0.182373	0.636230	-0.105115	-0.739208	0.076719	-0.660785
21647		9.736437	0.498013	-1.032328	0.002642	-0.001107	-0.008788	-0.912354	-0.189697	0.632812	-0.105145	-0.739213	0.076761	-0.660770
21648		9.760531	0.532332	-1.048104	0.002207	-0.000820	-0.005247	-0.907471	-0.187012	0.627441	-0.105172	-0.739206	0.076834	-0.660765
21649		9.755844	0.506118	-1.029740	0.003711	0.002098	-0.002247	-0.912842	-0.195312	0.630127	-0.105155	-0.739182	0.076891	-0.660788
21650		9.741012	0.526769	-1.050493	0.001821	0.000901	-0.002415	-0.916992	-0.185303	0.630127	-0.105186	-0.739160	0.076994	-0.660796
21651		9.740963	0.461394	-1.052285	-0.003304	0.001640	0.001290	-0.906982	-0.193848	0.632324	-0.105176	-0.739126	0.077092	-0.660823
21652		9.753061	0.461631	-1.060297	-0.002297	0.001661	-0.000625	-0.917969	-0.196777	0.627441	-0.105236	-0.739101	0.077249	-0.660823
21653		9.737320	0.474810	-1.056672	-0.004642	0.001887	-0.000542	-0.911865	-0.192139	0.638184	-0.105284	-0.739061	0.077378	-0.660845
21654		9.763327	0.447740	-1.019242	-0.002511	0.003659	-0.002498	-0.909912	-0.187012	0.620850	-0.105365	-0.739028	0.077535	-0.660851
21655		9.739200	0.447771	-1.002339	0.002014	0.000041	-0.003831	-0.920410	-0.184082	0.631592	-0.105335	-0.739009	0.077552	-0.660875
21656		9.745681	0.457046	-1.070090	0.005987	0.001576	-0.004911	-0.916504	-0.190186	0.632812	-0.105297	-0.738988	0.077557	-0.660904
21657		9.748457	0.470140	-1.039598	0.003573	0.001506	-0.007410	-0.918457	-0.197754	0.620361	-0.105328	-0.738969	0.077604	-0.660915
21658		9.740105	0.457553	-1.025782	0.001964	0.005204	-0.004536	-0.916260	-0.179688	0.626953	-0.105338	-0.738913	0.077638	-0.660971
21659		9.744835	0.484939	-1.043121	0.001005	0.006618	-0.003328	-0.917480	-0.194336	0.630859	-0.105298	-0.738860	0.077646	-0.661037
21660		9.716097	0.491337	-1.006406	0.000510	0.003720	-0.008243	-0.917480	-0.186523	0.630371	-0.105365	-0.738823	0.077711	-0.661059
21661		9.716992	0.467068	-1.031398	0.003525	0.000073	-0.006702	-0.909668	-0.183350	0.624512	-0.105366	-0.738810	0.077735	-0.661071
21662		9.745690	0.462896	-1.067490	0.009106	-0.002088	-0.010654	-0.921875	-0.189453	0.629150	-0.105333	-0.738818	0.077685	-0.661073
21663		9.732609	0.456692	-1.035039	0.009842	0.001385	-0.007862	-0.919189	-0.190674	0.628906	-0.105303	-0.738800	0.077662	-0.661101
21664		9.731628	0.450722	-1.010627	0.009772	0.001089	-0.010442	-0.913574	-0.188965	0.633301	-0.105298	-0.738786	0.077636	-0.661120
21665		9.716701	0.472554	-1.031635	0.010228	-0.000334	-0.010691	-0.914795	-0.186768	0.628906	-0.105309	-0.738788	0.077635	-0.661116
21666		9.739819	0.467424	-1.024049	0.008386	-0.000098	-0.011565	-0.912842	-0.193848	0.627930	-0.105308	-0.738784	0.077605	-0.661124
21667		9.747120	0.475607	-1.013307	0.007194	-0.002146	-0.014104	-0.908936	-0.185059	0.625732	-0.105360	-0.738791	0.077599	-0.661109
21668		9.755363	0.490895	-1.026757	0.005342	0.000977	-0.009110	-0.916260	-0.182373	0.635498	-0.105357	-0.738779	0.077591	-0.661125
21669		9.723714	0.518168	-1.020134	0.004026	0.000086	-0.007654	-0.916260	-0.192139	0.630371	-0.105363	-0.738773	0.077617	-0.661127
21670		9.732011	0.500100	-1.034590	0.005249	-0.001890	-0.007694	-0.912598	-0.187744	0.631104	-0.105385	-0.738772	0.077656	-0.661120
21671		9.740313	0.481935	-1.049091	0.004289	-0.000477	-0.006488	-0.912598	-0.184814	0.623535	-0.105398	-0.738766	0.077700	-0.661119
21672		9.736523	0.496070	-1.054254	0.000628	-0.001146	-0.004951	-0.916748	-0.183350	0.630371	-0.105384	-0.738755	0.077724	-0.661131
21673		9.731801	0.503089	-1.035121	0.001371	-0.000561	-0.008030	-0.912598	-0.182861	0.624512	-0.105394	-0.738746	0.077742	-0.661137
21674		9.754029	0.489922	-1.003374	0.001154	-0.002273	-0.002620	-0.914307	-0.179443	0.631348	-0.105360	-0.738741	0.077776	-0.661144
21675		9.757787	0.444160	-0.999460	-0.000766	0.000552	-0.000209	-0.915527	-0.189209	0.632324	-0.105331	-0.738722	0.077846	-0.661162
21676		9.734565	0.451156	-1.007090	0.003088	0.000362	-0.003160	-0.917725	-0.191162	0.627441	-0.105338	-0.738708	0.077920	-0.661168
21677		9.746605	0.452002	-1.015402	0.004860	-0.000168	-0.004864	-0.916748	-0.184082	0.628662	-0.105333	-0.738693	0.077957	-0.661181
21678		9.740077	0.453771	-1.050644	0.003328	0.000937	-0.005281	-0.919189	-0.182373	0.627441	-0.105317	-0.738674	0.077977	-0.661202
21679		9.753954	0.459847	-1.004333	0.003018	0.000066	-0.005739	-0.910889	-0.189209	0.631104	-0.105290	-0.738658	0.077980	-0.661224
21680		9.714913	0.447871	-1.009966	0.003361	-0.003088	-0.007859	-0.917969	-0.184570	0.634521	-0.105322	-0.738668	0.078032	-0.661202
21681		9.738945	0.449563	-1.027046	0.006014	-0.002439	-0.007482	-0.918457	-0.190186	0.627197	-0.105317	-0.738676	0.078051	-0.661192
21682		9.754544	0.470861	-1.030019	0.008677	-0.004677	-0.012969	-0.915771	-0.187500	0.628174	-0.105326	-0.738694	0.078016	-0.661174
21683		9.738609	0.485390	-1.027188	0.006368	-0.000132	-0.007731	-0.914062	-0.181885	0.629150	-0.105318	-0.738685	0.078020	-0.661185
21684		9.750583	0.486822	-1.035824	0.009627	-0.003199	-0.008307	-0.920898	-0.192383	0.634521	-0.105273	-0.738699	0.077990	-0.661180
21685		9.730060	0.474320	-1.014915	0.010587	-0.004610	-0.009510	-0.914795	-0.189697	0.628662	-0.105278	-0.738720	0.077998	-0.661155
21686		9.733646	0.462558	-1.010791	0.010780	-0.005469	-0.010923	-0.907227	-0.185303	0.631836	-0.105269	-0.738746	0.077976	-0.661129
21687		9.726060	0.457792	-1.022758	0.012621	-0.005699	-0.010045	-0.908936	-0.182129	0.629883	-0.105245	-0.738784	0.077957	-0.661093
21688		9.741602	0.479068	-1.026118	0.010779	-0.005467	-0.010920	-0.912109	-0.187988	0.633301	-0.105216	-0.738817	0.077919	-0.661065
21689		9.753518	0.480845	-1.035114	0.008593	-0.002081	-0.009677	-0.914795	-0.193359	0.629639	-0.105225	-0.738828	0.077929	-0.661051
21690		9.748793	0.488048	-1.015963	0.005403	0.001282	-0.006524	-0.910400	-0.185547	0.633301	-0.105246	-0.738809	0.077974	-0.661063
21691		9.741328	0.482779	-1.026979	0.007896	-0.001231	-0.007308	-0.914062	-0.188721	0.632324	-0.105240	-0.738815	0.077996	-0.661055
21692		9.741259	0.483611	-1.027239	0.006389	-0.001264	-0.004440	-0.910645	-0.182617	0.633057	-0.105233	-0.738814	0.078045	-0.661052
21693		9.749477	0.497788	-1.041006	0.008116	-0.003226	-0.005432	-0.910400	-0.181152	0.637939	-0.105203	-0.738829	0.078067	-0.661036
21694		9.737445	0.465540	-1.034127	0.007349	-0.002675	-0.005641	-0.915527	-0.185791	0.627197	-0.105190	-0.738846	0.078108	-0.661015
21695		9.741119	0.453165	-1.029599	0.006274	-0.002995	-0.006307	-0.922852	-0.193359	0.622803	-0.105162	-0.738851	0.078111	-0.661014
21696		9.728950	0.453945	-1.021848	0.005700	-0.003304	-0.007928	-0.921143	-0.189209	0.632080	-0.105153	-0.738848	0.078104	-0.661019
21697		9.733391	0.481639	-1.040515	0.004088	0.000389	-0.005068	-0.914551	-0.182861	0.627930	-0.105158	-0.738830	0.078149	-0.661033
21698		9.737076	0.469501	-1.035812	0.001973	-0.004279	-0.008970	-0.906250	-0.185547	0.632812	-0.105164	-0.738842	0.078154	-0.661018
21699		9.755567	0.469982	-1.009281	0.002202	-0.000814	-0.005234	-0.916260	-0.187988	0.622803	-0.105185	-0.738841	0.078224	-0.661007
21700		9.740522	0.491160	-1.030645	0.004933	-0.002752	-0.008137	-0.918701	-0.185303	0.639404	-0.105170	-0.738841	0.078211	-0.661012
21701		9.736798	0.472593	-1.037019	0.004502	-0.002465	-0.004604	-0.919922	-0.186279	0.623535	-0.105178	-0.738847	0.078279	-0.660995
21702		9.752428	0.492917	-1.039694	0.006194	-0.000400	-0.003026	-0.916016	-0.182373	0.626221	-0.105121	-0.738829	0.078280	-0.661024
21703		9.732929	0.486618	-1.042522	0.004882	-0.001295	-0.001570	-0.913818	-0.180420	0.631592	-0.105062	-0.738820	0.078302	-0.661041
21704		9.740449	0.460299	-1.032771	0.006415	-0.002395	-0.001150	-0.919434	-0.182617	0.637207	-0.105002	-0.738824	0.078337	-0.661042
