// Start Time: Unknown
// Update Rate: 60.0Hz
// Filter Profile: human (46.1)
// Firmware Version: 4.6.0
PacketCounter	SampleTimeFine	Acc_X	Acc_Y	Acc_Z	Gyr_X	Gyr_Y	Gyr_Z	Mag_X	Mag_Y	Mag_Z	Quat_q0	Quat_q1	Quat_q2	Quat_q3
24233		4.982809	-8.263122	1.597436	0.009883	-0.000148	-0.009227	-0.650146	0.849854	0.511963	0.309731	-0.530149	0.370557	-0.696919
24234		4.971952	-8.245325	1.583803	0.005143	-0.001390	-0.007815	-0.654541	0.847412	0.520508	0.309713	-0.530168	0.370489	-0.696949
24235		5.002077	-8.214669	1.609761	0.006102	-0.000918	-0.009774	-0.654297	0.841309	0.519287	0.309678	-0.530195	0.370411	-0.696985
24236		4.984585	-8.240406	1.595059	0.005113	-0.002989	-0.006339	-0.656494	0.845459	0.511230	0.309673	-0.530219	0.370345	-0.697004
24237		4.995700	-8.236547	1.605541	0.004316	-0.000282	-0.005856	-0.650146	0.846191	0.512451	0.309658	-0.530228	0.370293	-0.697032
24238		4.983021	-8.254621	1.669078	0.005114	-0.002989	-0.006339	-0.647705	0.845947	0.518555	0.309653	-0.530252	0.370226	-0.697051
24239		5.001317	-8.275347	1.615974	0.007644	-0.002635	-0.008278	-0.653320	0.845215	0.520508	0.309646	-0.530271	0.370136	-0.697087
24240		4.994442	-8.228995	1.631858	0.007003	-0.003644	-0.008780	-0.653809	0.844482	0.515137	0.309638	-0.530300	0.370044	-0.697119
24241		4.985365	-8.265686	1.612459	0.006749	0.000090	-0.009277	-0.653809	0.843262	0.515869	0.309614	-0.530308	0.369959	-0.697168
24242		4.971903	-8.228493	1.637792	0.003163	-0.000718	-0.006861	-0.652344	0.847656	0.516602	0.309590	-0.530321	0.369904	-0.697197
24243		4.972893	-8.262180	1.627749	0.000852	-0.001591	-0.008864	-0.660156	0.844727	0.523193	0.309549	-0.530350	0.369851	-0.697222
24244		4.977777	-8.267337	1.647292	0.002490	-0.003325	-0.005884	-0.654297	0.841797	0.518555	0.309539	-0.530374	0.369796	-0.697237
24245		4.971253	-8.254995	1.608594	0.005565	-0.001945	-0.008803	-0.652100	0.851074	0.522949	0.309524	-0.530387	0.369714	-0.697277
24246		4.982009	-8.251465	1.663198	0.006722	-0.001508	-0.007802	-0.647949	0.846680	0.512939	0.309520	-0.530391	0.369632	-0.697320
24247		4.979956	-8.244294	1.600451	0.005665	-0.001963	-0.007324	-0.658691	0.845459	0.517334	0.309517	-0.530395	0.369556	-0.697358
24248		4.989321	-8.254587	1.596052	0.003581	-0.001273	-0.007845	-0.654785	0.841797	0.518066	0.309497	-0.530402	0.369492	-0.697396
24249		4.965489	-8.255098	1.600971	0.005538	-0.003543	-0.007326	-0.656982	0.834473	0.518311	0.309497	-0.530418	0.369415	-0.697425
24250		4.978690	-8.271213	1.615915	0.002011	-0.001156	-0.007866	-0.663330	0.852051	0.520508	0.309467	-0.530432	0.369366	-0.697453
24251		4.971545	-8.259383	1.621334	0.008168	-0.003206	-0.007787	-0.655762	0.844482	0.510986	0.309482	-0.530432	0.369274	-0.697495
24252		4.985596	-8.240359	1.603155	0.008713	-0.002180	-0.008768	-0.648438	0.842773	0.524170	0.309491	-0.530429	0.369180	-0.697543
24253		5.003563	-8.227072	1.604445	0.006115	-0.000919	-0.009789	-0.654053	0.848145	0.517822	0.309482	-0.530443	0.369104	-0.697577
24254		4.988050	-8.238627	1.604419	0.000539	-0.001057	-0.006407	-0.656494	0.851318	0.515625	0.309470	-0.530451	0.369070	-0.697594
24255		4.994778	-8.263872	1.628677	0.001500	-0.000586	-0.008369	-0.650146	0.850098	0.516357	0.309453	-0.530452	0.369024	-0.697625
24256		4.975632	-8.269517	1.609238	0.007048	-0.002045	-0.010273	-0.646973	0.852539	0.516602	0.309460	-0.530461	0.368934	-0.697663
24257		4.987185	-8.265236	1.620297	0.010931	-0.001286	-0.008251	-0.655762	0.840576	0.517334	0.309508	-0.530449	0.368835	-0.697703
24258		4.986468	-8.244177	1.616960	0.011319	-0.003438	-0.007753	-0.644287	0.846680	0.514404	0.309521	-0.530454	0.368735	-0.697746
24259		4.974755	-8.261403	1.637181	0.009205	-0.004348	-0.006793	-0.659912	0.844482	0.512695	0.309573	-0.530465	0.368650	-0.697760
24260		4.988682	-8.242419	1.619092	0.009363	-0.001170	-0.008275	-0.650146	0.847168	0.513428	0.309571	-0.530440	0.368563	-0.697826
24261		4.981601	-8.230468	1.624877	0.005579	-0.001947	-0.008815	-0.659668	0.854492	0.522705	0.309584	-0.530442	0.368495	-0.697854
24262		4.970055	-8.247712	1.644520	0.004007	-0.001831	-0.008835	-0.659424	0.847168	0.522949	0.309603	-0.530445	0.368434	-0.697876
24263		4.975661	-8.252215	1.620524	0.004619	-0.002418	-0.006854	-0.658691	0.850830	0.517822	0.309609	-0.530459	0.368379	-0.697892
24264		4.974889	-8.265714	1.606338	0.008599	-0.003760	-0.008780	-0.654297	0.846924	0.510010	0.309642	-0.530454	0.368289	-0.697928
24265		4.994658	-8.238142	1.622430	0.008697	-0.003776	-0.007299	-0.645020	0.849609	0.512207	0.309671	-0.530433	0.368210	-0.697972
24266		4.981700	-8.234822	1.593895	0.008310	-0.001624	-0.007800	-0.657227	0.850586	0.502686	0.309739	-0.530425	0.368137	-0.697987
24267		5.003225	-8.227426	1.614618	0.006195	-0.002535	-0.006837	-0.658447	0.841309	0.523193	0.309760	-0.530354	0.368076	-0.698064
24268		4.975094	-8.256935	1.634245	0.009565	-0.003289	-0.010748	-0.658447	0.843750	0.516113	0.309722	-0.530407	0.367984	-0.698089
24269		4.976486	-8.255910	1.635185	0.007673	-0.002634	-0.008303	-0.641846	0.841309	0.512939	0.309703	-0.530415	0.367913	-0.698129
24270		4.967516	-8.258286	1.626093	0.008607	-0.003760	-0.008786	-0.660156	0.847412	0.517578	0.309752	-0.530457	0.367841	-0.698113
24271		4.977067	-8.268409	1.622041	0.006227	-0.000939	-0.008324	-0.654541	0.845703	0.515869	0.309742	-0.530452	0.367781	-0.698153
24272		4.974470	-8.261746	1.603400	0.008220	-0.001609	-0.009289	-0.656494	0.850342	0.517090	0.309754	-0.530457	0.367709	-0.698182
24273		4.987814	-8.243210	1.628975	0.005685	-0.001965	-0.007342	-0.652588	0.851562	0.523438	0.309796	-0.530458	0.367657	-0.698190
24274		4.999006	-8.239209	1.639439	0.004209	-0.001865	-0.005878	-0.651123	0.846924	0.519043	0.309879	-0.530504	0.367626	-0.698134
24275		4.987941	-8.256111	1.615220	0.007039	-0.003645	-0.008809	-0.653076	0.844727	0.514160	0.309927	-0.530551	0.367563	-0.698111
24276		5.001426	-8.237441	1.640943	0.011246	-0.003419	-0.009257	-0.659180	0.845703	0.516357	0.309951	-0.530553	0.367473	-0.698146
24277		5.005316	-8.221610	1.612973	0.009674	-0.003305	-0.009276	-0.656250	0.842773	0.517822	0.309945	-0.530564	0.367383	-0.698187
24278		5.000149	-8.229717	1.623606	0.008837	-0.002194	-0.007312	-0.661133	0.849121	0.516846	0.309933	-0.530594	0.367316	-0.698205
24279		4.986744	-8.226794	1.638870	0.004983	-0.001366	-0.010815	-0.656494	0.849365	0.516113	0.309912	-0.530604	0.367245	-0.698244
24280		4.984129	-8.220212	1.619911	0.004757	-0.000840	-0.006865	-0.647705	0.847656	0.526611	0.309945	-0.530602	0.367201	-0.698255
24281		4.965999	-8.246664	1.649168	0.002668	-0.000156	-0.007384	-0.658936	0.847412	0.511475	0.310022	-0.530714	0.367194	-0.698138
24282		4.993948	-8.264640	1.649846	0.005177	-0.001395	-0.007849	-0.652588	0.849609	0.518311	0.310006	-0.530674	0.367137	-0.698206
24283		4.981160	-8.261311	1.621238	0.008259	-0.000014	-0.010785	-0.642822	0.842041	0.512939	0.310068	-0.530693	0.367067	-0.698201
24284		4.986249	-8.266087	1.641739	0.006334	-0.000954	-0.006851	-0.652100	0.852539	0.513916	0.310121	-0.530700	0.367051	-0.698181
24285		4.973309	-8.262864	1.613121	0.006267	0.000655	-0.009820	-0.651611	0.842773	0.508301	0.310212	-0.530663	0.366998	-0.698196
24286		4.984813	-8.258618	1.623729	0.004542	-0.002407	-0.008352	-0.652100	0.843018	0.512207	0.310178	-0.530621	0.366965	-0.698260
24287		4.969413	-8.270218	1.623790	0.003091	-0.000713	-0.008370	-0.654785	0.839355	0.521240	0.310151	-0.530619	0.366942	-0.698286
24288		4.987103	-8.257025	1.624796	0.007396	-0.000497	-0.007337	-0.653076	0.846924	0.509766	0.310101	-0.530714	0.366903	-0.698257
24289		4.990719	-8.241388	1.596767	0.010843	-0.002861	-0.008287	-0.654785	0.841064	0.519531	0.310161	-0.530655	0.366822	-0.698317
24290		4.970518	-8.213250	1.631896	0.005498	0.000158	-0.004888	-0.652588	0.844238	0.509766	0.310133	-0.530723	0.366807	-0.698286
24291		4.979691	-8.223625	1.627740	0.006216	-0.002535	-0.006854	-0.652832	0.845215	0.517334	0.310151	-0.530682	0.366765	-0.698331
24292		4.997431	-8.244859	1.618850	0.008335	-0.001623	-0.007823	-0.657959	0.839844	0.515625	0.310199	-0.530725	0.366713	-0.698304
24293		5.006341	-8.255334	1.658857	0.007697	-0.002635	-0.008323	-0.650391	0.849121	0.514648	0.310106	-0.530767	0.366656	-0.698343
24294		5.003436	-8.214411	1.650070	0.005282	-0.001410	-0.006373	-0.657959	0.841553	0.517334	0.310232	-0.530768	0.366626	-0.698303
24295		4.971333	-8.238490	1.649946	0.004549	-0.002409	-0.008357	-0.656250	0.851807	0.516846	0.310153	-0.530834	0.366584	-0.698310
24296		4.995538	-8.250695	1.631032	0.003612	-0.001284	-0.007875	-0.656738	0.845215	0.509766	0.310240	-0.530846	0.366540	-0.698285
24297		4.969711	-8.231314	1.631108	0.002554	-0.001741	-0.007390	-0.649170	0.846436	0.513672	0.310207	-0.530799	0.366506	-0.698354
24298		4.962568	-8.254055	1.626133	0.002038	-0.001172	-0.007892	-0.653809	0.846191	0.510986	0.310287	-0.530814	0.366494	-0.698312
24299		4.973817	-8.249953	1.636625	0.006466	0.000628	-0.006863	-0.649170	0.838623	0.522949	0.310320	-0.530759	0.366453	-0.698361
24300		4.983190	-8.260178	1.632646	0.006766	-0.001509	-0.007845	-0.654053	0.843994	0.511963	0.310329	-0.530925	0.366438	-0.698239
24301		4.961874	-8.246065	1.608653	0.005069	-0.002978	-0.007860	-0.651611	0.847656	0.510498	0.310327	-0.530915	0.366397	-0.698268
24302		4.981687	-8.252843	1.614289	0.007067	-0.003646	-0.008829	-0.651855	0.843750	0.514648	0.310418	-0.530879	0.366336	-0.698288
24303		4.974524	-8.240965	1.619888	0.007285	-0.002078	-0.007347	-0.657227	0.841553	0.508057	0.310460	-0.530906	0.366295	-0.698271
24304		5.004423	-8.244403	1.635604	0.005193	-0.001397	-0.007864	-0.654053	0.848145	0.513184	0.310355	-0.530836	0.366259	-0.698389
24305		4.978523	-8.225096	1.635593	0.000439	-0.002656	-0.006423	-0.652344	0.850830	0.507324	0.310420	-0.530843	0.366241	-0.698364
24306		4.998289	-8.266465	1.631096	0.008346	-0.001621	-0.007835	-0.652344	0.843506	0.518555	0.310559	-0.530740	0.366163	-0.698422
24307		4.991033	-8.254614	1.636824	0.005316	0.000184	-0.007869	-0.662109	0.851074	0.518799	0.310588	-0.530827	0.366137	-0.698356
24308		5.006749	-8.221256	1.633087	0.005223	0.000196	-0.009355	-0.654541	0.841553	0.516846	0.310609	-0.530867	0.366061	-0.698356
24309		4.989603	-8.247185	1.618752	0.005224	0.000196	-0.009356	-0.654297	0.848389	0.525391	0.310562	-0.530934	0.366030	-0.698342
24310		5.001006	-8.242926	1.629415	0.005319	0.000184	-0.007871	-0.654785	0.843750	0.514160	0.310680	-0.531092	0.365986	-0.698193
24311		4.997659	-8.236748	1.654467	0.004682	-0.000829	-0.008370	-0.654053	0.839355	0.508789	0.310662	-0.531110	0.365953	-0.698205
24312		5.003330	-8.241233	1.630845	0.007319	-0.000483	-0.008842	-0.653320	0.843506	0.519775	0.310560	-0.531057	0.365922	-0.698307
24313		4.984105	-8.247129	1.611904	0.007716	-0.002633	-0.008339	-0.655273	0.854980	0.517822	0.310606	-0.531166	0.365871	-0.698230
24314		4.983418	-8.260698	1.597864	0.005201	-0.001398	-0.007871	-0.651855	0.846191	0.520264	0.310792	-0.531194	0.365804	-0.698161
24315		4.990345	-8.251051	1.632958	0.007322	-0.000484	-0.008845	-0.654541	0.849854	0.518311	0.310891	-0.531292	0.365752	-0.698069
24316		4.972899	-8.242631	1.628567	0.004142	-0.001855	-0.007385	-0.654297	0.843018	0.515625	0.311006	-0.531354	0.365704	-0.697996
24317		4.969718	-8.270987	1.643397	0.003626	-0.001287	-0.007887	-0.646484	0.850830	0.517334	0.310988	-0.531400	0.365680	-0.697982
24318		4.991905	-8.263092	1.619810	0.006144	-0.002522	-0.008357	-0.650146	0.840088	0.519287	0.311196	-0.531445	0.365650	-0.697871
24319		4.999547	-8.253084	1.611013	0.009206	-0.002731	-0.009816	-0.657959	0.847900	0.514648	0.311219	-0.531563	0.365593	-0.697800
24320		4.981680	-8.244780	1.650783	0.006266	-0.000941	-0.008362	-0.654297	0.847412	0.515869	0.311241	-0.531563	0.365527	-0.697825
24321		4.989009	-8.235014	1.641689	0.004637	-0.004016	-0.005396	-0.656738	0.847168	0.510986	0.311319	-0.531598	0.365491	-0.697783
24322		4.978101	-8.252054	1.617620	0.009090	-0.004313	-0.009816	-0.660156	0.854492	0.514404	0.311321	-0.531558	0.365414	-0.697853
24323		5.010345	-8.206116	1.614338	0.009397	-0.002753	-0.006847	-0.659180	0.847656	0.508789	0.311453	-0.531530	0.365306	-0.697871
24324		4.982204	-8.235882	1.634261	0.005845	-0.000385	-0.007380	-0.654297	0.854248	0.513184	0.311412	-0.531440	0.365262	-0.697981
24325		4.991760	-8.246037	1.630109	0.005116	-0.001388	-0.009366	-0.654053	0.847900	0.509277	0.311546	-0.531416	0.365199	-0.697973
24326		4.995161	-8.265181	1.635407	0.003539	-0.001279	-0.009380	-0.654541	0.851318	0.511963	0.311540	-0.531358	0.365178	-0.698031
24327		4.994252	-8.244351	1.631003	0.004667	-0.002424	-0.006890	-0.656738	0.853516	0.521240	0.311633	-0.531331	0.365134	-0.698032
24328		5.003857	-8.254504	1.626706	0.006060	-0.002512	-0.009852	-0.653809	0.849121	0.510742	0.311806	-0.531449	0.365021	-0.697925
24329		4.996790	-8.242562	1.632267	0.007732	-0.002632	-0.008352	-0.657227	0.847168	0.515137	0.311854	-0.531406	0.364972	-0.697962
24330		4.985630	-8.225119	1.618331	0.005331	0.000182	-0.007887	-0.655762	0.838623	0.514160	0.311871	-0.531432	0.364915	-0.697964
24331		4.955512	-8.234908	1.633009	0.002057	-0.001181	-0.007909	-0.657471	0.843262	0.520020	0.311747	-0.531485	0.364913	-0.697980
24332		4.984027	-8.287095	1.623774	0.006582	-0.003079	-0.009354	-0.656250	0.843018	0.516357	0.311754	-0.531616	0.364829	-0.697921
24333		4.973091	-8.269523	1.609859	0.007761	-0.001040	-0.009848	-0.654053	0.849121	0.516113	0.311734	-0.531675	0.364762	-0.697920
24334		4.994910	-8.261616	1.630492	0.006584	-0.003080	-0.009356	-0.652100	0.841797	0.512695	0.311825	-0.531724	0.364694	-0.697878
24335		4.987815	-8.249719	1.635916	0.004181	-0.000266	-0.008890	-0.656982	0.846191	0.518799	0.311771	-0.531729	0.364695	-0.697897
24336		5.005761	-8.270909	1.626757	0.004157	-0.001858	-0.007398	-0.653809	0.840820	0.512695	0.311817	-0.531822	0.364637	-0.697836
24337		4.992033	-8.233600	1.651711	0.005669	-0.000365	-0.010367	-0.654053	0.849854	0.511963	0.311736	-0.531830	0.364617	-0.697877
24338		4.995820	-8.217978	1.623180	0.006071	-0.002513	-0.009861	-0.655273	0.852051	0.518555	0.311799	-0.531813	0.364563	-0.697890
24339		4.996993	-8.217110	1.623962	0.006490	0.000631	-0.006895	-0.649902	0.847412	0.510254	0.311948	-0.531860	0.364492	-0.697824
24340		4.991860	-8.225221	1.634786	0.010926	-0.001256	-0.009830	-0.652832	0.844238	0.509277	0.311997	-0.531802	0.364452	-0.697868
24341		4.988953	-8.218817	1.616306	0.005522	0.000163	-0.004918	-0.656250	0.852783	0.514160	0.311973	-0.531735	0.364464	-0.697923
24342		4.995903	-8.243754	1.641294	0.003643	-0.001292	-0.007903	-0.656738	0.843262	0.507080	0.312077	-0.531746	0.364404	-0.697899
24343		4.989008	-8.266480	1.636532	0.002491	-0.001741	-0.008903	-0.652344	0.853271	0.510742	0.311962	-0.531686	0.364402	-0.697998
24344		4.981803	-8.254697	1.641704	0.003243	0.000855	-0.008411	-0.653076	0.839111	0.512451	0.312069	-0.531642	0.364371	-0.697999
24345		4.970705	-8.237324	1.627331	0.003437	-0.002865	-0.009389	-0.651367	0.850342	0.523438	0.311969	-0.531678	0.364372	-0.698016
24346		4.957354	-8.234529	1.642054	0.003956	-0.003431	-0.008887	-0.655029	0.849121	0.517578	0.312144	-0.531843	0.364304	-0.697848
24347		4.972824	-8.235796	1.671570	0.000798	-0.003216	-0.008912	-0.660645	0.847168	0.513428	0.312217	-0.531934	0.364256	-0.697771
24348		4.984762	-8.231430	1.637659	0.004165	-0.001858	-0.007405	-0.654053	0.842285	0.518555	0.312210	-0.531951	0.364192	-0.697795
24349		4.959172	-8.246699	1.627960	0.005111	-0.002981	-0.007890	-0.658447	0.843506	0.505859	0.312222	-0.532053	0.364150	-0.697733
24350		4.976798	-8.233360	1.628765	0.007209	-0.003654	-0.007377	-0.653809	0.840820	0.520020	0.312127	-0.531967	0.364121	-0.697857
24351		5.005020	-8.250964	1.629805	0.007753	-0.002629	-0.008371	-0.656006	0.841064	0.519287	0.312134	-0.532081	0.364070	-0.697793
24352		4.997847	-8.239105	1.635243	0.004077	-0.001850	-0.008897	-0.660156	0.850098	0.518799	0.312105	-0.532190	0.364031	-0.697744
24353		5.013651	-8.240295	1.621094	0.003625	-0.002883	-0.006415	-0.651367	0.848877	0.520508	0.312197	-0.532275	0.363947	-0.697681
24354		4.989861	-8.241165	1.625802	0.000918	-0.001637	-0.008921	-0.653809	0.847168	0.517090	0.312301	-0.532382	0.363921	-0.697567
24355		5.007406	-8.227969	1.626029	0.001101	-0.001654	-0.005942	-0.653320	0.846924	0.514404	0.312358	-0.532438	0.363908	-0.697505
24356		4.981130	-8.243540	1.659975	0.003109	-0.002317	-0.006919	-0.651123	0.838623	0.515381	0.312393	-0.532456	0.363893	-0.697483
24357		4.974315	-8.231719	1.621249	0.004713	-0.000834	-0.008403	-0.653564	0.857666	0.516357	0.312325	-0.532494	0.363903	-0.697480
24358		4.990027	-8.232914	1.607333	0.003858	0.000280	-0.006428	-0.658447	0.842041	0.515381	0.312519	-0.532496	0.363849	-0.697420
24359		4.972250	-8.259379	1.636720	0.002073	-0.001187	-0.007924	-0.662598	0.846191	0.517090	0.312462	-0.532547	0.363816	-0.697424
24360		4.971356	-8.273286	1.622229	0.002773	-0.001769	-0.004442	-0.647949	0.840820	0.516602	0.312492	-0.532611	0.363743	-0.697399
24361		4.999083	-8.256468	1.632922	0.009654	-0.004872	-0.009349	-0.654785	0.851807	0.526855	0.312502	-0.532664	0.363721	-0.697366
24362		4.994027	-8.264619	1.643459	0.006387	-0.000948	-0.006905	-0.653076	0.850098	0.512207	0.312716	-0.532824	0.363613	-0.697204
24363		4.970415	-8.230756	1.614723	0.006207	-0.000932	-0.009886	-0.652100	0.847412	0.512695	0.312750	-0.532787	0.363581	-0.697233
24364		4.987949	-8.251965	1.649572	0.003632	-0.002883	-0.006420	-0.659424	0.846680	0.514160	0.312773	-0.532771	0.363585	-0.697233
24365		4.999713	-8.247669	1.615847	0.003657	-0.001294	-0.007917	-0.651855	0.847900	0.514893	0.312775	-0.532792	0.363525	-0.697247
24366		4.981644	-8.239614	1.654841	0.001420	-0.003795	-0.006928	-0.647705	0.843506	0.518311	0.312819	-0.532820	0.363524	-0.697207
24367		4.989397	-8.264410	1.635377	0.002077	-0.001188	-0.007928	-0.652344	0.841553	0.515381	0.312837	-0.532880	0.363546	-0.697141
24368		4.971868	-8.256216	1.630689	0.005239	-0.001399	-0.007908	-0.651855	0.844971	0.524414	0.312804	-0.532904	0.363539	-0.697141
24369		4.995895	-8.233643	1.621953	0.008626	-0.003740	-0.010361	-0.652100	0.843994	0.510010	0.312911	-0.533056	0.363443	-0.697028
24370		4.986582	-8.236221	1.656856	0.007250	-0.002061	-0.008888	-0.660889	0.850586	0.513916	0.312857	-0.532997	0.363443	-0.697096
24371		4.981833	-8.244507	1.623115	0.002259	-0.001204	-0.004949	-0.653809	0.849365	0.510254	0.312915	-0.533004	0.363382	-0.697097
24372		4.995243	-8.260311	1.638237	0.006077	-0.004103	-0.008391	-0.654541	0.846924	0.505859	0.312941	-0.532963	0.363349	-0.697134
24373		4.980065	-8.272020	1.638596	0.005671	-0.001957	-0.008900	-0.653076	0.851318	0.517578	0.312884	-0.532864	0.363344	-0.697238
24374		5.002211	-8.264001	1.615169	0.008292	-0.003190	-0.007886	-0.651367	0.853516	0.516602	0.313018	-0.532909	0.363263	-0.697185
24375		5.005201	-8.248604	1.630598	0.005673	-0.001957	-0.008902	-0.647949	0.847412	0.514160	0.313154	-0.532939	0.363202	-0.697133
24376		4.993989	-8.231319	1.616256	0.003551	-0.002877	-0.007917	-0.657227	0.848389	0.518066	0.313193	-0.532947	0.363211	-0.697105
24377		4.980573	-8.228591	1.630987	0.003462	-0.002870	-0.009409	-0.647461	0.841553	0.522705	0.313250	-0.533029	0.363130	-0.697059
24378		4.973775	-8.251383	1.626236	0.003122	-0.002320	-0.006930	-0.651123	0.844727	0.520020	0.313295	-0.533149	0.363129	-0.696947
24379		4.960121	-8.248782	1.641084	0.002308	0.001972	-0.007948	-0.656738	0.845947	0.518311	0.313324	-0.533215	0.363118	-0.696890
24380		4.965137	-8.253542	1.661225	0.006286	-0.002528	-0.006911	-0.656982	0.849365	0.515381	0.313381	-0.533281	0.363041	-0.696853
24381		4.958153	-8.276443	1.656554	0.000073	-0.000530	-0.006956	-0.651367	0.846436	0.518555	0.313417	-0.533309	0.363009	-0.696833
24382		4.988520	-8.279624	1.627737	0.002717	-0.000174	-0.007440	-0.649902	0.848877	0.522461	0.313462	-0.533359	0.362993	-0.696782
24383		4.991250	-8.264421	1.642902	0.005338	-0.001406	-0.006426	-0.650146	0.844482	0.509521	0.313601	-0.533451	0.362942	-0.696676
24384		4.992229	-8.263670	1.643705	0.007462	-0.000485	-0.007413	-0.655518	0.845215	0.513916	0.313535	-0.533360	0.362978	-0.696757
24385		4.997357	-8.233797	1.629743	0.004507	-0.003999	-0.008409	-0.647949	0.842285	0.512451	0.313524	-0.533381	0.362939	-0.696766
24386		5.004897	-8.223882	1.620368	0.003060	-0.000725	-0.009924	-0.655029	0.849121	0.513916	0.313444	-0.533356	0.362984	-0.696798
24387		5.007763	-8.208642	1.635225	0.001115	-0.001659	-0.005953	-0.656006	0.843018	0.516113	0.313477	-0.533360	0.362969	-0.696788
24388		5.007036	-8.222485	1.620851	0.004732	-0.000835	-0.008424	-0.653809	0.850098	0.512451	0.313451	-0.533393	0.362930	-0.696794
24389		5.006389	-8.236221	1.606798	0.006292	-0.002526	-0.006916	-0.655762	0.843750	0.509521	0.313506	-0.533371	0.362889	-0.696808
24390		4.998991	-8.224497	1.612218	0.005253	-0.001399	-0.007923	-0.653564	0.851318	0.514160	0.313436	-0.533323	0.362880	-0.696881
24391		5.012324	-8.240329	1.627331	0.001725	-0.002230	-0.003959	-0.658936	0.850830	0.522217	0.313522	-0.533326	0.362864	-0.696848
24392		4.980345	-8.265058	1.626999	0.000508	-0.001090	-0.007950	-0.652100	0.840576	0.524414	0.313625	-0.533445	0.362774	-0.696758
24393		4.979126	-8.244407	1.622209	0.003651	-0.002884	-0.006433	-0.652344	0.843750	0.512451	0.313661	-0.533581	0.362739	-0.696655
24394		4.970154	-8.281692	1.647049	0.006229	-0.000932	-0.009912	-0.660889	0.848633	0.515625	0.313609	-0.533557	0.362728	-0.696702
24395		4.973488	-8.266335	1.618587	0.007447	-0.002071	-0.005921	-0.659912	0.847168	0.505127	0.313677	-0.533584	0.362628	-0.696704
24396		4.976300	-8.250988	1.634090	0.007271	-0.002059	-0.008908	-0.663330	0.850830	0.510010	0.313615	-0.533493	0.362581	-0.696825
24397		4.967240	-8.253758	1.624857	0.004716	-0.002424	-0.006930	-0.651367	0.847900	0.512207	0.313647	-0.533475	0.362491	-0.696871
24398		4.980897	-8.269385	1.640005	0.003998	-0.003437	-0.008919	-0.652100	0.843994	0.517090	0.313662	-0.533471	0.362475	-0.696876
24399		4.971908	-8.272148	1.630616	0.007252	-0.003647	-0.007410	-0.650146	0.839355	0.513428	0.313686	-0.533513	0.362440	-0.696852
24400		4.962272	-8.240365	1.631339	0.008425	-0.001604	-0.007913	-0.654785	0.852539	0.520752	0.313620	-0.533497	0.362450	-0.696888
24401		5.013302	-8.235990	1.623133	0.009811	-0.003282	-0.009392	-0.653076	0.846924	0.509521	0.313773	-0.533578	0.362324	-0.696823
24402		4.991342	-8.222210	1.643484	0.009468	-0.002730	-0.006910	-0.654541	0.854980	0.518799	0.313786	-0.533525	0.362291	-0.696875
24403		5.023631	-8.245156	1.663922	0.001987	-0.002779	-0.007940	-0.652100	0.842041	0.518555	0.313929	-0.533600	0.362213	-0.696794
24404		5.014590	-8.248022	1.654202	0.003570	-0.002880	-0.007933	-0.654297	0.845459	0.510742	0.313916	-0.533665	0.362201	-0.696756
24405		5.003960	-8.265280	1.630238	0.007712	-0.002617	-0.009907	-0.658691	0.852783	0.512695	0.313889	-0.533641	0.362160	-0.696808
24406		4.998601	-8.238766	1.650518	0.008234	-0.003180	-0.009406	-0.651123	0.847168	0.517822	0.313977	-0.533650	0.362045	-0.696821
24407		4.997503	-8.217863	1.646503	0.007478	-0.000482	-0.007433	-0.656250	0.844482	0.513672	0.314038	-0.533680	0.362003	-0.696792
24408		5.002963	-8.222683	1.622556	0.000495	-0.002684	-0.006456	-0.654785	0.861328	0.514893	0.314008	-0.533703	0.362000	-0.696790
24409		4.968915	-8.227380	1.617409	0.001687	0.000947	-0.008462	-0.650635	0.848389	0.517578	0.314185	-0.533719	0.361912	-0.696743
24410		4.982620	-8.242943	1.632647	0.004225	-0.000275	-0.008943	-0.653564	0.845215	0.509033	0.314235	-0.533758	0.361880	-0.696708
24411		4.978225	-8.285702	1.633258	0.005268	-0.001400	-0.007938	-0.653320	0.845215	0.509766	0.314180	-0.533706	0.361885	-0.696770
24412		4.978731	-8.250356	1.643633	0.005377	0.000182	-0.007946	-0.657227	0.844727	0.516113	0.314134	-0.533655	0.361887	-0.696828
24413		4.967848	-8.267765	1.619916	0.006419	-0.000943	-0.006941	-0.654297	0.845947	0.513428	0.314142	-0.533683	0.361837	-0.696830
24414		4.952598	-8.279601	1.620601	0.007288	-0.002059	-0.008924	-0.651123	0.844971	0.514648	0.314145	-0.533688	0.361791	-0.696848
24415		4.984839	-8.267955	1.606972	0.005792	-0.001963	-0.007437	-0.659424	0.850342	0.517578	0.314151	-0.533698	0.361779	-0.696844
24416		4.971401	-8.265145	1.622390	0.009415	-0.001135	-0.009919	-0.651855	0.844482	0.515381	0.314236	-0.533749	0.361651	-0.696833
24417		4.970879	-8.278859	1.608496	0.003668	-0.002887	-0.006445	-0.656738	0.842529	0.513672	0.314238	-0.533776	0.361650	-0.696812
24418		4.987901	-8.230746	1.618855	0.008160	-0.003175	-0.010911	-0.650146	0.843506	0.511475	0.314193	-0.533797	0.361592	-0.696847
24419		4.984810	-8.224214	1.644078	0.008335	-0.003183	-0.007922	-0.650635	0.853027	0.515381	0.314172	-0.533775	0.361585	-0.696877
24420		5.001224	-8.259809	1.620790	0.007902	-0.002625	-0.006932	-0.653809	0.852295	0.517090	0.314303	-0.533794	0.361517	-0.696838
24421		4.995618	-8.233381	1.641153	0.009835	-0.003280	-0.009413	-0.653320	0.845459	0.514648	0.314425	-0.533842	0.361407	-0.696803
24422		5.017309	-8.225108	1.661835	0.008339	-0.003184	-0.007925	-0.650879	0.855225	0.513428	0.314445	-0.533859	0.361360	-0.696805
24423		4.998049	-8.231521	1.643083	0.008447	-0.001601	-0.007935	-0.660645	0.852539	0.511963	0.314579	-0.533857	0.361283	-0.696786
24424		5.003724	-8.236122	1.619761	0.008883	-0.002160	-0.008928	-0.652832	0.837891	0.518555	0.314657	-0.533864	0.361162	-0.696808
24425		5.010587	-8.226109	1.654615	0.003674	-0.002888	-0.006450	-0.656250	0.853516	0.513672	0.314595	-0.533924	0.361178	-0.696783
24426		5.034974	-8.238056	1.636007	0.009320	-0.002718	-0.009923	-0.656006	0.845215	0.516602	0.314699	-0.533945	0.361061	-0.696779
24427		5.003035	-8.227869	1.646192	0.006045	-0.004102	-0.009925	-0.659180	0.837158	0.518066	0.314710	-0.534008	0.360994	-0.696762
24428		4.996330	-8.216198	1.607342	0.002025	-0.001202	-0.009457	-0.654541	0.843994	0.524170	0.314604	-0.534077	0.360979	-0.696764
24429		4.977312	-8.257223	1.622052	0.000613	-0.001108	-0.006472	-0.652344	0.847900	0.512451	0.314640	-0.534193	0.360954	-0.696672
24430		4.973796	-8.251086	1.646488	0.001676	-0.000646	-0.006970	-0.653809	0.846924	0.510742	0.314640	-0.534186	0.360962	-0.696674
24431		4.981694	-8.275893	1.627471	0.003282	0.000840	-0.008471	-0.651611	0.849854	0.516846	0.314610	-0.534156	0.360960	-0.696710
24432		4.982869	-8.275044	1.628191	0.005931	0.001204	-0.008965	-0.656738	0.843994	0.510742	0.314669	-0.534176	0.360914	-0.696692
24433		4.985688	-8.259650	1.643363	0.002636	-0.001766	-0.007461	-0.653320	0.848389	0.508545	0.314615	-0.534166	0.360913	-0.696725
24434		4.968744	-8.286262	1.628936	0.002220	0.000377	-0.007974	-0.655762	0.849609	0.519531	0.314593	-0.534123	0.360919	-0.696765
24435		4.975404	-8.241752	1.629646	0.009541	0.000449	-0.009950	-0.653320	0.843994	0.517090	0.314678	-0.534175	0.360814	-0.696741
24436		4.978291	-8.226243	1.645134	0.004224	-0.001865	-0.007457	-0.655518	0.853516	0.520020	0.314676	-0.534215	0.360799	-0.696719
24437		4.975953	-8.254743	1.616412	0.003371	0.000837	-0.006978	-0.656494	0.850342	0.507568	0.314804	-0.534280	0.360722	-0.696652
24438		4.970746	-8.263092	1.626845	0.006960	-0.001503	-0.006456	-0.656250	0.848633	0.516113	0.314828	-0.534227	0.360683	-0.696701
24439		4.985623	-8.229631	1.622983	0.010132	-0.001699	-0.006447	-0.648926	0.847656	0.516602	0.314910	-0.534251	0.360598	-0.696690
24440		4.990664	-8.234183	1.643637	0.007920	-0.002622	-0.006946	-0.655762	0.844727	0.518799	0.314970	-0.534272	0.360570	-0.696661
24441		5.014977	-8.246156	1.625108	0.004769	-0.000842	-0.008463	-0.656006	0.843506	0.518311	0.314986	-0.534333	0.360521	-0.696633
24442		5.003831	-8.263492	1.644958	0.003059	-0.003911	-0.006951	-0.654053	0.844482	0.516602	0.314994	-0.534405	0.360488	-0.696590
24443		4.979662	-8.230307	1.615433	0.003164	-0.002329	-0.006962	-0.656982	0.845459	0.520020	0.314995	-0.534446	0.360474	-0.696566
24444		4.993071	-8.245503	1.674779	0.008275	-0.003178	-0.009439	-0.648438	0.852539	0.512207	0.315049	-0.534527	0.360377	-0.696529
24445		4.981666	-8.228342	1.660802	0.007924	-0.002621	-0.006950	-0.655029	0.845459	0.512451	0.315124	-0.534504	0.360351	-0.696527
24446		4.970204	-8.211264	1.646593	0.004145	-0.001865	-0.008960	-0.655273	0.849609	0.510010	0.315096	-0.534508	0.360332	-0.696546
24447		4.982331	-8.241393	1.647008	0.001476	-0.003814	-0.006957	-0.654053	0.844727	0.518555	0.315107	-0.534506	0.360318	-0.696550
24448		4.984208	-8.275320	1.637297	0.000432	-0.002694	-0.007966	-0.662109	0.847900	0.519531	0.315107	-0.534577	0.360306	-0.696502
24449		4.970535	-8.272825	1.651957	0.004839	-0.002428	-0.005464	-0.654541	0.837402	0.513428	0.315199	-0.534662	0.360203	-0.696448
24450		5.002528	-8.261197	1.638198	0.008366	-0.003179	-0.007948	-0.657471	0.852539	0.509033	0.315106	-0.534655	0.360207	-0.696493
24451		5.001281	-8.240354	1.634066	0.008367	-0.003179	-0.007949	-0.650146	0.849365	0.513672	0.315177	-0.534637	0.360121	-0.696520
24452		5.014854	-8.221267	1.615493	0.008825	-0.002155	-0.010452	-0.655029	0.843750	0.510986	0.315213	-0.534637	0.360072	-0.696529
24453		5.005803	-8.224180	1.606196	0.001668	-0.002235	-0.005473	-0.649658	0.842529	0.510742	0.315164	-0.534624	0.360098	-0.696547
24454		4.994492	-8.241667	1.625932	0.002751	-0.000188	-0.007482	-0.656738	0.845215	0.509766	0.315082	-0.534586	0.360155	-0.696584
24455		5.006566	-8.271769	1.626701	0.005300	-0.001403	-0.007969	-0.652588	0.846924	0.512695	0.315052	-0.534565	0.360132	-0.696626
24456		4.982400	-8.238513	1.597671	0.005403	0.000179	-0.007981	-0.647949	0.846436	0.517090	0.315053	-0.534552	0.360118	-0.696642
24457		4.993663	-8.233993	1.608272	0.005927	-0.000381	-0.007477	-0.661133	0.839844	0.506592	0.315075	-0.534565	0.360119	-0.696622
24458		4.988106	-8.242059	1.662667	0.004425	-0.000285	-0.005983	-0.654297	0.846924	0.510742	0.314968	-0.534511	0.360130	-0.696707
24459		4.968533	-8.248988	1.643170	-0.001924	0.000099	-0.005995	-0.659668	0.848633	0.514893	0.314945	-0.534504	0.360158	-0.696708
24460		4.980625	-8.279129	1.643740	0.006806	-0.001499	-0.009467	-0.648682	0.844971	0.517334	0.314982	-0.534537	0.360071	-0.696711
24461		4.979493	-8.258204	1.639639	0.008918	-0.002154	-0.008961	-0.658691	0.842041	0.510498	0.314996	-0.534556	0.360050	-0.696701
24462		4.986918	-8.248138	1.631006	0.009984	-0.001690	-0.009464	-0.652344	0.845947	0.519043	0.314947	-0.534536	0.359999	-0.696764
24463		4.983184	-8.207370	1.621769	0.004765	-0.002427	-0.006969	-0.656250	0.844971	0.508057	0.314970	-0.534581	0.359986	-0.696726
24464		4.996909	-8.222870	1.636897	0.002552	-0.003355	-0.007465	-0.658203	0.847168	0.512451	0.314939	-0.534570	0.359977	-0.696753
24465		4.979929	-8.249185	1.666288	0.002386	-0.003354	-0.010463	-0.655273	0.843506	0.513428	0.314930	-0.534606	0.359927	-0.696755
24466		4.977948	-8.277630	1.637522	0.006354	-0.002522	-0.006968	-0.650391	0.854736	0.511719	0.314913	-0.534610	0.359912	-0.696768
24467		4.982216	-8.247583	1.667381	0.006457	-0.000940	-0.006980	-0.650146	0.846436	0.509521	0.315037	-0.534609	0.359846	-0.696746
24468		4.995573	-8.228608	1.648736	0.008402	-0.001594	-0.009473	-0.662354	0.849854	0.518311	0.315040	-0.534582	0.359818	-0.696780
24469		4.986634	-8.231450	1.639655	0.005209	-0.002987	-0.007967	-0.659912	0.849854	0.514160	0.315104	-0.534651	0.359725	-0.696747
24470		4.982057	-8.240053	1.605824	0.002135	-0.001214	-0.007984	-0.659912	0.849121	0.517090	0.315141	-0.534688	0.359667	-0.696732
24471		4.995886	-8.255513	1.620817	0.002034	-0.002797	-0.007973	-0.656738	0.848145	0.520996	0.315184	-0.534753	0.359606	-0.696694
24472		5.001167	-8.260055	1.640575	0.003623	-0.002891	-0.007971	-0.657471	0.844971	0.510498	0.315237	-0.534833	0.359552	-0.696636
24473		4.997212	-8.219467	1.630968	0.007930	-0.004199	-0.005461	-0.656982	0.853271	0.510498	0.315248	-0.534823	0.359516	-0.696657
24474		4.986489	-8.237081	1.607311	0.007241	-0.003640	-0.008964	-0.655762	0.842285	0.512695	0.315341	-0.534840	0.359415	-0.696654
24475		4.989470	-8.221454	1.622598	0.006296	-0.000940	-0.009986	-0.652832	0.847656	0.527344	0.315279	-0.534836	0.359401	-0.696693
24476		4.998726	-8.231274	1.662323	0.002827	-0.001773	-0.004484	-0.649658	0.842285	0.519531	0.315359	-0.534934	0.359386	-0.696589
24477		4.990234	-8.269076	1.643334	0.003286	-0.000750	-0.006991	-0.658936	0.835205	0.519043	0.315324	-0.534961	0.359423	-0.696564
24478		4.981147	-8.272096	1.633934	0.004692	-0.002428	-0.008478	-0.656738	0.847900	0.523193	0.315211	-0.535002	0.359436	-0.696578
24479		4.972202	-8.274965	1.624893	0.007023	0.001666	-0.009508	-0.656738	0.842041	0.518311	0.315257	-0.535060	0.359370	-0.696546
24480		4.981169	-8.250296	1.630618	0.007348	-0.002058	-0.008981	-0.654297	0.845215	0.506836	0.315235	-0.535096	0.359335	-0.696547
24481		4.986529	-8.254667	1.650941	0.004795	-0.000846	-0.008492	-0.656494	0.847900	0.520020	0.315197	-0.535054	0.359331	-0.696598
24482		4.993745	-8.244843	1.641611	0.002241	0.000366	-0.008002	-0.658447	0.849609	0.515137	0.315224	-0.535105	0.359303	-0.696561
24483		4.997547	-8.263908	1.647100	0.006103	-0.004106	-0.009968	-0.656006	0.844238	0.513428	0.315282	-0.535157	0.359212	-0.696542
24484		5.002485	-8.234008	1.632691	0.004173	-0.001870	-0.008986	-0.654785	0.850098	0.506836	0.315254	-0.535169	0.359195	-0.696554
24485		5.011340	-8.209448	1.638063	0.007435	-0.002056	-0.007485	-0.657959	0.845459	0.518066	0.315300	-0.535136	0.359144	-0.696586
24486		4.991794	-8.215760	1.663220	0.007353	-0.002057	-0.008986	-0.648193	0.842041	0.513184	0.315319	-0.535178	0.359083	-0.696576
24487		4.998865	-8.205958	1.654156	0.005487	-0.001402	-0.004991	-0.657471	0.856689	0.508057	0.315276	-0.535144	0.359142	-0.696591
24488		5.000553	-8.239942	1.645492	0.006128	0.001204	-0.006012	-0.656494	0.842041	0.512207	0.315408	-0.535124	0.359048	-0.696595
24489		4.973896	-8.221416	1.645710	0.002834	-0.001774	-0.004488	-0.649414	0.843750	0.508057	0.315367	-0.535114	0.359076	-0.696607
24490		5.010855	-8.249604	1.641694	0.004178	-0.001871	-0.008990	-0.651367	0.846924	0.511963	0.315307	-0.535076	0.359107	-0.696647
24491		4.987193	-8.250726	1.646993	0.005424	0.000178	-0.008007	-0.656250	0.849609	0.515137	0.315309	-0.535058	0.359102	-0.696663
24492		4.978139	-8.253719	1.637799	0.005228	-0.002987	-0.007982	-0.661133	0.850586	0.519287	0.315365	-0.535095	0.359044	-0.696639
24493		4.970637	-8.242148	1.642664	0.000017	-0.002150	-0.006987	-0.653809	0.852295	0.518066	0.315427	-0.535174	0.358987	-0.696579
24494		4.968116	-8.270545	1.657392	0.000542	-0.002708	-0.006483	-0.655029	0.845215	0.520508	0.315509	-0.535234	0.358956	-0.696512
24495		4.962478	-8.244770	1.632655	0.002574	-0.003360	-0.007480	-0.651367	0.847168	0.519775	0.315519	-0.535298	0.358943	-0.696466
24496		4.982439	-8.251107	1.637887	0.005558	-0.006710	-0.007455	-0.662109	0.855469	0.515137	0.315567	-0.535362	0.358914	-0.696409
24497		4.995385	-8.231832	1.662568	0.005755	-0.003545	-0.007481	-0.655029	0.850342	0.519287	0.315716	-0.535427	0.358777	-0.696363
24498		4.993311	-8.260442	1.634033	0.006281	-0.004102	-0.006977	-0.655273	0.848877	0.513672	0.315811	-0.535489	0.358706	-0.696308
24499		5.004653	-8.255804	1.644472	0.008315	-0.004754	-0.007975	-0.656006	0.840332	0.518555	0.315867	-0.535510	0.358640	-0.696300
24500		4.995609	-8.258821	1.635199	0.004692	-0.004010	-0.006978	-0.656250	0.849609	0.519531	0.315835	-0.535553	0.358638	-0.696283
24501		4.999929	-8.228660	1.664610	0.004709	-0.002430	-0.008493	-0.661377	0.844727	0.517090	0.315906	-0.535618	0.358569	-0.696237
24502		4.990968	-8.231645	1.655253	0.004710	-0.002430	-0.008494	-0.653809	0.842773	0.515625	0.315926	-0.535673	0.358500	-0.696220
24503		5.016998	-8.228846	1.650949	0.003742	-0.001313	-0.008002	-0.654541	0.844482	0.515137	0.315882	-0.535681	0.358515	-0.696226
24504		4.997677	-8.235761	1.631806	0.002871	0.001387	-0.007524	-0.649902	0.844971	0.514893	0.315850	-0.535676	0.358530	-0.696237
24505		5.001556	-8.255454	1.593265	-0.000309	0.001570	-0.007523	-0.652100	0.846924	0.512207	0.315792	-0.535662	0.358594	-0.696241
24506		4.982989	-8.296499	1.608737	0.007466	-0.000473	-0.009016	-0.656738	0.847168	0.514160	0.315785	-0.535638	0.358578	-0.696271
24507		4.981665	-8.275682	1.604412	0.004286	-0.000290	-0.009015	-0.661377	0.846680	0.513428	0.315792	-0.535650	0.358544	-0.696276
24508		4.980384	-8.254812	1.600210	0.010028	-0.001681	-0.009511	-0.656006	0.852539	0.515625	0.315832	-0.535666	0.358444	-0.696297
24509		4.991873	-8.249942	1.611274	0.011079	-0.002795	-0.008503	-0.656982	0.847412	0.506592	0.315948	-0.535694	0.358332	-0.696281
24510		4.978565	-8.247051	1.627087	0.011000	-0.002798	-0.010007	-0.653320	0.844238	0.511475	0.315951	-0.535655	0.358268	-0.696342
24511		4.984528	-8.251603	1.603852	0.008790	-0.003733	-0.010499	-0.651611	0.846924	0.510254	0.315918	-0.535645	0.358245	-0.696377
24512		5.010489	-8.248046	1.644036	0.008968	-0.002147	-0.009011	-0.660645	0.848145	0.515381	0.315916	-0.535615	0.358225	-0.696412
24513		5.009255	-8.227112	1.639914	0.009843	-0.004847	-0.009491	-0.652100	0.850586	0.516113	0.315984	-0.535664	0.358113	-0.696400
24514		4.981103	-8.222623	1.669666	0.004357	-0.001869	-0.006003	-0.656494	0.845947	0.512939	0.316047	-0.535685	0.358093	-0.696366
24515		4.996932	-8.223680	1.655396	0.002954	-0.003929	-0.009991	-0.658447	0.843506	0.514404	0.316029	-0.535714	0.358069	-0.696364
24516		4.973372	-8.224845	1.660601	0.007461	-0.002053	-0.007511	-0.659424	0.847656	0.512451	0.316022	-0.535721	0.358037	-0.696378
24517		4.978684	-8.229143	1.681154	0.008002	-0.001030	-0.008524	-0.655518	0.845703	0.518555	0.316056	-0.535726	0.357968	-0.696394
24518		4.994505	-8.230069	1.667542	0.006937	-0.001497	-0.008017	-0.657715	0.845947	0.514160	0.316076	-0.535756	0.357933	-0.696380
24519		4.985457	-8.233098	1.658476	0.005346	-0.001407	-0.008016	-0.651123	0.850342	0.500977	0.316082	-0.535770	0.357901	-0.696383
24520		4.967720	-8.225350	1.653876	0.002784	-0.000200	-0.007521	-0.654053	0.850342	0.516602	0.316059	-0.535691	0.357929	-0.696440
24521		5.009343	-8.259046	1.625546	0.002689	-0.001783	-0.007507	-0.654785	0.846680	0.510498	0.316109	-0.535728	0.357902	-0.696403
24522		4.974612	-8.229397	1.630442	0.007321	-0.000482	-0.012040	-0.659424	0.845703	0.517334	0.316083	-0.535714	0.357865	-0.696445
24523		4.981867	-8.219536	1.620961	-0.001911	0.000072	-0.006012	-0.656738	0.845703	0.518311	0.316075	-0.535754	0.357876	-0.696411
24524		4.966617	-8.231923	1.620781	-0.000493	-0.001604	-0.007504	-0.647217	0.845459	0.509766	0.316067	-0.535803	0.357882	-0.696374
24525		4.960167	-8.255052	1.616026	0.000574	-0.001138	-0.008012	-0.653076	0.847412	0.519287	0.315995	-0.535766	0.357960	-0.696395
24526		4.992931	-8.277333	1.636252	0.004284	-0.001872	-0.007512	-0.656006	0.846191	0.516357	0.316019	-0.535802	0.357948	-0.696363
24527		4.995845	-8.262369	1.607333	0.005877	-0.001961	-0.007516	-0.653076	0.848389	0.515625	0.316036	-0.535821	0.357922	-0.696353
24528		4.998653	-8.246698	1.622672	0.009430	-0.002704	-0.010025	-0.655518	0.841064	0.520996	0.316073	-0.535837	0.357866	-0.696354
24529		4.996455	-8.274790	1.638356	0.004798	-0.004007	-0.005491	-0.657227	0.849609	0.515381	0.316050	-0.535875	0.357885	-0.696325
24530		5.008294	-8.221407	1.628503	0.006406	-0.002517	-0.007013	-0.660400	0.846924	0.512939	0.316117	-0.535903	0.357826	-0.696304
24531		4.983004	-8.237484	1.619212	0.002169	-0.001228	-0.008018	-0.656494	0.848145	0.520508	0.316127	-0.535926	0.357792	-0.696299
24532		4.995806	-8.218110	1.643900	0.006407	-0.002517	-0.007014	-0.660156	0.853271	0.514404	0.316190	-0.535976	0.357740	-0.696258
24533		5.011463	-8.219179	1.630000	0.004908	-0.000846	-0.007026	-0.665283	0.847900	0.515381	0.316300	-0.536013	0.357648	-0.696227
24534		4.994710	-8.246154	1.616208	0.005435	-0.001401	-0.006522	-0.658936	0.849854	0.517578	0.316379	-0.536061	0.357553	-0.696203
24535		5.015793	-8.237097	1.680207	0.002791	-0.000202	-0.007529	-0.657227	0.846436	0.512207	0.316445	-0.536109	0.357496	-0.696166
24536		5.009705	-8.260676	1.631978	0.004645	-0.004017	-0.008503	-0.652588	0.850342	0.516846	0.316446	-0.536124	0.357470	-0.696166
24537		4.981514	-8.256322	1.661412	0.003844	-0.001313	-0.006520	-0.649170	0.841309	0.522949	0.316500	-0.536146	0.357453	-0.696134
24538		4.984368	-8.241417	1.632386	0.005266	-0.002989	-0.008014	-0.653809	0.844482	0.520752	0.316461	-0.536181	0.357486	-0.696108
24539		4.987205	-8.225760	1.647414	0.006255	-0.002527	-0.010028	-0.655029	0.851074	0.510010	0.316460	-0.536227	0.357458	-0.696087
24540		5.013223	-8.222850	1.643080	0.002253	-0.001225	-0.006518	-0.652832	0.843994	0.514648	0.316490	-0.536216	0.357452	-0.696085
24541		5.003907	-8.226247	1.633219	-0.001474	-0.002072	-0.005496	-0.657227	0.848389	0.514648	0.316437	-0.536219	0.357522	-0.696071
24542		4.968021	-8.245983	1.657196	-0.003145	-0.001990	-0.006997	-0.648926	0.846924	0.520264	0.316445	-0.536260	0.357530	-0.696032
24543		5.002546	-8.254113	1.647629	0.002794	-0.000202	-0.007533	-0.652344	0.836670	0.515625	0.316438	-0.536276	0.357561	-0.696007
24544		4.993474	-8.257289	1.638170	0.003677	-0.002901	-0.008013	-0.659424	0.851074	0.513184	0.316307	-0.536258	0.357643	-0.696038
24545		5.003254	-8.267392	1.633798	0.002795	-0.000202	-0.007535	-0.651855	0.843750	0.509521	0.316372	-0.536281	0.357586	-0.696020
24546		4.993006	-8.235960	1.633532	0.002085	-0.002813	-0.008010	-0.649902	0.847900	0.511963	0.316294	-0.536249	0.357645	-0.696050
24547		4.992670	-8.249992	1.619122	0.002086	-0.002813	-0.008011	-0.652100	0.846924	0.520020	0.316274	-0.536239	0.357676	-0.696050
24548		4.985187	-8.238352	1.624239	0.006431	-0.000937	-0.008545	-0.652832	0.840332	0.508057	0.316287	-0.536258	0.357664	-0.696036
24549		4.995057	-8.248324	1.620252	0.004839	-0.000850	-0.008541	-0.657715	0.843994	0.514160	0.316177	-0.536197	0.357725	-0.696102
24550		4.987627	-8.236637	1.625447	0.004221	-0.001878	-0.009032	-0.654541	0.852295	0.507812	0.316151	-0.536207	0.357714	-0.696112
24551		4.997441	-8.246700	1.621170	0.003324	-0.000757	-0.007032	-0.652100	0.845703	0.511719	0.316211	-0.536194	0.357679	-0.696113
24552		4.989852	-8.235174	1.626031	0.000060	-0.000590	-0.008530	-0.638916	0.840088	0.510742	0.316159	-0.536181	0.357723	-0.696123
24553		4.992194	-8.269107	1.616838	0.002708	-0.001786	-0.007524	-0.654053	0.852539	0.521484	0.316014	-0.536104	0.357877	-0.696170
24554		5.007878	-8.269436	1.646603	0.006176	-0.004108	-0.010025	-0.652100	0.853760	0.511963	0.316094	-0.536170	0.357805	-0.696119
24555		4.965613	-8.263669	1.647110	0.010510	-0.003807	-0.009039	-0.660889	0.853271	0.520508	0.316204	-0.536181	0.357710	-0.696109
24556		4.994873	-8.231700	1.628201	0.006424	-0.002513	-0.007030	-0.654541	0.841309	0.518066	0.316335	-0.536250	0.357602	-0.696052
24557		4.991520	-8.225145	1.653297	0.008469	-0.003160	-0.008036	-0.654053	0.848389	0.514648	0.316297	-0.536252	0.357607	-0.696065
24558		4.984003	-8.213413	1.658948	0.008560	-0.001577	-0.008053	-0.654785	0.848877	0.516846	0.316335	-0.536250	0.357567	-0.696070
24559		4.989235	-8.217769	1.679216	0.002789	-0.001781	-0.006021	-0.645508	0.850830	0.511963	0.316372	-0.536273	0.357559	-0.696040
24560		4.963841	-8.234117	1.669699	0.002172	-0.002810	-0.006511	-0.644775	0.841064	0.510498	0.316387	-0.536259	0.357597	-0.696024
24561		4.981992	-8.255283	1.660428	-0.000142	0.001564	-0.004536	-0.658447	0.847168	0.516846	0.316264	-0.536180	0.357748	-0.696064
24562		4.987088	-8.260585	1.636356	0.002430	0.000363	-0.005036	-0.653564	0.847412	0.513428	0.316287	-0.536191	0.357745	-0.696046
24563		4.975277	-8.243850	1.622170	0.008499	-0.000006	-0.011085	-0.650879	0.842529	0.508057	0.316288	-0.536179	0.357706	-0.696075
24564		5.008216	-8.265804	1.642892	0.001814	-0.000666	-0.005527	-0.653809	0.847656	0.519531	0.316218	-0.536126	0.357782	-0.696108
24565		4.990335	-8.258258	1.638200	0.004849	-0.000851	-0.008552	-0.657227	0.846680	0.515625	0.316225	-0.536146	0.357774	-0.696094
24566		5.000464	-8.268860	1.590335	0.008477	-0.003159	-0.008042	-0.651855	0.841064	0.512939	0.316255	-0.536159	0.357727	-0.696094
24567		4.994342	-8.242379	1.610569	0.011744	-0.003322	-0.006547	-0.651855	0.843262	0.511719	0.316221	-0.536117	0.357740	-0.696136
24568		4.989412	-8.250546	1.621765	0.011218	-0.002769	-0.007055	-0.653076	0.849854	0.511719	0.316211	-0.536078	0.357736	-0.696172
24569		4.998026	-8.225768	1.627484	0.010965	-0.005942	-0.008531	-0.659912	0.849854	0.516846	0.316289	-0.536092	0.357657	-0.696167
24570		5.010608	-8.255594	1.628887	0.007491	-0.003621	-0.006028	-0.656494	0.842285	0.513672	0.316370	-0.536125	0.357589	-0.696140
24571		5.024630	-8.270634	1.644808	0.011585	-0.004913	-0.008044	-0.648193	0.846924	0.517334	0.316357	-0.536115	0.357561	-0.696168
24572		5.005785	-8.228117	1.650018	0.010442	-0.005389	-0.009041	-0.651367	0.846680	0.517578	0.316369	-0.536122	0.357545	-0.696165
24573		5.023270	-8.214034	1.651049	0.012128	-0.003891	-0.009066	-0.652588	0.842773	0.518311	0.316388	-0.536123	0.357509	-0.696174
24574		4.985402	-8.214101	1.627569	0.008410	-0.003168	-0.009560	-0.656250	0.849854	0.509766	0.316336	-0.536122	0.357522	-0.696192
24575		5.014072	-8.230102	1.672671	0.004857	-0.000855	-0.008562	-0.649658	0.844971	0.510742	0.316382	-0.536126	0.357471	-0.696194
24576		5.003698	-8.247974	1.649214	0.006905	-0.001501	-0.009572	-0.656738	0.843018	0.510498	0.316352	-0.536099	0.357479	-0.696224
24577		4.987595	-8.225392	1.659295	0.003890	0.001834	-0.009592	-0.652832	0.851318	0.515869	0.316291	-0.536070	0.357493	-0.696267
24578		4.985745	-8.254214	1.631155	0.003515	0.002404	-0.007083	-0.652100	0.844971	0.516113	0.316327	-0.536067	0.357486	-0.696256
24579		4.980780	-8.262538	1.641700	0.002459	0.003510	-0.008096	-0.649658	0.853516	0.512207	0.316267	-0.536038	0.357541	-0.696278
24580		4.977604	-8.256680	1.622924	0.006633	0.002228	-0.008607	-0.663330	0.847412	0.509766	0.316338	-0.536025	0.357496	-0.696279
24581		4.977095	-8.269871	1.653360	0.004422	0.001281	-0.009089	-0.652100	0.852295	0.517090	0.316355	-0.536024	0.357441	-0.696300
24582		4.974142	-8.263912	1.634443	0.004875	0.000720	-0.010092	-0.657959	0.843018	0.516357	0.316394	-0.536042	0.357407	-0.696286
24583		4.956463	-8.256223	1.630113	0.006008	-0.000377	-0.007572	-0.654541	0.842529	0.510742	0.316352	-0.536031	0.357422	-0.696306
24584		4.985358	-8.272885	1.631478	0.008963	-0.002145	-0.010588	-0.656006	0.853760	0.512939	0.316305	-0.536007	0.357412	-0.696351
24585		5.005649	-8.229232	1.661089	0.009998	-0.006399	-0.006524	-0.651855	0.855225	0.512207	0.316442	-0.536044	0.357308	-0.696313
24586		4.999802	-8.203430	1.637187	0.010551	-0.003803	-0.009072	-0.652832	0.853271	0.516602	0.316568	-0.536066	0.357203	-0.696293
24587		4.980418	-8.209860	1.662204	0.004142	-0.006619	-0.005988	-0.658691	0.846436	0.517090	0.316662	-0.536120	0.357161	-0.696230
24588		4.997484	-8.196189	1.662185	0.006269	-0.007254	-0.005491	-0.653564	0.846436	0.521240	0.316700	-0.536161	0.357134	-0.696195
24589		4.992554	-8.204585	1.672278	0.003702	-0.004484	-0.006514	-0.650146	0.845215	0.513428	0.316698	-0.536197	0.357153	-0.696159
24590		5.000542	-8.228879	1.697202	0.002181	-0.004391	-0.004997	-0.653076	0.843750	0.519775	0.316674	-0.536192	0.357209	-0.696144
24591		4.985250	-8.241461	1.697320	0.000227	-0.000590	-0.005531	-0.656006	0.848633	0.512207	0.316613	-0.536194	0.357288	-0.696130
24592		4.990670	-8.246657	1.673116	0.002203	-0.001243	-0.008051	-0.649658	0.837402	0.520508	0.316625	-0.536203	0.357278	-0.696123
24593		4.986030	-8.255754	1.639437	0.002904	0.001371	-0.007581	-0.656982	0.849609	0.510986	0.316468	-0.536162	0.357408	-0.696160
24594		4.968198	-8.248300	1.634492	-0.000990	-0.001078	-0.008036	-0.652100	0.850098	0.508545	0.316485	-0.536183	0.357399	-0.696140
24595		4.991181	-8.275088	1.600766	0.000154	-0.000599	-0.007041	-0.655762	0.841309	0.514648	0.316510	-0.536179	0.357404	-0.696129
24596		4.982123	-8.278423	1.591133	0.003188	-0.002357	-0.008550	-0.643311	0.847412	0.515381	0.316431	-0.536172	0.357448	-0.696148
24597		4.990729	-8.253718	1.596006	0.006298	-0.004105	-0.008550	-0.653809	0.845703	0.517578	0.316419	-0.536165	0.357479	-0.696143
24598		5.003521	-8.234035	1.620664	0.006374	-0.004095	-0.007042	-0.652832	0.843018	0.518555	0.316412	-0.536173	0.357488	-0.696135
24599		4.984300	-8.241334	1.601638	0.005760	-0.005127	-0.007531	-0.655762	0.847900	0.514648	0.316363	-0.536179	0.357526	-0.696133
24600		5.004220	-8.247428	1.607014	0.005296	-0.006139	-0.005000	-0.650146	0.843750	0.520996	0.316409	-0.536202	0.357510	-0.696103
24601		5.009452	-8.251748	1.627164	0.006017	-0.000377	-0.007586	-0.655273	0.849854	0.511963	0.316341	-0.536181	0.357574	-0.696118
24602		5.000263	-8.254052	1.662477	0.010736	-0.000632	-0.009125	-0.655518	0.841797	0.508789	0.316405	-0.536172	0.357498	-0.696134
24603		4.993147	-8.242922	1.624555	0.011562	-0.003339	-0.011116	-0.655273	0.845947	0.515869	0.316379	-0.536149	0.357456	-0.696185
24604		5.003457	-8.252515	1.621199	0.010580	-0.002226	-0.010620	-0.653809	0.837646	0.512451	0.316372	-0.536144	0.357419	-0.696211
24605		4.993024	-8.219991	1.665774	0.010201	-0.001654	-0.008107	-0.662109	0.842285	0.508057	0.316284	-0.536091	0.357460	-0.696271
24606		4.997038	-8.238884	1.672204	0.008604	-0.001573	-0.008099	-0.647217	0.852539	0.505615	0.316285	-0.536073	0.357414	-0.696308
24607		4.995225	-8.218249	1.667769	0.005483	-0.001399	-0.006570	-0.656250	0.848877	0.513184	0.316397	-0.536071	0.357357	-0.696288
24608		4.966957	-8.213995	1.697497	0.004424	-0.000297	-0.007583	-0.651367	0.849365	0.513672	0.316420	-0.536072	0.357339	-0.696286
24609		5.000129	-8.236616	1.674133	0.002827	-0.000216	-0.007574	-0.648926	0.849365	0.503662	0.316432	-0.536070	0.357348	-0.696277
24610		4.995496	-8.245736	1.640687	0.005495	0.000173	-0.008101	-0.656738	0.847168	0.507568	0.316491	-0.536047	0.357308	-0.696289
24611		5.005105	-8.254913	1.680640	0.003441	0.000816	-0.007087	-0.654297	0.850342	0.502930	0.316507	-0.536028	0.357296	-0.696303
24612		4.996264	-8.259026	1.627555	0.005339	-0.001421	-0.009594	-0.652832	0.840332	0.518066	0.316576	-0.536026	0.357222	-0.696310
24613		4.997488	-8.258202	1.627977	0.002746	-0.001800	-0.007557	-0.660889	0.849854	0.513672	0.316463	-0.536006	0.357316	-0.696329
24614		5.008749	-8.253382	1.638145	0.005944	-0.001961	-0.007578	-0.647461	0.843506	0.509033	0.316510	-0.536022	0.357266	-0.696321
24615		4.957514	-8.237347	1.642983	0.003659	-0.002924	-0.009567	-0.670410	0.844727	0.519043	0.316459	-0.536005	0.357303	-0.696338
24616		4.983575	-8.234212	1.638426	0.004263	-0.003464	-0.007550	-0.645752	0.845215	0.513672	0.316425	-0.536029	0.357295	-0.696339
24617		4.997744	-8.249185	1.653917	0.005946	-0.001961	-0.007580	-0.653809	0.849121	0.512939	0.316399	-0.536006	0.357336	-0.696348
24618		4.990137	-8.238571	1.615168	0.004421	-0.001869	-0.006059	-0.652344	0.834961	0.518066	0.316435	-0.536008	0.357329	-0.696333
24619		4.995414	-8.242874	1.635100	0.003196	-0.003935	-0.007034	-0.663818	0.846680	0.513428	0.316260	-0.535970	0.357472	-0.696369
24620		4.990711	-8.252154	1.601255	0.002293	-0.001239	-0.006556	-0.652832	0.846191	0.513184	0.316258	-0.535977	0.357468	-0.696367
24621		4.963814	-8.233174	1.644878	0.002211	-0.002822	-0.006537	-0.662842	0.849609	0.517822	0.316247	-0.535979	0.357498	-0.696355
24622		4.966343	-8.267188	1.636076	0.004349	-0.001881	-0.007573	-0.654785	0.855713	0.512939	0.316262	-0.535998	0.357477	-0.696343
24623		4.968950	-8.251441	1.651188	0.009075	-0.002131	-0.009118	-0.646484	0.846924	0.516602	0.316390	-0.536028	0.357367	-0.696319
24624		4.975933	-8.241552	1.642159	0.007541	-0.003612	-0.006065	-0.654785	0.847168	0.516602	0.316392	-0.536014	0.357398	-0.696313
24625		4.985903	-8.251458	1.638284	0.005887	-0.000401	-0.010630	-0.650391	0.847656	0.509033	0.316362	-0.536011	0.357398	-0.696329
24626		4.997536	-8.247298	1.604982	0.008621	-0.001569	-0.008116	-0.640869	0.853027	0.508545	0.316403	-0.535994	0.357364	-0.696341
24627		5.010322	-8.276084	1.650267	0.004199	-0.003477	-0.009069	-0.655273	0.845947	0.516357	0.316485	-0.536013	0.357327	-0.696308
24628		5.020515	-8.237267	1.625558	0.006339	-0.002535	-0.010106	-0.656738	0.849365	0.513672	0.316453	-0.536015	0.357330	-0.696320
24629		5.016190	-8.246233	1.592318	0.007482	-0.002052	-0.009114	-0.664795	0.846924	0.512939	0.316486	-0.536023	0.357286	-0.696321
24630		5.009860	-8.218784	1.655870	0.004356	-0.001882	-0.007578	-0.656982	0.856445	0.510498	0.316494	-0.536032	0.357260	-0.696324
24631		5.002218	-8.208256	1.616958	0.002380	0.000343	-0.006581	-0.651855	0.850342	0.519531	0.316614	-0.536058	0.357189	-0.696285
24632		4.991456	-8.225686	1.637158	0.003818	-0.002903	-0.006554	-0.657471	0.843506	0.517334	0.316634	-0.536078	0.357203	-0.696254
24633		5.005528	-8.240652	1.652870	0.006201	0.002790	-0.007652	-0.647217	0.851074	0.514893	0.316572	-0.536038	0.357245	-0.696291
24634		4.993495	-8.224100	1.638907	0.008629	-0.001568	-0.008124	-0.655029	0.836670	0.513672	0.316617	-0.536032	0.357223	-0.696286
24635		5.002181	-8.248801	1.620878	0.006427	-0.000952	-0.010132	-0.653564	0.843506	0.516846	0.316475	-0.535984	0.357300	-0.696349
24636		4.981580	-8.270134	1.631516	0.003210	-0.003937	-0.007043	-0.655029	0.850830	0.508789	0.316415	-0.535981	0.357361	-0.696347
24637		4.975282	-8.243758	1.650678	0.004280	-0.003466	-0.007562	-0.653320	0.844238	0.510986	0.316487	-0.536002	0.357309	-0.696324
24638		4.966263	-8.247077	1.641541	0.007032	-0.001489	-0.008115	-0.654541	0.847168	0.511719	0.316467	-0.535976	0.357319	-0.696349
24639		4.968844	-8.231303	1.656628	0.006422	-0.002523	-0.008603	-0.656494	0.847900	0.508789	0.316478	-0.535974	0.357301	-0.696354
24640		4.987670	-8.251954	1.648061	0.006423	-0.002523	-0.008604	-0.659912	0.855225	0.512939	0.316513	-0.535975	0.357259	-0.696359
24641		4.990272	-8.237254	1.619003	0.003905	-0.001320	-0.006579	-0.649170	0.852539	0.517090	0.316620	-0.536007	0.357190	-0.696322
24642		4.991356	-8.235491	1.663196	0.003071	-0.003965	-0.010073	-0.658691	0.841797	0.511963	0.316649	-0.536046	0.357174	-0.696286
24643		5.000120	-8.260290	1.644543	0.005355	-0.002995	-0.008086	-0.649170	0.844727	0.513916	0.316592	-0.536029	0.357202	-0.696311
24644		5.007306	-8.250254	1.635521	0.012680	-0.004430	-0.010153	-0.657227	0.846436	0.518311	0.316580	-0.536009	0.357185	-0.696340
24645		5.008740	-8.249176	1.636566	0.007419	-0.003635	-0.009108	-0.650391	0.847656	0.509033	0.316558	-0.536016	0.357185	-0.696345
24646		5.014230	-8.204575	1.636079	0.003757	-0.002918	-0.008076	-0.656250	0.844971	0.507080	0.316574	-0.536016	0.357183	-0.696339
24647		5.013902	-8.217744	1.665873	0.002688	-0.003390	-0.007556	-0.649902	0.847900	0.509277	0.316569	-0.536014	0.357188	-0.696341
24648		4.997609	-8.245203	1.651737	-0.001427	-0.000541	-0.007050	-0.664062	0.851807	0.510986	0.316562	-0.536012	0.357227	-0.696325
24649		4.981047	-8.223049	1.660962	0.002768	-0.001806	-0.007578	-0.651367	0.844971	0.517090	0.316627	-0.536039	0.357170	-0.696303
24650		4.996629	-8.224159	1.646587	0.001317	-0.000132	-0.006071	-0.654053	0.843994	0.509277	0.316569	-0.536020	0.357251	-0.696303
24651		4.991800	-8.232550	1.656732	0.002238	-0.001257	-0.008086	-0.656250	0.842041	0.520020	0.316528	-0.536002	0.357287	-0.696318
24652		5.006209	-8.248437	1.628153	0.003840	-0.001334	-0.008100	-0.654053	0.843994	0.516846	0.316425	-0.535981	0.357367	-0.696339
24653		5.007234	-8.247717	1.628646	0.003990	0.000264	-0.006607	-0.658691	0.846191	0.518066	0.316363	-0.535949	0.357434	-0.696357
24654		4.973323	-8.253538	1.624531	0.007044	-0.001487	-0.008128	-0.659424	0.842529	0.513184	0.316334	-0.535938	0.357448	-0.696372
24655		4.997950	-8.264045	1.650139	0.007967	-0.002613	-0.010144	-0.656982	0.848633	0.514648	0.316283	-0.535921	0.357449	-0.696407
24656		4.997807	-8.229324	1.616139	0.009109	-0.002126	-0.009152	-0.652588	0.847900	0.514404	0.316307	-0.535919	0.357412	-0.696417
24657		4.993203	-8.237452	1.626969	0.005977	-0.001960	-0.007610	-0.656250	0.857178	0.515869	0.316314	-0.535913	0.357417	-0.696417
24658		5.000131	-8.227658	1.617433	0.002242	-0.001259	-0.008090	-0.656738	0.834717	0.514648	0.316405	-0.535956	0.357362	-0.696370
24659		4.989604	-8.245055	1.637383	0.000102	-0.002204	-0.007047	-0.652588	0.847900	0.516113	0.316230	-0.535912	0.357507	-0.696409
24660		5.009530	-8.251075	1.642397	0.001243	-0.001717	-0.006054	-0.655029	0.849365	0.507080	0.316213	-0.535911	0.357557	-0.696392
24661		4.994576	-8.263632	1.642836	0.004300	-0.003467	-0.007577	-0.653564	0.845459	0.512695	0.316288	-0.535931	0.357503	-0.696370
24662		4.992705	-8.241976	1.681814	0.005833	-0.003557	-0.009108	-0.655518	0.854736	0.511719	0.316273	-0.535930	0.357506	-0.696376
24663		5.007315	-8.257656	1.653726	0.009115	-0.002124	-0.009159	-0.659424	0.848877	0.510742	0.316390	-0.535954	0.357402	-0.696358
24664		5.007086	-8.221831	1.663823	0.010117	-0.001667	-0.011198	-0.646973	0.847656	0.514404	0.316431	-0.535956	0.357323	-0.696378
24665		5.002904	-8.230771	1.630975	0.010036	-0.004819	-0.009641	-0.654053	0.852295	0.517090	0.316445	-0.535955	0.357306	-0.696382
24666		4.995494	-8.219015	1.636327	0.003324	0.000780	-0.010155	-0.647461	0.849854	0.518066	0.316456	-0.535967	0.357294	-0.696374
24667		4.992327	-8.213411	1.616839	0.000106	-0.002207	-0.007051	-0.648193	0.848877	0.515869	0.316441	-0.535979	0.357350	-0.696343
24668		4.991901	-8.226757	1.646060	-0.004625	-0.000398	-0.007027	-0.650879	0.855713	0.513916	0.316399	-0.535989	0.357434	-0.696311
24669		4.950860	-8.256849	1.636582	-0.000348	-0.000075	-0.007580	-0.653076	0.844971	0.517578	0.316467	-0.536018	0.357417	-0.696266
24670		4.970816	-8.262789	1.641817	0.002395	0.000338	-0.006602	-0.649170	0.846924	0.521240	0.316410	-0.535995	0.357488	-0.696273
24671		4.980626	-8.272827	1.637794	0.006063	-0.000374	-0.007641	-0.657227	0.848145	0.518555	0.316367	-0.535974	0.357542	-0.696281
24672		4.965662	-8.285340	1.638714	0.004455	-0.001868	-0.006089	-0.660400	0.844238	0.516846	0.316363	-0.535973	0.357566	-0.696272
24673		4.975567	-8.295347	1.634575	0.004849	-0.002446	-0.008615	-0.649902	0.842285	0.513184	0.316316	-0.535968	0.357590	-0.696284
24674		4.992759	-8.281240	1.634909	0.008512	-0.004726	-0.008117	-0.654785	0.847412	0.509766	0.316279	-0.535946	0.357618	-0.696303
24675		4.982177	-8.249793	1.634885	0.007449	-0.003631	-0.009133	-0.651855	0.846436	0.516357	0.316314	-0.535951	0.357576	-0.696306
24676		5.002345	-8.206676	1.620070	0.009980	-0.004831	-0.011168	-0.649414	0.845947	0.515625	0.316298	-0.535953	0.357559	-0.696320
24677		4.997519	-8.165065	1.653938	0.004389	-0.001884	-0.007609	-0.650635	0.844971	0.510498	0.316265	-0.535937	0.357605	-0.696323
24678		5.025057	-8.196644	1.640181	-0.000959	-0.002683	-0.006531	-0.661133	0.849365	0.515625	0.316240	-0.535938	0.357660	-0.696306
24679		5.008627	-8.224387	1.625936	-0.000282	-0.001631	-0.004529	-0.657715	0.848877	0.511230	0.316252	-0.535949	0.357689	-0.696277
24680		5.025746	-8.259160	1.646605	0.004998	-0.000847	-0.007125	-0.663818	0.847656	0.519287	0.316292	-0.535946	0.357665	-0.696274
24681		5.010699	-8.271731	1.647604	0.005142	0.000752	-0.005630	-0.659424	0.845947	0.517334	0.316279	-0.535928	0.357688	-0.696282
24682		5.014357	-8.242214	1.632933	0.005463	-0.001410	-0.008136	-0.652100	0.850098	0.507080	0.316247	-0.535918	0.357708	-0.696294
24683		4.993951	-8.263611	1.643733	0.003259	-0.000806	-0.010145	-0.644775	0.847656	0.513428	0.316294	-0.535930	0.357663	-0.696286
24684		4.999665	-8.268757	1.619562	-0.000417	-0.001664	-0.007565	-0.652100	0.846191	0.513428	0.316268	-0.535928	0.357724	-0.696268
24685		4.996403	-8.262086	1.643947	0.004325	-0.001900	-0.009131	-0.658203	0.847168	0.515869	0.316246	-0.535922	0.357742	-0.696273
24686		4.981322	-8.225908	1.624128	0.007069	-0.001483	-0.008155	-0.664062	0.849365	0.509521	0.316243	-0.535912	0.357738	-0.696284
24687		4.953385	-8.222712	1.610294	0.007609	-0.000462	-0.009188	-0.658203	0.849854	0.517334	0.316302	-0.535915	0.357663	-0.696294
24688		4.992449	-8.234897	1.621368	0.006143	-0.000357	-0.006137	-0.655518	0.843750	0.521484	0.316326	-0.535906	0.357662	-0.696290
24689		4.965896	-8.265506	1.642573	0.007214	0.000117	-0.006662	-0.657227	0.843018	0.517090	0.316257	-0.535866	0.357730	-0.696318
24690		4.987390	-8.257274	1.619146	0.010746	-0.002192	-0.009201	-0.650879	0.843994	0.511963	0.316210	-0.535836	0.357742	-0.696356
24691		4.988640	-8.256244	1.620541	0.011887	-0.001701	-0.008210	-0.652832	0.853027	0.518311	0.316208	-0.535796	0.357736	-0.696391
24692		4.985339	-8.249383	1.645916	0.007535	-0.003614	-0.007630	-0.653320	0.849854	0.507324	0.316256	-0.535809	0.357712	-0.696371
24693		5.011319	-8.246019	1.641425	0.003188	-0.003960	-0.008590	-0.652588	0.849121	0.513916	0.316315	-0.535835	0.357670	-0.696346
24694		4.989137	-8.232812	1.660601	0.001584	-0.003888	-0.008573	-0.648438	0.844971	0.513916	0.316317	-0.535856	0.357683	-0.696323
24695		5.017728	-8.200696	1.640600	0.008071	-0.004160	-0.007125	-0.648682	0.846924	0.509521	0.316306	-0.535837	0.357707	-0.696330
24696		5.013180	-8.208805	1.651515	0.009149	-0.002119	-0.009192	-0.664795	0.839844	0.517334	0.316331	-0.535820	0.357681	-0.696345
24697		4.998415	-8.221197	1.652814	0.007147	-0.001467	-0.006647	-0.650635	0.845703	0.508301	0.316247	-0.535780	0.357739	-0.696384
24698		5.004929	-8.210324	1.687566	0.005684	0.000207	-0.005134	-0.654053	0.851074	0.511963	0.316272	-0.535746	0.357752	-0.696392
24699		4.975345	-8.222499	1.658876	0.000123	-0.002217	-0.007062	-0.656738	0.853516	0.514160	0.316305	-0.535768	0.357754	-0.696359
24700		5.002731	-8.254217	1.644979	0.000792	-0.002728	-0.003517	-0.645996	0.848633	0.508301	0.316380	-0.535790	0.357753	-0.696308
24701		4.984649	-8.247177	1.639949	0.002733	-0.001832	-0.009125	-0.646240	0.847656	0.506836	0.316397	-0.535792	0.357754	-0.696299
24702		4.991618	-8.237365	1.630158	0.002268	-0.001268	-0.008115	-0.653564	0.845947	0.512695	0.316413	-0.535785	0.357763	-0.696292
24703		4.972468	-8.245173	1.610924	0.000663	-0.001197	-0.008098	-0.654053	0.849121	0.520264	0.316376	-0.535780	0.357808	-0.696290
24704		4.992624	-8.251007	1.615675	-0.004151	-0.000983	-0.008045	-0.658691	0.842529	0.510498	0.316314	-0.535799	0.357889	-0.696262
24705		4.972170	-8.272669	1.625784	0.001736	-0.000722	-0.008625	-0.653076	0.845459	0.509277	0.316256	-0.535780	0.357931	-0.696281
24706		4.987825	-8.273706	1.611298	0.001265	-0.001725	-0.006072	-0.647949	0.849609	0.510254	0.316252	-0.535770	0.357965	-0.696273
24707		4.996034	-8.248871	1.616037	0.009552	-0.004263	-0.010189	-0.658447	0.852295	0.513916	0.316309	-0.535779	0.357907	-0.696270
24708		4.982682	-8.246262	1.631469	0.007082	-0.003048	-0.006630	-0.652832	0.844482	0.517578	0.316384	-0.535792	0.357860	-0.696250
24709		5.005332	-8.223176	1.621747	0.006478	-0.004086	-0.007116	-0.647705	0.847900	0.506592	0.316347	-0.535779	0.357902	-0.696255
24710		4.994953	-8.240533	1.641995	0.001662	-0.003874	-0.007062	-0.657227	0.846436	0.522949	0.316382	-0.535789	0.357904	-0.696230
24711		5.015030	-8.246305	1.647207	0.005408	-0.004561	-0.006591	-0.652588	0.854736	0.512207	0.316342	-0.535791	0.357953	-0.696222
24712		4.983778	-8.223610	1.627766	0.009229	-0.002097	-0.007687	-0.653809	0.849609	0.520264	0.316451	-0.535802	0.357874	-0.696204
24713		4.982355	-8.251538	1.643950	0.005877	-0.005124	-0.007604	-0.652832	0.853271	0.514160	0.316458	-0.535820	0.357882	-0.696183
24714		4.993596	-8.246517	1.654001	0.003412	-0.000777	-0.007129	-0.658936	0.847900	0.515869	0.316511	-0.535831	0.357866	-0.696160
24715		4.990346	-8.240990	1.634678	0.004277	-0.003488	-0.009130	-0.647461	0.846680	0.521729	0.316502	-0.535844	0.357865	-0.696154
24716		5.001483	-8.236056	1.644575	0.001406	-0.000125	-0.004579	-0.649414	0.847412	0.516113	0.316450	-0.535821	0.357966	-0.696143
24717		4.995503	-8.259394	1.640761	0.005421	-0.001429	-0.009682	-0.654541	0.841553	0.516357	0.316424	-0.535812	0.357986	-0.696152
24718		4.984795	-8.227986	1.640648	0.007562	-0.002044	-0.009194	-0.645752	0.854004	0.515869	0.316351	-0.535781	0.358030	-0.696186
24719		4.996105	-8.222796	1.651260	0.008233	-0.000987	-0.007190	-0.650879	0.845947	0.517578	0.316419	-0.535777	0.358002	-0.696173
24720		4.985798	-8.241228	1.628380	0.006632	0.000648	-0.008716	-0.651367	0.843750	0.510742	0.316375	-0.535745	0.358041	-0.696198
24721		4.984439	-8.269106	1.644707	0.005027	0.000718	-0.008697	-0.652832	0.851074	0.514160	0.316336	-0.535710	0.358073	-0.696226
24722		4.970848	-8.266727	1.659767	0.001342	-0.000145	-0.006102	-0.654297	0.849365	0.510742	0.316358	-0.535709	0.358094	-0.696205
24723		4.995193	-8.278518	1.640984	0.004556	-0.000284	-0.006141	-0.653564	0.850098	0.512207	0.316396	-0.535696	0.358089	-0.696200
24724		4.987315	-8.267089	1.646129	0.003422	0.000787	-0.008679	-0.652588	0.844971	0.510742	0.316409	-0.535689	0.358087	-0.696201
24725		4.989863	-8.252454	1.617010	0.005428	-0.001430	-0.009688	-0.655273	0.848145	0.511963	0.316383	-0.535672	0.358098	-0.696220
24726		5.007035	-8.238178	1.617348	0.006033	-0.000391	-0.009205	-0.656006	0.843262	0.521240	0.316389	-0.535660	0.358086	-0.696233
24727		5.005114	-8.217542	1.612581	0.004427	-0.000322	-0.009186	-0.648926	0.849365	0.509277	0.316291	-0.535635	0.358159	-0.696260
24728		5.000533	-8.225822	1.622936	0.002279	-0.002838	-0.006584	-0.660889	0.843506	0.516846	0.316330	-0.535641	0.358163	-0.696235
24729		5.003398	-8.259954	1.614454	0.005024	-0.002412	-0.005612	-0.658936	0.852051	0.517822	0.316287	-0.535618	0.358214	-0.696246
24730		4.996744	-8.233435	1.634238	0.011925	-0.001686	-0.008251	-0.657471	0.847656	0.513672	0.316341	-0.535611	0.358159	-0.696255
24731		5.004870	-8.208472	1.639419	0.005430	-0.002996	-0.008147	-0.641113	0.844238	0.512451	0.316346	-0.535612	0.358156	-0.696254
24732		4.989022	-8.235974	1.626175	0.006503	-0.002520	-0.008677	-0.653320	0.845459	0.514893	0.316313	-0.535587	0.358196	-0.696267
24733		5.006028	-8.221835	1.626191	0.003287	-0.003947	-0.007091	-0.658203	0.847412	0.510010	0.316285	-0.535585	0.358238	-0.696260
24734		4.970925	-8.241921	1.651205	0.000676	-0.002771	-0.006567	-0.653076	0.844971	0.512207	0.316295	-0.535594	0.358252	-0.696242
24735		4.982183	-8.236886	1.661017	0.004898	-0.002451	-0.008659	-0.651123	0.846924	0.517578	0.316272	-0.535582	0.358272	-0.696251
24736		4.975257	-8.275141	1.643005	0.003826	-0.002927	-0.008131	-0.648682	0.845459	0.513672	0.316237	-0.535579	0.358314	-0.696247
24737		4.980325	-8.230410	1.642391	0.009123	-0.002131	-0.010754	-0.659424	0.852295	0.520996	0.316216	-0.535561	0.358310	-0.696273
24738		4.984817	-8.249214	1.648603	0.003426	-0.000780	-0.007143	-0.649658	0.849121	0.512939	0.316214	-0.535564	0.358331	-0.696261
24739		4.956669	-8.246511	1.634149	0.003291	-0.003948	-0.007095	-0.647949	0.854736	0.509033	0.316236	-0.535575	0.358340	-0.696238
24740		4.997126	-8.244772	1.614859	0.003897	-0.001344	-0.008158	-0.654053	0.847656	0.514893	0.316327	-0.535595	0.358289	-0.696208
24741		5.002793	-8.248594	1.635201	0.008119	-0.002587	-0.008706	-0.649414	0.858398	0.512451	0.316331	-0.535585	0.358280	-0.696217
24742		5.005250	-8.232675	1.650103	0.005439	-0.002996	-0.008156	-0.653076	0.849365	0.521729	0.316449	-0.535621	0.358206	-0.696174
24743		5.036894	-8.220121	1.635577	0.004905	-0.002452	-0.008665	-0.655762	0.845703	0.515625	0.316426	-0.535627	0.358232	-0.696167
24744		4.987591	-8.239591	1.631758	0.004307	-0.001929	-0.010698	-0.648926	0.849365	0.505859	0.316377	-0.535624	0.358252	-0.696181
24745		5.010316	-8.216356	1.621740	0.003965	-0.001324	-0.006639	-0.662109	0.848633	0.513916	0.316429	-0.535615	0.358240	-0.696171
24746		5.024902	-8.230916	1.637199	0.003236	-0.002405	-0.010169	-0.657715	0.846191	0.509033	0.316420	-0.535630	0.358229	-0.696169
24747		4.991223	-8.237146	1.632996	0.003564	0.002388	-0.007199	-0.645264	0.846680	0.507812	0.316410	-0.535594	0.358249	-0.696191
24748		4.973264	-8.229982	1.628769	0.007657	-0.000458	-0.009246	-0.655762	0.853516	0.512207	0.316419	-0.535565	0.358242	-0.696212
24749		4.997935	-8.240121	1.654347	0.005041	-0.000847	-0.007172	-0.658203	0.844238	0.516357	0.316484	-0.535570	0.358208	-0.696196
24750		4.969770	-8.237433	1.640133	0.002898	-0.000237	-0.007660	-0.651367	0.848389	0.516846	0.316425	-0.535549	0.358264	-0.696211
24751		4.972887	-8.271446	1.631919	0.004507	-0.000304	-0.007682	-0.648438	0.849365	0.507568	0.316411	-0.535536	0.358293	-0.696213
24752		4.975175	-8.255668	1.646528	0.002833	-0.001821	-0.007635	-0.655273	0.849854	0.512939	0.316440	-0.535533	0.358293	-0.696201
24753		4.987647	-8.236828	1.626924	0.005046	0.000716	-0.008723	-0.656982	0.842773	0.518311	0.316451	-0.535520	0.358287	-0.696209
24754		4.955212	-8.227948	1.637333	0.007663	-0.000457	-0.009251	-0.650391	0.853027	0.510010	0.316382	-0.535488	0.358327	-0.696245
24755		4.993396	-8.254664	1.634278	0.008669	-0.003128	-0.008209	-0.656006	0.845459	0.520996	0.316466	-0.535495	0.358266	-0.696233
24756		4.976735	-8.232414	1.644207	0.007061	-0.003062	-0.008188	-0.651367	0.848389	0.518311	0.316426	-0.535486	0.358297	-0.696241
24757		4.976753	-8.246548	1.630955	0.010280	-0.003194	-0.008234	-0.650879	0.841797	0.515869	0.316436	-0.535477	0.358288	-0.696249
24758		4.970243	-8.219880	1.650655	0.008607	-0.004712	-0.008187	-0.653320	0.841553	0.513672	0.316386	-0.535455	0.358326	-0.696269
24759		5.005036	-8.226992	1.641883	0.007128	-0.003041	-0.006667	-0.657959	0.843994	0.510498	0.316341	-0.535421	0.358374	-0.696290
24760		5.004869	-8.241286	1.628416	0.006593	-0.002498	-0.007177	-0.658936	0.844482	0.511719	0.316331	-0.535399	0.358387	-0.696306
24761		4.998123	-8.214786	1.647920	0.007194	-0.001456	-0.006695	-0.660889	0.849365	0.513428	0.316321	-0.535369	0.358401	-0.696326
24762		4.987954	-8.232009	1.668697	0.004386	-0.001912	-0.009189	-0.656982	0.850342	0.514404	0.316325	-0.535375	0.358389	-0.696326
24763		5.002606	-8.247816	1.640673	0.008743	-0.001544	-0.008244	-0.648926	0.849365	0.516113	0.316357	-0.535366	0.358360	-0.696333
24764		5.015120	-8.228881	1.621317	0.004924	-0.002455	-0.008681	-0.649658	0.844238	0.516113	0.316353	-0.535367	0.358375	-0.696326
24765		4.996167	-8.235357	1.646556	0.005999	-0.001978	-0.009215	-0.653320	0.847900	0.510986	0.316297	-0.535346	0.358418	-0.696345
24766		5.001814	-8.240572	1.622894	0.004989	-0.002433	-0.007158	-0.658936	0.851318	0.515381	0.316315	-0.535341	0.358420	-0.696341
24767		4.981521	-8.262257	1.633790	0.003853	-0.002932	-0.008151	-0.654785	0.844971	0.514404	0.316334	-0.535356	0.358411	-0.696325
24768		4.979244	-8.241836	1.628820	0.006190	-0.000349	-0.006194	-0.650879	0.848389	0.512939	0.316310	-0.535321	0.358451	-0.696342
24769		5.010771	-8.229174	1.614668	0.010169	-0.004799	-0.009746	-0.652344	0.851074	0.518066	0.316336	-0.535323	0.358415	-0.696348
24770		4.996242	-8.241667	1.616036	0.006666	-0.000914	-0.007212	-0.653809	0.845459	0.515137	0.316348	-0.535311	0.358424	-0.696346
24771		4.983995	-8.224065	1.645664	0.007615	-0.002043	-0.009244	-0.652100	0.850342	0.514648	0.316317	-0.535292	0.358439	-0.696367
24772		4.963696	-8.245780	1.656539	-0.000312	-0.001675	-0.006074	-0.654297	0.837891	0.518311	0.316317	-0.535299	0.358482	-0.696340
24773		4.957783	-8.269322	1.652546	0.002436	0.000322	-0.006659	-0.660889	0.846191	0.508789	0.316181	-0.535244	0.358613	-0.696377
24774		4.989211	-8.256724	1.638290	0.009827	-0.001064	-0.008788	-0.658691	0.842773	0.516357	0.316207	-0.535222	0.358571	-0.696403
24775		5.010733	-8.246872	1.658772	0.009292	-0.000523	-0.009299	-0.648193	0.852051	0.515381	0.316144	-0.535180	0.358602	-0.696448
24776		5.028881	-8.218867	1.629465	0.004998	-0.000872	-0.008717	-0.654053	0.850098	0.510254	0.316161	-0.535180	0.358602	-0.696441
24777		5.023306	-8.242105	1.626004	0.004999	-0.000872	-0.008718	-0.653564	0.837891	0.513428	0.316192	-0.535179	0.358580	-0.696438
24778		5.023433	-8.256317	1.612314	0.004338	-0.003499	-0.009174	-0.656250	0.849121	0.516113	0.316087	-0.535151	0.358657	-0.696468
24779		5.016984	-8.229684	1.631299	0.004339	-0.003499	-0.009175	-0.651611	0.846680	0.511963	0.316072	-0.535160	0.358667	-0.696462
24780		5.004924	-8.213501	1.616521	0.004877	-0.002480	-0.010220	-0.657227	0.850586	0.521729	0.316057	-0.535160	0.358670	-0.696468
24781		4.988342	-8.191310	1.625839	0.001718	-0.002330	-0.008645	-0.650146	0.847656	0.511475	0.316006	-0.535165	0.358723	-0.696460
24782		4.974811	-8.189042	1.640383	-0.000307	-0.001678	-0.006078	-0.649170	0.849365	0.513672	0.316004	-0.535167	0.358767	-0.696437
24783		4.995900	-8.243101	1.666552	0.000768	-0.001200	-0.006612	-0.653320	0.843994	0.501709	0.316004	-0.535167	0.358805	-0.696417
24784		4.982059	-8.242434	1.637451	0.003039	-0.000197	-0.004629	-0.645020	0.843506	0.512695	0.316053	-0.535148	0.358803	-0.696411
24785		4.999693	-8.276779	1.658581	0.003990	-0.001326	-0.006663	-0.648682	0.844238	0.506836	0.316020	-0.535122	0.358860	-0.696416
24786		4.981808	-8.269764	1.653848	0.003271	-0.002417	-0.010199	-0.659180	0.843018	0.510986	0.316013	-0.535125	0.358860	-0.696417
24787		4.985471	-8.240207	1.638274	0.001123	-0.003373	-0.009130	-0.662109	0.850830	0.518555	0.315960	-0.535126	0.358899	-0.696420
24788		4.976590	-8.243901	1.628653	0.002795	-0.003412	-0.007630	-0.650635	0.846191	0.514648	0.315946	-0.535136	0.358921	-0.696407
24789		4.965521	-8.212748	1.627930	0.005421	-0.003020	-0.009717	-0.658691	0.839600	0.518555	0.315920	-0.535133	0.358938	-0.696413
24790		5.001691	-8.204576	1.633008	0.004946	-0.002456	-0.008701	-0.657471	0.844971	0.512695	0.315803	-0.535096	0.359027	-0.696448
24791		4.971297	-8.232288	1.590327	0.002321	-0.002848	-0.006614	-0.656250	0.840088	0.513428	0.315781	-0.535090	0.359066	-0.696443
24792		4.995728	-8.242562	1.615121	-0.000182	-0.000072	-0.004581	-0.656738	0.841797	0.514160	0.315701	-0.535050	0.359175	-0.696454
24793		4.984365	-8.275093	1.621242	0.004826	-0.005624	-0.008648	-0.658691	0.842041	0.509521	0.315646	-0.535046	0.359215	-0.696461
24794		4.994552	-8.284925	1.617163	0.006620	-0.002494	-0.007202	-0.654541	0.848389	0.521484	0.315641	-0.535026	0.359221	-0.696475
24795		4.993292	-8.249404	1.626542	0.007756	-0.001991	-0.006211	-0.658936	0.842041	0.506104	0.315602	-0.534991	0.359276	-0.696492
24796		4.984328	-8.251455	1.661980	0.011397	-0.002704	-0.008809	-0.655762	0.843262	0.512939	0.315642	-0.534975	0.359218	-0.696516
24797		5.002378	-8.223416	1.632785	0.006623	-0.000934	-0.008760	-0.654541	0.845459	0.506104	0.315605	-0.534947	0.359243	-0.696542
24798		4.993431	-8.227006	1.623991	0.005610	0.000171	-0.008252	-0.649902	0.844238	0.509521	0.315648	-0.534940	0.359208	-0.696545
24799		4.999105	-8.230720	1.644401	0.005551	-0.001413	-0.008226	-0.659180	0.847168	0.516357	0.315654	-0.534929	0.359210	-0.696550
24800		4.991271	-8.219200	1.649803	0.006746	0.002234	-0.008818	-0.649170	0.846191	0.512451	0.315609	-0.534885	0.359240	-0.696588
24801		5.006980	-8.220004	1.635857	0.002865	-0.001831	-0.007664	-0.650391	0.852295	0.513184	0.315601	-0.534882	0.359268	-0.696580
24802		5.006907	-8.234412	1.622058	0.003463	-0.000787	-0.007183	-0.647461	0.844971	0.513916	0.315646	-0.534889	0.359260	-0.696559
24803		4.988879	-8.227484	1.617510	0.005554	-0.001413	-0.008228	-0.653320	0.846436	0.518066	0.315623	-0.534871	0.359290	-0.696567
24804		4.984272	-8.235804	1.628141	0.003524	-0.000762	-0.005656	-0.653076	0.848145	0.521973	0.315576	-0.534840	0.359365	-0.696574
24805		4.985157	-8.233657	1.672518	0.005077	-0.002408	-0.005655	-0.662109	0.848145	0.514160	0.315521	-0.534809	0.359446	-0.696581
24806		4.983974	-8.263136	1.644877	0.006572	-0.002519	-0.008739	-0.647949	0.846680	0.520508	0.315515	-0.534801	0.359441	-0.696592
24807		4.981735	-8.242598	1.640159	0.007766	-0.000430	-0.007777	-0.654053	0.842529	0.515625	0.315456	-0.534757	0.359505	-0.696620
24808		4.979485	-8.222109	1.635220	0.003348	-0.002397	-0.008687	-0.652100	0.852539	0.516846	0.315378	-0.534736	0.359572	-0.696636
24809		4.983916	-8.241048	1.641324	0.005198	0.000761	-0.005714	-0.660889	0.849365	0.508789	0.315396	-0.534713	0.359595	-0.696634
24810		4.994764	-8.236001	1.651494	0.002511	0.000343	-0.005150	-0.658203	0.846680	0.512207	0.315450	-0.534710	0.359583	-0.696618
24811		5.004703	-8.245967	1.647486	0.005560	-0.001414	-0.008234	-0.654053	0.847412	0.519287	0.315447	-0.534698	0.359585	-0.696627
24812		4.985690	-8.254081	1.628969	0.006577	-0.002519	-0.008743	-0.649170	0.841797	0.515625	0.315393	-0.534675	0.359631	-0.696646
24813		4.992507	-8.244195	1.619463	0.005503	-0.002998	-0.008207	-0.658203	0.846924	0.513916	0.315330	-0.534650	0.359692	-0.696662
24814		5.000416	-8.219218	1.623897	0.005445	-0.004583	-0.008179	-0.653320	0.849609	0.516846	0.315322	-0.534653	0.359699	-0.696660
24815		5.006133	-8.222961	1.643900	0.002874	-0.001833	-0.007672	-0.656006	0.854492	0.523682	0.315297	-0.534646	0.359740	-0.696655
24816		5.000481	-8.246441	1.640138	0.002396	-0.001268	-0.006653	-0.661133	0.843994	0.508545	0.315241	-0.534623	0.359821	-0.696656
24817		5.007158	-8.236682	1.630377	0.004968	-0.002458	-0.008720	-0.653320	0.850342	0.511230	0.315254	-0.534627	0.359799	-0.696658
24818		5.018354	-8.231424	1.640438	0.004548	-0.001867	-0.006172	-0.654053	0.847900	0.511475	0.315312	-0.534634	0.359780	-0.696637
24819		4.993585	-8.248764	1.631715	0.002338	-0.001294	-0.008184	-0.646973	0.849365	0.519531	0.315321	-0.534639	0.359786	-0.696626
24820		5.011618	-8.220847	1.601645	0.004854	-0.004069	-0.010223	-0.654785	0.843994	0.523438	0.315277	-0.534642	0.359822	-0.696625
24821		5.020843	-8.244184	1.627296	0.003625	-0.001500	-0.006490	-0.658447	0.841309	0.511475	0.315148	-0.534588	0.359955	-0.696656
24822		4.998245	-8.231293	1.646690	0.002263	-0.002108	-0.007368	-0.652344	0.843506	0.510010	0.315107	-0.534576	0.359999	-0.696660
24823		4.973586	-8.248572	1.638061	0.005968	-0.001235	-0.008443	-0.657715	0.848389	0.512695	0.315118	-0.534569	0.359991	-0.696666
24824		4.974673	-8.247755	1.638877	0.007465	-0.001346	-0.006855	-0.656738	0.848145	0.517090	0.315148	-0.534554	0.359977	-0.696671
24825		4.965577	-8.251491	1.630155	0.005008	0.001454	-0.007964	-0.648682	0.847900	0.513672	0.315102	-0.534516	0.360024	-0.696697
24826		4.987895	-8.228205	1.619861	0.000226	-0.001461	-0.007908	-0.654297	0.849365	0.522705	0.315089	-0.534523	0.360061	-0.696678
24827		4.975942	-8.274128	1.655904	0.001415	0.000628	-0.010063	-0.648193	0.844238	0.513672	0.314970	-0.534489	0.360162	-0.696706
24828		4.996168	-8.281053	1.617543	0.005908	-0.001262	-0.006856	-0.651855	0.844971	0.513672	0.314962	-0.534467	0.360191	-0.696711
24829		4.969200	-8.263461	1.617800	0.007575	-0.001299	-0.010030	-0.658203	0.842529	0.520508	0.314944	-0.534451	0.360192	-0.696730
24830		4.997497	-8.229201	1.641754	0.005539	-0.000651	-0.010570	-0.655518	0.850098	0.524658	0.314804	-0.534399	0.360288	-0.696784
24831		4.984203	-8.228309	1.612996	0.003869	-0.002176	-0.008954	-0.656006	0.847656	0.512695	0.314678	-0.534356	0.360401	-0.696816
24832		4.970861	-8.225857	1.628157	0.005961	-0.001241	-0.008443	-0.652588	0.847168	0.516602	0.314692	-0.534351	0.360389	-0.696820
24833		4.987619	-8.211509	1.628253	0.005847	-0.002851	-0.006826	-0.648438	0.839355	0.517090	0.314670	-0.534331	0.360429	-0.696824
24834		5.007728	-8.216827	1.634176	0.009493	-0.002001	-0.006314	-0.651855	0.847900	0.516357	0.314605	-0.534274	0.360502	-0.696860
24835		5.006645	-8.244695	1.650878	0.007400	-0.002937	-0.006824	-0.655762	0.842773	0.516846	0.314598	-0.534253	0.360527	-0.696866
24836		5.009719	-8.215259	1.635955	0.006975	-0.000789	-0.007394	-0.658691	0.850098	0.512939	0.314526	-0.534203	0.360594	-0.696902
24837		4.984088	-8.246097	1.657197	0.001717	-0.003140	-0.007876	-0.655518	0.848633	0.520020	0.314540	-0.534221	0.360595	-0.696881
24838		4.989727	-8.251540	1.632965	0.001717	-0.003141	-0.007876	-0.653320	0.844727	0.506348	0.314448	-0.534198	0.360690	-0.696892
24839		4.976349	-8.249207	1.647666	0.002790	-0.002662	-0.008414	-0.649658	0.846436	0.509521	0.314533	-0.534243	0.360626	-0.696852
24840		4.992060	-8.250011	1.633561	0.006972	-0.000790	-0.007394	-0.664551	0.848877	0.520264	0.314604	-0.534249	0.360580	-0.696839
24841		4.980737	-8.217297	1.676913	0.004766	-0.004898	-0.007843	-0.651855	0.847656	0.512695	0.314520	-0.534223	0.360652	-0.696859
24842		5.001002	-8.224236	1.638379	0.004341	-0.002749	-0.008413	-0.646484	0.845703	0.515625	0.314541	-0.534235	0.360644	-0.696845
24843		4.966484	-8.244459	1.663869	0.001233	-0.002581	-0.008415	-0.649170	0.847656	0.517578	0.314502	-0.534236	0.360697	-0.696834
24844		4.987649	-8.236399	1.639070	0.002140	-0.003731	-0.005748	-0.652588	0.846436	0.511719	0.314471	-0.534227	0.360767	-0.696819
24845		5.012234	-8.247963	1.620165	0.003860	-0.000624	-0.007396	-0.656982	0.846924	0.514893	0.314495	-0.534227	0.360764	-0.696810
24846		4.998880	-8.245536	1.635298	0.004449	-0.001145	-0.010032	-0.652344	0.845459	0.515625	0.314458	-0.534216	0.360783	-0.696825
24847		4.981034	-8.238592	1.630798	0.003969	0.000982	-0.009014	-0.652344	0.852539	0.512939	0.314408	-0.534188	0.360828	-0.696846
24848		5.000319	-8.258976	1.622335	0.002896	0.000502	-0.008475	-0.661377	0.843262	0.517090	0.314445	-0.534196	0.360812	-0.696832
24849		4.982190	-8.253906	1.573628	0.001767	-0.001563	-0.007906	-0.650879	0.844727	0.517334	0.314348	-0.534164	0.360901	-0.696854
24850		4.963126	-8.260647	1.598776	0.004394	0.000396	-0.006887	-0.654785	0.846680	0.516846	0.314289	-0.534122	0.360974	-0.696874
24851		4.993434	-8.262989	1.570153	0.004501	0.000437	-0.010062	-0.659668	0.843994	0.519043	0.314224	-0.534093	0.361019	-0.696902
24852		4.970205	-8.263266	1.620151	0.011621	-0.002613	-0.008949	-0.658447	0.851807	0.517822	0.314146	-0.534036	0.361065	-0.696958
24853		4.995064	-8.274440	1.602391	0.011085	-0.002072	-0.007901	-0.645752	0.843018	0.511963	0.314140	-0.533998	0.361066	-0.696989
24854		4.983760	-8.243175	1.602616	0.012153	-0.003159	-0.009996	-0.654297	0.848633	0.514893	0.314185	-0.533998	0.361011	-0.696997
24855		4.990730	-8.233006	1.593876	0.012150	-0.003161	-0.009996	-0.653809	0.842773	0.521240	0.314203	-0.533984	0.360973	-0.697020
24856		5.001120	-8.240887	1.634496	0.009419	-0.003597	-0.006282	-0.653076	0.845703	0.516357	0.314099	-0.533915	0.361077	-0.697065
24857		4.989559	-8.209817	1.634450	0.009099	0.000155	-0.008473	-0.655273	0.849609	0.519287	0.314060	-0.533869	0.361108	-0.697102
24858		4.998953	-8.232919	1.660659	0.005345	-0.003871	-0.008919	-0.660889	0.844238	0.504395	0.313985	-0.533843	0.361172	-0.697123
24859		4.991107	-8.221501	1.665552	0.005292	-0.003891	-0.007331	-0.652588	0.851562	0.514648	0.314116	-0.533899	0.361064	-0.697077
24860		4.996945	-8.225030	1.685893	0.006042	0.000340	-0.010062	-0.665283	0.844727	0.514893	0.314119	-0.533888	0.361054	-0.697088
24861		5.002748	-8.230262	1.662399	0.005397	-0.002288	-0.008951	-0.650635	0.844482	0.515137	0.314056	-0.533862	0.361093	-0.697117
24862		4.998460	-8.238406	1.673192	0.006415	-0.001829	-0.007903	-0.644287	0.848145	0.506348	0.314031	-0.533841	0.361124	-0.697128
24863		4.985941	-8.222599	1.658518	0.004807	-0.003332	-0.007871	-0.658447	0.846924	0.517822	0.314180	-0.533904	0.361020	-0.697066
24864		5.006206	-8.227865	1.663856	0.002720	-0.002704	-0.006824	-0.650879	0.858154	0.519287	0.314107	-0.533876	0.361102	-0.697078
24865		4.994633	-8.196918	1.663160	0.005985	0.000317	-0.008475	-0.655029	0.843750	0.509277	0.314095	-0.533849	0.361126	-0.697092
24866		5.002789	-8.237179	1.630814	-0.000922	-0.003561	-0.007332	-0.650391	0.846924	0.508545	0.314119	-0.533885	0.361129	-0.697052
24867		4.994536	-8.227819	1.591306	0.002240	-0.000575	-0.005809	-0.660156	0.850342	0.513672	0.314197	-0.533906	0.361102	-0.697015
24868		4.998205	-8.260200	1.627039	0.001754	-0.001581	-0.007904	-0.651855	0.840332	0.519531	0.314188	-0.533907	0.361121	-0.697008
24869		5.004888	-8.250429	1.617073	0.002341	-0.000540	-0.008984	-0.658447	0.844727	0.508545	0.314052	-0.533861	0.361241	-0.697043
24870		4.981359	-8.252731	1.622433	0.002289	-0.000558	-0.007396	-0.657715	0.853760	0.510986	0.314090	-0.533873	0.361223	-0.697026
24871		4.983643	-8.236720	1.636675	0.002336	-0.002110	-0.010538	-0.656982	0.842773	0.512939	0.314134	-0.533908	0.361176	-0.697003
24872		4.952860	-8.278325	1.623998	0.002285	-0.002128	-0.008951	-0.657227	0.846191	0.510498	0.314096	-0.533906	0.361209	-0.697005
24873		4.959498	-8.268593	1.613982	0.002716	-0.002708	-0.006823	-0.656250	0.846436	0.516113	0.314126	-0.533920	0.361204	-0.696984
24874		4.975218	-8.269315	1.600130	0.009668	0.001188	-0.009555	-0.651123	0.855469	0.512695	0.314092	-0.533874	0.361217	-0.697028
24875		4.975768	-8.281678	1.630934	0.005383	-0.003867	-0.010504	-0.656738	0.848877	0.511719	0.314156	-0.533911	0.361155	-0.697002
24876		4.993756	-8.253540	1.601302	0.009662	-0.000384	-0.011109	-0.651611	0.842773	0.511719	0.314184	-0.533903	0.361101	-0.697023
24877		4.990887	-8.246144	1.626641	0.009071	-0.002996	-0.011584	-0.653076	0.846436	0.517822	0.314187	-0.533906	0.361067	-0.697038
24878		5.006115	-8.259962	1.642954	0.009555	-0.001989	-0.009489	-0.654053	0.850342	0.518555	0.314147	-0.533875	0.361088	-0.697069
24879		5.001277	-8.204528	1.646551	0.007466	-0.002932	-0.009996	-0.650391	0.851318	0.514404	0.314109	-0.533858	0.361108	-0.697088
24880		5.011696	-8.214085	1.643125	0.010571	-0.001529	-0.008442	-0.655762	0.845215	0.511475	0.314153	-0.533844	0.361072	-0.697098
24881		5.008276	-8.207047	1.668228	0.004798	-0.001774	-0.006315	-0.655273	0.845947	0.512451	0.314171	-0.533837	0.361080	-0.697091
24882		5.013774	-8.212511	1.644654	0.006398	-0.001843	-0.007902	-0.649414	0.847168	0.517334	0.314180	-0.533827	0.361078	-0.697095
24883		5.018417	-8.231406	1.650707	0.002125	-0.003757	-0.005741	-0.663330	0.841797	0.515381	0.314151	-0.533821	0.361144	-0.697079
24884		5.004873	-8.229116	1.665866	0.007517	0.000220	-0.008476	-0.649658	0.849854	0.510986	0.314080	-0.533770	0.361192	-0.697125
24885		5.000493	-8.237323	1.676742	0.004260	-0.002801	-0.006821	-0.654297	0.848633	0.510986	0.314143	-0.533789	0.361167	-0.697095
24886		4.984222	-8.202111	1.656005	0.001258	-0.001036	-0.008443	-0.654785	0.844238	0.510254	0.314158	-0.533803	0.361168	-0.697078
24887		4.996353	-8.260132	1.673041	-0.000346	-0.002540	-0.008409	-0.658936	0.842041	0.513672	0.314152	-0.533823	0.361186	-0.697055
24888		4.979147	-8.240144	1.638171	0.003344	-0.000094	-0.007936	-0.644775	0.846924	0.513916	0.314099	-0.533796	0.361238	-0.697073
24889		4.985778	-8.230333	1.628458	0.003875	-0.000642	-0.008983	-0.654541	0.849609	0.510254	0.314101	-0.533798	0.361247	-0.697066
24890		4.970610	-8.258300	1.615674	0.005473	-0.000711	-0.010570	-0.662598	0.843018	0.509033	0.314135	-0.533809	0.361204	-0.697065
24891		4.981739	-8.254694	1.581809	0.003242	-0.001696	-0.006315	-0.654297	0.843994	0.521240	0.314141	-0.533801	0.361217	-0.697061
24892		4.977246	-8.261260	1.636298	0.004744	-0.001793	-0.004727	-0.649170	0.838867	0.520020	0.314061	-0.533751	0.361325	-0.697079
24893		4.981637	-8.282058	1.598734	0.006874	-0.002410	-0.007361	-0.659668	0.854004	0.511475	0.313970	-0.533707	0.361414	-0.697108
24894		4.989086	-8.257030	1.603426	0.009391	-0.003614	-0.006280	-0.645020	0.849854	0.509766	0.314054	-0.533709	0.361358	-0.697098
24895		5.001217	-8.236296	1.627853	0.007887	-0.003520	-0.007867	-0.655518	0.846191	0.518555	0.314152	-0.533736	0.361290	-0.697069
24896		4.992194	-8.240193	1.619001	0.006288	-0.003451	-0.006280	-0.648926	0.847168	0.513428	0.314110	-0.533707	0.361347	-0.697080
24897		4.985193	-8.213580	1.638054	0.006866	-0.003987	-0.008914	-0.659912	0.850342	0.513916	0.314132	-0.533718	0.361330	-0.697070
24898		5.004887	-8.231877	1.673678	0.005417	-0.000733	-0.008983	-0.653076	0.844482	0.520508	0.314123	-0.533703	0.361334	-0.697084
24899		5.015952	-8.226456	1.683903	0.006291	-0.001879	-0.004727	-0.654541	0.844238	0.510254	0.314060	-0.533653	0.361424	-0.697103
24900		5.004132	-8.195573	1.683430	0.006966	-0.000817	-0.008983	-0.654297	0.846680	0.514160	0.314079	-0.533647	0.361402	-0.697111
24901		5.004239	-8.209954	1.670469	0.007505	0.001783	-0.006925	-0.650635	0.848145	0.519043	0.314074	-0.533606	0.361421	-0.697135
24902		5.003320	-8.239601	1.643673	0.007550	0.001794	-0.008512	-0.651855	0.847168	0.519775	0.314023	-0.533556	0.361468	-0.697172
24903		5.009749	-8.229787	1.634526	0.004454	0.003532	-0.006960	-0.657471	0.848389	0.514404	0.313943	-0.533493	0.361558	-0.697209
24904		4.997958	-8.277579	1.627506	0.001298	0.000535	-0.008477	-0.656982	0.841553	0.514404	0.313901	-0.533477	0.361604	-0.697217
24905		4.988860	-8.281655	1.618112	0.000670	-0.000515	-0.005808	-0.662109	0.848389	0.519531	0.313842	-0.533451	0.361687	-0.697220
24906		4.971648	-8.259853	1.627345	0.003428	0.001490	-0.009558	-0.648926	0.850830	0.520508	0.313728	-0.533399	0.361774	-0.697266
24907		4.978390	-8.249921	1.617858	0.008410	-0.004077	-0.008912	-0.656006	0.842285	0.514404	0.313689	-0.533377	0.361809	-0.697283
24908		4.989807	-8.244271	1.628101	0.006859	-0.003996	-0.008912	-0.651611	0.844727	0.516602	0.313658	-0.533368	0.361828	-0.697294
24909		4.976437	-8.241880	1.643367	0.007296	-0.004567	-0.006784	-0.654297	0.847656	0.511475	0.313638	-0.533352	0.361862	-0.697297
24910		4.982115	-8.247249	1.620014	0.009955	-0.004163	-0.008912	-0.657227	0.848145	0.513184	0.313691	-0.533360	0.361808	-0.697295
24911		4.988995	-8.235320	1.654653	0.009373	-0.005201	-0.007830	-0.651855	0.838867	0.512451	0.313720	-0.533360	0.361782	-0.697295
24912		5.013794	-8.246555	1.636530	0.008943	-0.001480	-0.006855	-0.650879	0.849854	0.509766	0.313722	-0.533335	0.361791	-0.697309
24913		5.001383	-8.228873	1.665827	0.004769	-0.004947	-0.009416	-0.660156	0.846436	0.515625	0.313789	-0.533378	0.361735	-0.697275
24914		4.992641	-8.232685	1.656766	0.005403	-0.000748	-0.008983	-0.659668	0.845703	0.514893	0.313733	-0.533348	0.361775	-0.697302
24915		4.999204	-8.222896	1.647030	0.002259	-0.000594	-0.007395	-0.659424	0.850098	0.514893	0.313679	-0.533323	0.361836	-0.697314
24916		4.998454	-8.252689	1.619402	0.004287	-0.002813	-0.008405	-0.650146	0.854736	0.519043	0.313655	-0.533314	0.361859	-0.697319
24917		5.001624	-8.221256	1.647875	0.006414	-0.001859	-0.009488	-0.657471	0.851807	0.512451	0.313626	-0.533296	0.361884	-0.697334
24918		5.012804	-8.217549	1.614469	0.008546	0.000672	-0.009020	-0.650391	0.841553	0.510254	0.313651	-0.533275	0.361855	-0.697354
24919		5.023170	-8.227234	1.610608	0.001187	-0.002652	-0.008404	-0.657715	0.847412	0.511230	0.313658	-0.533298	0.361863	-0.697328
24920		4.998789	-8.245024	1.601528	-0.001427	-0.003049	-0.007863	-0.654297	0.850098	0.514404	0.313650	-0.533321	0.361890	-0.697300
24921		4.979842	-8.251933	1.626054	0.000563	-0.003698	-0.005735	-0.658447	0.845703	0.518311	0.313650	-0.533330	0.361931	-0.697273
24922		4.990136	-8.259839	1.665773	0.007336	-0.002989	-0.006819	-0.656738	0.843750	0.516113	0.313595	-0.533291	0.361988	-0.697297
24923		4.972927	-8.237918	1.675566	0.007478	0.000192	-0.008479	-0.661865	0.852783	0.513428	0.313543	-0.533248	0.362027	-0.697333
24924		4.969451	-8.232792	1.656537	0.004281	-0.002819	-0.008405	-0.652832	0.846436	0.516602	0.313543	-0.533247	0.362030	-0.697333
24925		5.003526	-8.254609	1.633312	0.002781	-0.001151	-0.008441	-0.653564	0.854492	0.513184	0.313490	-0.533230	0.362085	-0.697341
24926		4.994703	-8.256660	1.667843	-0.000311	0.000590	-0.006889	-0.655273	0.843750	0.509033	0.313502	-0.533231	0.362110	-0.697322
24927		4.991150	-8.251699	1.648242	0.001809	-0.000035	-0.009523	-0.647217	0.843262	0.515137	0.313512	-0.533244	0.362101	-0.697312
24928		4.987915	-8.246515	1.628797	0.003351	-0.001696	-0.011074	-0.656250	0.844971	0.516602	0.313472	-0.533250	0.362123	-0.697314
24929		4.984507	-8.241308	1.610012	0.010090	0.002165	-0.007471	-0.655518	0.843262	0.513428	0.313435	-0.533187	0.362155	-0.697362
24930		4.982761	-8.205593	1.619353	0.007375	-0.002986	-0.008405	-0.657959	0.848389	0.515625	0.313429	-0.533177	0.362159	-0.697370
24931		4.988278	-8.211119	1.595852	0.003317	0.001453	-0.006386	-0.653564	0.843018	0.512207	0.313389	-0.533137	0.362218	-0.697388
24932		4.987408	-8.239169	1.611973	-0.001468	-0.001485	-0.004724	-0.646240	0.842041	0.510010	0.313380	-0.533140	0.362278	-0.697359
24933		4.996576	-8.262518	1.637455	0.002691	-0.001170	-0.005266	-0.661133	0.844971	0.520996	0.313431	-0.533152	0.362279	-0.697326
24934		5.005896	-8.285631	1.663654	0.008926	-0.001488	-0.006855	-0.654297	0.845459	0.514404	0.313338	-0.533085	0.362362	-0.697376
24935		4.994799	-8.241404	1.633562	0.010030	-0.001006	-0.008984	-0.652344	0.852051	0.522705	0.313335	-0.533058	0.362354	-0.697402
24936		4.987690	-8.214627	1.653232	0.009986	-0.001013	-0.007397	-0.653320	0.849854	0.519287	0.313269	-0.532994	0.362419	-0.697447
24937		5.001870	-8.243782	1.655346	0.004754	-0.004968	-0.009412	-0.652100	0.850098	0.509277	0.313206	-0.532985	0.362470	-0.697456
24938		4.973838	-8.241918	1.641245	0.006354	-0.001882	-0.007900	-0.654785	0.850342	0.512451	0.313287	-0.533005	0.362412	-0.697434
24939		4.994154	-8.246962	1.646642	0.001134	-0.002675	-0.006815	-0.648193	0.847656	0.513672	0.313301	-0.533017	0.362429	-0.697410
24940		4.975067	-8.255748	1.628233	0.009496	-0.000458	-0.007939	-0.652100	0.849609	0.500732	0.313336	-0.533001	0.362406	-0.697419
24941		4.997202	-8.230018	1.662283	0.008385	-0.002523	-0.007359	-0.648438	0.849609	0.518555	0.313526	-0.533054	0.362256	-0.697370
24942		5.013608	-8.217472	1.618409	0.005817	-0.002915	-0.008403	-0.646973	0.850098	0.515137	0.313499	-0.533043	0.362289	-0.697374
24943		4.993922	-8.239504	1.629599	0.000646	-0.002120	-0.007356	-0.653564	0.847656	0.518799	0.313496	-0.533054	0.362323	-0.697350
24944		5.004433	-8.247278	1.668955	-0.000327	-0.001005	-0.008439	-0.659668	0.849121	0.516846	0.313412	-0.533038	0.362410	-0.697354
24945		4.985394	-8.256132	1.650162	0.005774	-0.002921	-0.006816	-0.657227	0.843018	0.518555	0.313378	-0.533011	0.362453	-0.697367
24946		5.002613	-8.228318	1.620263	0.007456	0.000177	-0.008480	-0.654053	0.843262	0.504150	0.313299	-0.532960	0.362514	-0.697410
24947		4.993851	-8.230129	1.655715	0.008428	-0.000939	-0.007397	-0.658691	0.848145	0.520752	0.313412	-0.532978	0.362425	-0.697391
24948		4.999466	-8.235567	1.632499	0.005420	0.000813	-0.009021	-0.657715	0.848877	0.512207	0.313308	-0.532923	0.362508	-0.697438
24949		4.990568	-8.239579	1.623351	0.000157	-0.001567	-0.007897	-0.653076	0.850830	0.514404	0.313294	-0.532928	0.362537	-0.697424
24950		5.010208	-8.257814	1.658637	0.003831	0.000889	-0.007433	-0.656494	0.841064	0.506592	0.313288	-0.532908	0.362562	-0.697430
24951		4.982707	-8.242879	1.614665	0.005324	-0.002363	-0.008944	-0.657959	0.838623	0.514648	0.313335	-0.532929	0.362517	-0.697416
24952		4.977704	-8.266298	1.611697	0.007404	-0.001414	-0.008442	-0.656982	0.851074	0.514893	0.313288	-0.532900	0.362549	-0.697443
24953		4.970635	-8.239513	1.631095	0.008023	0.001205	-0.009564	-0.652344	0.848389	0.512451	0.313270	-0.532865	0.362552	-0.697476
24954		4.979432	-8.277691	1.643500	0.004222	-0.002846	-0.006814	-0.655273	0.849121	0.517578	0.313295	-0.532870	0.362555	-0.697459
24955		4.980560	-8.276943	1.643849	0.004261	-0.002844	-0.008401	-0.654541	0.841309	0.516602	0.313249	-0.532856	0.362600	-0.697467
24956		4.993457	-8.242698	1.638027	0.009474	-0.002052	-0.009487	-0.659668	0.850586	0.502930	0.313207	-0.532827	0.362620	-0.697498
24957		4.994816	-8.241649	1.639158	0.009472	-0.002054	-0.009487	-0.656738	0.851807	0.513184	0.313327	-0.532853	0.362501	-0.697486
24958		4.997666	-8.212136	1.624126	0.008411	-0.002531	-0.008945	-0.655762	0.850342	0.519287	0.313344	-0.532843	0.362479	-0.697497
24959		4.991994	-8.248769	1.651107	0.005232	-0.003962	-0.007317	-0.656494	0.847900	0.513672	0.313297	-0.532824	0.362533	-0.697505
24960		4.997629	-8.254292	1.627537	0.007836	-0.003566	-0.007861	-0.654785	0.847412	0.516846	0.313305	-0.532815	0.362529	-0.697510
24961		5.029102	-8.238850	1.657019	0.009025	0.000085	-0.010069	-0.657227	0.842773	0.516357	0.313265	-0.532778	0.362544	-0.697549
24962		4.991928	-8.226491	1.647693	0.005268	-0.003963	-0.008904	-0.660645	0.841553	0.512939	0.313210	-0.532767	0.362586	-0.697560
24963		4.989405	-8.206106	1.642251	0.005267	-0.003964	-0.008903	-0.656006	0.848389	0.510742	0.313178	-0.532764	0.362606	-0.697567
24964		4.994674	-8.224694	1.648344	0.002258	-0.002216	-0.010528	-0.656738	0.851807	0.514160	0.313176	-0.532783	0.362597	-0.697557
24965		4.999743	-8.243395	1.654493	0.004747	-0.001824	-0.006311	-0.656738	0.849609	0.510742	0.313179	-0.532767	0.362619	-0.697557
24966		5.011440	-8.224682	1.634559	0.004830	-0.000236	-0.007937	-0.660156	0.841064	0.513672	0.313199	-0.532759	0.362612	-0.697558
24967		4.996264	-8.253073	1.622014	0.005271	-0.002380	-0.007356	-0.651123	0.846191	0.512451	0.313164	-0.532740	0.362648	-0.697569
24968		4.997242	-8.252366	1.622597	0.004790	-0.000238	-0.006351	-0.659912	0.843506	0.508057	0.313182	-0.532729	0.362660	-0.697563
24969		4.983626	-8.250248	1.637490	0.001563	-0.004841	-0.006229	-0.655762	0.843994	0.515381	0.313211	-0.532753	0.362663	-0.697531
24970		4.970924	-8.234802	1.622408	0.005390	-0.000794	-0.010569	-0.650146	0.853271	0.515869	0.313158	-0.532736	0.362689	-0.697554
24971		4.980988	-8.257378	1.648917	0.010469	-0.003178	-0.009991	-0.652344	0.852051	0.504150	0.313177	-0.532729	0.362657	-0.697567
24972		4.979247	-8.221564	1.657948	0.008314	-0.004131	-0.007318	-0.655273	0.854004	0.508301	0.313312	-0.532764	0.362555	-0.697533
24973		5.004014	-8.232884	1.639250	0.002093	-0.003813	-0.005726	-0.656738	0.852783	0.513916	0.313376	-0.532786	0.362539	-0.697495
24974		4.983531	-8.270438	1.636242	-0.000879	-0.002067	-0.008938	-0.654785	0.847900	0.514160	0.313343	-0.532795	0.362579	-0.697483
24975		5.004913	-8.259968	1.655225	0.004245	-0.002862	-0.008399	-0.656006	0.843506	0.515625	0.313331	-0.532794	0.362596	-0.697480
24976		5.006842	-8.245844	1.626156	0.012053	-0.001674	-0.010033	-0.658447	0.845459	0.508057	0.313313	-0.532764	0.362584	-0.697517
24977		5.000495	-8.205753	1.615684	0.008916	-0.003104	-0.009990	-0.656982	0.847412	0.510742	0.313348	-0.532769	0.362532	-0.697525
24978		5.006421	-8.209002	1.636212	0.004294	0.000312	-0.006893	-0.652100	0.845947	0.509277	0.313355	-0.532751	0.362545	-0.697528
24979		4.991912	-8.222237	1.637432	0.002180	-0.000640	-0.005807	-0.653076	0.847656	0.517334	0.313385	-0.532752	0.362557	-0.697508
24980		5.000782	-8.260532	1.649264	0.002164	-0.003820	-0.008899	-0.657959	0.835449	0.511230	0.313342	-0.532759	0.362600	-0.697500
24981		4.981915	-8.269386	1.630928	0.008964	0.000070	-0.008484	-0.660156	0.850098	0.518066	0.313323	-0.532728	0.362605	-0.697529
24982		5.008567	-8.249654	1.640971	0.011520	-0.001123	-0.008988	-0.657471	0.843018	0.506348	0.313291	-0.532682	0.362614	-0.697574
24983		4.991453	-8.227622	1.650971	0.007408	-0.001443	-0.010029	-0.649902	0.843506	0.516357	0.313323	-0.532686	0.362569	-0.697581
24984		5.002514	-8.224113	1.617220	0.003269	-0.000171	-0.007937	-0.652344	0.844727	0.508789	0.313286	-0.532671	0.362615	-0.697584
24985		4.992946	-8.241357	1.638208	0.003757	-0.000726	-0.007394	-0.646729	0.848145	0.507324	0.313313	-0.532674	0.362610	-0.697572
24986		4.978651	-8.254490	1.639432	0.005214	-0.003982	-0.007313	-0.650879	0.855469	0.514160	0.313394	-0.532704	0.362563	-0.697537
24987		4.994557	-8.254984	1.625677	0.010573	-0.000020	-0.011659	-0.651855	0.836426	0.509033	0.313412	-0.532689	0.362516	-0.697565
24988		4.986986	-8.241141	1.675110	0.009314	-0.005255	-0.007818	-0.654541	0.850342	0.514893	0.313448	-0.532700	0.362485	-0.697557
24989		4.983952	-8.223097	1.626130	0.006799	-0.002476	-0.007356	-0.660645	0.842773	0.511963	0.313453	-0.532687	0.362493	-0.697560
24990		5.005135	-8.212545	1.645683	0.005254	-0.002398	-0.007354	-0.656250	0.843750	0.513428	0.313432	-0.532672	0.362519	-0.697569
24991		5.005453	-8.227088	1.632526	0.007364	-0.001448	-0.008442	-0.657715	0.843506	0.512939	0.313417	-0.532653	0.362528	-0.697585
24992		5.002062	-8.219820	1.657714	0.008427	0.000618	-0.007441	-0.656494	0.853027	0.513916	0.313405	-0.532615	0.362541	-0.697612
24993		4.993136	-8.223862	1.649082	0.003786	-0.000737	-0.008981	-0.654785	0.840332	0.515137	0.313387	-0.532604	0.362559	-0.697620
24994		5.002592	-8.249022	1.631227	0.004161	-0.002872	-0.005223	-0.651123	0.844727	0.515381	0.313366	-0.532590	0.362610	-0.697613
24995		4.980281	-8.223324	1.620719	0.003303	0.001408	-0.007979	-0.650146	0.845215	0.516357	0.313332	-0.532569	0.362652	-0.697622
24996		4.995352	-8.237138	1.636574	0.003260	-0.000181	-0.007937	-0.651611	0.844238	0.513428	0.313301	-0.532557	0.362693	-0.697624
24997		4.995720	-8.251740	1.623063	0.002239	-0.000661	-0.008979	-0.656250	0.837646	0.523193	0.313276	-0.532557	0.362721	-0.697621
24998		4.991695	-8.259920	1.633531	0.002196	-0.002250	-0.008937	-0.656982	0.849609	0.514648	0.313156	-0.532538	0.362822	-0.697637
24999		4.983629	-8.248686	1.638138	0.003705	-0.002324	-0.007352	-0.658447	0.843262	0.511719	0.313137	-0.532528	0.362853	-0.697636
25000		4.998773	-8.262431	1.654097	0.007357	-0.001454	-0.008441	-0.657715	0.852051	0.509766	0.313130	-0.532511	0.362855	-0.697652
25001		4.996463	-8.229012	1.619294	0.011911	-0.003274	-0.006817	-0.661377	0.846436	0.520508	0.313194	-0.532494	0.362805	-0.697662
25002		4.982950	-8.226698	1.634981	0.005288	-0.000818	-0.007396	-0.661133	0.843994	0.511719	0.313111	-0.532450	0.362883	-0.697693
25003		4.988001	-8.245362	1.641564	0.006300	-0.001932	-0.007897	-0.654541	0.846680	0.517822	0.313096	-0.532432	0.362896	-0.697706
25004		4.999192	-8.239699	1.651289	0.002074	-0.005427	-0.007265	-0.652344	0.848389	0.513184	0.313055	-0.532439	0.362952	-0.697690
25005		5.000337	-8.238909	1.651763	0.009385	-0.002091	-0.007901	-0.658936	0.850098	0.523926	0.313081	-0.532425	0.362932	-0.697699
25006		4.996334	-8.246893	1.663162	0.008927	-0.001544	-0.010030	-0.664307	0.845947	0.511230	0.312984	-0.532376	0.362992	-0.697749
25007		5.018334	-8.222977	1.652928	0.006329	-0.001942	-0.009484	-0.656006	0.851807	0.511475	0.312959	-0.532360	0.362997	-0.697770
25008		4.994930	-8.225593	1.658675	0.004188	-0.002886	-0.006809	-0.664551	0.845215	0.513428	0.312978	-0.532360	0.363001	-0.697759
25009		4.994489	-8.255665	1.631193	0.000686	-0.000594	-0.008977	-0.656982	0.842041	0.511475	0.312905	-0.532342	0.363063	-0.697773
25010		4.995898	-8.252576	1.675264	0.004187	-0.002887	-0.006808	-0.659668	0.851807	0.514160	0.312905	-0.532342	0.363081	-0.697764
25011		5.012133	-8.240162	1.631263	0.009411	-0.002102	-0.009487	-0.646973	0.845703	0.510254	0.312895	-0.532317	0.363072	-0.697792
25012		5.014223	-8.223766	1.646085	0.006855	-0.000911	-0.008984	-0.652832	0.844238	0.509277	0.312940	-0.532326	0.363035	-0.697785
25013		4.992063	-8.197944	1.635856	0.005279	-0.000826	-0.007396	-0.656738	0.848389	0.513428	0.312970	-0.532325	0.363023	-0.697778
25014		4.991480	-8.228091	1.608566	0.001630	-0.001697	-0.006305	-0.660645	0.847900	0.519043	0.312952	-0.532317	0.363068	-0.697769
25015		4.985831	-8.264907	1.635346	0.003214	-0.000188	-0.006350	-0.654297	0.839844	0.516357	0.312877	-0.532273	0.363154	-0.697791
25016		4.986327	-8.277222	1.665930	0.004788	-0.000274	-0.007939	-0.649658	0.851807	0.511963	0.312829	-0.532250	0.363202	-0.697805
25017		4.968673	-8.257909	1.631195	0.002673	-0.002821	-0.008393	-0.651367	0.840576	0.511475	0.312850	-0.532268	0.363199	-0.697784
25018		4.975416	-8.245740	1.665144	0.004296	0.000277	-0.008481	-0.657227	0.849365	0.508789	0.312848	-0.532265	0.363206	-0.697783
25019		4.991165	-8.246317	1.651304	0.008392	-0.000994	-0.008986	-0.653809	0.842529	0.505859	0.312881	-0.532254	0.363169	-0.697796
25020		4.982060	-8.252794	1.598695	0.004703	-0.003454	-0.007851	-0.657715	0.847168	0.509766	0.312934	-0.532278	0.363135	-0.697772
25021		4.974996	-8.223696	1.661360	0.005836	0.000197	-0.008483	-0.656494	0.853516	0.518555	0.312938	-0.532262	0.363131	-0.697785
25022		4.989898	-8.239781	1.633479	0.003241	-0.000201	-0.007937	-0.651367	0.853760	0.520020	0.312885	-0.532233	0.363188	-0.697800
25023		5.004793	-8.255883	1.605543	0.006284	-0.001946	-0.007896	-0.650146	0.851807	0.517334	0.312856	-0.532211	0.363223	-0.697812
25024		5.026823	-8.229617	1.639276	0.011921	-0.003295	-0.008403	-0.658203	0.842529	0.511230	0.312874	-0.532192	0.363203	-0.697829
25025		5.032892	-8.232693	1.659795	0.003679	-0.003943	-0.008892	-0.651855	0.844482	0.515381	0.312860	-0.532204	0.363213	-0.697821
25026		5.030025	-8.212490	1.654150	0.006171	-0.005117	-0.006222	-0.655762	0.845947	0.513184	0.312869	-0.532208	0.363229	-0.697806
25027		5.016905	-8.197373	1.639120	0.003166	-0.001784	-0.006306	-0.657959	0.847168	0.518311	0.312860	-0.532199	0.363263	-0.697799
25028		4.988195	-8.209142	1.654809	0.002135	-0.003867	-0.008890	-0.648926	0.840820	0.514404	0.312792	-0.532196	0.363322	-0.697801
25029		4.975577	-8.191572	1.683150	-0.000450	-0.002666	-0.006801	-0.653809	0.846191	0.516602	0.312776	-0.532214	0.363368	-0.697769
25030		4.995135	-8.211918	1.674190	-0.000410	-0.001077	-0.006845	-0.656494	0.851318	0.503906	0.312728	-0.532208	0.363439	-0.697759
25031		4.989358	-8.251144	1.656945	0.002673	-0.001233	-0.006849	-0.654053	0.846680	0.509033	0.312792	-0.532220	0.363409	-0.697737
25032		4.981515	-8.227049	1.631549	0.004175	-0.002900	-0.006807	-0.658203	0.850098	0.511963	0.312827	-0.532230	0.363400	-0.697719
25033		4.966521	-8.255697	1.619173	0.004814	0.001304	-0.007984	-0.649902	0.843262	0.510742	0.312813	-0.532201	0.363418	-0.697737
25034		4.991735	-8.264395	1.644564	0.005186	-0.004016	-0.007307	-0.651367	0.836426	0.514404	0.312850	-0.532220	0.363403	-0.697714
25035		4.986814	-8.288130	1.641228	0.001090	-0.002747	-0.006802	-0.653076	0.844727	0.512939	0.312830	-0.532234	0.363446	-0.697690
25036		4.969094	-8.268912	1.606478	0.006343	-0.000375	-0.009528	-0.659180	0.847168	0.519287	0.312824	-0.532224	0.363443	-0.697702
25037		4.981233	-8.247520	1.630521	0.007805	-0.003632	-0.009441	-0.657715	0.843018	0.512695	0.312774	-0.532206	0.363469	-0.697724
25038		4.968324	-8.232205	1.615963	0.007294	-0.001469	-0.006855	-0.650635	0.838867	0.511719	0.312775	-0.532186	0.363479	-0.697734
25039		4.993305	-8.243228	1.597866	0.007881	-0.000456	-0.009530	-0.656250	0.843018	0.517578	0.312787	-0.532183	0.363457	-0.697743
25040		4.994377	-8.242394	1.598816	0.006772	-0.000908	-0.005812	-0.654297	0.844727	0.505127	0.312762	-0.532150	0.363500	-0.697756
25041		5.014655	-8.247110	1.604691	0.004806	0.001298	-0.007984	-0.661621	0.845703	0.509766	0.312802	-0.532144	0.363475	-0.697756
25042		5.005226	-8.264241	1.626348	0.012328	-0.005434	-0.006228	-0.651123	0.850830	0.518066	0.312847	-0.532128	0.363441	-0.697766
25043		5.007035	-8.247873	1.641522	0.012432	-0.002270	-0.007905	-0.658447	0.850342	0.510742	0.312862	-0.532101	0.363424	-0.697788
25044		5.004079	-8.227454	1.637185	0.014462	-0.002901	-0.007364	-0.649170	0.841309	0.515137	0.312911	-0.532070	0.363375	-0.697816
25045		5.010102	-8.230387	1.658410	0.011369	-0.004350	-0.008900	-0.657227	0.849609	0.522461	0.312937	-0.532073	0.363342	-0.697819
25046		5.007418	-8.209909	1.653505	0.008844	-0.003171	-0.009985	-0.653564	0.848389	0.514404	0.312875	-0.532048	0.363373	-0.697850
25047		4.998319	-8.226861	1.675019	0.007274	-0.003082	-0.008396	-0.655273	0.841064	0.516602	0.312876	-0.532043	0.363372	-0.697854
25048		5.014110	-8.227474	1.660748	0.002160	-0.002299	-0.008932	-0.657715	0.842285	0.514404	0.312823	-0.532045	0.363419	-0.697851
25049		4.977407	-8.200351	1.664718	0.005732	-0.003006	-0.008393	-0.649658	0.850342	0.519043	0.312798	-0.532039	0.363439	-0.697857
25050		4.997139	-8.220494	1.656275	0.003076	-0.004978	-0.006212	-0.653564	0.851074	0.510498	0.312784	-0.532045	0.363483	-0.697835
25051		4.992231	-8.244158	1.653535	0.009416	0.001055	-0.007993	-0.650879	0.846680	0.508789	0.312814	-0.532016	0.363458	-0.697858
25052		4.995099	-8.199459	1.652165	0.006826	0.000658	-0.007445	-0.658203	0.843994	0.507568	0.312854	-0.532004	0.363436	-0.697860
25053		4.975657	-8.221684	1.664045	0.002168	-0.000700	-0.007391	-0.655273	0.850098	0.513184	0.312856	-0.532002	0.363449	-0.697853
25054		4.994528	-8.257387	1.641796	0.001648	-0.000135	-0.006348	-0.657227	0.845215	0.514893	0.312839	-0.531987	0.363494	-0.697850
25055		4.980372	-8.270699	1.642883	0.002156	-0.002305	-0.008931	-0.650391	0.847412	0.516846	0.312795	-0.531987	0.363533	-0.697849
25056		5.006178	-8.266297	1.637994	0.005765	-0.001421	-0.008439	-0.652588	0.846924	0.512451	0.312781	-0.531979	0.363549	-0.697853
25057		5.003336	-8.245962	1.632836	0.009817	-0.004282	-0.008897	-0.651855	0.837891	0.513672	0.312811	-0.531982	0.363514	-0.697855
25058		4.981180	-8.220184	1.622760	0.006356	0.001190	-0.009575	-0.656738	0.847656	0.523926	0.312795	-0.531970	0.363518	-0.697870
25059		4.996850	-8.220863	1.608507	0.001079	-0.002767	-0.006798	-0.655762	0.851318	0.519043	0.312709	-0.531954	0.363615	-0.697870
25060		4.963066	-8.241672	1.634485	0.001660	-0.001760	-0.009474	-0.651611	0.839844	0.521484	0.312639	-0.531944	0.363673	-0.697878
25061		4.962905	-8.271784	1.607352	0.006253	-0.001975	-0.007895	-0.656738	0.845215	0.511230	0.312594	-0.531930	0.363718	-0.697886
25062		4.988183	-8.280257	1.633055	0.008321	-0.001014	-0.007401	-0.661621	0.844971	0.517090	0.312610	-0.531911	0.363708	-0.697899
25063		4.985303	-8.259867	1.628289	0.009948	0.000466	-0.010624	-0.653320	0.848877	0.513916	0.312551	-0.531867	0.363724	-0.697950
25064		4.996071	-8.269176	1.625191	0.008862	-0.001599	-0.010030	-0.657959	0.841064	0.515137	0.312550	-0.531854	0.363707	-0.697969
25065		4.983291	-8.253802	1.610815	0.009809	-0.004290	-0.008896	-0.657959	0.853271	0.514404	0.312541	-0.531847	0.363700	-0.697982
25066		5.003639	-8.271059	1.646840	0.006273	-0.001998	-0.009481	-0.654785	0.852295	0.517578	0.312512	-0.531828	0.363713	-0.698003
25067		4.996850	-8.231218	1.635624	0.011297	-0.007565	-0.010389	-0.655762	0.842041	0.520264	0.312504	-0.531830	0.363692	-0.698015
25068		5.014171	-8.200625	1.649515	0.010369	-0.001664	-0.008447	-0.651611	0.851807	0.512939	0.312461	-0.531796	0.363718	-0.698048
25069		5.006054	-8.189196	1.655165	0.011870	-0.003332	-0.008402	-0.652832	0.850098	0.514648	0.312500	-0.531783	0.363678	-0.698061
25070		5.002555	-8.181835	1.680371	0.007239	-0.001478	-0.005269	-0.650146	0.857422	0.518066	0.312512	-0.531757	0.363698	-0.698065
25071		5.011672	-8.219983	1.693002	0.003633	-0.002365	-0.005759	-0.658936	0.849609	0.515869	0.312490	-0.531735	0.363752	-0.698063
25072		5.016694	-8.238782	1.699284	0.001637	-0.000149	-0.006348	-0.656494	0.849121	0.520752	0.312434	-0.531704	0.363825	-0.698073
25073		4.998277	-8.232787	1.694594	0.005688	-0.003010	-0.006804	-0.656494	0.856689	0.515869	0.312372	-0.531672	0.363893	-0.698091
25074		5.028617	-8.234782	1.665801	0.006289	-0.002026	-0.011067	-0.650879	0.854004	0.507080	0.312319	-0.531649	0.363913	-0.698121
25075		4.995996	-8.227098	1.676044	0.002224	0.002461	-0.007487	-0.661377	0.849854	0.510010	0.312354	-0.531642	0.363905	-0.698115
25076		4.983228	-8.199276	1.630596	-0.000444	-0.002724	-0.008379	-0.652100	0.846191	0.511230	0.312322	-0.531649	0.363941	-0.698105
25077		4.973311	-8.232100	1.637206	-0.002007	-0.002629	-0.006790	-0.659180	0.853760	0.507568	0.312321	-0.531675	0.363977	-0.698068
25078		4.983401	-8.254729	1.662894	0.003161	-0.001837	-0.007889	-0.661621	0.843262	0.509033	0.312332	-0.531672	0.363977	-0.698065
25079		4.984825	-8.241119	1.633284	0.004770	0.001266	-0.007988	-0.665527	0.856689	0.514648	0.312323	-0.531650	0.363986	-0.698080
25080		4.985251	-8.255869	1.619971	0.001621	-0.001762	-0.007886	-0.660889	0.853271	0.510254	0.312245	-0.531616	0.364060	-0.698103
25081		4.995628	-8.265603	1.615917	0.004674	-0.001896	-0.006305	-0.653320	0.848145	0.514404	0.312244	-0.531594	0.364080	-0.698110
25082		4.992145	-8.258369	1.640445	0.005155	-0.004054	-0.007299	-0.652344	0.840088	0.516602	0.312245	-0.531597	0.364094	-0.698100
25083		5.002624	-8.268030	1.636437	0.003158	-0.001840	-0.007889	-0.655273	0.850830	0.511230	0.312218	-0.531599	0.364129	-0.698092
25084		4.984360	-8.261949	1.631877	0.006727	-0.002542	-0.007351	-0.652588	0.849609	0.510742	0.312237	-0.531591	0.364122	-0.698093
25085		5.005590	-8.250873	1.651479	0.008287	-0.002639	-0.008940	-0.655518	0.842529	0.511475	0.312269	-0.531592	0.364088	-0.698096
25086		4.987818	-8.231813	1.616996	0.005210	-0.002488	-0.008934	-0.649902	0.850830	0.511719	0.312274	-0.531601	0.364081	-0.698091
25087		4.999032	-8.225876	1.626951	0.004728	-0.000330	-0.007940	-0.662842	0.847412	0.508301	0.312290	-0.531595	0.364079	-0.698089
25088		4.990192	-8.230119	1.618296	0.006781	-0.000975	-0.008986	-0.657959	0.850830	0.511963	0.312287	-0.531578	0.364070	-0.698108
25089		4.991636	-8.226679	1.662618	0.001593	-0.001749	-0.006299	-0.654541	0.856201	0.504639	0.312269	-0.531566	0.364113	-0.698103
25090		4.977697	-8.227265	1.633958	0.005288	0.002300	-0.007494	-0.651855	0.846436	0.510010	0.312310	-0.531543	0.364091	-0.698114
25091		5.012290	-8.246084	1.655074	0.004140	-0.002943	-0.006800	-0.652344	0.842773	0.507080	0.312344	-0.531555	0.364084	-0.698092
25092		4.979419	-8.238637	1.665205	0.005218	-0.000881	-0.007396	-0.648193	0.846191	0.511719	0.312391	-0.531564	0.364057	-0.698078
25093		4.994997	-8.239297	1.651175	0.006721	-0.002548	-0.007350	-0.653320	0.851807	0.508545	0.312434	-0.531574	0.364035	-0.698064
25094		4.990956	-8.247423	1.662358	0.007764	-0.002076	-0.007897	-0.662842	0.853027	0.519287	0.312470	-0.531566	0.364008	-0.698068
25095		5.001611	-8.244252	1.628686	0.006697	-0.002528	-0.005764	-0.655518	0.849121	0.507080	0.312417	-0.531520	0.364072	-0.698093
25096		4.973624	-8.240639	1.658619	0.004159	-0.002969	-0.008386	-0.653809	0.848145	0.508789	0.312440	-0.531530	0.364057	-0.698083
25097		4.999283	-8.236145	1.653925	0.008749	-0.003175	-0.006809	-0.655518	0.843018	0.513672	0.312489	-0.531526	0.364026	-0.698080
25098		4.990362	-8.240412	1.645514	0.007300	0.000058	-0.008491	-0.654297	0.854248	0.514160	0.312481	-0.531508	0.364029	-0.698096
25099		4.982250	-8.229085	1.650685	0.006243	-0.002028	-0.009480	-0.657471	0.846924	0.515381	0.312462	-0.531495	0.364036	-0.698111
25100		5.012118	-8.243952	1.652017	0.005157	-0.002455	-0.005760	-0.650635	0.850830	0.515137	0.312448	-0.531477	0.364073	-0.698111
25101		4.993762	-8.237906	1.647748	0.008800	-0.001610	-0.008445	-0.656494	0.849609	0.514404	0.312457	-0.531462	0.364063	-0.698124
25102		5.014485	-8.242111	1.654017	0.011860	-0.003377	-0.009987	-0.657715	0.854248	0.510498	0.312457	-0.531444	0.364035	-0.698152
25103		5.006674	-8.217890	1.629496	0.010828	-0.002237	-0.007903	-0.656494	0.843506	0.521484	0.312473	-0.531413	0.364015	-0.698179
25104		5.012691	-8.220811	1.650256	0.006217	-0.002011	-0.007893	-0.651855	0.841553	0.528564	0.312422	-0.531394	0.364062	-0.698192
25105		4.999454	-8.205953	1.634976	-0.001488	-0.001609	-0.006291	-0.660645	0.848145	0.518066	0.312321	-0.531387	0.364183	-0.698179
25106		4.984344	-8.247805	1.652392	0.001124	0.000377	-0.006892	-0.655762	0.847900	0.509766	0.312241	-0.531353	0.364271	-0.698195
25107		4.985924	-8.231585	1.666633	0.005272	0.002288	-0.007497	-0.652588	0.839600	0.517578	0.312243	-0.531325	0.364279	-0.698211
25108		5.010276	-8.258168	1.634500	0.002647	-0.001314	-0.008431	-0.653076	0.848877	0.510010	0.312211	-0.531331	0.364313	-0.698202
25109		4.991999	-8.252206	1.629684	0.002132	-0.000743	-0.007389	-0.660645	0.842041	0.509766	0.312217	-0.531332	0.364328	-0.698192
25110		4.993175	-8.251451	1.629905	0.001657	-0.000221	-0.009520	-0.653320	0.848633	0.510010	0.312187	-0.531333	0.364348	-0.698194
25111		4.994539	-8.250579	1.630137	0.002666	-0.001340	-0.010017	-0.656250	0.847656	0.516602	0.312181	-0.531344	0.364347	-0.698189
25112		5.000970	-8.240762	1.620097	0.004181	-0.001392	-0.008434	-0.653564	0.848389	0.523682	0.312140	-0.531330	0.364384	-0.698199
25113		5.027397	-8.220543	1.629277	0.008842	-0.000052	-0.010081	-0.655273	0.852295	0.505371	0.312072	-0.531292	0.364420	-0.698239
25114		4.979602	-8.227095	1.640743	0.005137	-0.004078	-0.007294	-0.649658	0.849365	0.513184	0.312119	-0.531303	0.364394	-0.698224
25115		5.010380	-8.213578	1.625685	0.007284	0.000046	-0.008492	-0.657471	0.845703	0.518066	0.312132	-0.531289	0.364384	-0.698233
25116		4.981749	-8.225509	1.642179	0.005149	-0.002464	-0.005759	-0.647705	0.841797	0.512939	0.312103	-0.531269	0.364432	-0.698236
25117		4.991830	-8.247999	1.668420	0.002622	-0.001296	-0.006844	-0.657471	0.846191	0.512939	0.312130	-0.531288	0.364436	-0.698208
25118		5.006569	-8.276950	1.670775	0.007744	-0.002093	-0.007896	-0.657959	0.847900	0.512695	0.312130	-0.531274	0.364436	-0.698219
25119		5.018007	-8.258116	1.650939	0.008289	-0.001076	-0.008989	-0.654785	0.848389	0.508301	0.312119	-0.531252	0.364432	-0.698242
25120		4.986689	-8.206728	1.658870	0.007806	0.001085	-0.007998	-0.649902	0.842285	0.515625	0.312144	-0.531228	0.364412	-0.698260
25121		4.987280	-8.221462	1.645651	0.000544	-0.003885	-0.008869	-0.658936	0.847412	0.514893	0.312132	-0.531265	0.364432	-0.698227
25122		4.997956	-8.231097	1.641175	0.001070	-0.002841	-0.008375	-0.657959	0.846680	0.517334	0.312084	-0.531265	0.364481	-0.698223
25123		4.983866	-8.244596	1.642287	0.002105	-0.000727	-0.005803	-0.656494	0.848145	0.512939	0.312040	-0.531243	0.364548	-0.698224
25124		4.984812	-8.243971	1.642550	0.003627	-0.002419	-0.007341	-0.662598	0.855469	0.510498	0.312027	-0.531238	0.364572	-0.698221
25125		5.006183	-8.220080	1.631609	0.007212	-0.003142	-0.008389	-0.654053	0.844971	0.513916	0.312003	-0.531209	0.364585	-0.698247
25126		4.982084	-8.251246	1.654169	0.005706	-0.001478	-0.008437	-0.660400	0.845703	0.507324	0.312000	-0.531206	0.364588	-0.698249
25127		5.021982	-8.260858	1.664786	0.004616	-0.003513	-0.006251	-0.648193	0.848145	0.510498	0.312022	-0.531208	0.364588	-0.698237
25128		4.999501	-8.235520	1.654043	0.005196	-0.002551	-0.010516	-0.659912	0.844971	0.512207	0.312045	-0.531231	0.364556	-0.698227
25129		4.990826	-8.239809	1.645172	0.004664	-0.001951	-0.007889	-0.654541	0.844238	0.518311	0.312028	-0.531222	0.364574	-0.698231
25130		4.997028	-8.230005	1.635679	0.009331	0.001006	-0.008003	-0.655518	0.840576	0.507324	0.312012	-0.531188	0.364584	-0.698259
25131		4.998121	-8.229128	1.636747	0.008198	-0.004239	-0.007299	-0.662354	0.851318	0.512695	0.312074	-0.531207	0.364537	-0.698242
25132		5.004940	-8.203766	1.640772	0.005732	0.000108	-0.008489	-0.659912	0.841797	0.508057	0.312028	-0.531168	0.364571	-0.698275
25133		5.019741	-8.232712	1.643007	0.001078	-0.001232	-0.006840	-0.659424	0.853760	0.517578	0.312026	-0.531173	0.364593	-0.698260
25134		4.995638	-8.251426	1.634915	0.002147	0.000829	-0.007441	-0.655518	0.847900	0.513672	0.311951	-0.531131	0.364671	-0.698285
25135		4.996579	-8.250780	1.635302	0.003139	-0.000262	-0.006351	-0.654297	0.843750	0.509766	0.311935	-0.531114	0.364708	-0.698286
25136		5.002428	-8.253836	1.655669	0.005216	0.000680	-0.007448	-0.655029	0.850830	0.510742	0.311954	-0.531105	0.364704	-0.698286
25137		4.979398	-8.243991	1.631666	0.007763	-0.002163	-0.011067	-0.658691	0.847412	0.516846	0.311948	-0.531100	0.364679	-0.698305
25138		4.986238	-8.231182	1.665879	0.006193	-0.002032	-0.007892	-0.652344	0.843262	0.515381	0.311915	-0.531080	0.364709	-0.698320
25139		4.996739	-8.240788	1.662081	0.004115	-0.002975	-0.006795	-0.655762	0.848633	0.512695	0.311922	-0.531091	0.364724	-0.698301
25140		4.983481	-8.225941	1.647100	0.006192	-0.002034	-0.007892	-0.653564	0.842285	0.507080	0.311919	-0.531080	0.364730	-0.698307
25141		4.989593	-8.228772	1.667738	0.008268	-0.001093	-0.008989	-0.655029	0.846924	0.510742	0.311967	-0.531086	0.364680	-0.698307
25142		4.995212	-8.234525	1.644688	0.007242	0.000056	-0.006907	-0.653320	0.842773	0.513672	0.311983	-0.531064	0.364677	-0.698318
25143		4.995739	-8.249289	1.631803	0.005663	-0.003082	-0.008384	-0.649170	0.844727	0.509277	0.311995	-0.531078	0.364669	-0.698306
25144		4.992412	-8.241818	1.656475	0.006188	-0.002037	-0.007891	-0.659668	0.841064	0.516113	0.312041	-0.531092	0.364638	-0.698291
25145		4.998627	-8.232065	1.646624	0.004653	-0.001964	-0.007888	-0.653809	0.844727	0.509033	0.312017	-0.531089	0.364663	-0.698292
25146		4.990330	-8.220948	1.651288	0.003118	-0.001891	-0.007884	-0.657959	0.848877	0.511719	0.312030	-0.531100	0.364662	-0.698278
25147		5.006190	-8.221437	1.637040	0.006217	-0.002101	-0.011063	-0.651855	0.843750	0.510010	0.312004	-0.531095	0.364657	-0.698296
25148		4.987379	-8.243641	1.649142	0.005147	-0.002511	-0.007342	-0.660400	0.845703	0.509521	0.312037	-0.531107	0.364643	-0.698279
25149		4.994080	-8.218378	1.652742	0.003612	-0.002438	-0.007339	-0.657471	0.838867	0.510986	0.312026	-0.531102	0.364662	-0.698278
25150		4.984432	-8.251163	1.660276	0.004108	-0.002983	-0.006793	-0.650146	0.847168	0.516357	0.312042	-0.531115	0.364665	-0.698259
25151		4.995566	-8.232568	1.639896	0.005671	-0.001466	-0.006851	-0.650635	0.837402	0.511719	0.312054	-0.531112	0.364674	-0.698252
25152		5.000920	-8.251137	1.646698	0.005670	-0.001467	-0.006851	-0.653320	0.849609	0.516357	0.312099	-0.531129	0.364653	-0.698229
25153		4.998153	-8.215498	1.654747	0.004647	-0.001970	-0.007887	-0.656250	0.846924	0.512207	0.312085	-0.531125	0.364673	-0.698229
25154		5.008318	-8.228025	1.606985	0.003113	-0.001897	-0.007883	-0.650391	0.842285	0.513672	0.312072	-0.531124	0.364694	-0.698224
