// Start Time: Unknown
// Update Rate: 60.0Hz
// Filter Profile: human (46.1)
// Firmware Version: 4.6.0
PacketCounter	SampleTimeFine	Acc_X	Acc_Y	Acc_Z	Gyr_X	Gyr_Y	Gyr_Z	Mag_X	Mag_Y	Mag_Z	Quat_q0	Quat_q1	Quat_q2	Quat_q3
52889		8.184509	-2.437467	4.820193	-0.002851	0.002448	-0.013178	-0.664551	0.525879	-0.417969	0.663684	-0.418422	-0.279916	-0.553258
52890		8.188414	-2.416567	4.812949	-0.000930	0.000782	-0.016224	-0.669678	0.518555	-0.408936	0.663636	-0.418353	-0.279943	-0.553353
52891		8.193801	-2.399626	4.826105	-0.004769	0.004113	-0.010134	-0.671387	0.522217	-0.417725	0.663529	-0.418403	-0.279969	-0.553430
52892		8.190231	-2.388928	4.849487	-0.004880	0.001927	-0.010847	-0.662109	0.524414	-0.412109	0.663466	-0.418397	-0.279974	-0.553508
52893		8.203316	-2.420747	4.800348	-0.003131	0.000807	-0.005846	-0.672119	0.527832	-0.417480	0.663427	-0.418401	-0.279978	-0.553550
52894		8.208519	-2.404894	4.813262	-0.004776	0.001142	-0.005840	-0.670166	0.524902	-0.414307	0.663379	-0.418417	-0.279975	-0.553597
52895		8.173602	-2.401130	4.806125	-0.002396	0.000912	-0.001825	-0.671631	0.522217	-0.419434	0.663346	-0.418445	-0.279978	-0.553613
52896		8.194706	-2.425493	4.810747	-0.001635	0.003306	-0.004290	-0.663818	0.523438	-0.410645	0.663338	-0.418418	-0.279963	-0.553652
52897		8.180080	-2.388989	4.839922	-0.001778	0.002485	-0.000622	-0.666504	0.517090	-0.419678	0.663317	-0.418439	-0.279955	-0.553665
52898		8.189044	-2.412036	4.814152	-0.001272	0.001873	-0.000132	-0.659912	0.520508	-0.413818	0.663344	-0.418401	-0.279924	-0.553676
52899		8.190398	-2.415914	4.834819	-0.002806	0.004393	0.000586	-0.665283	0.521973	-0.419434	0.663362	-0.418385	-0.279876	-0.553692
52900		8.165632	-2.410395	4.838079	-0.001256	0.001190	-0.002322	-0.669434	0.519775	-0.423584	0.663375	-0.418350	-0.279857	-0.553711
52901		8.174327	-2.404738	4.827997	-0.004561	0.002541	-0.000120	-0.670898	0.525391	-0.418457	0.663397	-0.418315	-0.279808	-0.553736
52902		8.188296	-2.412771	4.815056	-0.005700	0.002263	0.000376	-0.664062	0.525146	-0.416016	0.663393	-0.418350	-0.279754	-0.553743
52903		8.183002	-2.428513	4.802354	-0.006583	0.004991	-0.002084	-0.668457	0.517822	-0.406006	0.663386	-0.418365	-0.279687	-0.553774
52904		8.175641	-2.437823	4.833242	-0.003017	0.002993	-0.005135	-0.661621	0.519043	-0.410889	0.663295	-0.418410	-0.279734	-0.553825
52905		8.189453	-2.416178	4.836288	-0.003766	0.003571	-0.006967	-0.660400	0.522949	-0.426758	0.663252	-0.418408	-0.279727	-0.553881
52906		8.177500	-2.413597	4.806220	0.000923	0.002533	-0.008324	-0.664062	0.524414	-0.417969	0.663301	-0.418298	-0.279692	-0.553923
52907		8.182552	-2.397639	4.819431	-0.005049	0.002471	-0.002803	-0.666992	0.522949	-0.413574	0.663301	-0.418309	-0.279640	-0.553940
52908		8.198447	-2.408511	4.826705	-0.003109	0.000125	-0.008039	-0.661621	0.516846	-0.420654	0.663243	-0.418336	-0.279659	-0.553980
52909		8.207398	-2.402136	4.816550	-0.002510	0.002380	-0.004645	-0.666260	0.515381	-0.415527	0.663245	-0.418271	-0.279656	-0.554029
52910		8.193545	-2.422992	4.813983	-0.001011	0.001225	-0.000982	-0.657471	0.518311	-0.419434	0.663222	-0.418256	-0.279685	-0.554053
52911		8.188073	-2.409351	4.817147	0.001395	0.003285	-0.003452	-0.658447	0.520996	-0.417725	0.663260	-0.418186	-0.279670	-0.554068
52912		8.175751	-2.433548	4.835210	-0.000493	0.003584	-0.004788	-0.671143	0.517578	-0.413330	0.663278	-0.418152	-0.279644	-0.554085
52913		8.180722	-2.417741	4.848470	-0.003648	0.002101	-0.004150	-0.660400	0.527832	-0.416748	0.663211	-0.418183	-0.279671	-0.554129
52914		8.191590	-2.417814	4.795005	-0.002283	0.003096	-0.001114	-0.663086	0.526855	-0.409912	0.663247	-0.418210	-0.279594	-0.554104
52915		8.155943	-2.411816	4.851941	-0.000864	0.002046	-0.004651	-0.670166	0.520508	-0.417480	0.663222	-0.418274	-0.279574	-0.554095
52916		8.194720	-2.424519	4.836126	-0.003647	0.002101	-0.004151	-0.663574	0.526611	-0.420410	0.663185	-0.418285	-0.279580	-0.554128
52917		8.185904	-2.429815	4.846590	-0.001874	0.003271	-0.005634	-0.667480	0.518311	-0.420898	0.663201	-0.418274	-0.279529	-0.554143
52918		8.191073	-2.387679	4.811787	-0.006934	0.002767	-0.004142	-0.663574	0.523682	-0.418213	0.663174	-0.418262	-0.279512	-0.554194
52919		8.184256	-2.425691	4.826559	-0.002636	0.000876	-0.003169	-0.669678	0.527344	-0.419678	0.663176	-0.418273	-0.279487	-0.554196
52920		8.191522	-2.415850	4.796111	-0.002245	0.001733	-0.005497	-0.665527	0.514648	-0.416016	0.663164	-0.418294	-0.279463	-0.554205
52921		8.182768	-2.421332	4.806377	-0.005923	0.001542	-0.003160	-0.662842	0.524658	-0.407715	0.663114	-0.418296	-0.279486	-0.554252
52922		8.178902	-2.411434	4.829818	0.000891	0.003899	-0.003943	-0.668945	0.522217	-0.420898	0.663087	-0.418354	-0.279476	-0.554246
52923		8.192911	-2.418527	4.817307	-0.002396	0.004565	-0.003935	-0.664795	0.518555	-0.418457	0.663083	-0.418333	-0.279458	-0.554276
52924		8.189341	-2.437101	4.825190	-0.000995	0.004197	-0.005281	-0.661621	0.528076	-0.405762	0.663073	-0.418292	-0.279466	-0.554315
52925		8.178528	-2.409703	4.831316	0.000034	0.002291	-0.006490	-0.663086	0.521973	-0.415771	0.663031	-0.418391	-0.279443	-0.554302
52926		8.197842	-2.401137	4.831406	0.000411	0.000175	-0.004520	-0.664062	0.522461	-0.420654	0.663022	-0.418395	-0.279452	-0.554305
52927		8.171619	-2.417820	4.862015	-0.000728	-0.000104	-0.004024	-0.668945	0.524658	-0.415039	0.663032	-0.418375	-0.279447	-0.554310
52928		8.182832	-2.417418	4.808238	-0.000466	-0.000751	-0.004875	-0.663086	0.518799	-0.417236	0.662995	-0.418422	-0.279468	-0.554308
52929		8.170481	-2.413159	4.841398	-0.004387	-0.000977	-0.003879	-0.666992	0.521973	-0.415039	0.662972	-0.418428	-0.279477	-0.554328
52930		8.193576	-2.414915	4.817987	-0.004035	0.001242	-0.001825	-0.663330	0.520508	-0.417236	0.662943	-0.418472	-0.279468	-0.554333
52931		8.169013	-2.409158	4.821004	-0.002242	0.001732	-0.005499	-0.664062	0.518311	-0.409180	0.662931	-0.418458	-0.279466	-0.554359
52932		8.176084	-2.425756	4.838562	-0.005025	0.001785	-0.005000	-0.666748	0.522705	-0.421875	0.662858	-0.418519	-0.279484	-0.554391
52933		8.165203	-2.398981	4.844471	-0.004673	0.004005	-0.002945	-0.668457	0.515869	-0.414795	0.662870	-0.418495	-0.279438	-0.554417
52934		8.198860	-2.427239	4.815833	-0.002766	0.003026	-0.003799	-0.674805	0.519775	-0.408203	0.662818	-0.418486	-0.279484	-0.554465
52935		8.163366	-2.394817	4.824783	-0.002766	0.003025	-0.003799	-0.658691	0.513428	-0.413330	0.662701	-0.418579	-0.279544	-0.554504
52936		8.158378	-2.409905	4.811948	-0.004518	0.001173	-0.004509	-0.669922	0.515137	-0.412842	0.662679	-0.418554	-0.279560	-0.554541
52937		8.198481	-2.397914	4.831922	-0.007671	-0.000314	-0.003874	-0.669922	0.518311	-0.417969	0.662580	-0.418602	-0.279618	-0.554593
52938		8.199070	-2.426527	4.815835	-0.003508	-0.000051	-0.003527	-0.665039	0.520264	-0.413086	0.662541	-0.418597	-0.279660	-0.554623
52939		8.193772	-2.412672	4.818777	0.000037	0.002293	-0.006491	-0.664062	0.514648	-0.412842	0.662505	-0.418607	-0.279672	-0.554652
52940		8.188875	-2.427488	4.805930	-0.002127	0.000263	-0.002680	-0.662598	0.528320	-0.414307	0.662469	-0.418606	-0.279715	-0.554674
52941		8.188905	-2.427319	4.805964	-0.005284	0.002431	-0.004151	-0.665283	0.518799	-0.423340	0.662466	-0.418694	-0.279603	-0.554668
52942		8.183506	-2.413641	4.808988	-0.002744	0.002344	-0.005993	-0.663574	0.520752	-0.419922	0.662495	-0.418600	-0.279604	-0.554704
52943		8.189372	-2.455241	4.790445	-0.005283	0.002430	-0.004152	-0.665039	0.520996	-0.421875	0.662514	-0.418572	-0.279563	-0.554723
52944		8.169275	-2.405167	4.822552	-0.001979	0.004741	-0.008458	-0.671631	0.528076	-0.411621	0.662536	-0.418491	-0.279543	-0.554768
52945		8.183317	-2.411991	4.810137	-0.003906	0.006399	-0.005412	-0.668213	0.518799	-0.414795	0.662465	-0.418607	-0.279488	-0.554793
52946		8.209283	-2.420647	4.828179	-0.001495	0.004810	-0.005775	-0.664795	0.526611	-0.415771	0.662421	-0.418599	-0.279511	-0.554840
52947		8.172641	-2.412693	4.801186	-0.000968	0.003517	-0.007476	-0.668701	0.520264	-0.416992	0.662417	-0.418633	-0.279451	-0.554849
52948		8.198808	-2.421096	4.819012	-0.002370	0.003882	-0.006131	-0.662109	0.521729	-0.426758	0.662383	-0.418621	-0.279463	-0.554893
52949		8.204064	-2.433716	4.816778	-0.001123	0.006348	-0.005912	-0.667480	0.528564	-0.417236	0.662483	-0.418473	-0.279390	-0.554921
52950		8.173840	-2.414266	4.823241	-0.000989	0.004197	-0.005284	-0.666260	0.519775	-0.414062	0.662492	-0.418518	-0.279320	-0.554911
52951		8.184126	-2.411676	4.833797	-0.001119	0.002693	-0.003805	-0.656006	0.517334	-0.418945	0.662461	-0.418538	-0.279332	-0.554928
52952		8.192905	-2.405665	4.823753	-0.001884	0.000296	-0.001340	-0.660645	0.516602	-0.418213	0.662537	-0.418474	-0.279282	-0.554911
52953		8.170405	-2.432430	4.831139	-0.005016	0.001782	-0.005006	-0.661865	0.519775	-0.417480	0.662545	-0.418427	-0.279266	-0.554944
52954		8.211002	-2.422310	4.787699	-0.002761	0.003024	-0.003803	-0.666748	0.522461	-0.414062	0.662567	-0.418404	-0.279229	-0.554954
52955		8.191910	-2.429606	4.787888	0.000681	-0.000468	-0.005374	-0.671143	0.518799	-0.421631	0.662531	-0.418454	-0.279252	-0.554948
52956		8.182858	-2.405919	4.813958	-0.000327	0.000755	-0.006358	-0.662109	0.524170	-0.417480	0.662503	-0.418388	-0.279316	-0.554999
52957		8.181173	-2.427935	4.841838	-0.000220	0.002940	-0.005644	-0.667480	0.521240	-0.412842	0.662542	-0.418386	-0.279258	-0.554983
52958		8.182884	-2.404506	4.814620	-0.002126	0.003916	-0.004791	-0.670654	0.523438	-0.418945	0.662490	-0.418442	-0.279259	-0.555002
52959		8.188153	-2.417310	4.812286	-0.001251	0.004843	-0.004435	-0.670898	0.514893	-0.414062	0.662478	-0.418438	-0.279248	-0.555026
52960		8.184078	-2.407570	4.835925	-0.003923	0.003422	-0.001116	-0.667725	0.530273	-0.413818	0.662395	-0.418454	-0.279314	-0.555080
52961		8.179017	-2.422554	4.823321	0.000921	0.003221	-0.006139	-0.667480	0.520996	-0.416504	0.662383	-0.418558	-0.279247	-0.555049
52962		8.173647	-2.408673	4.826363	-0.005888	0.000853	-0.005365	-0.664062	0.526367	-0.420654	0.662338	-0.418596	-0.279242	-0.555076
52963		8.188082	-2.415654	4.813238	0.000684	-0.000468	-0.005375	-0.662598	0.523438	-0.419922	0.662390	-0.418588	-0.279183	-0.555051
52964		8.195259	-2.432146	4.830691	-0.005013	0.001780	-0.005009	-0.658936	0.527100	-0.418213	0.662423	-0.418582	-0.279105	-0.555054
52965		8.189886	-2.418266	4.833734	0.000047	0.002294	-0.006496	-0.665527	0.518555	-0.415527	0.662498	-0.418586	-0.278993	-0.555018
52966		8.198743	-2.411675	4.823843	0.000791	0.001717	-0.004660	-0.667236	0.527344	-0.416504	0.662477	-0.418570	-0.279027	-0.555037
52967		8.163768	-2.407833	4.816840	-0.001751	0.001800	-0.002820	-0.671875	0.519043	-0.409912	0.662487	-0.418640	-0.278969	-0.555002
52968		8.204153	-2.424318	4.821364	-0.003394	0.002129	-0.002818	-0.662109	0.522705	-0.411133	0.662377	-0.418740	-0.279043	-0.555022
52969		8.189854	-2.416630	4.834606	-0.002255	0.002411	-0.003313	-0.669434	0.530518	-0.414062	0.662364	-0.418822	-0.278996	-0.554998
52970		8.179375	-2.418254	4.824873	0.000897	0.003902	-0.003946	-0.657715	0.515869	-0.412598	0.662358	-0.418926	-0.278934	-0.554958
52971		8.179196	-2.417964	4.825322	-0.002280	0.003091	-0.001119	-0.657959	0.521240	-0.422363	0.662377	-0.418916	-0.278904	-0.554959
52972		8.187886	-2.411854	4.815476	-0.003740	0.003565	-0.006985	-0.663330	0.521729	-0.416748	0.662450	-0.418822	-0.278798	-0.554996
52973		8.198294	-2.409176	4.825856	-0.002228	0.001731	-0.005508	-0.661377	0.523926	-0.415039	0.662452	-0.418823	-0.278769	-0.555007
52974		8.175322	-2.406983	4.849212	-0.003871	0.002060	-0.005506	-0.663818	0.523926	-0.417236	0.662460	-0.418869	-0.278698	-0.554998
52975		8.180859	-2.419862	4.846407	-0.002863	0.000837	-0.004521	-0.671875	0.517578	-0.421143	0.662470	-0.418892	-0.278650	-0.554993
52976		8.184357	-2.400314	4.839060	-0.002598	0.000192	-0.005373	-0.660645	0.523438	-0.419434	0.662417	-0.418828	-0.278727	-0.555066
52977		8.183568	-2.424706	4.802709	-0.003471	-0.000736	-0.005729	-0.660645	0.523682	-0.420654	0.662455	-0.418820	-0.278657	-0.555062
52978		8.207827	-2.400937	4.815636	-0.002227	0.001731	-0.005509	-0.663330	0.517822	-0.410645	0.662512	-0.418781	-0.278573	-0.555065
52979		8.187174	-2.404528	4.795489	0.000158	0.000825	-0.003674	-0.668213	0.521729	-0.415039	0.662470	-0.418822	-0.278618	-0.555063
52980		8.179878	-2.413664	4.826319	-0.000506	0.004266	-0.002601	-0.668213	0.527344	-0.420166	0.662448	-0.418841	-0.278624	-0.555071
52981		8.188478	-2.407630	4.816583	-0.002518	0.003056	-0.002463	-0.659912	0.518555	-0.416992	0.662476	-0.418859	-0.278555	-0.555059
52982		8.184982	-2.426500	4.824276	-0.001883	0.003949	-0.003451	-0.668701	0.518555	-0.416748	0.662506	-0.418813	-0.278511	-0.555078
52983		8.189663	-2.410815	4.837832	-0.001009	0.004877	-0.003094	-0.670166	0.521240	-0.411621	0.662475	-0.418784	-0.278543	-0.555123
52984		8.179047	-2.412636	4.828240	-0.001644	0.003983	-0.002107	-0.667969	0.528076	-0.421631	0.662409	-0.418856	-0.278578	-0.555129
52985		8.197970	-2.404679	4.828648	-0.002783	0.003701	-0.001613	-0.677490	0.519775	-0.412354	0.662454	-0.418863	-0.278486	-0.555116
52986		8.197927	-2.404580	4.828771	-0.003495	-0.000057	-0.003536	-0.663330	0.518555	-0.424072	0.662314	-0.418951	-0.278616	-0.555152
52987		8.178830	-2.412370	4.828740	-0.006410	0.002139	-0.003670	-0.666016	0.518555	-0.414551	0.662349	-0.418855	-0.278565	-0.555207
52988		8.173923	-2.427861	4.815669	-0.004661	0.000340	-0.000848	-0.667480	0.515381	-0.415283	0.662313	-0.418892	-0.278578	-0.555216
52989		8.184377	-2.425725	4.825693	-0.004236	0.000520	-0.005374	-0.672363	0.524414	-0.418945	0.662241	-0.418881	-0.278647	-0.555275
52990		8.208501	-2.402138	4.838742	-0.004131	0.002704	-0.004659	-0.669434	0.526123	-0.424561	0.662202	-0.418903	-0.278643	-0.555308
52991		8.189284	-2.409725	4.839016	-0.002754	0.003021	-0.003809	-0.666504	0.527344	-0.419922	0.662240	-0.418856	-0.278583	-0.555329
52992		8.174978	-2.402166	4.852180	-0.003522	0.000623	-0.001342	-0.667969	0.519775	-0.420654	0.662274	-0.418891	-0.278506	-0.555300
52993		8.185856	-2.428648	4.846569	-0.000874	0.002727	-0.002465	-0.669922	0.529297	-0.422852	0.662282	-0.418831	-0.278511	-0.555333
52994		8.177181	-2.407605	4.809074	-0.001747	0.001799	-0.002823	-0.666992	0.525879	-0.416504	0.662319	-0.418835	-0.278444	-0.555320
52995		8.182537	-2.420938	4.806367	-0.004556	0.002524	-0.000133	-0.663086	0.516846	-0.407227	0.662327	-0.418900	-0.278379	-0.555294
52996		8.185505	-2.428379	4.847297	-0.002118	0.003915	-0.004796	-0.665527	0.522705	-0.414551	0.662258	-0.418964	-0.278415	-0.555309
52997		8.178322	-2.411021	4.830274	-0.003019	0.003666	-0.002958	-0.661377	0.525146	-0.420166	0.662247	-0.419001	-0.278382	-0.555311
52998		8.192530	-2.418284	4.817430	-0.002620	0.000871	-0.003181	-0.667236	0.520020	-0.419922	0.662303	-0.418992	-0.278293	-0.555296
52999		8.179866	-2.414272	4.850869	-0.001984	0.001765	-0.004168	-0.667969	0.527588	-0.415527	0.662295	-0.418947	-0.278302	-0.555335
53000		8.192599	-2.417558	4.817678	-0.001983	0.001765	-0.004168	-0.668945	0.529785	-0.416504	0.662284	-0.419016	-0.278266	-0.555314
53001		8.174962	-2.428847	4.838263	-0.003255	0.003632	-0.004303	-0.667725	0.522217	-0.424561	0.662279	-0.419088	-0.278200	-0.555298
53002		8.178832	-2.437890	4.815390	-0.003226	0.002953	-0.006499	-0.666016	0.514893	-0.415039	0.662288	-0.419004	-0.278171	-0.555365
53003		8.183765	-2.421942	4.828630	-0.002220	0.001731	-0.005513	-0.667969	0.528809	-0.416992	0.662233	-0.418972	-0.278234	-0.555423
53004		8.187755	-2.430950	4.805575	-0.003861	0.002058	-0.005513	-0.665527	0.526855	-0.413574	0.662224	-0.419038	-0.278178	-0.555413
53005		8.192698	-2.415014	4.818785	-0.001080	0.002014	-0.006007	-0.666748	0.514893	-0.421631	0.662212	-0.419105	-0.278146	-0.555393
53006		8.178518	-2.406933	4.831981	-0.001716	0.001120	-0.005020	-0.662109	0.529297	-0.424805	0.662193	-0.419000	-0.278193	-0.555471
53007		8.173702	-2.421790	4.819101	-0.002485	0.002376	-0.004662	-0.669434	0.524414	-0.415527	0.662278	-0.418963	-0.278061	-0.555463
53008		8.207049	-2.420874	4.806415	-0.000237	0.003621	-0.003453	-0.664307	0.520508	-0.419922	0.662261	-0.418991	-0.278063	-0.555462
53009		8.189355	-2.432185	4.827090	-0.002248	0.002409	-0.003318	-0.659912	0.531494	-0.417236	0.662276	-0.418949	-0.278036	-0.555490
53010		8.182322	-2.414566	4.809935	0.000060	0.002298	-0.006501	-0.665039	0.517578	-0.417480	0.662342	-0.418990	-0.277922	-0.555437
53011		8.173552	-2.419807	4.820350	-0.004125	0.002702	-0.004663	-0.667480	0.519775	-0.422119	0.662313	-0.418961	-0.277929	-0.555490
53012		8.192810	-2.411424	4.820392	-0.000442	-0.000747	-0.004886	-0.669922	0.522461	-0.416748	0.662304	-0.418899	-0.277956	-0.555533
53013		8.169990	-2.409174	4.843478	-0.002822	0.000157	-0.006725	-0.666260	0.529785	-0.412109	0.662250	-0.418923	-0.277992	-0.555562
53014		8.198743	-2.423414	4.817401	-0.001714	0.001119	-0.005022	-0.663574	0.522217	-0.415771	0.662240	-0.419036	-0.277954	-0.555508
53015		8.193250	-2.409785	4.820465	-0.004391	0.003346	-0.003812	-0.665771	0.523926	-0.414551	0.662237	-0.419056	-0.277911	-0.555518
53016		8.185836	-2.419236	4.851309	-0.001642	0.003982	-0.002109	-0.670166	0.525391	-0.412598	0.662239	-0.419089	-0.277881	-0.555505
53017		8.177643	-2.427098	4.798009	-0.007437	0.004034	-0.002468	-0.663574	0.516846	-0.414795	0.662189	-0.419190	-0.277855	-0.555502
53018		8.179097	-2.430714	4.818567	-0.000840	0.002048	-0.004664	-0.664062	0.517090	-0.422607	0.662166	-0.419164	-0.277884	-0.555534
53019		8.178394	-2.401798	4.834746	-0.006031	0.003673	-0.003814	-0.660400	0.518799	-0.419434	0.662170	-0.419082	-0.277850	-0.555608
53020		8.193230	-2.437567	4.806086	-0.003486	0.003596	-0.005652	-0.661133	0.525879	-0.414795	0.662188	-0.419023	-0.277807	-0.555653
53021		8.205927	-2.440650	4.773102	-0.001844	0.003270	-0.005652	-0.662354	0.517578	-0.423096	0.662209	-0.419057	-0.277742	-0.555635
53022		8.174295	-2.390798	4.858940	-0.001577	0.002625	-0.006504	-0.661865	0.509033	-0.418213	0.662227	-0.418948	-0.277728	-0.555702
53023		8.182203	-2.409091	4.812883	-0.001844	0.003270	-0.005652	-0.662354	0.514648	-0.419678	0.662194	-0.418834	-0.277781	-0.555801
53024		8.176567	-2.395515	4.816151	-0.002779	0.003697	-0.001617	-0.666504	0.527588	-0.409912	0.662206	-0.418758	-0.277772	-0.555848
53025		8.192176	-2.406545	4.823906	-0.000502	0.004266	-0.002603	-0.662109	0.517822	-0.414307	0.662191	-0.418864	-0.277738	-0.555803
53026		8.172127	-2.385919	4.840220	-0.000802	0.001933	0.002555	-0.677246	0.526855	-0.410400	0.662210	-0.418872	-0.277725	-0.555781
53027		8.178153	-2.428066	4.821504	-0.001641	0.000326	-0.000001	-0.668457	0.519043	-0.423828	0.662121	-0.419015	-0.277776	-0.555754
53028		8.200641	-2.401005	4.814165	-0.001106	-0.000963	-0.001704	-0.663086	0.522705	-0.420166	0.662130	-0.418945	-0.277801	-0.555783
53029		8.171208	-2.410919	4.803956	-0.001005	0.001221	-0.000988	-0.668457	0.527344	-0.423828	0.662175	-0.418922	-0.277758	-0.555769
53030		8.188553	-2.425734	4.831695	-0.001742	0.001798	-0.002827	-0.666992	0.521240	-0.416992	0.662211	-0.418899	-0.277710	-0.555768
53031		8.168631	-2.404845	4.847920	-0.003516	0.004274	-0.003457	-0.666260	0.525146	-0.417480	0.662192	-0.418900	-0.277694	-0.555797
53032		8.186773	-2.421331	4.812100	-0.001842	0.003270	-0.005653	-0.661377	0.525146	-0.418213	0.662189	-0.418910	-0.277666	-0.555807
53033		8.181781	-2.436305	4.799504	-0.006160	0.005821	-0.004446	-0.657227	0.523926	-0.415527	0.662217	-0.418920	-0.277566	-0.555816
53034		8.198326	-2.422138	4.843580	0.000437	0.003839	-0.006639	-0.666748	0.524658	-0.417725	0.662261	-0.418909	-0.277506	-0.555803
53035		8.155637	-2.372652	4.835053	-0.004487	0.001161	-0.004534	-0.667969	0.514893	-0.412842	0.662243	-0.418942	-0.277483	-0.555810
53036		8.197523	-2.445808	4.807816	-0.003079	0.004457	-0.007988	-0.672363	0.526123	-0.412354	0.662154	-0.418930	-0.277548	-0.555893
53037		8.197520	-2.444991	4.808236	-0.002074	0.003236	-0.007000	-0.667725	0.523193	-0.412109	0.662082	-0.419005	-0.277572	-0.555910
53038		8.170566	-2.406658	4.807183	-0.000734	0.004232	-0.003949	-0.670410	0.511963	-0.416260	0.662050	-0.419050	-0.277575	-0.555913
53039		8.191139	-2.401955	4.827954	-0.001337	0.002659	-0.005161	-0.668701	0.527344	-0.420166	0.661977	-0.418992	-0.277674	-0.555994
53040		8.180771	-2.403524	4.818099	-0.001103	0.002693	-0.003815	-0.668213	0.515137	-0.413086	0.661989	-0.418997	-0.277637	-0.555995
53041		8.182102	-2.407260	4.838780	-0.002310	0.003763	0.001073	-0.666748	0.521973	-0.415527	0.661951	-0.419004	-0.277672	-0.556017
53042		8.180355	-2.403837	4.818649	-0.004922	0.000976	-0.000005	-0.665039	0.523682	-0.417480	0.661935	-0.419054	-0.277649	-0.556010
53043		8.185820	-2.417359	4.815716	-0.001641	0.000325	-0.000002	-0.661621	0.519287	-0.413574	0.661954	-0.419076	-0.277618	-0.555986
53044		8.189748	-2.426933	4.792559	-0.002644	0.001546	-0.000990	-0.674072	0.527588	-0.412109	0.661955	-0.419100	-0.277598	-0.555977
53045		8.184172	-2.413510	4.795631	-0.000600	0.002083	-0.003321	-0.664551	0.528320	-0.418701	0.661894	-0.419191	-0.277616	-0.555971
53046		8.195947	-2.414947	4.826402	-0.002509	0.003052	-0.002471	-0.659424	0.520752	-0.420166	0.661925	-0.419216	-0.277536	-0.555956
53047		8.185457	-2.416880	4.816574	-0.003010	0.003662	-0.002965	-0.666016	0.527832	-0.413330	0.661970	-0.419169	-0.277471	-0.555970
53048		8.186799	-2.420494	4.837292	-0.003512	0.004272	-0.003460	-0.664307	0.526611	-0.415283	0.661959	-0.419240	-0.277412	-0.555960
53049		8.176252	-2.422484	4.827532	-0.002776	0.003696	-0.001620	-0.665283	0.519531	-0.418701	0.661972	-0.419284	-0.277347	-0.555943
53050		8.179368	-2.403204	4.820639	-0.002741	0.003018	-0.003818	-0.662109	0.521973	-0.419678	0.661967	-0.419251	-0.277341	-0.555976
53051		8.179341	-2.403086	4.820744	-0.005388	0.000908	-0.002699	-0.666260	0.520508	-0.417480	0.661981	-0.419248	-0.277292	-0.555986
53052		8.191891	-2.433463	4.835272	-0.002643	0.001546	-0.000991	-0.662598	0.523926	-0.422363	0.661977	-0.419247	-0.277288	-0.555994
53053		8.175339	-2.393811	4.843864	-0.003883	-0.000923	-0.001217	-0.669189	0.526123	-0.418213	0.662014	-0.419235	-0.277236	-0.555985
53054		8.174627	-2.418833	4.807314	-0.003649	-0.000890	0.000129	-0.665283	0.520996	-0.419678	0.662008	-0.419285	-0.277217	-0.555965
53055		8.206321	-2.441454	4.821756	-0.003782	0.001260	-0.000499	-0.670166	0.516602	-0.406738	0.662017	-0.419274	-0.277194	-0.555973
53056		8.193707	-2.411311	4.807221	-0.003513	0.000616	-0.001351	-0.665771	0.526123	-0.410156	0.661922	-0.419358	-0.277268	-0.555986
53057		8.195877	-2.443904	4.811588	-0.006425	0.002805	-0.001490	-0.665039	0.521240	-0.410156	0.661887	-0.419468	-0.277217	-0.555971
53058		8.209318	-2.422539	4.814885	0.000909	0.003909	-0.003947	-0.661865	0.520752	-0.417480	0.661861	-0.419493	-0.277231	-0.555976
53059		8.184401	-2.416905	4.818355	-0.002908	0.005845	-0.002248	-0.654297	0.530762	-0.414307	0.661885	-0.419462	-0.277179	-0.555995
53060		8.204782	-2.412403	4.839343	0.000909	0.003909	-0.003947	-0.671143	0.518799	-0.421143	0.661956	-0.419494	-0.277055	-0.555948
53061		8.176645	-2.425774	4.850008	-0.000999	0.004877	-0.003098	-0.661865	0.523926	-0.421143	0.661944	-0.419424	-0.277084	-0.556002
53062		8.183742	-2.415606	4.820125	-0.000462	0.003590	-0.004802	-0.664062	0.520752	-0.412842	0.661982	-0.419373	-0.277038	-0.556019
53063		8.176383	-2.424770	4.850952	-0.001099	0.002694	-0.003816	-0.657715	0.521240	-0.416992	0.661962	-0.419388	-0.277043	-0.556028
53064		8.174139	-2.392306	4.846632	-0.005521	-0.000600	-0.001221	-0.662354	0.526855	-0.424316	0.661985	-0.419408	-0.276988	-0.556013
53065		8.183904	-2.414915	4.820197	-0.002438	-0.001958	-0.004761	-0.662354	0.522705	-0.411621	0.662022	-0.419384	-0.276942	-0.556010
53066		8.164145	-2.394276	4.835951	-0.003548	0.001292	0.000846	-0.665527	0.526855	-0.417480	0.662019	-0.419449	-0.276909	-0.555980
53067		8.186339	-2.447588	4.824086	-0.003749	-0.003074	-0.000590	-0.660645	0.516357	-0.410645	0.662020	-0.419508	-0.276885	-0.555947
53068		8.175492	-2.421523	4.829299	-0.006795	-0.002392	0.000750	-0.668457	0.523438	-0.424072	0.661986	-0.419575	-0.276890	-0.555934
53069		8.214609	-2.434815	4.812884	-0.005424	-0.002073	0.001605	-0.672363	0.522217	-0.406738	0.661999	-0.419571	-0.276869	-0.555932
53070		8.210537	-2.425786	4.835994	-0.003913	0.003409	-0.001129	-0.662598	0.526367	-0.407227	0.661916	-0.419670	-0.276900	-0.555941
53071		8.186363	-2.449088	4.823285	-0.000265	0.004300	-0.001256	-0.662354	0.528076	-0.414307	0.661909	-0.419750	-0.276859	-0.555909
53072		8.192575	-2.410548	4.809534	-0.000128	0.005807	-0.002737	-0.672119	0.521484	-0.414795	0.661936	-0.419768	-0.276790	-0.555899
53073		8.190472	-2.433300	4.837757	-0.002405	0.005234	-0.001754	-0.662109	0.520508	-0.408447	0.661899	-0.419772	-0.276809	-0.555929
53074		8.168033	-2.433127	4.797819	0.002186	0.005703	-0.005918	-0.663574	0.517822	-0.423096	0.661878	-0.419775	-0.276822	-0.555946
53075		8.174149	-2.420977	4.831847	-0.001366	0.003337	-0.002965	-0.671875	0.513184	-0.416992	0.661908	-0.419681	-0.276818	-0.555983
53076		8.178739	-2.405504	4.845333	-0.002773	0.003694	-0.001621	-0.666016	0.530029	-0.412598	0.661861	-0.419632	-0.276888	-0.556041
53077		8.172287	-2.417055	4.812185	-0.002641	0.001545	-0.000993	-0.660156	0.521484	-0.419189	0.661852	-0.419719	-0.276834	-0.556013
53078		8.191321	-2.409078	4.812405	-0.001503	0.001831	-0.001484	-0.663574	0.521240	-0.415771	0.661891	-0.419686	-0.276798	-0.556010
53079		8.192762	-2.412906	4.832826	-0.002140	0.000934	-0.000498	-0.668457	0.518066	-0.412598	0.661896	-0.419694	-0.276787	-0.556003
53080		8.203897	-2.439283	4.826977	-0.001834	-0.000385	-0.003550	-0.666504	0.520996	-0.418945	0.661839	-0.419714	-0.276847	-0.556026
53081		8.193496	-2.441359	4.816933	-0.002309	0.003760	0.001072	-0.660156	0.523682	-0.425049	0.661859	-0.419689	-0.276826	-0.556031
53082		8.183740	-2.418569	4.843427	0.000543	0.002371	-0.003813	-0.662354	0.522949	-0.423828	0.661930	-0.419601	-0.276785	-0.556034
53083		8.177275	-2.429784	4.810477	-0.001903	0.004624	-0.001261	-0.660156	0.520752	-0.416016	0.661989	-0.419532	-0.276730	-0.556043
53084		8.177011	-2.429631	4.811003	0.000005	0.003657	-0.002109	-0.663330	0.520020	-0.414062	0.662016	-0.419506	-0.276706	-0.556042
53085		8.187090	-2.427504	4.821616	-0.002040	0.003117	0.000220	-0.667725	0.521973	-0.414307	0.662017	-0.419515	-0.276691	-0.556042
53086		8.191572	-2.412267	4.835162	-0.001902	0.004624	-0.001261	-0.665527	0.525146	-0.415771	0.661998	-0.419528	-0.276683	-0.556059
53087		8.186511	-2.427679	4.822513	-0.002040	0.003117	0.000219	-0.666504	0.522217	-0.421631	0.662007	-0.419553	-0.276646	-0.556048
53088		8.170442	-2.416637	4.815526	-0.001771	0.002474	-0.000633	-0.663574	0.530029	-0.419434	0.662030	-0.419516	-0.276632	-0.556056
53089		8.186097	-2.428180	4.822962	-0.004955	0.001647	0.002186	-0.672852	0.517334	-0.410889	0.662072	-0.419561	-0.276543	-0.556016
53090		8.175660	-2.430513	4.812852	0.000638	0.000897	-0.000986	-0.661865	0.523193	-0.413330	0.662002	-0.419586	-0.276624	-0.556040
53091		8.175516	-2.430596	4.813055	-0.003178	0.002830	0.000710	-0.660889	0.529785	-0.407959	0.662010	-0.419623	-0.276579	-0.556024
53092		8.176017	-2.406153	4.849602	-0.001038	0.001896	0.001209	-0.659424	0.523682	-0.417969	0.662017	-0.419728	-0.276511	-0.555970
53093		8.195679	-2.427153	4.833866	-0.001945	0.001642	0.003047	-0.670898	0.523438	-0.418457	0.662072	-0.419730	-0.276452	-0.555932
53094		8.185232	-2.429849	4.823590	-0.002684	-0.001437	0.003314	-0.662354	0.513672	-0.418457	0.662065	-0.419760	-0.276464	-0.555913
53095		8.181089	-2.421236	4.846572	-0.003221	-0.000151	0.005018	-0.670410	0.522461	-0.405518	0.662091	-0.419729	-0.276476	-0.555899
53096		8.180796	-2.422226	4.846572	-0.003120	0.002031	0.005736	-0.668945	0.519531	-0.423584	0.662037	-0.419847	-0.276473	-0.555876
53097		8.175690	-2.438760	4.833420	-0.005766	-0.000081	0.006850	-0.664062	0.527344	-0.427246	0.662069	-0.419830	-0.276460	-0.555857
53098		8.176154	-2.468231	4.817448	0.000564	0.002247	0.003412	-0.670898	0.521973	-0.412109	0.662166	-0.419766	-0.276405	-0.555817
53099		8.173495	-2.436522	4.813492	-0.004620	0.003862	0.004251	-0.666504	0.522705	-0.419922	0.662133	-0.419825	-0.276390	-0.555821
53100		8.181782	-2.457770	4.851428	-0.003603	0.002091	-0.004183	-0.659424	0.524414	-0.411621	0.662122	-0.419803	-0.276388	-0.555850
53101		8.180256	-2.453580	4.831355	-0.001094	0.002696	-0.003817	-0.664795	0.519531	-0.406494	0.662119	-0.419830	-0.276358	-0.555848
53102		8.167660	-2.422977	4.817059	-0.004741	0.001804	-0.003693	-0.654785	0.522949	-0.416504	0.662041	-0.419904	-0.276371	-0.555879
53103		8.174710	-2.439870	4.834517	-0.003102	0.001480	-0.003689	-0.671387	0.527832	-0.419434	0.662075	-0.419895	-0.276322	-0.555869
53104		8.173332	-2.435643	4.814213	-0.002564	0.000195	-0.005393	-0.658447	0.521729	-0.414795	0.662041	-0.419909	-0.276333	-0.555894
53105		8.187670	-2.442718	4.801357	-0.002769	0.003695	-0.001623	-0.667969	0.520996	-0.414062	0.662062	-0.419905	-0.276291	-0.555893
53106		8.194543	-2.459490	4.819180	-0.000455	0.003593	-0.004802	-0.662842	0.533203	-0.414551	0.662025	-0.419895	-0.276318	-0.555932
53107		8.186439	-2.413481	4.818502	-0.002530	0.007384	-0.002385	-0.674072	0.520996	-0.419434	0.662045	-0.419935	-0.276214	-0.555928
53108		8.182900	-2.432180	4.826372	-0.000685	0.003561	-0.006150	-0.661133	0.520996	-0.412598	0.662000	-0.419890	-0.276269	-0.555989
53109		8.184298	-2.435559	4.847061	-0.002500	0.003052	-0.002476	-0.665527	0.522949	-0.409668	0.661991	-0.419902	-0.276252	-0.555999
53110		8.182604	-2.431559	4.827186	-0.002130	0.004591	-0.002609	-0.658447	0.525391	-0.419678	0.661953	-0.419942	-0.276238	-0.556022
53111		8.175466	-2.414112	4.810156	-0.000323	0.001443	-0.004175	-0.665771	0.519775	-0.415283	0.661994	-0.419910	-0.276206	-0.556012
53112		8.187999	-2.444097	4.824885	-0.002499	0.003051	-0.002476	-0.662354	0.524414	-0.416748	0.661975	-0.419902	-0.276215	-0.556037
53113		8.182380	-2.430677	4.828010	-0.001230	0.001188	-0.002338	-0.669922	0.529297	-0.415527	0.661986	-0.419903	-0.276198	-0.556031
53114		8.185661	-2.411317	4.820907	-0.000730	0.000578	-0.001843	-0.660889	0.524170	-0.413574	0.661965	-0.419947	-0.276190	-0.556027
53115		8.186314	-2.440111	4.804994	-0.004084	0.002574	0.002545	-0.660400	0.522461	-0.422607	0.661983	-0.419989	-0.276132	-0.556003
53116		8.173108	-2.437020	4.838661	-0.003537	0.004947	-0.001268	-0.665039	0.524902	-0.416016	0.662035	-0.419932	-0.276081	-0.556009
53117		8.176811	-2.446734	4.815896	-0.001576	0.003180	0.002913	-0.660645	0.525391	-0.415527	0.662057	-0.419948	-0.276044	-0.555989
53118		8.174969	-2.443237	4.796030	-0.001168	0.004045	0.000580	-0.664795	0.524170	-0.421387	0.662090	-0.419953	-0.275993	-0.555971
53119		8.158466	-2.459083	4.837019	-0.001168	0.004045	0.000580	-0.669189	0.526123	-0.417480	0.662131	-0.419915	-0.275963	-0.555967
53120		8.171758	-2.437961	4.840466	-0.002267	0.003084	-0.001130	-0.657227	0.522217	-0.415527	0.662121	-0.419926	-0.275949	-0.555977
53121		8.181188	-2.460638	4.814635	-0.001768	0.002473	-0.000634	-0.662842	0.520020	-0.416016	0.662153	-0.419920	-0.275912	-0.555962
53122		8.178552	-2.454831	4.858357	-0.002190	0.001735	-0.005528	-0.662109	0.525391	-0.418701	0.662132	-0.419902	-0.275929	-0.555992
53123		8.170077	-2.433453	4.820841	-0.004096	0.002700	-0.004683	-0.659180	0.522217	-0.414795	0.662135	-0.419897	-0.275897	-0.556009
53124		8.185880	-2.444332	4.828360	-0.002228	0.002409	-0.003329	-0.664062	0.523926	-0.417480	0.662140	-0.419895	-0.275876	-0.556014
53125		8.176897	-2.449753	4.838978	-0.001079	0.006354	-0.005928	-0.663574	0.522705	-0.421143	0.662138	-0.419858	-0.275858	-0.556052
53126		8.176742	-2.448812	4.839716	-0.000770	0.005037	-0.008980	-0.675781	0.527344	-0.418213	0.662139	-0.419787	-0.275862	-0.556104
53127		8.155377	-2.423523	4.835712	-0.004055	0.002025	-0.006884	-0.666260	0.535645	-0.414551	0.662067	-0.419809	-0.275884	-0.556161
53128		8.186598	-2.469880	4.814010	-0.003286	0.000773	-0.007241	-0.665527	0.524658	-0.410400	0.662034	-0.419883	-0.275840	-0.556167
53129		8.171008	-2.457563	4.806857	-0.001327	0.002791	-0.012396	-0.659668	0.523682	-0.411133	0.661956	-0.419903	-0.275867	-0.556231
53130		8.177392	-2.444649	4.840723	-0.002365	0.004685	-0.011188	-0.663818	0.521240	-0.417969	0.661912	-0.419907	-0.275855	-0.556286
53131		8.200666	-2.444530	4.818269	-0.000086	0.005261	-0.012168	-0.664062	0.525635	-0.417969	0.661885	-0.419840	-0.275880	-0.556357
53132		8.180818	-2.422528	4.834748	-0.001364	0.003465	-0.010198	-0.673828	0.518311	-0.416260	0.661863	-0.419813	-0.275879	-0.556404
53133		8.167317	-2.442615	4.832222	-0.002403	0.005359	-0.008990	-0.665771	0.530762	-0.405762	0.661787	-0.419777	-0.275934	-0.556494
53134		8.186339	-2.433666	4.832968	-0.001674	0.004781	-0.007147	-0.660156	0.525879	-0.422607	0.661722	-0.419863	-0.275896	-0.556526
53135		8.189270	-2.440554	4.873993	-0.003410	0.002921	-0.007873	-0.662354	0.521973	-0.412842	0.661741	-0.419822	-0.275860	-0.556552
53136		8.161745	-2.427106	4.836282	-0.004460	0.001157	-0.004555	-0.660889	0.529785	-0.418945	0.661708	-0.419854	-0.275850	-0.556572
53137		8.186669	-2.431794	4.833351	-0.001511	-0.001700	-0.006609	-0.659912	0.520752	-0.420166	0.661713	-0.419869	-0.275829	-0.556565
53138		8.191595	-2.416156	4.846282	-0.003005	0.000001	-0.000866	-0.656982	0.518066	-0.412598	0.661742	-0.419849	-0.275813	-0.556553
53139		8.175144	-2.429975	4.802464	-0.003915	-0.000255	0.000971	-0.668457	0.530762	-0.417480	0.661751	-0.419876	-0.275794	-0.556532
53140		8.167792	-2.440156	4.832661	-0.002277	-0.000577	0.000978	-0.665039	0.523682	-0.412842	0.661755	-0.419928	-0.275764	-0.556503
53141		8.168681	-2.468753	4.816541	-0.000727	0.000578	-0.001844	-0.671143	0.517090	-0.410156	0.661738	-0.419956	-0.275768	-0.556500
53142		8.182159	-2.447352	4.819753	-0.001996	0.002439	-0.001984	-0.661133	0.529297	-0.415527	0.661676	-0.419978	-0.275814	-0.556535
53143		8.186688	-2.431831	4.833301	-0.000488	0.004268	-0.002606	-0.667236	0.521240	-0.418701	0.661699	-0.419988	-0.275756	-0.556528
53144		8.167459	-2.439732	4.833438	-0.004002	0.001221	-0.001859	-0.665771	0.527100	-0.409668	0.661688	-0.419983	-0.275761	-0.556543
53145		8.172005	-2.424433	4.846840	-0.003763	0.004910	-0.002620	-0.658447	0.523193	-0.419922	0.661653	-0.420041	-0.275715	-0.556562
53146		8.191849	-2.444627	4.831308	-0.000814	0.002054	-0.004674	-0.663818	0.523193	-0.416992	0.661685	-0.420000	-0.275697	-0.556565
53147		8.167083	-2.439126	4.834378	-0.004630	0.003980	-0.002984	-0.669678	0.519531	-0.416260	0.661680	-0.420000	-0.275665	-0.556586
53148		8.186007	-2.430902	4.834920	-0.003719	0.004236	-0.004822	-0.662354	0.523193	-0.414062	0.661640	-0.419984	-0.275682	-0.556637
53149		8.181228	-2.445952	4.822044	-0.005226	0.002408	-0.004201	-0.660400	0.515625	-0.416992	0.661617	-0.420010	-0.275655	-0.556659
53150		8.178339	-2.438008	4.781492	-0.004456	0.001156	-0.004558	-0.660156	0.523926	-0.411377	0.661606	-0.419982	-0.275671	-0.556684
53151		8.198946	-2.433647	4.801962	-0.004727	0.001798	-0.003705	-0.658936	0.525146	-0.424316	0.661584	-0.420027	-0.275637	-0.556695
53152		8.177150	-2.436143	4.845417	-0.004998	0.002439	-0.002853	-0.666016	0.527832	-0.421875	0.661632	-0.419991	-0.275585	-0.556690
53153		8.175677	-2.431975	4.825289	-0.002677	0.002344	-0.006032	-0.659912	0.512695	-0.418457	0.661636	-0.419970	-0.275567	-0.556710
53154		8.182709	-2.448645	4.842905	-0.000357	0.002118	-0.001977	-0.668701	0.528564	-0.418945	0.661656	-0.419902	-0.275598	-0.556722
53155		8.160669	-2.448877	4.802224	-0.003003	0.000000	-0.000868	-0.664062	0.521973	-0.417969	0.661653	-0.419931	-0.275581	-0.556712
53156		8.175649	-2.431444	4.825603	-0.001225	0.001188	-0.002342	-0.663574	0.515625	-0.413086	0.661659	-0.419916	-0.275585	-0.556714
53157		8.198536	-2.459428	4.850455	-0.002222	0.002407	-0.003334	-0.664062	0.526611	-0.416992	0.661630	-0.419905	-0.275607	-0.556746
53158		8.179621	-2.440227	4.802936	-0.002351	0.004557	-0.003963	-0.667236	0.519287	-0.419678	0.661634	-0.419902	-0.275572	-0.556761
53159		8.182270	-2.447523	4.844213	-0.000844	0.006386	-0.004584	-0.659424	0.521973	-0.411621	0.661634	-0.419838	-0.275579	-0.556806
53160		8.180733	-2.442852	4.824455	0.000372	0.001671	-0.007366	-0.665771	0.527344	-0.419189	0.661613	-0.419838	-0.275590	-0.556826
53161		8.198392	-2.430249	4.804627	-0.003217	0.003626	-0.004328	-0.667236	0.527344	-0.416260	0.661614	-0.419835	-0.275559	-0.556842
53162		8.176040	-2.456988	4.811917	-0.003172	0.002953	-0.006530	-0.663330	0.521729	-0.409424	0.661583	-0.419849	-0.275545	-0.556875
53163		8.199804	-2.433165	4.825484	-0.004084	0.002695	-0.004693	-0.663330	0.521729	-0.413818	0.661534	-0.419892	-0.275532	-0.556907
53164		8.175076	-2.427782	4.828417	-0.003358	0.002117	-0.002847	-0.667725	0.522217	-0.412354	0.661517	-0.419909	-0.275520	-0.556921
53165		8.175017	-2.427506	4.828655	-0.001081	0.002696	-0.003824	-0.661133	0.520752	-0.412842	0.661479	-0.419924	-0.275530	-0.556949
53166		8.199630	-2.432412	4.826158	-0.001495	0.001829	-0.001490	-0.662598	0.523682	-0.416992	0.661477	-0.419934	-0.275521	-0.556948
53167		8.190814	-2.438235	4.836289	-0.002090	0.000257	-0.002707	-0.668213	0.519043	-0.414307	0.661481	-0.419940	-0.275515	-0.556942
53168		8.182099	-2.443936	4.846312	-0.000453	-0.000063	-0.002699	-0.663818	0.519043	-0.415771	0.661449	-0.419942	-0.275556	-0.556959
53169		8.180618	-2.439916	4.826134	-0.001767	0.002470	-0.000637	-0.662354	0.526855	-0.416504	0.661454	-0.419931	-0.275556	-0.556962
53170		8.166012	-2.432681	4.839432	-0.004626	0.003977	-0.002989	-0.665283	0.522217	-0.418945	0.661458	-0.419947	-0.275503	-0.556970
53171		8.178952	-2.435605	4.806420	0.001100	0.001094	-0.005521	-0.658936	0.529053	-0.416504	0.661460	-0.419909	-0.275533	-0.556982
53172		8.194819	-2.446163	4.814027	-0.001352	0.003337	-0.002972	-0.666992	0.524414	-0.414551	0.661491	-0.419915	-0.275480	-0.556966
53173		8.170040	-2.440544	4.817163	-0.001804	0.003274	-0.005671	-0.666260	0.522217	-0.420654	0.661460	-0.419920	-0.275478	-0.557000
53174		8.185807	-2.451114	4.824934	-0.000711	0.004236	-0.003957	-0.661621	0.520020	-0.417725	0.661473	-0.419873	-0.275480	-0.557020
53175		8.159958	-2.417130	4.844288	-0.001624	0.003978	-0.002119	-0.663330	0.521240	-0.412109	0.661493	-0.419841	-0.275468	-0.557026
53176		8.185371	-2.450904	4.825781	-0.002679	0.002211	0.001200	-0.665283	0.521484	-0.415039	0.661488	-0.419872	-0.275445	-0.557020
53177		8.169937	-2.415227	4.854916	-0.003951	0.000545	-0.004067	-0.666992	0.526367	-0.419922	0.661456	-0.419891	-0.275451	-0.557041
53178		8.168597	-2.411344	4.834440	0.000355	-0.002118	0.001978	-0.656494	0.526367	-0.402832	0.661484	-0.419901	-0.275456	-0.556998
53179		8.166380	-2.459540	4.825147	-0.006190	-0.000840	0.001943	-0.662842	0.526123	-0.409180	0.661452	-0.420035	-0.275385	-0.556969
53180		8.185459	-2.451940	4.825105	-0.001138	-0.000290	0.000488	-0.667236	0.519775	-0.413818	0.661437	-0.420101	-0.275362	-0.556949
53181		8.179663	-2.438880	4.828276	-0.001670	0.004650	0.000083	-0.669922	0.524902	-0.418701	0.661428	-0.420097	-0.275356	-0.556965
53182		8.184981	-2.452099	4.825835	-0.001125	0.003369	-0.001622	-0.663574	0.537842	-0.414307	0.661428	-0.420085	-0.275352	-0.556977
53183		8.179196	-2.438674	4.829172	-0.001351	0.003337	-0.002972	-0.664062	0.529541	-0.412598	0.661435	-0.420140	-0.275274	-0.556965
53184		8.170143	-2.444461	4.839715	-0.004255	0.005516	-0.003122	-0.668213	0.526123	-0.419922	0.661420	-0.420180	-0.275209	-0.556985
53185		8.165363	-2.459412	4.826934	-0.002668	0.002344	-0.006037	-0.656250	0.523682	-0.417480	0.661404	-0.420166	-0.275210	-0.557014
53186		8.158297	-2.441855	4.809824	-0.002714	0.003016	-0.003835	-0.664307	0.520996	-0.414551	0.661433	-0.420148	-0.275175	-0.557011
53187		8.173087	-2.424174	4.833595	-0.001350	0.003337	-0.002973	-0.667725	0.522461	-0.417480	0.661425	-0.420138	-0.275175	-0.557028
53188		8.188563	-2.459500	4.804583	-0.003404	-0.000737	-0.005774	-0.667725	0.526367	-0.425781	0.661388	-0.420144	-0.275203	-0.557053
53189		8.180332	-2.440557	4.850996	-0.003354	0.002116	-0.002850	-0.667969	0.524658	-0.416748	0.661413	-0.420108	-0.275192	-0.557056
53190		8.172770	-2.447765	4.797446	-0.002939	0.002984	-0.005185	-0.675537	0.530273	-0.407227	0.661388	-0.420108	-0.275189	-0.557087
53191		8.190001	-2.462444	4.825367	-0.004847	0.003944	-0.004342	-0.663330	0.523926	-0.424072	0.661295	-0.420199	-0.275163	-0.557141
53192		8.209006	-2.453890	4.825935	-0.000163	0.002956	-0.005663	-0.660156	0.521484	-0.412842	0.661328	-0.420133	-0.275169	-0.557150
53193		8.189898	-2.461444	4.826052	-0.002215	0.002406	-0.003339	-0.663330	0.524902	-0.413818	0.661322	-0.420139	-0.275156	-0.557159
53194		8.172908	-2.421673	4.835151	-0.004621	0.003975	-0.002993	-0.660400	0.525146	-0.415771	0.661308	-0.420162	-0.275117	-0.557177
53195		8.188164	-2.457030	4.806528	-0.001430	0.004815	-0.005805	-0.666260	0.517578	-0.416016	0.661314	-0.420143	-0.275090	-0.557197
53196		8.169370	-2.440090	4.843225	-0.002985	0.003656	-0.002983	-0.665527	0.521729	-0.415771	0.661298	-0.420122	-0.275102	-0.557226
53197		8.162152	-2.422754	4.826253	-0.001348	0.003337	-0.002974	-0.663818	0.528564	-0.411377	0.661292	-0.420110	-0.275103	-0.557242
53198		8.186723	-2.427832	4.823766	-0.004266	0.001856	-0.001015	-0.666992	0.525879	-0.425537	0.661274	-0.420173	-0.275054	-0.557241
53199		8.173268	-2.449274	4.820550	-0.004362	-0.000325	-0.001736	-0.667236	0.527100	-0.411865	0.661296	-0.420157	-0.275049	-0.557229
53200		8.182083	-2.443361	4.810479	-0.003128	0.002146	-0.001502	-0.670410	0.520508	-0.419922	0.661269	-0.420205	-0.275022	-0.557238
53201		8.182491	-2.418873	4.846891	-0.002501	-0.000613	-0.000376	-0.665039	0.522705	-0.409912	0.661262	-0.420199	-0.275052	-0.557236
53202		8.173320	-2.449774	4.820208	-0.004281	-0.001803	0.001095	-0.667480	0.526123	-0.420410	0.661230	-0.420271	-0.275044	-0.557224
53203		8.174739	-2.454255	4.840233	-0.008178	0.001593	-0.000051	-0.657959	0.522217	-0.419434	0.661227	-0.420300	-0.275003	-0.557225
53204		8.170069	-2.470008	4.826875	-0.004136	-0.000294	-0.000387	-0.665039	0.523193	-0.414062	0.661262	-0.420297	-0.274983	-0.557196
53205		8.171839	-2.446913	4.799466	-0.001716	0.001797	-0.002842	-0.664307	0.524414	-0.418945	0.661248	-0.420306	-0.274983	-0.557206
53206		8.183509	-2.448473	4.830169	-0.003576	0.002085	-0.004203	-0.661865	0.531982	-0.423096	0.661248	-0.420297	-0.274974	-0.557218
53207		8.173601	-2.425840	4.856562	-0.004121	0.003365	-0.002497	-0.660645	0.527832	-0.421143	0.661290	-0.420290	-0.274915	-0.557202
53208		8.183166	-2.448219	4.830880	-0.001252	0.005518	-0.002251	-0.664062	0.528564	-0.416992	0.661341	-0.420253	-0.274869	-0.557192
53209		8.174081	-2.454143	4.841399	-0.001764	0.002468	-0.000639	-0.663086	0.519775	-0.416992	0.661360	-0.420265	-0.274837	-0.557176
53210		8.163769	-2.456443	4.831141	-0.007630	0.000311	-0.001760	-0.663086	0.538330	-0.423828	0.661342	-0.420287	-0.274824	-0.557187
53211		8.174059	-2.454608	4.841200	-0.002997	-0.000004	-0.000875	-0.668457	0.528320	-0.415039	0.661393	-0.420311	-0.274765	-0.557138
53212		8.168525	-2.441446	4.843967	-0.004583	-0.000356	-0.003089	-0.662354	0.524170	-0.409424	0.661360	-0.420358	-0.274756	-0.557146
53213		8.172824	-2.450648	4.820606	-0.004215	0.001184	-0.003220	-0.661865	0.522949	-0.417725	0.661326	-0.420407	-0.274739	-0.557158
53214		8.169582	-2.469699	4.827857	-0.004841	0.003943	-0.004346	-0.661133	0.529785	-0.412109	0.661325	-0.420395	-0.274714	-0.557180
53215		8.163884	-2.456338	4.830999	-0.004711	0.001794	-0.003718	-0.662109	0.522461	-0.416504	0.661310	-0.420444	-0.274671	-0.557182
53216		8.174271	-2.454111	4.841095	-0.003812	-0.001606	-0.003446	-0.663330	0.518311	-0.415283	0.661298	-0.420459	-0.274680	-0.557180
53217		8.178586	-2.463161	4.817786	-0.002211	0.002407	-0.003340	-0.662354	0.526855	-0.422363	0.661287	-0.420440	-0.274693	-0.557201
53218		8.206578	-2.448489	4.808098	-0.001615	0.000457	-0.007251	-0.663574	0.524902	-0.420654	0.661298	-0.420408	-0.274702	-0.557208
53219		8.189022	-2.459737	4.828409	-0.002787	0.004495	-0.006670	-0.657959	0.527832	-0.420166	0.661303	-0.420369	-0.274691	-0.557236
53220		8.172959	-2.448033	4.821705	0.000160	0.005170	-0.003591	-0.661377	0.528320	-0.422607	0.661357	-0.420325	-0.274656	-0.557223
53221		8.163983	-2.453434	4.832307	0.001701	0.002672	-0.004303	-0.665527	0.524658	-0.415283	0.661405	-0.420275	-0.274652	-0.557207
53222		8.182941	-2.444811	4.832986	-0.001842	0.003947	-0.003472	-0.666992	0.525635	-0.418945	0.661396	-0.420271	-0.274640	-0.557226
53223		8.153575	-2.454720	4.822730	-0.002578	0.000866	-0.003211	-0.665527	0.520752	-0.421875	0.661390	-0.420271	-0.274642	-0.557232
53224		8.174123	-2.450318	4.843266	-0.002578	0.000866	-0.003211	-0.663818	0.536621	-0.409180	0.661393	-0.420241	-0.274658	-0.557243
53225		8.178379	-2.459513	4.820001	-0.003493	0.000604	-0.001374	-0.674316	0.520996	-0.417480	0.661383	-0.420331	-0.274605	-0.557213
53226		8.191850	-2.438131	4.823145	-0.004435	0.001152	-0.004574	-0.663574	0.520020	-0.421387	0.661325	-0.420338	-0.274633	-0.557263
53227		8.178408	-2.459301	4.820059	-0.003621	0.002754	-0.002002	-0.666992	0.525635	-0.411621	0.661340	-0.420305	-0.274628	-0.557272
53228		8.197415	-2.450918	4.820534	-0.000798	0.002058	-0.004681	-0.663818	0.526611	-0.416748	0.661308	-0.420324	-0.274633	-0.557294
53229		8.178263	-2.458560	4.820683	-0.002338	0.004556	-0.003970	-0.666016	0.528809	-0.408447	0.661313	-0.420315	-0.274608	-0.557307
53230		8.170701	-2.468172	4.851442	-0.003202	0.003624	-0.004338	-0.656494	0.512695	-0.417480	0.661273	-0.420364	-0.274579	-0.557331
53231		8.154830	-2.456721	4.844279	-0.002302	0.000226	-0.004065	-0.666016	0.520020	-0.415771	0.661279	-0.420323	-0.274609	-0.557341
53232		8.181473	-2.438279	4.814094	-0.003663	-0.000097	-0.004931	-0.664062	0.525879	-0.412109	0.661243	-0.420328	-0.274632	-0.557368
53233		8.158321	-2.437183	4.836836	-0.004775	-0.001199	0.000593	-0.665527	0.528564	-0.424072	0.661227	-0.420391	-0.274611	-0.557350
53234		8.187376	-2.451825	4.810526	-0.003362	-0.001546	-0.000747	-0.659912	0.531250	-0.416992	0.661256	-0.420393	-0.274605	-0.557317
53235		8.165297	-2.479161	4.817089	-0.001087	-0.000962	-0.001719	-0.661621	0.527100	-0.409912	0.661286	-0.420416	-0.274587	-0.557273
53236		8.178875	-2.457854	4.820006	-0.005219	-0.001260	-0.002110	-0.669189	0.526123	-0.413574	0.661259	-0.420486	-0.274565	-0.557263
53237		8.187720	-2.451979	4.809861	-0.004758	0.002461	-0.001517	-0.664062	0.520996	-0.416504	0.661231	-0.420522	-0.274543	-0.557280
53238		8.180242	-2.462072	4.840242	-0.003987	0.001213	-0.001873	-0.664307	0.524414	-0.416748	0.661224	-0.420526	-0.274541	-0.557287
53239		8.177352	-2.454252	4.799719	-0.002627	0.001535	-0.001007	-0.668457	0.528076	-0.419434	0.661231	-0.420531	-0.274531	-0.557280
53240		8.177330	-2.454237	4.799765	-0.004209	0.001182	-0.003224	-0.658691	0.527344	-0.416016	0.661222	-0.420542	-0.274521	-0.557287
53241		8.203423	-2.463225	4.817414	-0.003123	0.002144	-0.001505	-0.666016	0.528564	-0.416504	0.661248	-0.420553	-0.274486	-0.557265
53242		8.178611	-2.457867	4.820447	-0.000428	0.003600	-0.004812	-0.652832	0.529541	-0.415039	0.661249	-0.420541	-0.274478	-0.557277
53243		8.178348	-2.457490	4.821085	-0.003877	0.007053	-0.003259	-0.662354	0.528809	-0.415283	0.661295	-0.420535	-0.274400	-0.557264
53244		8.169073	-2.463252	4.832010	0.000255	0.007351	-0.002867	-0.664551	0.519043	-0.415527	0.661325	-0.420510	-0.274360	-0.557268
53245		8.157506	-2.436365	4.838623	-0.001787	0.003278	-0.005678	-0.664795	0.515137	-0.412598	0.661302	-0.420484	-0.274377	-0.557306
53246		8.174450	-2.475365	4.830071	-0.002924	0.002985	-0.005193	-0.670410	0.525391	-0.414062	0.661259	-0.420470	-0.274399	-0.557357
53247		8.170517	-2.438619	4.805934	-0.004062	0.002692	-0.004708	-0.665039	0.524658	-0.418701	0.661215	-0.420491	-0.274396	-0.557395
53248		8.172048	-2.442252	4.826178	-0.002666	-0.001315	-0.003938	-0.666016	0.521484	-0.410400	0.661207	-0.420495	-0.274414	-0.557393
53249		8.176552	-2.451223	4.802630	-0.004300	-0.000998	-0.003951	-0.662842	0.528320	-0.420654	0.661153	-0.420539	-0.274427	-0.557417
53250		8.169430	-2.461034	4.832537	-0.005163	-0.001930	-0.004319	-0.660889	0.529785	-0.415283	0.661154	-0.420557	-0.274424	-0.557403
53251		8.172682	-2.441544	4.825463	-0.003694	0.004233	-0.004838	-0.667480	0.523193	-0.418213	0.661161	-0.420565	-0.274385	-0.557408
53252		8.181346	-2.435315	4.815809	-0.004114	0.003361	-0.002503	-0.662354	0.525146	-0.415283	0.661153	-0.420559	-0.274374	-0.557428
53253		8.188084	-2.476655	4.796828	-0.001656	0.001128	-0.005052	-0.664551	0.528320	-0.418701	0.661147	-0.420558	-0.274378	-0.557434
53254		8.173641	-2.468849	4.810078	-0.000647	0.003571	-0.006165	-0.665527	0.528809	-0.408447	0.661155	-0.420532	-0.274375	-0.557445
53255		8.202813	-2.457721	4.821263	0.000362	0.006014	-0.007278	-0.664551	0.527832	-0.421875	0.661124	-0.420538	-0.274359	-0.557485
53256		8.176484	-2.447606	4.804588	0.001005	0.006916	-0.008262	-0.657715	0.522461	-0.418457	0.661146	-0.420467	-0.274356	-0.557514
53257		8.157409	-2.430478	4.841745	0.001247	0.006134	-0.001871	-0.666016	0.514893	-0.415039	0.661201	-0.420409	-0.274337	-0.557501
53258		8.173057	-2.441424	4.849553	-0.002625	0.001533	-0.001010	-0.656982	0.525635	-0.415771	0.661181	-0.420400	-0.274356	-0.557523
53259		8.154045	-2.449685	4.849160	-0.003359	-0.001549	-0.000750	-0.661621	0.525879	-0.419434	0.661204	-0.420427	-0.274343	-0.557482
53260		8.166235	-2.424760	4.831564	-0.006002	-0.003676	0.000349	-0.669189	0.528809	-0.410156	0.661216	-0.420468	-0.274335	-0.557440
53261		8.188029	-2.449530	4.835276	-0.005635	-0.002135	0.000220	-0.657959	0.518066	-0.423828	0.661174	-0.420557	-0.274318	-0.557432
53262		8.193646	-2.487702	4.795144	-0.005505	-0.004285	0.000847	-0.669922	0.530518	-0.410889	0.661208	-0.420554	-0.274335	-0.557386
53263		8.165457	-2.449436	4.856518	-0.006184	-0.008036	-0.001101	-0.664551	0.526367	-0.414062	0.661147	-0.420670	-0.274350	-0.557363
53264		8.199331	-2.473211	4.806067	-0.005817	-0.006495	-0.001231	-0.662598	0.528320	-0.414795	0.661117	-0.420746	-0.274364	-0.557335
53265		8.177891	-2.473492	4.764452	-0.003304	-0.002217	-0.002957	-0.669678	0.529053	-0.422119	0.661110	-0.420783	-0.274365	-0.557314
53266		8.189728	-2.475046	4.794851	0.000200	0.000843	-0.003688	-0.664795	0.527588	-0.422363	0.661124	-0.420759	-0.274383	-0.557307
53267		8.185347	-2.465225	4.818632	0.000308	0.006684	-0.005071	-0.663086	0.533203	-0.408447	0.661161	-0.420695	-0.274372	-0.557317
53268		8.174806	-2.466688	4.809206	-0.000333	0.005782	-0.004088	-0.660645	0.523926	-0.416016	0.661161	-0.420717	-0.274330	-0.557321
53269		8.164629	-2.443885	4.836053	-0.001837	0.003947	-0.003474	-0.664551	0.532471	-0.421875	0.661176	-0.420698	-0.274315	-0.557324
53270		8.183559	-2.435516	4.836632	-0.003341	0.002112	-0.002860	-0.670166	0.531494	-0.415283	0.661205	-0.420696	-0.274290	-0.557303
53271		8.194637	-2.486143	4.794259	-0.002570	0.000865	-0.003216	-0.663086	0.524414	-0.414795	0.661188	-0.420726	-0.274284	-0.557304
53272		8.149997	-2.436284	4.849509	-0.003120	0.002142	-0.001508	-0.668701	0.526123	-0.427246	0.661191	-0.420736	-0.274269	-0.557301
53273		8.191971	-2.453845	4.790369	-0.005395	0.001554	-0.000538	-0.665771	0.531494	-0.426270	0.661216	-0.420717	-0.274257	-0.557291
53274		8.175712	-2.470150	4.830604	-0.005340	0.000886	-0.002745	-0.666016	0.525879	-0.422119	0.661246	-0.420711	-0.274238	-0.557270
53275		8.191864	-2.454054	4.790444	-0.004607	0.003968	-0.003003	-0.672119	0.518799	-0.415771	0.661258	-0.420691	-0.274217	-0.557281
53276		8.173978	-2.466275	4.810825	-0.006514	0.004921	-0.002162	-0.662842	0.524658	-0.416504	0.661212	-0.420696	-0.274200	-0.557340
53277		8.191275	-2.454028	4.791465	-0.002955	0.007315	-0.005098	-0.660400	0.522217	-0.415527	0.661218	-0.420666	-0.274171	-0.557370
53278		8.180348	-2.483011	4.829555	-0.005229	0.006727	-0.004129	-0.660156	0.529297	-0.419434	0.661219	-0.420649	-0.274133	-0.557400
53279		8.186332	-2.444210	4.816174	-0.001193	0.004850	-0.004458	-0.671875	0.521729	-0.417480	0.661257	-0.420618	-0.274112	-0.557388
53280		8.184373	-2.466904	4.844118	-0.001687	0.005459	-0.004957	-0.662354	0.525635	-0.416504	0.661228	-0.420588	-0.274118	-0.557443
53281		8.168262	-2.455391	4.837380	-0.001834	0.003947	-0.003475	-0.663330	0.523438	-0.421631	0.661241	-0.420573	-0.274105	-0.557446
53282		8.168219	-2.455127	4.837586	-0.002072	0.000256	-0.002720	-0.657959	0.528076	-0.408691	0.661258	-0.420553	-0.274119	-0.557434
53283		8.162509	-2.442058	4.840554	-0.003541	0.001267	0.000826	-0.664551	0.518311	-0.418213	0.661271	-0.420605	-0.274079	-0.557398
53284		8.182723	-2.462916	4.824267	-0.007906	-0.002727	0.001183	-0.661133	0.521240	-0.416748	0.661252	-0.420644	-0.274079	-0.557391
53285		8.169878	-2.460249	4.856849	-0.003447	-0.003729	-0.001480	-0.668213	0.532471	-0.414551	0.661248	-0.420666	-0.274102	-0.557368
53286		8.170290	-2.460494	4.856032	-0.006583	-0.005251	-0.000882	-0.670898	0.522461	-0.409424	0.661220	-0.420755	-0.274099	-0.557336
53287		8.173751	-2.465864	4.811422	-0.006250	-0.006556	-0.003944	-0.661377	0.523682	-0.407471	0.661127	-0.420842	-0.274136	-0.557362
53288		8.194545	-2.486026	4.794478	-0.006874	-0.003797	-0.005069	-0.665039	0.521484	-0.420166	0.661065	-0.420919	-0.274142	-0.557375
53289		8.205207	-2.483763	4.804102	-0.007003	-0.001647	-0.005696	-0.660645	0.523682	-0.419434	0.661036	-0.420927	-0.274161	-0.557393
53290		8.178097	-2.473096	4.849764	-0.005038	-0.003266	-0.008745	-0.671631	0.523193	-0.415039	0.661014	-0.420929	-0.274199	-0.557399
53291		8.184543	-2.458346	4.798801	-0.003866	-0.000125	-0.006295	-0.663330	0.534668	-0.409912	0.660956	-0.420944	-0.274224	-0.557444
53292		8.179134	-2.444616	4.801600	-0.005717	0.000160	-0.007663	-0.657471	0.527832	-0.415283	0.660919	-0.421005	-0.274202	-0.557454
53293		8.176275	-2.463424	4.808382	-0.007129	0.000502	-0.006324	-0.667725	0.525879	-0.414062	0.660914	-0.421031	-0.274183	-0.557450
53294		8.192332	-2.474047	4.815665	-0.002639	0.002349	-0.006053	-0.671387	0.528320	-0.418701	0.660884	-0.421033	-0.274188	-0.557480
53295		8.185346	-2.456291	4.798484	-0.003004	0.000807	-0.005926	-0.666992	0.527344	-0.419434	0.660859	-0.421034	-0.274203	-0.557501
53296		8.181188	-2.446564	4.821824	-0.002143	0.001740	-0.005555	-0.661865	0.522217	-0.408691	0.660859	-0.421017	-0.274214	-0.557509
53297		8.167928	-2.467333	4.818701	-0.000292	0.001455	-0.004188	-0.656494	0.520996	-0.420166	0.660840	-0.421025	-0.274224	-0.557521
53298		8.191492	-2.443702	4.832359	-0.001632	0.000313	-0.000014	-0.668945	0.528809	-0.412842	0.660894	-0.420998	-0.274230	-0.557474
53299		8.182551	-2.474139	4.805658	-0.004781	-0.000392	-0.004460	-0.660400	0.525635	-0.420898	0.660855	-0.421042	-0.274228	-0.557488
53300		8.156532	-2.464866	4.788026	0.000423	0.000875	-0.002336	-0.664551	0.523193	-0.411377	0.660904	-0.421006	-0.274244	-0.557449
53301		8.202992	-2.469407	4.826511	-0.002110	0.004585	-0.002620	-0.658447	0.528809	-0.411377	0.660895	-0.421006	-0.274226	-0.557469
53302		8.170990	-2.447035	4.812321	-0.002199	0.002406	-0.003347	-0.665771	0.517334	-0.418457	0.660910	-0.421022	-0.274205	-0.557450
53303		8.166382	-2.462223	4.799225	-0.004749	0.002453	-0.001524	-0.666992	0.534180	-0.404785	0.660903	-0.421007	-0.274205	-0.557469
53304		8.205711	-2.450040	4.820241	-0.004749	0.002453	-0.001525	-0.661133	0.524170	-0.416016	0.660871	-0.421087	-0.274154	-0.557472
53305		8.157404	-2.468431	4.809438	-0.004909	0.001758	-0.005087	-0.662598	0.519775	-0.412109	0.660866	-0.421089	-0.274149	-0.557479
53306		8.192437	-2.471028	4.817036	-0.004414	0.001149	-0.004589	-0.674805	0.526367	-0.412842	0.660836	-0.421100	-0.274153	-0.557504
53307		8.189691	-2.462570	4.776600	-0.000785	0.002065	-0.004687	-0.659912	0.526611	-0.409424	0.660790	-0.421108	-0.274168	-0.557545
53308		8.196875	-2.479093	4.794085	-0.000508	0.001427	-0.005542	-0.659668	0.526367	-0.405029	0.660782	-0.421118	-0.274171	-0.557546
53309		8.197043	-2.454197	4.830970	-0.001833	0.003948	-0.003475	-0.667969	0.527100	-0.420898	0.660767	-0.421146	-0.274141	-0.557557
53310		8.188056	-2.459975	4.841418	-0.001833	0.003948	-0.003475	-0.656494	0.528564	-0.420654	0.660786	-0.421115	-0.274139	-0.557559
53311		8.180768	-2.442670	4.824509	-0.001761	0.002463	-0.000641	-0.670898	0.527832	-0.411133	0.660857	-0.421092	-0.274121	-0.557500
53312		8.200894	-2.463022	4.808632	-0.003263	0.000626	-0.000030	-0.666016	0.521484	-0.412109	0.660832	-0.421138	-0.274107	-0.557503
53313		8.165894	-2.460330	4.801026	-0.002126	0.000921	-0.000514	-0.665771	0.531738	-0.425049	0.660820	-0.421153	-0.274109	-0.557505
53314		8.190709	-2.465257	4.798216	-0.002433	-0.001286	-0.002596	-0.666748	0.511475	-0.418945	0.660859	-0.421143	-0.274124	-0.557458
53315		8.176190	-2.458147	4.811226	-0.002256	0.003072	-0.001139	-0.661377	0.516113	-0.420410	0.660854	-0.421099	-0.274147	-0.557487
53316		8.184780	-2.476293	4.764791	-0.003916	0.000540	-0.004092	-0.661865	0.527832	-0.418457	0.660858	-0.421067	-0.274174	-0.557492
53317		8.181845	-2.470869	4.808542	-0.004176	0.004840	-0.005344	-0.659912	0.520996	-0.411377	0.660877	-0.421047	-0.274155	-0.557494
53318		8.180187	-2.466354	4.788963	-0.001319	0.007003	-0.005084	-0.667969	0.531006	-0.413330	0.660878	-0.421017	-0.274137	-0.557525
53319		8.171109	-2.471661	4.799809	0.000372	0.006025	-0.007278	-0.668945	0.526855	-0.419434	0.660868	-0.420996	-0.274129	-0.557555
53320		8.185656	-2.453579	4.824049	-0.002048	0.003919	-0.004831	-0.658447	0.528320	-0.412109	0.660870	-0.420972	-0.274131	-0.557571
53321		8.185482	-2.453331	4.824469	-0.002750	0.003680	-0.001639	-0.666504	0.530518	-0.420166	0.660896	-0.420983	-0.274099	-0.557547
53322		8.163273	-2.480663	4.831350	-0.003055	0.001472	-0.003722	-0.659668	0.520752	-0.413086	0.660912	-0.420981	-0.274099	-0.557531
53323		8.189686	-2.462065	4.801600	-0.000347	0.002122	-0.001980	-0.668945	0.515137	-0.410400	0.660927	-0.420967	-0.274104	-0.557521
53324		8.179497	-2.463832	4.791439	-0.002777	0.000835	-0.004577	-0.663574	0.521484	-0.414307	0.660861	-0.420976	-0.274127	-0.557581
53325		8.185434	-2.452391	4.825028	-0.002343	0.000892	-0.001869	-0.666260	0.525391	-0.409424	0.660858	-0.420980	-0.274133	-0.557579
53326		8.176671	-2.458452	4.834947	-0.003202	-0.000041	-0.002241	-0.666016	0.529297	-0.422119	0.660825	-0.421022	-0.274127	-0.557588
53327		8.186736	-2.480611	4.808701	-0.003826	0.002718	-0.003366	-0.668457	0.522217	-0.414795	0.660852	-0.421007	-0.274121	-0.557571
53328		8.172134	-2.473527	4.821817	-0.004468	0.001813	-0.002384	-0.666504	0.524658	-0.415283	0.660826	-0.421021	-0.274116	-0.557593
53329		8.176442	-2.482197	4.798813	0.000999	0.003267	-0.006154	-0.662842	0.527588	-0.418213	0.660820	-0.420990	-0.274137	-0.557614
53330		8.176474	-2.457026	4.836005	-0.002392	0.006041	-0.006812	-0.656250	0.528320	-0.411865	0.660837	-0.420954	-0.274127	-0.557627
53331		8.183662	-2.446330	4.806438	-0.000970	0.004880	-0.003105	-0.664062	0.526611	-0.407227	0.660873	-0.420945	-0.274101	-0.557603
53332		8.174662	-2.452190	4.816859	-0.004319	0.003325	-0.003866	-0.667969	0.518066	-0.405273	0.660839	-0.420984	-0.274070	-0.557630
53333		8.189174	-2.459142	4.803972	-0.005326	0.000878	-0.002758	-0.663818	0.526611	-0.414307	0.660762	-0.421036	-0.274058	-0.557686
53334		8.195004	-2.472198	4.800840	-0.003417	-0.000070	-0.003597	-0.660645	0.524658	-0.411133	0.660754	-0.421056	-0.274061	-0.557679
53335		8.195098	-2.471957	4.800802	-0.003052	0.001472	-0.003724	-0.656982	0.531250	-0.416992	0.660747	-0.421073	-0.274055	-0.557678
53336		8.170359	-2.466856	4.803556	-0.002835	0.001500	-0.002369	-0.670166	0.527344	-0.421143	0.660795	-0.421077	-0.274039	-0.557626
53337		8.196481	-2.475654	4.821255	-0.001205	0.001189	-0.002353	-0.658447	0.529785	-0.411865	0.660809	-0.421061	-0.274056	-0.557613
53338		8.195169	-2.471237	4.801053	-0.001143	0.000524	-0.004563	-0.662109	0.521240	-0.420410	0.660822	-0.421074	-0.274057	-0.557587
53339		8.180680	-2.463837	4.814129	-0.001698	0.001797	-0.002852	-0.659668	0.528809	-0.421143	0.660850	-0.421041	-0.274076	-0.557570
53340		8.167553	-2.460687	4.847408	-0.005540	0.000849	-0.004114	-0.666504	0.522461	-0.416504	0.660882	-0.421039	-0.274073	-0.557535
53341		8.159019	-2.463696	4.773186	-0.003693	0.000566	-0.002743	-0.662598	0.523926	-0.412354	0.660870	-0.421046	-0.274081	-0.557541
53342		8.173818	-2.446223	4.796648	-0.004768	-0.000395	-0.004470	-0.671387	0.526367	-0.413330	0.660845	-0.421074	-0.274084	-0.557547
53343		8.176847	-2.454016	4.836902	-0.004489	-0.001032	-0.005326	-0.662842	0.529785	-0.410889	0.660790	-0.421110	-0.274097	-0.557578
53344		8.197250	-2.498239	4.784055	-0.005045	0.000241	-0.003615	-0.659180	0.526123	-0.416016	0.660775	-0.421155	-0.274080	-0.557571
53345		8.190328	-2.456927	4.803138	-0.004761	-0.001217	0.000576	-0.673096	0.527832	-0.413818	0.660804	-0.421184	-0.274072	-0.557518
53346		8.142357	-2.451125	4.828536	-0.002494	0.000199	-0.005436	-0.669189	0.531494	-0.405273	0.660759	-0.421204	-0.274087	-0.557549
53347		8.187463	-2.475924	4.809878	-0.002618	0.001528	-0.001015	-0.664062	0.535400	-0.413330	0.660724	-0.421267	-0.274055	-0.557559
53348		8.216606	-2.489915	4.783849	-0.004550	-0.000368	-0.003117	-0.659912	0.527100	-0.417480	0.660726	-0.421314	-0.274037	-0.557530
53349		8.154458	-2.425353	4.811434	-0.002062	0.000255	-0.002727	-0.667236	0.526855	-0.408447	0.660757	-0.421310	-0.274046	-0.557491
53350		8.187718	-2.475589	4.809615	-0.002062	0.000255	-0.002727	-0.664307	0.524658	-0.421387	0.660727	-0.421346	-0.274045	-0.557501
53351		8.181952	-2.462361	4.812722	-0.003606	0.002744	-0.002014	-0.658203	0.526855	-0.419678	0.660757	-0.421324	-0.274044	-0.557482
53352		8.181886	-2.462334	4.812848	-0.002340	0.000891	-0.001871	-0.666016	0.526611	-0.410889	0.660807	-0.421309	-0.274050	-0.557431
53353		8.186313	-2.447129	4.826208	-0.002124	0.000919	-0.000516	-0.660400	0.530029	-0.408936	0.660801	-0.421337	-0.274041	-0.557422
53354		8.176052	-2.473775	4.779103	-0.006606	-0.000936	-0.000798	-0.661377	0.524414	-0.409668	0.660794	-0.421406	-0.274010	-0.557393
53355		8.187649	-2.475989	4.809528	-0.002618	0.001527	-0.001015	-0.666504	0.525146	-0.415771	0.660794	-0.421428	-0.273998	-0.557383
53356		8.171726	-2.464702	4.802337	-0.001634	0.001134	-0.005064	-0.658447	0.524902	-0.415039	0.660784	-0.421419	-0.274017	-0.557391
53357		8.177547	-2.477343	4.799438	-0.001912	0.001770	-0.004208	-0.662354	0.529297	-0.415039	0.660805	-0.421406	-0.274025	-0.557373
53358		8.182028	-2.461781	4.812889	-0.003048	0.001472	-0.003726	-0.669189	0.534668	-0.408447	0.660817	-0.421414	-0.274021	-0.557354
53359		8.166093	-2.450639	4.805642	-0.003969	0.001201	-0.001889	-0.671143	0.525635	-0.414307	0.660793	-0.421473	-0.273992	-0.557352
53360		8.180720	-2.457617	4.792543	-0.004548	-0.000368	-0.003119	-0.672363	0.524902	-0.414795	0.660758	-0.421502	-0.273998	-0.557369
53361		8.172027	-2.463968	4.802201	-0.004759	-0.001219	0.000573	-0.666260	0.531250	-0.413086	0.660734	-0.421542	-0.273998	-0.557367
53362		8.175327	-2.445357	4.794518	-0.008616	-0.005834	0.001415	-0.658691	0.523682	-0.416992	0.660715	-0.421639	-0.273986	-0.557321
53363		8.178299	-2.478289	4.797667	-0.003345	-0.001557	-0.000765	-0.668213	0.525635	-0.417480	0.660745	-0.421647	-0.274000	-0.557274
53364		8.187249	-2.472283	4.787392	-0.003838	-0.000949	-0.001264	-0.662354	0.528564	-0.415527	0.660743	-0.421663	-0.274012	-0.557259
53365		8.184264	-2.491834	4.794054	-0.005746	-0.000003	-0.000425	-0.658691	0.527588	-0.413086	0.660759	-0.421694	-0.273996	-0.557223
53366		8.163990	-2.472152	4.809804	-0.005252	-0.000611	0.000074	-0.667480	0.527344	-0.410156	0.660780	-0.421731	-0.273981	-0.557178
53367		8.178562	-2.479445	4.796622	-0.005103	0.000904	-0.001407	-0.660400	0.521729	-0.418945	0.660755	-0.421774	-0.273962	-0.557184
53368		8.175874	-2.447420	4.792532	-0.006881	-0.000301	0.000056	-0.668945	0.517578	-0.418701	0.660777	-0.421787	-0.273958	-0.557151
53369		8.179920	-2.508449	4.779801	-0.007163	0.001160	-0.004135	-0.663818	0.519043	-0.412842	0.660742	-0.421785	-0.273968	-0.557188
53370		8.202144	-2.456410	4.809882	0.000212	0.000853	-0.003692	-0.659668	0.529785	-0.411133	0.660733	-0.421766	-0.273999	-0.557198
53371		8.177345	-2.475514	4.775990	-0.006305	0.002093	-0.003761	-0.667480	0.531006	-0.411133	0.660733	-0.421798	-0.273972	-0.557187
53372		8.189005	-2.477748	4.806312	-0.005614	-0.002154	0.000197	-0.666260	0.521973	-0.411133	0.660718	-0.421864	-0.273958	-0.557163
53373		8.164204	-2.473013	4.808999	-0.002104	0.004585	-0.002620	-0.662109	0.522705	-0.414795	0.660705	-0.421855	-0.273947	-0.557189
53374		8.197566	-2.471638	4.796751	-0.003603	0.002744	-0.002014	-0.668701	0.527100	-0.420898	0.660717	-0.421849	-0.273942	-0.557183
53375		8.197550	-2.471776	4.796708	-0.005465	-0.000639	-0.001284	-0.669189	0.519043	-0.415283	0.660725	-0.421861	-0.273950	-0.557160
53376		8.183020	-2.465157	4.809474	-0.004393	0.000321	0.000446	-0.666992	0.521484	-0.411133	0.660709	-0.421873	-0.273954	-0.557168
53377		8.172899	-2.467503	4.798900	-0.005186	-0.001275	-0.002140	-0.661133	0.528076	-0.413086	0.660670	-0.421910	-0.273959	-0.557183
53378		8.187401	-2.474855	4.785803	-0.004093	0.002525	0.002534	-0.649414	0.531982	-0.411377	0.660708	-0.421932	-0.273926	-0.557137
53379		8.175792	-2.449189	4.791768	-0.004263	-0.001830	0.001070	-0.670654	0.522705	-0.402100	0.660774	-0.421974	-0.273912	-0.557035
53380		8.185500	-2.499484	4.812720	-0.003878	0.002552	0.003889	-0.675537	0.523438	-0.406006	0.660728	-0.422038	-0.273861	-0.557066
53381		8.208677	-2.500908	4.789773	-0.003899	-0.000287	0.000945	-0.669434	0.530273	-0.409668	0.660661	-0.422099	-0.273844	-0.557107
53382		8.189736	-2.485450	4.825828	-0.005034	-0.000586	0.001426	-0.662598	0.531738	-0.407471	0.660642	-0.422162	-0.273818	-0.557096
53383		8.183971	-2.497260	4.791730	-0.006039	-0.003036	0.002530	-0.668213	0.526123	-0.421631	0.660636	-0.422248	-0.273789	-0.557051
53384		8.182641	-2.469874	4.807698	-0.006725	0.000385	0.003620	-0.661377	0.533447	-0.406738	0.660671	-0.422265	-0.273776	-0.557003
53385		8.214332	-2.516601	4.785542	0.000148	0.001516	-0.001479	-0.667725	0.531982	-0.411377	0.660684	-0.422290	-0.273761	-0.556976
53386		8.167817	-2.487629	4.784082	-0.004885	0.000930	-0.000054	-0.665771	0.526367	-0.416504	0.660678	-0.422335	-0.273734	-0.556963
53387		8.193936	-2.496707	4.801645	-0.000708	0.000582	-0.001855	-0.659424	0.527832	-0.410156	0.660697	-0.422322	-0.273756	-0.556939
53388		8.192449	-2.516745	4.744785	-0.002615	0.001527	-0.001016	-0.662109	0.541748	-0.415039	0.660715	-0.422339	-0.273744	-0.556911
53389		8.160221	-2.497733	4.814669	-0.000689	0.004250	-0.003957	-0.659668	0.528564	-0.416748	0.660763	-0.422335	-0.273723	-0.556867
53390		8.186515	-2.478542	4.785411	-0.001612	0.004806	-0.007167	-0.670166	0.533447	-0.415283	0.660789	-0.422294	-0.273732	-0.556863
53391		8.166065	-2.457699	4.802083	-0.001890	0.005440	-0.006311	-0.664062	0.525879	-0.414551	0.660784	-0.422277	-0.273724	-0.556886
53392		8.180459	-2.464279	4.789566	-0.004094	0.003353	-0.002514	-0.665039	0.533691	-0.411621	0.660791	-0.422274	-0.273713	-0.556885
53393		8.183024	-2.496553	4.793714	-0.000837	0.002733	-0.002478	-0.672363	0.526367	-0.418457	0.660805	-0.422282	-0.273702	-0.556867
53394		8.171592	-2.470249	4.799714	-0.006040	-0.002208	-0.002519	-0.663818	0.519775	-0.412842	0.660779	-0.422309	-0.273721	-0.556869
53395		8.173137	-2.498707	4.782837	-0.003341	-0.001558	-0.000770	-0.662598	0.525879	-0.411377	0.660769	-0.422325	-0.273741	-0.556858
53396		8.182087	-2.492673	4.772578	-0.003834	-0.000949	-0.001269	-0.653809	0.527344	-0.406006	0.660766	-0.422354	-0.273745	-0.556838
53397		8.183625	-2.496756	4.792583	-0.002913	-0.000676	-0.003106	-0.668457	0.533447	-0.416992	0.660772	-0.422386	-0.273744	-0.556808
53398		8.192557	-2.490359	4.782544	-0.002550	0.000866	-0.003229	-0.658936	0.535889	-0.417480	0.660782	-0.422392	-0.273751	-0.556787
53399		8.183814	-2.496305	4.792495	-0.002549	0.000866	-0.003229	-0.667236	0.528809	-0.413574	0.660833	-0.422393	-0.273756	-0.556725
53400		8.183730	-2.495837	4.792883	-0.000539	0.005766	-0.005436	-0.669434	0.528076	-0.410156	0.660834	-0.422363	-0.273753	-0.556747
53401		8.183468	-2.495301	4.793609	-0.001459	0.005493	-0.003600	-0.667236	0.519775	-0.409912	0.660818	-0.422357	-0.273735	-0.556779
53402		8.177577	-2.481675	4.797148	-0.003106	0.002965	-0.006565	-0.658447	0.526123	-0.411377	0.660769	-0.422350	-0.273746	-0.556838
53403		8.183146	-2.494398	4.794629	-0.003858	0.007045	-0.003262	-0.661377	0.526855	-0.419189	0.660791	-0.422334	-0.273712	-0.556840
53404		8.169766	-2.491405	4.828282	-0.002548	0.000866	-0.003230	-0.666260	0.536865	-0.410645	0.660824	-0.422315	-0.273735	-0.556804
53405		8.177188	-2.480936	4.798193	-0.001478	0.001826	-0.001498	-0.660645	0.531006	-0.415283	0.660838	-0.422341	-0.273718	-0.556776
53406		8.180181	-2.461697	4.791369	-0.005097	0.000901	-0.001413	-0.666016	0.526367	-0.411865	0.660865	-0.422361	-0.273708	-0.556734
53407		8.213317	-2.512261	4.789562	-0.003877	0.003377	-0.001160	-0.663330	0.535156	-0.405518	0.660862	-0.422372	-0.273687	-0.556740
53408		8.172502	-2.496565	4.785039	-0.004604	0.000292	-0.000914	-0.666016	0.527100	-0.417969	0.660851	-0.422436	-0.273655	-0.556720
53409		8.175179	-2.528969	4.788941	-0.000836	0.002734	-0.002478	-0.667725	0.529785	-0.408447	0.660876	-0.422409	-0.273669	-0.556703
53410		8.181089	-2.490481	4.775432	-0.010107	0.003978	-0.002094	-0.662354	0.528320	-0.410889	0.660836	-0.422468	-0.273608	-0.556737
53411		8.181107	-2.490497	4.775393	-0.001496	-0.001011	-0.004445	-0.662109	0.529541	-0.408936	0.660829	-0.422481	-0.273631	-0.556723
53412		8.187068	-2.503006	4.772319	-0.000491	0.001440	-0.005548	-0.660889	0.522949	-0.411865	0.660822	-0.422484	-0.273643	-0.556724
53413		8.191464	-2.487125	4.786096	-0.001391	0.004833	-0.005814	-0.663574	0.531006	-0.412109	0.660823	-0.422453	-0.273649	-0.556743
53414		8.179402	-2.511912	4.803634	-0.001520	0.006984	-0.006437	-0.668213	0.529785	-0.412598	0.660830	-0.422426	-0.273633	-0.556762
53415		8.167619	-2.485074	4.810478	-0.000685	0.004250	-0.003958	-0.663086	0.518799	-0.410889	0.660829	-0.422413	-0.273630	-0.556775
53416		8.182017	-2.491562	4.798028	-0.002312	0.004559	-0.003978	-0.651855	0.524658	-0.417725	0.660816	-0.422392	-0.273630	-0.556807
53417		8.192126	-2.489001	4.808727	-0.002608	0.002356	-0.006069	-0.665039	0.527100	-0.409912	0.660864	-0.422354	-0.273657	-0.556765
53418		8.177546	-2.505944	4.785173	-0.004944	0.002416	-0.002895	-0.664062	0.530273	-0.418701	0.660845	-0.422378	-0.273638	-0.556779
53419		8.186277	-2.499619	4.775449	-0.000342	0.002125	-0.001979	-0.665527	0.524170	-0.422363	0.660889	-0.422354	-0.273655	-0.556737
53420		8.187662	-2.503426	4.795841	-0.002757	0.000839	-0.004590	-0.656006	0.525879	-0.420166	0.660907	-0.422323	-0.273692	-0.556721
53421		8.196553	-2.496884	4.785955	-0.003037	0.001473	-0.003733	-0.662842	0.531982	-0.414795	0.660959	-0.422294	-0.273718	-0.556668
53422		8.180557	-2.485391	4.778995	-0.000896	0.004225	-0.005316	-0.660400	0.531250	-0.411865	0.660984	-0.422271	-0.273723	-0.556654
53423		8.196382	-2.495675	4.786878	-0.000253	0.005133	-0.006296	-0.660889	0.526855	-0.421387	0.661004	-0.422245	-0.273724	-0.556649
53424		8.180292	-2.483899	4.780223	-0.000895	0.004225	-0.005316	-0.661133	0.525879	-0.409180	0.661050	-0.422191	-0.273750	-0.556623
53425		8.156854	-2.482423	4.803590	-0.000335	0.002957	-0.007030	-0.656738	0.526123	-0.415283	0.661037	-0.422176	-0.273764	-0.556642
53426		8.180131	-2.482439	4.781258	-0.001947	0.006101	-0.004103	-0.663818	0.522217	-0.418945	0.661081	-0.422138	-0.273759	-0.556621
53427		8.187018	-2.499138	4.799175	-0.000039	0.005159	-0.004940	-0.664551	0.526855	-0.410645	0.661103	-0.422081	-0.273779	-0.556629
53428		8.179680	-2.481210	4.782667	-0.001878	0.005441	-0.006318	-0.667480	0.531738	-0.412842	0.661088	-0.422065	-0.273771	-0.556663
53429		8.170726	-2.486819	4.793141	-0.002028	0.003924	-0.004838	-0.665283	0.525635	-0.418701	0.661083	-0.422063	-0.273764	-0.556673
53430		8.177764	-2.503637	4.810738	-0.003163	0.003623	-0.004358	-0.656738	0.523193	-0.409424	0.661094	-0.422038	-0.273772	-0.556675
53431		8.179361	-2.479774	4.783957	-0.002882	0.002989	-0.005216	-0.660645	0.524658	-0.415527	0.661093	-0.422034	-0.273773	-0.556679
53432		8.189525	-2.477008	4.794655	0.001507	0.002675	-0.005654	-0.678467	0.531494	-0.415039	0.661116	-0.421991	-0.273809	-0.556667
53433		8.170481	-2.485007	4.794498	-0.006356	0.002746	-0.001563	-0.667480	0.522705	-0.419922	0.661074	-0.422028	-0.273775	-0.556705
53434		8.192206	-2.509011	4.798829	0.000221	0.000858	-0.003695	-0.661865	0.524170	-0.415283	0.661084	-0.421993	-0.273816	-0.556699
53435		8.167408	-2.503958	4.801639	-0.003594	0.002739	-0.002022	-0.663818	0.535156	-0.406738	0.661100	-0.421988	-0.273814	-0.556685
53436		8.199644	-2.497979	4.769052	0.001145	0.001133	-0.005532	-0.663086	0.527588	-0.418457	0.661095	-0.422002	-0.273825	-0.556676
53437		8.185045	-2.490351	4.782399	-0.000891	0.004224	-0.005319	-0.664551	0.523438	-0.412842	0.661124	-0.421962	-0.273843	-0.556663
53438		8.170301	-2.482807	4.795944	-0.001383	0.004832	-0.005820	-0.662598	0.520996	-0.408447	0.661113	-0.421936	-0.273846	-0.556694
53439		8.177368	-2.499384	4.813622	-0.001745	0.003290	-0.005697	-0.664307	0.528564	-0.416260	0.661082	-0.421929	-0.273847	-0.556735
53440		8.168865	-2.477210	4.776592	-0.000820	0.003565	-0.007534	-0.665771	0.530762	-0.414307	0.661088	-0.421897	-0.273871	-0.556740
53441		8.170118	-2.480832	4.797277	-0.005068	0.004562	-0.003525	-0.663330	0.525879	-0.410645	0.661092	-0.421905	-0.273847	-0.556743
53442		8.159723	-2.482863	4.787362	-0.003230	0.004281	-0.002147	-0.669189	0.524658	-0.415771	0.661091	-0.421910	-0.273825	-0.556750
53443		8.165565	-2.495725	4.784360	-0.000503	-0.002228	-0.003450	-0.664795	0.531494	-0.412842	0.661075	-0.421913	-0.273865	-0.556747
53444		8.174560	-2.489304	4.774240	-0.005301	0.000868	-0.002779	-0.666748	0.523682	-0.413086	0.661072	-0.421945	-0.273855	-0.556731
53445		8.200726	-2.498037	4.791897	-0.001895	0.001772	-0.004217	-0.662354	0.528320	-0.413086	0.661053	-0.421942	-0.273866	-0.556751
53446		8.191878	-2.503883	4.802066	-0.003159	0.003622	-0.004362	-0.663818	0.531982	-0.413330	0.661061	-0.421938	-0.273861	-0.556747
53447		8.181667	-2.505414	4.792101	-0.000116	0.002983	-0.005677	-0.662598	0.521729	-0.405273	0.661075	-0.421923	-0.273875	-0.556735
53448		8.161169	-2.484564	4.808708	-0.000946	0.005716	-0.008159	-0.663818	0.534424	-0.418457	0.661031	-0.421907	-0.273867	-0.556803
53449		8.185769	-2.488502	4.806827	0.001803	0.004879	-0.003564	-0.656494	0.525879	-0.411621	0.661091	-0.421864	-0.273882	-0.556756
53450		8.159451	-2.478932	4.789863	-0.001379	0.004832	-0.005822	-0.658447	0.524902	-0.411377	0.661113	-0.421839	-0.273886	-0.556748
53451		8.178274	-2.470081	4.790824	-0.003649	0.004229	-0.004864	-0.666016	0.525635	-0.420166	0.661118	-0.421832	-0.273878	-0.556750
53452		8.184129	-2.506870	4.751433	-0.001531	0.003315	-0.004342	-0.658691	0.537842	-0.414551	0.661139	-0.421798	-0.273899	-0.556741
53453		8.150033	-2.459669	4.837984	-0.001941	0.006099	-0.004109	-0.668457	0.528564	-0.408447	0.661198	-0.421782	-0.273885	-0.556690
53454		8.160338	-2.505545	4.775265	-0.004654	0.001776	-0.003762	-0.664795	0.523682	-0.411377	0.661157	-0.421819	-0.273865	-0.556721
53455		8.176118	-2.492121	4.819507	-0.001530	0.003315	-0.004342	-0.664551	0.521484	-0.407471	0.661143	-0.421811	-0.273866	-0.556744
53456		8.174645	-2.487601	4.799680	-0.005764	0.005142	-0.005389	-0.666504	0.526611	-0.416260	0.661094	-0.421825	-0.273833	-0.556807
53457		8.183360	-2.480762	4.790259	0.001023	0.003286	-0.006158	-0.660156	0.527100	-0.412354	0.661100	-0.421787	-0.273861	-0.556815
53458		8.187863	-2.488754	4.767413	-0.000812	0.003566	-0.007539	-0.664551	0.522461	-0.405029	0.661103	-0.421764	-0.273879	-0.556820
53459		8.184676	-2.483332	4.811359	-0.002664	0.003012	-0.003864	-0.651611	0.524170	-0.415039	0.661060	-0.421784	-0.273859	-0.556866
53460		8.171768	-2.476715	4.760875	-0.002019	0.003922	-0.004844	-0.674805	0.526367	-0.414307	0.661111	-0.421751	-0.273876	-0.556822
53461		8.183101	-2.478280	4.791985	-0.000675	0.004250	-0.003965	-0.662842	0.528320	-0.405273	0.661083	-0.421738	-0.273873	-0.556867
53462		8.185572	-2.486084	4.833072	-0.001165	0.004857	-0.004467	-0.662842	0.525146	-0.411377	0.661065	-0.421745	-0.273849	-0.556894
53463		8.173836	-2.483679	4.803087	-0.000748	0.004909	-0.001750	-0.664795	0.527832	-0.416748	0.661081	-0.421732	-0.273836	-0.556892
53464		8.163421	-2.485681	4.793239	-0.002736	0.003671	-0.001650	-0.666992	0.527832	-0.414062	0.661106	-0.421723	-0.273831	-0.556871
53465		8.183856	-2.505468	4.777365	-0.003878	0.000534	-0.004121	-0.666260	0.522705	-0.411377	0.661090	-0.421740	-0.273837	-0.556874
53466		8.163424	-2.485109	4.793532	-0.001735	0.003289	-0.005703	-0.662354	0.534912	-0.402344	0.661062	-0.421730	-0.273842	-0.556912
53467		8.182243	-2.476582	4.794328	-0.005497	0.003673	-0.001194	-0.659424	0.526123	-0.419678	0.661043	-0.421793	-0.273779	-0.556919
53468		8.183448	-2.480651	4.814830	-0.002379	0.002379	-0.004723	-0.664551	0.531738	-0.412598	0.661082	-0.421764	-0.273807	-0.556880
53469		8.182298	-2.500206	4.758092	-0.002661	0.003012	-0.003866	-0.664062	0.536865	-0.416992	0.661087	-0.421771	-0.273799	-0.556872
53470		8.163079	-2.484173	4.794604	-0.001680	0.001797	-0.002863	-0.667725	0.525146	-0.415283	0.661127	-0.421774	-0.273806	-0.556819
53471		8.168905	-2.496934	4.791724	-0.000054	0.001492	-0.002840	-0.667236	0.524658	-0.417969	0.661130	-0.421761	-0.273827	-0.556817
53472		8.171767	-2.477405	4.785199	-0.002735	0.003670	-0.001650	-0.665527	0.527588	-0.413086	0.661145	-0.421746	-0.273826	-0.556810
53473		8.168366	-2.472322	4.829282	0.000463	0.004553	-0.004445	-0.657959	0.522461	-0.415771	0.661152	-0.421721	-0.273831	-0.556818
53474		8.175738	-2.513065	4.810046	-0.001114	0.000531	-0.004578	-0.666260	0.529053	-0.414795	0.661174	-0.421701	-0.273869	-0.556788
53475		8.178722	-2.493433	4.803365	-0.005912	0.003621	-0.003914	-0.654297	0.532715	-0.414307	0.661167	-0.421714	-0.273850	-0.556796
53476		8.162637	-2.482188	4.796385	-0.001524	0.003314	-0.004346	-0.665771	0.520996	-0.404053	0.661222	-0.421700	-0.273860	-0.556736
53477		8.181487	-2.473346	4.797288	-0.002014	0.003922	-0.004847	-0.658936	0.524170	-0.409424	0.661167	-0.421712	-0.273839	-0.556803
53478		8.158138	-2.496379	4.783817	-0.002014	0.003922	-0.004848	-0.664307	0.525879	-0.412109	0.661166	-0.421705	-0.273836	-0.556811
53479		8.162325	-2.480721	4.797673	-0.001523	0.003314	-0.004346	-0.669189	0.521484	-0.412354	0.661162	-0.421697	-0.273837	-0.556821
53480		8.181235	-2.471977	4.798424	-0.003511	0.002075	-0.004247	-0.662598	0.531494	-0.407227	0.661123	-0.421704	-0.273837	-0.556863
53481		8.195847	-2.478501	4.785713	-0.000826	0.002732	-0.002485	-0.660645	0.530762	-0.417236	0.661125	-0.421721	-0.273822	-0.556855
53482		8.172330	-2.477841	4.808662	-0.005291	0.000862	-0.002790	-0.668213	0.525635	-0.413574	0.661152	-0.421736	-0.273826	-0.556808
53483		8.176877	-2.486641	4.785378	-0.001678	0.001797	-0.002865	-0.668457	0.526611	-0.416748	0.661142	-0.421738	-0.273832	-0.556816
53484		8.170975	-2.473360	4.788643	-0.003793	0.002708	-0.003391	-0.662109	0.523926	-0.416016	0.661138	-0.421737	-0.273833	-0.556822
53485		8.173803	-2.505628	4.792559	-0.003303	0.002101	-0.002889	-0.659912	0.529053	-0.419434	0.661152	-0.421730	-0.273843	-0.556804
53486		8.170776	-2.473147	4.789092	-0.002734	0.003669	-0.001652	-0.657227	0.531494	-0.405762	0.661210	-0.421711	-0.273849	-0.556748
53487		8.192401	-2.497201	4.793677	-0.002244	0.003062	-0.001150	-0.664795	0.530518	-0.406738	0.661228	-0.421737	-0.273822	-0.556719
53488		8.158603	-2.498803	4.806421	-0.001753	0.002454	-0.000648	-0.662109	0.520508	-0.414062	0.661223	-0.421766	-0.273796	-0.556716
53489		8.173187	-2.505170	4.793849	0.001033	0.003289	-0.006160	-0.661133	0.528076	-0.419189	0.661226	-0.421725	-0.273829	-0.556728
53490		8.161381	-2.478699	4.800324	-0.006836	0.003340	-0.002081	-0.661621	0.528564	-0.413330	0.661258	-0.421729	-0.273818	-0.556692
53491		8.181864	-2.498439	4.784454	0.000232	0.000860	-0.003699	-0.663330	0.524414	-0.411377	0.661277	-0.421722	-0.273843	-0.556663
53492		8.192062	-2.495688	4.795044	-0.001444	0.002657	-0.006565	-0.664551	0.533691	-0.408203	0.661259	-0.421711	-0.273857	-0.556686
53493		8.177377	-2.488345	4.808291	-0.002656	0.003011	-0.003870	-0.656494	0.519043	-0.418213	0.661249	-0.421735	-0.273837	-0.556689
53494		8.162575	-2.481306	4.821574	-0.002939	0.003643	-0.003013	-0.659668	0.529785	-0.411621	0.661288	-0.421701	-0.273855	-0.556659
53495		8.177218	-2.487985	4.808747	-0.003173	-0.000050	-0.002266	-0.665039	0.523682	-0.410400	0.661302	-0.421726	-0.273860	-0.556621
53496		8.176022	-2.483576	4.788429	-0.002734	0.000835	-0.004606	-0.655273	0.525146	-0.415771	0.661273	-0.421739	-0.273868	-0.556643
53497		8.177342	-2.487725	4.808670	-0.005365	0.001517	-0.000576	-0.673340	0.533691	-0.409912	0.661316	-0.421748	-0.273868	-0.556584
53498		8.181724	-2.496770	4.785563	-0.003222	0.004275	-0.002155	-0.666016	0.531494	-0.419678	0.661290	-0.421775	-0.273830	-0.556614
53499		8.181618	-2.496616	4.785825	-0.003017	0.001468	-0.003748	-0.658203	0.529297	-0.411133	0.661313	-0.421769	-0.273848	-0.556581
53500		8.172826	-2.502612	4.795799	-0.003506	0.002075	-0.004251	-0.656250	0.524414	-0.421875	0.661324	-0.421781	-0.273848	-0.556560
53501		8.181459	-2.495792	4.786526	-0.000639	0.007920	-0.006074	-0.665039	0.524414	-0.408936	0.661392	-0.421703	-0.273870	-0.556528
53502		8.176555	-2.486177	4.810809	0.000830	0.006098	-0.004568	-0.665527	0.529297	-0.416992	0.661382	-0.421677	-0.273861	-0.556563
53503		8.161961	-2.502601	4.787792	0.000909	0.005441	-0.006786	-0.663818	0.525146	-0.410156	0.661400	-0.421631	-0.273881	-0.556566
53504		8.170347	-2.471280	4.815404	0.000058	0.004505	-0.007167	-0.664062	0.529541	-0.412842	0.661383	-0.421608	-0.273889	-0.556601
53505		8.166107	-2.485993	4.802172	-0.004796	0.000251	-0.002293	-0.657471	0.524170	-0.409912	0.661380	-0.421640	-0.273885	-0.556582
53506		8.170874	-2.494537	4.778693	0.001783	-0.001617	-0.004410	-0.658936	0.526367	-0.407471	0.661388	-0.421636	-0.273931	-0.556552
53507		8.176563	-2.483018	4.812426	-0.003994	0.002681	-0.004755	-0.657715	0.522461	-0.412842	0.661374	-0.421655	-0.273919	-0.556562
53508		8.187010	-2.504643	4.786196	-0.003504	0.002074	-0.004253	-0.666016	0.530273	-0.413086	0.661381	-0.421652	-0.273929	-0.556550
53509		8.166390	-2.484332	4.802549	-0.000871	0.004226	-0.005330	-0.667969	0.528809	-0.409180	0.661382	-0.421638	-0.273931	-0.556559
53510		8.181026	-2.490469	4.790038	-0.001232	0.002682	-0.005208	-0.663818	0.531738	-0.419189	0.661353	-0.421646	-0.273927	-0.556588
53511		8.164950	-2.478851	4.783217	-0.001849	0.005439	-0.006335	-0.660400	0.527588	-0.412109	0.661384	-0.421611	-0.273939	-0.556573
53512		8.191005	-2.487183	4.801265	-0.004843	0.001744	-0.005137	-0.665527	0.522949	-0.411377	0.661378	-0.421626	-0.273939	-0.556568
53513		8.170877	-2.490765	4.780655	-0.001640	0.002632	-0.007929	-0.656494	0.522949	-0.410156	0.661343	-0.421614	-0.273957	-0.556611
53514		8.189997	-2.481449	4.781330	-0.001512	0.000482	-0.007305	-0.665039	0.524658	-0.420654	0.661334	-0.421609	-0.273989	-0.556609
53515		8.187248	-2.500221	4.788100	-0.004352	0.001136	-0.004635	-0.663818	0.531006	-0.407471	0.661344	-0.421599	-0.274016	-0.556592
53516		8.176864	-2.477702	4.814654	0.000190	0.002355	-0.006544	-0.655762	0.530273	-0.409668	0.661326	-0.421602	-0.274023	-0.556606
53517		8.187399	-2.498879	4.788543	-0.000741	0.002075	-0.004707	-0.669922	0.521240	-0.415039	0.661351	-0.421601	-0.274035	-0.556572
53518		8.156742	-2.480612	4.794388	-0.000251	0.001468	-0.004204	-0.658203	0.518799	-0.412842	0.661331	-0.421586	-0.274060	-0.556595
53519		8.177032	-2.475930	4.815280	-0.000898	0.000557	-0.003224	-0.664062	0.523926	-0.421143	0.661342	-0.421574	-0.274090	-0.556576
53520		8.153697	-2.475285	4.837861	-0.004870	-0.001927	-0.003032	-0.662842	0.524902	-0.408447	0.661355	-0.421582	-0.274129	-0.556535
53521		8.158480	-2.484486	4.814045	-0.009335	-0.000972	-0.000388	-0.656738	0.530029	-0.406494	0.661322	-0.421655	-0.274097	-0.556535
53522		8.174518	-2.495614	4.821193	-0.003990	0.002679	-0.004758	-0.663574	0.529297	-0.413574	0.661320	-0.421679	-0.274081	-0.556527
53523		8.188008	-2.498008	4.787957	-0.007960	0.000195	-0.004567	-0.666016	0.526123	-0.418701	0.661301	-0.421720	-0.274075	-0.556521
53524		8.192170	-2.482820	4.801535	-0.003709	0.004879	-0.002661	-0.667969	0.528809	-0.419922	0.661324	-0.421701	-0.274070	-0.556511
53525		8.176037	-2.471772	4.794509	-0.004635	0.001767	-0.003779	-0.668701	0.528076	-0.413818	0.661333	-0.421701	-0.274082	-0.556494
53526		8.148345	-2.486385	4.803810	-0.003656	0.000553	-0.002774	-0.661865	0.524902	-0.416504	0.661319	-0.421722	-0.274085	-0.556494
53527		8.171899	-2.486954	4.780892	-0.006212	0.000574	-0.000963	-0.659668	0.525391	-0.409180	0.661335	-0.421743	-0.274086	-0.556459
53528		8.186244	-2.470239	4.804433	-0.007504	-0.001250	0.000996	-0.660645	0.525146	-0.411865	0.661330	-0.421806	-0.274064	-0.556427
53529		8.182195	-2.486162	4.790278	-0.008714	-0.003731	0.000736	-0.666748	0.525879	-0.417725	0.661321	-0.421877	-0.274060	-0.556385
53530		8.165178	-2.523378	4.772475	-0.007910	-0.001299	-0.001726	-0.660156	0.533691	-0.413574	0.661313	-0.421915	-0.274065	-0.556365
53531		8.191395	-2.480526	4.779413	-0.003370	-0.000077	-0.003633	-0.658447	0.529541	-0.406250	0.661336	-0.421934	-0.274080	-0.556314
53532		8.192747	-2.484638	4.799610	-0.004429	0.001792	-0.002419	-0.670654	0.526367	-0.414795	0.661336	-0.421969	-0.274060	-0.556299
53533		8.163725	-2.495272	4.788610	-0.006414	0.000550	-0.002325	-0.666260	0.523682	-0.416748	0.661308	-0.422001	-0.274051	-0.556311
53534		8.198715	-2.498005	4.796228	-0.005924	-0.000057	-0.001822	-0.662842	0.523682	-0.418701	0.661304	-0.422021	-0.274059	-0.556298
53535		8.152153	-2.469729	4.794139	-0.006931	-0.002514	-0.000723	-0.665771	0.523926	-0.416504	0.661315	-0.422052	-0.274081	-0.556249
53536		8.209250	-2.496551	4.805552	-0.005510	-0.002839	-0.002058	-0.664551	0.531006	-0.420898	0.661306	-0.422083	-0.274107	-0.556225
53537		8.188018	-2.496502	4.764062	-0.004218	-0.001014	-0.004016	-0.669922	0.534912	-0.409668	0.661333	-0.422087	-0.274146	-0.556171
53538		8.199503	-2.498397	4.794675	-0.000332	0.002127	-0.001984	-0.668945	0.522705	-0.416992	0.661332	-0.422102	-0.274137	-0.556164
53539		8.179179	-2.502479	4.774140	-0.003579	0.002729	-0.002037	-0.663330	0.526611	-0.410889	0.661330	-0.422096	-0.274140	-0.556169
53540		8.153808	-2.473693	4.813903	0.001652	0.003369	-0.002078	-0.662109	0.520996	-0.413818	0.661352	-0.422076	-0.274150	-0.556154
53541		8.180131	-2.506382	4.795136	-0.003375	0.002753	-0.000676	-0.667725	0.528809	-0.410156	0.661367	-0.422074	-0.274148	-0.556139
53542		8.171173	-2.512893	4.805133	-0.004224	0.001816	-0.001059	-0.649414	0.521973	-0.414551	0.661353	-0.422104	-0.274127	-0.556142
53543		8.174100	-2.493570	4.798337	-0.004991	0.000224	-0.003661	-0.662109	0.519287	-0.413330	0.661396	-0.422104	-0.274159	-0.556076
53544		8.180116	-2.506265	4.795222	-0.002076	0.001749	-0.005592	-0.662598	0.525146	-0.413330	0.661385	-0.422087	-0.274185	-0.556089
53545		8.190268	-2.503560	4.805851	-0.001227	0.002686	-0.005210	-0.666992	0.524170	-0.411621	0.661390	-0.422069	-0.274205	-0.556086
53546		8.172865	-2.487747	4.778829	-0.000017	0.005167	-0.004948	-0.661865	0.531250	-0.414551	0.661381	-0.422042	-0.274207	-0.556117
53547		8.185730	-2.517393	4.793616	0.001321	0.005497	-0.004063	-0.666260	0.526123	-0.399658	0.661427	-0.422003	-0.274220	-0.556086
53548		8.199850	-2.499580	4.818111	-0.001511	0.003316	-0.004352	-0.670898	0.528076	-0.415283	0.661367	-0.422032	-0.274185	-0.556152
53549		8.166413	-2.472995	4.783751	-0.000662	0.004253	-0.003970	-0.665283	0.532959	-0.409912	0.661366	-0.422012	-0.274189	-0.556167
53550		8.192331	-2.481440	4.801974	0.000030	0.003671	-0.002105	-0.665771	0.530762	-0.419922	0.661382	-0.422012	-0.274179	-0.556152
53551		8.192676	-2.505149	4.765410	-0.000691	0.000583	-0.001865	-0.660156	0.527100	-0.412598	0.661426	-0.421998	-0.274214	-0.556093
53552		8.160416	-2.510779	4.798055	0.001218	-0.000348	-0.002696	-0.659668	0.525879	-0.413574	0.661454	-0.421990	-0.274253	-0.556047
53553		8.176389	-2.469581	4.795037	-0.001180	0.001190	-0.002368	-0.666260	0.530762	-0.416748	0.661483	-0.421984	-0.274275	-0.556007
53554		8.159223	-2.505953	4.777968	-0.003005	0.001466	-0.003756	-0.666260	0.527588	-0.410400	0.661497	-0.421984	-0.274291	-0.555982
53555		8.173539	-2.488314	4.802021	0.001579	0.001196	-0.002816	-0.661865	0.520996	-0.410645	0.661498	-0.421979	-0.274309	-0.555976
53556		8.159095	-2.505282	4.778538	-0.002368	0.005208	-0.001777	-0.659668	0.520508	-0.407959	0.661505	-0.421967	-0.274293	-0.555985
53557		8.173051	-2.488073	4.802976	-0.003014	0.004295	-0.000799	-0.666016	0.525635	-0.406738	0.661508	-0.421971	-0.274270	-0.555990
53558		8.191749	-2.479638	4.803897	-0.001953	0.002427	-0.002013	-0.660156	0.526123	-0.406250	0.661484	-0.421990	-0.274251	-0.556012
53559		8.167355	-2.498887	4.769675	-0.003651	0.000552	-0.002778	-0.658447	0.522461	-0.416504	0.661468	-0.422023	-0.274243	-0.556011
53560		8.178788	-2.500759	4.800359	-0.001869	0.001772	-0.004233	-0.657227	0.537109	-0.415527	0.661498	-0.421999	-0.274279	-0.555975
53561		8.174627	-2.515572	4.786992	-0.001179	0.001190	-0.002368	-0.665283	0.528809	-0.409424	0.661564	-0.421998	-0.274302	-0.555886
53562		8.153889	-2.495509	4.803362	-0.004596	0.005436	-0.005891	-0.670898	0.522461	-0.414062	0.661540	-0.422003	-0.274276	-0.555923
53563		8.188698	-2.446020	4.800939	-0.006970	-0.001022	-0.003573	-0.656738	0.534668	-0.403809	0.661491	-0.422040	-0.274279	-0.555952
53564		8.177540	-2.495492	4.780600	-0.001020	0.002710	-0.003850	-0.659912	0.534912	-0.418213	0.661502	-0.422060	-0.274265	-0.555931
53565		8.208626	-2.536371	4.738685	-0.001191	0.006357	-0.007318	-0.669434	0.530273	-0.415039	0.661553	-0.422015	-0.274284	-0.555895
53566		8.152393	-2.489273	4.784530	0.000433	0.006057	-0.007291	-0.666016	0.529541	-0.415771	0.661553	-0.421974	-0.274295	-0.555920
53567		8.152272	-2.488462	4.785158	0.000116	0.003016	-0.004327	-0.667725	0.519043	-0.403076	0.661573	-0.421951	-0.274317	-0.555904
53568		8.203157	-2.501077	4.800830	0.000561	0.003906	-0.006668	-0.662598	0.525146	-0.412842	0.661508	-0.421943	-0.274310	-0.555990
53569		8.158960	-2.480583	4.839823	-0.004783	0.000244	-0.002305	-0.660889	0.528809	-0.415771	0.661507	-0.421965	-0.274315	-0.555972
53570		8.187646	-2.513555	4.756923	-0.000329	0.002127	-0.001986	-0.664795	0.526611	-0.417480	0.661552	-0.421949	-0.274338	-0.555919
53571		8.191730	-2.498287	4.770635	-0.004911	0.002394	-0.002929	-0.663818	0.524658	-0.407471	0.661566	-0.421950	-0.274345	-0.555899
53572		8.172204	-2.482824	4.807132	-0.002239	0.003056	-0.001155	-0.670654	0.529541	-0.411133	0.661557	-0.421965	-0.274324	-0.555908
53573		8.182128	-2.480808	4.817771	-0.004709	0.002418	-0.001567	-0.660400	0.523682	-0.407959	0.661536	-0.421995	-0.274298	-0.555924
53574		8.159048	-2.504679	4.803566	-0.007052	-0.000371	-0.001355	-0.661133	0.518799	-0.411377	0.661514	-0.422045	-0.274281	-0.555919
53575		8.191514	-2.498964	4.770652	-0.005429	-0.000670	-0.001327	-0.661133	0.525391	-0.414062	0.661503	-0.422072	-0.274288	-0.555909
53576		8.183904	-2.509480	4.800879	-0.003256	0.005766	-0.005007	-0.667480	0.529053	-0.416504	0.661519	-0.422049	-0.274286	-0.555909
53577		8.174939	-2.515481	4.811146	-0.002152	0.002403	-0.003377	-0.662354	0.526611	-0.415283	0.661531	-0.422041	-0.274300	-0.555893
53578		8.191283	-2.497889	4.771611	-0.000772	0.003577	-0.007555	-0.658936	0.526367	-0.418457	0.661541	-0.422008	-0.274332	-0.555891
53579		8.155346	-2.498691	4.848431	-0.002895	0.007310	-0.005128	-0.657959	0.535156	-0.417725	0.661590	-0.421961	-0.274340	-0.555865
53580		8.211596	-2.516072	4.757003	0.001700	0.004215	-0.007144	-0.655762	0.522461	-0.414062	0.661653	-0.421911	-0.274385	-0.555805
53581		8.176024	-2.488806	4.786674	-0.000497	0.005774	-0.005455	-0.660645	0.525635	-0.405762	0.661690	-0.421865	-0.274405	-0.555787
53582		8.153889	-2.463995	4.783226	-0.000897	0.005727	-0.008181	-0.667236	0.527832	-0.415039	0.661665	-0.421847	-0.274398	-0.555833
53583		8.168076	-2.497472	4.818420	0.000312	0.008209	-0.007918	-0.676025	0.525146	-0.417236	0.661670	-0.421793	-0.274402	-0.555867
53584		8.171186	-2.500948	4.775909	-0.002644	0.008175	-0.008835	-0.659180	0.531494	-0.412354	0.661632	-0.421751	-0.274393	-0.555948
53585		8.157373	-2.497826	4.809974	-0.002404	0.006702	-0.004627	-0.661133	0.529297	-0.414062	0.661663	-0.421731	-0.274379	-0.555932
53586		8.190840	-2.495268	4.798356	-0.001740	0.004789	-0.008567	-0.657471	0.525391	-0.409912	0.661671	-0.421703	-0.274398	-0.555936
53587		8.165355	-2.466121	4.838226	-0.003610	0.004220	-0.004892	-0.660156	0.529785	-0.407471	0.661676	-0.421700	-0.274392	-0.555934
53588		8.175905	-2.487541	4.812123	-0.004457	0.003282	-0.005277	-0.665527	0.519775	-0.412109	0.661663	-0.421720	-0.274374	-0.555944
53589		8.180592	-2.495834	4.789039	-0.000725	0.002080	-0.004713	-0.656494	0.530273	-0.422119	0.661644	-0.421706	-0.274393	-0.555967
53590		8.199469	-2.486908	4.789897	-0.002148	0.002401	-0.003380	-0.656250	0.529053	-0.410889	0.661721	-0.421676	-0.274435	-0.555877
53591		8.191928	-2.497204	4.820083	-0.000886	0.000559	-0.003231	-0.660400	0.531006	-0.418457	0.661751	-0.421680	-0.274458	-0.555828
53592		8.154000	-2.462001	4.808625	-0.001373	0.001165	-0.003735	-0.657959	0.527344	-0.409668	0.661797	-0.421665	-0.274495	-0.555765
53593		8.161862	-2.503200	4.788746	-0.004739	-0.001257	0.000535	-0.663330	0.526123	-0.413574	0.661813	-0.421710	-0.274493	-0.555714
53594		8.148532	-2.501296	4.821337	-0.005946	-0.003739	0.000270	-0.662109	0.537109	-0.408936	0.661810	-0.421764	-0.274505	-0.555670
53595		8.156495	-2.491028	4.790413	-0.006703	-0.005330	-0.002337	-0.657959	0.527832	-0.405029	0.661796	-0.421847	-0.274514	-0.555619
53596		8.197853	-2.506937	4.794136	-0.012703	-0.004746	-0.001952	-0.657471	0.532227	-0.411865	0.661747	-0.421959	-0.274489	-0.555606
53597		8.188281	-2.509650	4.782541	-0.011279	-0.005067	-0.003286	-0.663818	0.528809	-0.418213	0.661734	-0.422045	-0.274496	-0.555552
53598		8.193442	-2.518807	4.758171	-0.011405	-0.002917	-0.003911	-0.660645	0.527344	-0.410400	0.661718	-0.422104	-0.274508	-0.555520
53599		8.178434	-2.488508	4.807323	-0.008776	-0.000755	-0.004979	-0.673340	0.528564	-0.415527	0.661690	-0.422153	-0.274505	-0.555517
53600		8.169906	-2.494934	4.816632	-0.008288	-0.001361	-0.004476	-0.656494	0.523682	-0.410645	0.661642	-0.422200	-0.274505	-0.555539
53601		8.182386	-2.492891	4.762882	-0.005173	0.000194	-0.005039	-0.662109	0.522949	-0.408936	0.661639	-0.422217	-0.274522	-0.555522
53602		8.183773	-2.497050	4.782966	-0.005262	0.000846	-0.002816	-0.652100	0.529053	-0.412354	0.661619	-0.422245	-0.274515	-0.555528
53603		8.170435	-2.494638	4.815888	-0.003711	-0.001625	-0.003528	-0.666260	0.529297	-0.410645	0.661657	-0.422262	-0.274552	-0.555451
53604		8.200150	-2.507894	4.789705	-0.005908	-0.000069	-0.001839	-0.659668	0.531494	-0.408203	0.661641	-0.422304	-0.274542	-0.555443
53605		8.195544	-2.499172	4.812910	-0.002019	0.000252	-0.002757	-0.667725	0.529785	-0.412354	0.661654	-0.422325	-0.274551	-0.555408
53606		8.175416	-2.503059	4.792201	-0.001013	0.002712	-0.003854	-0.658447	0.533936	-0.410400	0.661655	-0.422319	-0.274558	-0.555407
53607		8.195474	-2.498404	4.813427	0.000320	0.003044	-0.002964	-0.657959	0.524414	-0.413818	0.661699	-0.422309	-0.274570	-0.555356
53608		8.184004	-2.495976	4.783133	-0.000128	0.002151	-0.000623	-0.666748	0.533203	-0.418213	0.661747	-0.422291	-0.274592	-0.555302
53609		8.189805	-2.508624	4.780470	0.000481	0.004565	-0.004447	-0.659668	0.535889	-0.416504	0.661788	-0.422253	-0.274615	-0.555271
53610		8.174895	-2.501219	4.794051	0.001904	0.004245	-0.005780	-0.661865	0.526855	-0.412354	0.661850	-0.422208	-0.274654	-0.555212
53611		8.189403	-2.507134	4.781939	-0.001556	0.007642	-0.004241	-0.661377	0.532227	-0.415771	0.661873	-0.422175	-0.274640	-0.555216
53612		8.162387	-2.473959	4.801931	0.000482	0.004565	-0.004447	-0.657715	0.521240	-0.417969	0.661921	-0.422139	-0.274663	-0.555176
53613		8.176970	-2.480102	4.789575	0.000033	0.003672	-0.002105	-0.661133	0.527832	-0.420654	0.661974	-0.422097	-0.274694	-0.555129
53614		8.190023	-2.510289	4.803852	-0.002595	0.001509	-0.001039	-0.659424	0.527100	-0.411865	0.662029	-0.422083	-0.274722	-0.555060
53615		8.182733	-2.492885	4.786917	-0.002145	0.002402	-0.003381	-0.658936	0.529541	-0.409668	0.662048	-0.422080	-0.274733	-0.555034
53616		8.182655	-2.492757	4.787117	-0.003081	0.002115	-0.001544	-0.661377	0.526367	-0.416016	0.662071	-0.422094	-0.274729	-0.554998
53617		8.187238	-2.501673	4.763882	-0.004017	0.001828	0.000294	-0.662109	0.523438	-0.412598	0.662105	-0.422102	-0.274731	-0.554950
53618		8.189659	-2.510300	4.804468	-0.001658	0.001796	-0.002877	-0.657227	0.531006	-0.413818	0.662112	-0.422097	-0.274744	-0.554940
53619		8.168833	-2.490720	4.820631	-0.005836	0.002102	-0.001101	-0.660156	0.521729	-0.412109	0.662152	-0.422116	-0.274740	-0.554879
53620		8.195494	-2.523221	4.801616	0.001097	0.001809	-0.003320	-0.657715	0.523926	-0.412109	0.662166	-0.422093	-0.274769	-0.554865
53621		8.164633	-2.505297	4.807534	-0.002631	0.003008	-0.003886	-0.661377	0.528564	-0.414551	0.662183	-0.422083	-0.274780	-0.554848
53622		8.169315	-2.513544	4.784484	-0.001207	0.002689	-0.005219	-0.670898	0.531982	-0.411865	0.662203	-0.422064	-0.274805	-0.554826
53623		8.167343	-2.484872	4.801609	-0.000651	0.004256	-0.003974	-0.662598	0.530518	-0.423340	0.662197	-0.422056	-0.274798	-0.554842
53624		8.192093	-2.488866	4.799542	-0.002828	0.002985	-0.005251	-0.666748	0.529541	-0.414795	0.662245	-0.422024	-0.274837	-0.554790
53625		8.169106	-2.512268	4.785511	-0.004412	0.001782	-0.002435	-0.659180	0.532471	-0.413330	0.662247	-0.422038	-0.274836	-0.554777
53626		8.173076	-2.497136	4.799278	-0.004539	0.003933	-0.003058	-0.672852	0.531006	-0.416260	0.662281	-0.422042	-0.274830	-0.554736
53627		8.173125	-2.496980	4.799276	-0.006010	-0.000746	-0.005432	-0.670898	0.523438	-0.417480	0.662245	-0.422072	-0.274841	-0.554752
53628		8.194160	-2.516254	4.782933	-0.003057	-0.000710	-0.004510	-0.656494	0.530029	-0.405029	0.662217	-0.422077	-0.274869	-0.554767
53629		8.188277	-2.502730	4.786174	-0.002178	0.003901	-0.006230	-0.665039	0.518799	-0.413330	0.662218	-0.422078	-0.274866	-0.554766
53630		8.188341	-2.502021	4.786434	-0.001761	0.001122	-0.006467	-0.662109	0.526611	-0.416748	0.662187	-0.422066	-0.274893	-0.554799
53631		8.184370	-2.516200	4.773178	0.000380	0.003893	-0.008037	-0.662842	0.532471	-0.407227	0.662205	-0.422019	-0.274935	-0.554793
53632		8.189690	-2.504421	4.807482	-0.000557	0.003605	-0.006199	-0.663818	0.528809	-0.417480	0.662201	-0.422015	-0.274938	-0.554799
53633		8.174873	-2.496784	4.820986	0.001029	0.004809	-0.009016	-0.664062	0.541260	-0.413818	0.662220	-0.421959	-0.274981	-0.554798
53634		8.163466	-2.493767	4.790932	-0.002269	0.004552	-0.004007	-0.669189	0.527832	-0.408936	0.662264	-0.421955	-0.274980	-0.554749
53635		8.173350	-2.491121	4.801936	-0.001331	0.004839	-0.005845	-0.661377	0.534424	-0.412598	0.662235	-0.421947	-0.274968	-0.554796
53636		8.172028	-2.486386	4.782067	-0.005092	0.002363	-0.004307	-0.661133	0.530029	-0.413574	0.662251	-0.421964	-0.274967	-0.554764
53637		8.189274	-2.501311	4.809808	-0.002627	0.003007	-0.003889	-0.660156	0.525879	-0.413818	0.662274	-0.421959	-0.274976	-0.554736
53638		8.157116	-2.479259	4.795459	-0.002141	0.002401	-0.003385	-0.663818	0.529541	-0.414062	0.662294	-0.421950	-0.274992	-0.554711
53639		8.187977	-2.496512	4.789933	-0.003633	0.000545	-0.002793	-0.667236	0.528564	-0.411377	0.662304	-0.421965	-0.275004	-0.554682
53640		8.164348	-2.496340	4.812674	-0.003079	0.002113	-0.001547	-0.656982	0.527344	-0.409180	0.662300	-0.421981	-0.274993	-0.554680
53641		8.181978	-2.483378	4.793145	-0.003829	0.000523	-0.004158	-0.665039	0.525146	-0.415527	0.662304	-0.421999	-0.275005	-0.554655
53642		8.175139	-2.517617	4.786321	-0.002626	0.003007	-0.003890	-0.663330	0.534912	-0.415283	0.662309	-0.421988	-0.275014	-0.554653
53643		8.164211	-2.495644	4.813267	0.001365	0.004006	-0.001214	-0.666260	0.528809	-0.410156	0.662370	-0.421963	-0.275029	-0.554592
53644		8.167394	-2.499750	4.770394	-0.002199	0.006724	-0.003267	-0.663574	0.528076	-0.418213	0.662372	-0.421952	-0.275001	-0.554613
53645		8.164794	-2.499271	4.834955	-0.001618	0.005468	-0.004987	-0.665771	0.527832	-0.414795	0.662401	-0.421916	-0.275014	-0.554598
53646		8.188157	-2.499018	4.812902	-0.002557	0.005179	-0.003149	-0.661865	0.528809	-0.409912	0.662414	-0.421901	-0.275006	-0.554598
53647		8.177929	-2.500866	4.802905	-0.002624	0.003006	-0.003891	-0.668457	0.527832	-0.421875	0.662417	-0.421905	-0.275003	-0.554592
53648		8.186750	-2.494052	4.793310	-0.003178	0.001439	-0.005138	-0.665527	0.526611	-0.414551	0.662426	-0.421890	-0.275035	-0.554577
53649		8.192778	-2.506671	4.790327	-0.002138	0.002401	-0.003386	-0.668457	0.528809	-0.414062	0.662431	-0.421885	-0.275044	-0.554571
53650		8.176018	-2.471571	4.820152	-0.002043	0.001750	-0.005611	-0.670166	0.530029	-0.420166	0.662416	-0.421883	-0.275060	-0.554582
53651		8.205688	-2.484209	4.794509	-0.003953	0.002673	-0.004784	-0.664551	0.530518	-0.416504	0.662420	-0.421875	-0.275074	-0.554577
53652		8.183986	-2.512052	4.800622	-0.002591	0.001506	-0.001043	-0.660645	0.532715	-0.410889	0.662451	-0.421879	-0.275085	-0.554531
53653		8.159223	-2.507487	4.802988	-0.002564	-0.001317	-0.004011	-0.665771	0.526367	-0.416016	0.662461	-0.421902	-0.275111	-0.554489
53654		8.177173	-2.494294	4.783041	-0.002921	-0.002862	-0.003893	-0.668457	0.524902	-0.413330	0.662452	-0.421920	-0.275151	-0.554465
53655		8.195468	-2.532946	4.773330	0.000095	-0.000650	-0.002225	-0.661133	0.531250	-0.414307	0.662445	-0.421924	-0.275176	-0.554460
53656		8.183468	-2.506566	4.779789	-0.001975	0.003923	-0.004870	-0.665283	0.533203	-0.413574	0.662472	-0.421907	-0.275189	-0.554433
53657		8.168558	-2.499312	4.793225	0.002400	0.003646	-0.005277	-0.654785	0.530518	-0.408936	0.662500	-0.421874	-0.275217	-0.554411
53658		8.178347	-2.496505	4.804462	-0.001549	0.007640	-0.004246	-0.662109	0.521484	-0.410156	0.662542	-0.421848	-0.275203	-0.554388
53659		8.159327	-2.504543	4.804347	-0.002041	0.001750	-0.005613	-0.662109	0.523682	-0.414062	0.662519	-0.421845	-0.275216	-0.554410
53660		8.168173	-2.497556	4.794796	-0.002817	0.002983	-0.005259	-0.662842	0.529297	-0.408936	0.662518	-0.421833	-0.275229	-0.554414
53661		8.187061	-2.488518	4.795655	-0.003174	0.001438	-0.005141	-0.665283	0.525146	-0.415527	0.662504	-0.421849	-0.275233	-0.554418
53662		8.187864	-2.511935	4.758823	-0.001651	0.001794	-0.002882	-0.659180	0.529053	-0.420166	0.662513	-0.421841	-0.275249	-0.554405
53663		8.166346	-2.468237	4.811874	-0.002397	0.000205	-0.005496	-0.666504	0.523682	-0.410645	0.662551	-0.421825	-0.275302	-0.554345
53664		8.169769	-2.500111	4.815315	-0.000583	-0.000067	-0.004097	-0.667236	0.531006	-0.413086	0.662528	-0.421830	-0.275322	-0.554359
53665		8.184805	-2.505932	4.802425	-0.001942	0.001100	-0.007840	-0.657959	0.538086	-0.416016	0.662509	-0.421828	-0.275348	-0.554370
53666		8.162863	-2.481507	4.798320	-0.002979	0.001460	-0.003776	-0.662109	0.526367	-0.419189	0.662565	-0.421830	-0.275375	-0.554288
53667		8.160177	-2.500490	4.805013	-0.003367	0.001416	-0.006508	-0.663574	0.529541	-0.414062	0.662578	-0.421814	-0.275413	-0.554266
53668		8.154288	-2.486956	4.808213	0.000746	0.000268	-0.003204	-0.667236	0.527100	-0.411133	0.662601	-0.421805	-0.275449	-0.554228
53669		8.170658	-2.496979	4.815432	0.004017	-0.003142	-0.006107	-0.655518	0.525146	-0.410889	0.662586	-0.421796	-0.275514	-0.554221
53670		8.202032	-2.513165	4.809640	0.003047	-0.001931	-0.007118	-0.664307	0.532715	-0.409668	0.662601	-0.421774	-0.275588	-0.554181
53671		8.214848	-2.509643	4.756251	0.003017	-0.000431	-0.009969	-0.665283	0.530029	-0.416016	0.662590	-0.421754	-0.275649	-0.554181
53672		8.173455	-2.469192	4.788532	0.003763	0.001159	-0.007355	-0.665039	0.522217	-0.412109	0.662610	-0.421711	-0.275711	-0.554158
53673		8.194534	-2.487463	4.772757	0.002629	0.000847	-0.006883	-0.666748	0.525146	-0.410400	0.662596	-0.421682	-0.275757	-0.554174
53674		8.183965	-2.464686	4.799396	0.001786	-0.000093	-0.007271	-0.666748	0.520996	-0.417480	0.662571	-0.421669	-0.275798	-0.554193
53675		8.157759	-2.483413	4.828702	0.000292	-0.000628	-0.000860	-0.665039	0.530273	-0.417969	0.662586	-0.421660	-0.275834	-0.554165
53676		8.171455	-2.485595	4.795420	-0.004276	-0.000377	-0.001820	-0.660156	0.524170	-0.417969	0.662609	-0.421677	-0.275854	-0.554114
53677		8.181553	-2.483619	4.805682	-0.004568	0.000251	-0.000960	-0.663818	0.526367	-0.416504	0.662640	-0.421686	-0.275873	-0.554060
53678		8.183524	-2.511965	4.788926	-0.006316	0.002694	-0.001617	-0.667725	0.531982	-0.412354	0.662655	-0.421700	-0.275864	-0.554037
53679		8.190069	-2.477553	4.796196	-0.007609	0.006032	-0.004619	-0.670898	0.531494	-0.412354	0.662642	-0.421717	-0.275824	-0.554060
53680		8.156121	-2.479712	4.808846	-0.008257	0.005114	-0.003641	-0.659668	0.522217	-0.415527	0.662617	-0.421746	-0.275777	-0.554091
53681		8.173982	-2.518753	4.799785	-0.010554	0.005990	-0.005547	-0.662842	0.527344	-0.403320	0.662607	-0.421755	-0.275747	-0.554110
53682		8.181294	-2.508031	4.770206	-0.011038	0.006595	-0.006054	-0.666992	0.534424	-0.410400	0.662551	-0.421800	-0.275673	-0.554180
53683		8.188902	-2.477706	4.798109	-0.007083	0.009100	-0.006223	-0.665039	0.535400	-0.416748	0.662540	-0.421802	-0.275619	-0.554218
53684		8.178576	-2.479471	4.788347	-0.005885	0.005090	-0.006815	-0.659668	0.527100	-0.413086	0.662553	-0.421798	-0.275616	-0.554208
53685		8.203249	-2.483372	4.786489	-0.003715	0.006365	-0.005532	-0.670166	0.530762	-0.411377	0.662570	-0.421777	-0.275608	-0.554207
53686		8.174095	-2.493603	4.776097	-0.000769	0.006407	-0.004604	-0.668945	0.527588	-0.416016	0.662567	-0.421758	-0.275591	-0.554234
53687		8.173873	-2.492834	4.776878	0.001436	0.004861	-0.006291	-0.661865	0.529297	-0.411621	0.662574	-0.421714	-0.275613	-0.554247
53688		8.178829	-2.481283	4.811522	-0.001253	0.007012	-0.005111	-0.658691	0.521973	-0.411865	0.662594	-0.421686	-0.275604	-0.554249
53689		8.174678	-2.495818	4.798510	0.001107	0.001814	-0.003323	-0.659668	0.530762	-0.413574	0.662615	-0.421664	-0.275633	-0.554226
53690		8.169817	-2.486477	4.822288	0.002891	0.003046	-0.004773	-0.664551	0.521240	-0.406494	0.662660	-0.421627	-0.275672	-0.554182
53691		8.189324	-2.500793	4.786761	0.000367	0.006720	-0.005077	-0.658203	0.530762	-0.417236	0.662640	-0.421600	-0.275653	-0.554235
53692		8.191033	-2.456793	4.817841	0.001081	0.003316	-0.006175	-0.665283	0.533447	-0.411377	0.662690	-0.421558	-0.275699	-0.554185
53693		8.189124	-2.499201	4.787934	0.000139	0.003024	-0.004336	-0.666504	0.528320	-0.419189	0.662705	-0.421549	-0.275709	-0.554168
53694		8.180188	-2.505116	4.798203	-0.001123	0.004861	-0.004489	-0.661133	0.527832	-0.415771	0.662732	-0.421516	-0.275725	-0.554154
53695		8.188819	-2.497952	4.789108	-0.000180	0.005152	-0.006328	-0.662598	0.526611	-0.412842	0.662759	-0.421477	-0.275746	-0.554141
53696		8.167762	-2.477753	4.805759	-0.000829	0.004234	-0.005350	-0.658447	0.531738	-0.410645	0.662768	-0.421455	-0.275757	-0.554141
53697		8.189700	-2.500968	4.810578	-0.003710	0.006362	-0.005538	-0.663574	0.527100	-0.419678	0.662789	-0.421445	-0.275742	-0.554132
53698		8.182283	-2.483274	4.793954	-0.003939	0.002666	-0.004796	-0.666748	0.528320	-0.410645	0.662807	-0.421433	-0.275762	-0.554109
53699		8.185558	-2.515344	4.797669	-0.002613	0.003002	-0.003901	-0.664307	0.531250	-0.408936	0.662796	-0.421440	-0.275753	-0.554121
53700		8.168244	-2.499685	4.770435	-0.003479	0.003563	-0.007143	-0.660645	0.525879	-0.410156	0.662776	-0.421446	-0.275748	-0.554143
53701		8.183358	-2.486170	4.815145	-0.001962	0.003920	-0.004880	-0.666504	0.530762	-0.408203	0.662778	-0.421438	-0.275748	-0.554147
53702		8.161067	-2.461903	4.811456	-0.000636	0.004256	-0.003984	-0.658936	0.533936	-0.409668	0.662774	-0.421435	-0.275736	-0.554160
53703		8.154273	-2.496061	4.804835	-0.002128	0.002397	-0.003395	-0.663818	0.532471	-0.406738	0.662799	-0.421444	-0.275738	-0.554121
53704		8.181844	-2.480645	4.796063	-0.002127	0.002397	-0.003395	-0.657715	0.524170	-0.416260	0.662795	-0.421463	-0.275727	-0.554118
53705		8.177791	-2.495279	4.782885	0.000499	0.004570	-0.004456	-0.656250	0.520508	-0.412598	0.662836	-0.421421	-0.275753	-0.554088
53706		8.171585	-2.481684	4.786588	-0.000342	0.003629	-0.004845	-0.668457	0.524902	-0.409424	0.662855	-0.421392	-0.275774	-0.554077
53707		8.173843	-2.490058	4.827431	-0.002230	0.003045	-0.001167	-0.659668	0.521729	-0.417480	0.662840	-0.421405	-0.275752	-0.554095
53708		8.172509	-2.485644	4.807477	-0.003746	0.002687	-0.003432	-0.664307	0.523926	-0.409668	0.662859	-0.421394	-0.275767	-0.554073
53709		8.162468	-2.487594	4.797159	-0.001158	0.001187	-0.002382	-0.662842	0.527588	-0.416260	0.662851	-0.421403	-0.275771	-0.554074
53710		8.193472	-2.504774	4.791588	-0.004753	0.000223	-0.002336	-0.663086	0.535156	-0.410889	0.662864	-0.421421	-0.275783	-0.554040
53711		8.167715	-2.476736	4.830854	-0.003618	0.000537	-0.002807	-0.668457	0.530273	-0.416260	0.662874	-0.421449	-0.275784	-0.554005
53712		8.182601	-2.483337	4.817893	-0.004856	0.000871	-0.000108	-0.664307	0.528809	-0.412354	0.662885	-0.421476	-0.275776	-0.553976
53713		8.175219	-2.466367	4.800830	-0.006308	0.002685	-0.001629	-0.658447	0.518555	-0.412598	0.662885	-0.421504	-0.275752	-0.553966
53714		8.203319	-2.503373	4.801949	-0.005823	0.002081	-0.001122	-0.658203	0.525635	-0.422852	0.662887	-0.421522	-0.275742	-0.553956
53715		8.187264	-2.492762	4.794469	-0.005592	-0.000718	-0.002727	-0.666016	0.525391	-0.406738	0.662926	-0.421527	-0.275781	-0.553886
53716		8.178445	-2.499308	4.804200	-0.002230	0.003045	-0.001167	-0.658447	0.526367	-0.405273	0.662911	-0.421544	-0.275755	-0.553903
53717		8.193108	-2.505748	4.791702	-0.003197	0.004255	-0.002182	-0.660400	0.527832	-0.413818	0.662912	-0.421558	-0.275727	-0.553906
53718		8.166993	-2.477617	4.831623	-0.002546	0.005174	-0.003160	-0.661621	0.532471	-0.418945	0.662939	-0.421543	-0.275721	-0.553887
53719		8.161684	-2.488340	4.798106	-0.004204	0.001790	-0.001087	-0.668945	0.518799	-0.417236	0.662985	-0.421550	-0.275731	-0.553823
53720		8.175658	-2.471247	4.822065	-0.005107	-0.001323	-0.002221	-0.664062	0.528076	-0.416016	0.662958	-0.421572	-0.275745	-0.553830
53721		8.185606	-2.488852	4.774809	-0.008320	-0.002245	0.000559	-0.673828	0.523438	-0.417725	0.662961	-0.421630	-0.275742	-0.553785
53722		8.168155	-2.502461	4.793678	-0.005567	-0.002221	0.000124	-0.657471	0.529541	-0.415283	0.662937	-0.421670	-0.275747	-0.553780
53723		8.193125	-2.507016	4.791009	-0.003909	0.001164	-0.001948	-0.666016	0.527588	-0.406250	0.662974	-0.421679	-0.275761	-0.553722
53724		8.187049	-2.494013	4.794185	-0.004583	0.001747	-0.003823	-0.661865	0.525146	-0.409424	0.662938	-0.421711	-0.275739	-0.553752
53725		8.189224	-2.521739	4.777526	-0.002314	0.002376	-0.004764	-0.662842	0.524170	-0.417725	0.662927	-0.421713	-0.275743	-0.553761
53726		8.152155	-2.490954	4.786572	0.001762	0.002737	-0.004301	-0.661865	0.531982	-0.406982	0.662958	-0.421671	-0.275784	-0.553735
53727		8.178162	-2.498919	4.804884	-0.000822	0.004237	-0.005352	-0.659668	0.532227	-0.405029	0.662958	-0.421666	-0.275777	-0.553742
53728		8.171949	-2.485372	4.808569	-0.002440	0.004526	-0.005389	-0.654053	0.523193	-0.416748	0.662954	-0.421672	-0.275759	-0.553752
53729		8.179159	-2.502299	4.825944	-0.001156	0.001188	-0.002383	-0.665283	0.524170	-0.418457	0.663002	-0.421655	-0.275796	-0.553689
53730		8.177963	-2.497646	4.805885	-0.003930	0.002666	-0.004802	-0.666260	0.530518	-0.413818	0.663004	-0.421644	-0.275812	-0.553687
53731		8.176786	-2.493162	4.785705	-0.002941	-0.000047	-0.000935	-0.664062	0.519043	-0.418457	0.663015	-0.421667	-0.275818	-0.553654
53732		8.177912	-2.497532	4.806031	-0.000611	0.002755	-0.001131	-0.658691	0.529053	-0.412842	0.663040	-0.421641	-0.275838	-0.553633
53733		8.171752	-2.484435	4.809388	-0.000672	0.000583	-0.001876	-0.664551	0.528809	-0.411377	0.663074	-0.421642	-0.275861	-0.553581
53734		8.163959	-2.514549	4.782088	-0.003424	0.000558	-0.001442	-0.659424	0.526367	-0.416504	0.663075	-0.421666	-0.275859	-0.553563
53735		8.173971	-2.512288	4.792613	-0.003446	0.002061	-0.004296	-0.657227	0.529785	-0.413086	0.663096	-0.421659	-0.275880	-0.553532
53736		8.167794	-2.499084	4.796056	-0.003384	0.004233	-0.003551	-0.663818	0.531250	-0.412109	0.663127	-0.421653	-0.275879	-0.553500
53737		8.192567	-2.502917	4.794106	-0.002143	0.003901	-0.006251	-0.662109	0.524170	-0.407471	0.663127	-0.421643	-0.275883	-0.553505
53738		8.146667	-2.478447	4.812982	-0.000714	0.003590	-0.007583	-0.665283	0.530029	-0.410400	0.663102	-0.421629	-0.275891	-0.553543
53739		8.177304	-2.514065	4.750959	-0.000590	0.007933	-0.006094	-0.664551	0.527832	-0.411377	0.663105	-0.421596	-0.275873	-0.553572
53740		8.171123	-2.481261	4.812094	-0.003571	0.004211	-0.004921	-0.657227	0.528564	-0.420166	0.663096	-0.421596	-0.275862	-0.553589
53741		8.183259	-2.506793	4.806060	-0.003444	0.002060	-0.004298	-0.661621	0.522949	-0.414307	0.663140	-0.421581	-0.275895	-0.553531
53742		8.202125	-2.497678	4.806952	-0.001531	0.001146	-0.005121	-0.666992	0.528564	-0.412842	0.663140	-0.421571	-0.275924	-0.553525
53743		8.183403	-2.505767	4.806349	-0.000691	0.002087	-0.004730	-0.664062	0.534668	-0.418213	0.663136	-0.421564	-0.275938	-0.553528
53744		8.171245	-2.479318	4.812890	-0.000208	0.001482	-0.004223	-0.666260	0.521729	-0.416748	0.663173	-0.421548	-0.275973	-0.553478
53745		8.168601	-2.498184	4.819654	-0.002496	0.002354	-0.006137	-0.667236	0.524170	-0.411865	0.663160	-0.421532	-0.275995	-0.553495
53746		8.162551	-2.484791	4.822959	-0.002959	0.001455	-0.003791	-0.657959	0.527832	-0.416504	0.663138	-0.421541	-0.275997	-0.553513
53747		8.198495	-2.510387	4.794096	-0.006194	0.002033	-0.003867	-0.658447	0.525146	-0.412109	0.663158	-0.421552	-0.276004	-0.553477
53748		8.173525	-2.505961	4.796684	-0.001281	0.003338	-0.003008	-0.665283	0.529297	-0.416992	0.663181	-0.421539	-0.276012	-0.553455
53749		8.171176	-2.477610	4.813884	-0.003086	0.003606	-0.004415	-0.657715	0.528809	-0.417725	0.663195	-0.421529	-0.276019	-0.553444
53750		8.183358	-2.503162	4.807784	-0.002958	0.001455	-0.003792	-0.663574	0.526367	-0.413330	0.663232	-0.421522	-0.276048	-0.553390
53751		8.151217	-2.481470	4.793092	-0.005227	0.000823	-0.002852	-0.664551	0.528809	-0.412354	0.663226	-0.421545	-0.276048	-0.553380
53752		8.175135	-2.481439	4.770112	-0.004972	-0.003477	-0.001604	-0.663818	0.522705	-0.420410	0.663214	-0.421594	-0.276063	-0.553349
53753		8.177649	-2.490307	4.810226	-0.004388	0.001765	-0.002461	-0.659912	0.531006	-0.412842	0.663232	-0.421589	-0.276081	-0.553322
53754		8.168878	-2.496897	4.819852	-0.004260	-0.000386	-0.001837	-0.670410	0.535645	-0.422607	0.663250	-0.421616	-0.276091	-0.553274
53755		8.192619	-2.496987	4.797107	-0.004851	0.000865	-0.000114	-0.665527	0.527588	-0.406494	0.663287	-0.421632	-0.276099	-0.553215
53756		8.186498	-2.484295	4.800167	-0.002938	-0.000049	-0.000938	-0.662842	0.530518	-0.419678	0.663268	-0.421669	-0.276085	-0.553216
53757		8.187689	-2.488802	4.820300	-0.001617	0.000288	-0.000038	-0.663818	0.525879	-0.415039	0.663319	-0.421668	-0.276113	-0.553142
53758		8.172678	-2.501921	4.775722	-0.004724	-0.001285	0.000509	-0.660400	0.529541	-0.415283	0.663329	-0.421701	-0.276119	-0.553102
53759		8.191504	-2.493674	4.776222	-0.003885	-0.000344	0.000901	-0.670410	0.528564	-0.418213	0.663365	-0.421725	-0.276128	-0.553035
53760		8.167801	-2.494286	4.798540	-0.002919	-0.001553	0.001916	-0.666748	0.527588	-0.413574	0.663383	-0.421751	-0.276140	-0.552988
53761		8.172707	-2.503432	4.774881	-0.005314	-0.000035	0.002232	-0.660645	0.526855	-0.399414	0.663391	-0.421792	-0.276123	-0.552956
53762		8.172715	-2.504034	4.774550	-0.004240	-0.001890	0.001016	-0.669678	0.527100	-0.411377	0.663361	-0.421861	-0.276093	-0.552954
53763		8.164045	-2.511081	4.783763	-0.003274	-0.003099	0.002031	-0.664795	0.526855	-0.409668	0.663351	-0.421910	-0.276094	-0.552928
53764		8.169292	-2.501001	4.817021	-0.006212	-0.003148	0.001093	-0.666748	0.527588	-0.412842	0.663336	-0.421974	-0.276087	-0.552902
53765		8.189318	-2.516472	4.780142	-0.005561	-0.002227	0.000116	-0.664062	0.526611	-0.406494	0.663326	-0.422021	-0.276087	-0.552876
53766		8.183275	-2.503701	4.783124	-0.003252	0.002082	-0.002930	-0.663818	0.531982	-0.412109	0.663306	-0.422042	-0.276071	-0.552893
53767		8.162167	-2.484316	4.799369	-0.003547	0.002707	-0.002068	-0.664062	0.531738	-0.413330	0.663319	-0.422053	-0.276062	-0.552873
53768		8.184809	-2.578737	4.756575	-0.001782	0.005450	-0.006368	-0.662354	0.528809	-0.401855	0.663328	-0.422030	-0.276064	-0.552879
53769		8.170471	-2.476812	4.791011	-0.000695	0.008582	-0.003860	-0.659180	0.526611	-0.410400	0.663320	-0.422015	-0.276015	-0.552924
53770		8.154139	-2.446772	4.841596	-0.004493	0.002411	-0.000231	-0.667969	0.523438	-0.410889	0.663336	-0.422035	-0.275999	-0.552898
53771		8.177409	-2.494820	4.808295	-0.007808	-0.004366	0.003906	-0.669434	0.533691	-0.407227	0.663314	-0.422116	-0.275982	-0.552871
53772		8.167698	-2.498167	4.796698	-0.007198	-0.007122	0.005036	-0.660156	0.533203	-0.411865	0.663293	-0.422225	-0.275964	-0.552822
53773		8.184102	-2.510431	4.802725	-0.010241	-0.006525	0.006327	-0.662354	0.528076	-0.407227	0.663311	-0.422335	-0.275949	-0.552724
53774		8.208020	-2.511705	4.779031	-0.006002	-0.004635	0.005312	-0.666748	0.529785	-0.408447	0.663314	-0.422417	-0.275933	-0.552666
53775		8.179411	-2.523555	4.766889	-0.005056	-0.004338	0.003474	-0.660400	0.531250	-0.412109	0.663306	-0.422489	-0.275924	-0.552624
53776		8.180680	-2.528885	4.786469	-0.005478	-0.001563	0.003713	-0.662109	0.532959	-0.409912	0.663338	-0.422540	-0.275915	-0.552551
53777		8.188291	-2.518614	4.756204	-0.003399	-0.000949	0.001406	-0.655273	0.526367	-0.402344	0.663358	-0.422579	-0.275911	-0.552500
53778		8.171866	-2.536239	4.795765	-0.001636	0.001795	-0.002891	-0.663086	0.533203	-0.410645	0.663355	-0.422593	-0.275904	-0.552497
53779		8.176926	-2.497224	4.783348	-0.003069	0.008596	-0.000687	-0.667480	0.537109	-0.400635	0.663388	-0.422580	-0.275857	-0.552490
53780		8.171553	-2.488854	4.807441	-0.004323	0.003938	-0.001714	-0.663574	0.529297	-0.409912	0.663359	-0.422622	-0.275798	-0.552521
53781		8.183653	-2.514880	4.801161	-0.004552	0.000241	-0.000978	-0.658936	0.529785	-0.419678	0.663357	-0.422654	-0.275791	-0.552504
53782		8.185209	-2.491294	4.774216	-0.005202	-0.000681	-0.000002	-0.669678	0.531494	-0.410400	0.663402	-0.422671	-0.275815	-0.552425
53783		8.173801	-2.517673	4.790076	-0.004907	-0.001305	-0.000864	-0.652832	0.532715	-0.417236	0.663383	-0.422716	-0.275809	-0.552417
53784		8.181538	-2.507121	4.759752	-0.005852	-0.001603	0.000973	-0.661621	0.526123	-0.412598	0.663441	-0.422747	-0.275829	-0.552312
53785		8.155174	-2.527126	4.788582	-0.003418	0.000557	-0.001447	-0.658203	0.531006	-0.401855	0.663451	-0.422760	-0.275839	-0.552286
53786		8.170655	-2.486499	4.785676	-0.005537	-0.003735	0.002963	-0.660400	0.529541	-0.413574	0.663444	-0.422840	-0.275818	-0.552243
53787		8.188100	-2.521218	4.755152	-0.003056	-0.004388	-0.002436	-0.659912	0.530273	-0.414551	0.663452	-0.422871	-0.275863	-0.552188
53788		8.185788	-2.540999	4.760830	-0.006561	-0.004695	0.001200	-0.657227	0.531738	-0.401611	0.663469	-0.422928	-0.275884	-0.552113
53789		8.165207	-2.522205	4.775922	-0.003874	-0.006837	0.000022	-0.655518	0.535889	-0.408447	0.663451	-0.423007	-0.275899	-0.552066
53790		8.180530	-2.528976	4.762093	-0.005910	-0.003773	0.000224	-0.663086	0.530518	-0.413330	0.663469	-0.423070	-0.275906	-0.551994
53791		8.177012	-2.525387	4.805106	-0.006520	-0.001017	-0.000904	-0.662598	0.534424	-0.408691	0.663473	-0.423109	-0.275909	-0.551958
53792		8.178131	-2.548710	4.767945	-0.001361	0.002681	-0.006604	-0.669678	0.531982	-0.406982	0.663469	-0.423103	-0.275920	-0.551962
53793		8.175845	-2.520458	4.785122	-0.007257	0.003890	-0.002652	-0.657227	0.521240	-0.415039	0.663436	-0.423138	-0.275873	-0.551997
53794		8.178230	-2.501199	4.779040	-0.003779	0.005503	-0.000456	-0.664307	0.528320	-0.417480	0.663476	-0.423118	-0.275866	-0.551968
53795		8.186929	-2.494471	4.769606	-0.002364	0.000213	-0.005516	-0.662354	0.528076	-0.414307	0.663484	-0.423107	-0.275909	-0.551945
