// Start Time: Unknown
// Update Rate: 60.0Hz
// Filter Profile: human (46.1)
// Firmware Version: 4.6.0
PacketCounter	SampleTimeFine	Acc_X	Acc_Y	Acc_Z	Gyr_X	Gyr_Y	Gyr_Z	Mag_X	Mag_Y	Mag_Z	Quat_q0	Quat_q1	Quat_q2	Quat_q3
05288		5.869191	-2.487485	8.602000	-0.536077	-2.095317	-0.066813	-0.719727	-0.119629	-0.203613	-0.196362	-0.249513	0.175460	-0.931879
05289		5.698602	-2.491818	8.822825	-0.636743	-2.854683	-0.115304	-0.729492	-0.135986	-0.176025	-0.194349	-0.270732	0.184783	-0.924547
05290		5.719175	-1.366064	9.388959	-0.810969	-3.774439	-0.016705	-0.756592	-0.132812	-0.135254	-0.192138	-0.298143	0.196113	-0.914185
05291		5.482946	-1.300687	10.338636	-1.035314	-4.838545	0.092599	-0.781250	-0.144775	-0.068848	-0.186418	-0.331965	0.209818	-0.900568
05292		5.961011	-2.180247	11.752850	-1.257174	-5.910583	-0.088176	-0.789795	-0.149902	0.011475	-0.181509	-0.369272	0.221535	-0.884090
05293		9.886058	-3.559752	11.975584	-1.345260	-6.546088	-0.630826	-0.782959	-0.156738	0.096191	-0.180258	-0.403588	0.228155	-0.867508
05294		11.091757	-6.144407	10.138938	-1.531665	-6.710054	-1.293030	-0.768066	-0.182617	0.195068	-0.184107	-0.435819	0.233365	-0.849534
05295		13.282347	-3.829467	12.204881	-1.415830	-6.814870	-2.093266	-0.729980	-0.212646	0.277832	-0.189047	-0.468332	0.242600	-0.828294
05296		8.982826	-3.628898	12.046139	-2.610618	-6.632379	-2.001395	-0.697754	-0.251465	0.359131	-0.199207	-0.494949	0.257198	-0.805724
05297		14.696089	-2.821036	18.832138	-4.271482	-6.338142	-1.758728	-0.635010	-0.296387	0.408936	-0.214292	-0.509042	0.281724	-0.784594
05298		27.280840	-18.009852	22.539205	-3.918620	-1.609295	-0.837099	-0.620605	-0.320801	0.410400	-0.235094	-0.481395	0.291294	-0.792551
05299		4.040589	-15.188362	17.959958	-1.136596	1.977901	-1.118000	-0.615723	-0.333252	0.384277	-0.244477	-0.426351	0.289145	-0.821493
05300		-4.227886	-7.153031	9.448972	0.504518	2.024469	-1.632908	-0.605957	-0.337646	0.367188	-0.247154	-0.363440	0.282491	-0.852658
05301		0.551761	-3.247189	9.003683	0.480009	2.095621	-1.276121	-0.591309	-0.338135	0.355713	-0.249718	-0.299984	0.277965	-0.877716
05302		1.659100	-3.009821	9.510915	-0.394809	2.611433	-0.315713	-0.603760	-0.334717	0.327393	-0.251736	-0.237646	0.277120	-0.896302
05303		2.076331	-6.095451	9.073861	-0.750167	3.117553	0.540822	-0.616455	-0.314941	0.294189	-0.250151	-0.177278	0.275901	-0.910975
05304		5.246024	-7.350528	8.695617	-0.273314	3.701136	1.156868	-0.640625	-0.301514	0.264893	-0.245115	-0.118189	0.271593	-0.923140
05305		6.958555	-5.519019	8.131660	0.364564	4.362345	1.708353	-0.657471	-0.273682	0.219238	-0.239033	-0.061208	0.263799	-0.932484
05306		7.541785	-2.823544	7.283365	0.653669	4.814033	2.018703	-0.680908	-0.243164	0.172363	-0.233735	-0.008387	0.253193	-0.938718
05307		8.863335	-0.499214	7.591289	0.473665	5.051143	2.123168	-0.696045	-0.215820	0.108887	-0.229015	0.039451	0.241906	-0.942060
05308		11.403103	0.070159	8.466104	0.041965	5.300771	2.180841	-0.708984	-0.184570	0.043701	-0.223203	0.082964	0.230967	-0.943372
05309		13.323355	-1.813560	8.548710	-0.103292	5.623853	2.106567	-0.718262	-0.148682	-0.026123	-0.217270	0.122222	0.219034	-0.943334
05310		14.020834	-3.788542	8.165664	0.244216	5.820973	1.990470	-0.720215	-0.113037	-0.104492	-0.214020	0.156917	0.204673	-0.942169
05311		14.927877	-4.146780	8.341963	0.665560	5.811047	2.067873	-0.709229	-0.091309	-0.176270	-0.213768	0.187484	0.188308	-0.940049
05312		16.419446	-4.069283	8.605290	0.845445	5.680854	2.277417	-0.694824	-0.064453	-0.246094	-0.215105	0.214276	0.171273	-0.937273
05313		17.864258	-4.052924	8.401259	0.857824	5.488693	2.479910	-0.657715	-0.027100	-0.311523	-0.217567	0.237274	0.154416	-0.934089
05314		19.959072	-3.375783	7.362134	0.862606	5.245604	2.532242	-0.640625	-0.002441	-0.376465	-0.222233	0.256188	0.137765	-0.930592
05315		21.300453	-3.285140	4.590202	0.961077	4.929476	2.280159	-0.601562	0.015625	-0.432617	-0.231415	0.270042	0.120948	-0.926766
05316		21.026740	-3.231093	0.400134	1.114664	4.351511	1.704126	-0.566650	0.029785	-0.484375	-0.247699	0.277040	0.104513	-0.922481
05317		22.064328	-1.530636	-3.742444	0.856633	3.591202	1.269671	-0.540039	0.038330	-0.516113	-0.268782	0.277887	0.091510	-0.917693
05318		22.661509	0.901387	-8.845607	0.176196	2.675016	1.110001	-0.505371	0.050781	-0.552246	-0.290625	0.273190	0.084987	-0.913062
05319		23.721815	2.408505	-14.373490	-0.175819	1.415553	0.913857	-0.498535	0.065918	-0.560547	-0.312967	0.260322	0.083787	-0.909540
05320		21.913027	0.772933	-17.974184	0.321560	-0.110015	0.236336	-0.497559	0.062744	-0.560791	-0.340601	0.235093	0.084004	-0.906458
05321		19.380508	-1.443136	-18.812846	1.591794	-2.485885	-1.006880	-0.522217	0.037598	-0.536621	-0.377422	0.188627	0.084634	-0.902668
05322		4.420972	-0.810389	15.366337	2.153475	-3.364095	-0.916042	-0.557373	0.003906	-0.512207	-0.411055	0.134966	0.085670	-0.897485
05323		-1.532899	-2.094663	8.276920	1.313168	-4.397718	0.091403	-0.589355	-0.000244	-0.460693	-0.430066	0.078984	0.095558	-0.894245
05324		14.125390	9.755408	11.433534	1.286477	-4.885120	0.031220	-0.628662	-0.023926	-0.414062	-0.442411	0.023821	0.107544	-0.890022
05325		15.952043	14.610546	12.929229	0.246713	-4.159454	-0.582993	-0.657715	-0.038086	-0.370605	-0.458676	-0.021199	0.123271	-0.879756
05326		17.961390	-0.557218	11.153777	-0.844854	-3.211629	-0.179016	-0.687744	-0.046631	-0.326172	-0.474835	-0.052934	0.141448	-0.867019
05327		13.236451	-7.911577	9.442142	-0.441065	-2.416431	0.035415	-0.695801	-0.039551	-0.287354	-0.487422	-0.077625	0.154545	-0.855868
05328		14.521933	-6.945876	11.027410	0.192978	-1.588746	-0.147541	-0.705566	-0.037109	-0.262939	-0.496230	-0.096801	0.161025	-0.847618
05329		9.705505	-0.924287	8.133535	0.044117	-0.533199	-0.110868	-0.704102	-0.047607	-0.259033	-0.501658	-0.106435	0.164994	-0.842489
05330		7.773879	-3.299246	6.898910	0.065372	-0.313189	-0.142703	-0.702148	-0.052490	-0.253906	-0.505969	-0.113596	0.167538	-0.838464
05331		7.453038	-1.371649	7.185235	0.087951	-0.132638	-0.142036	-0.693848	-0.048828	-0.240723	-0.508231	-0.118748	0.169153	-0.836055
05332		6.919052	-0.794570	7.589010	0.035002	-0.072528	-0.068266	-0.703125	-0.056885	-0.243408	-0.509171	-0.122541	0.170722	-0.834615
05333		6.460450	-0.433939	7.605335	-0.072340	-0.089790	0.058159	-0.697021	-0.051025	-0.245361	-0.508941	-0.125330	0.172972	-0.833878
05334		6.257323	-1.229616	7.681049	-0.138050	-0.109875	0.132718	-0.688965	-0.054443	-0.235107	-0.508188	-0.127476	0.175586	-0.833465
05335		6.303135	-2.672732	7.276566	-0.136275	-0.124828	0.113233	-0.697266	-0.053467	-0.232178	-0.507227	-0.129461	0.178105	-0.833210
05336		6.148141	-2.636200	7.179572	-0.090908	-0.120058	0.041914	-0.695068	-0.054443	-0.234375	-0.505772	-0.131522	0.180280	-0.833304
05337		6.278170	-2.246605	7.128165	-0.049081	-0.120361	-0.020679	-0.689697	-0.052734	-0.233154	-0.503961	-0.133717	0.182141	-0.833648
05338		6.075781	-1.762505	7.436550	-0.026694	-0.119971	-0.042755	-0.693359	-0.053955	-0.229980	-0.501849	-0.135928	0.183817	-0.834195
05339		6.173103	-1.473071	7.526177	-0.024918	-0.115753	-0.043286	-0.687988	-0.061035	-0.225098	-0.499673	-0.138010	0.185396	-0.834811
05340		6.305766	-1.543453	7.437665	-0.028614	-0.121879	-0.046110	-0.689697	-0.060547	-0.226074	-0.497632	-0.140028	0.186933	-0.835351
05341		6.418976	-1.773057	7.093493	-0.003383	-0.109765	-0.068592	-0.694580	-0.054199	-0.224121	-0.495786	-0.142032	0.188159	-0.835835
05342		6.365080	-1.920501	7.178098	0.052682	-0.081448	-0.111072	-0.696045	-0.073975	-0.206299	-0.494118	-0.144099	0.188807	-0.836322
05343		6.093527	-2.050755	7.346254	0.119941	-0.032764	-0.165163	-0.694092	-0.080078	-0.215332	-0.492696	-0.146156	0.188710	-0.836826
05344		6.407925	-1.689431	7.128956	0.159296	0.022949	-0.189986	-0.693604	-0.081055	-0.218018	-0.491382	-0.147984	0.188068	-0.837421
05345		6.541622	-1.533760	7.180120	0.162519	0.050795	-0.185669	-0.698242	-0.084961	-0.213623	-0.490091	-0.149595	0.187270	-0.838071
05346		6.460877	-1.403514	7.205262	0.143116	0.057956	-0.167518	-0.699951	-0.089355	-0.206299	-0.488763	-0.151026	0.186572	-0.838745
05347		6.332314	-1.454272	7.317287	0.106809	0.049298	-0.140342	-0.696777	-0.084717	-0.210449	-0.487413	-0.152302	0.186159	-0.839391
05348		6.285767	-1.462522	7.361549	0.072037	0.031736	-0.118118	-0.695801	-0.092285	-0.213867	-0.486047	-0.153499	0.186056	-0.839988
05349		6.193179	-1.490985	7.422995	0.051654	0.000444	-0.104378	-0.687012	-0.089600	-0.211182	-0.484643	-0.154793	0.186214	-0.840527
05350		6.014989	-1.527904	7.545270	0.026609	-0.045711	-0.101060	-0.675781	-0.097656	-0.212158	-0.483281	-0.156284	0.186710	-0.840925
05351		5.890127	-1.573773	7.670297	-0.010283	-0.124370	-0.102616	-0.666992	-0.091309	-0.210693	-0.481932	-0.158161	0.187753	-0.841116
05352		5.905869	-1.383900	7.806737	-0.046857	-0.226344	-0.094936	-0.666016	-0.099121	-0.230469	-0.480490	-0.160574	0.189444	-0.841104
05353		6.380624	-1.212346	7.628157	-0.113842	-0.348872	-0.048465	-0.660889	-0.105225	-0.232910	-0.478770	-0.163483	0.192112	-0.840919
05354		6.242797	-1.228530	7.804553	-0.233899	-0.552511	0.027125	-0.678467	-0.108887	-0.247314	-0.476541	-0.167213	0.196491	-0.840440
05355		6.208311	-1.449363	7.933755	-0.373887	-0.878895	0.076604	-0.663574	-0.119141	-0.251465	-0.473752	-0.172582	0.203164	-0.839344
05356		6.064901	-1.791841	8.237054	-0.490997	-1.307808	0.064206	-0.686035	-0.132568	-0.257812	-0.470648	-0.180478	0.212260	-0.837176
05357		5.978399	-2.137797	8.514314	-0.569244	-1.843974	0.029243	-0.706299	-0.134033	-0.238770	-0.466910	-0.191826	0.223868	-0.833715
05358		5.324281	-2.267885	9.296454	-0.690508	-2.568187	0.008910	-0.737061	-0.141357	-0.224365	-0.462005	-0.207682	0.238968	-0.828441
05359		5.284401	-1.873426	9.536350	-0.797005	-3.497394	0.003077	-0.755371	-0.145752	-0.187256	-0.455301	-0.229342	0.258114	-0.820659
05360		5.401524	-0.823611	10.145218	-1.023079	-4.471792	0.170464	-0.789551	-0.157227	-0.130615	-0.445645	-0.256050	0.282408	-0.809991
05361		5.164332	-0.924410	11.284889	-1.310987	-5.644938	0.312499	-0.811035	-0.153076	-0.052979	-0.432949	-0.288506	0.312673	-0.794704
05362		6.760355	-3.345892	11.653164	-1.495885	-6.669985	-0.049757	-0.813232	-0.154785	0.046387	-0.420262	-0.326769	0.346131	-0.772526
05363		11.377525	-4.652221	13.080884	-1.541723	-7.071742	-0.737408	-0.798340	-0.171143	0.145264	-0.409794	-0.367941	0.378336	-0.744010
05364		12.102865	-7.532439	11.355182	-1.398193	-7.335386	-1.633571	-0.781738	-0.197266	0.251709	-0.402280	-0.412253	0.406532	-0.709189
05365		13.673296	-1.672663	13.865207	-2.150485	-6.937577	-2.023722	-0.742676	-0.224609	0.341309	-0.398657	-0.451312	0.434915	-0.669507
05366		5.040340	-0.936348	15.420839	-4.435779	-6.899325	-1.417209	-0.689697	-0.276123	0.398682	-0.400240	-0.477317	0.476814	-0.620182
05367		31.599280	-12.392097	23.482804	-6.141133	-4.263377	-0.829274	-0.640137	-0.323242	0.432373	-0.415801	-0.477995	0.519629	-0.573250
05368		12.707253	-25.183573	22.260166	-2.802360	1.375275	-1.067070	-0.634277	-0.345703	0.390381	-0.443817	-0.461479	0.525123	-0.560633
05369		-4.982548	-13.370920	13.179187	0.483988	2.664351	-1.752246	-0.621094	-0.343018	0.365723	-0.465615	-0.454137	0.506667	-0.565907
05370		-2.231466	-5.155390	9.014015	1.327630	2.452869	-1.761965	-0.617676	-0.343018	0.354248	-0.481975	-0.451078	0.484235	-0.574234
05371		1.581288	-2.737701	10.411572	0.476583	2.850225	-0.766754	-0.616943	-0.336670	0.332520	-0.498242	-0.438161	0.467626	-0.584034
05372		1.589195	-5.237160	10.127643	-0.385359	3.413919	0.453061	-0.620361	-0.323242	0.295166	-0.514404	-0.413248	0.456966	-0.596487
05373		4.231085	-7.673497	9.431320	-0.105568	3.926692	1.198786	-0.631104	-0.307129	0.254150	-0.527501	-0.383449	0.444512	-0.614100
05374		7.395181	-6.193759	8.954254	0.701240	4.573172	1.677760	-0.659424	-0.268311	0.217773	-0.536749	-0.351654	0.425494	-0.638118
05375		8.258733	-2.506143	8.167418	1.076063	5.127622	1.999457	-0.678223	-0.250977	0.173340	-0.543811	-0.316895	0.401650	-0.665226
05376		9.100049	0.356391	8.234600	0.827964	5.394838	2.098810	-0.698486	-0.204834	0.112549	-0.550817	-0.278520	0.376877	-0.690645
05377		11.795646	1.449189	9.215634	0.235244	5.620283	2.083159	-0.711670	-0.185791	0.037598	-0.559196	-0.235524	0.353047	-0.712170
05378		13.963963	-0.999837	9.204682	-0.038867	5.924042	1.906977	-0.721924	-0.144531	-0.033203	-0.569146	-0.189522	0.327613	-0.729948
05379		14.814878	-3.273979	8.955694	0.279442	6.074548	1.717921	-0.713623	-0.119141	-0.098389	-0.578321	-0.144664	0.297845	-0.745591
05380		15.997533	-4.150017	8.812896	0.629216	6.060209	1.830798	-0.702637	-0.089111	-0.192871	-0.583800	-0.101686	0.265010	-0.760663
05381		17.690606	-4.857768	8.364618	0.787407	5.881209	2.178230	-0.687988	-0.060547	-0.258789	-0.583663	-0.060436	0.231602	-0.775916
05382		18.955098	-4.877339	7.445436	0.883492	5.578276	2.474429	-0.662109	-0.037598	-0.322754	-0.577836	-0.021765	0.198910	-0.791244
05383		20.420360	-4.164083	6.213490	0.893537	5.238137	2.513115	-0.628418	-0.004150	-0.390869	-0.568058	0.013931	0.167951	-0.805549
05384		21.616924	-3.914175	4.166312	0.845103	4.878542	2.324000	-0.587646	0.013184	-0.442383	-0.556168	0.046463	0.139567	-0.817948
05385		21.120463	-3.303587	1.245813	0.736221	4.397546	1.980596	-0.562012	0.037109	-0.497314	-0.543417	0.075172	0.115144	-0.828124
05386		20.721846	-1.463776	-2.775429	0.364480	3.681257	1.641609	-0.524170	0.054199	-0.524414	-0.529984	0.099766	0.097755	-0.836426
05387		21.134697	0.963479	-7.234862	-0.219451	2.704552	1.345120	-0.500977	0.077148	-0.554443	-0.515919	0.119415	0.089968	-0.843489
05388		24.085598	2.704971	-11.964473	-0.615597	1.688788	1.024920	-0.479736	0.091797	-0.571533	-0.502151	0.132878	0.090458	-0.849709
05389		21.859377	0.744653	-16.951973	-0.021340	0.481996	0.178017	-0.475098	0.089844	-0.571533	-0.493588	0.134059	0.093395	-0.854211
05390		20.429297	0.912956	-13.466781	0.671521	-1.047031	-0.712476	-0.487305	0.081055	-0.562500	-0.490025	0.120276	0.099219	-0.857650
05391		11.396905	-6.553854	-4.985408	1.784496	-2.664193	-1.264178	-0.510742	0.042236	-0.541016	-0.489274	0.089328	0.104175	-0.861266
05392		-4.210315	-3.267769	22.187523	1.711391	-3.131132	-0.546695	-0.549316	0.017334	-0.510254	-0.481209	0.055631	0.110744	-0.867801
05393		2.104887	-2.373018	4.500016	1.315148	-4.390296	-0.061805	-0.584717	0.004639	-0.478027	-0.468566	0.014985	0.123467	-0.874630
05394		11.876530	8.193359	10.200135	1.153179	-4.761928	0.283957	-0.624756	-0.007568	-0.424805	-0.452246	-0.027438	0.137606	-0.880787
05395		15.429025	13.707487	12.764890	0.417975	-4.419288	-0.611510	-0.651123	-0.018066	-0.371338	-0.444232	-0.065925	0.154129	-0.880089
05396		18.959519	0.770836	12.543845	-0.724008	-3.299263	-0.141351	-0.683350	-0.021973	-0.328369	-0.437265	-0.091666	0.173838	-0.877597
05397		13.039007	-5.482671	9.772395	-0.665815	-2.380036	0.164139	-0.696045	-0.019043	-0.290283	-0.429845	-0.110759	0.189658	-0.875783
05398		10.541934	-5.933195	8.853233	-0.239412	-1.806933	0.146683	-0.695557	-0.015625	-0.274170	-0.422649	-0.127326	0.200235	-0.874678
05399		13.488137	-4.640341	9.063542	0.250112	-0.915054	-0.134827	-0.699707	-0.021484	-0.255371	-0.418097	-0.139591	0.203763	-0.874179
05400		7.195073	-3.312384	7.352953	0.203508	-0.381041	-0.183586	-0.699463	-0.025146	-0.250244	-0.414796	-0.147943	0.205690	-0.873927
05401		7.871188	-2.057547	7.155095	0.192703	-0.169721	-0.205900	-0.693604	-0.031982	-0.246826	-0.412119	-0.154645	0.206858	-0.873758
05402		6.812815	-1.455368	7.708005	0.091856	-0.082211	-0.109090	-0.695557	-0.031738	-0.250977	-0.409295	-0.160096	0.208495	-0.873714
05403		6.688497	-1.026523	7.696028	-0.020612	-0.076577	0.006772	-0.692871	-0.035400	-0.243164	-0.406147	-0.164784	0.210980	-0.873715
05404		6.363488	-1.489729	7.476660	-0.091413	-0.081666	0.078275	-0.698975	-0.032471	-0.245117	-0.402978	-0.169004	0.213992	-0.873644
05405		6.374255	-1.991466	7.377084	-0.126787	-0.090426	0.107519	-0.699219	-0.029297	-0.228027	-0.399931	-0.172980	0.217248	-0.873462
05406		5.991063	-2.197818	7.427528	-0.137125	-0.090547	0.098521	-0.695801	-0.038086	-0.223877	-0.397205	-0.176805	0.220497	-0.873126
05407		5.915939	-2.337078	7.365568	-0.108131	-0.090007	0.048592	-0.688477	-0.027344	-0.235107	-0.394978	-0.180677	0.223393	-0.872608
05408		6.286052	-2.038853	7.301917	-0.097437	-0.090116	0.022525	-0.689941	-0.042480	-0.233643	-0.393095	-0.184497	0.226109	-0.871959
05409		6.176760	-1.456092	7.597534	-0.127515	-0.093866	0.044244	-0.696045	-0.035645	-0.227539	-0.391248	-0.188087	0.229022	-0.871262
05410		6.172018	-1.726212	7.458235	-0.175416	-0.099811	0.083151	-0.695312	-0.050049	-0.227783	-0.389471	-0.191354	0.232286	-0.870482
05411		6.173203	-1.877448	7.440261	-0.192423	-0.098619	0.105586	-0.695068	-0.044434	-0.228516	-0.387745	-0.194391	0.235634	-0.869679
05412		6.217316	-2.257890	7.108844	-0.168174	-0.096421	0.094282	-0.691895	-0.036865	-0.223633	-0.386292	-0.197383	0.238724	-0.868809
05413		5.914808	-2.566340	7.126657	-0.106738	-0.087078	0.036363	-0.698975	-0.043701	-0.227783	-0.385309	-0.200505	0.241194	-0.867848
05414		5.962990	-2.663002	7.162474	-0.026515	-0.075909	-0.042630	-0.697998	-0.053955	-0.223877	-0.384760	-0.203870	0.242863	-0.866842
05415		6.047073	-2.437328	7.089105	0.055990	-0.068019	-0.128735	-0.701172	-0.048096	-0.213379	-0.384777	-0.207504	0.243716	-0.865731
05416		6.027901	-2.115769	7.139990	0.134208	-0.039141	-0.198086	-0.696533	-0.049805	-0.221436	-0.385350	-0.211208	0.243749	-0.864571
05417		6.147022	-2.408282	6.976446	0.239074	-0.012164	-0.296744	-0.684082	-0.050049	-0.214355	-0.386567	-0.215156	0.242705	-0.863347
05418		6.082846	-2.258284	7.210601	0.294654	0.024604	-0.351370	-0.687744	-0.056396	-0.213623	-0.388210	-0.219033	0.240995	-0.862113
05419		6.454012	-2.037613	7.099383	0.270371	0.021969	-0.337858	-0.676270	-0.063965	-0.218018	-0.389803	-0.222738	0.239437	-0.860878
05420		6.127063	-1.568953	7.590816	0.195419	-0.018668	-0.279800	-0.675049	-0.078125	-0.231934	-0.391102	-0.226291	0.238607	-0.859592
05421		6.207534	-1.408811	7.660279	0.109641	-0.100398	-0.211641	-0.675049	-0.083496	-0.230957	-0.392007	-0.229922	0.238728	-0.858181
05422		5.940584	-1.568056	7.760602	0.049311	-0.174435	-0.162183	-0.658691	-0.084717	-0.240967	-0.392662	-0.233690	0.239566	-0.856629
05423		6.278261	-1.606362	7.485378	0.002269	-0.266640	-0.130624	-0.664795	-0.091309	-0.257324	-0.393092	-0.237799	0.241051	-0.854883
05424		6.388216	-1.681366	7.547285	-0.063956	-0.385774	-0.081229	-0.668701	-0.096191	-0.266357	-0.393133	-0.242354	0.243453	-0.852902
05425		6.210936	-1.853931	7.778030	-0.158271	-0.556877	-0.024199	-0.683350	-0.111328	-0.278809	-0.392675	-0.247610	0.247160	-0.850534
05426		6.160663	-1.920681	7.917011	-0.262827	-0.855640	-0.018912	-0.698730	-0.124023	-0.287109	-0.391810	-0.254526	0.252550	-0.847302
05427		6.126435	-1.955397	8.171274	-0.394200	-1.283145	-0.012408	-0.720215	-0.141602	-0.279785	-0.390281	-0.263893	0.260218	-0.842810
05428		5.966537	-2.170100	8.676520	-0.529827	-1.860036	-0.010483	-0.745850	-0.149414	-0.268555	-0.387749	-0.276701	0.270630	-0.836568
05429		5.259819	-2.053119	9.465067	-0.657779	-2.619664	0.013030	-0.774414	-0.159912	-0.242920	-0.383510	-0.294098	0.284301	-0.828009
05430		4.882715	-2.300239	9.908528	-0.811063	-3.582230	0.037835	-0.796387	-0.153076	-0.200195	-0.376962	-0.317200	0.301914	-0.816169
05431		4.809592	-0.953838	11.024894	-1.120959	-4.706201	0.169183	-0.822754	-0.156494	-0.125488	-0.367055	-0.346029	0.325079	-0.799911
05432		4.835413	-0.923883	11.854813	-1.440110	-5.944741	0.151058	-0.840576	-0.151611	-0.031250	-0.354246	-0.381176	0.353384	-0.777390
05433		7.478770	-2.864208	11.905297	-1.682179	-6.999135	-0.092093	-0.837891	-0.164062	0.075684	-0.339778	-0.421640	0.384492	-0.747620
05434		11.552092	-4.677134	12.227042	-1.836488	-7.371817	-0.645978	-0.829590	-0.170898	0.176758	-0.326872	-0.463847	0.414220	-0.711634
05435		13.580717	-5.806868	12.583735	-1.471718	-7.587674	-1.562737	-0.785645	-0.203857	0.290039	-0.315868	-0.509273	0.437129	-0.670662
05436		12.605868	-2.075693	14.059952	-2.359957	-7.073475	-1.781082	-0.746094	-0.238525	0.391113	-0.310342	-0.547886	0.460901	-0.625363
05437		4.227259	1.850346	17.769393	-4.785595	-6.921261	-1.049751	-0.679688	-0.275635	0.448486	-0.311502	-0.573719	0.498269	-0.570563
05438		36.769797	-18.393647	22.482728	-5.855100	-3.116663	-0.599154	-0.647461	-0.325439	0.450928	-0.330602	-0.573899	0.531199	-0.528366
05439		7.609815	-20.787070	21.562833	-1.965819	2.224307	-1.345599	-0.648682	-0.330566	0.407715	-0.357263	-0.563079	0.527543	-0.526311
05440		-5.376173	-9.755972	9.981623	0.792536	2.593469	-2.307170	-0.641357	-0.347656	0.386719	-0.375872	-0.562673	0.505332	-0.535498
05441		0.538312	-4.792754	8.710457	1.259993	2.554665	-2.246958	-0.626953	-0.353516	0.370605	-0.391123	-0.563253	0.480757	-0.546482
05442		2.164473	-3.535023	9.686258	0.269077	3.047787	-1.115549	-0.628906	-0.348389	0.341553	-0.407492	-0.553274	0.463935	-0.559109
05443		1.793645	-7.135552	8.472494	-0.424131	3.551770	0.098431	-0.632812	-0.336670	0.298340	-0.423060	-0.533289	0.453819	-0.575040
05444		4.174369	-9.148562	7.502258	0.008627	4.005795	0.827476	-0.643311	-0.321289	0.259277	-0.434233	-0.509303	0.442661	-0.596744
05445		6.456514	-6.976470	7.313981	0.660994	4.516683	1.436208	-0.657227	-0.281006	0.228271	-0.440481	-0.482189	0.428206	-0.624588
05446		7.875508	-4.237678	7.107017	0.856044	4.992493	1.852315	-0.684814	-0.253174	0.178467	-0.444395	-0.450889	0.411772	-0.655481
05447		9.506669	-2.363442	7.195027	0.680618	5.396943	1.968850	-0.698730	-0.221924	0.115967	-0.448622	-0.415226	0.394294	-0.686191
05448		10.939727	-1.198580	7.713425	0.292446	5.680396	1.999811	-0.714600	-0.191162	0.041748	-0.453835	-0.375247	0.377119	-0.714845
05449		12.410374	-2.037154	7.890330	0.035311	5.885268	1.942422	-0.721436	-0.157715	-0.018555	-0.459717	-0.332157	0.359553	-0.740981
05450		13.694698	-3.238385	8.092402	0.122444	5.973928	1.802603	-0.714844	-0.132324	-0.097656	-0.465256	-0.288314	0.339759	-0.764837
05451		14.231090	-3.272239	8.649870	0.301469	5.941756	1.820271	-0.702881	-0.110107	-0.175781	-0.468842	-0.244537	0.318082	-0.786901
05452		15.971659	-2.383242	9.898181	0.253588	5.755989	2.056787	-0.692871	-0.071289	-0.243408	-0.469191	-0.200550	0.297097	-0.807076
05453		17.567447	-2.728785	10.013169	0.191720	5.586604	2.200508	-0.659180	-0.046387	-0.309814	-0.467100	-0.156663	0.276687	-0.825057
05454		19.001622	-3.344283	9.619777	0.368994	5.360482	2.072259	-0.631592	-0.010498	-0.376221	-0.464046	-0.115070	0.255134	-0.840433
05455		21.218483	-3.969678	8.508374	0.577492	5.201980	1.869444	-0.601074	0.002686	-0.440186	-0.460846	-0.075755	0.232029	-0.853255
05456		20.792485	-4.011496	3.177591	0.728681	4.805397	1.545654	-0.556885	0.020020	-0.490723	-0.458139	-0.040564	0.208812	-0.863053
05457		21.747599	-2.609547	-1.634757	0.500177	4.190900	1.352061	-0.510742	0.030273	-0.523926	-0.454970	-0.009470	0.189352	-0.870091
05458		22.969720	0.192920	-8.981546	-0.004889	3.015701	1.352855	-0.489258	0.040771	-0.572998	-0.449374	0.014731	0.178007	-0.875305
05459		27.581342	4.257622	-16.806128	-0.342508	1.658745	1.644837	-0.479980	0.067627	-0.580322	-0.439260	0.030406	0.174280	-0.880768
05460		24.293832	1.653928	-21.543885	0.471461	-0.113362	1.017813	-0.474121	0.066650	-0.583252	-0.431318	0.028811	0.171388	-0.885303
05461		19.833030	1.404855	-13.993247	1.560980	-2.161940	-0.288967	-0.491699	0.049561	-0.556641	-0.430024	0.005999	0.168312	-0.886969
05462		10.058243	0.035320	5.525956	2.225508	-3.357076	-0.841961	-0.524414	0.016602	-0.539062	-0.430720	-0.029037	0.164594	-0.886874
05463		-4.777653	-0.852141	17.656434	1.233792	-3.997321	-0.072155	-0.561279	0.002686	-0.496826	-0.424674	-0.064220	0.170435	-0.886837
05464		9.420832	3.805925	5.962483	1.235477	-4.881755	-0.102995	-0.606689	-0.017334	-0.442871	-0.417092	-0.105729	0.178966	-0.884775
05465		16.351615	8.815170	12.939611	0.751595	-4.609146	-0.065673	-0.646484	-0.025635	-0.390869	-0.409673	-0.143346	0.189804	-0.880678
05466		17.709194	6.767288	12.376852	-0.124910	-3.733635	-0.294844	-0.664795	-0.033691	-0.349609	-0.406527	-0.171758	0.203537	-0.873961
05467		13.578764	-1.972031	9.915681	-0.467627	-2.798019	-0.000327	-0.691162	-0.024658	-0.314697	-0.403542	-0.191567	0.216887	-0.867995
05468		10.792077	-5.124194	10.117267	-0.394526	-2.207646	0.064515	-0.697021	-0.035400	-0.275879	-0.400874	-0.207132	0.227790	-0.862849
05469		12.213958	-6.198090	9.869823	0.133954	-1.602721	-0.210381	-0.700684	-0.035645	-0.253906	-0.400152	-0.220559	0.232382	-0.858621
05470		10.256953	-3.056445	7.924929	0.267906	-0.567047	-0.353438	-0.696777	-0.041016	-0.249268	-0.401972	-0.227286	0.232305	-0.856033
05471		8.362424	-3.115494	6.972410	0.232707	-0.258463	-0.379343	-0.700195	-0.047119	-0.244141	-0.404567	-0.231743	0.231396	-0.853860
05472		7.674109	-0.678787	7.411973	0.167964	-0.082423	-0.247528	-0.696045	-0.057129	-0.247314	-0.406599	-0.234468	0.230603	-0.852364
05473		6.747975	-0.418413	7.595226	0.065572	-0.058555	-0.095655	-0.700439	-0.057129	-0.241455	-0.407831	-0.236361	0.230739	-0.851215
05474		6.582600	-1.129290	7.436999	-0.002223	-0.070744	-0.010131	-0.697510	-0.061768	-0.236084	-0.408614	-0.237913	0.231550	-0.850186
05475		6.500848	-1.799492	7.472131	-0.015055	-0.078155	0.010085	-0.694580	-0.055664	-0.233154	-0.409269	-0.239403	0.232502	-0.849192
05476		6.296235	-2.629866	7.086430	0.014971	-0.082192	-0.011527	-0.693848	-0.056641	-0.225098	-0.409984	-0.241038	0.233200	-0.848193
05477		6.233573	-2.206592	7.151109	0.096765	-0.053987	-0.088796	-0.690186	-0.068848	-0.224121	-0.411069	-0.242881	0.233057	-0.847181
05478		6.382158	-1.815243	7.223827	0.148966	-0.026897	-0.147376	-0.693604	-0.063965	-0.223633	-0.412464	-0.244804	0.232319	-0.846152
05479		6.283981	-1.490999	7.399341	0.119226	-0.021649	-0.128933	-0.685059	-0.080322	-0.227295	-0.413772	-0.246528	0.231799	-0.845154
05480		5.991929	-1.075388	7.897377	0.077891	-0.023118	-0.084482	-0.688721	-0.079590	-0.225098	-0.414830	-0.248011	0.231650	-0.844242
05481		6.256931	-1.247932	7.430945	0.037343	-0.038504	-0.048132	-0.694092	-0.078125	-0.225830	-0.415700	-0.249360	0.231899	-0.843348
05482		6.085700	-1.427182	7.473080	0.021028	-0.034858	-0.032172	-0.694580	-0.085938	-0.231445	-0.416495	-0.250570	0.232271	-0.842495
05483		6.263058	-1.743896	7.264107	0.018892	-0.041044	-0.045283	-0.693604	-0.085205	-0.217773	-0.417353	-0.251818	0.232636	-0.841597
05484		6.107917	-1.543804	7.441886	0.022735	-0.032709	-0.055140	-0.684082	-0.085449	-0.218750	-0.418280	-0.253016	0.232916	-0.840699
05485		6.259378	-1.392790	7.403918	0.010577	-0.041352	-0.054312	-0.700684	-0.092041	-0.222656	-0.419179	-0.254209	0.233298	-0.839785
05486		5.899169	-1.312875	7.667273	-0.009709	-0.050981	-0.043647	-0.689941	-0.093262	-0.211182	-0.420032	-0.255355	0.233869	-0.838852
05487		6.585748	-1.333664	7.105570	-0.019005	-0.052881	-0.046980	-0.682861	-0.098389	-0.210693	-0.420910	-0.256463	0.234489	-0.837900
05488		6.627230	-1.367457	7.030466	-0.021371	-0.048658	-0.047350	-0.680908	-0.095703	-0.212891	-0.421793	-0.257518	0.235101	-0.836961
05489		6.228780	-1.630359	7.300673	-0.018619	-0.064814	-0.055725	-0.673340	-0.102051	-0.208984	-0.422689	-0.258694	0.235723	-0.835970
05490		5.848718	-1.690399	7.599066	-0.023910	-0.103021	-0.078493	-0.671875	-0.097168	-0.221436	-0.423659	-0.260144	0.236458	-0.834821
05491		5.777751	-1.669332	7.806631	-0.049459	-0.168463	-0.096411	-0.658447	-0.100830	-0.225098	-0.424659	-0.261971	0.237550	-0.833430
05492		6.295634	-1.374163	7.573357	-0.111813	-0.269610	-0.079481	-0.660400	-0.107422	-0.245361	-0.425458	-0.264220	0.239456	-0.831766
05493		6.454160	-0.956653	7.566214	-0.201106	-0.403236	0.002108	-0.668945	-0.112793	-0.261963	-0.425610	-0.266890	0.242624	-0.829915
05494		6.192506	-1.293823	7.861864	-0.292249	-0.623460	0.084134	-0.665283	-0.122314	-0.266357	-0.424953	-0.270561	0.247373	-0.827658
05495		5.976753	-1.489856	8.234023	-0.383937	-0.984611	0.111996	-0.685059	-0.134277	-0.267334	-0.423543	-0.276293	0.254076	-0.824451
05496		5.989727	-1.978058	8.431490	-0.502660	-1.478395	0.106372	-0.698975	-0.145264	-0.270996	-0.421342	-0.284936	0.263287	-0.819733
05497		5.831082	-2.370402	8.814138	-0.599075	-2.086620	0.058070	-0.725342	-0.148193	-0.265137	-0.418242	-0.297385	0.275109	-0.812989
05498		5.258420	-2.463180	9.436302	-0.755120	-2.912023	0.035538	-0.753662	-0.159668	-0.222168	-0.413561	-0.314735	0.290674	-0.803379
05499		5.048344	-1.603984	10.163570	-0.909557	-3.963038	0.090759	-0.795898	-0.158203	-0.180664	-0.405975	-0.338102	0.310778	-0.790119
05500		4.794015	-0.919887	11.463099	-1.286398	-5.155906	0.291427	-0.824463	-0.160156	-0.097412	-0.394420	-0.366900	0.337481	-0.771961
05501		5.042003	-1.051180	12.374513	-1.607186	-6.418613	0.145881	-0.832031	-0.154541	-0.008789	-0.380289	-0.402120	0.369116	-0.746615
05502		9.068777	-3.616037	12.797772	-1.693143	-7.332882	-0.302081	-0.831299	-0.166504	0.102783	-0.365140	-0.442569	0.401416	-0.713912
05503		11.704220	-6.920658	11.248733	-1.684000	-7.637006	-1.048722	-0.810547	-0.190430	0.211182	-0.351858	-0.485381	0.430208	-0.674924
05504		13.961486	-5.633049	14.010141	-1.352087	-7.650128	-2.119934	-0.760010	-0.218750	0.319580	-0.341549	-0.530841	0.450956	-0.631023
05505		7.667773	-4.854661	14.109591	-2.223758	-7.497363	-2.260018	-0.710205	-0.253906	0.413330	-0.334824	-0.571002	0.473204	-0.581315
05506		15.701207	-1.108208	23.133866	-4.343813	-7.164899	-1.813899	-0.640137	-0.302002	0.467285	-0.335668	-0.598983	0.504629	-0.523350
05507		30.292654	-21.658170	24.553399	-4.173611	-1.318181	-0.745234	-0.616943	-0.337646	0.460205	-0.354687	-0.595250	0.522776	-0.496568
05508		2.900234	-16.839879	19.321853	-1.241127	2.651684	-0.862810	-0.620850	-0.343506	0.418457	-0.376444	-0.583575	0.515794	-0.501685
05509		-6.002428	-7.881582	9.601127	0.561876	2.546822	-1.426464	-0.611084	-0.337402	0.393311	-0.390944	-0.580046	0.498385	-0.512174
05510		0.734447	-3.961232	9.244862	0.700122	2.610106	-1.106684	-0.605225	-0.335449	0.378662	-0.403354	-0.575029	0.481346	-0.524360
05511		2.657732	-3.947220	10.064402	-0.017780	3.240145	-0.133116	-0.608154	-0.316406	0.343750	-0.417224	-0.560505	0.469646	-0.539621
05512		2.978433	-6.652851	9.746730	-0.245789	3.826748	0.661274	-0.624268	-0.311768	0.318115	-0.430523	-0.538868	0.460192	-0.559012
05513		6.634912	-7.405213	9.344475	0.279847	4.470101	1.199692	-0.639893	-0.274414	0.273926	-0.440813	-0.513321	0.447742	-0.584562
05514		8.186308	-4.467584	8.553986	0.775166	5.116112	1.727712	-0.662354	-0.261963	0.219482	-0.447954	-0.483519	0.431882	-0.615649
05515		9.128890	-1.787394	7.676114	0.781977	5.514618	2.005788	-0.688965	-0.217285	0.168945	-0.454033	-0.449546	0.414584	-0.647983
05516		10.762394	0.328336	8.165702	0.435389	5.750416	1.928616	-0.715576	-0.184570	0.090332	-0.461512	-0.412064	0.396890	-0.678003
05517		13.749394	0.318568	9.142755	-0.076498	6.003650	1.795316	-0.716309	-0.166260	0.013916	-0.471170	-0.370460	0.379569	-0.704760
05518		16.228790	-2.155269	9.073293	-0.275863	6.362678	1.678308	-0.722656	-0.137695	-0.067871	-0.481964	-0.325220	0.360515	-0.729363
05519		16.939322	-4.349876	8.056884	0.007118	6.552658	1.679610	-0.715576	-0.101074	-0.150391	-0.491049	-0.278942	0.337813	-0.752957
05520		17.847280	-4.663723	7.448013	0.386047	6.384614	1.930673	-0.693359	-0.079590	-0.228027	-0.495583	-0.233720	0.312892	-0.775803
05521		19.631560	-4.073976	7.569877	0.533052	6.084999	2.277592	-0.672363	-0.050293	-0.305176	-0.495212	-0.189495	0.287948	-0.797460
05522		21.113945	-3.366799	7.151692	0.485239	5.803731	2.484973	-0.638428	-0.021240	-0.367676	-0.491359	-0.145987	0.263966	-0.817053
05523		22.244561	-3.610604	5.031808	0.498569	5.486781	2.397043	-0.603516	0.006836	-0.439697	-0.486025	-0.104606	0.240390	-0.833697
05524		22.147196	-3.914025	1.465333	0.622230	4.947057	2.051698	-0.557861	0.031250	-0.491211	-0.480717	-0.068058	0.217330	-0.846786
05525		22.136286	-2.466954	-3.712593	0.619344	4.136537	1.535552	-0.524902	0.040771	-0.528076	-0.476663	-0.038175	0.196941	-0.855891
05526		23.456418	0.599899	-9.232218	0.161023	3.055529	1.142449	-0.486328	0.065918	-0.567139	-0.473178	-0.014932	0.183872	-0.861435
05527		25.997468	3.869328	-15.304027	-0.385010	1.761975	0.980549	-0.477783	0.083008	-0.584229	-0.468638	0.000781	0.179808	-0.864897
05528		25.170446	1.641190	-20.055048	-0.034798	0.216015	0.561199	-0.467773	0.084473	-0.585449	-0.464709	0.003181	0.179333	-0.867107
05529		19.380461	-2.654248	-17.460297	1.420159	-1.911068	-0.478354	-0.493408	0.062744	-0.568359	-0.464939	-0.017148	0.176684	-0.867364
05530		7.914458	-2.227958	7.331139	2.811921	-3.389124	-0.739730	-0.523193	0.019287	-0.549805	-0.464068	-0.054044	0.169592	-0.867732
05531		-4.939831	-0.904011	16.942988	1.566180	-4.187363	0.534246	-0.567139	0.011230	-0.502686	-0.452747	-0.090040	0.174901	-0.869668
05532		10.135672	8.118616	6.744739	1.595507	-4.876290	0.366695	-0.622314	-0.001953	-0.453369	-0.440936	-0.131162	0.182099	-0.869029
05533		14.349096	16.122201	13.116093	0.677072	-4.533299	-0.264974	-0.653076	-0.017090	-0.404297	-0.434704	-0.167192	0.193654	-0.863468
05534		17.600624	7.028983	12.163665	-0.654339	-3.794457	-0.553301	-0.675293	-0.026855	-0.359375	-0.433475	-0.193342	0.211437	-0.854408
05535		14.491420	-6.061651	9.634034	-0.749811	-2.942584	0.046137	-0.700928	-0.018555	-0.317139	-0.429480	-0.211872	0.227630	-0.847846
05536		12.983523	-6.626718	9.861020	-0.358854	-2.185286	0.137092	-0.709961	-0.027588	-0.295166	-0.425283	-0.226192	0.238433	-0.843280
05537		15.206401	-6.350524	10.090367	0.276185	-1.268630	-0.130741	-0.708252	-0.028564	-0.274658	-0.423394	-0.236817	0.240984	-0.840584
05538		7.608273	-1.796120	7.597144	0.144323	-0.433746	-0.122452	-0.706787	-0.027832	-0.254150	-0.423271	-0.241124	0.241529	-0.839264
05539		7.720678	-3.359070	6.908424	0.171939	-0.241561	-0.182913	-0.702637	-0.038818	-0.262207	-0.423894	-0.244300	0.241077	-0.838160
05540		7.048685	-2.104463	7.284015	0.107007	-0.118459	-0.130958	-0.698486	-0.037598	-0.251709	-0.424491	-0.246285	0.240747	-0.837372
05541		6.519395	-0.964842	7.804039	0.039476	-0.094905	-0.052446	-0.713867	-0.035645	-0.253662	-0.424716	-0.247705	0.240963	-0.836777
05542		6.363085	-1.027554	7.649539	-0.032944	-0.096175	0.032578	-0.697754	-0.034668	-0.247559	-0.424510	-0.248697	0.241859	-0.836329
05543		6.304950	-1.669067	7.604232	-0.079207	-0.103974	0.077935	-0.699707	-0.037354	-0.250000	-0.424080	-0.249477	0.243194	-0.835927
05544		6.375773	-2.079067	7.210914	-0.074893	-0.107597	0.061366	-0.696777	-0.042969	-0.232666	-0.423749	-0.250322	0.244471	-0.835470
05545		6.140750	-2.189971	7.142304	-0.048543	-0.097016	0.020093	-0.696045	-0.047119	-0.237305	-0.423664	-0.251264	0.245438	-0.834947
05546		6.220999	-2.218720	7.240087	-0.018447	-0.084198	-0.022042	-0.690430	-0.050293	-0.238525	-0.423820	-0.252302	0.246056	-0.834372
05547		6.216205	-1.878482	7.374599	0.006124	-0.078047	-0.060746	-0.693359	-0.058594	-0.238770	-0.424195	-0.253458	0.246396	-0.833731
05548		6.156531	-1.730814	7.389216	0.022094	-0.074114	-0.088473	-0.695801	-0.052246	-0.232666	-0.424730	-0.254693	0.246547	-0.833037
05549		6.065186	-1.892575	7.441351	0.055080	-0.062769	-0.127245	-0.681152	-0.065918	-0.237305	-0.425496	-0.256034	0.246345	-0.832294
05550		5.901573	-1.941434	7.360559	0.110846	-0.048825	-0.172447	-0.698242	-0.070068	-0.238281	-0.426465	-0.257565	0.245598	-0.831546
05551		6.222193	-1.871270	7.222728	0.148143	-0.042979	-0.201644	-0.692627	-0.074707	-0.235352	-0.427567	-0.259239	0.244507	-0.830782
05552		6.237299	-1.684354	7.411337	0.145393	-0.035729	-0.182361	-0.697510	-0.086670	-0.225830	-0.428545	-0.260807	0.243444	-0.830099
05553		6.170592	-1.361841	7.513824	0.117127	-0.035961	-0.150285	-0.693115	-0.085205	-0.221191	-0.429358	-0.262205	0.242641	-0.829473
05554		6.247457	-1.432870	7.422693	0.078294	-0.056380	-0.116276	-0.691406	-0.088867	-0.222656	-0.429985	-0.263525	0.242250	-0.828844
05555		6.552588	-1.446553	7.161891	0.047462	-0.068653	-0.099780	-0.696045	-0.085938	-0.213379	-0.430538	-0.264780	0.242147	-0.828187
05556		6.333278	-1.479409	7.304522	0.019819	-0.079154	-0.079608	-0.688721	-0.091553	-0.203857	-0.430995	-0.265962	0.242314	-0.827521
05557		6.189501	-1.678507	7.388071	-0.001432	-0.096888	-0.072278	-0.676758	-0.101074	-0.207764	-0.431410	-0.267168	0.242703	-0.826802
05558		6.092047	-1.937081	7.437369	-0.007311	-0.125328	-0.097120	-0.674316	-0.091553	-0.202637	-0.431946	-0.268593	0.243174	-0.825922
05559		5.939989	-1.779538	7.623754	-0.022471	-0.179231	-0.123307	-0.662354	-0.102539	-0.210693	-0.432579	-0.270379	0.243880	-0.824799
05560		6.220911	-1.515522	7.533002	-0.051451	-0.257094	-0.112949	-0.650391	-0.102539	-0.213379	-0.433040	-0.272566	0.245083	-0.823479
05561		6.175264	-1.291382	7.724021	-0.121372	-0.387660	-0.058170	-0.644775	-0.100586	-0.228027	-0.433014	-0.275273	0.247355	-0.821912
05562		6.378640	-1.281127	7.699924	-0.212779	-0.595229	-0.002305	-0.643311	-0.108154	-0.237793	-0.432383	-0.278942	0.251121	-0.819863
05563		6.243501	-1.642359	8.018784	-0.331447	-0.945355	0.016224	-0.654053	-0.120605	-0.255127	-0.431152	-0.284511	0.256986	-0.816774
05564		5.889792	-2.208513	8.405804	-0.456436	-1.420234	-0.038807	-0.675781	-0.119873	-0.259277	-0.429527	-0.292935	0.265244	-0.811999
05565		5.789537	-2.321599	8.796521	-0.552512	-2.023508	-0.103724	-0.698242	-0.126465	-0.258057	-0.427135	-0.305154	0.276085	-0.805117
05566		5.192771	-2.336805	9.555189	-0.695206	-2.874041	-0.113620	-0.725342	-0.129150	-0.233154	-0.423013	-0.322430	0.290751	-0.795338
05567		5.419255	-0.961565	9.833014	-0.859002	-3.923080	0.013136	-0.759033	-0.128906	-0.191162	-0.415581	-0.345459	0.310279	-0.782098
05568		4.943619	-0.467980	11.376028	-1.156329	-5.125212	0.310499	-0.800049	-0.127686	-0.129639	-0.403350	-0.373950	0.336282	-0.764451
05569		5.009974	-0.994074	12.466647	-1.496981	-6.445570	0.306542	-0.822266	-0.127930	-0.030762	-0.387542	-0.408715	0.368034	-0.739807
05570		8.568280	-3.658310	12.576461	-1.509406	-7.380579	-0.196662	-0.823486	-0.136475	0.081543	-0.370694	-0.449232	0.399879	-0.707725
05571		11.972066	-6.590190	11.538147	-1.583893	-7.554433	-0.958892	-0.812744	-0.156006	0.187012	-0.356532	-0.491180	0.428221	-0.669518
05572		14.992836	-4.681956	14.437561	-1.444360	-7.464491	-1.885632	-0.765869	-0.197021	0.292480	-0.345747	-0.534212	0.449911	-0.626623
05573		10.333799	-0.658242	15.885974	-3.306133	-6.997418	-1.441468	-0.726074	-0.224609	0.382568	-0.341217	-0.565414	0.480029	-0.577451
05574		18.732596	-0.355558	22.483898	-6.226398	-6.041821	-0.861728	-0.671143	-0.267822	0.417969	-0.349896	-0.578573	0.521930	-0.520014
05575		23.498269	-24.736504	20.479122	-4.730831	-0.290975	-0.807567	-0.638672	-0.303223	0.400146	-0.375062	-0.568771	0.539131	-0.495143
05576		0.360905	-15.211870	16.317511	-1.110257	2.541631	-1.888889	-0.636719	-0.323242	0.383057	-0.399713	-0.562721	0.526701	-0.496146
05577		-3.359060	-7.016309	8.452062	0.588049	2.378525	-2.355032	-0.621582	-0.340088	0.359375	-0.417250	-0.564573	0.505146	-0.501984
05578		1.126740	-4.481751	9.070511	0.531543	2.603987	-1.751488	-0.600098	-0.342773	0.335205	-0.433152	-0.562305	0.485483	-0.510391
05579		1.387087	-5.272040	9.137073	-0.130877	3.087593	-0.556984	-0.607178	-0.345947	0.301514	-0.448752	-0.550327	0.472141	-0.522345
05580		1.845312	-8.064777	8.125105	-0.120466	3.481153	0.471745	-0.611572	-0.324463	0.284912	-0.461033	-0.532162	0.461614	-0.539597
05581		4.219644	-8.197013	7.607140	0.580048	3.865887	1.202275	-0.631348	-0.307861	0.249512	-0.467904	-0.511584	0.449187	-0.563541
05582		6.035233	-5.340881	7.901138	1.080258	4.266165	1.871866	-0.659912	-0.273193	0.219727	-0.470314	-0.487845	0.435035	-0.592923
05583		7.886984	-2.739698	8.536005	1.053960	4.686573	2.340337	-0.688232	-0.239990	0.162842	-0.471184	-0.459322	0.420442	-0.624690
05584		10.310003	-0.868957	8.980852	0.747560	5.186304	2.451028	-0.708496	-0.208496	0.109863	-0.473392	-0.425576	0.404956	-0.656351
05585		12.038315	0.183847	9.302919	0.363466	5.647763	2.299872	-0.714111	-0.176025	0.039307	-0.478201	-0.387214	0.388174	-0.686083
05586		13.498344	-0.033067	9.497317	0.051128	5.980290	1.948782	-0.720215	-0.135254	-0.041260	-0.485849	-0.345771	0.369642	-0.712571
05587		15.096387	-1.623888	9.711965	-0.036430	6.177239	1.583916	-0.715332	-0.126709	-0.120117	-0.495186	-0.302942	0.348707	-0.735813
05588		16.804224	-3.072025	10.058335	0.011202	6.266664	1.494910	-0.707764	-0.091064	-0.199463	-0.503791	-0.259152	0.325847	-0.756874
05589		18.273604	-4.348368	9.785290	0.117301	6.236029	1.596008	-0.680176	-0.063965	-0.280029	-0.509968	-0.214995	0.301687	-0.776334
05590		19.414234	-4.771076	9.182987	0.183942	6.034047	1.784881	-0.649170	-0.042480	-0.350830	-0.512812	-0.171386	0.277411	-0.794162
05591		21.135248	-4.036652	8.047796	0.077180	5.786132	1.936973	-0.611084	-0.014160	-0.424072	-0.512800	-0.128208	0.254360	-0.809876
05592		21.029236	-4.382272	4.330270	-0.035070	5.373235	1.875010	-0.578125	0.009521	-0.488037	-0.511150	-0.087231	0.233148	-0.822653
05593		22.567574	-3.920396	0.167313	0.075780	4.620075	1.669824	-0.538086	0.030029	-0.525635	-0.508282	-0.052200	0.213800	-0.832595
05594		21.787599	-2.664198	-4.132485	-0.070251	3.894492	1.632788	-0.498047	0.055908	-0.563965	-0.503616	-0.021675	0.198258	-0.840592
05595		23.860423	2.748481	-11.324117	-0.527947	2.629591	1.564329	-0.463867	0.081543	-0.583984	-0.496862	0.001718	0.191090	-0.846528
05596		26.751444	3.574400	-19.815688	-0.735686	1.212777	1.445018	-0.449463	0.094727	-0.597656	-0.488409	0.015671	0.191230	-0.851259
05597		21.644732	0.525270	-18.801124	0.451388	-0.736391	0.301416	-0.454834	0.100098	-0.596680	-0.484968	0.009009	0.191083	-0.853354
05598		14.603535	-5.447985	-13.000650	2.202334	-2.953289	-0.692195	-0.487549	0.070068	-0.572510	-0.484853	-0.022182	0.187490	-0.853975
05599		3.763745	-0.028658	19.574298	2.877511	-3.530475	-0.574655	-0.527588	0.035156	-0.545898	-0.482154	-0.060059	0.181262	-0.855023
05600		0.859096	0.983419	9.253936	2.032472	-4.466235	0.207431	-0.582520	0.015381	-0.513672	-0.472186	-0.099918	0.184864	-0.856085
05601		13.206741	13.821726	10.841763	1.665033	-4.692911	-0.022943	-0.612549	-0.010498	-0.463379	-0.463041	-0.140120	0.191429	-0.853999
05602		14.153984	14.482091	12.458013	0.379280	-4.244163	-0.706237	-0.651367	-0.027344	-0.419678	-0.460436	-0.173083	0.204286	-0.846350
05603		15.557695	-0.200878	10.549577	-0.558034	-3.659868	-0.296590	-0.681641	-0.031006	-0.370117	-0.456942	-0.197460	0.221846	-0.838449
05604		13.516668	-5.411652	9.855041	-0.365275	-2.931322	-0.049711	-0.690186	-0.027344	-0.335938	-0.452405	-0.216895	0.235531	-0.832353
05605		11.569756	-6.372977	9.428978	-0.005983	-2.239867	-0.115687	-0.708496	-0.042236	-0.292969	-0.448774	-0.232931	0.243899	-0.827561
05606		15.395816	-4.712633	11.057706	0.507935	-1.360278	-0.401771	-0.703613	-0.047119	-0.279297	-0.447741	-0.245355	0.244825	-0.824251
05607		7.710189	-1.932204	7.817418	0.214054	-0.467073	-0.304524	-0.710693	-0.048340	-0.267822	-0.448393	-0.250344	0.244620	-0.822455
05608		8.188273	-2.262284	6.897780	0.230200	-0.230026	-0.312814	-0.706299	-0.062500	-0.261475	-0.449539	-0.253781	0.243395	-0.821138
05609		7.274235	-1.034844	7.286678	0.172731	-0.079318	-0.212191	-0.702148	-0.058350	-0.262939	-0.450410	-0.255769	0.242210	-0.820395
05610		6.891850	-0.452485	7.628521	0.099079	-0.054734	-0.102653	-0.695557	-0.068359	-0.258545	-0.450742	-0.257090	0.241667	-0.819960
05611		6.266060	-0.945155	7.688263	0.026286	-0.068100	-0.022658	-0.695557	-0.070068	-0.254395	-0.450665	-0.258065	0.241839	-0.819644
05612		6.320965	-1.713292	7.368620	-0.009886	-0.083229	0.017473	-0.699219	-0.065430	-0.255859	-0.450370	-0.258922	0.242399	-0.819371
05613		6.355977	-2.277214	7.166014	0.020594	-0.077343	-0.016153	-0.697754	-0.069580	-0.246094	-0.450251	-0.259916	0.242655	-0.819046
05614		6.153932	-2.132007	7.324742	0.071609	-0.060935	-0.078418	-0.701172	-0.071289	-0.244141	-0.450469	-0.261115	0.242365	-0.818631
05615		6.084237	-1.738175	7.527617	0.106810	-0.048112	-0.118349	-0.693848	-0.080322	-0.244629	-0.450902	-0.262434	0.241697	-0.818167
05616		6.022202	-1.628537	7.493837	0.107480	-0.040605	-0.131761	-0.691406	-0.085449	-0.247070	-0.451432	-0.263729	0.240959	-0.817677
05617		6.329070	-1.571148	7.193777	0.102962	-0.046763	-0.136117	-0.681641	-0.095947	-0.243652	-0.451987	-0.265051	0.240262	-0.817147
05618		6.225517	-1.453027	7.496122	0.093533	-0.044984	-0.135862	-0.681152	-0.094482	-0.246582	-0.452561	-0.266324	0.239620	-0.816605
05619		6.394696	-1.261698	7.404336	0.059005	-0.044664	-0.112931	-0.685547	-0.093262	-0.236816	-0.453068	-0.267407	0.239266	-0.816072
05620		6.215253	-1.373443	7.427800	0.042573	-0.041306	-0.084183	-0.684570	-0.114746	-0.237061	-0.453426	-0.268347	0.239075	-0.815621
05621		6.274328	-1.414743	7.380226	0.044203	-0.039801	-0.077574	-0.689697	-0.113037	-0.240967	-0.453723	-0.269271	0.238870	-0.815212
05622		6.282563	-1.449658	7.303888	0.041925	-0.034754	-0.075819	-0.697266	-0.118164	-0.239014	-0.454035	-0.270139	0.238670	-0.814809
05623		6.195928	-1.263013	7.354095	0.035680	-0.028930	-0.071723	-0.693604	-0.118164	-0.232422	-0.454340	-0.270934	0.238496	-0.814426
05624		6.432017	-1.233288	7.250585	0.013881	-0.036621	-0.062009	-0.691895	-0.119629	-0.225830	-0.454622	-0.271674	0.238521	-0.814015
05625		6.184956	-1.346567	7.423285	-0.005585	-0.053384	-0.044886	-0.689453	-0.123047	-0.215088	-0.454798	-0.272417	0.238777	-0.813593
05626		6.182523	-1.540320	7.451912	-0.020848	-0.088141	-0.063516	-0.685059	-0.125732	-0.219482	-0.455066	-0.273370	0.239224	-0.812992
05627		5.932324	-1.657966	7.729628	-0.035999	-0.133392	-0.084180	-0.680908	-0.122314	-0.209229	-0.455417	-0.274609	0.239896	-0.812179
05628		5.942558	-1.469513	7.658633	-0.064016	-0.210576	-0.084293	-0.662842	-0.120605	-0.210938	-0.455677	-0.276258	0.241046	-0.811133
05629		6.247124	-1.034802	7.671867	-0.144870	-0.328052	-0.030726	-0.655029	-0.128174	-0.216797	-0.455523	-0.278278	0.243308	-0.809853
05630		6.119283	-0.904308	7.898594	-0.252954	-0.513468	0.062621	-0.648926	-0.123535	-0.217773	-0.454611	-0.280940	0.247212	-0.808262
05631		6.041750	-1.394972	8.211582	-0.372859	-0.846739	0.097296	-0.642334	-0.122559	-0.223389	-0.453047	-0.285302	0.253254	-0.805738
05632		5.861151	-1.943989	8.567975	-0.518888	-1.319374	0.053478	-0.646240	-0.127197	-0.229492	-0.451086	-0.292342	0.261926	-0.801531
05633		6.024134	-2.549987	8.585025	-0.637546	-1.980393	-0.034169	-0.657959	-0.126221	-0.229248	-0.448457	-0.303465	0.273599	-0.794946
05634		5.103180	-2.811462	9.481830	-0.740352	-2.829781	-0.118787	-0.674805	-0.124756	-0.209229	-0.444507	-0.319872	0.288783	-0.785302
05635		5.038417	-1.255929	10.137021	-0.866976	-3.908140	-0.081447	-0.706787	-0.141357	-0.174316	-0.437674	-0.342480	0.308630	-0.771943
05636		4.943311	-0.168162	11.191586	-1.061504	-5.107423	0.159033	-0.747803	-0.135254	-0.133301	-0.426121	-0.370927	0.334309	-0.754368
05637		5.056435	0.016553	12.767743	-1.473908	-6.444514	0.376423	-0.768555	-0.135742	-0.043945	-0.409730	-0.404748	0.367152	-0.730411
05638		7.987069	-3.352199	12.410704	-1.503366	-7.399111	-0.071727	-0.782471	-0.144531	0.051514	-0.391845	-0.444173	0.400619	-0.699050
05639		11.885407	-6.171489	11.141373	-1.530290	-7.575583	-0.782018	-0.773926	-0.151367	0.160889	-0.376023	-0.485049	0.430550	-0.661786
05640		12.833374	-6.133698	11.916437	-1.100281	-7.572464	-1.828145	-0.740479	-0.186035	0.257324	-0.362639	-0.528906	0.452041	-0.620009
05641		7.502018	-4.313969	11.859277	-1.730253	-7.482466	-2.113904	-0.696777	-0.219482	0.365479	-0.352270	-0.569124	0.473282	-0.572720
05642		5.307291	-0.148094	18.022471	-3.827958	-7.787111	-1.692107	-0.633301	-0.267822	0.435059	-0.346911	-0.600128	0.505088	-0.514184
05643		40.429511	-15.630910	25.908854	-5.206162	-3.240826	-0.747886	-0.587402	-0.302490	0.445557	-0.362173	-0.601218	0.532369	-0.473235
05644		10.548712	-19.172263	23.494210	-2.478110	2.715752	-0.488305	-0.590088	-0.313232	0.411621	-0.388566	-0.584693	0.531267	-0.474243
05645		-5.569019	-11.124849	11.151463	0.155899	3.300545	-1.333363	-0.594971	-0.323486	0.386475	-0.407698	-0.577502	0.513242	-0.486679
05646		-0.102664	-4.392395	8.403875	1.049827	3.060051	-1.610120	-0.576904	-0.319092	0.359619	-0.422248	-0.574958	0.490604	-0.500438
05647		3.793827	-1.481925	9.575954	0.188419	3.538183	-0.773464	-0.587646	-0.322266	0.337646	-0.439024	-0.563408	0.473430	-0.515454
05648		2.729983	-4.447079	9.305719	-0.744287	4.103052	0.198752	-0.602295	-0.324463	0.301025	-0.457792	-0.541538	0.462248	-0.532437
05649		5.615477	-7.190202	9.146133	-0.571869	4.572233	0.799712	-0.626709	-0.315186	0.256836	-0.474302	-0.515142	0.450575	-0.553759
05650		7.990002	-5.938733	8.391683	0.064864	5.195869	1.403118	-0.649170	-0.284912	0.193604	-0.486785	-0.485163	0.435265	-0.581550
05651		8.190603	-3.454769	7.419988	0.435817	5.545421	1.859433	-0.682617	-0.261719	0.135986	-0.495743	-0.452230	0.417591	-0.612654
05652		9.385879	-0.627850	7.913859	0.322729	5.675652	2.016896	-0.698975	-0.225830	0.070801	-0.503550	-0.416469	0.399483	-0.642965
05653		11.714221	0.082089	8.945537	-0.135593	5.821403	2.089739	-0.710205	-0.195557	-0.006104	-0.511737	-0.376650	0.382392	-0.670848
05654		14.063997	-2.013410	9.260871	-0.334011	6.063262	2.120339	-0.709961	-0.163818	-0.089355	-0.519726	-0.333471	0.364374	-0.697075
05655		14.906955	-4.250488	9.003156	0.035675	6.189861	2.144991	-0.703125	-0.143311	-0.161621	-0.525391	-0.290094	0.342620	-0.722787
05656		16.403589	-4.495247	9.091247	0.466470	6.110822	2.400869	-0.690186	-0.104492	-0.239746	-0.526644	-0.247478	0.318173	-0.748443
05657		18.754615	-4.096889	9.538400	0.641748	5.914411	2.804636	-0.658936	-0.067139	-0.302490	-0.522880	-0.205058	0.293334	-0.773629
05658		21.025278	-3.524591	8.960883	0.640294	5.739036	3.011795	-0.635010	-0.031006	-0.382080	-0.515765	-0.162679	0.268723	-0.797063
05659		22.833245	-4.019098	6.820875	0.640761	5.626981	2.763562	-0.597900	-0.003662	-0.442383	-0.508540	-0.121188	0.243471	-0.816959
05660		21.986847	-4.217312	2.603493	0.694194	5.270269	2.133929	-0.552490	0.021729	-0.500488	-0.503501	-0.083388	0.218123	-0.831838
05661		21.884395	-2.734890	-2.682270	0.388667	4.435800	1.557387	-0.506348	0.037842	-0.544189	-0.500146	-0.051047	0.197601	-0.841547
05662		24.081481	-0.801184	-8.819654	-0.225028	3.243285	1.351043	-0.482666	0.066650	-0.574463	-0.495891	-0.024868	0.186068	-0.847852
05663		28.497496	2.859286	-16.017730	-0.547966	1.918712	1.446417	-0.467285	0.079102	-0.579346	-0.488617	-0.006641	0.182246	-0.853226
05664		26.722791	0.996394	-23.067130	0.299994	0.340409	0.893435	-0.454346	0.091553	-0.584717	-0.482681	-0.004042	0.178814	-0.857338
05665		20.066434	0.503283	-17.482498	1.734381	-1.857144	-0.447431	-0.479248	0.062744	-0.576660	-0.482826	-0.025015	0.173956	-0.857900
05666		10.362988	-1.640097	7.085811	2.796463	-3.234661	-0.778527	-0.509277	0.026123	-0.554443	-0.482649	-0.060639	0.166874	-0.857628
05667		-6.284044	1.714408	20.157733	1.555867	-3.868979	0.201673	-0.548584	0.015137	-0.534180	-0.474589	-0.094397	0.171493	-0.858163
05668		10.566737	7.980804	7.612610	1.329042	-4.402170	-0.051303	-0.582520	-0.010986	-0.485107	-0.467148	-0.131263	0.179361	-0.855788
05669		13.051898	11.492387	11.626809	0.335374	-4.307968	-0.125749	-0.627197	-0.018066	-0.437256	-0.460848	-0.163556	0.193595	-0.850523
05670		16.922668	4.520567	12.258018	-0.445380	-3.829902	-0.307711	-0.652832	-0.025879	-0.398926	-0.457186	-0.189604	0.211024	-0.842912
05671		14.474466	-2.701843	10.514872	-0.708816	-2.914134	0.132994	-0.667969	-0.012451	-0.363770	-0.452096	-0.207321	0.227331	-0.837227
05672		10.475541	-4.394121	9.173327	-0.659324	-2.196095	0.193943	-0.690186	-0.024170	-0.325684	-0.447622	-0.220015	0.240589	-0.832673
05673		8.277129	-5.945917	7.974313	-0.250080	-1.845278	0.123474	-0.703125	-0.019287	-0.301514	-0.443441	-0.231882	0.249504	-0.829059
05674		11.731894	-6.947906	9.076470	0.354706	-1.279237	-0.218014	-0.704102	-0.025635	-0.283203	-0.441525	-0.242740	0.251451	-0.826381
05675		9.133363	-2.735853	7.928233	0.546639	-0.590277	-0.440865	-0.710205	-0.033691	-0.263672	-0.442133	-0.250009	0.249078	-0.824605
05676		8.656279	-1.083522	7.476577	0.306801	-0.285719	-0.331398	-0.703613	-0.039062	-0.259277	-0.443097	-0.254069	0.247451	-0.823336
05677		7.071729	-0.260294	7.908360	0.139179	-0.148656	-0.151473	-0.697266	-0.046631	-0.252686	-0.443461	-0.256199	0.246844	-0.822661
05678		6.470706	-1.002503	7.857244	0.010636	-0.108682	-0.010243	-0.704102	-0.050049	-0.259033	-0.443219	-0.257290	0.247267	-0.822324
05679		6.418818	-1.631944	7.439732	-0.030690	-0.099151	0.036333	-0.689941	-0.037109	-0.261230	-0.442769	-0.258064	0.248034	-0.822094
05680		6.155283	-2.165238	7.320654	-0.040698	-0.095344	0.039242	-0.701172	-0.049805	-0.256592	-0.442339	-0.258762	0.248863	-0.821855
05681		6.132798	-2.436722	7.223995	-0.016808	-0.096462	0.001238	-0.699219	-0.046387	-0.250488	-0.442091	-0.259644	0.249442	-0.821534
05682		5.984169	-2.308257	7.441891	0.030505	-0.086424	-0.060555	-0.694336	-0.047363	-0.244141	-0.442204	-0.260747	0.249535	-0.821096
05683		6.174880	-1.633397	7.308980	0.047932	-0.090569	-0.100564	-0.691650	-0.053955	-0.242676	-0.442542	-0.262022	0.249435	-0.820538
05684		5.976807	-1.382329	7.681418	0.023734	-0.098759	-0.085510	-0.694824	-0.059326	-0.235596	-0.442800	-0.263234	0.249554	-0.819975
05685		6.255664	-1.535080	7.519168	-0.011960	-0.101596	-0.051626	-0.694336	-0.050293	-0.239014	-0.442897	-0.264264	0.249999	-0.819456
05686		6.208869	-1.649800	7.338854	-0.039256	-0.094712	-0.028892	-0.684570	-0.058350	-0.238037	-0.442949	-0.265074	0.250667	-0.818962
05687		6.421223	-1.697955	7.321795	-0.053122	-0.088025	-0.023399	-0.686279	-0.058594	-0.238037	-0.442982	-0.265787	0.251399	-0.818488
05688		6.334195	-1.832277	7.322843	-0.073407	-0.085938	-0.005143	-0.698975	-0.070801	-0.229736	-0.442945	-0.266369	0.252305	-0.818040
05689		6.149694	-1.884073	7.311127	-0.069911	-0.084109	-0.002716	-0.698730	-0.067139	-0.234619	-0.442856	-0.266963	0.253173	-0.817626
05690		6.141871	-1.823030	7.264012	-0.052236	-0.082365	-0.018040	-0.690918	-0.079590	-0.235107	-0.442871	-0.267616	0.253891	-0.817182
05691		6.177361	-1.989488	7.248796	-0.024494	-0.078159	-0.045308	-0.689941	-0.074707	-0.225342	-0.442988	-0.268413	0.254321	-0.816723
05692		6.142679	-2.130311	7.246303	0.007364	-0.080322	-0.082059	-0.702393	-0.078125	-0.226562	-0.443317	-0.269403	0.254486	-0.816167
05693		5.990313	-2.127612	7.379807	0.039598	-0.079478	-0.127244	-0.689941	-0.083496	-0.220947	-0.443864	-0.270604	0.254318	-0.815525
05694		6.048831	-2.229314	7.381144	0.064541	-0.103625	-0.188996	-0.691406	-0.079102	-0.208740	-0.444733	-0.272183	0.253930	-0.814647
05695		6.181672	-2.135449	7.375136	0.060704	-0.138120	-0.218082	-0.687744	-0.090576	-0.208496	-0.445736	-0.274036	0.253631	-0.813570
05696		6.363684	-1.544699	7.400455	0.032679	-0.192856	-0.210628	-0.685547	-0.092529	-0.198975	-0.446630	-0.276135	0.253738	-0.812335
05697		6.471292	-1.390292	7.248550	-0.020968	-0.278387	-0.136855	-0.680176	-0.088867	-0.205078	-0.446966	-0.278453	0.254692	-0.811059
05698		6.360490	-1.262325	7.595960	-0.088322	-0.408559	-0.049722	-0.664795	-0.094482	-0.203125	-0.446592	-0.281210	0.256784	-0.809654
05699		5.882323	-1.596539	8.156577	-0.173091	-0.624379	0.003919	-0.668457	-0.094727	-0.209717	-0.445585	-0.284983	0.260368	-0.807742
05700		5.887175	-1.748046	8.367348	-0.306781	-0.980853	0.012284	-0.665039	-0.105713	-0.217285	-0.444045	-0.290619	0.266177	-0.804683
05701		6.181346	-1.946671	8.406766	-0.468243	-1.497483	-0.005647	-0.672607	-0.099365	-0.217773	-0.441818	-0.299118	0.274900	-0.799847
05702		5.953278	-2.449919	8.723579	-0.587430	-2.170005	-0.021784	-0.683838	-0.107910	-0.204590	-0.438342	-0.311609	0.286776	-0.792790
05703		5.315063	-2.528886	9.356213	-0.756285	-3.057998	0.018325	-0.703125	-0.109375	-0.183838	-0.432689	-0.329079	0.302958	-0.782754
05704		5.015368	-0.909770	10.538377	-0.929081	-4.094917	0.178581	-0.722900	-0.109375	-0.142090	-0.423435	-0.351949	0.324143	-0.769263
05705		4.246738	-1.016742	12.006282	-1.295772	-5.300120	0.334869	-0.752441	-0.108154	-0.086670	-0.410311	-0.380221	0.351834	-0.750526
05706		5.706313	-1.674037	12.149272	-1.593845	-6.521469	0.107381	-0.764648	-0.115967	0.000000	-0.394920	-0.414752	0.383903	-0.724319
05707		10.523248	-4.250301	12.792954	-1.643342	-7.272268	-0.451070	-0.770020	-0.127686	0.099365	-0.379301	-0.453946	0.415443	-0.690993
05708		11.389729	-7.828331	10.786951	-1.625406	-7.536433	-1.264335	-0.762207	-0.146484	0.203857	-0.365851	-0.495655	0.442941	-0.651370
05709		14.166502	-3.662682	14.646082	-1.779283	-7.171606	-2.082910	-0.723389	-0.193604	0.294434	-0.357298	-0.535839	0.464933	-0.607496
05710		6.346186	-0.280078	16.158678	-3.720500	-6.961428	-1.613114	-0.682617	-0.229736	0.373047	-0.354331	-0.565021	0.496204	-0.555862
05711		26.248058	-9.079481	21.369770	-6.072903	-5.296946	-0.735443	-0.632812	-0.270752	0.414062	-0.363674	-0.573331	0.535328	-0.502451
05712		17.106308	-24.382376	23.996485	-3.262821	1.109192	-0.868120	-0.629883	-0.294678	0.388672	-0.387774	-0.562307	0.541208	-0.490445
05713		-5.459483	-12.248461	12.905361	-0.068429	2.487395	-1.744936	-0.614990	-0.313232	0.368652	-0.406414	-0.559400	0.525069	-0.496188
05714		-1.693548	-4.859209	8.805748	0.848566	2.255173	-2.076952	-0.606689	-0.317383	0.363770	-0.420868	-0.561584	0.504032	-0.503433
05715		2.067799	-3.022304	9.940446	0.115637	2.707607	-1.247559	-0.603027	-0.314453	0.332764	-0.436912	-0.555412	0.488030	-0.512300
05716		1.184678	-5.731920	8.948980	-0.690643	3.279698	-0.076194	-0.610352	-0.315918	0.301758	-0.453723	-0.538672	0.478461	-0.524445
05717		2.710579	-8.801814	7.704689	-0.444092	3.658780	0.727288	-0.626709	-0.307373	0.272705	-0.467028	-0.517488	0.469559	-0.541854
05718		5.601739	-8.380833	7.503611	0.439691	4.085710	1.323387	-0.658447	-0.280762	0.227295	-0.474960	-0.494850	0.457032	-0.566267
05719		7.745969	-5.408001	7.681381	1.029582	4.561246	1.817837	-0.678467	-0.253418	0.172363	-0.479207	-0.469625	0.441165	-0.595975
05720		9.387646	-2.647753	7.810500	1.005408	5.014533	2.093439	-0.693848	-0.220459	0.125488	-0.482916	-0.440094	0.423804	-0.627296
05721		11.378874	-0.762470	8.253318	0.532886	5.381087	2.197993	-0.708496	-0.183350	0.060791	-0.488016	-0.405359	0.406833	-0.657275
05722		13.319169	-1.242675	8.109375	0.057018	5.719109	2.169199	-0.713379	-0.153320	-0.010742	-0.494808	-0.365906	0.389950	-0.684994
05723		14.554694	-3.759313	7.369713	0.104902	5.920632	1.955504	-0.716064	-0.128662	-0.085693	-0.502002	-0.325208	0.370244	-0.710741
05724		14.760599	-5.130291	7.285971	0.517466	5.877112	1.871825	-0.701904	-0.093750	-0.153564	-0.507074	-0.285866	0.347034	-0.735339
05725		16.472530	-5.080003	8.497408	0.745982	5.658893	2.174706	-0.698730	-0.072266	-0.225098	-0.507763	-0.247196	0.323138	-0.759377
05726		18.200088	-5.093616	8.852435	0.706833	5.498984	2.634431	-0.671143	-0.038574	-0.298340	-0.503852	-0.207497	0.300253	-0.782896
05727		19.531939	-4.841570	8.113053	0.723573	5.310064	2.813285	-0.650879	-0.007324	-0.363281	-0.496952	-0.168137	0.277572	-0.804812
05728		20.974685	-3.931372	6.872748	0.764311	5.127331	2.669532	-0.614502	0.021973	-0.423828	-0.489297	-0.130124	0.254486	-0.823950
05729		20.989871	-3.200029	4.411263	0.718733	4.857309	2.251845	-0.567871	0.052490	-0.483887	-0.482895	-0.094424	0.231808	-0.839143
05730		21.019878	-2.732862	-0.444323	0.602587	4.322658	1.711656	-0.534180	0.064209	-0.528320	-0.478457	-0.062924	0.211272	-0.849990
05731		22.836053	0.216212	-7.026850	0.228775	3.464663	1.259322	-0.498047	0.086670	-0.558594	-0.475305	-0.036790	0.196335	-0.856846
05732		27.632954	5.548623	-16.028978	-0.476475	2.356862	1.051231	-0.471191	0.102051	-0.575684	-0.471693	-0.016162	0.190656	-0.860752
05733		24.759196	2.394130	-23.958497	0.081972	0.630652	0.313043	-0.467041	0.103271	-0.581787	-0.470432	-0.011382	0.187658	-0.862176
05734		19.703312	-0.215167	-16.846138	1.672702	-1.691606	-1.071591	-0.482666	0.071045	-0.577393	-0.475209	-0.031772	0.182220	-0.860211
05735		10.141338	-1.003833	5.803091	2.625609	-2.935379	-1.429940	-0.510010	0.033447	-0.553223	-0.479999	-0.065431	0.174680	-0.857209
05736		-7.428979	-2.555840	19.958412	1.436305	-3.673501	-0.163921	-0.555664	0.009277	-0.522949	-0.474757	-0.097715	0.179083	-0.856147
05737		8.867433	6.965257	6.313661	1.282916	-4.414375	-0.088202	-0.592773	-0.006592	-0.485107	-0.467387	-0.134395	0.187313	-0.853464
05738		13.749580	12.823762	13.109003	0.194775	-4.460246	-0.086261	-0.632812	-0.006836	-0.439453	-0.460478	-0.167002	0.203177	-0.847815
05739		18.252526	4.887653	12.119997	-0.748661	-3.710242	-0.334876	-0.656738	-0.018555	-0.390381	-0.457360	-0.190961	0.222201	-0.839632
05740		14.632717	-5.756028	9.708970	-0.739655	-2.825448	0.140723	-0.679443	-0.005127	-0.352539	-0.452172	-0.207775	0.238361	-0.833999
05741		11.661375	-4.540888	9.732194	-0.491765	-2.063280	0.178403	-0.693848	-0.006104	-0.317139	-0.447593	-0.220071	0.249901	-0.829927
05742		8.317748	-5.634846	8.008294	-0.120642	-1.593149	0.026074	-0.696289	-0.019287	-0.301758	-0.444252	-0.230768	0.256788	-0.826708
05743		10.221799	-6.850634	8.240018	0.464078	-1.080708	-0.294011	-0.709717	-0.018311	-0.281494	-0.443019	-0.240750	0.257108	-0.824420
05744		8.509396	-3.236899	7.717353	0.651787	-0.564956	-0.515276	-0.696777	-0.038574	-0.272949	-0.443990	-0.248332	0.253783	-0.822678
05745		8.609655	-1.197515	7.668058	0.463605	-0.268927	-0.437461	-0.693848	-0.037842	-0.267090	-0.445416	-0.253013	0.250802	-0.821394
05746		7.512682	-0.096424	7.944651	0.225648	-0.101474	-0.219504	-0.699707	-0.040771	-0.264648	-0.446193	-0.255207	0.249283	-0.820755
05747		6.538043	-0.789671	7.859158	0.054489	-0.058832	-0.046624	-0.701172	-0.044678	-0.261230	-0.446238	-0.256118	0.249136	-0.820491
05748		6.245646	-1.753469	7.652742	0.007831	-0.040475	0.003864	-0.689209	-0.043213	-0.258301	-0.446075	-0.256627	0.249342	-0.820359
05749		6.503801	-2.077665	7.090845	0.025119	-0.027547	0.002896	-0.697021	-0.050049	-0.261963	-0.445917	-0.257106	0.249381	-0.820283
05750		6.056766	-2.316095	7.250990	0.066999	-0.005559	-0.031056	-0.696533	-0.056641	-0.250977	-0.445923	-0.257671	0.248968	-0.820228
05751		5.905876	-2.489900	7.309898	0.121304	0.005209	-0.088039	-0.695557	-0.048828	-0.256104	-0.446213	-0.258493	0.248020	-0.820098
05752		5.651060	-2.026130	7.417917	0.168829	0.006988	-0.142159	-0.681885	-0.062988	-0.255371	-0.446837	-0.259545	0.246655	-0.819838
05753		5.684186	-1.628641	7.482655	0.187703	-0.025243	-0.178350	-0.687012	-0.061035	-0.250488	-0.447535	-0.260990	0.245151	-0.819450
05754		5.707661	-1.388506	7.721606	0.193460	-0.068869	-0.198712	-0.679932	-0.077393	-0.252930	-0.448306	-0.262779	0.243759	-0.818872
05755		5.870702	-1.371559	7.720764	0.175619	-0.074591	-0.189186	-0.690186	-0.078857	-0.251465	-0.448965	-0.264547	0.242472	-0.818323
05756		5.982065	-1.608679	7.536570	0.145821	-0.086672	-0.169239	-0.685547	-0.081787	-0.248291	-0.449546	-0.266234	0.241501	-0.817744
05757		6.268921	-1.740957	7.434642	0.120044	-0.096487	-0.160812	-0.686768	-0.094482	-0.236084	-0.450132	-0.267859	0.240767	-0.817107
05758		6.373185	-1.632579	7.267366	0.103804	-0.085569	-0.146329	-0.688965	-0.105225	-0.243652	-0.450627	-0.269352	0.240114	-0.816536
05759		6.028464	-1.596835	7.527404	0.080575	-0.087535	-0.118462	-0.689941	-0.101318	-0.234619	-0.451012	-0.270682	0.239695	-0.816006
05760		6.182371	-1.491528	7.389371	0.054197	-0.105207	-0.103934	-0.687256	-0.103271	-0.236572	-0.451363	-0.271983	0.239582	-0.815412
05761		6.214670	-1.471029	7.440620	0.035211	-0.116101	-0.092981	-0.684326	-0.105225	-0.232422	-0.451660	-0.273260	0.239658	-0.814798
05762		6.091476	-1.715315	7.521930	0.029555	-0.118032	-0.097321	-0.688232	-0.107422	-0.222168	-0.451995	-0.274535	0.239769	-0.814151
05763		5.994885	-1.693699	7.595372	0.014478	-0.147889	-0.111411	-0.685791	-0.104736	-0.216553	-0.452399	-0.275982	0.240061	-0.813351
05764		6.293619	-1.411392	7.548107	-0.021810	-0.196145	-0.102123	-0.678955	-0.106689	-0.218506	-0.452728	-0.277595	0.240801	-0.812400
05765		6.524753	-0.967016	7.452185	-0.100205	-0.272864	-0.032646	-0.669434	-0.108154	-0.208252	-0.452612	-0.279287	0.242518	-0.811373
05766		6.064121	-1.112661	7.739592	-0.198543	-0.387769	0.037850	-0.663818	-0.107178	-0.223877	-0.452012	-0.281240	0.245493	-0.810138
05767		6.344269	-1.381508	7.684118	-0.254666	-0.521677	0.079949	-0.649658	-0.106201	-0.229736	-0.450977	-0.283791	0.249442	-0.808617
05768		6.096116	-1.823923	7.804012	-0.298075	-0.710784	0.093333	-0.650635	-0.113770	-0.233643	-0.449548	-0.287412	0.254415	-0.806581
05769		6.033718	-2.426067	7.988735	-0.345924	-1.057294	-0.004761	-0.661133	-0.111572	-0.240723	-0.448130	-0.293367	0.260755	-0.803195
05770		5.904621	-2.300591	8.519143	-0.470486	-1.552604	-0.122760	-0.663086	-0.124268	-0.241211	-0.446670	-0.302381	0.269453	-0.797776
05771		5.822141	-2.440856	8.819982	-0.591799	-2.188235	-0.181850	-0.688477	-0.124268	-0.232422	-0.444360	-0.315211	0.281098	-0.790045
05772		5.438125	-1.895884	9.509128	-0.710164	-3.051119	-0.173235	-0.709961	-0.141113	-0.214600	-0.440050	-0.333086	0.296587	-0.779388
05773		4.948938	-1.052735	10.413198	-0.916185	-4.107893	0.002327	-0.747070	-0.142578	-0.165527	-0.432140	-0.356299	0.317481	-0.765188
05774		5.209785	-0.598249	11.066587	-1.188099	-5.365289	0.162903	-0.768066	-0.146973	-0.105957	-0.419969	-0.385511	0.344566	-0.745843
05775		5.599649	-1.955389	13.010487	-1.468278	-6.565253	-0.050091	-0.790527	-0.154297	-0.014404	-0.405482	-0.420775	0.375978	-0.719148
05776		10.701567	-4.262636	13.731869	-1.628541	-7.211580	-0.652184	-0.796875	-0.160889	0.080322	-0.391732	-0.459759	0.407090	-0.685161
05777		11.563252	-7.318969	11.171188	-1.669228	-7.349241	-1.464099	-0.780273	-0.191162	0.184570	-0.380759	-0.500302	0.434148	-0.645164
05778		13.903051	-3.350266	14.162918	-1.956910	-7.013980	-2.125298	-0.742188	-0.221680	0.281006	-0.374213	-0.538470	0.457177	-0.600836
05779		4.299947	-1.285311	15.933410	-3.844952	-6.849219	-1.667676	-0.687012	-0.260010	0.361084	-0.372898	-0.565881	0.489236	-0.548975
05780		30.289759	-13.005988	21.104414	-5.684562	-4.491749	-0.379693	-0.656494	-0.295654	0.388428	-0.382468	-0.569231	0.526457	-0.502531
05781		11.165741	-23.047314	21.003386	-2.854930	0.977761	-0.454233	-0.653076	-0.316162	0.358887	-0.402119	-0.557741	0.532924	-0.493171
05782		-5.569088	-12.364957	11.632551	0.086125	1.876528	-1.160910	-0.644287	-0.316162	0.349121	-0.414803	-0.555188	0.520768	-0.498503
05783		-1.340351	-5.259682	9.333057	0.984023	1.832839	-1.208061	-0.632080	-0.312256	0.336426	-0.423193	-0.555872	0.504637	-0.507204
05784		1.392222	-2.803717	10.508953	0.361765	2.386470	-0.400722	-0.622803	-0.307617	0.317383	-0.433221	-0.548369	0.492712	-0.518504
05785		1.363284	-4.833321	9.759609	-0.304505	3.023731	0.452454	-0.629150	-0.298584	0.289307	-0.445001	-0.531882	0.484984	-0.532791
05786		3.424018	-7.089879	8.621512	-0.041637	3.537656	0.877681	-0.638916	-0.284912	0.257568	-0.455454	-0.511914	0.475674	-0.551579
05787		6.217385	-6.524218	8.134601	0.628734	4.098045	1.241674	-0.660645	-0.255615	0.219482	-0.463088	-0.489862	0.462171	-0.576180
05788		7.266439	-4.322841	7.736620	1.031456	4.591855	1.654414	-0.691162	-0.235596	0.175293	-0.468294	-0.464622	0.445796	-0.605056
05789		8.252492	-2.198769	7.714722	1.047299	4.918419	1.923075	-0.714111	-0.210205	0.126465	-0.472420	-0.435899	0.428247	-0.635150
05790		10.127317	-0.910242	8.000680	0.818651	5.183660	2.014544	-0.714600	-0.175781	0.057373	-0.476838	-0.403603	0.410262	-0.664391
05791		11.113559	-0.998799	8.267134	0.646228	5.390526	1.942036	-0.722900	-0.140381	-0.004883	-0.481860	-0.368797	0.391207	-0.691923
05792		12.451527	-2.047191	8.564327	0.667417	5.482056	1.714345	-0.716064	-0.119629	-0.069580	-0.487298	-0.333421	0.370024	-0.717254
05793		13.545942	-3.682276	8.964374	0.840792	5.510843	1.504963	-0.708740	-0.094482	-0.136230	-0.492452	-0.298436	0.346224	-0.740646
05794		14.758083	-4.819008	9.660327	1.030755	5.435367	1.343946	-0.705566	-0.077881	-0.211914	-0.496772	-0.264468	0.320353	-0.762003
05795		17.296457	-4.881004	10.610088	0.960190	5.357115	1.308608	-0.678223	-0.067139	-0.276611	-0.500153	-0.230206	0.294457	-0.781120
05796		19.126963	-4.154513	9.982689	0.557866	5.298697	1.435292	-0.658447	-0.042480	-0.338135	-0.502251	-0.193848	0.271028	-0.797941
05797		20.632096	-4.091008	7.944775	0.224929	5.078034	1.427008	-0.632324	-0.018311	-0.413330	-0.503413	-0.157207	0.250175	-0.811957
05798		22.400091	-4.098759	4.427398	0.320412	4.663077	1.116575	-0.591309	-0.006348	-0.457520	-0.504782	-0.124170	0.229580	-0.822843
05799		23.983928	-2.233200	0.260596	0.349755	4.432474	0.952585	-0.549561	0.001465	-0.504395	-0.506032	-0.093004	0.209260	-0.831560
05800		22.573610	0.673963	-7.636741	-0.042683	3.695562	0.853880	-0.526855	0.021729	-0.536133	-0.506367	-0.065402	0.194466	-0.837555
05801		26.858215	4.529687	-17.842343	-0.530739	2.483093	0.926743	-0.490234	0.041260	-0.567871	-0.504115	-0.044099	0.188123	-0.841744
05802		24.114413	0.925753	-24.182546	0.208645	0.656568	0.752979	-0.483643	0.047119	-0.572998	-0.499805	-0.039057	0.184195	-0.845424
05803		19.396636	-1.175799	-16.827408	1.855018	-1.599481	0.066617	-0.498779	0.030762	-0.559570	-0.496226	-0.057880	0.177858	-0.847807
05804		15.631303	0.982353	-5.766578	2.699447	-3.336238	-0.252471	-0.545654	-0.011719	-0.530273	-0.491506	-0.092935	0.172488	-0.848548
05805		-2.992136	3.218358	25.432915	1.811708	-3.595548	0.601198	-0.570801	-0.020020	-0.505615	-0.480460	-0.124891	0.174936	-0.850269
05806		8.743887	11.114764	6.339488	1.181424	-4.281300	-0.060448	-0.616699	-0.031982	-0.457520	-0.473133	-0.159969	0.183647	-0.846657
05807		14.315950	11.424683	13.358029	0.165519	-4.368690	-0.165347	-0.650146	-0.051514	-0.416504	-0.467102	-0.191642	0.199452	-0.839826
05808		16.383182	0.839752	10.281640	-0.466109	-3.605522	-0.312587	-0.677246	-0.049316	-0.359375	-0.463826	-0.215589	0.216213	-0.831648
05809		13.636117	-3.488757	9.191717	-0.313741	-2.896674	-0.021976	-0.699707	-0.058838	-0.329590	-0.459180	-0.234554	0.229538	-0.825500
05810		12.087549	-4.624421	10.315890	-0.148491	-2.171946	-0.114252	-0.702881	-0.056396	-0.297852	-0.456018	-0.249244	0.238680	-0.820339
05811		16.229979	-4.268876	10.584784	0.174849	-1.068770	-0.305385	-0.714600	-0.057861	-0.273926	-0.455590	-0.257951	0.240982	-0.817207
05812		6.858528	-3.007535	7.461670	0.126791	-0.387675	-0.272127	-0.711182	-0.066650	-0.269775	-0.456381	-0.261767	0.241097	-0.815516
05813		8.144972	-2.466565	6.784904	0.197436	-0.163825	-0.299723	-0.699707	-0.074707	-0.269043	-0.457650	-0.264378	0.239821	-0.814338
05814		6.890432	-1.230191	7.572523	0.160330	-0.037885	-0.222748	-0.698975	-0.071289	-0.268066	-0.458727	-0.265839	0.238487	-0.813648
05815		6.347785	-0.472316	7.830507	0.067883	-0.045924	-0.097773	-0.702637	-0.079590	-0.263916	-0.459144	-0.266750	0.238087	-0.813231
05816		6.693406	-0.877307	7.355662	0.019368	-0.066193	-0.024255	-0.693604	-0.071777	-0.252686	-0.459127	-0.267470	0.238250	-0.812957
05817		6.658596	-1.571360	7.267647	0.014988	-0.074391	-0.004483	-0.694336	-0.089600	-0.255859	-0.458974	-0.268187	0.238520	-0.812728
05818		6.128407	-2.266586	7.330792	0.036314	-0.071881	-0.028117	-0.698975	-0.084961	-0.253906	-0.458920	-0.269023	0.238569	-0.812468
05819		6.138729	-2.319172	7.163866	0.073688	-0.061718	-0.075133	-0.689941	-0.089600	-0.248291	-0.459139	-0.270014	0.238236	-0.812113
05820		6.239135	-1.788179	7.381524	0.092021	-0.052743	-0.101835	-0.687500	-0.095703	-0.248535	-0.459511	-0.271068	0.237681	-0.811714
05821		6.198352	-1.104261	7.518091	0.084865	-0.046430	-0.091896	-0.682861	-0.092529	-0.238770	-0.459834	-0.272034	0.237162	-0.811360
05822		6.343162	-0.824678	7.507845	0.059739	-0.054859	-0.062256	-0.681396	-0.106689	-0.243896	-0.460018	-0.272892	0.236931	-0.811035
05823		6.117477	-1.163523	7.629948	0.039335	-0.052485	-0.046070	-0.683105	-0.112305	-0.242188	-0.460112	-0.273635	0.236835	-0.810759
05824		6.227581	-1.535601	7.366225	0.023089	-0.037005	-0.046028	-0.679932	-0.107910	-0.244629	-0.460281	-0.274205	0.236796	-0.810482
05825		6.183742	-1.410950	7.383862	0.022189	-0.023484	-0.043344	-0.681396	-0.118164	-0.242676	-0.460482	-0.274660	0.236731	-0.810232
05826		6.319596	-1.215297	7.277807	0.027221	-0.022431	-0.041924	-0.688477	-0.125244	-0.243896	-0.460648	-0.275134	0.236619	-0.810010
05827		6.357627	-1.205632	7.245453	0.015118	-0.020397	-0.031588	-0.689941	-0.130371	-0.234131	-0.460776	-0.275524	0.236606	-0.809808
05828		6.250851	-1.316517	7.353437	0.009443	-0.012039	-0.031875	-0.687012	-0.124756	-0.229492	-0.460942	-0.275834	0.236602	-0.809609
05829		5.939774	-1.559031	7.496862	0.013231	-0.015822	-0.036490	-0.686035	-0.131348	-0.235107	-0.461129	-0.276187	0.236578	-0.809390
05830		5.911987	-1.524193	7.616301	0.022235	-0.031124	-0.054589	-0.688232	-0.132324	-0.218994	-0.461386	-0.276711	0.236507	-0.809085
05831		6.056260	-1.499611	7.674182	0.010456	-0.089758	-0.068361	-0.687988	-0.132324	-0.219971	-0.461647	-0.277609	0.236710	-0.808569
05832		5.934110	-1.561420	7.656800	-0.004905	-0.165406	-0.070775	-0.673096	-0.126465	-0.208008	-0.461812	-0.278959	0.237300	-0.807837
05833		6.197597	-1.309134	7.596119	-0.064042	-0.270162	-0.058496	-0.669922	-0.128906	-0.208252	-0.461822	-0.280758	0.238718	-0.806789
05834		6.214494	-0.964249	7.739663	-0.200278	-0.429402	0.015884	-0.657227	-0.126953	-0.211670	-0.461330	-0.282949	0.241835	-0.805376
05835		6.138740	-1.091098	7.991422	-0.333602	-0.661527	0.101009	-0.645020	-0.130371	-0.218506	-0.460100	-0.286004	0.246930	-0.803452
05836		5.990330	-1.717886	8.430749	-0.468427	-1.074063	0.096840	-0.641602	-0.120850	-0.228027	-0.458338	-0.291290	0.254479	-0.800198
05837		5.850784	-2.044153	8.752830	-0.638148	-1.669006	0.022107	-0.646729	-0.132324	-0.221680	-0.456152	-0.300001	0.265208	-0.794726
05838		5.880807	-2.365516	9.019581	-0.744930	-2.421476	-0.046002	-0.662598	-0.130615	-0.214111	-0.452868	-0.313330	0.279241	-0.786612
05839		5.080610	-2.012628	9.932071	-0.817388	-3.365535	-0.038746	-0.689453	-0.147949	-0.198486	-0.447239	-0.332345	0.297148	-0.775389
05840		4.870618	-0.618686	10.567747	-1.011680	-4.482382	0.140804	-0.720459	-0.139404	-0.152100	-0.437706	-0.357008	0.320616	-0.760371
05841		4.980240	0.563046	11.791645	-1.338334	-5.732725	0.477194	-0.746826	-0.137451	-0.081787	-0.422820	-0.386791	0.351069	-0.740518
05842		5.888082	-1.657978	12.783656	-1.678564	-6.936218	0.417063	-0.759277	-0.126953	-0.002686	-0.404619	-0.421801	0.386588	-0.713384
05843		11.050828	-4.285075	13.177586	-1.743716	-7.544417	-0.179696	-0.769043	-0.137939	0.103516	-0.386677	-0.460480	0.420932	-0.679158
05844		11.105578	-8.024090	10.307979	-1.561011	-7.734250	-1.060075	-0.754150	-0.159180	0.206055	-0.370695	-0.501916	0.449658	-0.639119
05845		10.880900	-3.619605	11.660216	-1.551646	-7.465261	-1.876549	-0.716553	-0.195801	0.317627	-0.358423	-0.542804	0.472143	-0.594960
05846		4.959585	-5.130976	13.911909	-2.438916	-7.784403	-2.001134	-0.670898	-0.231445	0.396973	-0.347888	-0.580606	0.497230	-0.542802
05847		25.821915	-7.731510	22.380784	-4.397768	-6.627566	-1.163387	-0.606689	-0.264160	0.450439	-0.346203	-0.601294	0.529533	-0.488041
05848		26.320801	-24.221187	29.079896	-2.535767	0.647832	-0.126115	-0.601074	-0.282959	0.437988	-0.362229	-0.591680	0.537151	-0.479764
05849		-4.383535	-14.370702	15.879726	0.160665	3.142585	-0.114538	-0.601807	-0.275635	0.412109	-0.375883	-0.579745	0.526204	-0.495699
05850		-4.899512	-4.506569	8.553677	1.074548	2.565972	-0.491626	-0.602051	-0.257568	0.398438	-0.383925	-0.574285	0.511152	-0.511392
05851		3.145466	-1.460196	10.678156	0.407357	2.859451	-0.147756	-0.607910	-0.250732	0.373535	-0.394731	-0.563621	0.499355	-0.526462
05852		3.133137	-4.381935	10.854192	-0.279349	3.845035	0.383622	-0.625000	-0.254150	0.335449	-0.410214	-0.543684	0.489397	-0.544631
05853		4.842564	-6.537808	9.896904	0.036621	4.597071	0.427022	-0.645020	-0.235352	0.307861	-0.426613	-0.520513	0.474999	-0.566960
05854		8.104553	-5.151659	8.862101	0.500625	5.390090	0.709560	-0.670166	-0.210449	0.249756	-0.442040	-0.493159	0.455963	-0.594552
05855		8.173751	-3.311124	7.649852	0.648037	5.886519	1.107351	-0.690918	-0.198242	0.179932	-0.455754	-0.461204	0.434940	-0.624825
05856		8.984934	-2.328848	7.290369	0.613342	6.042740	1.248402	-0.708740	-0.176514	0.105469	-0.468239	-0.426560	0.412896	-0.654459
05857		10.788850	-1.581088	7.826494	0.399967	6.081297	1.360964	-0.710449	-0.158691	0.029297	-0.479726	-0.389308	0.391130	-0.682143
05858		12.479886	-3.113118	8.174578	0.238076	6.048976	1.562619	-0.727539	-0.132812	-0.045654	-0.489166	-0.349857	0.369984	-0.708116
05859		14.224578	-5.521091	8.701005	0.507119	6.002043	1.761044	-0.715088	-0.105469	-0.120605	-0.495153	-0.310192	0.346995	-0.733620
05860		15.981378	-6.536578	9.405869	1.009445	6.009443	1.974426	-0.704346	-0.085449	-0.196289	-0.497161	-0.271052	0.320479	-0.759378
05861		17.180940	-5.261972	9.359653	1.293155	5.904225	2.152893	-0.685547	-0.056641	-0.269531	-0.495690	-0.232489	0.292087	-0.784172
05862		19.439690	-3.749698	8.712508	1.165095	5.621978	2.307888	-0.656738	-0.030518	-0.330078	-0.491391	-0.194221	0.265183	-0.806530
05863		22.237206	-3.372460	6.834126	0.920390	5.280243	2.283263	-0.629395	-0.002930	-0.414307	-0.485658	-0.156832	0.240614	-0.825618
05864		25.372198	-3.558345	0.997984	1.160006	4.607111	1.645280	-0.590820	0.010254	-0.451172	-0.481648	-0.126028	0.215799	-0.839978
05865		28.035512	-1.158950	-3.584413	1.093148	4.345142	1.206231	-0.558105	0.021729	-0.498779	-0.479534	-0.097421	0.191720	-0.850764
05866		26.517934	2.366968	-12.050548	0.322710	3.630269	0.742842	-0.522461	0.032227	-0.542969	-0.479609	-0.071488	0.175382	-0.856800
05867		27.226705	4.066845	-20.795925	-0.425218	1.971086	0.371700	-0.502441	0.036377	-0.550049	-0.480061	-0.054981	0.170721	-0.858704
05868		25.517898	-0.648796	-26.649797	0.457121	-0.325864	-0.119382	-0.505371	0.033203	-0.552734	-0.480292	-0.059211	0.168730	-0.858688
05869		16.542721	3.173748	-22.809401	1.936870	-3.330803	-0.869182	-0.533936	0.008057	-0.518799	-0.480694	-0.091948	0.167782	-0.855762
05870		1.241296	2.838653	31.624509	0.675046	-4.112191	0.459479	-0.570068	-0.003662	-0.487793	-0.470947	-0.123289	0.179829	-0.854793
05871		7.039589	5.839702	3.585866	0.470434	-4.813577	-0.327395	-0.607910	-0.011475	-0.434082	-0.465257	-0.159815	0.194982	-0.848515
05872		20.855082	6.426675	16.519762	-0.243025	-4.619778	-0.123960	-0.643066	-0.020996	-0.387207	-0.458644	-0.191650	0.214382	-0.840807
05873		17.296070	-0.242628	8.679166	-0.654585	-3.457845	-0.211477	-0.669189	-0.028809	-0.343750	-0.454810	-0.213751	0.231816	-0.832899
05874		13.768390	-3.113281	8.833548	-0.471702	-2.631331	0.045629	-0.683594	-0.032715	-0.310303	-0.450144	-0.230195	0.245155	-0.827212
05875		11.560908	-7.972564	10.208969	-0.008537	-1.900917	-0.174345	-0.702881	-0.034180	-0.278076	-0.447429	-0.243715	0.252058	-0.822725
05876		12.219339	-4.719154	8.739256	0.771506	-0.925172	-0.579901	-0.699463	-0.041992	-0.268555	-0.447883	-0.254251	0.249124	-0.820179
05877		8.071212	-2.643284	7.646321	0.526750	-0.360065	-0.561778	-0.702881	-0.057617	-0.262207	-0.449868	-0.259955	0.245782	-0.818311
05878		8.577496	-1.507480	7.205650	0.448432	-0.073830	-0.473761	-0.694824	-0.057373	-0.254150	-0.451990	-0.263223	0.242085	-0.817199
05879		7.331575	-0.580236	7.415068	0.281323	0.013639	-0.280828	-0.690186	-0.070557	-0.261719	-0.453332	-0.264875	0.239616	-0.816649
05880		6.257225	-0.936462	7.794883	0.171863	0.005136	-0.161646	-0.698486	-0.067139	-0.248779	-0.454078	-0.265936	0.238179	-0.816310
05881		6.421855	-1.112614	7.526286	0.095831	-0.022367	-0.091857	-0.694824	-0.068604	-0.254395	-0.454465	-0.266757	0.237519	-0.816019
05882		6.267291	-1.472702	7.507154	0.035064	-0.042861	-0.024873	-0.689209	-0.070312	-0.239014	-0.454487	-0.267352	0.237493	-0.815819
05883		6.542225	-1.973198	7.007042	0.022791	-0.047083	-0.015009	-0.695801	-0.073486	-0.246338	-0.454462	-0.267911	0.237588	-0.815622
05884		6.069045	-2.126570	7.267441	0.049614	-0.032303	-0.047171	-0.686523	-0.065186	-0.241211	-0.454622	-0.268533	0.237372	-0.815392
05885		6.121916	-1.749569	7.504811	0.065316	-0.034124	-0.073306	-0.692871	-0.080811	-0.242432	-0.454931	-0.269270	0.237004	-0.815083
05886		6.110572	-1.064901	7.685635	0.044392	-0.044525	-0.054719	-0.686768	-0.075439	-0.240234	-0.455125	-0.269969	0.236848	-0.814789
05887		6.033018	-1.259312	7.575475	0.025125	-0.048926	-0.031270	-0.684326	-0.081299	-0.227783	-0.455207	-0.270569	0.236900	-0.814529
05888		6.143753	-1.561424	7.409724	0.020201	-0.053908	-0.036263	-0.689941	-0.084473	-0.227539	-0.455318	-0.271197	0.236988	-0.814232
05889		6.315875	-1.651169	7.302950	0.027858	-0.049160	-0.054072	-0.689941	-0.080811	-0.227051	-0.455543	-0.271853	0.236964	-0.813895
05890		6.224429	-1.547593	7.404195	0.029879	-0.052326	-0.067164	-0.678711	-0.090332	-0.232910	-0.455848	-0.272560	0.236911	-0.813503
05891		6.032688	-1.221746	7.641510	0.019291	-0.054344	-0.058022	-0.687256	-0.100830	-0.228271	-0.456108	-0.273221	0.236953	-0.813123
05892		6.299319	-1.046108	7.395912	0.005971	-0.064765	-0.037364	-0.688965	-0.096924	-0.234863	-0.456235	-0.273864	0.237170	-0.812772
05893		6.470670	-1.206440	7.125175	-0.006337	-0.063979	-0.023795	-0.694580	-0.100342	-0.226074	-0.456305	-0.274420	0.237499	-0.812449
05894		6.264183	-1.523457	7.249218	-0.001070	-0.046959	-0.023352	-0.686768	-0.098877	-0.224854	-0.456388	-0.274886	0.237728	-0.812178
05895		6.029992	-1.524031	7.461492	0.004016	-0.051442	-0.045782	-0.684814	-0.104492	-0.225586	-0.456607	-0.275440	0.237887	-0.811820
05896		5.905119	-1.669650	7.632263	-0.002248	-0.079212	-0.071991	-0.688965	-0.104492	-0.215088	-0.456959	-0.276210	0.238130	-0.811289
05897		5.977798	-1.673218	7.788962	-0.022144	-0.126262	-0.100305	-0.684570	-0.107910	-0.208252	-0.457456	-0.277274	0.238624	-0.810501
05898		5.989932	-1.383143	7.730784	-0.079999	-0.189104	-0.088555	-0.687012	-0.111084	-0.219971	-0.457882	-0.278514	0.239774	-0.809495
05899		6.361536	-1.018147	7.565013	-0.171783	-0.314847	-0.022520	-0.681885	-0.108643	-0.218750	-0.457822	-0.280115	0.242171	-0.808263
05900		6.326751	-1.074827	7.637868	-0.252893	-0.473184	0.054947	-0.668701	-0.108887	-0.207520	-0.457102	-0.282310	0.245893	-0.806781
05901		6.053789	-1.310226	7.962064	-0.327280	-0.706923	0.094310	-0.672607	-0.109375	-0.209473	-0.455797	-0.285703	0.251089	-0.804722
05902		5.820788	-2.007145	8.361717	-0.439573	-1.098543	0.058622	-0.675293	-0.115234	-0.208252	-0.454147	-0.291347	0.258418	-0.801304
05903		5.878548	-2.258959	8.534593	-0.598235	-1.604827	-0.040083	-0.675537	-0.111572	-0.204346	-0.452381	-0.299932	0.268443	-0.795821
05904		6.042690	-2.296602	8.693860	-0.701769	-2.270424	-0.116319	-0.691406	-0.123047	-0.191895	-0.449754	-0.312613	0.281390	-0.787917
05905		5.354701	-2.002523	9.649098	-0.812506	-3.195255	-0.124392	-0.706543	-0.120850	-0.168213	-0.445040	-0.330780	0.298343	-0.776862
05906		4.967140	-0.849651	10.533410	-1.009261	-4.289311	0.057879	-0.725586	-0.135010	-0.128418	-0.436497	-0.354484	0.320806	-0.762165
05907		4.873574	-0.381693	11.629786	-1.311492	-5.466411	0.284148	-0.739502	-0.133057	-0.069580	-0.423483	-0.383313	0.349548	-0.742663
05908		5.792815	-2.417267	12.554399	-1.546740	-6.626787	0.060264	-0.764160	-0.137939	0.026855	-0.408075	-0.418088	0.382151	-0.715987
05909		10.986214	-4.712217	13.447476	-1.600064	-7.280197	-0.579218	-0.757812	-0.152832	0.117676	-0.393137	-0.457110	0.413688	-0.682171
05910		12.244859	-7.993159	12.022838	-1.482939	-7.534247	-1.501661	-0.734863	-0.168945	0.216309	-0.380520	-0.499258	0.440182	-0.642017
05911		15.801535	-2.614806	16.951676	-2.060954	-7.001660	-2.092065	-0.699219	-0.202881	0.307861	-0.373850	-0.536808	0.463809	-0.597457
05912		1.620926	0.163080	17.007546	-4.404477	-6.836550	-1.404676	-0.652588	-0.245850	0.376953	-0.373245	-0.561230	0.499594	-0.544164
05913		35.457979	-17.711597	21.377125	-5.629305	-3.897948	-0.824629	-0.626709	-0.289307	0.392090	-0.386470	-0.563862	0.532479	-0.499166
05914		5.164266	-22.013626	21.650974	-2.264940	1.614207	-1.095444	-0.616211	-0.307617	0.372070	-0.408728	-0.554444	0.531313	-0.493194
05915		-6.558204	-9.791797	10.179072	0.438728	1.761135	-2.065274	-0.604980	-0.315430	0.353760	-0.422907	-0.557526	0.513775	-0.496336
05916		0.955055	-5.644495	10.804476	0.718948	2.002112	-1.688485	-0.598145	-0.335205	0.355957	-0.435052	-0.558654	0.495729	-0.502880
05917		0.848476	-5.775762	10.418783	-0.016367	2.798623	-0.448441	-0.603516	-0.328125	0.328369	-0.448489	-0.548329	0.483376	-0.514335
05918		0.343395	-8.660378	8.279309	-0.021789	3.323336	0.404723	-0.618408	-0.313477	0.302246	-0.460109	-0.531899	0.472652	-0.531021
05919		2.768231	-8.694093	7.536500	0.707122	3.719244	0.867143	-0.639648	-0.300781	0.264648	-0.467590	-0.514162	0.458807	-0.553618
05920		5.109208	-5.907927	7.832279	1.128641	4.129503	1.423480	-0.653564	-0.265137	0.226074	-0.471694	-0.493372	0.443236	-0.581060
05921		7.343071	-3.554494	8.292611	0.960263	4.547437	1.977275	-0.684326	-0.237061	0.176270	-0.474598	-0.467030	0.428391	-0.610836
05922		10.154582	-2.495016	8.371995	0.575742	5.005459	2.275466	-0.701416	-0.203125	0.117188	-0.478181	-0.434834	0.413992	-0.640994
05923		12.020108	-1.921313	8.306112	0.336614	5.438998	2.284004	-0.715820	-0.165527	0.051270	-0.482976	-0.398329	0.398202	-0.670450
05924		13.574884	-2.078453	8.096880	0.245758	5.731950	2.096885	-0.720459	-0.137695	-0.022705	-0.488857	-0.359424	0.380094	-0.698113
05925		14.381335	-3.368249	7.889632	0.349968	5.847014	1.927164	-0.716553	-0.098877	-0.096680	-0.494480	-0.319854	0.359389	-0.723894
05926		15.691879	-4.139903	8.711180	0.593633	5.830661	1.964231	-0.707764	-0.088379	-0.159424	-0.497853	-0.280414	0.336414	-0.748556
05927		17.787289	-3.322772	8.905987	0.753213	5.776266	2.084734	-0.691406	-0.052734	-0.246582	-0.498618	-0.240883	0.312050	-0.771998
05928		18.671238	-2.219020	7.781110	0.668544	5.586047	2.143680	-0.667969	-0.028809	-0.315186	-0.497375	-0.201448	0.288322	-0.793037
05929		19.139302	-2.581580	6.941116	0.599078	5.206540	1.955174	-0.641846	-0.010986	-0.377930	-0.495405	-0.164227	0.265629	-0.810583
05930		20.581574	-3.736522	6.239418	0.705639	4.874809	1.519630	-0.605225	0.009766	-0.438232	-0.494497	-0.130341	0.242461	-0.824437
05931		21.247678	-3.646632	3.209854	0.781167	4.597488	1.080611	-0.569092	0.020020	-0.488281	-0.495119	-0.099361	0.219041	-0.834869
05932		21.311893	-1.499183	-1.824336	0.405839	4.052092	0.941471	-0.523682	0.045166	-0.532471	-0.495343	-0.070774	0.200084	-0.842373
05933		21.624376	0.817438	-8.185809	-0.304507	2.942804	1.056314	-0.505615	0.058350	-0.552979	-0.492877	-0.046826	0.190597	-0.847675
05934		26.169528	2.808549	-14.816038	-0.572155	1.707582	1.311035	-0.484131	0.075439	-0.573486	-0.486518	-0.030127	0.188105	-0.852648
05935		23.607272	1.138396	-20.875162	0.640588	0.182391	0.716700	-0.476074	0.066895	-0.577881	-0.481613	-0.030173	0.183034	-0.856526
05936		18.669272	1.382801	-17.879403	2.133911	-2.255079	-0.591325	-0.509766	0.043945	-0.566406	-0.481803	-0.055648	0.176745	-0.856464
05937		10.794398	0.999497	6.545505	2.577422	-3.495365	-0.716028	-0.536133	0.010010	-0.536133	-0.480380	-0.091926	0.172083	-0.855086
05938		-3.836948	-1.167041	17.201812	1.628835	-4.101406	0.235898	-0.578613	-0.003662	-0.490723	-0.471369	-0.127261	0.177116	-0.854544
05939		10.188246	8.174368	7.420371	1.426005	-4.836040	0.108868	-0.621826	-0.024902	-0.446533	-0.461636	-0.166995	0.186054	-0.851110
05940		15.690849	13.114604	13.266712	0.662229	-4.387952	-0.265908	-0.650879	-0.035400	-0.402100	-0.455554	-0.200968	0.197854	-0.844356
05941		16.309586	2.840916	11.266323	-0.393554	-3.607174	-0.326261	-0.672363	-0.046875	-0.352783	-0.452375	-0.225363	0.213750	-0.835990
05942		12.871027	-4.242690	9.011232	-0.302371	-2.917614	-0.066449	-0.704102	-0.045654	-0.324951	-0.448081	-0.244692	0.226729	-0.829423
05943		18.011723	-4.024743	14.520262	-0.067747	-1.953767	-0.221538	-0.710449	-0.053467	-0.296875	-0.446012	-0.258427	0.234089	-0.824313
05944		10.827455	-4.885794	6.657693	0.017642	-0.551163	-0.214670	-0.712158	-0.054199	-0.276367	-0.446384	-0.262801	0.235638	-0.822284
05945		8.224241	-2.657638	6.795402	0.163961	-0.261713	-0.296101	-0.694580	-0.069092	-0.264404	-0.447562	-0.265890	0.234943	-0.820849
05946		7.068569	-2.076090	7.136683	0.203806	-0.060370	-0.291870	-0.708252	-0.064697	-0.260010	-0.449016	-0.267740	0.233236	-0.819940
05947		7.155022	-1.072941	7.434512	0.175320	-0.008957	-0.226865	-0.705566	-0.063965	-0.255127	-0.450186	-0.269002	0.231678	-0.819326
05948		6.479292	-0.810812	7.635475	0.125432	-0.023039	-0.133478	-0.695557	-0.069580	-0.258545	-0.450800	-0.269994	0.230720	-0.818933
05949		6.387260	-0.588875	7.609772	0.057642	-0.050784	-0.052987	-0.702881	-0.078857	-0.248779	-0.450961	-0.270766	0.230505	-0.818650
05950		6.105913	-1.814311	7.431336	0.016338	-0.085163	-0.022136	-0.696289	-0.073730	-0.247070	-0.450932	-0.271563	0.230766	-0.818328
05951		6.353550	-2.289264	7.144653	0.037435	-0.095858	-0.062705	-0.694336	-0.080811	-0.251465	-0.451120	-0.272580	0.230836	-0.817867
05952		6.399479	-1.757829	7.368508	0.059174	-0.089879	-0.085480	-0.697754	-0.093018	-0.247314	-0.451418	-0.273682	0.230675	-0.817379
05953		6.107571	-1.225478	7.499834	0.056247	-0.092008	-0.072264	-0.693359	-0.085449	-0.236572	-0.451608	-0.274778	0.230557	-0.816940
05954		6.137214	-1.037875	7.498063	0.028804	-0.100510	-0.061148	-0.699463	-0.093994	-0.237549	-0.451797	-0.275792	0.230715	-0.816449
05955		6.260655	-1.260442	7.395554	0.015072	-0.105326	-0.055608	-0.687012	-0.091064	-0.238281	-0.451938	-0.276794	0.230968	-0.815960
05956		6.264650	-1.337647	7.355376	0.010484	-0.101015	-0.057933	-0.695068	-0.092285	-0.240234	-0.452151	-0.277722	0.231240	-0.815450
05957		6.207196	-1.261752	7.547319	0.004400	-0.096239	-0.051906	-0.678711	-0.105469	-0.229492	-0.452330	-0.278586	0.231545	-0.814969
05958		6.421242	-1.121656	7.291894	-0.013458	-0.087803	-0.038708	-0.685791	-0.106689	-0.237549	-0.452452	-0.279333	0.231931	-0.814536
05959		6.403101	-1.082448	7.220091	-0.021471	-0.068798	-0.023084	-0.685547	-0.105225	-0.228271	-0.452532	-0.279867	0.232351	-0.814188
05960		6.316675	-1.191927	7.301844	-0.024188	-0.061846	-0.016737	-0.686523	-0.108643	-0.231934	-0.452600	-0.280328	0.232803	-0.813863
05961		6.395274	-1.433488	7.178750	-0.025619	-0.060819	-0.031792	-0.688721	-0.105957	-0.230469	-0.452777	-0.280799	0.233221	-0.813482
05962		6.234091	-1.294896	7.324877	-0.033386	-0.060121	-0.043135	-0.682129	-0.121582	-0.220947	-0.453055	-0.281252	0.233670	-0.813041
05963		6.141515	-1.360033	7.522231	-0.058813	-0.092451	-0.027213	-0.695068	-0.118408	-0.222900	-0.453217	-0.281802	0.234443	-0.812538
05964		5.833637	-1.102483	7.973710	-0.152347	-0.160545	0.029672	-0.687988	-0.118408	-0.212158	-0.453083	-0.282340	0.236244	-0.811904
05965		6.155670	-1.005119	7.738195	-0.238377	-0.256994	0.089711	-0.694092	-0.110840	-0.202881	-0.452553	-0.283082	0.239127	-0.811097
05966		6.391167	-1.221693	7.574714	-0.289226	-0.364578	0.122600	-0.684814	-0.112793	-0.195312	-0.451699	-0.284289	0.242832	-0.810050
05967		6.296847	-1.188462	7.600819	-0.323477	-0.525153	0.151935	-0.684326	-0.102295	-0.193359	-0.450392	-0.286383	0.247434	-0.808646
05968		6.166830	-1.346344	7.883815	-0.392055	-0.816916	0.179120	-0.673096	-0.105713	-0.188232	-0.448444	-0.290115	0.253644	-0.806472
05969		6.073061	-1.946605	8.222591	-0.499160	-1.244496	0.166813	-0.677979	-0.102295	-0.176514	-0.445890	-0.296315	0.262116	-0.802917
05970		5.869289	-3.003348	8.364698	-0.624274	-1.776917	0.061436	-0.682129	-0.098877	-0.166016	-0.443102	-0.305781	0.273091	-0.797233
05971		5.663943	-2.490365	9.027669	-0.735195	-2.426679	-0.033422	-0.663818	-0.102783	-0.151367	-0.439596	-0.319253	0.286867	-0.789012
05972		5.290381	-2.026781	9.579057	-0.830044	-3.364911	-0.012690	-0.690674	-0.110840	-0.127197	-0.433679	-0.338280	0.304569	-0.777642
05973		5.272276	-0.257935	10.613016	-1.086708	-4.415411	0.201164	-0.705078	-0.102295	-0.081543	-0.423938	-0.362245	0.327978	-0.762553
05974		5.128924	0.325996	11.796846	-1.443217	-5.651937	0.507011	-0.721924	-0.096436	-0.029785	-0.409133	-0.391265	0.358292	-0.742394
05975		6.221290	-1.790602	12.402531	-1.715817	-6.873963	0.416117	-0.733643	-0.094727	0.052002	-0.390922	-0.426022	0.393076	-0.714966
05976		11.416185	-3.837199	12.770987	-1.792823	-7.462021	-0.101908	-0.739990	-0.104248	0.139404	-0.372659	-0.464094	0.426879	-0.680821
05977		11.898614	-8.109446	10.869909	-1.623409	-7.691183	-0.993762	-0.716064	-0.127930	0.249268	-0.356409	-0.505189	0.455162	-0.640769
05978		13.038985	-3.771244	13.803434	-1.881849	-7.294527	-1.730686	-0.674316	-0.157227	0.341553	-0.345172	-0.544026	0.478611	-0.596509
05979		5.414519	-0.994542	16.955778	-3.755403	-7.358627	-1.336516	-0.631104	-0.185791	0.409180	-0.338660	-0.573764	0.511153	-0.542980
05980		25.408834	-8.333877	21.300235	-6.484848	-5.897946	-0.457485	-0.582520	-0.242676	0.458496	-0.345708	-0.582531	0.553471	-0.484575
05981		19.971177	-28.882445	24.330722	-3.392096	0.956193	-0.434345	-0.578613	-0.266113	0.436035	-0.368196	-0.570606	0.561944	-0.472291
05982		-4.746984	-15.735187	14.395303	0.554906	2.907566	-1.152631	-0.576904	-0.276367	0.411865	-0.383598	-0.565931	0.545063	-0.485264
05983		-2.322575	-6.326294	9.110022	1.948929	2.618115	-1.494330	-0.581299	-0.266113	0.416260	-0.392197	-0.567917	0.521445	-0.501744
05984		3.005031	-2.069446	10.465869	1.419722	3.154437	-0.890600	-0.579102	-0.262207	0.391113	-0.402767	-0.562770	0.500674	-0.519994
05985		2.887498	-2.813313	10.506487	0.318836	3.957682	-0.054619	-0.618408	-0.259277	0.348145	-0.417831	-0.546380	0.485376	-0.539718
05986		4.756269	-5.787974	9.392866	0.174045	4.587807	0.165502	-0.631348	-0.249268	0.316162	-0.434571	-0.525033	0.468897	-0.561805
05987		9.043182	-5.407820	8.477358	0.652107	5.395132	0.107005	-0.664307	-0.243896	0.252930	-0.451873	-0.500901	0.446168	-0.588084
05988		8.694255	-2.326443	6.711765	0.722919	6.001121	0.099040	-0.671875	-0.222656	0.179443	-0.470126	-0.472900	0.419749	-0.615757
05989		8.971734	-0.558349	6.469324	0.117614	6.013580	0.214236	-0.690186	-0.224365	0.106445	-0.489014	-0.440832	0.395765	-0.640236
05990		13.003983	-2.304168	7.819336	-0.625246	6.026995	0.638325	-0.704834	-0.206055	0.033203	-0.507149	-0.403114	0.376228	-0.662383
05991		15.126626	-5.791543	7.537216	-0.683040	6.343817	1.217058	-0.705811	-0.186279	-0.049316	-0.521849	-0.360454	0.356574	-0.686004
05992		13.335791	-6.894544	6.101484	-0.016072	6.244432	1.686071	-0.707520	-0.163086	-0.118164	-0.530033	-0.318780	0.333919	-0.711296
05993		14.970391	-5.498971	6.946355	0.497944	5.740459	2.211439	-0.695557	-0.138672	-0.198486	-0.530856	-0.279984	0.310921	-0.736973
05994		18.040487	-3.299606	7.896631	0.509970	5.439381	2.873606	-0.681396	-0.095215	-0.269043	-0.525402	-0.240615	0.289906	-0.762897
05995		19.701998	-2.197886	7.643920	0.484247	5.215231	3.225835	-0.656494	-0.065674	-0.335205	-0.515820	-0.201078	0.269971	-0.787790
05996		20.885451	-1.745553	7.190827	0.668738	5.068480	3.144676	-0.635010	-0.019775	-0.395752	-0.504804	-0.162980	0.248622	-0.810430
05997		20.183009	-0.943956	5.710424	0.901941	4.848074	2.713831	-0.596680	0.010010	-0.447266	-0.494734	-0.127886	0.225457	-0.829490
05998		20.384528	-0.411443	2.445570	0.796100	4.478197	1.960081	-0.555664	0.030762	-0.495605	-0.488326	-0.096109	0.203307	-0.843188
05999		21.217691	0.010999	-1.616957	0.294229	3.976350	1.093304	-0.518311	0.042725	-0.533447	-0.486860	-0.067184	0.185752	-0.850852
06000		22.360987	2.215860	-6.726608	-0.559002	3.171839	0.761276	-0.482910	0.060547	-0.563721	-0.486518	-0.040995	0.177166	-0.854536
06001		25.010453	3.287949	-15.001746	-1.057004	2.036879	0.977498	-0.472412	0.085693	-0.581787	-0.482854	-0.020578	0.176722	-0.857437
06002		22.068933	-0.382793	-19.732792	0.094491	0.357541	0.359479	-0.464600	0.082520	-0.588379	-0.480850	-0.017761	0.174699	-0.859039
06003		17.778336	-1.407767	-15.655430	1.739105	-1.965765	-0.818445	-0.488037	0.056641	-0.572754	-0.483563	-0.039919	0.170043	-0.857705
06004		10.423825	0.573254	4.345207	2.704824	-3.409746	-1.243534	-0.525146	0.015381	-0.547119	-0.486507	-0.076883	0.164050	-0.854686
06005		-2.918543	0.769884	18.766123	1.395788	-3.928838	0.186790	-0.548096	-0.001465	-0.507080	-0.478745	-0.110207	0.170200	-0.854219
06006		9.866577	9.275308	7.402326	1.243818	-4.683452	-0.104395	-0.606201	-0.014893	-0.463867	-0.471414	-0.148535	0.179915	-0.850492
06007		16.392060	12.128118	14.829827	0.149201	-4.208410	-0.328547	-0.635986	-0.038818	-0.420654	-0.467020	-0.179359	0.194966	-0.843630
06008		16.810881	1.219022	11.121131	-0.766659	-3.358981	-0.241825	-0.650635	-0.030273	-0.387695	-0.464232	-0.200372	0.213041	-0.836034
06009		13.213297	-5.346681	8.981397	-0.581109	-2.615627	0.092415	-0.667236	-0.030273	-0.356689	-0.459807	-0.216225	0.227365	-0.830741
06010		9.449846	-5.811575	9.184373	-0.324999	-2.077405	0.044577	-0.684326	-0.030762	-0.328125	-0.456096	-0.229338	0.237696	-0.826366
06011		8.873641	-5.101510	8.890312	0.166358	-1.695209	-0.179097	-0.697998	-0.045166	-0.307373	-0.453636	-0.242065	0.242718	-0.822622
06012		13.084751	-4.009742	9.023755	0.478889	-0.864443	-0.469870	-0.699463	-0.063232	-0.290771	-0.454160	-0.250826	0.241848	-0.819960
06013		7.993654	-1.917200	7.611545	0.323505	-0.384342	-0.435041	-0.712891	-0.067627	-0.281006	-0.455716	-0.255638	0.240293	-0.818065
06014		8.021450	-0.491391	7.346594	0.257496	-0.160324	-0.304373	-0.700439	-0.065674	-0.277588	-0.456961	-0.258407	0.238612	-0.816993
06015		6.824892	0.050380	7.984744	0.130606	-0.087282	-0.134287	-0.702637	-0.074951	-0.266602	-0.457458	-0.259860	0.237878	-0.816467
06016		6.196102	-1.160102	7.685334	0.038144	-0.080175	-0.022299	-0.700928	-0.074707	-0.267822	-0.457401	-0.260695	0.237981	-0.816203
06017		6.186825	-1.781159	7.392531	0.016267	-0.083334	-0.001493	-0.698242	-0.071777	-0.255127	-0.457242	-0.261424	0.238287	-0.815969
06018		6.217046	-2.130943	7.358534	0.018666	-0.071726	-0.013567	-0.684082	-0.070068	-0.252197	-0.457186	-0.262106	0.238511	-0.815717
06019		6.107084	-2.289811	7.316315	0.047460	-0.059092	-0.058826	-0.692871	-0.072754	-0.254883	-0.457406	-0.262895	0.238393	-0.815374
06020		6.064729	-1.772943	7.456409	0.075251	-0.048502	-0.105832	-0.698242	-0.079834	-0.252930	-0.457898	-0.263812	0.237940	-0.814934
06021		6.178608	-1.035120	7.575034	0.072612	-0.051717	-0.093964	-0.691650	-0.069824	-0.251465	-0.458298	-0.264726	0.237534	-0.814531
06022		6.220815	-1.110554	7.461062	0.042691	-0.060599	-0.056127	-0.694092	-0.074219	-0.246582	-0.458514	-0.265485	0.237473	-0.814180
06023		6.224926	-1.283563	7.484094	0.014896	-0.062944	-0.032764	-0.687500	-0.079834	-0.245117	-0.458613	-0.266124	0.237651	-0.813863
06024		6.318320	-1.518400	7.365693	0.015269	-0.055310	-0.035558	-0.680908	-0.080811	-0.239502	-0.458742	-0.266724	0.237770	-0.813560
06025		6.196857	-1.634509	7.323803	0.016918	-0.053173	-0.049088	-0.692383	-0.092773	-0.239258	-0.458968	-0.267342	0.237842	-0.813208
06026		6.238903	-1.520247	7.400807	0.029598	-0.053468	-0.056493	-0.686523	-0.084717	-0.241455	-0.459180	-0.268057	0.237782	-0.812871
06027		6.241209	-1.295345	7.450595	0.032695	-0.044532	-0.061847	-0.681152	-0.093262	-0.233398	-0.459472	-0.268687	0.237687	-0.812526
06028		6.125295	-1.287897	7.393714	0.031955	-0.038683	-0.055648	-0.677734	-0.100342	-0.235840	-0.459721	-0.269283	0.237572	-0.812221
06029		6.256860	-1.453911	7.341198	0.032162	-0.041215	-0.064466	-0.679932	-0.106445	-0.236328	-0.460027	-0.269903	0.237444	-0.811879
06030		6.030306	-1.499491	7.503192	0.032344	-0.044818	-0.073353	-0.686035	-0.111084	-0.235840	-0.460388	-0.270558	0.237318	-0.811493
06031		5.958215	-1.516668	7.517054	0.025805	-0.064150	-0.086949	-0.690186	-0.109619	-0.234619	-0.460818	-0.271342	0.237283	-0.810997
06032		5.952897	-1.598558	7.675179	0.023481	-0.097751	-0.108334	-0.682861	-0.110840	-0.223145	-0.461332	-0.272382	0.237346	-0.810338
06033		5.831775	-1.750709	7.734019	0.016681	-0.163090	-0.134778	-0.685547	-0.117920	-0.223145	-0.461910	-0.273886	0.237645	-0.809414
06034		5.740806	-1.488857	7.892045	-0.003726	-0.255271	-0.150911	-0.691162	-0.122314	-0.219727	-0.462459	-0.275960	0.238396	-0.808174
06035		6.594857	-1.274596	7.453977	-0.051537	-0.395735	-0.134059	-0.684814	-0.121582	-0.204102	-0.462720	-0.278757	0.240046	-0.806575
06036		6.421859	-1.552726	7.572429	-0.120697	-0.590873	-0.121135	-0.679443	-0.123047	-0.196533	-0.462654	-0.282566	0.242938	-0.804418
06037		5.775637	-1.909018	8.494521	-0.255432	-1.000598	-0.180877	-0.674072	-0.121338	-0.185791	-0.462452	-0.288706	0.248158	-0.800752
06038		5.718032	-2.383586	8.783992	-0.421332	-1.626297	-0.319856	-0.677979	-0.122803	-0.182129	-0.462217	-0.298622	0.256526	-0.794591
06039		5.206779	-2.455500	9.693595	-0.546132	-2.468903	-0.420593	-0.672852	-0.128662	-0.156494	-0.461004	-0.313744	0.268629	-0.785416
06040		5.017666	-1.697015	10.479380	-0.686791	-3.569644	-0.502345	-0.680420	-0.141113	-0.115723	-0.457907	-0.335482	0.285477	-0.772190
06041		5.000421	-0.351386	10.611334	-0.699171	-4.825276	-0.470234	-0.684082	-0.144287	-0.076416	-0.451048	-0.364722	0.306902	-0.754549
06042		4.934519	-0.925183	12.055263	-0.715421	-6.134188	-0.421518	-0.696777	-0.146973	-0.012695	-0.439602	-0.401200	0.332813	-0.731454
06043		6.586650	-2.364206	13.370053	-0.913422	-7.268182	-0.583663	-0.705078	-0.170654	0.077637	-0.425246	-0.443005	0.362451	-0.701100
06044		11.958488	-4.294118	14.143873	-1.091481	-7.530986	-1.157299	-0.688721	-0.179443	0.161377	-0.412427	-0.485687	0.390500	-0.664472
06045		12.781291	-4.465229	10.578894	-1.175698	-7.522556	-1.769364	-0.666992	-0.208496	0.242920	-0.401639	-0.527976	0.414867	-0.622746
06046		12.280820	-3.319351	13.817850	-2.022605	-7.097206	-1.892605	-0.636719	-0.239746	0.333496	-0.395025	-0.563457	0.439942	-0.576995
06047		10.877839	-3.935078	20.765688	-3.283180	-6.670174	-1.706641	-0.587646	-0.275635	0.380859	-0.393405	-0.589774	0.468750	-0.526946
06048		30.618010	-17.641639	24.782571	-2.978548	-1.481654	-0.559412	-0.581543	-0.299316	0.386230	-0.404569	-0.588402	0.483704	-0.506100
06049		-1.951767	-13.724416	18.567503	-0.881623	1.803497	-0.435605	-0.575439	-0.311035	0.373779	-0.417962	-0.579366	0.479086	-0.510019
06050		-6.630004	-6.414040	9.137649	0.123089	1.339431	-0.383395	-0.577393	-0.315186	0.367432	-0.424346	-0.575420	0.471971	-0.515816
06051		0.872511	-4.447084	10.859146	0.050202	1.523349	0.326485	-0.589355	-0.301270	0.361572	-0.428690	-0.567520	0.467853	-0.524651
06052		2.283558	-5.203832	11.564304	-0.045786	2.408482	1.028459	-0.599365	-0.286865	0.339355	-0.433728	-0.552469	0.464147	-0.539653
06053		3.078745	-5.234415	10.872254	0.366524	3.242649	1.241594	-0.632812	-0.269775	0.301514	-0.438845	-0.533940	0.456230	-0.560515
06054		6.099261	-3.293779	10.349291	0.720774	4.050842	1.339858	-0.652344	-0.249268	0.266846	-0.444521	-0.511954	0.443635	-0.586081
06055		7.607342	-1.073605	9.382797	0.658105	4.812917	1.477537	-0.677002	-0.213623	0.211914	-0.451909	-0.484691	0.428399	-0.614269
06056		8.123713	-0.040628	8.631505	0.345562	5.302774	1.437286	-0.695801	-0.191650	0.140137	-0.461610	-0.452923	0.411890	-0.641968
06057		9.738217	0.057780	8.458187	0.040282	5.585261	1.190446	-0.709961	-0.185059	0.073242	-0.473732	-0.418299	0.394078	-0.667313
06058		11.596785	-0.753382	8.643518	-0.163242	5.772372	0.975602	-0.725586	-0.159424	0.005371	-0.487267	-0.381537	0.374983	-0.690209
06059		13.418241	-2.720550	8.919574	-0.136113	5.893237	0.891535	-0.715088	-0.148682	-0.067871	-0.500283	-0.343540	0.354020	-0.711595
06060		14.616559	-4.439620	9.274759	0.105173	5.975207	1.043420	-0.708496	-0.124756	-0.143066	-0.510723	-0.304708	0.330850	-0.732702
06061		15.602946	-5.159605	9.540134	0.311666	5.909128	1.412314	-0.698730	-0.110840	-0.222412	-0.516836	-0.265341	0.306788	-0.753894
06062		17.021557	-5.431493	9.259240	0.388959	5.713784	1.803150	-0.675049	-0.085693	-0.297119	-0.518590	-0.225809	0.283197	-0.774516
06063		18.560214	-4.665675	8.560434	0.333471	5.429585	2.133722	-0.652100	-0.062012	-0.360840	-0.516347	-0.186549	0.261123	-0.793977
06064		21.410094	-4.133735	7.432406	0.221230	5.125661	2.329516	-0.613281	-0.033691	-0.422852	-0.511125	-0.147982	0.240815	-0.811702
06065		23.131419	-4.183676	4.598261	0.308658	4.842856	2.359650	-0.575439	-0.001709	-0.473877	-0.503947	-0.111347	0.220664	-0.827615
06066		22.521888	-3.354563	-1.298575	0.658457	4.259980	2.065546	-0.541504	0.029297	-0.530029	-0.496504	-0.080567	0.199901	-0.840852
06067		24.187227	0.585113	-7.810054	0.718461	3.343059	1.491052	-0.509277	0.043701	-0.548096	-0.490910	-0.057347	0.181897	-0.850077
06068		27.302301	6.921813	-16.116282	0.075982	2.193164	1.158123	-0.484863	0.049316	-0.571777	-0.485921	-0.040159	0.172893	-0.855789
06069		25.955437	3.854780	-23.347650	0.142578	0.518943	0.676085	-0.485107	0.070312	-0.583496	-0.481835	-0.035936	0.170020	-0.858858
06070		21.174817	1.364528	-17.173741	1.318150	-1.589133	-0.329594	-0.501953	0.048096	-0.578125	-0.481555	-0.053000	0.166913	-0.858741
06071		13.191297	0.375614	1.548201	1.934128	-2.996507	-0.726615	-0.528809	0.015869	-0.539062	-0.481615	-0.083171	0.164812	-0.856718
06072		-5.241534	0.675234	22.219349	1.025596	-3.320021	0.127550	-0.563721	0.006104	-0.512451	-0.475338	-0.110786	0.170963	-0.855892
06073		6.115793	4.471353	6.632783	0.727379	-4.231693	-0.240602	-0.597656	-0.010498	-0.472412	-0.470127	-0.144107	0.182304	-0.851457
06074		12.568323	7.151104	11.809577	0.038804	-4.231765	0.025128	-0.632324	-0.024414	-0.426758	-0.463239	-0.174162	0.198610	-0.845950
06075		16.384203	3.577492	11.251473	-0.495790	-3.758637	-0.289998	-0.652588	-0.026367	-0.383545	-0.459578	-0.199176	0.216159	-0.838089
06076		14.686059	-3.055357	9.188892	-0.589756	-2.951546	0.042507	-0.680908	-0.031250	-0.343018	-0.454812	-0.217461	0.231641	-0.831985
06077		12.227011	-4.469458	10.111743	-0.389470	-2.148219	0.023564	-0.688232	-0.028564	-0.324707	-0.451150	-0.230879	0.242557	-0.827239
06078		10.244914	-6.788055	8.904783	0.176115	-1.574450	-0.194065	-0.708008	-0.045166	-0.307861	-0.448948	-0.242851	0.246947	-0.823703
06079		11.607137	-2.712510	8.697206	0.494820	-0.746655	-0.405461	-0.701172	-0.052246	-0.287354	-0.449212	-0.250731	0.245612	-0.821594
06080		7.849287	-3.001328	7.427894	0.308132	-0.327313	-0.346020	-0.710205	-0.047852	-0.276367	-0.450297	-0.254913	0.244104	-0.820162
06081		8.101646	-1.253127	7.212558	0.245228	-0.105100	-0.252151	-0.710938	-0.054199	-0.259521	-0.451322	-0.257145	0.242392	-0.819409
06082		7.145431	-0.825653	7.515745	0.158630	-0.034314	-0.140549	-0.702148	-0.059326	-0.268799	-0.451908	-0.258344	0.241242	-0.819048
06083		6.519414	-0.956031	7.540991	0.074721	-0.020436	-0.039775	-0.702393	-0.062500	-0.261475	-0.452012	-0.258932	0.240826	-0.818928
06084		6.115983	-1.397508	7.667253	0.032045	-0.027208	-0.001813	-0.704102	-0.051025	-0.252930	-0.451932	-0.259331	0.240806	-0.818852
06085		6.082770	-1.842954	7.378849	0.012480	-0.032622	0.010136	-0.696289	-0.063965	-0.254883	-0.451801	-0.259666	0.240968	-0.818770
06086		5.990849	-2.083417	7.245877	0.022715	-0.034559	-0.016140	-0.695312	-0.061279	-0.255127	-0.451823	-0.260107	0.240999	-0.818608
06087		5.756667	-2.123234	7.507690	0.069867	-0.040423	-0.068450	-0.692383	-0.066162	-0.259766	-0.452091	-0.260865	0.240623	-0.818330
06088		5.889377	-1.601680	7.558182	0.092992	-0.051938	-0.094546	-0.703857	-0.066162	-0.248047	-0.452466	-0.261836	0.240068	-0.817976
06089		5.916618	-1.218600	7.701013	0.063367	-0.067114	-0.081753	-0.690918	-0.075439	-0.248535	-0.452772	-0.262788	0.239812	-0.817576
06090		6.236138	-1.372532	7.465818	0.025754	-0.080415	-0.053490	-0.687012	-0.070557	-0.249268	-0.452952	-0.263629	0.239900	-0.817180
06091		6.116709	-1.536468	7.349353	0.002042	-0.089080	-0.041421	-0.688965	-0.080811	-0.244141	-0.453091	-0.264397	0.240219	-0.816760
06092		6.010081	-1.764836	7.469330	-0.012358	-0.100236	-0.037101	-0.680908	-0.078613	-0.245850	-0.453203	-0.265204	0.240667	-0.816305
06093		6.230897	-1.497478	7.482403	-0.026847	-0.111874	-0.040200	-0.682861	-0.088867	-0.235352	-0.453356	-0.266018	0.241251	-0.815782
06094		6.275149	-1.372933	7.414949	-0.028227	-0.104619	-0.038798	-0.686279	-0.085205	-0.241211	-0.453502	-0.266809	0.241811	-0.815277
06095		6.336691	-1.252716	7.374831	-0.024481	-0.100322	-0.039587	-0.685303	-0.093506	-0.229004	-0.453653	-0.267556	0.242341	-0.814790
06096		6.071439	-1.405941	7.529739	-0.030361	-0.100808	-0.035096	-0.688965	-0.102295	-0.232422	-0.453777	-0.268287	0.242925	-0.814307
06097		6.329551	-1.548390	7.252261	-0.040410	-0.116740	-0.037928	-0.684570	-0.097168	-0.231201	-0.453912	-0.269077	0.243634	-0.813759
06098		6.284407	-1.597870	7.401392	-0.055494	-0.126558	-0.038338	-0.696289	-0.102295	-0.228516	-0.454064	-0.269871	0.244487	-0.813156
06099		6.237290	-1.691128	7.423497	-0.068556	-0.155751	-0.050074	-0.690186	-0.097900	-0.230713	-0.454261	-0.270837	0.245510	-0.812416
06100		5.969203	-1.767371	7.620148	-0.087848	-0.215325	-0.058486	-0.693359	-0.105957	-0.215820	-0.454438	-0.272145	0.246870	-0.811467
06101		6.040680	-1.803213	7.673600	-0.124639	-0.320185	-0.055942	-0.681152	-0.105469	-0.211426	-0.454461	-0.274016	0.248878	-0.810210
06102		6.446535	-1.639370	7.470107	-0.190083	-0.471661	-0.021876	-0.688965	-0.100342	-0.197021	-0.454083	-0.276584	0.251975	-0.808590
06103		6.168266	-1.598715	7.886253	-0.284753	-0.734920	0.012867	-0.682617	-0.107178	-0.185303	-0.453122	-0.280484	0.256777	-0.806272
06104		6.141245	-1.936910	8.112984	-0.423580	-1.164584	-0.018768	-0.675293	-0.105957	-0.178711	-0.451743	-0.286789	0.264040	-0.802473
06105		5.751099	-2.518978	8.584442	-0.566638	-1.715627	-0.100889	-0.687012	-0.099854	-0.164551	-0.449966	-0.296369	0.274090	-0.796599
06106		5.702189	-2.201488	9.092260	-0.673388	-2.447104	-0.127420	-0.678223	-0.097412	-0.157959	-0.446804	-0.310357	0.287432	-0.788307
06107		4.720626	-2.013946	10.302582	-0.808298	-3.468889	-0.077378	-0.684570	-0.102783	-0.131836	-0.440916	-0.330218	0.305397	-0.776712
06108		5.228713	-0.374448	10.704075	-1.077332	-4.582138	0.130036	-0.704102	-0.107178	-0.081055	-0.431054	-0.355353	0.329384	-0.761199
06109		4.784806	-0.411980	12.065695	-1.386625	-5.840831	0.308609	-0.710205	-0.095947	-0.026855	-0.416642	-0.386137	0.359692	-0.740222
06110		6.711711	-3.061296	12.089743	-1.594574	-6.952383	0.019127	-0.725098	-0.103760	0.063721	-0.400089	-0.422740	0.393097	-0.711825
06111		11.746627	-4.781498	12.178308	-1.698077	-7.362936	-0.574683	-0.721680	-0.122803	0.153076	-0.384571	-0.461772	0.424898	-0.677003
06112		12.235017	-7.053278	11.964737	-1.338013	-7.546329	-1.533020	-0.697998	-0.148438	0.235596	-0.370842	-0.504469	0.449810	-0.636913
06113		10.627041	-2.976175	12.873997	-1.909327	-7.223963	-1.975327	-0.652588	-0.177002	0.330078	-0.361514	-0.543217	0.473007	-0.592019
06114		4.089080	-1.109975	17.336467	-3.797222	-7.397578	-1.524681	-0.613281	-0.214600	0.409180	-0.356178	-0.572881	0.505894	-0.537602
06115		32.836443	-18.792492	22.664272	-5.316733	-4.733908	-0.503425	-0.566650	-0.257324	0.436279	-0.363233	-0.579380	0.540386	-0.490269
06116		13.033243	-25.280375	26.469150	-1.626318	2.022999	-0.137509	-0.584229	-0.262695	0.412598	-0.380684	-0.566596	0.540043	-0.492344
06117		-9.719126	-9.758886	11.399592	1.301818	2.547060	-0.786107	-0.583984	-0.258301	0.407471	-0.389129	-0.563489	0.522678	-0.507806
06118		-0.362152	-2.379224	9.933444	1.513720	2.167021	-0.971325	-0.585205	-0.253662	0.394775	-0.395488	-0.563118	0.504483	-0.521521
06119		4.171564	-1.386731	12.366529	0.301537	3.059515	-0.190230	-0.601807	-0.249756	0.373291	-0.407657	-0.551232	0.491957	-0.536598
06120		2.545999	-5.322905	10.749921	-0.188497	3.990701	0.292641	-0.628662	-0.243652	0.331787	-0.423367	-0.531033	0.480215	-0.555120
06121		5.366362	-6.356491	9.446064	0.356384	4.658071	0.283367	-0.658936	-0.235840	0.279297	-0.438813	-0.508972	0.462914	-0.578015
06122		8.142083	-4.058251	8.894152	0.675259	5.316870	0.580145	-0.679199	-0.226074	0.229492	-0.453233	-0.482820	0.442104	-0.604986
06123		8.827901	-2.641564	8.353379	0.462492	5.781580	1.006630	-0.689941	-0.202637	0.150391	-0.467054	-0.450852	0.421334	-0.633302
06124		10.801163	-2.727763	8.273545	0.152591	6.070119	1.258833	-0.708496	-0.176514	0.088135	-0.480517	-0.414095	0.400939	-0.660967
06125		12.660037	-3.226381	8.016686	0.000885	6.262540	1.447928	-0.709717	-0.158691	-0.000488	-0.492742	-0.373870	0.380136	-0.687695
06126		14.261033	-4.168070	7.516218	0.090150	6.270119	1.595347	-0.710693	-0.141602	-0.075928	-0.502441	-0.332384	0.358152	-0.713303
06127		15.569016	-4.103964	7.206249	0.283687	6.103094	1.727483	-0.706543	-0.110840	-0.154053	-0.508865	-0.291338	0.335058	-0.737506
06128		16.916113	-3.735917	7.502100	0.330217	5.867616	1.888151	-0.688721	-0.083984	-0.224365	-0.512113	-0.250681	0.312152	-0.759908
06129		17.845004	-3.644852	7.674342	0.264785	5.602082	1.995188	-0.677246	-0.064453	-0.307373	-0.512813	-0.210502	0.290224	-0.780052
06130		19.606098	-3.916815	7.113866	0.221246	5.315574	1.961380	-0.658691	-0.033203	-0.374023	-0.511932	-0.171576	0.269071	-0.797552
06131		22.204568	-3.920469	5.915776	0.190669	5.126058	1.835870	-0.614990	0.000244	-0.427246	-0.510379	-0.133714	0.248182	-0.812428
06132		21.662231	-2.559878	2.879683	0.122357	4.868158	1.693195	-0.575439	0.017334	-0.479248	-0.508344	-0.097362	0.228226	-0.824633
06133		21.168615	-0.989878	-1.061500	-0.089785	4.187032	1.548626	-0.536377	0.041260	-0.524902	-0.505368	-0.064936	0.212146	-0.833895
06134		22.100835	-0.961369	-5.395057	-0.163266	3.272800	1.368089	-0.505371	0.069336	-0.550049	-0.501514	-0.038832	0.200111	-0.840792
06135		23.481048	0.284769	-10.616820	0.077422	2.242929	1.179412	-0.481201	0.081055	-0.575195	-0.496878	-0.021277	0.190528	-0.846380
06136		24.198561	2.768458	-16.467772	0.279984	0.952438	1.111654	-0.468018	0.092041	-0.587891	-0.490517	-0.013808	0.184823	-0.851495
06137		21.150310	0.360384	-16.007285	0.850860	-0.714053	0.855816	-0.473877	0.086670	-0.580322	-0.483297	-0.020938	0.181860	-0.856103
06138		14.506120	-2.254025	-12.699500	2.476021	-2.873088	-0.002748	-0.505859	0.065430	-0.559082	-0.478404	-0.051340	0.175788	-0.858832
06139		3.743096	2.809595	21.621674	2.490335	-3.122297	0.080988	-0.539062	0.035645	-0.542969	-0.472058	-0.083429	0.170502	-0.860889
06140		-1.220868	3.660646	8.382213	1.806349	-4.023023	-0.064918	-0.566162	0.009766	-0.503662	-0.465342	-0.119402	0.173340	-0.859740
06141		11.328331	10.923392	10.966270	1.157722	-4.466410	-0.008068	-0.610352	-0.004150	-0.451172	-0.457540	-0.155784	0.182342	-0.856236
06142		13.625994	10.968961	11.997601	0.247732	-4.121662	-0.424191	-0.638184	-0.011963	-0.421143	-0.453757	-0.186697	0.195715	-0.849085
06143		16.256426	0.889345	11.940441	-0.644242	-3.328293	-0.180249	-0.665039	-0.018066	-0.375732	-0.450438	-0.208080	0.212554	-0.841801
06144		13.258455	-4.436584	9.214603	-0.555746	-2.562495	0.035187	-0.689209	-0.026123	-0.350586	-0.446515	-0.223929	0.226135	-0.836267
06145		10.471956	-5.181675	8.562218	-0.250526	-1.987963	-0.030120	-0.689209	-0.031982	-0.324463	-0.443397	-0.236953	0.235258	-0.831809
06146		11.904848	-6.194807	9.854411	0.267120	-1.427426	-0.286605	-0.712158	-0.041016	-0.305176	-0.442044	-0.248453	0.238177	-0.828336
06147		10.003300	-2.788100	8.074363	0.352112	-0.550032	-0.415684	-0.716064	-0.049316	-0.291504	-0.443112	-0.254440	0.237001	-0.826283
06148		8.284696	-1.983657	7.198267	0.239234	-0.275552	-0.342330	-0.721436	-0.054443	-0.283691	-0.444444	-0.257970	0.235742	-0.824831
06149		7.566777	-0.413949	7.443233	0.179913	-0.127134	-0.215349	-0.727539	-0.055176	-0.272217	-0.445317	-0.260010	0.234614	-0.824041
06150		6.791668	-0.253222	7.749468	0.082172	-0.072757	-0.066183	-0.717285	-0.063721	-0.262207	-0.445478	-0.261025	0.234274	-0.823730
06151		6.203451	-1.317117	7.699317	0.025879	-0.057193	0.010260	-0.705322	-0.053467	-0.262939	-0.445264	-0.261577	0.234424	-0.823628
06152		6.257319	-1.866700	7.294903	0.013161	-0.052679	0.021205	-0.703125	-0.059570	-0.253418	-0.445011	-0.262028	0.234667	-0.823552
06153		5.994152	-2.246064	7.314812	0.032212	-0.037647	-0.010000	-0.703613	-0.053467	-0.264404	-0.444959	-0.262507	0.234655	-0.823431
06154		5.912170	-2.211560	7.416004	0.063269	-0.041922	-0.067769	-0.705566	-0.057861	-0.254639	-0.445230	-0.263238	0.234322	-0.823146
06155		5.896617	-1.625034	7.623862	0.075207	-0.050650	-0.094532	-0.693115	-0.066895	-0.255371	-0.445638	-0.264127	0.233880	-0.822766
06156		6.247938	-0.935758	7.588951	0.055291	-0.057879	-0.068543	-0.688232	-0.066650	-0.244385	-0.445909	-0.264935	0.233654	-0.822423
06157		6.222807	-0.873321	7.534295	0.025742	-0.060231	-0.035466	-0.696289	-0.062012	-0.243164	-0.446005	-0.265591	0.233714	-0.822143
06158		6.124805	-1.329547	7.489516	0.005477	-0.049788	-0.017502	-0.692383	-0.073730	-0.241699	-0.446028	-0.266066	0.233914	-0.821920
06159		6.018091	-1.802784	7.456693	0.005512	-0.047812	-0.030141	-0.695801	-0.071777	-0.246826	-0.446156	-0.266556	0.234065	-0.821649
06160		6.052332	-1.758754	7.351664	0.021974	-0.054888	-0.050967	-0.691895	-0.084961	-0.243408	-0.446376	-0.267185	0.234085	-0.821319
06161		6.328617	-1.417004	7.365974	0.017607	-0.073533	-0.058268	-0.693115	-0.084961	-0.240479	-0.446639	-0.267948	0.234176	-0.820901
06162		6.325248	-1.058893	7.525153	-0.009147	-0.078101	-0.038586	-0.694092	-0.085205	-0.229004	-0.446806	-0.268603	0.234517	-0.820499
06163		6.148870	-1.332385	7.427017	-0.041104	-0.087200	-0.015072	-0.686523	-0.104248	-0.239990	-0.446844	-0.269162	0.235169	-0.820108
06164		6.092377	-1.667846	7.372872	-0.058833	-0.097501	-0.005345	-0.683350	-0.094971	-0.234131	-0.446851	-0.269686	0.235998	-0.819694
06165		6.083647	-1.645146	7.500591	-0.081782	-0.119852	-0.006186	-0.695557	-0.104736	-0.232178	-0.446859	-0.270278	0.237070	-0.819185
06166		5.961725	-1.617605	7.627440	-0.104884	-0.161075	-0.012586	-0.695312	-0.104492	-0.227051	-0.446882	-0.271076	0.238437	-0.818512
06167		6.012763	-1.497026	7.712841	-0.128729	-0.223052	-0.014763	-0.692383	-0.107910	-0.221924	-0.446849	-0.272208	0.240190	-0.817642
06168		6.280903	-1.513160	7.524958	-0.166665	-0.309491	-0.008250	-0.695312	-0.096436	-0.220703	-0.446681	-0.273771	0.242536	-0.816518
06169		6.249758	-1.786313	7.503881	-0.220695	-0.428947	0.016089	-0.694580	-0.101562	-0.199707	-0.446222	-0.275892	0.245745	-0.815094
06170		6.304593	-1.625664	7.801665	-0.276466	-0.602069	0.039393	-0.698242	-0.100586	-0.199707	-0.445369	-0.278925	0.250024	-0.813226
06171		5.969082	-1.892448	8.197561	-0.378253	-0.932547	0.031626	-0.687012	-0.090088	-0.180664	-0.444093	-0.283819	0.256187	-0.810307
06172		6.048257	-2.289513	8.317232	-0.506801	-1.464357	-0.044181	-0.687012	-0.098389	-0.160156	-0.442444	-0.291951	0.264974	-0.805479
06173		5.593844	-2.754909	9.026848	-0.612219	-2.168027	-0.101501	-0.680664	-0.095947	-0.149414	-0.439766	-0.304463	0.276854	-0.798286
06174		4.740389	-2.429993	9.989543	-0.732444	-3.116527	-0.132940	-0.682617	-0.101318	-0.122314	-0.435178	-0.322744	0.292779	-0.787869
06175		5.104040	-0.763912	10.547044	-0.861167	-4.284440	-0.048487	-0.690918	-0.102539	-0.082031	-0.427087	-0.347676	0.313705	-0.773504
06176		4.059060	-0.753515	12.631961	-1.189887	-5.660312	0.020626	-0.693115	-0.103516	-0.022461	-0.415121	-0.379476	0.341256	-0.753138
06177		6.092830	-1.285367	14.037812	-1.717381	-6.785112	-0.022086	-0.701172	-0.101807	0.048096	-0.400700	-0.415527	0.374871	-0.725430
06178		12.806150	-3.062240	15.129573	-2.248405	-6.898338	-0.400976	-0.703369	-0.113281	0.130371	-0.388632	-0.450192	0.409414	-0.691862
06179		15.709459	-2.689619	14.017548	-3.197865	-6.287295	-0.825323	-0.692139	-0.126953	0.200439	-0.383257	-0.478090	0.444373	-0.653512
06180		9.792266	0.419360	17.086265	-4.918397	-5.191586	-0.993605	-0.676758	-0.162598	0.253418	-0.388338	-0.493450	0.482924	-0.610316
06181		11.050530	-17.651535	25.200129	-5.062263	-2.902054	-1.173761	-0.676025	-0.189209	0.274658	-0.402958	-0.495936	0.512564	-0.573543
06182		-0.409681	-18.338485	22.136646	-0.939075	1.180020	-2.984926	-0.656250	-0.229980	0.276123	-0.425985	-0.499642	0.500483	-0.564280
06183		-4.364493	-6.384623	17.013321	0.042673	1.595876	-2.939983	-0.646973	-0.268799	0.258057	-0.446126	-0.504244	0.482114	-0.560603
06184		0.411575	-9.174047	14.818084	-0.799143	2.502552	-1.457193	-0.645508	-0.283203	0.233887	-0.466212	-0.495140	0.470187	-0.562501
06185		-1.804267	-12.960005	10.487730	-0.470409	3.150348	-0.328824	-0.661865	-0.287354	0.204102	-0.481875	-0.479490	0.458539	-0.572388
06186		0.903708	-11.331978	9.010060	0.682464	3.383708	0.273963	-0.668457	-0.270020	0.170898	-0.490575	-0.464636	0.442522	-0.589596
06187		3.847104	-6.546136	9.536208	0.954108	3.704451	0.991863	-0.681396	-0.261475	0.134766	-0.495407	-0.446185	0.426218	-0.611416
