// Start Time: Unknown
// Update Rate: 60.0Hz
// Filter Profile: human (46.1)
// Firmware Version: 4.6.0
PacketCounter	SampleTimeFine	Acc_X	Acc_Y	Acc_Z	Gyr_X	Gyr_Y	Gyr_Z	Mag_X	Mag_Y	Mag_Z	Quat_q0	Quat_q1	Quat_q2	Quat_q3
52131		11.548693	4.155404	-3.378666	2.015637	-0.550112	4.111766	-0.827393	-0.368896	-0.009766	0.578926	0.134370	-0.788479	-0.158400
52132		11.297919	2.347158	-3.425506	1.849879	-0.669601	3.926290	-0.847168	-0.322998	0.022217	0.577432	0.116762	-0.797844	-0.128000
52133		11.455059	2.902513	-3.852261	1.697663	-0.782672	3.611056	-0.853760	-0.266846	0.029785	0.574601	0.098499	-0.806594	-0.097663
52134		11.325794	2.782824	-3.946980	1.411209	-0.734088	3.344737	-0.875244	-0.231689	0.048584	0.571578	0.079908	-0.813712	-0.069185
52135		11.196628	1.750994	-3.274787	1.153062	-0.631999	3.002388	-0.888184	-0.172852	0.065430	0.568728	0.062682	-0.818936	-0.044316
52136		10.519617	1.982476	-3.239803	0.950632	-0.575117	2.492262	-0.884521	-0.146729	0.074707	0.567374	0.048002	-0.821729	-0.023308
52137		9.761764	1.849475	-3.352843	0.665499	-0.423761	1.791811	-0.888916	-0.119629	0.078613	0.567567	0.038360	-0.822373	-0.009934
52138		8.920190	1.375335	-3.436818	0.289246	-0.306141	0.902618	-0.881104	-0.111328	0.087158	0.568174	0.034627	-0.822160	-0.005744
52139		8.399835	0.538443	-3.805233	-0.218639	-0.170659	-0.035425	-0.887695	-0.104004	0.094971	0.568719	0.035558	-0.821697	-0.010401
52140		8.440865	1.410777	-3.262892	-0.430083	-0.035956	-0.858630	-0.889160	-0.123047	0.090576	0.568530	0.040573	-0.821433	-0.019353
52141		8.334165	2.723109	-2.674676	-0.321772	0.037201	-1.556994	-0.881348	-0.153564	0.081299	0.568469	0.051232	-0.820509	-0.031368
52142		8.242675	3.957581	-2.274665	-0.256717	0.097050	-2.141445	-0.885742	-0.168945	0.080811	0.568989	0.067234	-0.818222	-0.047380
52143		7.264271	-0.461050	-7.337412	-0.167487	-0.299476	-2.114019	-0.876221	-0.204590	0.082764	0.567060	0.084544	-0.816761	-0.064779
52144		9.023773	-16.268408	-4.268355	-0.743494	0.101456	0.041468	-0.874268	-0.196045	0.075684	0.564581	0.082284	-0.818177	-0.071165
52145		8.949808	-8.264493	-1.327072	-0.321270	-0.531379	-0.429476	-0.875244	-0.207031	0.085693	0.558329	0.072470	-0.824202	-0.060897
52146		17.088930	-4.992776	-0.038462	-1.283334	0.244813	-0.721628	-0.864014	-0.220459	0.069092	0.560368	0.062690	-0.824302	-0.050833
52147		11.979676	-4.019600	-1.865664	0.409759	-0.028023	-1.296330	-0.868408	-0.234131	0.072021	0.563927	0.065800	-0.821982	-0.044752
52148		12.284991	-2.960248	-3.872706	1.452406	-0.273874	-1.871864	-0.861572	-0.258057	0.093994	0.566317	0.062942	-0.821125	-0.032812
52149		11.244232	-1.130237	-7.861588	1.756259	-0.369259	-2.668141	-0.846436	-0.293945	0.098389	0.570941	0.125834	-0.811126	0.016314
52150		6.211539	0.673978	-5.406171	1.329460	-0.574537	-2.650427	-0.840088	-0.318115	0.110352	0.567041	0.148531	-0.810023	0.016301
52151		6.620138	7.432164	-5.741003	-0.212796	-0.316861	-1.691088	-0.834961	-0.352539	0.109131	0.573138	0.149399	-0.805700	0.006422
52152		8.274424	9.670118	-5.780177	-1.517509	-0.134004	-1.193384	-0.822266	-0.364990	0.109619	0.571479	0.116011	-0.811863	-0.028835
52153		10.819670	3.888822	-3.155124	-2.547441	0.044587	-0.555789	-0.824951	-0.373535	0.094727	0.573560	0.121634	-0.809267	-0.036331
52154		10.527331	-1.515107	-1.444275	-1.875670	0.094686	-0.574032	-0.813721	-0.386963	0.077393	0.576700	0.119049	-0.806942	-0.045702
52155		9.530342	-3.617274	-1.841610	-0.460949	-0.130330	-0.972653	-0.815674	-0.395996	0.068848	0.575105	0.123386	-0.806927	-0.053848
52156		8.857414	-1.655508	-3.221367	0.673109	-0.292255	-1.254292	-0.802979	-0.409668	0.073730	0.569977	0.120646	-0.810277	-0.063417
52157		8.665425	1.730546	-5.748106	0.786639	-0.269766	-1.193708	-0.811035	-0.421143	0.084473	0.562473	0.116127	-0.815364	-0.072933
52158		8.863179	4.356343	-5.105144	0.024945	-0.089991	-0.793106	-0.795410	-0.433350	0.080322	0.552655	0.092566	-0.823705	-0.086688
52159		9.193468	3.533159	-5.193813	-0.892975	0.033923	-0.454231	-0.794434	-0.443359	0.069336	0.543201	0.064203	-0.829791	-0.110713
52160		8.915312	0.212372	-4.691716	-1.193445	0.086182	-0.277699	-0.796387	-0.448242	0.055420	0.536174	0.038145	-0.832701	-0.132933
52161		8.947060	-2.060644	-3.997124	-0.770351	0.034015	-0.368653	-0.793701	-0.454346	0.048340	0.530885	0.022248	-0.834307	-0.146961
52162		8.827820	-2.486145	-4.150402	-0.104829	0.005530	-0.567135	-0.790527	-0.458740	0.045166	0.529243	0.021450	-0.834769	-0.150343
52163		9.088884	0.556397	-4.483058	0.164040	0.007702	-0.625112	-0.794189	-0.473877	0.040039	0.528790	0.025653	-0.835090	-0.149490
52164		8.969243	2.489339	-4.754206	-0.117178	0.039784	-0.520659	-0.783936	-0.475830	0.031738	0.529368	0.028836	-0.834640	-0.149378
52165		8.722848	1.987557	-4.694781	-0.582670	0.060689	-0.322248	-0.779785	-0.485107	0.022949	0.530465	0.029466	-0.833541	-0.151487
52166		8.878263	0.233235	-4.099527	-0.626650	0.093840	-0.298323	-0.779785	-0.492432	0.021240	0.531703	0.029774	-0.832298	-0.153898
52167		8.815017	-0.815023	-3.916677	-0.381487	0.084061	-0.347093	-0.772705	-0.486816	0.014648	0.532793	0.031518	-0.831390	-0.154689
52168		8.875582	-0.334887	-3.964720	-0.112179	0.080502	-0.435304	-0.783936	-0.493408	0.004150	0.533779	0.035133	-0.830788	-0.153744
52169		8.880315	0.621191	-3.918159	-0.033096	0.059709	-0.456104	-0.774902	-0.501465	0.011475	0.534628	0.039261	-0.830344	-0.152187
52170		8.943582	1.210725	-3.993147	-0.160699	0.045143	-0.407437	-0.772949	-0.515381	-0.002686	0.535484	0.042468	-0.829793	-0.151318
52171		9.063506	0.587218	-3.925668	-0.259856	0.052768	-0.386714	-0.771240	-0.516602	-0.010010	0.536419	0.045061	-0.829081	-0.151161
52172		9.117641	-0.030274	-4.154421	-0.207504	0.055636	-0.416760	-0.765137	-0.521484	-0.025146	0.537324	0.048092	-0.828392	-0.150790
52173		9.028577	0.456109	-4.036854	-0.183860	0.072172	-0.456036	-0.767822	-0.524658	-0.019775	0.538299	0.051537	-0.827631	-0.150350
52174		8.980376	0.422690	-4.225922	-0.257043	0.086244	-0.445007	-0.749756	-0.523926	-0.028809	0.539411	0.054584	-0.826707	-0.150371
52175		8.833725	0.479645	-4.314042	-0.348093	0.107006	-0.467603	-0.750000	-0.531494	-0.034912	0.540657	0.057387	-0.825566	-0.151125
52176		8.824114	-0.278766	-4.475882	-0.369743	0.133681	-0.509352	-0.750244	-0.537109	-0.041992	0.542006	0.060387	-0.824263	-0.152230
52177		9.067567	-0.055627	-4.546356	-0.343674	0.153568	-0.570335	-0.755859	-0.548096	-0.053223	0.543382	0.063943	-0.822878	-0.153360
52178		9.053251	0.432699	-4.419098	-0.398078	0.197643	-0.615353	-0.743164	-0.558594	-0.063477	0.545010	0.067601	-0.821198	-0.155008
52179		9.022938	0.254817	-4.497893	-0.472032	0.218282	-0.629564	-0.736572	-0.561523	-0.066162	0.546772	0.071012	-0.819313	-0.157240
52180		8.935073	0.058893	-4.448343	-0.511943	0.237590	-0.693797	-0.734619	-0.563721	-0.078369	0.548574	0.074669	-0.817239	-0.160032
52181		8.925165	-0.131828	-4.303314	-0.479834	0.244069	-0.774000	-0.727783	-0.569092	-0.098389	0.550270	0.078995	-0.815112	-0.162958
52182		9.359143	0.502637	-4.154744	-0.424574	0.277672	-0.858787	-0.710205	-0.576660	-0.094482	0.552034	0.084167	-0.812816	-0.165846
52183		9.356392	0.863971	-3.839651	-0.438129	0.298411	-0.910963	-0.713135	-0.586670	-0.114746	0.553872	0.089621	-0.810315	-0.169067
52184		9.242569	0.491267	-4.267794	-0.486449	0.293463	-0.926059	-0.699463	-0.599121	-0.116455	0.555691	0.094903	-0.807691	-0.172731
52185		10.260475	0.538103	-4.147062	-0.440020	0.339750	-1.040927	-0.684082	-0.600830	-0.129639	0.557600	0.101194	-0.804774	-0.176583
52186		10.140455	0.756439	-4.060489	-0.426362	0.394738	-1.113708	-0.682373	-0.622070	-0.137695	0.559772	0.108085	-0.801471	-0.180602
52187		10.237923	1.325346	-4.171966	-0.442111	0.451560	-1.193675	-0.662109	-0.623047	-0.144531	0.562218	0.115475	-0.797709	-0.185029
52188		10.141448	1.599109	-4.142909	-0.554418	0.483878	-1.216097	-0.649414	-0.636963	-0.159424	0.564930	0.122476	-0.793500	-0.190293
52189		10.580673	1.332242	-4.341941	-0.648167	0.550284	-1.261582	-0.631592	-0.642090	-0.175293	0.568065	0.129365	-0.788679	-0.196349
52190		11.071558	0.219839	-4.388572	-0.561208	0.662931	-1.381139	-0.617188	-0.666504	-0.187988	0.571610	0.137559	-0.783219	-0.202257
52191		10.847208	-0.356994	-4.279260	-0.561121	0.712069	-1.489791	-0.594971	-0.662354	-0.197754	0.575278	0.146482	-0.777256	-0.208500
52192		11.142661	-0.698164	-4.307858	-0.625928	0.743977	-1.654165	-0.580566	-0.678223	-0.208008	0.578926	0.156140	-0.770658	-0.215758
52193		11.492187	-1.518919	-4.321492	-0.670608	0.782926	-1.811029	-0.560303	-0.692627	-0.224365	0.582573	0.166574	-0.763390	-0.223826
52194		11.906053	-2.290773	-5.066393	-0.703059	0.733790	-1.975580	-0.534424	-0.707520	-0.229980	0.585627	0.177715	-0.755842	-0.232725
52195		12.363041	-2.029879	-4.857833	-0.812149	0.672402	-2.118648	-0.506104	-0.714600	-0.248779	0.588134	0.188995	-0.747943	-0.242819
52196		12.434223	-1.189847	-4.812471	-1.245783	0.576188	-2.114949	-0.482178	-0.725830	-0.261719	0.590679	0.197802	-0.739396	-0.255472
52197		12.422032	-1.436861	-5.980249	-1.729153	0.446986	-2.075041	-0.449707	-0.732178	-0.284668	0.593207	0.203548	-0.730273	-0.270880
52198		12.831592	-2.856286	-4.174918	-2.019158	0.264420	-2.096605	-0.424561	-0.730225	-0.304443	0.594875	0.207379	-0.721142	-0.288222
52199		11.504035	0.669919	-5.713463	-1.641101	0.076364	-2.401254	-0.399414	-0.734863	-0.323730	0.593951	0.214310	-0.713022	-0.304784
52200		11.167109	5.563908	-4.645758	-1.332978	0.136325	-2.648449	-0.367676	-0.743652	-0.329590	0.591971	0.224184	-0.704686	-0.320515
52201		10.363748	5.148558	-3.573238	-1.514188	-0.075156	-2.346855	-0.340088	-0.746338	-0.353271	0.589607	0.230619	-0.697206	-0.336277
52202		8.945351	5.477594	-2.318385	-1.665887	0.064081	-1.810715	-0.322754	-0.747559	-0.362305	0.589623	0.233407	-0.689433	-0.350069
52203		6.800238	6.244327	-2.295378	-1.340263	0.001073	-1.480586	-0.300781	-0.749023	-0.371338	0.589436	0.235573	-0.683403	-0.360597
52204		3.227731	9.926051	-1.563733	-0.946276	-0.144107	-1.111192	-0.291748	-0.742188	-0.373535	0.588566	0.237020	-0.679926	-0.367575
52205		4.021382	6.680039	-3.630818	-0.796037	-0.479606	-0.110287	-0.289795	-0.748291	-0.378418	0.588247	0.232400	-0.680530	-0.369913
52206		5.024205	2.028715	-1.530593	-0.902218	-0.135760	0.600052	-0.296875	-0.727539	-0.381104	0.591948	0.224182	-0.680563	-0.369018
52207		4.641963	1.977850	0.419731	-0.415056	-0.084672	0.988114	-0.308105	-0.720459	-0.389404	0.596082	0.216260	-0.682522	-0.363430
52208		4.455730	3.434211	1.566779	-0.047617	-0.039677	1.359977	-0.318604	-0.722656	-0.377930	0.600829	0.208146	-0.685898	-0.353869
52209		2.940865	4.459447	0.686572	0.514454	-0.345967	1.707213	-0.349854	-0.713379	-0.363770	0.603713	0.199926	-0.692828	-0.339926
52210		2.981834	5.048319	0.410129	0.921089	-0.587823	2.152749	-0.379395	-0.714111	-0.348877	0.605432	0.190422	-0.702559	-0.321873
52211		3.967425	4.659915	0.000570	1.016564	-0.835173	2.689511	-0.419678	-0.704346	-0.333008	0.606492	0.177488	-0.714198	-0.300976
52212		5.351783	4.147717	0.266985	1.047797	-0.917450	3.052118	-0.461914	-0.703125	-0.301514	0.607320	0.162221	-0.726288	-0.278124
52213		6.248633	3.854342	0.249229	1.197105	-1.009487	3.286731	-0.499023	-0.680176	-0.282471	0.607280	0.145960	-0.738795	-0.253159
52214		6.679734	4.665663	-0.278572	1.327565	-1.004891	3.521930	-0.542480	-0.660400	-0.261963	0.606888	0.128813	-0.751009	-0.226009
52215		7.185274	4.518199	-0.493973	1.361897	-0.960036	3.811785	-0.586182	-0.633789	-0.240234	0.606457	0.109985	-0.762439	-0.196977
52216		7.835895	3.977314	-0.737449	1.435024	-1.012094	3.983929	-0.633301	-0.602295	-0.205322	0.605009	0.090232	-0.773367	-0.166514
52217		8.813056	3.470464	-1.492354	1.692736	-1.100407	4.058411	-0.669434	-0.567139	-0.180420	0.601944	0.071081	-0.784009	-0.133942
52218		9.766143	2.987876	-1.875154	2.085009	-1.119837	4.098060	-0.711182	-0.541504	-0.149414	0.597539	0.053537	-0.793963	-0.098507
52219		11.104657	2.529210	-2.312097	2.663923	-1.066117	4.052701	-0.738770	-0.500488	-0.102539	0.592103	0.039161	-0.802718	-0.059366
52220		11.775384	4.178125	-3.047953	2.938068	-0.971695	3.959265	-0.772705	-0.459229	-0.076416	0.586035	0.026778	-0.809625	-0.018795
52221		11.903947	5.887359	-3.956511	2.218987	-0.897277	4.087616	-0.809326	-0.415771	-0.044189	0.579575	0.009989	-0.814671	0.017431
52222		11.765156	4.801442	-3.743691	1.706691	-0.782700	4.095967	-0.819580	-0.356689	-0.020508	0.572973	-0.009406	-0.817997	0.049935
52223		11.404440	2.293659	-3.530670	1.571824	-0.814262	3.931904	-0.844727	-0.314941	0.002686	0.565379	-0.028329	-0.820411	0.080438
52224		11.394829	1.656242	-3.697012	1.600027	-0.882358	3.620332	-0.862549	-0.270996	0.008789	0.556812	-0.044913	-0.822173	0.109426
52225		11.437461	1.997753	-3.918737	1.519660	-0.883247	3.270477	-0.873291	-0.221191	0.032715	0.547927	-0.059427	-0.823259	0.135976
52226		11.208107	1.306300	-3.606490	1.359133	-0.774688	2.943852	-0.872559	-0.182373	0.052979	0.539605	-0.072518	-0.823467	0.159592
52227		10.697758	0.508592	-3.088419	1.172749	-0.693388	2.546948	-0.879150	-0.158447	0.059814	0.531910	-0.083775	-0.823230	0.179850
52228		10.196858	0.431770	-3.224075	1.074193	-0.593913	1.965452	-0.885742	-0.116699	0.070557	0.525476	-0.091560	-0.822703	0.196599
52229		9.542809	1.074592	-3.266628	0.833518	-0.467862	1.238383	-0.886230	-0.101562	0.078857	0.520804	-0.095576	-0.822347	0.208263
52230		8.752290	0.838278	-3.522090	0.382880	-0.293300	0.433846	-0.881592	-0.098145	0.089355	0.518351	-0.096324	-0.822578	0.213071
52231		8.326423	0.797343	-3.343081	-0.117772	-0.206877	-0.377158	-0.888184	-0.100342	0.080322	0.517547	-0.093841	-0.823967	0.210756
52232		8.355750	1.232276	-3.434894	-0.102850	-0.119700	-1.128486	-0.894775	-0.110596	0.088623	0.518671	-0.086294	-0.825505	0.205123
52233		8.573033	2.278704	-2.638561	0.038869	-0.006944	-1.741993	-0.880615	-0.140381	0.078369	0.521665	-0.074108	-0.826638	0.197596
52234		8.274942	1.312505	-5.281705	0.145170	-0.185133	-2.113327	-0.876709	-0.167969	0.085938	0.523996	-0.058565	-0.828383	0.189156
52235		8.718278	-10.772907	-5.452893	0.029789	-0.035324	-0.959066	-0.880371	-0.170166	0.090332	0.525379	-0.051804	-0.828962	0.184705
52236		8.234703	-8.992590	-2.198940	0.103253	-0.194952	-0.715135	-0.871094	-0.182129	0.090576	0.525237	-0.046192	-0.829980	0.182005
52237		14.305194	-4.010776	-1.718160	-0.490404	-0.273472	-1.027081	-0.867188	-0.205811	0.087402	0.524746	-0.040819	-0.832281	0.174025
52238		14.772362	-3.203010	1.731970	-1.310635	0.630391	-0.989208	-0.870850	-0.207275	0.076172	0.530150	-0.040411	-0.831630	0.160313
52239		11.944619	-4.164781	-2.730142	0.304547	-0.268893	-1.490552	-0.863281	-0.231445	0.088135	0.530511	-0.027867	-0.832721	0.156071
52240		11.480799	-2.361888	-4.781515	1.007709	-0.198147	-2.269354	-0.857910	-0.265625	0.090332	0.532393	-0.006814	-0.832479	0.153263
52241		7.851868	-0.058059	-6.346681	1.478883	-0.137060	-2.590088	-0.842285	-0.302734	0.102295	0.534851	0.018485	-0.830921	0.152195
52242		5.523811	3.954817	-4.726386	1.057993	-0.557118	-2.244114	-0.835938	-0.316650	0.103027	0.533706	0.039886	-0.831402	0.149457
52243		8.216142	8.650266	-6.466277	-0.398104	-0.268548	-1.436509	-0.823975	-0.334961	0.106445	0.533871	0.048750	-0.832448	0.140127
52244		10.234311	7.365944	-4.803302	-1.927064	0.016755	-0.916960	-0.819824	-0.351318	0.096436	0.535896	0.046747	-0.834066	0.122330
52245		10.845309	1.575292	-1.837312	-2.590391	0.141984	-0.479348	-0.825928	-0.364258	0.073486	0.538408	0.038598	-0.835628	0.101745
52246		9.692063	-3.097993	-1.629633	-1.564970	-0.094837	-0.642051	-0.814697	-0.373047	0.066162	0.538947	0.036563	-0.836978	0.087566
52247		8.666233	-3.974488	-3.387097	0.013068	-0.225509	-1.066202	-0.821777	-0.388672	0.071045	0.538337	0.044661	-0.837492	0.082501
52248		8.974335	-0.469376	-4.041174	0.714634	-0.226568	-1.235651	-0.817383	-0.413574	0.076416	0.537502	0.057208	-0.837342	0.081712
52249		8.949437	3.674989	-5.929255	0.395664	-0.159902	-1.023347	-0.804688	-0.417236	0.069336	0.537071	0.066908	-0.837092	0.079719
52250		8.529047	4.252695	-5.462748	-0.347232	-0.031457	-0.692033	-0.803467	-0.426758	0.074951	0.537705	0.070905	-0.836873	0.074091
52251		8.630047	2.241476	-5.209211	-0.832493	0.041449	-0.407825	-0.806885	-0.442139	0.054688	0.538883	0.070395	-0.836824	0.066143
52252		8.872309	-0.309991	-4.100857	-0.706171	0.033164	-0.336609	-0.799072	-0.444336	0.043945	0.539909	0.070446	-0.836647	0.059642
52253		9.171365	-1.882999	-3.728547	-0.209870	0.047114	-0.457498	-0.802979	-0.439209	0.048584	0.540763	0.073356	-0.836099	0.055972
52254		9.227021	-0.201129	-3.491606	0.231673	0.027310	-0.613804	-0.805908	-0.451172	0.039307	0.541218	0.078910	-0.835398	0.054458
52255		8.865548	1.711469	-4.507322	0.157241	0.010798	-0.541533	-0.787354	-0.463379	0.045410	0.541559	0.083718	-0.834816	0.052793
52256		8.644929	2.059145	-4.767421	-0.204136	0.022651	-0.395882	-0.792236	-0.464600	0.030762	0.542137	0.085736	-0.834457	0.049174
52257		8.924030	0.858217	-4.794104	-0.481469	0.014560	-0.281658	-0.792969	-0.474121	0.026367	0.542796	0.085734	-0.834310	0.044146
52258		9.230582	-0.494254	-4.050819	-0.541128	0.039623	-0.268850	-0.788574	-0.483154	0.017090	0.543640	0.085318	-0.834071	0.038757
52259		8.879402	-0.811036	-4.169003	-0.387700	0.022351	-0.361254	-0.787598	-0.483398	0.018066	0.544269	0.086238	-0.833772	0.034028
52260		8.730362	-0.247386	-4.356172	-0.233424	0.039154	-0.394461	-0.791260	-0.483398	0.012207	0.544896	0.088071	-0.833317	0.030259
52261		8.802725	1.052610	-4.310766	-0.233158	0.051357	-0.414387	-0.781494	-0.487305	0.000000	0.545595	0.090023	-0.832781	0.026423
52262		8.927195	1.038461	-4.212999	-0.363727	0.049619	-0.352261	-0.778809	-0.493896	-0.000488	0.546349	0.090936	-0.832317	0.021960
52263		9.043348	1.034955	-3.881999	-0.384647	0.042758	-0.318587	-0.781006	-0.502441	-0.008545	0.547050	0.091511	-0.831899	0.017502
52264		9.129763	0.880166	-4.057100	-0.285437	0.045777	-0.329834	-0.781738	-0.505371	-0.019775	0.547688	0.092616	-0.831428	0.013695
52265		9.268855	1.323175	-3.830244	-0.175261	0.041373	-0.314671	-0.771729	-0.512695	-0.016846	0.548199	0.094116	-0.830966	0.010727
52266		9.110333	1.307691	-3.979457	-0.176752	0.050380	-0.310431	-0.776367	-0.513916	-0.022461	0.548768	0.095583	-0.830456	0.007787
52267		8.990550	0.758335	-4.388971	-0.248388	0.055684	-0.280482	-0.773193	-0.516113	-0.023926	0.549422	0.096514	-0.829940	0.004499
52268		8.702317	-0.137703	-4.531220	-0.358235	0.075815	-0.317752	-0.769043	-0.523193	-0.040283	0.550290	0.097183	-0.829299	0.000302
52269		8.250434	-1.601406	-4.903580	-0.456448	0.105045	-0.392339	-0.768311	-0.532715	-0.048340	0.551418	0.097892	-0.828451	-0.004880
52270		8.672379	-1.712981	-5.036820	-0.421455	0.147772	-0.538772	-0.771484	-0.534424	-0.051025	0.552773	0.099735	-0.827276	-0.010443
52271		9.210131	-0.321679	-4.611134	-0.394287	0.182927	-0.659863	-0.754150	-0.534180	-0.071289	0.554299	0.102500	-0.825821	-0.016328
52272		9.208222	0.514307	-4.056528	-0.521034	0.200133	-0.667891	-0.752197	-0.546875	-0.072266	0.556014	0.104715	-0.824227	-0.023090
52273		9.223238	0.286335	-4.085439	-0.543815	0.216289	-0.724455	-0.745850	-0.557129	-0.083008	0.557814	0.107207	-0.822457	-0.030239
52274		9.074792	0.180647	-4.410700	-0.444612	0.237537	-0.810739	-0.734375	-0.556152	-0.093262	0.559610	0.110745	-0.820487	-0.037070
52275		8.896418	0.577833	-4.447136	-0.371473	0.266434	-0.903157	-0.733643	-0.569336	-0.096680	0.561460	0.115242	-0.818269	-0.043789
52276		8.995699	1.134888	-4.523314	-0.384990	0.297055	-0.939361	-0.724854	-0.577148	-0.106689	0.563466	0.119908	-0.815815	-0.050730
52277		9.833177	1.052560	-4.000208	-0.412618	0.320388	-0.960974	-0.722168	-0.589355	-0.122559	0.565592	0.124573	-0.813161	-0.057930
52278		9.880938	0.569911	-3.546877	-0.283313	0.367989	-1.055516	-0.706299	-0.601074	-0.121094	0.567809	0.130499	-0.810177	-0.064627
52279		9.709237	1.200308	-3.963482	-0.177871	0.372393	-1.126162	-0.695312	-0.598877	-0.134033	0.569850	0.137399	-0.807072	-0.070903
52280		9.538641	1.955911	-4.019896	-0.209006	0.394096	-1.173826	-0.677734	-0.612549	-0.137695	0.571982	0.144465	-0.803710	-0.077567
52281		9.549079	2.035050	-4.128353	-0.371052	0.392658	-1.162956	-0.673584	-0.637939	-0.150146	0.574236	0.150661	-0.800179	-0.085249
52282		9.910848	1.955753	-4.223594	-0.489260	0.417946	-1.187637	-0.652588	-0.632812	-0.150391	0.576714	0.156446	-0.796322	-0.093790
52283		10.849882	1.317588	-4.521253	-0.490312	0.471576	-1.251881	-0.643311	-0.650635	-0.167725	0.579414	0.162663	-0.792024	-0.102555
52284		10.716009	0.848711	-4.145392	-0.573561	0.496501	-1.297035	-0.633301	-0.664551	-0.169434	0.582261	0.168758	-0.787366	-0.112020
52285		10.598212	-0.377616	-4.030314	-0.716688	0.517825	-1.392549	-0.608398	-0.671631	-0.197754	0.585255	0.174766	-0.782208	-0.122813
52286		10.970647	-1.558192	-4.388918	-0.724827	0.571477	-1.577207	-0.592285	-0.680664	-0.201172	0.588298	0.181942	-0.776360	-0.134419
52287		11.416655	-2.502899	-5.062889	-0.677117	0.563933	-1.810670	-0.574951	-0.694336	-0.215576	0.590804	0.190785	-0.770067	-0.146795
52288		11.778809	-2.306311	-5.087169	-0.731544	0.542973	-2.003393	-0.547119	-0.710938	-0.223877	0.592837	0.200476	-0.763296	-0.160414
52289		12.248723	-1.474496	-4.452532	-1.020442	0.484369	-2.073715	-0.521484	-0.726807	-0.239014	0.594667	0.209001	-0.756068	-0.176215
52290		12.251268	0.113510	-4.852172	-1.452459	0.361209	-2.058207	-0.490723	-0.735352	-0.259521	0.596249	0.214998	-0.748554	-0.194754
52291		12.988982	1.250248	-5.223239	-1.949266	0.266068	-1.967322	-0.468262	-0.731689	-0.280762	0.597975	0.217674	-0.740536	-0.215985
52292		12.790583	-0.437887	-3.850996	-2.331634	0.092313	-1.913464	-0.449463	-0.735107	-0.311523	0.599058	0.217647	-0.732401	-0.239474
52293		10.958731	1.794916	-5.263121	-1.834112	-0.007776	-2.218832	-0.419189	-0.736328	-0.322510	0.597666	0.221629	-0.724794	-0.261437
52294		10.145184	4.477576	-4.158015	-1.480613	-0.045396	-2.391648	-0.384766	-0.746338	-0.334473	0.594664	0.228179	-0.717469	-0.282041
52295		9.969609	4.003471	-3.039272	-1.528397	-0.042305	-2.063215	-0.360596	-0.750244	-0.356201	0.592230	0.232410	-0.710319	-0.301158
52296		8.392687	5.174509	-2.294344	-1.499180	0.025672	-1.660039	-0.348389	-0.747314	-0.358887	0.590917	0.234478	-0.703428	-0.317846
52297		6.136931	6.157136	-2.237638	-1.106073	-0.010783	-1.453152	-0.322754	-0.744385	-0.371582	0.588998	0.237110	-0.697979	-0.331189
52298		3.775271	8.539157	-2.327390	-0.813130	-0.297154	-0.982653	-0.320801	-0.738525	-0.379395	0.586014	0.237611	-0.695569	-0.341046
52299		5.216004	4.664783	-3.492633	-0.651714	-0.401778	-0.103297	-0.322266	-0.739502	-0.378906	0.584516	0.233475	-0.695831	-0.345905
52300		5.436296	2.992755	-1.232636	-0.798024	-0.033426	0.479741	-0.322266	-0.731934	-0.378906	0.587054	0.226269	-0.694997	-0.348065
52301		5.036727	3.657717	0.127758	-0.465988	0.112784	0.970906	-0.333496	-0.722168	-0.382812	0.591198	0.218252	-0.695281	-0.345593
52302		4.451241	4.164746	0.330926	-0.078505	0.122414	1.340398	-0.347900	-0.721924	-0.384766	0.595711	0.210019	-0.697212	-0.338992
52303		3.143653	3.827885	-0.214668	0.565589	-0.059693	1.697451	-0.374512	-0.715576	-0.368408	0.598955	0.202366	-0.702343	-0.327132
52304		3.583771	3.940147	0.124313	0.916544	-0.266578	2.152621	-0.397705	-0.715820	-0.360352	0.601454	0.193171	-0.709993	-0.311204
52305		4.939961	4.684342	-0.559514	1.099466	-0.491492	2.531728	-0.427734	-0.698975	-0.340576	0.603036	0.181977	-0.719492	-0.292511
52306		6.080994	4.479848	-0.399154	1.200605	-0.499234	2.803844	-0.473145	-0.695312	-0.313965	0.604715	0.169524	-0.729225	-0.271683
52307		6.630137	4.253363	-0.190250	1.364311	-0.553710	3.049235	-0.502930	-0.686279	-0.301514	0.605953	0.156158	-0.739382	-0.248496
52308		6.995592	4.649396	-0.624003	1.551264	-0.570486	3.290067	-0.537842	-0.662109	-0.275879	0.606825	0.142086	-0.749643	-0.222736
52309		7.580995	4.618996	-0.780568	1.602582	-0.609638	3.524201	-0.576416	-0.642578	-0.250488	0.607221	0.126597	-0.759683	-0.195290
52310		7.987581	4.495567	-1.228715	1.668095	-0.705596	3.686349	-0.613770	-0.619629	-0.213135	0.606529	0.110120	-0.769596	-0.166489
52311		8.592049	3.783598	-1.791066	1.802573	-0.775715	3.805903	-0.659180	-0.595215	-0.195557	0.604688	0.093327	-0.779182	-0.136084
52312		9.287223	3.151406	-1.896838	1.994297	-0.836370	3.876441	-0.698975	-0.564697	-0.160400	0.601584	0.076848	-0.788280	-0.103947
52313		10.040575	2.771006	-2.249120	2.348506	-0.847375	3.872574	-0.729004	-0.524902	-0.127441	0.597326	0.062057	-0.796580	-0.069361
52314		10.562334	3.405396	-2.746147	2.634551	-0.781446	3.842368	-0.757812	-0.491455	-0.103516	0.592440	0.048840	-0.803460	-0.032885
52315		10.953278	4.190000	-2.852176	2.498506	-0.759730	3.891166	-0.783691	-0.448242	-0.071045	0.586860	0.034561	-0.808945	0.002970
52316		11.054563	3.912506	-3.344712	2.108098	-0.721984	3.968937	-0.811523	-0.404297	-0.046875	0.580778	0.017809	-0.813046	0.036562
52317		11.333297	3.177802	-3.247659	1.781005	-0.636696	3.967724	-0.837158	-0.363037	-0.024414	0.574516	-0.000557	-0.815674	0.067866
52318		11.348785	2.095963	-3.519861	1.553693	-0.644823	3.910459	-0.852783	-0.306641	-0.006592	0.567489	-0.019599	-0.817384	0.097240
52319		11.278047	0.536951	-3.467893	1.536209	-0.670840	3.694269	-0.864990	-0.260986	0.008545	0.559779	-0.037191	-0.818263	0.125337
52320		11.393716	0.114651	-3.367565	1.740860	-0.708036	3.217243	-0.873779	-0.209473	0.030273	0.551794	-0.050482	-0.818369	0.152470
52321		11.280197	0.894558	-3.135201	1.914129	-0.678651	2.629940	-0.885742	-0.180908	0.037354	0.544360	-0.058942	-0.817643	0.177928
52322		10.879566	2.319420	-3.353009	1.728527	-0.554155	2.059121	-0.880371	-0.157471	0.055420	0.538190	-0.064472	-0.816369	0.199339
52323		9.999192	3.073632	-3.537792	1.189564	-0.322192	1.383928	-0.889160	-0.130615	0.061035	0.534238	-0.068158	-0.814999	0.213826
52324		8.969417	2.092128	-4.059455	0.513010	-0.192538	0.539912	-0.890625	-0.122559	0.067139	0.532224	-0.069320	-0.814624	0.219820
52325		8.463547	1.174725	-4.252003	-0.020031	-0.121004	-0.388022	-0.889648	-0.121826	0.063965	0.532082	-0.066666	-0.815428	0.217994
52326		8.402360	2.112505	-4.607363	-0.143563	-0.111856	-1.200801	-0.883301	-0.144775	0.060059	0.533384	-0.059048	-0.816829	0.211672
52327		9.253649	1.833794	-5.520064	-0.193264	-0.158156	-1.782340	-0.888916	-0.160889	0.065430	0.535288	-0.047601	-0.818686	0.202372
52328		8.218178	-2.264532	-5.816466	-0.326147	-0.108322	-1.743707	-0.878174	-0.197021	0.065430	0.537295	-0.037090	-0.820358	0.192226
52329		11.937219	-8.452148	-1.123957	-1.190529	0.241272	-0.657207	-0.881348	-0.200928	0.064697	0.539581	-0.038457	-0.821378	0.180865
52330		14.101532	-8.223370	1.466589	-1.259720	0.116613	-0.904190	-0.875732	-0.210693	0.053223	0.541282	-0.038205	-0.823002	0.167994
52331		12.494261	-5.949046	-0.839970	-0.822761	0.006188	-1.407247	-0.868164	-0.235596	0.050293	0.542985	-0.032281	-0.824503	0.155947
52332		10.972802	-0.041811	-3.263125	0.955499	-0.272761	-2.189690	-0.864014	-0.264893	0.064941	0.544116	-0.012512	-0.824910	0.152658
52333		10.201684	3.231064	-3.609509	0.840373	-0.249915	-2.269460	-0.848633	-0.289551	0.063965	0.545276	0.007281	-0.825030	0.148144
52334		8.447203	2.236896	-5.470326	0.930405	-0.260113	-2.186652	-0.839111	-0.323730	0.063965	0.546043	0.026945	-0.824754	0.144538
52335		6.704830	3.423329	-4.495106	0.664321	-0.609216	-1.969008	-0.833496	-0.343506	0.083984	0.544005	0.044299	-0.826146	0.139921
52336		8.933308	5.441869	-6.561877	-0.478853	-0.333811	-1.366102	-0.829346	-0.360596	0.080566	0.543448	0.051981	-0.827654	0.130196
52337		8.956885	4.101697	-5.363935	-1.198145	0.012732	-1.049181	-0.823730	-0.374268	0.073975	0.545156	0.053826	-0.828381	0.117017
52338		10.114636	0.871094	-2.542710	-1.616116	0.041978	-0.702483	-0.822754	-0.389404	0.056641	0.546805	0.051338	-0.829377	0.102480
52339		10.121502	-1.925383	-1.277658	-1.007863	-0.035066	-0.797897	-0.816650	-0.403076	0.055176	0.547661	0.052367	-0.830013	0.091669
52340		9.334898	-1.789935	-1.578507	0.107889	-0.252032	-1.086585	-0.810547	-0.409424	0.054688	0.546700	0.060674	-0.830564	0.087185
52341		9.480866	0.509523	-2.840164	0.467741	-0.355110	-1.151054	-0.813232	-0.430664	0.061035	0.544842	0.071151	-0.831193	0.084867
52342		9.270553	2.746554	-4.703018	0.138042	-0.264647	-0.958621	-0.794678	-0.446533	0.063232	0.543621	0.078760	-0.831674	0.081194
52343		8.748700	3.082195	-5.198471	-0.455385	-0.178056	-0.678699	-0.794678	-0.456787	0.055908	0.543165	0.081670	-0.832300	0.074691
52344		8.779476	2.130620	-5.651913	-0.781788	-0.091071	-0.475545	-0.797363	-0.455078	0.044678	0.543385	0.081641	-0.832823	0.066888
52345		8.850645	0.793510	-4.988005	-0.830078	-0.061057	-0.372686	-0.783691	-0.468994	0.042725	0.543763	0.080628	-0.833255	0.059228
52346		8.858908	-0.594243	-4.228470	-0.545525	-0.042946	-0.406549	-0.786621	-0.465576	0.034424	0.544046	0.081118	-0.833419	0.053346
52347		9.113936	0.229707	-3.673162	-0.144542	-0.084056	-0.534264	-0.786133	-0.478271	0.032227	0.543828	0.084304	-0.833472	0.049680
52348		9.242182	1.354211	-4.169138	-0.070321	-0.063091	-0.484080	-0.778564	-0.476807	0.026367	0.543675	0.087508	-0.833410	0.046777
52349		9.231278	2.486449	-4.330138	-0.377335	-0.043897	-0.345600	-0.787598	-0.491455	0.033203	0.543834	0.088306	-0.833457	0.042374
52350		8.900760	1.004870	-4.567133	-0.660116	-0.015909	-0.235410	-0.778809	-0.487061	0.016357	0.544299	0.087114	-0.833555	0.036541
52351		8.808149	-0.445346	-4.363999	-0.604261	-0.011371	-0.222776	-0.780029	-0.501709	0.000732	0.544771	0.086023	-0.833580	0.031123
52352		8.912429	-0.187568	-4.435607	-0.437399	-0.002467	-0.315170	-0.776855	-0.502197	-0.010254	0.545179	0.086347	-0.833442	0.026442
52353		8.810881	0.193748	-4.328028	-0.366828	0.009860	-0.326207	-0.776367	-0.506348	-0.013672	0.545592	0.087031	-0.833223	0.022214
52354		8.720456	0.190167	-4.333639	-0.368359	0.009397	-0.358407	-0.771240	-0.512939	-0.028076	0.545995	0.087924	-0.832971	0.017830
52355		8.947934	0.299352	-4.198215	-0.422436	0.007527	-0.332943	-0.772705	-0.510986	-0.025635	0.546407	0.088387	-0.832739	0.013187
52356		9.096476	-0.101974	-4.033633	-0.415841	0.016560	-0.376503	-0.771240	-0.514893	-0.041016	0.546868	0.089175	-0.832414	0.008402
52357		8.856403	-0.335465	-4.043785	-0.318585	0.015571	-0.439858	-0.763672	-0.525146	-0.033203	0.547242	0.090841	-0.832020	0.004010
52358		9.003764	0.516507	-4.059139	-0.248264	0.016574	-0.478220	-0.774170	-0.526123	-0.044678	0.547558	0.093088	-0.831574	-0.000061
52359		9.064830	0.862990	-4.027666	-0.269568	0.031439	-0.508915	-0.755859	-0.528320	-0.045166	0.547980	0.095445	-0.831017	-0.004404
52360		9.178171	1.018876	-4.033047	-0.298258	0.049776	-0.514991	-0.757080	-0.532471	-0.060059	0.548537	0.097711	-0.830349	-0.008954
52361		9.061270	1.088549	-4.076147	-0.325535	0.067271	-0.533929	-0.755859	-0.548096	-0.060547	0.549220	0.099981	-0.829561	-0.013762
52362		8.920960	0.623530	-4.180717	-0.345571	0.079466	-0.531250	-0.744385	-0.544434	-0.068604	0.549988	0.102139	-0.828693	-0.018682
52363		9.071618	0.658016	-4.236388	-0.341759	0.101851	-0.567129	-0.750488	-0.554932	-0.069092	0.550883	0.104557	-0.827667	-0.023716
52364		9.007045	0.523767	-4.130611	-0.384254	0.112815	-0.603508	-0.735352	-0.560791	-0.083252	0.551862	0.107026	-0.826524	-0.029195
52365		8.966253	0.628763	-4.053049	-0.421920	0.142990	-0.657152	-0.728027	-0.564453	-0.095947	0.553045	0.109689	-0.825151	-0.035145
52366		9.260274	0.943966	-3.840047	-0.463634	0.185286	-0.722846	-0.733887	-0.578125	-0.094727	0.554509	0.112615	-0.823471	-0.041638
52367		9.419486	0.584385	-4.020059	-0.448941	0.206467	-0.757166	-0.714844	-0.587646	-0.106689	0.556061	0.115844	-0.821619	-0.048159
52368		9.530988	0.731147	-4.186310	-0.381925	0.228409	-0.829890	-0.710205	-0.587891	-0.119385	0.557634	0.119880	-0.819573	-0.054524
52369		9.492971	0.946795	-4.180569	-0.360066	0.259384	-0.882800	-0.706543	-0.595215	-0.117676	0.559335	0.124380	-0.817288	-0.060944
52370		9.645725	1.052196	-4.262207	-0.365708	0.294726	-0.928530	-0.697266	-0.606201	-0.130859	0.561217	0.129170	-0.814730	-0.067566
52371		9.555633	1.291746	-4.288365	-0.419808	0.317783	-0.955358	-0.681885	-0.614258	-0.139160	0.563251	0.133885	-0.811943	-0.074644
52372		9.588175	1.884139	-4.200848	-0.496254	0.354197	-1.008135	-0.670654	-0.623779	-0.158203	0.565531	0.138604	-0.808807	-0.082432
52373		9.560073	1.610089	-4.140185	-0.540108	0.416157	-1.074945	-0.659180	-0.634521	-0.159424	0.568170	0.143590	-0.805189	-0.090746
52374		9.531159	1.170735	-4.173755	-0.539319	0.448049	-1.122969	-0.645508	-0.642334	-0.173828	0.570917	0.148903	-0.801272	-0.099226
52375		9.717893	1.166452	-4.011686	-0.540887	0.475759	-1.213873	-0.623047	-0.649902	-0.185059	0.573697	0.154811	-0.797007	-0.108092
52376		10.122349	0.870730	-4.092193	-0.608775	0.521927	-1.291253	-0.623779	-0.661621	-0.187012	0.576714	0.160921	-0.792246	-0.117694
52377		10.726875	0.429068	-4.152156	-0.543227	0.583076	-1.417416	-0.597900	-0.674072	-0.205322	0.579821	0.168201	-0.786954	-0.127353
52378		10.821751	-0.081090	-4.420917	-0.599595	0.592230	-1.488580	-0.581787	-0.680664	-0.213135	0.582878	0.175642	-0.781312	-0.137671
52379		11.424633	-0.161375	-4.119822	-0.715130	0.616850	-1.600213	-0.563477	-0.693848	-0.230713	0.586005	0.183224	-0.775091	-0.149200
52380		11.712350	-2.078189	-4.494067	-0.763484	0.621346	-1.780306	-0.545410	-0.701416	-0.247314	0.588857	0.191677	-0.768318	-0.161851
52381		11.718495	-3.254297	-5.543347	-0.719772	0.571019	-1.921111	-0.514648	-0.713379	-0.249023	0.590949	0.201099	-0.761408	-0.174917
52382		12.062100	-1.855145	-5.272459	-0.936113	0.486317	-2.087375	-0.490234	-0.726562	-0.262207	0.592414	0.210288	-0.754081	-0.190226
52383		12.615832	-0.412647	-5.576002	-1.393552	0.380623	-2.110166	-0.460449	-0.731934	-0.281006	0.593732	0.217081	-0.746220	-0.208602
52384		13.175831	0.243662	-5.315854	-1.826376	0.205337	-2.123653	-0.430664	-0.736816	-0.305176	0.594416	0.221381	-0.738102	-0.229927
52385		12.440841	-0.624586	-5.002615	-1.929807	-0.032178	-2.156036	-0.409912	-0.733887	-0.320068	0.593429	0.224768	-0.730513	-0.252334
52386		11.523755	3.817698	-5.237869	-1.332998	0.004458	-2.540515	-0.377930	-0.749512	-0.336670	0.590397	0.233375	-0.722887	-0.272768
52387		10.281661	5.167814	-3.810837	-1.203155	-0.093368	-2.503259	-0.345459	-0.752197	-0.346191	0.586275	0.242034	-0.715738	-0.292267
52388		9.554044	5.071738	-2.540058	-1.381568	-0.061075	-2.102308	-0.324463	-0.752686	-0.356689	0.583394	0.247389	-0.708479	-0.310656
52389		7.608914	6.199923	-2.308631	-1.305376	-0.032662	-1.679282	-0.307617	-0.749756	-0.372803	0.581403	0.250598	-0.701900	-0.326355
52390		4.703548	8.679755	-1.561149	-1.043689	-0.024145	-1.257230	-0.289795	-0.748291	-0.371094	0.579916	0.252571	-0.696710	-0.338379
52391		4.361087	7.165647	-3.485185	-0.951047	-0.490928	-0.468261	-0.280762	-0.738525	-0.377441	0.577659	0.249067	-0.695605	-0.347001
52392		5.782615	2.115849	-2.416745	-1.078134	-0.168747	0.310370	-0.284668	-0.740234	-0.392090	0.579710	0.241343	-0.694145	-0.351927
52393		5.043739	1.484163	0.296911	-0.726144	0.121906	0.736731	-0.299316	-0.733643	-0.394287	0.583931	0.233677	-0.693122	-0.352138
52394		4.512655	3.339132	0.866011	-0.135836	0.082440	1.114777	-0.314209	-0.728516	-0.389404	0.587846	0.226564	-0.694695	-0.347137
52395		3.540438	5.147729	0.064071	0.402120	-0.054852	1.411137	-0.324951	-0.728516	-0.377686	0.590747	0.219949	-0.698960	-0.337780
52396		3.150529	5.303806	-0.015184	0.769835	-0.186755	1.937354	-0.360107	-0.724121	-0.362549	0.593550	0.211658	-0.705701	-0.323859
52397		4.039441	4.553481	-0.480328	1.028914	-0.354927	2.446988	-0.381348	-0.721436	-0.345947	0.596041	0.201112	-0.714572	-0.306067
52398		5.358390	3.660932	-0.584434	1.211110	-0.394787	2.791283	-0.408203	-0.716553	-0.323242	0.598519	0.189199	-0.724253	-0.285370
52399		6.315614	3.643648	-0.385978	1.444715	-0.408818	2.981699	-0.456055	-0.703613	-0.303711	0.600569	0.177127	-0.734324	-0.262128
52400		6.865885	5.112435	-0.972863	1.722268	-0.430590	3.190537	-0.485107	-0.700928	-0.284668	0.602023	0.164964	-0.744773	-0.235943
52401		7.170854	5.702166	-1.310719	1.749880	-0.405472	3.473083	-0.538330	-0.672852	-0.249756	0.603548	0.151067	-0.754776	-0.207899
52402		7.846689	5.153696	-1.448449	1.692630	-0.443981	3.721153	-0.566406	-0.656494	-0.240967	0.604653	0.135083	-0.764318	-0.178788
52403		8.409604	4.474201	-2.137165	1.809426	-0.509906	3.840943	-0.612549	-0.627930	-0.200195	0.604642	0.118659	-0.773543	-0.148187
52404		8.985813	3.374210	-2.216731	2.008703	-0.587910	3.909839	-0.649658	-0.601807	-0.177246	0.603213	0.102538	-0.782433	-0.115838
52405		9.790925	2.341512	-2.498372	2.543642	-0.717376	3.886585	-0.691406	-0.573975	-0.145020	0.599583	0.088980	-0.791311	-0.080062
52406		11.116932	3.570497	-2.946347	3.000572	-0.736404	3.789689	-0.725830	-0.539307	-0.103760	0.594466	0.078185	-0.799227	-0.041640
52407		11.022087	6.005810	-4.295243	2.850803	-0.704254	3.831884	-0.755859	-0.505859	-0.076660	0.588699	0.066251	-0.805623	-0.003920
52408		10.949597	5.702762	-3.942142	2.226280	-0.578077	4.016033	-0.786133	-0.456543	-0.053467	0.583211	0.049923	-0.810209	0.030567
52409		10.559993	3.578159	-4.005577	1.805071	-0.590152	4.077313	-0.812988	-0.406738	-0.028076	0.576954	0.031075	-0.813794	0.062437
52410		10.679659	2.948711	-4.113706	1.526820	-0.644804	3.986709	-0.839111	-0.356201	-0.000488	0.569664	0.011497	-0.816646	0.091868
52411		10.847087	3.166566	-4.311386	1.324534	-0.786421	3.760634	-0.853516	-0.317871	0.015625	0.560905	-0.007401	-0.819292	0.118705
52412		10.631713	2.316412	-4.556553	1.088183	-0.894838	3.572914	-0.865479	-0.259033	0.025391	0.550969	-0.025995	-0.821788	0.142908
52413		10.761777	1.410534	-4.204201	0.833223	-0.850120	3.389721	-0.879150	-0.214111	0.052979	0.540973	-0.044524	-0.823622	0.164355
52414		10.536586	1.237138	-3.895463	0.526145	-0.729457	3.126179	-0.883789	-0.173584	0.059082	0.531613	-0.062746	-0.824751	0.182310
52415		9.839214	0.719256	-3.445869	0.131773	-0.652932	2.689679	-0.880371	-0.139160	0.080811	0.522904	-0.079776	-0.825838	0.195447
52416		9.553430	-0.049766	-3.383582	-0.000183	-0.624006	1.951883	-0.883301	-0.107910	0.079346	0.515297	-0.092303	-0.827159	0.204346
52417		9.206910	-0.824442	-3.571520	-0.048517	-0.431369	1.020510	-0.892090	-0.092529	0.090332	0.510476	-0.098913	-0.828293	0.208712
52418		8.857415	-0.649492	-3.138035	-0.263816	-0.241740	0.048589	-0.889160	-0.092041	0.096191	0.508457	-0.100043	-0.829757	0.207282
52419		8.751979	0.465562	-2.585645	-0.184961	-0.156333	-0.821694	-0.887939	-0.099854	0.098633	0.508588	-0.094952	-0.831424	0.202622
52420		8.752615	1.589933	-2.338255	0.116012	-0.046321	-1.570466	-0.889404	-0.112793	0.086426	0.510934	-0.083553	-0.832619	0.196753
52421		8.800859	2.586414	-2.132566	0.310385	0.072615	-2.172414	-0.877441	-0.156982	0.093750	0.515104	-0.067304	-0.833198	0.189524
52422		7.770629	1.408626	-5.426475	0.410528	-0.119822	-2.435510	-0.876221	-0.188721	0.096436	0.518220	-0.048445	-0.834278	0.181882
52423		8.488026	-12.014538	-5.901176	0.320136	-0.046636	-0.959120	-0.880615	-0.185547	0.083496	0.519440	-0.040335	-0.834383	0.179890
52424		8.178693	-7.683512	-2.342457	0.225577	-0.234803	-0.778617	-0.875244	-0.202637	0.095703	0.519006	-0.033630	-0.835334	0.178101
52425		16.253875	-3.236163	-1.090784	-0.806108	-0.179413	-0.967404	-0.871338	-0.220703	0.092773	0.518906	-0.030156	-0.837556	0.168306
52426		13.608690	-3.089922	-0.133981	-1.029844	0.674822	-1.120379	-0.872070	-0.233154	0.080078	0.524864	-0.027742	-0.836297	0.156061
52427		11.034277	-4.347282	-3.157335	0.962541	-0.336620	-1.665045	-0.865967	-0.263672	0.089111	0.524838	-0.011469	-0.836794	0.155532
52428		11.584284	-0.944818	-5.010808	1.351673	-0.282272	-2.412683	-0.855957	-0.290771	0.100586	0.525989	0.011657	-0.836280	0.154387
52429		8.621830	1.739629	-4.753657	1.647136	-0.201647	-2.689232	-0.845215	-0.321777	0.112549	0.527706	0.037899	-0.834492	0.153993
52430		5.775832	5.027616	-4.479153	0.693547	-0.621097	-2.023516	-0.835205	-0.348633	0.117432	0.525676	0.055845	-0.835551	0.149665
52431		7.645199	7.271220	-7.540074	-0.693235	-0.206477	-1.279699	-0.829834	-0.364746	0.122559	0.526119	0.062018	-0.836667	0.139068
52432		9.722376	5.059459	-5.482832	-1.650845	-0.056040	-0.892940	-0.824707	-0.380127	0.103760	0.527548	0.061120	-0.838275	0.123499
52433		10.843002	0.852518	-2.942959	-1.919620	0.208342	-0.593422	-0.815186	-0.388916	0.082275	0.530517	0.056674	-0.838925	0.107445
52434		9.661779	-1.254136	-1.638467	-1.040073	0.212408	-0.782582	-0.808350	-0.396729	0.080566	0.533170	0.057434	-0.838501	0.096682
52435		8.722880	-1.616638	-2.215311	0.202605	-0.103386	-1.065074	-0.812988	-0.412598	0.073486	0.533198	0.065948	-0.838252	0.093197
52436		9.414522	-0.655640	-2.975646	0.858244	-0.317082	-1.142642	-0.810059	-0.434814	0.095459	0.531380	0.078075	-0.838294	0.093826
52437		8.895234	1.361610	-5.127703	0.778756	-0.269795	-1.042532	-0.797119	-0.434570	0.086426	0.529783	0.089117	-0.838142	0.094367
52438		8.872147	3.406081	-5.834298	0.155759	-0.077126	-0.788953	-0.796143	-0.451416	0.086426	0.529769	0.095441	-0.837742	0.091788
52439		9.163740	3.163732	-5.189614	-0.614696	0.028696	-0.465881	-0.792969	-0.458984	0.088135	0.530828	0.096050	-0.837685	0.085321
52440		9.136475	0.359487	-4.226719	-1.039377	0.053245	-0.291337	-0.799072	-0.468994	0.067627	0.532223	0.093560	-0.837918	0.076676
52441		8.743557	-2.883317	-3.926817	-0.697291	0.026874	-0.384539	-0.785156	-0.472900	0.069336	0.533224	0.093246	-0.837903	0.069970
52442		8.704317	-2.684081	-4.175297	-0.038047	-0.016186	-0.627174	-0.788574	-0.476318	0.057617	0.533503	0.097566	-0.837495	0.066761
52443		8.934986	-0.025126	-4.614749	0.181739	0.013173	-0.721323	-0.780762	-0.482422	0.052002	0.533877	0.103454	-0.836712	0.064699
52444		8.777910	1.693827	-4.720257	-0.113333	0.053024	-0.611555	-0.781738	-0.493896	0.055908	0.534709	0.107220	-0.835978	0.061087
52445		8.573128	0.709657	-4.755303	-0.494773	0.053888	-0.492217	-0.772949	-0.502930	0.049316	0.535779	0.108497	-0.835526	0.055368
52446		8.833611	-0.445842	-4.316110	-0.529432	0.064103	-0.474432	-0.770020	-0.509766	0.031738	0.536922	0.109491	-0.835032	0.049477
52447		8.746077	-1.093794	-4.089393	-0.316361	0.068621	-0.560187	-0.766113	-0.518799	0.031006	0.537930	0.112010	-0.834319	0.044685
52448		8.643015	-0.675170	-4.013730	-0.073342	0.055524	-0.650133	-0.767334	-0.524170	0.023682	0.538620	0.116257	-0.833473	0.041188
52449		8.741953	0.498110	-4.112715	-0.004554	0.068191	-0.720652	-0.757324	-0.530762	0.022217	0.539336	0.121287	-0.832449	0.037870
52450		8.730385	0.525111	-4.160190	-0.097025	0.050995	-0.697553	-0.755127	-0.536621	0.012695	0.539996	0.125743	-0.831527	0.033997
52451		8.971251	0.376002	-4.125914	-0.102261	0.035885	-0.723346	-0.743896	-0.548340	0.015869	0.540544	0.130352	-0.830616	0.029956
52452		9.160823	0.693253	-3.983628	-0.069216	0.037392	-0.762276	-0.736084	-0.562012	0.013916	0.541053	0.135374	-0.829615	0.025973
52453		9.213946	1.643658	-3.782801	-0.105857	0.040289	-0.734744	-0.740723	-0.572266	0.002197	0.541595	0.140032	-0.828606	0.021865
52454		9.218342	2.185394	-3.942827	-0.216738	0.025740	-0.695443	-0.728271	-0.575439	-0.001709	0.542139	0.143917	-0.827695	0.017151
52455		9.227660	2.355161	-3.909191	-0.318065	0.020728	-0.620930	-0.720703	-0.582031	0.000488	0.542741	0.146828	-0.826879	0.012067
52456		9.398665	2.515351	-3.823943	-0.407765	0.033176	-0.560256	-0.713379	-0.574707	-0.027588	0.543514	0.148911	-0.826059	0.006652
52457		9.649115	2.402749	-3.917977	-0.528583	0.043763	-0.493786	-0.713623	-0.592773	-0.023438	0.544489	0.149986	-0.825249	0.000719
52458		9.468350	1.806647	-4.188914	-0.718511	0.050826	-0.434352	-0.713867	-0.598389	-0.032227	0.545728	0.149786	-0.824443	-0.006243
52459		9.063709	0.213554	-4.650605	-0.720621	0.079332	-0.480323	-0.716064	-0.601807	-0.045898	0.547136	0.149885	-0.823406	-0.013390
52460		8.636130	-0.757451	-4.681700	-0.699578	0.092188	-0.565280	-0.708740	-0.610596	-0.054688	0.548564	0.150650	-0.822163	-0.020758
52461		8.799871	-0.773421	-4.546048	-0.659920	0.138590	-0.731203	-0.700928	-0.615479	-0.066895	0.550194	0.152723	-0.820456	-0.028543
52462		9.851122	0.144785	-4.330497	-0.647863	0.187368	-0.837784	-0.689453	-0.614014	-0.065918	0.552072	0.155573	-0.818334	-0.036660
52463		10.168039	0.686844	-4.000105	-0.683829	0.233209	-0.917208	-0.682617	-0.632080	-0.084473	0.554236	0.158792	-0.815815	-0.045316
52464		9.977001	0.197983	-3.995268	-0.715345	0.273326	-0.986131	-0.669189	-0.636963	-0.100098	0.556633	0.162330	-0.812924	-0.054439
52465		9.561634	0.219299	-4.037388	-0.707191	0.307148	-1.107465	-0.659668	-0.656250	-0.106201	0.559127	0.166716	-0.809621	-0.064006
52466		9.485729	0.927886	-4.118677	-0.749762	0.345202	-1.217237	-0.635010	-0.658447	-0.130615	0.561801	0.171636	-0.805854	-0.074300
52467		9.665525	1.514425	-4.375528	-0.840463	0.375643	-1.284107	-0.626221	-0.670166	-0.132812	0.564674	0.176565	-0.801664	-0.085453
52468		10.143016	1.415557	-4.486939	-0.917017	0.415928	-1.346340	-0.610107	-0.674805	-0.150635	0.567780	0.181541	-0.796992	-0.097327
52469		10.488696	0.709579	-4.566203	-0.897019	0.477056	-1.432569	-0.590332	-0.690186	-0.163086	0.571072	0.187190	-0.791756	-0.109355
52470		10.898993	0.050366	-4.506132	-0.824035	0.536039	-1.576119	-0.572021	-0.704102	-0.175537	0.574378	0.194136	-0.785907	-0.121456
52471		11.461935	-0.875249	-4.236321	-0.816256	0.598575	-1.737377	-0.557129	-0.712646	-0.193115	0.577767	0.202176	-0.779307	-0.134129
52472		11.691532	-1.765657	-5.191091	-0.854167	0.614753	-1.896803	-0.535645	-0.721924	-0.198242	0.580972	0.211013	-0.772089	-0.147728
52473		12.787915	-1.551651	-5.376856	-0.904884	0.584949	-2.088935	-0.508789	-0.731689	-0.214600	0.583631	0.220711	-0.764353	-0.162560
52474		13.080448	-0.914257	-4.733138	-1.220375	0.533518	-2.101033	-0.478271	-0.742188	-0.230469	0.586289	0.228774	-0.756122	-0.179465
52475		13.699252	0.251934	-5.651434	-1.686081	0.451038	-2.045422	-0.445312	-0.750977	-0.252686	0.589128	0.233964	-0.747366	-0.199082
52476		13.882314	-2.349153	-5.382121	-2.214019	0.264489	-1.916985	-0.424805	-0.749512	-0.285156	0.591722	0.235309	-0.738508	-0.221588
52477		11.878127	-3.655431	-6.000390	-1.958695	0.031496	-2.158919	-0.403564	-0.748047	-0.298828	0.591585	0.238809	-0.730381	-0.244011
52478		11.476514	2.785581	-5.096434	-1.069632	-0.008665	-2.680354	-0.376221	-0.761230	-0.307861	0.588030	0.249625	-0.722824	-0.263502
52479		10.668456	5.832895	-3.724748	-0.928632	-0.203254	-2.715077	-0.337158	-0.773682	-0.318115	0.582598	0.260763	-0.716064	-0.282551
52480		9.415289	5.939466	-3.246441	-1.086138	-0.204600	-2.217157	-0.309082	-0.777832	-0.325439	0.578384	0.268032	-0.709679	-0.299978
52481		7.929862	7.289121	-2.766709	-1.159501	0.000774	-1.646786	-0.287109	-0.775146	-0.328857	0.576774	0.271993	-0.703157	-0.314519
52482		4.115427	10.019112	-2.136392	-1.251352	-0.053798	-1.165156	-0.281494	-0.772217	-0.330811	0.576175	0.272484	-0.697588	-0.327332
52483		4.022251	6.167022	-3.461552	-1.268607	-0.394342	-0.187984	-0.281250	-0.763184	-0.345947	0.576198	0.266250	-0.695714	-0.336286
52484		5.040337	2.033385	-2.191621	-1.277166	-0.204608	0.547034	-0.285645	-0.754395	-0.356934	0.579312	0.256215	-0.694454	-0.341300
52485		5.108232	2.008283	0.034859	-0.919398	0.078969	0.987299	-0.292480	-0.743164	-0.364746	0.584474	0.246125	-0.693697	-0.341464
52486		4.564425	3.144314	1.005537	-0.510232	0.077685	1.324740	-0.310059	-0.736816	-0.362793	0.589672	0.236034	-0.694709	-0.337572
52487		3.311878	3.468577	0.600750	0.137369	-0.109051	1.629035	-0.331543	-0.737549	-0.364258	0.593276	0.226794	-0.698937	-0.328748
52488		3.297013	3.806082	1.077818	0.625411	-0.419718	2.060213	-0.358154	-0.739258	-0.338867	0.595173	0.216543	-0.706660	-0.315452
52489		4.458019	4.749802	0.094066	0.980115	-0.711982	2.474889	-0.389160	-0.719971	-0.332031	0.595539	0.204746	-0.717194	-0.298403
52490		5.729786	4.574250	-0.097531	1.166114	-0.703705	2.830891	-0.423584	-0.721924	-0.296875	0.596156	0.191640	-0.728308	-0.278280
52491		6.183515	3.776570	0.211475	1.372304	-0.702877	3.127876	-0.474854	-0.710449	-0.290039	0.596676	0.177609	-0.739796	-0.255215
52492		6.812918	4.582146	-0.288864	1.616922	-0.749111	3.371171	-0.502197	-0.692139	-0.255127	0.596509	0.163026	-0.751691	-0.229261
52493		7.297688	5.466910	-0.698315	1.612551	-0.699159	3.647249	-0.551025	-0.670410	-0.233643	0.596542	0.146610	-0.762877	-0.201646
52494		7.668785	5.246794	-0.766394	1.455256	-0.692982	3.913064	-0.588379	-0.644287	-0.210205	0.596535	0.127558	-0.773166	-0.173464
52495		8.452101	4.846090	-1.024582	1.418006	-0.732622	4.102781	-0.632812	-0.611816	-0.177979	0.595807	0.106878	-0.782777	-0.144400
52496		9.071162	4.487071	-1.760092	1.517018	-0.782325	4.222600	-0.672119	-0.574951	-0.160400	0.593972	0.085700	-0.791751	-0.113942
52497		9.672399	2.680508	-1.763414	1.819306	-0.800550	4.275929	-0.711670	-0.535889	-0.127686	0.590958	0.065524	-0.799939	-0.081073
52498		10.559552	1.642674	-1.871742	2.532222	-0.833375	4.149561	-0.750732	-0.498047	-0.103027	0.586290	0.049572	-0.807387	-0.043964
52499		11.685058	4.257510	-2.213246	2.750071	-0.887091	4.032687	-0.784424	-0.463623	-0.069336	0.580128	0.035367	-0.813735	-0.005906
52500		11.564421	5.800815	-3.541238	2.351666	-0.745546	4.163131	-0.809326	-0.411865	-0.038574	0.574080	0.018308	-0.818040	0.030124
52501		11.252359	4.529741	-3.164416	1.934311	-0.548009	4.224557	-0.829346	-0.362305	-0.016602	0.568518	-0.001230	-0.820210	0.063567
52502		11.266234	2.250704	-3.185248	1.660333	-0.572089	4.147173	-0.858643	-0.312744	0.003174	0.561995	-0.021509	-0.821425	0.094661
52503		11.489494	0.584843	-3.569830	1.844394	-0.630084	3.753045	-0.859619	-0.260986	0.021729	0.554671	-0.038144	-0.821736	0.125042
52504		11.575416	1.001834	-3.563747	2.210447	-0.642902	3.120935	-0.870117	-0.217529	0.046143	0.547400	-0.048694	-0.820976	0.154859
52505		11.305471	1.803082	-3.347505	2.407025	-0.583475	2.398127	-0.873535	-0.181396	0.052246	0.541037	-0.053423	-0.819209	0.182542
52506		11.009443	3.522381	-3.244395	2.139790	-0.498686	1.759520	-0.877930	-0.160400	0.067383	0.535739	-0.055075	-0.817181	0.205341
52507		9.746245	4.418027	-4.332088	1.325084	-0.243096	1.140593	-0.884521	-0.139648	0.068359	0.532667	-0.056548	-0.815376	0.219612
52508		8.506667	3.276408	-4.272329	0.175762	-0.049556	0.391046	-0.885986	-0.141113	0.075928	0.531684	-0.058357	-0.815079	0.222604
52509		7.914159	2.057582	-4.635892	-0.436700	-0.083690	-0.493253	-0.885498	-0.145996	0.072266	0.531803	-0.056795	-0.816487	0.217508
52510		7.999949	2.721721	-4.566214	-0.567696	-0.045196	-1.343338	-0.875000	-0.162598	0.075195	0.533615	-0.050083	-0.818296	0.207697
52511		8.611615	3.544918	-5.233929	-0.767067	-0.151158	-1.952328	-0.875732	-0.190918	0.074951	0.535554	-0.039897	-0.820995	0.193797
52512		9.506861	-6.699866	-6.063440	-1.090086	-0.109449	-1.256661	-0.872314	-0.201904	0.071777	0.536414	-0.035956	-0.823597	0.180706
52513		11.682234	-11.668239	-0.002765	-1.615551	0.293707	-0.312280	-0.869385	-0.214600	0.060547	0.538350	-0.041452	-0.824748	0.168082
52514		14.188401	-9.575629	1.151720	-1.166328	-0.049519	-0.864661	-0.864990	-0.221191	0.055664	0.538774	-0.040662	-0.826847	0.156183
52515		11.477592	-4.874071	-2.398294	-0.000005	-0.010556	-1.548231	-0.862793	-0.250977	0.056396	0.540683	-0.029978	-0.827341	0.149233
52516		11.533809	-0.164633	-3.689396	1.588208	-0.243528	-2.361859	-0.861816	-0.277100	0.071045	0.542202	-0.006232	-0.826805	0.149575
52517		10.610332	2.665334	-4.025292	0.942262	-0.203431	-2.373946	-0.846436	-0.305420	0.071777	0.543704	0.014639	-0.826470	0.145324
52518		8.145172	1.233323	-4.596008	0.875959	-0.213727	-2.310418	-0.837158	-0.341309	0.074219	0.544830	0.034790	-0.825906	0.140821
52519		5.162368	2.735197	-5.510509	0.185411	-0.851600	-2.000968	-0.823975	-0.360107	0.089355	0.541192	0.050416	-0.828827	0.132720
52520		9.137825	6.404852	-6.980692	-0.910988	-0.257860	-1.355001	-0.809570	-0.376709	0.084473	0.541252	0.055974	-0.830346	0.120160
52521		9.810548	6.238751	-3.663920	-1.659982	0.004424	-1.031298	-0.810303	-0.395264	0.078125	0.543026	0.055655	-0.831397	0.103948
52522		10.541108	1.702669	-1.591994	-1.916853	0.125027	-0.666681	-0.810791	-0.401611	0.058350	0.545294	0.051542	-0.832059	0.087612
52523		9.558616	-2.642328	-1.247881	-0.888130	-0.078638	-0.853840	-0.805664	-0.418701	0.049805	0.545747	0.053544	-0.832643	0.077446
52524		9.093151	-2.458447	-2.364530	0.199315	-0.351928	-1.138427	-0.798340	-0.430420	0.047852	0.543952	0.062631	-0.833549	0.073409
52525		9.631401	2.013311	-4.007117	0.611561	-0.279468	-1.219132	-0.795410	-0.448486	0.063721	0.542432	0.074090	-0.833732	0.071904
52526		9.482194	4.557162	-4.814418	0.152615	-0.201993	-0.950496	-0.777588	-0.453613	0.061035	0.541515	0.081558	-0.833920	0.068459
52527		8.888958	3.504163	-5.312434	-0.555169	-0.057138	-0.631959	-0.781494	-0.464600	0.052490	0.541873	0.083538	-0.834026	0.061610
52528		8.906035	1.564022	-5.211606	-0.872590	0.019184	-0.422859	-0.786865	-0.473633	0.045654	0.542843	0.082593	-0.834046	0.053539
52529		9.132582	-0.273246	-4.415759	-0.734629	0.041238	-0.360711	-0.773438	-0.478760	0.033691	0.543809	0.081831	-0.833902	0.046718
52530		9.166240	-0.423029	-3.680875	-0.314667	0.008510	-0.493404	-0.775146	-0.490234	0.033936	0.544296	0.083897	-0.833621	0.042183
52531		9.114839	0.292798	-3.840770	-0.003918	-0.002949	-0.555576	-0.770752	-0.483887	0.021240	0.544490	0.087817	-0.833220	0.039528
52532		9.222230	2.248566	-3.962263	0.025656	-0.017904	-0.518101	-0.772949	-0.506104	0.023926	0.544556	0.091546	-0.832882	0.037217
52533		9.018884	2.532495	-4.346296	-0.286329	0.003885	-0.373164	-0.766113	-0.503418	0.010254	0.544946	0.092905	-0.832638	0.033415
52534		8.847344	1.556179	-4.270065	-0.540292	0.032952	-0.236635	-0.764893	-0.512451	0.011719	0.545700	0.092109	-0.832416	0.028470
52535		8.928173	0.350233	-3.841494	-0.495655	0.035705	-0.229962	-0.763184	-0.511963	-0.007080	0.546401	0.091522	-0.832165	0.023891
52536		8.933208	-0.147828	-3.934854	-0.321390	0.023709	-0.267952	-0.758301	-0.519287	0.004395	0.546901	0.091951	-0.831884	0.020321
52537		9.076967	0.370101	-4.039164	-0.195718	0.032944	-0.315686	-0.763672	-0.518066	-0.019043	0.547341	0.093338	-0.831505	0.017452
52538		8.924323	0.661901	-3.977798	-0.237459	0.021499	-0.310312	-0.762939	-0.516113	-0.022705	0.547747	0.094452	-0.831172	0.014289
52539		8.820140	0.714653	-3.939125	-0.331028	0.022878	-0.292345	-0.749268	-0.528809	-0.026123	0.548219	0.095026	-0.830851	0.010571
52540		8.991232	-0.162469	-4.054830	-0.319538	0.020254	-0.310967	-0.751221	-0.534424	-0.033936	0.548656	0.095786	-0.830515	0.006847
52541		9.182853	-0.046790	-3.966340	-0.224151	0.028688	-0.366719	-0.756348	-0.529053	-0.041992	0.549071	0.097360	-0.830078	0.003540
52542		9.289696	0.537230	-3.747011	-0.219146	0.040164	-0.427460	-0.751953	-0.534912	-0.048828	0.549553	0.099372	-0.829528	0.000003
52543		9.077992	0.303911	-4.072585	-0.276820	0.046558	-0.425504	-0.744873	-0.543945	-0.055908	0.550119	0.101103	-0.828934	-0.003916
52544		9.035033	0.274084	-4.199439	-0.288220	0.066348	-0.480965	-0.744385	-0.547363	-0.060547	0.550816	0.103161	-0.828186	-0.008147
52545		9.063128	0.795805	-4.292694	-0.330929	0.093029	-0.506089	-0.743652	-0.549072	-0.064941	0.551718	0.105193	-0.827272	-0.012762
52546		9.100484	0.824655	-4.191551	-0.428541	0.129045	-0.518355	-0.729736	-0.564697	-0.084717	0.552935	0.106860	-0.826146	-0.018071
52547		9.140067	0.493977	-4.195594	-0.446004	0.167456	-0.560864	-0.724854	-0.569824	-0.086182	0.554404	0.108739	-0.824774	-0.023659
52548		9.233155	0.251522	-4.312951	-0.409233	0.200680	-0.617520	-0.723145	-0.571045	-0.085205	0.556034	0.111177	-0.823172	-0.029220
52549		9.416415	0.450718	-4.265085	-0.394428	0.226904	-0.675653	-0.717041	-0.567383	-0.099365	0.557790	0.114081	-0.821363	-0.034918
52550		9.262072	0.182723	-4.021895	-0.381178	0.260702	-0.732039	-0.703857	-0.581543	-0.109863	0.559719	0.117433	-0.819307	-0.040749
52551		9.137460	0.073130	-4.245503	-0.315951	0.295901	-0.832754	-0.701660	-0.584961	-0.113770	0.561758	0.121778	-0.816964	-0.046561
52552		9.610082	0.221737	-4.326248	-0.308942	0.320261	-0.915343	-0.690186	-0.596924	-0.121582	0.563883	0.126716	-0.814373	-0.052678
52553		9.979606	0.069078	-3.963420	-0.317707	0.387246	-1.017693	-0.690186	-0.602539	-0.136719	0.566380	0.132322	-0.811292	-0.059253
52554		9.845516	0.038895	-4.096436	-0.277992	0.434852	-1.156176	-0.675537	-0.617920	-0.148438	0.569028	0.139057	-0.807772	-0.066147
52555		9.985031	0.930007	-4.195206	-0.259713	0.474646	-1.236640	-0.657959	-0.633789	-0.152832	0.571810	0.146419	-0.803885	-0.073238
52556		9.736429	1.490668	-4.170258	-0.383605	0.505862	-1.286181	-0.640869	-0.635498	-0.162109	0.574842	0.153519	-0.799607	-0.081340
52557		9.828934	0.720687	-4.160030	-0.552618	0.538848	-1.335121	-0.626953	-0.650635	-0.174561	0.578188	0.160131	-0.794873	-0.090742
52558		10.365502	-0.067607	-4.165261	-0.549454	0.589933	-1.472754	-0.606934	-0.663574	-0.187744	0.581657	0.167674	-0.789570	-0.100694
52559		11.156760	-0.720231	-4.322195	-0.512757	0.626158	-1.637053	-0.592529	-0.674072	-0.199463	0.585050	0.176463	-0.783728	-0.111118
52560		11.621354	-1.202957	-4.150336	-0.547750	0.639372	-1.768337	-0.572021	-0.683350	-0.207764	0.588313	0.185898	-0.777407	-0.122349
52561		12.061542	-1.449523	-4.314227	-0.629129	0.651039	-1.984875	-0.538574	-0.699707	-0.222656	0.591382	0.196281	-0.770383	-0.135098
52562		12.842549	-2.386420	-5.045259	-0.705793	0.609852	-2.096274	-0.513672	-0.717285	-0.228271	0.593981	0.206874	-0.763034	-0.148891
52563		12.782716	-1.504503	-4.565136	-0.879892	0.560604	-2.206738	-0.489258	-0.729004	-0.252441	0.596200	0.217151	-0.755236	-0.164344
52564		12.514636	-0.797405	-5.243808	-1.327746	0.449425	-2.206671	-0.461426	-0.734375	-0.256836	0.598268	0.224940	-0.747054	-0.182723
52565		12.329355	-1.357441	-5.543989	-1.819091	0.268757	-2.056618	-0.436279	-0.733154	-0.275879	0.600060	0.228945	-0.738947	-0.203640
52566		12.625504	-0.224262	-5.162402	-1.932141	0.091699	-2.138678	-0.417480	-0.732422	-0.304688	0.600507	0.232452	-0.730986	-0.225869
52567		11.517449	4.316046	-5.320407	-1.750919	0.062044	-2.376898	-0.384521	-0.748291	-0.315918	0.599621	0.238113	-0.722639	-0.248091
52568		10.624219	5.438716	-4.407665	-1.752714	-0.035275	-2.400466	-0.355713	-0.750244	-0.331299	0.597738	0.243560	-0.714305	-0.270474
52569		9.722824	5.068458	-3.165254	-1.875256	-0.132890	-2.033534	-0.328857	-0.745117	-0.346924	0.596007	0.245855	-0.706531	-0.291796
52570		8.247941	5.326100	-2.544737	-1.798719	-0.023668	-1.567599	-0.316406	-0.749756	-0.362305	0.595621	0.245937	-0.699040	-0.309990
52571		5.155676	7.722347	-1.994152	-1.312118	-0.106182	-1.401873	-0.301270	-0.738525	-0.365234	0.593992	0.247176	-0.693338	-0.324593
52572		3.437993	8.298362	-2.804474	-0.981742	-0.406834	-0.765553	-0.293701	-0.737061	-0.376953	0.591552	0.245523	-0.691202	-0.334700
52573		5.375734	2.577720	-2.856943	-0.898734	-0.359848	0.163667	-0.294434	-0.735107	-0.388672	0.591743	0.239048	-0.690906	-0.339626
52574		5.303608	0.991582	-0.341510	-0.752314	-0.128350	0.593660	-0.310059	-0.732910	-0.391113	0.594148	0.231456	-0.690701	-0.341098
52575		4.949941	2.060921	0.993479	-0.263061	-0.085555	0.969539	-0.320557	-0.717529	-0.382324	0.596885	0.224221	-0.692355	-0.337785
52576		4.031935	3.411507	0.410274	0.272391	-0.284903	1.231095	-0.341553	-0.717773	-0.371826	0.598152	0.217550	-0.696928	-0.330421
52577		3.539240	4.494881	-0.016188	0.864120	-0.445214	1.565720	-0.362305	-0.726318	-0.356201	0.598230	0.211403	-0.704406	-0.318185
52578		4.060696	4.490499	-0.094529	1.112301	-0.612233	2.119139	-0.392090	-0.730469	-0.337402	0.598156	0.202731	-0.714109	-0.301925
52579		5.092566	3.962185	-0.274718	1.272401	-0.665563	2.539227	-0.419434	-0.709229	-0.308594	0.598242	0.192119	-0.724817	-0.282555
52580		6.019258	3.705725	-0.043537	1.453839	-0.672815	2.842441	-0.460693	-0.702393	-0.290771	0.598304	0.180432	-0.735981	-0.260400
52581		6.573216	4.725298	-0.470914	1.696494	-0.684878	3.058885	-0.491943	-0.691162	-0.262451	0.597908	0.168450	-0.747448	-0.235484
52582		6.878736	5.410621	-0.702449	1.748276	-0.620289	3.345419	-0.535400	-0.677246	-0.239502	0.597830	0.154904	-0.758373	-0.208505
52583		7.376588	4.782380	-0.628791	1.670830	-0.637732	3.643658	-0.576416	-0.662598	-0.214111	0.597608	0.138889	-0.768802	-0.180328
52584		8.028264	4.459340	-1.102410	1.696805	-0.698927	3.851368	-0.625732	-0.631104	-0.181641	0.596550	0.121412	-0.778873	-0.150808
52585		8.758594	3.913977	-1.584894	1.795963	-0.728285	4.006089	-0.658691	-0.588623	-0.155518	0.594603	0.103226	-0.788328	-0.119709
52586		9.672671	2.536742	-1.433768	2.142892	-0.782128	4.101868	-0.699219	-0.561768	-0.127441	0.591229	0.085924	-0.797317	-0.085732
52587		10.854864	2.046863	-1.787552	2.861697	-0.805005	3.993000	-0.726807	-0.534668	-0.088867	0.586147	0.072727	-0.805541	-0.047394
52588		11.665210	5.264418	-2.860026	2.940381	-0.802738	3.938149	-0.765625	-0.482178	-0.059814	0.579999	0.060155	-0.812346	-0.008714
52589		11.662621	6.252685	-3.551686	2.345354	-0.660562	4.093828	-0.797852	-0.441406	-0.028320	0.574163	0.043571	-0.817142	0.026767
52590		11.465144	3.847618	-2.797582	1.817012	-0.556764	4.148583	-0.821045	-0.389648	-0.004150	0.568342	0.024010	-0.820331	0.058896
52591		11.351424	1.693942	-3.272713	1.620601	-0.678040	4.051104	-0.846191	-0.335205	0.003662	0.560981	0.004218	-0.823009	0.089103
52592		11.628222	1.406721	-3.657324	1.656881	-0.727683	3.771693	-0.849365	-0.286621	0.022949	0.552762	-0.013452	-0.824814	0.118128
52593		11.720717	1.946927	-3.670427	1.707314	-0.754649	3.385079	-0.858887	-0.245850	0.037598	0.544121	-0.028184	-0.825799	0.145580
52594		11.572405	2.098023	-3.447882	1.630280	-0.696949	2.937498	-0.882568	-0.199951	0.062500	0.535898	-0.040219	-0.825948	0.170312
52595		11.164030	3.024394	-3.437055	1.333288	-0.613499	2.438861	-0.879395	-0.168945	0.074219	0.528490	-0.050230	-0.825737	0.190614
52596		10.188097	3.588984	-3.964879	0.771346	-0.434467	1.835927	-0.889404	-0.142334	0.081787	0.522816	-0.058816	-0.825529	0.204221
52597		9.232670	2.463116	-3.919841	0.091658	-0.294560	1.059799	-0.882324	-0.128418	0.085449	0.518999	-0.065238	-0.826095	0.209646
52598		8.802431	0.653575	-4.119903	-0.391267	-0.224594	0.190128	-0.882324	-0.125000	0.084473	0.516896	-0.067868	-0.827635	0.207922
52599		8.559943	0.689094	-3.978148	-0.488906	-0.118062	-0.710146	-0.878906	-0.133301	0.089111	0.517018	-0.064884	-0.829369	0.201568
52600		8.487690	2.591212	-3.497112	-0.357710	-0.057030	-1.507241	-0.874268	-0.153809	0.088379	0.518916	-0.055913	-0.830962	0.192621
52601		8.865344	1.168122	-5.472562	-0.283408	-0.167875	-1.998498	-0.865967	-0.180176	0.093994	0.520755	-0.043018	-0.832958	0.182058
52602		8.808564	-8.763548	-4.864140	-0.273426	-0.046192	-1.191684	-0.875244	-0.189941	0.095215	0.522116	-0.035846	-0.833963	0.174975
52603		9.490946	-9.652054	-1.403606	-0.286466	-0.084763	-0.769980	-0.867432	-0.208008	0.085205	0.522545	-0.031612	-0.834965	0.169647
52604		13.584204	-6.518844	-0.895666	-0.291166	-0.199951	-1.198255	-0.870850	-0.221191	0.088623	0.522742	-0.024267	-0.836517	0.162453
52605		12.367571	-3.576956	-0.758560	-0.049254	0.248390	-1.495358	-0.862793	-0.243652	0.087646	0.526457	-0.014409	-0.835729	0.155542
52606		11.192526	-1.260806	-2.188250	1.103311	-0.207321	-1.983913	-0.849365	-0.274170	0.096436	0.527644	0.004496	-0.835280	0.154527
52607		10.817529	0.886330	-3.912707	0.857310	-0.222954	-2.183227	-0.839600	-0.300781	0.099609	0.528799	0.023725	-0.834896	0.150859
52608		8.010537	-0.449016	-5.781182	1.105016	-0.134291	-2.342319	-0.833984	-0.325439	0.101318	0.530498	0.045036	-0.833423	0.148155
52609		5.579228	1.681159	-4.745018	0.794111	-0.727274	-2.156686	-0.823730	-0.354248	0.113281	0.527731	0.064400	-0.834667	0.143822
52610		9.326193	7.338660	-6.285369	-0.330403	-0.258493	-1.513886	-0.815918	-0.368408	0.111816	0.527899	0.073776	-0.835306	0.134696
52611		10.077770	8.192849	-3.720584	-1.549001	0.032723	-1.077217	-0.804443	-0.398438	0.108154	0.530243	0.074424	-0.836128	0.119138
52612		10.100704	2.645715	-2.020227	-2.107676	0.022358	-0.586933	-0.805664	-0.404297	0.089355	0.532225	0.069193	-0.837608	0.101791
52613		10.321216	-2.785396	-2.218685	-1.334763	-0.162984	-0.669893	-0.804932	-0.417725	0.084717	0.532418	0.068107	-0.838995	0.089330
52614		9.110293	-2.752469	-3.314347	-0.081054	-0.221361	-1.053484	-0.798096	-0.424316	0.083984	0.531718	0.075294	-0.839386	0.083892
52615		8.999620	0.972726	-4.487245	0.462485	-0.232924	-1.159050	-0.786865	-0.436768	0.076172	0.530618	0.085619	-0.839301	0.081777
52616		9.442646	4.124170	-4.871096	0.156591	-0.139268	-0.925407	-0.794678	-0.444336	0.087646	0.530193	0.092872	-0.839102	0.078599
52617		9.135955	4.164289	-4.906398	-0.662214	-0.103591	-0.553154	-0.788086	-0.457764	0.083740	0.530365	0.093895	-0.839525	0.071373
52618		9.026597	2.151117	-5.109734	-1.061652	-0.076824	-0.334781	-0.785400	-0.459717	0.069580	0.530871	0.091620	-0.840178	0.062317
52619		8.846994	-0.227437	-4.585137	-0.957779	-0.052737	-0.268697	-0.782715	-0.473145	0.054443	0.531402	0.089293	-0.840650	0.054276
52620		8.954136	-1.188274	-4.275820	-0.494445	-0.058147	-0.384224	-0.784912	-0.478027	0.062012	0.531590	0.089812	-0.840804	0.048932
52621		9.220396	0.286379	-4.353525	-0.227067	-0.066630	-0.489639	-0.770508	-0.486328	0.051025	0.531516	0.092305	-0.840798	0.045042
52622		8.974251	2.103307	-4.580817	-0.466372	-0.031601	-0.366628	-0.772461	-0.481445	0.048828	0.531839	0.092823	-0.840792	0.039998
52623		8.791143	1.556290	-4.829704	-0.856015	-0.009361	-0.224151	-0.774170	-0.482666	0.037109	0.532543	0.090579	-0.840899	0.032901
52624		8.830007	-0.626185	-4.789670	-0.918079	-0.002246	-0.174921	-0.776611	-0.494629	0.028809	0.533315	0.087654	-0.840974	0.025565
52625		9.007431	-1.327375	-4.271574	-0.662409	0.025361	-0.289984	-0.774902	-0.501221	0.011230	0.534091	0.086671	-0.840746	0.019504
52626		8.740574	-0.552368	-3.929259	-0.503272	0.023115	-0.375302	-0.772705	-0.497559	0.001221	0.534752	0.086928	-0.840407	0.014133
52627		8.796121	0.200043	-4.359322	-0.417385	0.057050	-0.446159	-0.767090	-0.512207	-0.003662	0.535547	0.088148	-0.839843	0.009157
52628		8.572392	0.909651	-4.154584	-0.384330	0.068383	-0.465865	-0.762939	-0.514893	-0.005127	0.536367	0.089704	-0.839193	0.004358
52629		8.568821	0.729597	-4.203454	-0.367803	0.072201	-0.449666	-0.773193	-0.516113	-0.016113	0.537185	0.091224	-0.838517	-0.000241
52630		8.982901	0.636718	-4.239799	-0.264977	0.075155	-0.501898	-0.760498	-0.523926	-0.022461	0.537932	0.093563	-0.837768	-0.004354
52631		9.293222	1.022920	-4.081526	-0.219664	0.082448	-0.513765	-0.763184	-0.524658	-0.031982	0.538682	0.096187	-0.836960	-0.008196
52632		9.348804	1.316316	-3.749872	-0.231333	0.096169	-0.511080	-0.758545	-0.538574	-0.032471	0.539524	0.098738	-0.836073	-0.012094
52633		9.154100	1.136489	-3.950886	-0.269521	0.098903	-0.512211	-0.754883	-0.543213	-0.049072	0.540404	0.101122	-0.835149	-0.016261
52634		9.066501	1.024610	-4.163092	-0.285316	0.115461	-0.514911	-0.746582	-0.547363	-0.044922	0.541400	0.103452	-0.834124	-0.020535
52635		9.074095	1.008889	-4.268542	-0.325918	0.137381	-0.534749	-0.738037	-0.553955	-0.057617	0.542563	0.105736	-0.832954	-0.025159
52636		9.039865	0.755095	-4.257556	-0.374365	0.160598	-0.548381	-0.736328	-0.551758	-0.065430	0.543911	0.107897	-0.831631	-0.030158
52637		9.149548	0.463012	-3.992020	-0.412960	0.174041	-0.595795	-0.732422	-0.561035	-0.078125	0.545354	0.110208	-0.830165	-0.035624
52638		9.194929	-0.139683	-3.934011	-0.398369	0.190182	-0.659256	-0.729492	-0.573242	-0.079590	0.546853	0.113023	-0.828538	-0.041257
52639		9.269749	0.236791	-3.956546	-0.346562	0.202936	-0.759917	-0.724854	-0.581543	-0.089600	0.548330	0.116763	-0.826737	-0.046972
52640		9.191686	0.293026	-4.269310	-0.286102	0.258257	-0.853176	-0.714111	-0.582764	-0.097412	0.550062	0.121434	-0.824569	-0.052636
52641		8.941351	0.330832	-4.543703	-0.207060	0.301478	-0.941644	-0.696533	-0.589111	-0.102051	0.551934	0.127083	-0.822096	-0.058110
52642		9.220338	1.120724	-4.441100	-0.226871	0.323953	-1.023672	-0.694824	-0.605469	-0.120605	0.553897	0.133201	-0.819360	-0.064064
52643		9.526145	0.963922	-4.252924	-0.236852	0.368220	-1.070484	-0.674072	-0.610596	-0.129639	0.556097	0.139603	-0.816292	-0.070244
52644		9.650854	1.003193	-4.254290	-0.146997	0.407716	-1.150034	-0.667725	-0.627197	-0.131348	0.558358	0.146969	-0.812922	-0.076124
52645		9.410591	1.245662	-4.050418	-0.136587	0.428025	-1.204917	-0.650391	-0.637939	-0.133789	0.560646	0.154748	-0.809308	-0.082151
52646		9.206980	1.842129	-4.010378	-0.222219	0.425382	-1.270833	-0.644775	-0.655762	-0.145020	0.562913	0.162549	-0.805467	-0.089052
52647		9.277736	1.871916	-4.168170	-0.360001	0.407826	-1.307624	-0.626709	-0.658203	-0.146484	0.565145	0.169914	-0.801449	-0.097060
52648		10.091296	1.659816	-4.429898	-0.460890	0.428240	-1.360836	-0.611816	-0.670166	-0.164307	0.567528	0.177148	-0.797061	-0.105944
52649		10.861683	0.673753	-4.529676	-0.565424	0.452721	-1.393412	-0.602295	-0.679443	-0.175049	0.570104	0.184094	-0.792290	-0.115618
52650		11.140347	-0.251741	-3.992981	-0.684474	0.468931	-1.463459	-0.583252	-0.692383	-0.192383	0.572798	0.190912	-0.787077	-0.126356
52651		11.144741	-1.185258	-4.409010	-0.793021	0.488016	-1.665439	-0.561035	-0.702637	-0.207275	0.575448	0.198506	-0.781164	-0.138701
52652		11.745772	-2.737219	-4.853503	-0.858754	0.493406	-1.842974	-0.530518	-0.710205	-0.205811	0.577877	0.206882	-0.774644	-0.152266
52653		12.488040	-1.670925	-4.229875	-1.205239	0.458058	-1.933559	-0.507568	-0.723145	-0.226318	0.580365	0.214047	-0.767444	-0.168495
52654		12.851404	-0.929136	-4.362838	-1.710684	0.379537	-1.960873	-0.481689	-0.736328	-0.245117	0.582967	0.218728	-0.759546	-0.188142
52655		12.957759	-0.303133	-5.280727	-1.991362	0.271746	-1.914298	-0.459229	-0.738037	-0.261475	0.585177	0.221459	-0.751441	-0.209426
52656		13.497798	-1.793704	-5.111681	-1.952649	0.064335	-2.035129	-0.435791	-0.743896	-0.289307	0.585489	0.224643	-0.743797	-0.231311
52657		11.334646	-0.515816	-5.918293	-1.388919	-0.038831	-2.427971	-0.398926	-0.749512	-0.298584	0.583030	0.232677	-0.736614	-0.251667
52658		10.541378	3.817516	-4.551912	-0.855257	-0.123756	-2.754169	-0.368896	-0.761475	-0.307129	0.578006	0.244992	-0.729934	-0.270340
52659		9.437064	5.338480	-4.046556	-0.729626	-0.291434	-2.558613	-0.349121	-0.769775	-0.301270	0.571839	0.256212	-0.724363	-0.287497
52660		8.134295	5.273159	-3.388748	-0.728659	-0.231108	-2.109299	-0.321289	-0.768555	-0.311768	0.566870	0.264762	-0.719169	-0.302250
52661		6.610664	7.408493	-2.235750	-0.674479	0.020171	-1.586528	-0.297119	-0.767822	-0.308838	0.564449	0.270996	-0.713886	-0.313569
52662		4.132547	10.952629	-1.450507	-0.768563	0.024214	-1.096332	-0.283447	-0.774902	-0.321777	0.563454	0.273840	-0.709331	-0.323081
52663		4.418766	7.182650	-3.380629	-0.918532	-0.291321	-0.241492	-0.281738	-0.774902	-0.322754	0.563180	0.270060	-0.707734	-0.330164
52664		5.102489	2.676433	-2.137794	-1.058249	0.117625	0.524900	-0.296875	-0.764160	-0.340576	0.567689	0.262214	-0.705503	-0.333525
52665		4.341148	2.968448	0.411025	-0.819895	0.432316	1.041870	-0.302246	-0.755127	-0.348877	0.574895	0.253296	-0.703496	-0.332310
52666		4.562342	3.729424	0.742691	-0.510572	0.410985	1.406161	-0.306641	-0.747070	-0.347168	0.582245	0.243620	-0.703109	-0.327534
52667		3.833618	3.744647	0.147476	0.129542	0.178800	1.576646	-0.329590	-0.743408	-0.343750	0.587299	0.235370	-0.705816	-0.318597
52668		3.797861	3.922102	-0.233205	0.778508	-0.117831	1.920070	-0.364258	-0.744629	-0.326660	0.590106	0.227429	-0.712199	-0.304670
52669		4.761071	3.834530	-0.742422	1.113749	-0.236198	2.299372	-0.385498	-0.732178	-0.308105	0.592312	0.218497	-0.720457	-0.286997
52670		5.655981	4.260957	-0.498178	1.259232	-0.297872	2.623708	-0.412842	-0.730713	-0.286133	0.594343	0.208072	-0.729572	-0.266810
52671		6.347032	5.061709	-0.938804	1.472210	-0.337845	2.849082	-0.454834	-0.719727	-0.267578	0.595868	0.197103	-0.739259	-0.244105
52672		6.640859	5.764588	-2.020922	1.662150	-0.278194	3.081400	-0.484863	-0.707275	-0.250244	0.597448	0.185609	-0.748825	-0.218784
52673		7.061587	5.366197	-2.278771	1.631240	-0.200695	3.381190	-0.523682	-0.695068	-0.220703	0.599550	0.172063	-0.757714	-0.191843
52674		7.760530	4.949404	-2.656533	1.603764	-0.239370	3.584139	-0.558105	-0.677002	-0.201660	0.601149	0.156861	-0.766254	-0.163920
52675		8.353907	4.654427	-3.059258	1.625025	-0.331204	3.679061	-0.606201	-0.648682	-0.177979	0.601593	0.140861	-0.774552	-0.135324
52676		8.964594	3.546310	-3.253951	1.786772	-0.495488	3.757722	-0.642578	-0.616699	-0.144043	0.600162	0.124816	-0.783028	-0.105323
52677		9.557241	2.572125	-3.216848	2.284299	-0.604723	3.681855	-0.675781	-0.578857	-0.118408	0.596663	0.111499	-0.791401	-0.072434
52678		9.994357	4.180696	-3.555583	2.522926	-0.720694	3.613286	-0.705566	-0.554932	-0.075439	0.591321	0.099598	-0.799345	-0.038321
52679		10.276818	5.859574	-4.255715	2.399017	-0.757247	3.629182	-0.740479	-0.516357	-0.049561	0.585027	0.086837	-0.806336	-0.004935
52680		10.207023	5.357838	-4.019740	2.052177	-0.695545	3.735508	-0.767090	-0.475098	-0.026855	0.578622	0.071567	-0.812011	0.026684
52681		9.992174	4.950492	-4.222957	1.650184	-0.719517	3.832268	-0.800293	-0.432861	-0.005127	0.571533	0.053627	-0.816909	0.055992
52682		10.126486	3.596079	-4.515749	1.170869	-0.744727	3.893181	-0.818115	-0.391846	0.012695	0.563756	0.032945	-0.821176	0.082239
52683		10.392077	3.044983	-4.507440	0.780531	-0.815952	3.838427	-0.837646	-0.326904	0.034180	0.554983	0.010824	-0.825082	0.105435
52684		10.476446	1.993275	-4.497981	0.615103	-0.889596	3.697479	-0.853027	-0.281738	0.051758	0.545244	-0.011033	-0.828572	0.126713
52685		10.490991	1.045171	-4.083229	0.537249	-0.888525	3.495348	-0.872070	-0.239014	0.062500	0.535181	-0.031831	-0.831345	0.146402
52686		10.291652	0.840382	-3.280392	0.404534	-0.850063	3.196293	-0.884277	-0.194092	0.066406	0.525260	-0.051164	-0.833479	0.163696
52687		10.056991	0.836670	-3.289624	0.185523	-0.829976	2.808474	-0.874268	-0.158691	0.082520	0.515555	-0.068749	-0.835416	0.177640
52688		9.967543	0.339192	-3.121374	-0.005244	-0.703855	2.281774	-0.875977	-0.123047	0.089844	0.507145	-0.083634	-0.836978	0.187824
52689		9.587280	0.194364	-3.298887	-0.127285	-0.532869	1.574003	-0.887695	-0.094727	0.103760	0.500804	-0.094337	-0.838252	0.193982
52690		9.083471	-0.120898	-3.267981	-0.453959	-0.347954	0.719036	-0.885986	-0.091553	0.102783	0.496821	-0.100713	-0.839849	0.194111
52691		8.911895	-0.894758	-3.602146	-0.639292	-0.279514	-0.184920	-0.892822	-0.094238	0.112061	0.494604	-0.101630	-0.842181	0.189125
52692		8.798292	-0.770122	-3.236903	-0.353033	-0.181961	-1.016417	-0.881592	-0.094238	0.115479	0.494600	-0.095676	-0.844314	0.182621
52693		8.500500	0.024529	-2.803339	0.135592	-0.126248	-1.797847	-0.876953	-0.128662	0.108887	0.496493	-0.082276	-0.845966	0.176255
52694		8.063521	0.648001	-3.618085	0.559460	-0.186184	-2.428429	-0.874512	-0.153320	0.117188	0.499021	-0.062559	-0.847397	0.170244
52695		9.048065	-10.695593	-6.210737	1.000265	-0.244237	-1.775825	-0.865234	-0.175537	0.119385	0.500264	-0.045507	-0.847796	0.170020
52696		7.345018	-11.819857	-2.724759	1.722166	-0.117270	-1.276650	-0.870361	-0.197021	0.126709	0.501812	-0.029147	-0.846195	0.176890
52697		9.841502	-2.716224	-4.982724	1.752144	-0.799289	-1.897583	-0.861816	-0.212891	0.131348	0.499265	-0.007280	-0.847199	0.181483
52698		15.599114	0.539931	0.040236	0.251410	0.414571	-1.569744	-0.860352	-0.231445	0.139404	0.504528	0.004197	-0.845109	0.176706
52699		13.227817	0.030163	1.235180	-0.195459	0.245547	-1.308814	-0.852051	-0.260254	0.133301	0.508172	0.012203	-0.844256	0.169833
52700		11.677886	-3.113050	-3.940777	0.083514	-0.204258	-1.700106	-0.850586	-0.275391	0.140869	0.509111	0.024773	-0.844727	0.163181
52701		9.002584	-3.025057	-6.432909	0.906630	-0.189713	-2.383917	-0.836426	-0.305176	0.137451	0.510748	0.045616	-0.843598	0.159369
52702		6.430245	1.704201	-4.944325	1.151766	-0.432224	-2.481461	-0.816406	-0.329346	0.147705	0.510459	0.068489	-0.842726	0.156695
52703		7.579930	7.448023	-6.679235	0.175482	-0.316413	-1.755150	-0.818604	-0.352051	0.153564	0.510396	0.081940	-0.842737	0.150254
52704		8.554949	8.090076	-5.145714	-1.221766	-0.059100	-1.203656	-0.811279	-0.377930	0.143555	0.512292	0.085250	-0.843602	0.136472
52705		10.138282	2.892638	-4.609176	-2.078726	-0.057802	-0.704748	-0.811523	-0.374512	0.135498	0.514102	0.081384	-0.845563	0.118740
52706		10.481664	-0.951263	-2.035852	-1.726281	0.156652	-0.628407	-0.806152	-0.402100	0.111572	0.516963	0.078253	-0.846064	0.103928
52707		9.465118	-1.729358	-1.486462	-0.658478	-0.096611	-0.950202	-0.801270	-0.410400	0.109619	0.517550	0.082194	-0.846375	0.095058
52708		8.752959	-1.008838	-3.163242	0.184490	-0.256507	-1.101564	-0.792480	-0.417236	0.119141	0.516504	0.090945	-0.846525	0.091370
52709		8.796335	1.194540	-5.859610	0.338885	-0.208723	-1.042437	-0.785889	-0.426270	0.115967	0.515580	0.099906	-0.846323	0.089071
52710		8.710086	3.025206	-5.755623	-0.119973	-0.039100	-0.800011	-0.793213	-0.443848	0.109131	0.516036	0.105010	-0.845877	0.084684
52711		8.691943	2.612351	-5.863709	-0.601879	0.058197	-0.582337	-0.779297	-0.455811	0.109375	0.517438	0.106390	-0.845503	0.077874
52712		8.627721	1.138086	-4.973802	-0.765623	0.116382	-0.406673	-0.776855	-0.457275	0.091797	0.519223	0.105873	-0.845100	0.070743
52713		9.213396	-0.666516	-3.935878	-0.573369	0.075442	-0.392817	-0.781494	-0.463867	0.088135	0.520549	0.106025	-0.844730	0.064944
52714		9.005246	-0.859778	-3.676250	-0.167965	0.032946	-0.532221	-0.778809	-0.471680	0.089844	0.521274	0.108927	-0.844182	0.061363
52715		9.029973	0.920940	-4.011382	-0.004948	0.017991	-0.556593	-0.780518	-0.479492	0.085938	0.521732	0.112751	-0.843577	0.058836
52716		8.720444	1.379539	-4.648301	-0.160019	0.045348	-0.457444	-0.766357	-0.479492	0.079102	0.522485	0.115128	-0.843006	0.055639
52717		8.534850	0.769230	-5.084295	-0.330145	0.039789	-0.382057	-0.769287	-0.493164	0.070801	0.523313	0.116277	-0.842593	0.051585
52718		9.003652	0.385746	-4.425298	-0.452854	0.019254	-0.348342	-0.776123	-0.496582	0.068848	0.524099	0.116603	-0.842341	0.046739
52719		9.084897	-0.983404	-4.200556	-0.350321	-0.015848	-0.378198	-0.772705	-0.503418	0.064697	0.524515	0.117671	-0.842158	0.042513
52720		8.706427	-0.512015	-4.054529	-0.119697	0.008431	-0.477687	-0.761230	-0.509277	0.053955	0.524890	0.120483	-0.841672	0.039520
52721		8.800869	0.834681	-4.140127	-0.128703	0.017507	-0.524016	-0.758301	-0.516846	0.045166	0.525343	0.123578	-0.841087	0.036273
52722		8.609761	0.824476	-4.503688	-0.303556	0.027922	-0.447401	-0.760010	-0.524658	0.043945	0.526012	0.125371	-0.840571	0.032152
52723		8.665065	0.371916	-4.632845	-0.312131	0.051334	-0.478489	-0.751465	-0.523193	0.035400	0.526849	0.127340	-0.839904	0.027862
52724		8.926448	0.984284	-4.111791	-0.229792	0.065204	-0.484215	-0.754150	-0.536865	0.030762	0.527685	0.129702	-0.839133	0.024139
52725		9.121730	1.666233	-3.850021	-0.244346	0.057508	-0.478987	-0.751709	-0.541504	0.029297	0.528470	0.131964	-0.838386	0.020329
52726		9.110202	1.592349	-4.106246	-0.324388	0.047753	-0.432711	-0.749756	-0.548096	0.013428	0.529258	0.133548	-0.837729	0.016151
52727		9.010579	1.281310	-4.045370	-0.374176	0.052090	-0.401393	-0.747559	-0.558105	0.011963	0.530116	0.134689	-0.837077	0.011767
52728		8.805194	0.851539	-4.235608	-0.394132	0.061367	-0.417653	-0.736084	-0.561523	0.005859	0.531051	0.135852	-0.836348	0.007183
52729		8.837510	0.622004	-4.481935	-0.382698	0.056629	-0.443496	-0.740723	-0.561768	-0.001465	0.531929	0.137240	-0.835589	0.002561
52730		8.954637	0.411624	-4.588492	-0.378079	0.064835	-0.498426	-0.737061	-0.560791	-0.005615	0.532846	0.139027	-0.834711	-0.002262
52731		8.927573	0.303404	-4.583668	-0.416130	0.086910	-0.534540	-0.722656	-0.572021	-0.020020	0.533942	0.140892	-0.833667	-0.007481
52732		8.937646	0.311704	-4.637284	-0.479227	0.124672	-0.600063	-0.722412	-0.586182	-0.023193	0.535349	0.142926	-0.832343	-0.013381
52733		9.256264	0.766492	-4.330716	-0.469319	0.149034	-0.663405	-0.721924	-0.585693	-0.036621	0.536881	0.145438	-0.830800	-0.019463
52734		9.266605	0.739858	-4.474589	-0.506351	0.164017	-0.670079	-0.714355	-0.594727	-0.050049	0.538533	0.147824	-0.829134	-0.025809
52735		9.813915	0.004775	-4.247863	-0.327229	0.234427	-0.786586	-0.705811	-0.603271	-0.050049	0.540398	0.151824	-0.827005	-0.031349
52736		9.479123	-0.039369	-4.264310	-0.239541	0.254808	-0.885255	-0.688232	-0.619385	-0.051758	0.542233	0.156892	-0.824634	-0.036696
52737		9.596849	0.751093	-4.285401	-0.245230	0.271662	-0.971464	-0.684082	-0.621094	-0.058350	0.544128	0.162518	-0.822017	-0.042444
52738		9.546888	1.117797	-4.374831	-0.332217	0.326527	-1.000198	-0.681152	-0.627930	-0.081299	0.546462	0.167949	-0.819016	-0.048836
52739		9.235354	1.227510	-4.314144	-0.362595	0.329740	-1.048073	-0.668213	-0.640625	-0.081787	0.548792	0.173554	-0.815850	-0.055641
52740		9.300449	1.880134	-4.130692	-0.414576	0.302731	-1.105614	-0.655762	-0.651367	-0.090088	0.550931	0.179280	-0.812621	-0.063093
52741		9.381565	1.896019	-4.168320	-0.509246	0.299409	-1.133063	-0.645996	-0.655762	-0.099121	0.553115	0.184735	-0.809229	-0.071309
52742		9.613052	1.674370	-4.078300	-0.547164	0.311099	-1.191251	-0.631348	-0.677490	-0.112061	0.555334	0.190390	-0.805576	-0.080018
52743		10.076438	1.466062	-4.608795	-0.618024	0.327091	-1.241009	-0.616455	-0.679443	-0.125488	0.557665	0.196034	-0.801616	-0.089394
52744		10.650501	1.182575	-4.431242	-0.711881	0.376148	-1.314851	-0.604980	-0.698730	-0.138916	0.560336	0.201739	-0.797118	-0.099641
52745		10.562884	0.185225	-4.312403	-0.886097	0.388450	-1.345142	-0.581299	-0.701172	-0.157227	0.563256	0.206801	-0.792227	-0.111143
52746		10.875839	-0.778189	-4.256184	-0.922807	0.436130	-1.470324	-0.569336	-0.711670	-0.157471	0.566322	0.212513	-0.786702	-0.123361
52747		11.633475	-1.778272	-4.583759	-1.016371	0.473309	-1.692977	-0.545898	-0.720459	-0.174805	0.569424	0.219220	-0.780315	-0.137136
52748		11.886605	-1.815845	-4.220620	-1.339251	0.477813	-1.765084	-0.525635	-0.727539	-0.192627	0.572881	0.224789	-0.773163	-0.153288
52749		11.985434	-2.309671	-4.339169	-1.631172	0.420022	-1.869928	-0.500244	-0.739746	-0.217773	0.576150	0.229465	-0.765417	-0.171855
52750		12.219135	-1.385710	-4.663918	-1.746201	0.305282	-2.007177	-0.473389	-0.750732	-0.233887	0.578443	0.234182	-0.757445	-0.191939
52751		12.720471	0.387834	-5.194885	-1.808197	0.118457	-2.175770	-0.450439	-0.754150	-0.257812	0.579103	0.239231	-0.749557	-0.213478
52752		12.215151	-1.745230	-6.050032	-1.578775	-0.090378	-2.241397	-0.414062	-0.757568	-0.276123	0.577574	0.245290	-0.742561	-0.234189
52753		10.775365	2.069460	-5.568139	-0.919300	-0.133167	-2.611483	-0.377441	-0.767578	-0.276855	0.573406	0.256591	-0.735925	-0.252548
52754		10.279935	4.373474	-4.247379	-0.671937	-0.251266	-2.636608	-0.353516	-0.779053	-0.284424	0.567633	0.268845	-0.729946	-0.269619
52755		8.982532	5.480225	-3.962176	-0.720302	-0.297500	-2.322371	-0.329590	-0.782959	-0.285645	0.562131	0.278728	-0.724449	-0.285469
52756		8.168549	6.714352	-3.332141	-0.871054	-0.073021	-1.786932	-0.309326	-0.780273	-0.292236	0.559416	0.285112	-0.718544	-0.299097
52757		5.675888	9.441182	-2.343822	-1.175636	0.085786	-1.239633	-0.290039	-0.790283	-0.305908	0.559607	0.287128	-0.712275	-0.311548
52758		4.234295	7.442583	-4.027447	-1.335153	-0.166272	-0.490746	-0.290283	-0.782959	-0.314941	0.560530	0.283256	-0.708438	-0.322006
52759		5.484835	3.375373	-3.053820	-1.575681	0.029374	0.372349	-0.281494	-0.771240	-0.330811	0.565395	0.273652	-0.704967	-0.329339
52760		5.340361	2.574467	-0.039754	-1.462730	0.471392	0.972694	-0.301025	-0.764404	-0.342529	0.574126	0.262210	-0.700953	-0.332100
52761		4.634259	2.521058	1.532814	-1.052773	0.480974	1.399648	-0.307129	-0.743164	-0.361816	0.583066	0.250192	-0.698800	-0.330328
52762		4.039090	2.602271	0.218975	-0.154597	0.071719	1.580381	-0.327148	-0.740723	-0.352539	0.588129	0.240299	-0.701340	-0.323237
52763		4.602120	3.325209	-0.232324	0.620686	-0.191480	1.816679	-0.356934	-0.736328	-0.332764	0.590608	0.232059	-0.707575	-0.310914
52764		5.620545	4.254297	-0.320866	1.054628	-0.282601	2.127870	-0.383057	-0.737793	-0.317627	0.592321	0.223804	-0.715747	-0.294574
52765		6.443823	4.295098	-0.372269	1.392561	-0.343920	2.453512	-0.410400	-0.726318	-0.300537	0.593552	0.215013	-0.725307	-0.274583
52766		6.956396	3.860769	-0.494407	1.615252	-0.332479	2.749707	-0.450439	-0.721191	-0.280029	0.594749	0.205418	-0.735379	-0.251584
52767		7.628884	5.161950	-0.818699	1.705753	-0.317153	3.027489	-0.487061	-0.717529	-0.257080	0.596003	0.194437	-0.745457	-0.226428
52768		7.886901	6.389442	-1.327479	1.527539	-0.300457	3.308709	-0.522949	-0.704102	-0.223633	0.597647	0.180679	-0.754898	-0.200755
52769		7.935932	5.871503	-1.768972	1.273220	-0.302890	3.614560	-0.555664	-0.681396	-0.204590	0.599581	0.163550	-0.763636	-0.174966
52770		8.331015	4.524411	-1.519099	1.090067	-0.368174	3.878617	-0.597900	-0.650635	-0.186279	0.601081	0.143555	-0.771956	-0.148924
52771		8.799871	3.819559	-1.650084	1.208974	-0.538432	3.986209	-0.634277	-0.614258	-0.169434	0.600761	0.123082	-0.780480	-0.121606
52772		9.297158	2.936631	-1.637060	1.592693	-0.648419	4.001428	-0.675781	-0.587646	-0.140625	0.598579	0.104162	-0.788954	-0.091676
52773		10.166488	2.934122	-1.579602	2.063687	-0.725779	3.956398	-0.709473	-0.552734	-0.110352	0.594623	0.087685	-0.797042	-0.058815
52774		10.743485	4.798047	-2.465064	2.217656	-0.696142	3.936322	-0.741211	-0.511963	-0.088867	0.589887	0.071992	-0.803884	-0.024927
52775		10.454333	4.748134	-2.880696	1.953342	-0.586592	4.036949	-0.776367	-0.461182	-0.057373	0.585213	0.054250	-0.809025	0.007782
52776		10.480928	3.887690	-3.130464	1.681356	-0.572474	4.143579	-0.796631	-0.419922	-0.040283	0.579919	0.034393	-0.813005	0.039168
52777		10.799134	2.582590	-3.368434	1.521172	-0.564537	4.121387	-0.821777	-0.370117	-0.028809	0.573924	0.013869	-0.815853	0.069303
52778		11.020275	2.556486	-3.818415	1.484370	-0.639460	4.013704	-0.849121	-0.324951	0.003174	0.566719	-0.006067	-0.817972	0.098567
52779		11.032379	2.193552	-4.068868	1.378996	-0.633078	3.847377	-0.867676	-0.273193	0.018555	0.558980	-0.025357	-0.819129	0.126198
52780		10.790341	1.554769	-4.069638	1.310634	-0.634994	3.538303	-0.879639	-0.225830	0.031250	0.550921	-0.042816	-0.819522	0.151778
52781		10.545598	1.633093	-3.809739	1.263997	-0.619031	3.038499	-0.880127	-0.186279	0.031006	0.543089	-0.057049	-0.819339	0.174596
52782		10.386284	2.694754	-3.739305	1.074143	-0.591009	2.502942	-0.884033	-0.149658	0.045898	0.535780	-0.068480	-0.819015	0.193557
52783		9.905543	2.858174	-3.920042	0.676579	-0.430067	1.902550	-0.892090	-0.110840	0.055908	0.530087	-0.077808	-0.818614	0.206942
52784		9.223201	2.393363	-3.738982	0.234387	-0.310150	1.062440	-0.888184	-0.104492	0.065918	0.526275	-0.083539	-0.818832	0.213470
52785		8.573527	1.264857	-3.896886	-0.115878	-0.201070	0.093429	-0.881348	-0.099121	0.065430	0.524664	-0.084373	-0.819834	0.213262
52786		8.215472	0.782057	-3.831108	-0.268711	-0.120420	-0.817716	-0.888916	-0.123291	0.065430	0.525102	-0.079784	-0.821375	0.207954
52787		8.159173	1.933950	-3.429748	-0.032978	-0.044321	-1.655267	-0.882080	-0.139404	0.068359	0.527606	-0.068546	-0.822635	0.200512
52788		8.082599	3.677952	-3.303270	0.120839	-0.010464	-2.339033	-0.881348	-0.170410	0.064209	0.531423	-0.051973	-0.823647	0.191033
52789		7.921188	-2.402329	-7.667069	0.220975	-0.382836	-2.187411	-0.872314	-0.194336	0.064209	0.532295	-0.035377	-0.825787	0.182992
52790		10.025938	-14.555245	-2.424864	-0.658669	0.250022	-0.179257	-0.876709	-0.206787	0.062744	0.534090	-0.037451	-0.825717	0.177584
52791		10.262095	-8.674573	-1.049734	-0.208107	-0.446544	-0.762348	-0.874268	-0.210938	0.079590	0.532072	-0.032493	-0.828219	0.172907
52792		15.604119	-6.622136	-0.557454	-0.808760	0.207956	-1.175286	-0.871582	-0.228516	0.057861	0.534954	-0.028301	-0.828709	0.162065
52793		11.876878	-2.997887	-1.695765	1.125128	-0.070156	-1.927165	-0.868896	-0.247803	0.069336	0.537269	-0.009925	-0.827793	0.161251
52794		11.378717	-0.338868	-2.178987	1.370219	-0.107875	-2.237520	-0.847900	-0.282715	0.081299	0.539546	0.011740	-0.826400	0.160670
52795		10.658253	0.529120	-5.028921	1.107777	-0.281037	-2.530954	-0.848389	-0.317139	0.093506	0.540782	0.034471	-0.825689	0.156856
52796		6.674409	1.243800	-3.362697	1.113190	-0.595890	-2.550793	-0.824951	-0.339600	0.095459	0.539579	0.057762	-0.825935	0.152807
52797		6.607171	6.577861	-7.405459	0.012911	-0.766627	-1.851779	-0.823242	-0.370361	0.115967	0.536612	0.071492	-0.828342	0.144175
52798		9.224792	9.422301	-5.895442	-1.046424	0.027594	-1.346552	-0.816162	-0.389648	0.095703	0.539015	0.076045	-0.828577	0.130918
52799		10.486453	4.832020	-3.185974	-1.877164	0.135040	-0.820800	-0.804443	-0.398682	0.084961	0.541980	0.073116	-0.829365	0.114303
52800		10.188165	-1.422209	-2.013858	-1.546899	0.049159	-0.665603	-0.808105	-0.407715	0.072998	0.543873	0.070675	-0.830115	0.100580
52801		9.212286	-3.340462	-2.793219	-0.321788	-0.119149	-0.965575	-0.799805	-0.423584	0.072021	0.544062	0.075987	-0.830309	0.093859
52802		9.370041	-0.404424	-2.739041	0.616344	-0.231002	-1.262810	-0.785156	-0.442627	0.078125	0.543058	0.087683	-0.829999	0.092204
52803		9.566035	2.954405	-4.431238	0.697845	-0.150540	-1.135858	-0.789551	-0.456543	0.081543	0.542383	0.098794	-0.829244	0.091732
52804		9.050520	4.043125	-5.233747	0.131088	0.009338	-0.848163	-0.775391	-0.465820	0.076416	0.543010	0.105229	-0.828365	0.088761
52805		8.907524	2.715133	-4.489909	-0.420011	0.084153	-0.561370	-0.778076	-0.468018	0.068359	0.544399	0.107138	-0.827772	0.083338
52806		9.306536	0.842515	-4.061081	-0.631332	0.043679	-0.407734	-0.770508	-0.479248	0.063477	0.545570	0.107054	-0.827615	0.077110
52807		8.964298	-1.449911	-3.774118	-0.366632	-0.020309	-0.446572	-0.779053	-0.479492	0.042969	0.546071	0.108487	-0.827517	0.072473
52808		8.753463	-1.451746	-3.919652	0.109960	-0.034330	-0.590626	-0.771240	-0.491211	0.056641	0.546125	0.113050	-0.827046	0.070436
52809		8.863860	0.333039	-4.240270	0.379452	-0.032079	-0.635486	-0.759277	-0.498047	0.051025	0.545935	0.119192	-0.826339	0.070085
52810		9.013219	2.287205	-4.585057	0.154073	-0.028405	-0.507941	-0.761230	-0.508789	0.047119	0.545912	0.123397	-0.825850	0.068742
52811		9.054713	2.194364	-4.102219	-0.266234	-0.017279	-0.412323	-0.764160	-0.513428	0.045898	0.546336	0.125010	-0.825635	0.064938
52812		9.061322	0.234776	-3.701344	-0.399514	-0.024382	-0.340655	-0.756592	-0.511719	0.038574	0.546797	0.125530	-0.825585	0.060539
52813		9.228758	-0.949882	-3.175956	-0.224639	-0.040251	-0.404811	-0.759766	-0.520508	0.031494	0.546990	0.127284	-0.825438	0.057031
52814		9.007097	-0.875012	-3.401848	-0.040753	-0.046682	-0.481090	-0.753418	-0.527100	0.028564	0.546974	0.130394	-0.825139	0.054429
52815		9.027176	0.070743	-4.015527	0.039725	-0.064424	-0.521383	-0.747559	-0.536133	0.026367	0.546751	0.134175	-0.824825	0.052193
52816		9.081952	0.286567	-4.233893	0.003432	-0.060860	-0.531414	-0.750000	-0.535645	0.018555	0.546584	0.137864	-0.824483	0.049672
52817		9.012664	0.161071	-4.092982	-0.102871	-0.063760	-0.502334	-0.735107	-0.554932	0.016602	0.546494	0.140867	-0.824217	0.046552
52818		9.282154	0.294963	-4.152716	-0.095355	-0.018501	-0.564516	-0.736328	-0.556152	0.019043	0.546718	0.144315	-0.823651	0.043257
52819		9.181836	0.845074	-4.068717	-0.118842	0.005715	-0.567972	-0.733398	-0.560303	0.006592	0.547124	0.147666	-0.822961	0.039815
52820		9.262532	1.214795	-3.863887	-0.174773	0.016448	-0.560734	-0.723145	-0.572021	-0.002686	0.547656	0.150705	-0.822230	0.036034
52821		9.218785	0.850277	-3.846075	-0.215052	0.029987	-0.551071	-0.725586	-0.574951	0.001709	0.548315	0.153486	-0.821441	0.032038
52822		9.089230	0.864100	-4.257021	-0.228958	0.036500	-0.563433	-0.720215	-0.580078	-0.008301	0.549026	0.156282	-0.820590	0.027900
52823		8.992135	0.752361	-4.247971	-0.305918	0.050576	-0.593680	-0.702881	-0.588379	-0.010254	0.549923	0.158924	-0.819630	0.023115
52824		8.893277	-0.049781	-4.375253	-0.373945	0.062906	-0.618042	-0.711426	-0.607178	-0.017578	0.550980	0.161413	-0.818566	0.017771
52825		9.093774	-0.078812	-4.472569	-0.375415	0.097352	-0.718260	-0.707031	-0.607178	-0.023193	0.552264	0.164566	-0.817177	0.012007
52826		9.272921	0.672606	-4.221744	-0.475142	0.103748	-0.750493	-0.695312	-0.610107	-0.041016	0.553701	0.167470	-0.815683	0.005427
52827		9.417178	0.834087	-4.059060	-0.605279	0.119871	-0.780801	-0.692383	-0.622559	-0.045166	0.555396	0.169966	-0.814028	-0.002152
52828		9.542558	0.304168	-4.174850	-0.614675	0.158198	-0.831749	-0.673828	-0.622314	-0.053467	0.557322	0.172752	-0.812065	-0.009974
52829		9.783112	0.250731	-3.908904	-0.628960	0.197049	-0.904414	-0.673096	-0.637939	-0.065186	0.559480	0.175950	-0.809749	-0.018169
52830		9.818670	0.486877	-3.582055	-0.660275	0.242274	-1.002839	-0.664551	-0.643799	-0.082275	0.561919	0.179653	-0.806997	-0.026963
52831		10.071635	0.979408	-3.268846	-0.787207	0.296360	-1.054594	-0.651855	-0.654053	-0.092529	0.564837	0.183097	-0.803793	-0.036764
52832		9.977870	1.585480	-3.115200	-1.027301	0.387568	-1.115225	-0.642822	-0.658936	-0.115479	0.568629	0.185815	-0.799875	-0.048312
52833		9.690365	1.361301	-3.988137	-1.196375	0.433846	-1.166577	-0.618652	-0.665283	-0.121582	0.572866	0.188053	-0.795438	-0.061148
52834		9.941099	0.739860	-4.609258	-1.185816	0.462279	-1.254609	-0.613037	-0.676758	-0.140381	0.577105	0.190898	-0.790564	-0.074272
52835		10.288988	0.140999	-4.757350	-1.023085	0.490756	-1.383942	-0.590088	-0.683105	-0.166504	0.581063	0.195351	-0.785274	-0.086879
52836		10.699117	-0.610218	-4.881621	-0.869945	0.514805	-1.519062	-0.572754	-0.692871	-0.178955	0.584698	0.201399	-0.779585	-0.099071
52837		11.499814	-0.420947	-4.524300	-0.752423	0.591964	-1.712964	-0.549316	-0.708252	-0.191650	0.588329	0.209289	-0.773100	-0.111280
52838		11.852696	-0.673256	-4.905070	-0.792394	0.615451	-1.836397	-0.524170	-0.724121	-0.200928	0.591898	0.217734	-0.766033	-0.124271
52839		12.592863	-0.714064	-4.969282	-0.821661	0.627112	-1.967989	-0.512207	-0.726562	-0.216797	0.595266	0.226811	-0.758396	-0.138025
52840		12.822576	-0.492562	-4.347393	-1.085882	0.603422	-2.027465	-0.473389	-0.738281	-0.229980	0.598696	0.234835	-0.750189	-0.153726
52841		13.420737	0.081181	-4.496377	-1.573174	0.528200	-1.966302	-0.459717	-0.744629	-0.242188	0.602434	0.239841	-0.741541	-0.172238
52842		14.076245	-1.151078	-4.889570	-2.119725	0.405037	-1.860809	-0.425293	-0.747559	-0.281494	0.606348	0.241144	-0.732567	-0.193745
52843		12.298972	-5.355539	-5.173312	-2.015075	0.187473	-1.972565	-0.401855	-0.749268	-0.295410	0.608205	0.243163	-0.724239	-0.215493
52844		10.579372	-0.806658	-5.542425	-1.120636	-0.000466	-2.525097	-0.371582	-0.756836	-0.297119	0.605795	0.252568	-0.716972	-0.234890
52845		10.452618	5.613402	-4.075458	-0.567472	-0.133583	-2.832120	-0.345947	-0.759521	-0.307617	0.600490	0.266196	-0.710430	-0.252667
52846		9.768957	6.000505	-2.804693	-0.858371	-0.271435	-2.417286	-0.312256	-0.774658	-0.303955	0.595578	0.275487	-0.704523	-0.270260
52847		8.349101	7.022105	-2.566547	-1.126023	-0.231223	-1.809163	-0.297607	-0.780518	-0.319092	0.592657	0.279864	-0.698942	-0.286206
52848		5.836057	10.329603	-2.458591	-1.235429	-0.222558	-1.409873	-0.280762	-0.772217	-0.325684	0.590826	0.281319	-0.693797	-0.300716
52849		4.226382	8.012689	-3.435979	-1.403964	-0.494365	-0.607916	-0.273682	-0.767334	-0.334717	0.589701	0.276575	-0.691302	-0.312828
52850		5.481119	2.142155	-3.281000	-1.512834	-0.262190	0.236061	-0.285400	-0.761230	-0.350342	0.592257	0.267000	-0.689210	-0.320830
52851		5.083574	1.269907	-0.386513	-1.360516	0.014640	0.745129	-0.293457	-0.744385	-0.353271	0.597323	0.255949	-0.687182	-0.324771
52852		4.633744	2.966916	1.190477	-0.968443	0.110544	1.121953	-0.309082	-0.742676	-0.364746	0.603025	0.244904	-0.686434	-0.324333
52853		3.599088	3.424201	0.743464	-0.311960	-0.148658	1.380760	-0.325684	-0.735352	-0.358154	0.606513	0.234933	-0.689188	-0.319325
52854		3.575676	3.495540	0.642480	0.355500	-0.493162	1.713039	-0.348145	-0.725830	-0.349609	0.607486	0.225464	-0.695978	-0.309420
52855		4.288010	3.719906	0.283232	0.761259	-0.707995	2.102814	-0.368652	-0.723633	-0.338135	0.607266	0.215163	-0.705416	-0.295500
52856		5.326405	3.847020	0.321457	1.098217	-0.771094	2.454848	-0.405029	-0.721436	-0.322266	0.606654	0.204240	-0.716301	-0.277794
52857		6.021892	3.962221	0.426329	1.405750	-0.781021	2.742510	-0.442871	-0.720215	-0.289307	0.605744	0.193001	-0.727983	-0.256642
52858		6.712100	5.063898	-0.253473	1.641968	-0.826947	2.980487	-0.475830	-0.695312	-0.268066	0.604210	0.181258	-0.740210	-0.232731
52859		7.020071	5.534695	-1.087283	1.646268	-0.771010	3.266772	-0.531738	-0.681885	-0.235107	0.603017	0.167712	-0.751912	-0.207056
52860		7.458792	4.891782	-1.314191	1.460506	-0.745017	3.588560	-0.562500	-0.660645	-0.211914	0.602177	0.151089	-0.762831	-0.180680
52861		8.282030	4.786878	-1.742462	1.358866	-0.732434	3.826737	-0.598877	-0.630859	-0.188477	0.601216	0.132289	-0.772959	-0.153534
52862		8.850262	4.385290	-2.000304	1.407272	-0.776425	3.969785	-0.647461	-0.601807	-0.162598	0.599358	0.112592	-0.782568	-0.125222
52863		9.843398	2.855988	-1.936808	1.702556	-0.833826	4.023847	-0.680908	-0.565918	-0.136719	0.596106	0.093808	-0.791775	-0.094603
52864		10.499268	2.716129	-2.011338	2.250883	-0.840128	3.938826	-0.714844	-0.537598	-0.110840	0.591462	0.078168	-0.800239	-0.060660
52865		11.109509	4.445592	-2.353545	2.368141	-0.875000	3.878189	-0.747314	-0.499512	-0.080566	0.585600	0.063374	-0.807695	-0.026168
52866		11.464799	4.628900	-3.030470	2.287174	-0.827410	3.845594	-0.785889	-0.449951	-0.046631	0.579235	0.048325	-0.813691	0.007679
52867		11.144571	3.735464	-3.187126	2.228678	-0.749938	3.811595	-0.811035	-0.410889	-0.020020	0.572599	0.033155	-0.818139	0.040980
52868		10.964008	2.996146	-3.632345	2.110118	-0.723127	3.764657	-0.827637	-0.362793	-0.000488	0.565412	0.017691	-0.821364	0.073194
52869		11.068374	3.365685	-3.919461	1.856648	-0.732468	3.702373	-0.838379	-0.311035	0.032471	0.557512	0.001448	-0.823718	0.103280
52870		10.939791	3.288946	-4.225494	1.564899	-0.765468	3.572160	-0.858887	-0.271729	0.041748	0.548850	-0.015222	-0.825510	0.130630
52871		10.766443	2.427891	-4.427477	1.278503	-0.787091	3.381098	-0.868896	-0.225586	0.050781	0.539648	-0.031840	-0.826887	0.154997
52872		10.559792	1.901813	-4.159328	1.014704	-0.757149	3.072544	-0.877197	-0.172607	0.078857	0.530515	-0.047520	-0.827838	0.176011
52873		9.994741	2.168676	-4.351201	0.640760	-0.725443	2.676539	-0.875000	-0.141357	0.082031	0.521681	-0.062129	-0.828801	0.192556
52874		9.488508	1.345930	-3.997291	0.163922	-0.597277	2.166946	-0.878418	-0.114990	0.091309	0.514064	-0.075460	-0.829856	0.203429
52875		9.082844	0.844513	-3.953356	-0.183447	-0.535106	1.448283	-0.889893	-0.097412	0.097656	0.507743	-0.085387	-0.831469	0.208722
52876		8.548074	0.234697	-3.811786	-0.575340	-0.367726	0.571198	-0.883789	-0.085449	0.099609	0.503774	-0.091169	-0.833588	0.207438
52877		8.283378	-0.486978	-3.406429	-0.756542	-0.300171	-0.294765	-0.874512	-0.086426	0.104248	0.501608	-0.091803	-0.836352	0.201191
52878		8.413852	-0.596002	-2.781965	-0.415749	-0.239604	-1.097364	-0.877441	-0.102295	0.104736	0.501435	-0.085509	-0.838842	0.193897
52879		8.687145	0.865883	-2.175503	0.158426	-0.107765	-1.876641	-0.877441	-0.126953	0.111084	0.503768	-0.071565	-0.840263	0.187227
52880		8.229794	2.404180	-3.414342	0.464331	-0.122531	-2.462473	-0.865234	-0.158447	0.104980	0.506927	-0.052183	-0.841331	0.180178
52881		8.774737	-11.889198	-7.260696	0.780893	-0.304373	-1.490350	-0.868896	-0.177490	0.115723	0.507329	-0.037983	-0.842001	0.179466
52882		7.617351	-13.407906	-1.664059	0.714927	-0.064560	-0.546714	-0.870361	-0.175537	0.113281	0.507909	-0.031042	-0.841350	0.182195
52883		12.510522	-2.830058	-3.654656	0.718158	-0.842663	-1.372994	-0.861328	-0.195557	0.127197	0.504220	-0.017128	-0.844082	0.181641
52884		16.910541	-0.238560	1.001201	-1.091393	0.831590	-1.161759	-0.861572	-0.211914	0.113037	0.511625	-0.014833	-0.842301	0.168963
52885		11.753905	-3.848011	-0.884299	-0.034101	-0.029338	-1.378986	-0.858398	-0.235107	0.114502	0.513351	-0.005298	-0.842571	0.162843
52886		11.071769	-5.405932	-3.924651	0.936106	-0.269555	-2.043422	-0.848389	-0.263916	0.125977	0.514218	0.013371	-0.842371	0.160661
52887		8.735632	-0.897250	-4.486025	1.310221	-0.116528	-2.530392	-0.842041	-0.287842	0.120605	0.516534	0.036846	-0.840575	0.158963
52888		6.264487	4.825575	-4.768209	1.232065	-0.422775	-2.260662	-0.839111	-0.310791	0.144775	0.516105	0.058483	-0.839849	0.157697
52889		6.906530	8.498339	-8.013568	-0.248972	-0.613173	-1.505075	-0.826416	-0.339111	0.147949	0.513899	0.068706	-0.841985	0.149162
52890		10.091280	6.745234	-5.967115	-1.659074	0.023358	-0.934120	-0.810791	-0.353271	0.132812	0.516138	0.068097	-0.843293	0.133495
52891		10.742165	2.155805	-3.939255	-2.361183	-0.032199	-0.623510	-0.821533	-0.365723	0.112061	0.517869	0.062336	-0.845516	0.114142
52892		10.401228	-0.676425	-1.845714	-1.997531	0.168112	-0.554407	-0.812012	-0.374756	0.099609	0.520576	0.057439	-0.846259	0.097703
52893		8.895376	-1.411079	-1.930143	-0.654712	-0.099708	-0.864536	-0.811035	-0.385986	0.094727	0.520909	0.060764	-0.846757	0.089243
52894		9.344732	-1.196480	-2.839390	0.163081	-0.229224	-1.018781	-0.812988	-0.398926	0.099854	0.519991	0.068804	-0.847061	0.085807
52895		8.966876	0.646081	-5.428063	0.350489	-0.224053	-0.958992	-0.802734	-0.411377	0.101074	0.518922	0.077217	-0.847178	0.083946
52896		8.535441	3.353827	-6.476585	0.020939	-0.060655	-0.776451	-0.799561	-0.422607	0.090820	0.519061	0.082796	-0.846887	0.080642
52897		8.567935	3.503558	-5.969920	-0.634068	0.055549	-0.470803	-0.793945	-0.435791	0.095215	0.520255	0.083259	-0.846708	0.074076
52898		8.871624	0.562546	-4.797487	-1.021420	0.145348	-0.242829	-0.797852	-0.435791	0.075439	0.522157	0.080458	-0.846488	0.065857
52899		8.718782	-2.146780	-4.094370	-0.777173	0.076345	-0.304922	-0.799561	-0.437744	0.066162	0.523431	0.079093	-0.846336	0.058992
52900		8.806453	-2.127545	-3.730936	-0.185988	0.019808	-0.525702	-0.789795	-0.443359	0.069824	0.524010	0.081845	-0.845966	0.055281
52901		8.972077	0.636692	-3.832460	0.011602	0.003171	-0.564584	-0.785889	-0.456299	0.065430	0.524322	0.085833	-0.845534	0.052841
52902		9.036103	2.296170	-4.441065	-0.343896	0.031537	-0.417509	-0.792236	-0.463379	0.053711	0.525027	0.087163	-0.845220	0.048508
52903		8.698280	1.227251	-4.795402	-0.765799	0.069760	-0.276492	-0.793945	-0.463135	0.045654	0.526258	0.085479	-0.844987	0.041753
52904		8.830423	-0.363781	-4.519241	-0.770021	0.060217	-0.255543	-0.788330	-0.464111	0.042236	0.527372	0.083690	-0.844774	0.035099
52905		8.689521	-1.136641	-4.322807	-0.523491	0.052153	-0.320766	-0.785156	-0.468262	0.032715	0.528232	0.083599	-0.844443	0.029980
52906		8.704162	-0.150892	-4.361860	-0.255357	0.046092	-0.411487	-0.797119	-0.473633	0.030518	0.528874	0.085320	-0.843990	0.026340
52907		8.909032	0.885933	-4.405814	-0.235403	0.059124	-0.420293	-0.792725	-0.470215	0.015137	0.529581	0.087205	-0.843456	0.022824
52908		8.848565	0.976514	-4.311834	-0.366053	0.084431	-0.358645	-0.782715	-0.480469	0.010498	0.530540	0.088082	-0.842864	0.018683
52909		8.878821	-0.123354	-4.149569	-0.320720	0.080092	-0.381205	-0.782227	-0.488281	-0.007812	0.531428	0.089321	-0.842252	0.014760
52910		8.842958	0.078354	-3.961557	-0.195582	0.063397	-0.426704	-0.775146	-0.491699	0.002441	0.532101	0.091433	-0.841651	0.011501
52911		8.869205	0.304890	-4.313339	-0.127064	0.070455	-0.475279	-0.770752	-0.509033	-0.006348	0.532768	0.094185	-0.840960	0.008515
52912		9.096628	0.542269	-4.650773	-0.168245	0.060833	-0.459277	-0.775146	-0.510498	-0.016602	0.533389	0.096641	-0.840314	0.005305
52913		9.081609	1.145243	-4.391771	-0.340388	0.094195	-0.459343	-0.770508	-0.514160	-0.022705	0.534371	0.098328	-0.839511	0.000917
52914		8.775637	0.185218	-4.437611	-0.479833	0.107364	-0.449879	-0.764893	-0.521729	-0.024414	0.535543	0.099325	-0.838635	-0.004393
52915		8.740692	-0.331721	-4.712719	-0.462653	0.137026	-0.516979	-0.764648	-0.526367	-0.032959	0.536888	0.100865	-0.837544	-0.009855
52916		8.833862	0.422264	-4.516347	-0.452196	0.168170	-0.592578	-0.755371	-0.534180	-0.041504	0.538414	0.102976	-0.836220	-0.015553
52917		8.999621	0.977795	-4.136481	-0.495557	0.207605	-0.613629	-0.744629	-0.538818	-0.053711	0.540224	0.105039	-0.834660	-0.021611
52918		8.827681	0.801782	-4.134254	-0.511648	0.205225	-0.655008	-0.755859	-0.547852	-0.058105	0.541998	0.107311	-0.833031	-0.027967
52919		8.845560	0.620301	-4.334716	-0.513773	0.213838	-0.682553	-0.738037	-0.552734	-0.072510	0.543798	0.109760	-0.831294	-0.034452
52920		8.875321	0.808711	-4.362801	-0.464257	0.248762	-0.753576	-0.730713	-0.561523	-0.081299	0.545742	0.112928	-0.829302	-0.040879
52921		9.121432	0.562123	-4.460716	-0.368978	0.293870	-0.794444	-0.733887	-0.579102	-0.089844	0.547862	0.116819	-0.827050	-0.046786
52922		9.411092	1.335512	-3.888528	-0.335255	0.306047	-0.840402	-0.714111	-0.572021	-0.103271	0.549979	0.121178	-0.824661	-0.052653
52923		9.564608	1.101919	-3.904598	-0.408758	0.293503	-0.853472	-0.724121	-0.585938	-0.105225	0.552043	0.125274	-0.822230	-0.059093
52924		9.814962	0.239810	-3.865174	-0.322323	0.359064	-0.923815	-0.709229	-0.594727	-0.116699	0.554391	0.130270	-0.819408	-0.065190
52925		9.378972	0.165022	-4.307533	-0.101267	0.401168	-1.082643	-0.687256	-0.606201	-0.127197	0.556654	0.137381	-0.816271	-0.070456
52926		9.470734	0.994824	-4.525123	-0.015981	0.433591	-1.191733	-0.680908	-0.613037	-0.127930	0.558917	0.145631	-0.812827	-0.075600
52927		9.645921	1.905529	-4.409695	-0.154820	0.421602	-1.212000	-0.670166	-0.627686	-0.138672	0.561190	0.153347	-0.809236	-0.081782
52928		9.928243	1.889298	-4.153736	-0.315365	0.438110	-1.239566	-0.643799	-0.635254	-0.139160	0.563691	0.160489	-0.805326	-0.089141
52929		10.451350	1.568995	-4.221385	-0.360600	0.460809	-1.285385	-0.636963	-0.658936	-0.158203	0.566295	0.167720	-0.801109	-0.096975
52930		11.163361	0.897855	-4.256543	-0.345046	0.494839	-1.364460	-0.624268	-0.661377	-0.168213	0.568958	0.175552	-0.796518	-0.105013
52931		11.344395	0.242865	-3.997709	-0.352799	0.518651	-1.425051	-0.609375	-0.677734	-0.181641	0.571645	0.183738	-0.791592	-0.113333
52932		11.231347	-0.785003	-4.129757	-0.383704	0.559698	-1.612928	-0.587891	-0.689941	-0.179199	0.574364	0.193014	-0.786006	-0.122662
52933		11.632586	-1.801292	-4.464432	-0.451653	0.565607	-1.737402	-0.565186	-0.702881	-0.186523	0.576973	0.202734	-0.779946	-0.132987
52934		11.784422	-1.756223	-5.403965	-0.620698	0.511673	-1.887988	-0.544922	-0.719971	-0.197998	0.579195	0.212498	-0.773499	-0.145180
52935		12.211916	-1.588619	-4.983623	-0.949710	0.483606	-1.986533	-0.522949	-0.730713	-0.217041	0.581512	0.221199	-0.766373	-0.159961
52936		11.972198	-1.144121	-4.663317	-1.460248	0.387675	-1.942781	-0.485107	-0.731689	-0.229736	0.583992	0.226926	-0.758823	-0.177894
52937		11.819888	-0.152790	-5.387087	-1.883003	0.269407	-1.946315	-0.470459	-0.730225	-0.249756	0.586245	0.230328	-0.750869	-0.198648
52938		12.685597	0.164626	-4.040719	-2.173083	0.131167	-2.034177	-0.447266	-0.741455	-0.269043	0.587712	0.232498	-0.742528	-0.221789
52939		11.736401	2.505983	-4.434711	-2.031759	0.003496	-2.183283	-0.416260	-0.741943	-0.296143	0.587479	0.235896	-0.734337	-0.244888
52940		10.454275	4.450812	-4.096963	-1.918845	0.007749	-2.290323	-0.392090	-0.749512	-0.315674	0.586469	0.240359	-0.725701	-0.267654
52941		10.349969	3.928339	-3.279320	-2.054111	-0.078385	-1.995017	-0.365723	-0.751465	-0.333008	0.585519	0.242040	-0.717354	-0.289805
52942		9.295405	3.649271	-2.573063	-2.067583	-0.078624	-1.632045	-0.348389	-0.741455	-0.364258	0.585164	0.241355	-0.709340	-0.310109
52943		7.378176	4.986968	-2.374844	-1.501234	-0.058058	-1.466765	-0.322998	-0.745605	-0.364014	0.583988	0.242409	-0.702750	-0.326095
52944		4.025614	7.990985	-2.837865	-0.852042	-0.326446	-1.291491	-0.320312	-0.734131	-0.377197	0.580266	0.244810	-0.699422	-0.337889
52945		5.393330	4.577940	-4.035667	-0.468460	-0.393290	-0.535900	-0.315674	-0.737305	-0.371826	0.577433	0.244455	-0.698964	-0.343892
52946		5.450851	1.369704	-1.827471	-0.433968	-0.009795	0.130714	-0.318359	-0.739502	-0.371094	0.578654	0.241479	-0.698101	-0.345691
52947		5.035891	2.811769	0.232980	-0.122619	0.147350	0.694152	-0.324219	-0.735596	-0.368164	0.581771	0.237169	-0.698496	-0.342632
52948		4.686927	4.950647	0.252036	0.121962	0.098293	1.168255	-0.331787	-0.727783	-0.365967	0.585433	0.231124	-0.700716	-0.335926
52949		4.011569	5.427590	-0.299097	0.415748	0.026839	1.578536	-0.348145	-0.733887	-0.354004	0.589177	0.223882	-0.704794	-0.325595
52950		4.084280	4.491104	-0.369716	0.774712	-0.104321	2.048629	-0.379150	-0.723877	-0.339355	0.592601	0.215227	-0.711179	-0.311009
52951		4.799110	3.593433	-0.504115	1.050679	-0.207743	2.481430	-0.404053	-0.719727	-0.319580	0.595786	0.205009	-0.719259	-0.292704
52952		5.817792	3.665280	-0.453189	1.315733	-0.291201	2.767300	-0.436035	-0.708984	-0.301025	0.598366	0.194069	-0.728463	-0.271363
52953		6.673261	4.459299	-0.644478	1.614974	-0.340986	2.975765	-0.468262	-0.702637	-0.273438	0.600190	0.183097	-0.738387	-0.247047
52954		6.934992	5.024916	-0.989323	1.866211	-0.308973	3.203515	-0.510010	-0.692139	-0.255615	0.601764	0.171882	-0.748355	-0.219778
52955		7.043995	5.251861	-1.096307	1.956985	-0.329315	3.487748	-0.551270	-0.668945	-0.222168	0.602973	0.159131	-0.758208	-0.190318
52956		7.478557	4.920803	-1.409280	1.948478	-0.421628	3.714803	-0.589111	-0.648926	-0.198242	0.603257	0.144570	-0.767910	-0.159671
52957		7.977464	4.401299	-2.000162	1.990351	-0.530658	3.864612	-0.629639	-0.623291	-0.168213	0.602214	0.128931	-0.777399	-0.127930
52958		9.147612	3.770526	-2.164387	2.087939	-0.568982	4.001821	-0.665771	-0.594482	-0.148438	0.600126	0.112674	-0.786243	-0.094732
52959		9.485033	3.460370	-2.898225	2.373932	-0.627143	4.063778	-0.705078	-0.552246	-0.113281	0.596533	0.097226	-0.794470	-0.059265
52960		10.452990	2.890356	-2.704745	2.612294	-0.575435	4.068741	-0.733887	-0.514160	-0.086182	0.592130	0.082801	-0.801274	-0.022059
52961		10.965970	4.074568	-3.134433	2.588068	-0.692868	4.091684	-0.766357	-0.468018	-0.051025	0.585981	0.067946	-0.807331	0.015053
52962		11.143381	5.002323	-3.988423	2.291725	-0.724953	4.122694	-0.799561	-0.418945	-0.026123	0.578827	0.051333	-0.812278	0.050278
52963		10.917248	3.960231	-4.224777	2.024166	-0.666632	4.081804	-0.817383	-0.374756	-0.000977	0.571312	0.033612	-0.815789	0.083436
52964		10.863395	2.686922	-4.021048	1.720947	-0.688908	4.003746	-0.845947	-0.320801	0.019775	0.562973	0.014954	-0.818434	0.114033
52965		11.112399	2.614135	-4.592512	1.427054	-0.801414	3.832319	-0.852783	-0.270752	0.035400	0.553344	-0.003819	-0.820810	0.141656
52966		10.958337	2.594316	-4.651380	1.127873	-0.772520	3.568731	-0.863770	-0.232666	0.059082	0.543596	-0.022191	-0.822498	0.165853
52967		10.469611	2.241547	-3.951889	0.844404	-0.748540	3.205020	-0.875977	-0.183105	0.064697	0.533966	-0.039358	-0.823786	0.186297
52968		9.953132	1.764885	-3.980688	0.539383	-0.718083	2.692181	-0.868164	-0.145020	0.081299	0.524878	-0.054375	-0.825017	0.202222
52969		9.496874	1.366339	-3.868684	0.150748	-0.585928	1.976386	-0.873779	-0.121826	0.081787	0.517502	-0.066363	-0.826295	0.212190
52970		9.026565	0.929776	-4.045077	-0.225248	-0.445411	1.035308	-0.880127	-0.109619	0.088867	0.512451	-0.073721	-0.827991	0.215384
52971		8.660881	0.363029	-3.724653	-0.630792	-0.282104	0.014902	-0.876465	-0.098389	0.102295	0.510078	-0.076052	-0.830294	0.211302
52972		8.626656	0.935716	-3.355928	-0.643113	-0.202398	-0.896065	-0.879150	-0.120117	0.099365	0.509824	-0.072263	-0.832809	0.203193
52973		8.546013	1.621080	-3.369161	-0.329457	-0.175327	-1.650273	-0.881836	-0.141113	0.102051	0.511153	-0.061937	-0.835014	0.194005
52974		9.275104	-1.441682	-5.313517	-0.001614	-0.249430	-2.058655	-0.878906	-0.166260	0.099121	0.512671	-0.047231	-0.837010	0.185341
52975		9.320108	-10.196974	-3.360773	0.186864	0.015669	-1.243058	-0.867920	-0.188232	0.095703	0.514748	-0.037805	-0.837093	0.181331
52976		10.909901	-9.331299	-1.067962	0.440144	-0.175620	-1.074769	-0.860107	-0.199219	0.104736	0.515264	-0.028182	-0.837472	0.179860
52977		15.427102	-6.879418	0.612477	0.097434	0.020226	-1.387120	-0.869141	-0.207520	0.104980	0.517481	-0.018153	-0.837497	0.174594
52978		12.849978	-1.270836	-0.684089	0.583423	0.003269	-1.863967	-0.854004	-0.237305	0.108887	0.520257	-0.002684	-0.836786	0.170629
52979		11.804916	2.458384	-2.724282	1.058436	-0.241967	-2.146368	-0.846680	-0.264404	0.111084	0.521572	0.017159	-0.836188	0.168695
52980		9.973199	1.993147	-6.367942	0.620281	-0.312598	-2.234101	-0.837402	-0.294434	0.132324	0.522383	0.035806	-0.836174	0.163239
52981		7.931127	1.660473	-3.920525	0.773726	-0.438678	-2.356344	-0.831299	-0.317383	0.137695	0.522220	0.056138	-0.836125	0.158209
52982		8.371918	7.424274	-5.402144	-0.173135	-0.635921	-1.671848	-0.822266	-0.339355	0.142822	0.520049	0.067825	-0.838227	0.149410
52983		8.943709	9.934634	-5.715678	-1.668988	-0.115422	-1.028687	-0.815186	-0.356689	0.129883	0.521431	0.067885	-0.840096	0.133194
52984		9.980614	5.141370	-4.359070	-2.708023	-0.084441	-0.397987	-0.819336	-0.361328	0.106201	0.522712	0.058968	-0.843008	0.112395
52985		10.502395	-2.514148	-3.086229	-2.114794	0.073058	-0.332418	-0.814697	-0.375977	0.090332	0.524530	0.052007	-0.844354	0.096069
52986		8.197663	-5.242304	-3.466491	-0.440298	-0.088388	-0.703927	-0.810547	-0.387451	0.084229	0.524690	0.055095	-0.844747	0.089815
52987		8.928152	-0.745690	-4.155366	0.655407	-0.236395	-1.056311	-0.803223	-0.404053	0.094971	0.523527	0.065552	-0.844738	0.089664
52988		9.706766	3.650299	-4.888856	0.509009	-0.130162	-0.902186	-0.806885	-0.404785	0.094971	0.523026	0.074203	-0.844382	0.089205
52989		8.759328	4.336645	-5.158530	-0.433677	-0.033794	-0.491686	-0.798828	-0.412842	0.091064	0.523455	0.075775	-0.844515	0.083946
52990		8.668936	1.704891	-5.446053	-1.034041	0.049149	-0.224387	-0.804443	-0.415771	0.075928	0.524630	0.072800	-0.844830	0.075672
52991		8.854397	-1.683707	-4.824628	-1.010983	0.049006	-0.153648	-0.803467	-0.421387	0.062256	0.525708	0.069403	-0.845110	0.067850
52992		8.689519	-3.155982	-4.149503	-0.402842	0.013320	-0.386532	-0.803711	-0.427734	0.061768	0.526292	0.070317	-0.845027	0.063263
52993		8.989743	-0.947100	-4.378945	0.018202	-0.005891	-0.540971	-0.799805	-0.440918	0.060303	0.526560	0.074182	-0.844698	0.060962
52994		9.038718	2.197249	-4.593757	-0.254087	0.019255	-0.452143	-0.795654	-0.439697	0.056885	0.527118	0.076221	-0.844435	0.057150
52995		8.755624	1.087401	-4.621262	-0.827613	0.036837	-0.241834	-0.799805	-0.445801	0.044434	0.528046	0.074225	-0.844474	0.050225
52996		8.520772	-1.414783	-4.800911	-0.927944	0.060911	-0.203214	-0.793945	-0.453125	0.033447	0.529167	0.071448	-0.844423	0.042740
52997		8.708282	-2.016550	-4.409641	-0.617988	0.062285	-0.372116	-0.793213	-0.451172	0.023193	0.530145	0.071235	-0.844112	0.036693
52998		8.689764	-0.752387	-4.142694	-0.485436	0.082305	-0.450401	-0.790039	-0.461670	0.022461	0.531190	0.072114	-0.843600	0.031237
52999		8.540780	-0.360558	-4.196630	-0.472057	0.099924	-0.499629	-0.796143	-0.463135	0.017578	0.532334	0.073474	-0.842948	0.025716
53000		8.561093	-0.082774	-4.276907	-0.413315	0.091147	-0.538805	-0.790283	-0.466553	0.008301	0.533368	0.075357	-0.842272	0.020429
53001		8.768310	0.248332	-4.143937	-0.324497	0.100269	-0.587600	-0.781738	-0.475830	-0.001953	0.534402	0.077982	-0.841482	0.015557
53002		8.797491	0.387723	-3.981757	-0.276916	0.087713	-0.573459	-0.774902	-0.487793	-0.006348	0.535297	0.080734	-0.840724	0.011081
53003		9.132898	0.829257	-3.836953	-0.183587	0.095718	-0.598167	-0.776367	-0.493652	-0.021484	0.536171	0.084086	-0.839880	0.007163
53004		9.259481	1.178105	-4.018559	-0.145023	0.093743	-0.601181	-0.772949	-0.500732	-0.015625	0.536989	0.087623	-0.839019	0.003497
53005		9.201233	1.758059	-3.958959	-0.179612	0.092147	-0.564949	-0.773438	-0.513916	-0.026855	0.537807	0.090755	-0.838169	-0.000247
53006		9.087253	1.871806	-3.956018	-0.288041	0.099774	-0.523902	-0.772217	-0.516602	-0.042969	0.538746	0.093110	-0.837295	-0.004561
53007		9.157299	1.427244	-3.988834	-0.395857	0.096399	-0.455261	-0.766113	-0.518799	-0.040527	0.539734	0.094501	-0.836463	-0.009322
53008		9.099852	0.856505	-4.148695	-0.449404	0.105168	-0.454167	-0.768799	-0.534180	-0.048340	0.540811	0.095641	-0.835564	-0.014445
53009		8.881951	0.219535	-4.318984	-0.440426	0.118587	-0.494729	-0.751465	-0.531250	-0.058838	0.541952	0.097102	-0.834549	-0.019675
53010		8.546662	-0.338886	-4.517124	-0.461765	0.131290	-0.545148	-0.750244	-0.540039	-0.069580	0.543172	0.098815	-0.833404	-0.025268
53011		8.638049	-1.144040	-4.651978	-0.409932	0.158440	-0.668108	-0.750488	-0.541504	-0.067627	0.544488	0.101616	-0.832012	-0.031032
53012		9.427091	-0.239702	-4.376612	-0.308229	0.198331	-0.784844	-0.739258	-0.554443	-0.075195	0.545936	0.105691	-0.830328	-0.036580
53013		9.492821	0.875118	-3.879848	-0.297421	0.248680	-0.862876	-0.727783	-0.568604	-0.091797	0.547668	0.110361	-0.828303	-0.042358
53014		9.441192	0.866827	-3.760261	-0.378564	0.276825	-0.880890	-0.726807	-0.572998	-0.097412	0.549626	0.114787	-0.826050	-0.048750
53015		9.229738	0.304754	-4.252800	-0.344349	0.314338	-0.947166	-0.719482	-0.580566	-0.102539	0.551743	0.119830	-0.823515	-0.055168
53016		9.210037	0.696419	-4.664233	-0.198960	0.336174	-1.051192	-0.705322	-0.598389	-0.121338	0.553770	0.126253	-0.820776	-0.061037
53017		9.400855	1.322669	-4.236264	-0.161757	0.387525	-1.091952	-0.692139	-0.600342	-0.128418	0.556036	0.133141	-0.817703	-0.066778
53018		9.582774	1.570167	-4.109111	-0.225496	0.403752	-1.150847	-0.680176	-0.608398	-0.121582	0.558394	0.140129	-0.814372	-0.073199
53019		9.557605	1.603229	-4.152971	-0.325600	0.417416	-1.161226	-0.669922	-0.626709	-0.142822	0.560894	0.146712	-0.810816	-0.080322
53020		9.416445	1.392450	-4.270715	-0.312008	0.455409	-1.232737	-0.651855	-0.632324	-0.141113	0.563517	0.153849	-0.806908	-0.087629
53021		9.683202	1.212713	-4.552116	-0.347658	0.466545	-1.289070	-0.634766	-0.649414	-0.158447	0.566145	0.161184	-0.802743	-0.095412
53022		10.320466	1.270186	-4.359757	-0.413155	0.515067	-1.370322	-0.625732	-0.660400	-0.174316	0.569034	0.168765	-0.798070	-0.103933
53023		10.644207	0.385805	-4.265157	-0.568207	0.546730	-1.403051	-0.600830	-0.664795	-0.182617	0.572226	0.175825	-0.792934	-0.113575
53024		11.018469	-0.524167	-4.070206	-0.643007	0.583893	-1.514415	-0.588623	-0.676270	-0.195801	0.575556	0.183261	-0.787233	-0.124160
53025		11.503332	-1.384178	-4.227980	-0.624107	0.611604	-1.721832	-0.568115	-0.691650	-0.200684	0.578688	0.192127	-0.780920	-0.135538
53026		12.021829	-1.660100	-4.583076	-0.651870	0.593312	-1.838671	-0.546143	-0.709961	-0.211182	0.581457	0.201539	-0.774268	-0.147645
53027		12.304295	-1.663569	-4.422963	-0.837133	0.538557	-1.955778	-0.529053	-0.719971	-0.233154	0.583859	0.210671	-0.767221	-0.161551
53028		12.033973	-1.471655	-5.126109	-1.089482	0.414893	-2.073067	-0.494629	-0.724365	-0.247314	0.585544	0.219073	-0.759958	-0.177791
53029		12.180703	-0.250075	-5.214916	-1.500745	0.304978	-2.042470	-0.471191	-0.730469	-0.263184	0.587081	0.225013	-0.752365	-0.196601
53030		12.450468	0.122207	-5.019870	-1.754582	0.101727	-2.069717	-0.443604	-0.730713	-0.277588	0.587493	0.229434	-0.744945	-0.217414
53031		12.534240	1.635282	-5.554119	-1.603359	-0.077693	-2.244542	-0.412842	-0.740723	-0.290771	0.585881	0.235230	-0.737966	-0.238364
53032		11.173893	4.813270	-4.182882	-1.373237	0.003635	-2.437509	-0.385010	-0.753662	-0.310059	0.583621	0.243367	-0.730283	-0.258546
53033		10.347390	5.504156	-3.847690	-1.412555	-0.047852	-2.286211	-0.358398	-0.760010	-0.322510	0.581149	0.250154	-0.722700	-0.278198
53034		9.061656	4.803942	-3.377461	-1.503613	-0.129799	-1.972827	-0.336426	-0.754395	-0.323242	0.578832	0.254306	-0.715627	-0.296919
53035		7.603527	5.037248	-2.854696	-1.366311	0.016732	-1.547902	-0.324951	-0.753174	-0.343506	0.577939	0.256856	-0.708835	-0.312351
53036		5.196183	7.909218	-2.161879	-1.085537	-0.044447	-1.165640	-0.305908	-0.755615	-0.348877	0.576943	0.258281	-0.703726	-0.324340
53037		4.751863	6.473324	-4.952396	-0.761534	-0.466273	-0.577595	-0.296387	-0.754395	-0.343262	0.574291	0.256648	-0.702699	-0.332470
53038		6.394689	1.278333	-3.035409	-0.943878	-0.007647	0.227767	-0.307617	-0.745361	-0.353760	0.576901	0.250685	-0.700647	-0.336804
53039		5.246886	0.954491	-0.001448	-0.717712	0.288103	0.705729	-0.309814	-0.743896	-0.364014	0.582063	0.243827	-0.698761	-0.336874
