// Start Time: Unknown
// Update Rate: 60.0Hz
// Filter Profile: human (46.1)
// Firmware Version: 4.6.0
PacketCounter	SampleTimeFine	Acc_X	Acc_Y	Acc_Z	Gyr_X	Gyr_Y	Gyr_Z	Mag_X	Mag_Y	Mag_Z	Quat_q0	Quat_q1	Quat_q2	Quat_q3
62092		-3.037589	-8.366765	4.126593	-0.004227	0.005670	-0.001492	0.304688	0.944824	-0.023193	0.662457	-0.284103	0.457124	-0.521032
62093		-3.079924	-8.330687	4.068162	-0.004401	0.007402	-0.005455	0.301270	0.959473	-0.017578	0.662395	-0.284116	0.457171	-0.521063
62094		-3.053959	-8.313929	4.085640	-0.002574	0.005769	-0.006938	0.301270	0.946289	-0.014893	0.662278	-0.284184	0.457162	-0.521181
62095		-3.022799	-8.325264	4.040578	-0.004174	0.008461	-0.008923	0.301514	0.950439	-0.021484	0.662180	-0.284220	0.457194	-0.521259
62096		-3.049842	-8.349357	4.040642	-0.006330	0.016809	-0.005307	0.302979	0.959473	-0.022705	0.662051	-0.284226	0.457284	-0.521340
62097		-3.026294	-8.338717	4.077180	-0.002999	0.017497	-0.006400	0.305420	0.951416	-0.011230	0.661915	-0.284222	0.457356	-0.521452
62098		-3.071997	-8.407359	4.050943	-0.008138	0.012913	-0.004346	0.295410	0.955078	-0.010742	0.661830	-0.284224	0.457460	-0.521467
62099		-3.086678	-8.445782	4.058373	-0.003768	0.012177	-0.003141	0.297119	0.950195	-0.018066	0.661698	-0.284258	0.457500	-0.521581
62100		-3.063666	-8.383247	4.024557	0.001788	0.010561	-0.005217	0.298096	0.951172	-0.016113	0.661593	-0.284261	0.457519	-0.521696
62101		-3.080195	-8.309098	4.024021	0.001636	0.008392	-0.004669	0.303467	0.949219	-0.014648	0.661504	-0.284267	0.457538	-0.521789
62102		-3.116407	-8.378247	4.009963	-0.005819	0.008359	-0.003483	0.291748	0.949463	-0.020264	0.661437	-0.284278	0.457622	-0.521794
62103		-3.101644	-8.366659	4.035756	-0.002947	0.002540	-0.002927	0.306885	0.949951	-0.018311	0.661337	-0.284349	0.457624	-0.521881
62104		-3.034054	-8.380791	4.036810	-0.000879	0.000830	-0.003104	0.298340	0.945312	-0.014648	0.661325	-0.284346	0.457672	-0.521855
62105		-3.059025	-8.377982	4.057047	-0.002236	0.003442	-0.003786	0.295410	0.950195	-0.019775	0.661261	-0.284375	0.457716	-0.521882
62106		-3.125899	-8.390296	4.090523	-0.006346	0.000196	0.000822	0.304688	0.952881	-0.017090	0.661200	-0.284437	0.457754	-0.521893
62107		-3.142516	-8.382914	4.047430	-0.001038	0.001424	-0.002297	0.299561	0.951904	-0.015869	0.661165	-0.284447	0.457816	-0.521876
62108		-3.081710	-8.369522	4.057156	0.007931	-0.003374	-0.008638	0.305908	0.947510	-0.011963	0.661124	-0.284463	0.457786	-0.521946
62109		-3.020458	-8.422577	4.025323	0.007062	-0.003682	-0.006972	0.301270	0.954102	-0.014160	0.661122	-0.284449	0.457800	-0.521944
62110		-3.026718	-8.395170	4.034153	0.005635	-0.002724	-0.004994	0.298584	0.943604	-0.013428	0.661087	-0.284466	0.457810	-0.521970
62111		-3.040475	-8.340533	4.050512	0.004126	-0.002281	-0.005127	0.305664	0.949707	-0.022949	0.661065	-0.284469	0.457802	-0.522003
62112		-3.059660	-8.298790	4.051561	0.005396	-0.002646	-0.006298	0.305420	0.946289	-0.012695	0.661077	-0.284432	0.457783	-0.522026
62113		-3.074762	-8.363191	4.041976	0.003088	-0.000858	-0.007425	0.301025	0.947266	-0.012939	0.661047	-0.284436	0.457830	-0.522019
62114		-3.062995	-8.404735	4.029618	-0.010821	0.007075	-0.006751	0.303711	0.946045	-0.009033	0.660939	-0.284496	0.457966	-0.522005
62115		-3.033886	-8.375942	4.007265	-0.001534	0.007107	-0.004389	0.301758	0.955566	-0.013672	0.660865	-0.284498	0.458096	-0.521984
62116		-3.053599	-8.313600	4.047084	0.016551	0.008465	-0.007044	0.295166	0.948975	-0.019287	0.660797	-0.284423	0.458139	-0.522072
62117		-3.103243	-8.332411	4.125933	0.017217	-0.000577	-0.006018	0.299561	0.949463	-0.015381	0.660784	-0.284355	0.458056	-0.522198
62118		-3.071497	-8.435434	4.075779	-0.006844	0.004249	-0.006301	0.301270	0.954346	-0.014404	0.660698	-0.284395	0.458150	-0.522204
62119		-3.020021	-8.488799	4.029722	-0.011857	0.008494	-0.009054	0.303955	0.947021	-0.016357	0.660560	-0.284469	0.458307	-0.522200
62120		-2.981862	-8.388792	3.986827	0.004497	0.006475	-0.008630	0.307373	0.955078	-0.010742	0.660505	-0.284416	0.458367	-0.522245
62121		-3.050747	-8.201072	4.094281	0.020851	0.006084	-0.003174	0.304688	0.952393	-0.017090	0.660483	-0.284304	0.458432	-0.522277
62122		-3.077724	-8.249574	4.132521	0.003066	0.009060	-0.001623	0.302979	0.952637	-0.020996	0.660437	-0.284233	0.458538	-0.522282
62123		-3.053893	-8.439306	4.041626	-0.029249	0.013557	-0.006755	0.303467	0.949707	-0.011719	0.660286	-0.284319	0.458763	-0.522228
62124		-2.994984	-8.546609	4.021228	-0.017089	0.008913	-0.008603	0.300781	0.945801	-0.010498	0.660153	-0.284403	0.458946	-0.522189
62125		-3.021835	-8.478446	4.028088	0.005148	0.002963	-0.007085	0.305664	0.957520	-0.019043	0.660097	-0.284397	0.458982	-0.522232
62126		-3.096882	-8.318716	4.006903	0.018478	0.003458	-0.001891	0.303711	0.947266	-0.012939	0.660107	-0.284273	0.458987	-0.522282
62127		-3.156812	-8.264841	4.041618	0.011008	0.007317	-0.005226	0.311279	0.949951	-0.013672	0.660067	-0.284189	0.459037	-0.522333
62128		-3.098101	-8.344519	3.989624	-0.001626	0.013249	-0.010768	0.302734	0.948242	-0.016602	0.659977	-0.284131	0.459210	-0.522328
62129		-3.066327	-8.427761	3.976783	-0.002344	0.015109	-0.009652	0.298584	0.947021	-0.015137	0.659865	-0.284079	0.459332	-0.522390
62130		-3.068070	-8.388019	3.999128	0.001796	0.010559	-0.005228	0.297119	0.952148	-0.018066	0.659781	-0.284036	0.459406	-0.522455
62131		-3.100692	-8.357697	4.027507	0.004756	0.002498	-0.002808	0.308350	0.948975	-0.022217	0.659737	-0.284010	0.459417	-0.522514
62132		-3.085603	-8.391591	4.051526	0.005867	0.002729	-0.003171	0.296143	0.955566	-0.015625	0.659761	-0.283877	0.459459	-0.522520
62133		-3.052427	-8.421639	4.024147	0.006834	-0.001972	-0.003239	0.305420	0.956543	-0.015869	0.659716	-0.283895	0.459452	-0.522573
62134		-3.053655	-8.427559	4.044522	0.002298	0.002114	-0.003389	0.306885	0.945801	-0.014893	0.659682	-0.283878	0.459540	-0.522548
62135		-3.067757	-8.373105	4.060335	0.001527	-0.004833	-0.005153	0.303711	0.948242	-0.021484	0.659691	-0.283859	0.459580	-0.522512
62136		-3.052697	-8.309420	4.016816	0.008126	-0.007862	-0.004923	0.291748	0.952148	-0.015137	0.659734	-0.283792	0.459519	-0.522547
62137		-3.025860	-8.337873	4.033470	0.009940	-0.003965	-0.005891	0.293945	0.956787	-0.017822	0.659672	-0.283831	0.459450	-0.522665
62138		-3.021588	-8.351187	4.030699	0.004130	-0.000650	-0.000093	0.297607	0.951416	-0.021240	0.659620	-0.283852	0.459441	-0.522727
62139		-3.068740	-8.358418	4.068416	0.004358	0.002036	0.001468	0.310791	0.955566	-0.013916	0.659611	-0.283788	0.459436	-0.522778
62140		-3.107106	-8.340881	4.081463	-0.001909	0.001112	-0.000633	0.301758	0.956299	-0.016602	0.659608	-0.283772	0.459579	-0.522664
62141		-3.072574	-8.345082	4.071563	-0.007634	0.004449	-0.002531	0.302246	0.951660	-0.012695	0.659536	-0.283807	0.459689	-0.522639
62142		-3.068646	-8.359265	4.066747	-0.002316	0.005681	-0.005651	0.301270	0.949463	-0.018555	0.659456	-0.283824	0.459797	-0.522635
62143		-3.029803	-8.356426	4.092705	0.005555	0.002289	-0.006591	0.301758	0.946777	-0.012451	0.659432	-0.283764	0.459795	-0.522700
62144		-3.054755	-8.373977	4.074419	0.000447	0.010403	-0.006176	0.306396	0.947998	-0.010254	0.659349	-0.283731	0.459906	-0.522726
62145		-3.096830	-8.317660	4.054771	-0.003766	0.013298	-0.007941	0.300293	0.952881	-0.020020	0.659253	-0.283711	0.460092	-0.522695
62146		-3.083741	-8.333058	4.060434	-0.011794	0.018416	-0.010975	0.302246	0.950439	-0.012695	0.659105	-0.283695	0.460222	-0.522775
62147		-2.994176	-8.383815	4.039097	-0.017827	0.020175	-0.011521	0.308105	0.944824	-0.013184	0.658920	-0.283742	0.460454	-0.522778
62148		-2.922949	-8.432880	3.995158	-0.009244	0.016555	-0.008541	0.300781	0.954102	-0.015137	0.658839	-0.283681	0.460655	-0.522736
62149		-2.986585	-8.413097	4.027270	0.002108	0.014896	-0.006335	0.304443	0.952881	-0.013184	0.658743	-0.283629	0.460746	-0.522806
62150		-3.025366	-8.375431	4.078375	-0.000211	0.018306	-0.002437	0.305420	0.954834	-0.006836	0.658663	-0.283552	0.460908	-0.522804
62151		-3.036640	-8.427520	4.081623	-0.011710	0.017795	-0.004097	0.295654	0.955566	-0.018066	0.658527	-0.283607	0.461171	-0.522714
62152		-2.971623	-8.463289	3.987160	-0.011933	0.015109	-0.005660	0.300537	0.951172	-0.015869	0.658380	-0.283640	0.461257	-0.522806
62153		-2.926843	-8.395699	4.010647	0.000535	0.010921	-0.004064	0.301758	0.948486	-0.013428	0.658319	-0.283585	0.461313	-0.522864
62154		-3.037189	-8.325525	3.989201	-0.003936	0.014383	0.002669	0.303223	0.955322	-0.021240	0.658267	-0.283520	0.461447	-0.522846
62155		-3.153047	-8.340627	3.983190	-0.017120	0.020429	0.002182	0.306641	0.955322	-0.013672	0.658192	-0.283449	0.461608	-0.522836
62156		-3.210018	-8.441134	3.998407	-0.020909	0.017124	0.000394	0.296875	0.945557	-0.011230	0.658104	-0.283466	0.461850	-0.522725
62157		-3.143261	-8.476337	3.958066	-0.013184	0.012707	-0.004757	0.300781	0.946289	-0.009033	0.657963	-0.283516	0.461988	-0.522752
62158		-3.111237	-8.394339	3.974252	-0.001266	-0.002401	0.000911	0.305908	0.954346	-0.008301	0.657953	-0.283541	0.462049	-0.522698
62159		-3.184981	-8.301193	3.963698	-0.002949	-0.002506	0.006358	0.302246	0.959229	-0.005859	0.657981	-0.283562	0.462167	-0.522548
62160		-3.274561	-8.298281	3.978033	-0.004924	-0.001910	0.003607	0.301514	0.951904	-0.010498	0.657936	-0.283666	0.462293	-0.522435
62161		-3.297941	-8.335837	3.974457	-0.008006	0.002354	-0.003305	0.307861	0.950439	-0.013428	0.657874	-0.283715	0.462391	-0.522401
62162		-3.173347	-8.349010	4.023642	-0.011391	0.006180	-0.013636	0.305664	0.953369	-0.018799	0.657812	-0.283715	0.462509	-0.522374
62163		-3.035639	-8.350763	4.045165	-0.003222	0.003234	-0.011139	0.298828	0.947510	-0.014404	0.657797	-0.283645	0.462515	-0.522426
62164		-2.971488	-8.351250	4.050068	-0.004926	0.004751	-0.000658	0.298584	0.944336	-0.006836	0.657755	-0.283604	0.462564	-0.522457
62165		-2.975267	-8.363858	4.088484	-0.006751	0.003615	0.000560	0.297363	0.958740	-0.012695	0.657687	-0.283642	0.462690	-0.522411
62166		-3.022020	-8.485369	4.077234	-0.022621	0.012110	-0.001571	0.302246	0.952637	-0.015381	0.657527	-0.283747	0.462852	-0.522411
62167		-3.022602	-8.481684	3.998560	-0.024915	0.020556	-0.006974	0.300049	0.952393	-0.012207	0.657381	-0.283759	0.463051	-0.522413
62168		-2.997993	-8.393816	3.981563	-0.011258	0.015498	-0.008643	0.301025	0.945801	-0.014160	0.657246	-0.283768	0.463174	-0.522469
62169		-2.948763	-8.406264	3.959507	0.007762	0.013819	-0.006262	0.304932	0.948730	-0.006592	0.657211	-0.283617	0.463194	-0.522577
62170		-3.021503	-8.431118	3.978345	0.007435	0.008340	-0.000385	0.305908	0.962402	-0.010742	0.657210	-0.283538	0.463297	-0.522530
62171		-3.012635	-8.457794	4.024936	-0.006512	0.010198	-0.002402	0.298096	0.946289	-0.015625	0.657156	-0.283543	0.463421	-0.522484
62172		-3.018708	-8.491716	3.968315	-0.020021	0.006854	0.007491	0.306396	0.955078	-0.006348	0.657120	-0.283532	0.463521	-0.522447
62173		-3.035114	-8.458347	3.942059	-0.016378	0.005225	0.009575	0.305176	0.954590	-0.015869	0.657115	-0.283580	0.463732	-0.522241
62174		-3.066178	-8.369953	3.932850	-0.003990	-0.004994	0.008567	0.302734	0.950195	-0.008545	0.657213	-0.283516	0.463719	-0.522163
62175		-3.076197	-8.369052	3.920897	-0.006053	-0.003291	0.008735	0.307129	0.944824	-0.006348	0.657247	-0.283532	0.463791	-0.522047
62176		-3.094967	-8.460087	3.889478	-0.015261	0.005459	0.009216	0.301514	0.956787	-0.008545	0.657272	-0.283534	0.463996	-0.521833
62177		-3.100246	-8.446905	3.891222	-0.010498	0.007967	0.006424	0.296143	0.957031	-0.013184	0.657211	-0.283568	0.464129	-0.521773
62178		-3.153121	-8.389118	3.860026	0.002169	0.006462	0.009612	0.299316	0.955566	-0.007568	0.657171	-0.283512	0.464131	-0.521852
62179		-3.149642	-8.401147	3.911547	0.010790	0.003354	0.014732	0.302490	0.945068	-0.005859	0.657188	-0.283432	0.464168	-0.521841
62180		-3.073279	-8.500359	3.899320	0.007136	0.003841	0.017420	0.299805	0.953369	-0.005371	0.657251	-0.283317	0.464271	-0.521733
62181		-3.068731	-8.479713	3.896622	0.016572	-0.002232	0.018503	0.297607	0.955566	-0.011475	0.657310	-0.283230	0.464289	-0.521690
62182		-3.115194	-8.426578	3.900708	0.024971	-0.008026	0.022056	0.309326	0.944092	-0.006104	0.657432	-0.283078	0.464170	-0.521724
62183		-3.098367	-8.337634	4.064399	0.030999	-0.019217	0.026616	0.311035	0.949707	-0.009277	0.657733	-0.282860	0.464100	-0.521525
62184		-3.122187	-8.391289	4.082212	0.022373	-0.020009	0.026011	0.314941	0.950684	-0.011963	0.658027	-0.282684	0.464032	-0.521311
62185		-3.129728	-8.421965	4.031373	0.018269	-0.003269	0.017818	0.298584	0.950684	-0.011963	0.658251	-0.282449	0.464042	-0.521146
62186		-3.097456	-8.403015	4.064700	0.029308	0.004048	0.012621	0.310791	0.950928	-0.014648	0.658292	-0.282257	0.463956	-0.521275
62187		-3.101722	-8.354548	4.017652	0.041856	0.019206	0.008323	0.305420	0.951660	-0.017334	0.658410	-0.281846	0.463919	-0.521380
62188		-3.133523	-8.263125	4.013512	0.034356	0.034734	-0.000919	0.302490	0.958496	-0.016602	0.658367	-0.281464	0.463929	-0.521632
62189		-3.017942	-8.219808	4.093600	0.025415	0.041794	-0.004181	0.297852	0.957275	-0.011963	0.658211	-0.281167	0.464005	-0.521922
62190		-2.922032	-8.335471	4.045388	0.011130	0.049253	0.000681	0.312988	0.943848	-0.022949	0.657948	-0.280965	0.464227	-0.522164
62191		-2.947446	-8.360389	3.947263	0.010113	0.060583	0.004142	0.299805	0.947510	-0.011475	0.657900	-0.280468	0.464472	-0.522274
62192		-3.043831	-8.300666	4.096884	0.016794	0.058063	0.006503	0.305420	0.947510	-0.014893	0.657679	-0.280134	0.464747	-0.522487
62193		-3.156228	-8.320587	4.122005	0.006937	0.072578	0.003510	0.309570	0.944580	-0.015869	0.657443	-0.279740	0.465120	-0.522664
62194		-3.167658	-8.400928	4.005775	-0.001720	0.092345	-0.009167	0.301758	0.946533	-0.007812	0.657111	-0.279314	0.465611	-0.522872
62195		-3.190798	-8.379293	4.017039	0.007256	0.094173	-0.012056	0.301514	0.946045	-0.002686	0.656651	-0.278958	0.466121	-0.523186
62196		-3.164820	-8.323403	4.011558	0.005196	0.086456	-0.007894	0.305420	0.953369	-0.012451	0.656207	-0.278669	0.466658	-0.523418
62197		-3.142140	-8.294789	3.931833	-0.002147	0.083553	0.001958	0.315430	0.943115	-0.014893	0.655881	-0.278304	0.467131	-0.523599
62198		-3.160163	-8.326613	3.916290	-0.004084	0.072486	0.005084	0.307129	0.950684	-0.017090	0.655754	-0.277874	0.467570	-0.523594
62199		-3.226596	-8.438795	3.914581	-0.009326	0.064624	0.004743	0.304443	0.953369	-0.013428	0.655545	-0.277555	0.467926	-0.523707
62200		-3.220517	-8.531201	3.970792	0.003719	0.057526	0.001121	0.308350	0.958984	-0.011719	0.655323	-0.277262	0.468204	-0.523892
62201		-3.182888	-8.448779	3.998904	0.019496	0.051867	-0.005362	0.306885	0.946289	-0.007812	0.655146	-0.276946	0.468394	-0.524110
62202		-3.109590	-8.343976	3.984588	0.023481	0.051805	-0.004620	0.306885	0.953369	-0.018799	0.654984	-0.276609	0.468611	-0.524297
62203		-3.184380	-8.222878	3.991930	0.017125	0.048623	0.002769	0.313232	0.949219	-0.016357	0.654888	-0.276217	0.468736	-0.524511
62204		-3.368448	-8.196556	3.999555	-0.013798	0.054893	0.003208	0.313477	0.950684	-0.017822	0.654764	-0.275949	0.469080	-0.524501
62205		-3.488789	-8.218413	4.006690	-0.034377	0.061521	-0.003250	0.306641	0.942871	-0.010986	0.654541	-0.275774	0.469516	-0.524480
62206		-3.402259	-8.270360	3.982601	-0.032259	0.055424	-0.008666	0.309082	0.946777	-0.014648	0.654242	-0.275695	0.469946	-0.524509
62207		-3.316131	-8.369825	3.846641	-0.021582	0.061740	-0.011650	0.307129	0.947510	-0.007568	0.653966	-0.275500	0.470319	-0.524622
62208		-3.342874	-8.435107	3.818800	-0.010892	0.055300	-0.011602	0.305908	0.953369	-0.007324	0.653686	-0.275343	0.470672	-0.524737
62209		-3.336259	-8.462913	3.861884	-0.011455	0.038288	-0.008770	0.307373	0.953125	-0.005371	0.653454	-0.275268	0.470935	-0.524830
62210		-3.258727	-8.379189	3.915886	-0.002767	0.026934	-0.011955	0.304932	0.955811	-0.002441	0.653282	-0.275215	0.471112	-0.524912
62211		-3.244218	-8.388025	3.902748	0.000939	0.018579	-0.004209	0.310791	0.949219	-0.005371	0.653142	-0.275187	0.471264	-0.524965
62212		-3.265350	-8.439510	3.892821	-0.026144	0.025264	0.006699	0.311035	0.956299	0.000244	0.653057	-0.275168	0.471583	-0.524794
62213		-3.260627	-8.398036	3.737449	-0.037677	0.029246	0.001138	0.308350	0.952148	-0.009766	0.652863	-0.275279	0.472006	-0.524597
62214		-3.180165	-8.281413	3.844553	-0.008857	0.009184	0.003735	0.307129	0.954346	-0.007080	0.652852	-0.275212	0.472093	-0.524566
62215		-3.121294	-8.266176	3.911557	0.020943	-0.020163	0.019054	0.315430	0.945312	-0.005371	0.653063	-0.275087	0.471945	-0.524503
62216		-3.041913	-8.383712	4.027718	-0.014165	-0.032771	0.035724	0.314697	0.948730	-0.006348	0.653410	-0.275108	0.471964	-0.524043
62217		-2.987780	-8.680067	4.016011	-0.053916	-0.038461	0.051075	0.316162	0.946289	-0.002197	0.653735	-0.275317	0.472142	-0.523366
62218		-2.954951	-8.817842	3.918223	-0.044071	-0.046836	0.047759	0.314941	0.950439	-0.002197	0.654099	-0.275552	0.472255	-0.522686
62219		-2.991147	-8.623019	3.918338	-0.017767	-0.052200	0.035810	0.311279	0.956055	-0.000977	0.654461	-0.275735	0.472181	-0.522203
62220		-3.156425	-8.366469	3.915672	0.008145	-0.054768	0.030479	0.312012	0.951172	-0.009033	0.654811	-0.275857	0.471960	-0.521899
62221		-3.338785	-8.127715	3.852099	0.000408	-0.043730	0.038898	0.313232	0.951172	0.000000	0.655173	-0.275850	0.471791	-0.521602
62222		-3.372457	-8.064535	3.770363	-0.023188	-0.037310	0.036885	0.317139	0.948975	-0.005371	0.655422	-0.276038	0.471835	-0.521150
62223		-3.214537	-8.141250	3.805568	-0.041362	-0.029780	0.040818	0.316895	0.955322	-0.000244	0.655667	-0.276201	0.471973	-0.520630
62224		-3.235797	-8.283359	3.898189	-0.032638	-0.048407	0.041058	0.308838	0.946533	-0.002930	0.655970	-0.276463	0.472001	-0.520083
62225		-3.469950	-8.439827	4.062373	-0.025461	-0.051577	0.036291	0.315186	0.950684	0.000244	0.656229	-0.276702	0.471928	-0.519695
62226		-3.652952	-8.511088	4.085148	-0.017089	-0.039451	0.018666	0.322510	0.946777	-0.005127	0.656417	-0.276924	0.471882	-0.519381
62227		-3.460068	-8.415396	4.037530	-0.013838	-0.014064	-0.009207	0.323242	0.950439	-0.008545	0.656475	-0.277032	0.471876	-0.519257
62228		-3.041020	-8.254628	3.913954	-0.012673	0.011248	-0.025281	0.317627	0.953857	0.000732	0.656374	-0.277060	0.471937	-0.519313
62229		-2.883707	-8.089944	3.860570	-0.009437	0.030171	-0.021119	0.317139	0.950684	-0.012451	0.656150	-0.277094	0.472148	-0.519387
62230		-3.197488	-7.974772	4.142674	-0.028097	0.028318	-0.006758	0.310547	0.944824	-0.004639	0.655991	-0.277046	0.472359	-0.519422
62231		-3.523840	-8.119249	4.315024	-0.088501	0.045122	-0.010815	0.308594	0.952637	0.000488	0.655546	-0.277350	0.472956	-0.519278
62232		-3.528093	-8.451367	4.053979	-0.094791	0.077160	-0.031414	0.316162	0.953369	0.000000	0.654833	-0.277688	0.473724	-0.519297
62233		-3.195280	-8.597923	3.679235	-0.095383	0.098732	-0.055578	0.309326	0.946777	0.002441	0.654003	-0.277975	0.474557	-0.519429
62234		-2.913729	-8.325980	3.621601	-0.035774	0.102038	-0.045110	0.314697	0.951660	0.002686	0.653302	-0.277892	0.475169	-0.519795
62235		-3.055423	-8.135060	3.845305	-0.013110	0.098329	-0.022403	0.312500	0.944580	0.007324	0.652811	-0.277596	0.475718	-0.520068
62236		-3.315900	-8.359918	4.030343	-0.054711	0.079404	-0.011265	0.311523	0.953125	0.007568	0.652333	-0.277587	0.476401	-0.520047
62237		-3.358420	-8.815039	3.792364	-0.056373	0.050691	-0.019025	0.309082	0.945312	0.009033	0.651912	-0.277756	0.476898	-0.520029
62238		-3.286417	-8.866994	3.578342	-0.042570	0.046363	-0.035059	0.305420	0.945801	0.007080	0.651465	-0.277925	0.477279	-0.520149
62239		-3.168562	-8.223283	3.687715	0.016152	0.028047	-0.037955	0.313721	0.953125	0.004883	0.651195	-0.277855	0.477271	-0.520532
62240		-3.281174	-7.842189	3.787744	0.022287	0.017597	-0.018764	0.313232	0.954102	0.007812	0.651133	-0.277689	0.477222	-0.520743
62241		-3.518667	-8.153506	3.810498	-0.030261	0.026104	-0.003593	0.306152	0.944580	0.007568	0.650966	-0.277738	0.477506	-0.520665
62242		-3.662598	-8.807119	3.726918	-0.079915	0.022866	0.001865	0.315674	0.948975	0.006104	0.650682	-0.278042	0.477988	-0.520415
62243		-3.619236	-9.001239	3.371867	-0.087587	0.024994	-0.020413	0.311279	0.954834	0.008789	0.650355	-0.278422	0.478459	-0.520189
62244		-3.418473	-8.519477	3.459831	-0.000143	-0.013057	-0.037287	0.315918	0.945312	0.016846	0.650256	-0.278597	0.478305	-0.520361
62245		-3.203395	-8.120494	3.654305	0.059279	-0.060141	-0.020265	0.309082	0.956299	0.011719	0.650593	-0.278613	0.477758	-0.520434
62246		-3.169975	-8.186270	3.767409	0.056123	-0.082503	0.011199	0.316162	0.946777	0.011719	0.651083	-0.278632	0.477125	-0.520391
62247		-3.261498	-8.733186	3.674369	0.013669	-0.074028	0.016163	0.312744	0.951172	-0.002686	0.651532	-0.278789	0.476763	-0.520077
62248		-3.361057	-8.879910	3.651013	-0.008186	-0.038456	-0.005185	0.309326	0.949463	0.013672	0.651694	-0.278910	0.476528	-0.520024
62249		-3.383125	-8.435101	3.841456	0.055453	-0.042338	-0.025734	0.303467	0.951904	0.010010	0.651859	-0.278925	0.476063	-0.520234
62250		-3.248040	-8.024007	3.824960	0.083470	-0.042929	-0.017648	0.313232	0.945801	0.004150	0.652086	-0.278759	0.475461	-0.520590
62251		-3.091628	-8.069705	3.771537	0.041622	-0.042628	0.001687	0.308838	0.942139	-0.000488	0.652403	-0.278660	0.475079	-0.520594
62252		-2.957366	-8.338506	3.912673	0.006303	-0.029144	0.011818	0.319824	0.952393	0.001465	0.652609	-0.278632	0.474914	-0.520502
62253		-2.927698	-8.571309	4.039403	-0.002745	-0.016990	0.005539	0.311035	0.955811	0.005615	0.652781	-0.278636	0.474866	-0.520328
62254		-3.053030	-8.616719	4.023257	0.018779	-0.015328	-0.007649	0.306152	0.948975	-0.000488	0.652850	-0.278638	0.474711	-0.520382
62255		-3.229425	-8.398415	4.088571	0.040160	-0.015991	-0.011296	0.312988	0.953613	0.002197	0.652943	-0.278496	0.474406	-0.520618
62256		-3.182820	-8.138072	4.061036	0.023350	-0.005624	-0.006157	0.312012	0.956543	0.011230	0.653019	-0.278396	0.474275	-0.520696
62257		-3.035805	-8.153646	3.931557	0.001753	0.018417	-0.007868	0.315918	0.949951	0.005127	0.652905	-0.278395	0.474426	-0.520703
62258		-3.007297	-8.263618	3.788154	-0.015568	0.041221	-0.010418	0.314209	0.954346	0.001953	0.652708	-0.278325	0.474737	-0.520703
62259		-3.047105	-8.372651	4.007031	-0.025394	0.044191	-0.016622	0.308105	0.948730	0.011230	0.652439	-0.278309	0.475060	-0.520755
62260		-3.215997	-8.502984	3.896456	-0.035827	0.052118	-0.010362	0.295166	0.947021	0.004639	0.652086	-0.278363	0.475535	-0.520734
62261		-3.324820	-8.475074	3.787667	-0.034098	0.056598	-0.010512	0.308594	0.947754	0.006104	0.651644	-0.278368	0.475953	-0.520903
62262		-3.252354	-8.379213	3.843976	-0.006543	0.043588	-0.011076	0.318604	0.949707	0.006348	0.651414	-0.278243	0.476210	-0.521023
62263		-3.188702	-8.446228	3.750966	-0.000971	0.031985	-0.009840	0.315430	0.955811	0.011230	0.651320	-0.278106	0.476400	-0.521040
62264		-3.308311	-8.566915	3.607781	-0.014816	0.043864	-0.015287	0.312744	0.951660	0.005127	0.651078	-0.278072	0.476721	-0.521067
62265		-3.342205	-8.373669	3.717742	-0.003282	0.040525	-0.016604	0.310791	0.945312	0.008789	0.650873	-0.277945	0.476926	-0.521202
62266		-3.187190	-8.251551	3.774808	0.022420	0.033996	-0.008275	0.311279	0.955078	0.005371	0.650779	-0.277691	0.477029	-0.521362
62267		-3.155865	-8.379225	3.760158	0.017407	0.031561	-0.006871	0.313232	0.948486	0.009277	0.650685	-0.277464	0.477114	-0.521521
62268		-3.147254	-8.544603	3.904269	-0.010864	0.020856	0.000649	0.312256	0.944824	0.003174	0.650616	-0.277417	0.477317	-0.521447
62269		-3.219695	-8.683676	3.814209	-0.034723	0.020601	0.001464	0.312256	0.942627	0.003906	0.650508	-0.277447	0.477583	-0.521323
62270		-3.398360	-8.555226	3.676189	-0.019045	0.037159	-0.004164	0.310791	0.948975	0.006348	0.650347	-0.277340	0.477859	-0.521326
62271		-3.537062	-8.251779	3.689497	0.009777	0.031583	-0.007135	0.307861	0.955811	0.001709	0.650238	-0.277147	0.477979	-0.521456
62272		-3.335956	-8.126875	3.788225	0.029968	0.012438	-0.007878	0.317871	0.942383	0.004639	0.650226	-0.276914	0.477869	-0.521695
62273		-3.068011	-8.397106	3.790657	0.019522	0.010494	-0.007440	0.312012	0.947266	0.002441	0.650289	-0.276720	0.477840	-0.521747
62274		-3.069191	-8.686757	3.806960	-0.005156	0.018334	-0.013249	0.317383	0.955566	0.002686	0.650190	-0.276659	0.477923	-0.521826
62275		-3.206480	-8.621006	3.820301	-0.012649	0.027623	-0.008558	0.308838	0.955811	0.005127	0.650084	-0.276585	0.478102	-0.521833
62276		-3.414022	-8.357173	3.789794	-0.006449	0.035801	-0.009805	0.310059	0.949219	0.010742	0.649887	-0.276483	0.478297	-0.521954
62277		-3.575503	-8.209765	3.716991	0.003764	0.037329	-0.013668	0.308838	0.944580	0.009766	0.649701	-0.276360	0.478485	-0.522078
62278		-3.370763	-8.171666	3.732298	0.017800	0.022783	-0.016113	0.309326	0.949219	0.000000	0.649596	-0.276216	0.478524	-0.522250
62279		-3.094488	-8.423237	3.785480	0.020529	0.004222	-0.012492	0.307373	0.950928	0.002930	0.649600	-0.276059	0.478401	-0.522441
62280		-3.016222	-8.720873	3.744031	-0.002742	0.000942	-0.008037	0.315430	0.951904	0.007568	0.649561	-0.276056	0.478388	-0.522502
62281		-3.133582	-8.722256	3.794668	0.001462	0.004066	-0.003561	0.305420	0.950928	0.000244	0.649592	-0.276022	0.478417	-0.522454
62282		-3.352596	-8.488961	3.755799	0.013074	0.006755	-0.002217	0.310059	0.954346	-0.004395	0.649582	-0.275872	0.478362	-0.522597
62283		-3.428464	-8.282854	3.683146	0.025375	0.012099	-0.005701	0.308105	0.956299	0.007080	0.649601	-0.275614	0.478251	-0.522810
62284		-3.405966	-8.224412	3.729764	0.031152	-0.004427	-0.010493	0.308105	0.952393	0.007324	0.649639	-0.275505	0.478083	-0.522975
62285		-3.243297	-8.371492	3.804022	0.008747	-0.015149	-0.006313	0.318115	0.954346	0.010254	0.649692	-0.275545	0.477970	-0.522990
62286		-3.099222	-8.544036	3.832950	-0.004975	-0.011794	-0.002253	0.309326	0.951660	0.004883	0.649786	-0.275638	0.477971	-0.522825
62287		-3.077606	-8.559683	3.851994	-0.008343	-0.002638	0.004539	0.319092	0.954590	0.004395	0.649812	-0.275656	0.478013	-0.522744
62288		-3.161772	-8.373788	3.834342	-0.008409	0.013973	0.004711	0.314209	0.956299	0.011475	0.649841	-0.275587	0.478148	-0.522622
62289		-3.247510	-8.358811	3.860192	-0.001997	0.014459	-0.002867	0.306641	0.958984	0.014648	0.649797	-0.275571	0.478273	-0.522570
62290		-3.286013	-8.388580	3.811615	-0.006324	0.024684	-0.009532	0.305176	0.947266	0.000977	0.649613	-0.275600	0.478463	-0.522611
62291		-3.320195	-8.359836	3.836311	-0.008190	0.033044	-0.013701	0.310059	0.947754	0.004639	0.649400	-0.275503	0.478626	-0.522776
62292		-3.376275	-8.342384	3.821496	-0.006374	0.035931	-0.018875	0.309082	0.952148	0.006104	0.649188	-0.275420	0.478809	-0.522915
62293		-3.337928	-8.314738	3.810785	-0.004650	0.040415	-0.019020	0.307373	0.947754	0.007080	0.648948	-0.275324	0.479012	-0.523078
62294		-3.197225	-8.349739	3.847823	-0.001812	0.037880	-0.016014	0.313232	0.948242	0.006104	0.648732	-0.275212	0.479201	-0.523232
62295		-3.159499	-8.466469	3.791268	-0.002754	0.029801	-0.012993	0.308594	0.949707	0.005371	0.648604	-0.275112	0.479355	-0.523302
62296		-3.151530	-8.494534	3.781521	-0.001646	0.034535	-0.017073	0.313721	0.957520	0.005127	0.648409	-0.275004	0.479511	-0.523457
62297		-3.202649	-8.437204	3.912872	0.004353	0.026047	-0.010779	0.307129	0.953369	0.012695	0.648315	-0.274877	0.479607	-0.523552
62298		-3.296766	-8.448788	3.741524	-0.016603	0.036477	-0.007935	0.309814	0.957764	0.014648	0.648094	-0.274862	0.479894	-0.523572
62299		-3.359359	-8.398373	3.767573	-0.021883	0.040362	-0.015585	0.310547	0.945801	0.006348	0.647822	-0.274900	0.480214	-0.523595
62300		-3.316985	-8.431457	3.746257	-0.034748	0.031256	-0.010224	0.306396	0.952881	0.010498	0.647616	-0.274946	0.480514	-0.523549
62301		-3.279583	-8.503700	3.634417	-0.031755	0.032636	-0.011752	0.310791	0.947754	0.017578	0.647363	-0.275016	0.480817	-0.523549
62302		-3.361662	-8.556865	3.558394	-0.017266	0.021210	-0.009136	0.310059	0.945312	0.005615	0.647229	-0.275076	0.481039	-0.523478
62303		-3.420808	-8.499239	3.567788	0.003169	0.010303	-0.007679	0.296631	0.957031	0.007324	0.647206	-0.274982	0.481056	-0.523541
62304		-3.349332	-8.453265	3.648117	0.022485	0.001411	-0.007752	0.304199	0.952393	0.012207	0.647152	-0.274870	0.480933	-0.523779
62305		-3.339657	-8.453150	3.663132	0.021148	-0.005997	-0.005239	0.305664	0.949951	0.011230	0.647188	-0.274804	0.480817	-0.523875
62306		-3.259081	-8.407182	3.702310	0.019126	-0.013307	0.002352	0.307861	0.947998	0.020508	0.647297	-0.274741	0.480688	-0.523892
62307		-3.259415	-8.478886	3.735203	-0.006893	-0.010340	0.008180	0.303955	0.950439	0.007568	0.647361	-0.274837	0.480754	-0.523702
62308		-3.202746	-8.497750	3.747454	-0.002051	-0.015918	-0.004275	0.305908	0.954834	0.009277	0.647394	-0.274908	0.480668	-0.523703
62309		-3.214380	-8.483285	3.795496	0.004695	-0.020742	0.001432	0.311523	0.952637	0.007568	0.647491	-0.274955	0.480548	-0.523668
62310		-3.234398	-8.467463	3.778079	0.010637	-0.025230	0.001884	0.305664	0.946045	0.009521	0.647664	-0.274968	0.480376	-0.523606
62311		-3.278065	-8.442489	3.761139	0.014013	-0.019515	-0.000751	0.303467	0.953857	0.008789	0.647777	-0.274963	0.480224	-0.523608
62312		-3.320466	-8.364507	3.784177	0.024488	-0.022047	0.002582	0.308105	0.944824	-0.002197	0.647913	-0.274909	0.480013	-0.523662
62313		-3.292137	-8.339497	3.788426	0.018091	-0.020651	-0.002859	0.304199	0.958740	0.005615	0.648067	-0.274827	0.479778	-0.523729
62314		-3.247011	-8.343164	3.795305	0.009552	-0.008715	-0.006642	0.311279	0.943359	0.004639	0.648074	-0.274822	0.479672	-0.523821
62315		-3.246605	-8.297110	3.799875	-0.003071	-0.002896	-0.004823	0.305420	0.954346	0.009766	0.648113	-0.274826	0.479661	-0.523780
62316		-3.247025	-8.323767	3.834599	-0.006937	-0.001845	-0.001404	0.306396	0.955566	0.003174	0.648085	-0.274878	0.479701	-0.523751
62317		-3.261309	-8.507513	3.794034	-0.016380	0.005272	0.000206	0.307861	0.956299	0.006104	0.648032	-0.274905	0.479789	-0.523721
62318		-3.271282	-8.560146	3.741265	-0.007326	0.003325	-0.005656	0.308350	0.953613	0.011475	0.647985	-0.274930	0.479829	-0.523730
62319		-3.245648	-8.470560	3.784826	0.013444	-0.007008	-0.009816	0.313232	0.949951	0.003174	0.648006	-0.274931	0.479741	-0.523785
62320		-3.295269	-8.366426	3.759294	0.011977	-0.013324	-0.004381	0.307617	0.949707	0.014160	0.648128	-0.274894	0.479599	-0.523783
62321		-3.284372	-8.413155	3.714363	0.005869	-0.010499	-0.002158	0.308105	0.940430	0.012451	0.648175	-0.274935	0.479559	-0.523739
62322		-3.232836	-8.470581	3.747225	0.003994	-0.007146	-0.004713	0.305908	0.944580	0.007080	0.648215	-0.274964	0.479535	-0.523697
62323		-3.189827	-8.454839	3.736760	0.006635	-0.006837	-0.002762	0.301270	0.954346	0.013672	0.648257	-0.274946	0.479476	-0.523708
62324		-3.236436	-8.436526	3.793119	0.011608	-0.012654	-0.004896	0.310303	0.944580	-0.001465	0.648265	-0.274986	0.479387	-0.523759
62325		-3.270459	-8.458915	3.729062	0.014433	-0.015181	-0.001880	0.303955	0.953369	0.006592	0.648407	-0.274911	0.479211	-0.523783
62326		-3.244807	-8.440697	3.751542	0.015005	-0.013686	-0.001928	0.311279	0.944824	0.002930	0.648471	-0.274885	0.479078	-0.523839
62327		-3.234515	-8.487004	3.761785	0.007971	-0.008932	0.000080	0.308594	0.952393	0.006104	0.648579	-0.274839	0.478994	-0.523807
62328		-3.274931	-8.476094	3.739571	0.006640	-0.006839	-0.002765	0.311279	0.957275	0.008545	0.648624	-0.274829	0.478935	-0.523811
62329		-3.265380	-8.403927	3.776521	0.015956	-0.005611	-0.004964	0.304199	0.953369	0.001953	0.648680	-0.274787	0.478849	-0.523842
62330		-3.261346	-8.370133	3.834303	0.020441	-0.014160	-0.000952	0.305908	0.950439	0.005127	0.648770	-0.274710	0.478674	-0.523930
62331		-3.222670	-8.413158	3.749918	-0.005018	0.000310	0.001648	0.315186	0.946533	0.003662	0.648765	-0.274713	0.478714	-0.523898
62332		-3.210172	-8.499944	3.843598	-0.005844	-0.004365	-0.001978	0.311279	0.946289	0.006836	0.648831	-0.274740	0.478719	-0.523798
62333		-3.221421	-8.459757	3.800090	-0.002468	-0.008149	0.000747	0.311035	0.953613	0.002197	0.648900	-0.274772	0.478709	-0.523705
62334		-3.254058	-8.403466	3.793388	0.011132	-0.022639	0.004741	0.312012	0.946777	0.007812	0.649069	-0.274760	0.478546	-0.523651
62335		-3.273242	-8.334998	3.814609	0.000142	-0.020598	0.005703	0.315186	0.950684	0.005615	0.649215	-0.274821	0.478474	-0.523503
62336		-3.213412	-8.393531	3.803523	-0.010484	-0.016978	0.005307	0.309326	0.944580	0.009766	0.649337	-0.274915	0.478457	-0.523319
62337		-3.201815	-8.461098	3.771670	-0.009400	-0.004994	-0.002270	0.305176	0.951904	0.005859	0.649345	-0.275002	0.478502	-0.523222
62338		-3.179978	-8.477091	3.789945	-0.013107	-0.002281	-0.001517	0.314453	0.942871	0.009766	0.649303	-0.275080	0.478557	-0.523182
62339		-3.152153	-8.427250	3.809106	0.006366	-0.004651	0.003063	0.313965	0.945801	0.019531	0.649405	-0.275053	0.478546	-0.523079
62340		-3.192126	-8.435863	3.802489	0.005860	-0.010138	0.008964	0.317383	0.950684	0.009277	0.649532	-0.275088	0.478564	-0.522888
62341		-3.192446	-8.507426	3.781061	0.009722	-0.016195	0.007161	0.308105	0.951172	0.003906	0.649708	-0.275080	0.478482	-0.522749
62342		-3.185960	-8.513390	3.815093	0.015290	-0.017765	0.005214	0.313965	0.942627	0.004639	0.649841	-0.275034	0.478336	-0.522741
62343		-3.214730	-8.397286	3.775231	0.025005	-0.014456	0.003756	0.309814	0.953125	0.001953	0.650024	-0.274922	0.478171	-0.522723
62344		-3.277631	-8.323230	3.849456	0.021640	-0.017923	0.004529	0.306885	0.949951	0.000244	0.650176	-0.274840	0.477990	-0.522743
62345		-3.396349	-8.423026	3.750184	-0.001275	-0.006898	0.004639	0.320801	0.941650	0.004395	0.650219	-0.274826	0.477964	-0.522720
62346		-3.412929	-8.467585	3.777331	-0.004171	0.009621	-0.007480	0.310303	0.949707	0.010986	0.650231	-0.274813	0.478035	-0.522648
62347		-3.394288	-8.443431	3.765098	0.007982	0.013320	-0.008309	0.311035	0.954346	0.010498	0.650168	-0.274771	0.478094	-0.522693
62348		-3.374709	-8.320034	3.742141	0.017865	0.011038	-0.008946	0.311035	0.951172	0.006836	0.650133	-0.274689	0.478094	-0.522780
62349		-3.376366	-8.253498	3.731863	0.014116	0.003240	-0.007053	0.306152	0.946045	0.002686	0.650137	-0.274629	0.478058	-0.522840
62350		-3.327418	-8.316824	3.784589	0.009269	0.002963	-0.006202	0.308350	0.952881	0.008545	0.650116	-0.274569	0.478028	-0.522925
62351		-3.278148	-8.453021	3.813720	0.005643	0.001317	-0.010723	0.314209	0.950439	0.011230	0.650072	-0.274592	0.478018	-0.522976
62352		-3.272176	-8.513149	3.806429	-0.000113	0.005723	-0.009847	0.305664	0.950195	0.002686	0.650037	-0.274631	0.478074	-0.522949
62353		-3.261483	-8.487622	3.838540	0.019097	0.009670	-0.014327	0.313965	0.950684	0.005615	0.649970	-0.274526	0.478017	-0.523139
62354		-3.251085	-8.415644	3.821162	0.025777	0.010582	-0.018490	0.308105	0.949463	0.003906	0.649941	-0.274407	0.477944	-0.523304
62355		-3.187506	-8.395131	3.761190	0.020966	0.010812	-0.015526	0.316162	0.948975	0.003906	0.649884	-0.274298	0.477891	-0.523480
62356		-3.125895	-8.427310	3.716250	0.011473	0.010173	-0.012510	0.307861	0.956055	0.004639	0.649868	-0.274224	0.477889	-0.523541
62357		-3.109909	-8.434193	3.816176	0.020464	0.000335	-0.007982	0.307861	0.945801	0.007324	0.649876	-0.274147	0.477801	-0.523651
62358		-3.134648	-8.476163	3.890006	0.020556	-0.008134	0.001631	0.309570	0.954590	-0.008789	0.649971	-0.274075	0.477704	-0.523660
62359		-3.223005	-8.519235	3.846476	0.020008	-0.006876	0.001920	0.307129	0.952148	0.000732	0.650072	-0.273919	0.477551	-0.523755
62360		-3.273109	-8.460624	3.818064	0.022737	-0.008684	-0.003286	0.310303	0.952637	0.005371	0.650145	-0.273832	0.477404	-0.523844
62361		-3.236380	-8.363702	3.856525	0.029427	-0.002775	-0.009090	0.310791	0.951172	0.001709	0.650196	-0.273731	0.477268	-0.523957
62362		-3.181340	-8.315498	3.804968	0.024234	0.008123	-0.009910	0.312500	0.948486	-0.002441	0.650197	-0.273595	0.477200	-0.524090
62363		-3.220538	-8.324691	3.744243	0.014974	0.022915	-0.008377	0.312012	0.950684	0.001465	0.650141	-0.273413	0.477242	-0.524216
62364		-3.259207	-8.352995	3.807420	0.009414	0.027240	-0.006196	0.310303	0.942139	0.006836	0.650055	-0.273259	0.477352	-0.524302
62365		-3.234411	-8.426835	3.874573	0.010620	0.031257	-0.002075	0.311768	0.954346	0.005859	0.649972	-0.273086	0.477510	-0.524351
62366		-3.192943	-8.430005	3.879003	0.020616	0.037759	0.000113	0.306152	0.955811	0.007080	0.649888	-0.272827	0.477658	-0.524456
62367		-3.241583	-8.457021	3.876770	0.027470	0.030322	-0.003449	0.293701	0.943359	0.001465	0.649802	-0.272594	0.477728	-0.524620
62368		-3.165647	-8.416338	3.933464	0.025220	0.034329	-0.006534	0.308105	0.947266	0.006348	0.649637	-0.272339	0.477798	-0.524893
62369		-3.133152	-8.373546	3.874327	0.008655	0.060160	-0.012113	0.310303	0.948730	0.011475	0.649371	-0.272096	0.478096	-0.525077
62370		-3.145805	-8.353378	3.844080	0.001618	0.064913	-0.010133	0.299805	0.949951	0.005371	0.649084	-0.271886	0.478474	-0.525196
62371		-3.243926	-8.245443	3.863305	0.008355	0.051859	-0.005122	0.306885	0.955078	0.000732	0.648841	-0.271659	0.478729	-0.525381
62372		-3.282140	-8.214768	3.942416	-0.006132	0.045843	0.009394	0.305176	0.944824	-0.001953	0.648687	-0.271449	0.479033	-0.525403
62373		-3.319462	-8.432348	3.710674	-0.048875	0.061379	0.010582	0.308105	0.949707	-0.004639	0.648384	-0.271374	0.479600	-0.525298
62374		-3.216046	-8.629410	3.719243	-0.049155	0.054401	0.002441	0.309082	0.951904	0.002686	0.648085	-0.271347	0.480097	-0.525228
62375		-3.060412	-8.765282	3.679942	-0.015672	0.032751	-0.003913	0.310791	0.954102	0.009521	0.647914	-0.271291	0.480342	-0.525243
62376		-3.011467	-8.605631	3.669913	0.016856	0.019450	0.003240	0.310059	0.951904	0.010254	0.647899	-0.271121	0.480414	-0.525283
62377		-3.123622	-8.361830	3.767362	0.034240	-0.000154	0.018833	0.316895	0.950195	0.000244	0.648068	-0.270884	0.480343	-0.525261
62378		-3.313022	-8.275431	3.782812	0.001787	-0.007205	0.038953	0.313232	0.946777	0.016113	0.648324	-0.270718	0.480388	-0.524990
62379		-3.645806	-8.380902	3.705343	-0.015233	-0.006192	0.038929	0.306885	0.948975	0.007324	0.648503	-0.270718	0.480574	-0.524600
62380		-3.869014	-8.510029	3.710994	-0.008244	-0.012189	0.011258	0.316162	0.949463	0.011475	0.648574	-0.270786	0.480592	-0.524459
62381		-3.665539	-8.523339	3.744470	-0.011197	-0.027620	-0.008528	0.315674	0.948486	0.002686	0.648650	-0.271021	0.480520	-0.524311
62382		-3.261002	-8.518657	3.580613	-0.007655	-0.034228	-0.004700	0.313477	0.961426	-0.002441	0.648784	-0.271205	0.480371	-0.524186
62383		-2.991494	-8.379426	3.596092	0.019189	-0.028984	0.015563	0.315674	0.948486	0.001953	0.649028	-0.271135	0.480152	-0.524121
62384		-3.020448	-8.173015	3.924996	0.037427	-0.062371	0.047654	0.320801	0.942871	0.001953	0.649604	-0.270991	0.479770	-0.523831
62385		-3.325459	-8.250144	3.966334	0.023108	-0.072240	0.058984	0.308838	0.950928	0.000000	0.650260	-0.270915	0.479431	-0.523367
62386		-3.662993	-8.490402	3.982744	-0.012831	-0.054811	0.029795	0.315430	0.951172	-0.003906	0.650572	-0.271097	0.479259	-0.523042
62387		-3.457580	-8.597056	4.007618	-0.032199	-0.019807	-0.014932	0.319092	0.947998	0.010010	0.650536	-0.271382	0.479251	-0.522947
62388		-2.878592	-8.440155	3.920565	-0.007338	0.014119	-0.026181	0.317871	0.943604	-0.000488	0.650379	-0.271485	0.479348	-0.523001
62389		-2.586487	-8.100648	3.803749	0.054825	0.025766	-0.005670	0.318848	0.957031	0.001709	0.650416	-0.271064	0.479243	-0.523268
62390		-2.936132	-7.835983	4.044159	0.061307	0.021334	0.018862	0.322266	0.947510	0.001709	0.650581	-0.270559	0.479146	-0.523413
62391		-3.553632	-8.040577	4.262618	-0.023498	0.035338	0.014079	0.314209	0.949951	-0.002197	0.650500	-0.270461	0.479492	-0.523247
62392		-3.705257	-8.611686	4.086857	-0.105290	0.086559	-0.022395	0.311035	0.946533	-0.002441	0.649835	-0.270722	0.480366	-0.523136
62393		-3.258130	-8.713660	3.735101	-0.089151	0.116763	-0.057480	0.308838	0.960205	0.011963	0.648926	-0.270892	0.481245	-0.523370
62394		-2.820139	-8.255031	3.709274	0.006988	0.077975	-0.053508	0.304688	0.947754	0.004883	0.648375	-0.270770	0.481543	-0.523842
62395		-3.047066	-7.970594	3.745150	0.010283	0.054914	-0.020601	0.312988	0.950195	0.000977	0.648074	-0.270556	0.481750	-0.524134
62396		-3.633221	-8.171865	3.946737	-0.066097	0.089332	-0.005787	0.310059	0.952393	0.003174	0.647566	-0.270518	0.482499	-0.524092
62397		-3.825140	-8.778675	3.899924	-0.100531	0.084468	-0.015393	0.310059	0.953125	0.005615	0.646942	-0.270733	0.483351	-0.523968
62398		-3.514480	-9.088320	3.366023	-0.101999	0.069727	-0.032172	0.312500	0.951904	0.010010	0.646298	-0.271089	0.484094	-0.523892
62399		-3.147041	-8.583152	3.216566	-0.026957	0.035230	-0.047853	0.313721	0.954102	0.016113	0.645906	-0.271260	0.484299	-0.524097
62400		-3.128056	-7.986509	3.695453	0.026300	-0.009899	-0.020236	0.311279	0.950195	0.014648	0.645936	-0.271253	0.484114	-0.524235
62401		-3.440470	-8.094533	3.804935	-0.017501	-0.004198	0.018284	0.314209	0.956299	0.008545	0.646008	-0.271297	0.484233	-0.524014
62402		-3.698175	-8.670927	3.601032	-0.061020	0.012218	0.014778	0.307617	0.949951	0.013672	0.645912	-0.271492	0.484598	-0.523694
62403		-3.699673	-8.824973	3.511793	-0.037217	-0.003575	-0.006590	0.311279	0.949951	0.008545	0.645812	-0.271734	0.484740	-0.523560
62404		-3.581603	-8.416308	3.582472	0.018753	-0.011995	-0.027740	0.312012	0.944092	0.014160	0.645803	-0.271768	0.484525	-0.523752
62405		-3.531880	-8.144344	3.680501	0.028482	-0.010919	-0.027251	0.308350	0.941650	0.012207	0.645817	-0.271761	0.484301	-0.523945
62406		-3.214459	-8.173378	3.730012	0.028174	-0.027575	-0.019654	0.303955	0.943359	0.006836	0.645921	-0.271793	0.483999	-0.524079
62407		-2.988901	-8.522281	3.696629	0.017605	-0.036161	0.007821	0.307861	0.950684	0.006592	0.646142	-0.271794	0.483740	-0.524047
62408		-3.067104	-8.784084	3.647175	-0.007100	-0.004750	0.007354	0.304688	0.944092	0.012695	0.646186	-0.271796	0.483756	-0.523976
62409		-3.416025	-8.579518	3.732556	0.026763	-0.004041	-0.015044	0.309570	0.952393	0.009766	0.646191	-0.271727	0.483601	-0.524149
62410		-3.583377	-8.134018	3.781401	0.056358	-0.015819	-0.015067	0.313232	0.948242	0.017822	0.646326	-0.271541	0.483243	-0.524409
62411		-3.342770	-8.146941	3.817343	0.049114	-0.037084	-0.009131	0.304932	0.955566	0.005859	0.646566	-0.271491	0.482853	-0.524498
62412		-3.062748	-8.520309	3.762817	0.006409	-0.035579	0.001059	0.311523	0.958984	0.004150	0.646718	-0.271591	0.482635	-0.524460
62413		-3.066052	-8.730741	3.663238	-0.011131	-0.019702	0.011478	0.316162	0.951660	0.010498	0.646839	-0.271667	0.482597	-0.524306
62414		-3.389109	-8.376233	3.811658	0.026417	-0.025531	0.015667	0.312256	0.945801	0.007080	0.647106	-0.271567	0.482400	-0.524209
62415		-3.550412	-8.002624	3.903229	0.037157	-0.031757	0.006860	0.314453	0.954346	0.006104	0.647376	-0.271461	0.482091	-0.524215
62416		-3.460784	-8.180311	3.852677	0.018339	-0.040045	-0.001739	0.314209	0.944580	0.016357	0.647598	-0.271528	0.481799	-0.524175
62417		-3.148314	-8.592411	3.676810	-0.020009	-0.016276	-0.006836	0.313477	0.945557	0.006104	0.647610	-0.271753	0.481833	-0.524011
62418		-2.989420	-8.780382	3.602683	-0.025458	0.001294	-0.005632	0.310303	0.946533	0.003418	0.647555	-0.271888	0.481948	-0.523903
62419		-3.138139	-8.469391	3.802466	0.023126	-0.008296	0.001601	0.316406	0.954102	0.003174	0.647670	-0.271766	0.481803	-0.523959
62420		-3.351776	-8.117133	3.858920	0.058760	-0.025779	0.008101	0.302734	0.953613	0.003418	0.647981	-0.271504	0.481422	-0.524060
62421		-3.378622	-8.091731	3.815098	0.026958	-0.037288	0.016525	0.317139	0.948486	0.012207	0.648240	-0.271441	0.481140	-0.524031
62422		-3.192965	-8.489726	3.857654	-0.024494	-0.034658	0.011698	0.306885	0.955566	0.005859	0.648407	-0.271689	0.481125	-0.523710
62423		-3.148569	-8.766048	3.751079	-0.042189	-0.017848	0.003587	0.313721	0.946289	0.011963	0.648385	-0.271977	0.481231	-0.523490
62424		-3.278907	-8.610163	3.726925	0.003490	-0.007626	-0.000403	0.308350	0.947021	0.002686	0.648441	-0.272001	0.481207	-0.523430
62425		-3.376561	-8.163897	3.848885	0.056399	-0.013960	0.002220	0.315674	0.948242	0.008545	0.648643	-0.271728	0.480888	-0.523615
62426		-3.248964	-7.961473	3.903192	0.045802	-0.014333	0.007647	0.315674	0.956787	0.002686	0.648866	-0.271512	0.480652	-0.523668
62427		-3.155981	-8.245721	3.838889	-0.008949	0.000854	0.002936	0.314697	0.953369	0.002686	0.648879	-0.271531	0.480707	-0.523592
62428		-3.255290	-8.587471	3.812025	-0.055993	0.025532	-0.006871	0.305420	0.943359	0.003418	0.648644	-0.271734	0.481077	-0.523437
62429		-3.531741	-8.604783	3.838691	-0.053296	0.044300	-0.017860	0.317383	0.949219	0.015625	0.648264	-0.271885	0.481510	-0.523431
62430		-3.523452	-8.292772	3.845249	-0.008594	0.045947	-0.020901	0.311279	0.948975	0.008545	0.647995	-0.271833	0.481794	-0.523530
62431		-3.313585	-8.142171	3.810237	0.020664	0.023610	-0.012117	0.310547	0.953369	0.006104	0.647906	-0.271662	0.481820	-0.523705
62432		-3.081627	-8.321917	3.740575	0.007214	0.020748	-0.008087	0.312744	0.947754	0.010498	0.647811	-0.271554	0.481890	-0.523814
62433		-3.009033	-8.586020	3.795505	-0.026553	0.028152	-0.006385	0.315918	0.953613	0.010498	0.647628	-0.271601	0.482168	-0.523761
62434		-3.280478	-8.760795	3.774910	-0.041310	0.033592	-0.012987	0.302979	0.953125	0.010986	0.647368	-0.271730	0.482521	-0.523689
62435		-3.522107	-8.616486	3.662552	-0.018647	0.041040	-0.018147	0.309570	0.948975	0.008545	0.647056	-0.271731	0.482800	-0.523818
62436		-3.540374	-8.181998	3.610191	0.012701	0.033758	-0.018354	0.312500	0.950439	0.012695	0.646880	-0.271580	0.482894	-0.524027
62437		-3.286338	-8.054029	3.652438	0.013039	0.021870	-0.008436	0.312988	0.946045	0.011719	0.646800	-0.271450	0.482961	-0.524131
62438		-3.154756	-8.401578	3.734118	-0.009443	0.011579	-0.002219	0.313232	0.948486	0.011230	0.646747	-0.271455	0.483083	-0.524082
62439		-3.236741	-8.797417	3.691211	-0.048115	0.012656	-0.002339	0.314209	0.950684	0.013916	0.646601	-0.271664	0.483375	-0.523885
62440		-3.361728	-8.794858	3.702713	-0.029105	0.004995	-0.000730	0.312988	0.955322	0.012451	0.646534	-0.271804	0.483553	-0.523730
62441		-3.416019	-8.427972	3.747067	0.025850	-0.012315	-0.001658	0.312256	0.947754	0.012939	0.646650	-0.271725	0.483387	-0.523781
62442		-3.432947	-8.134745	3.712239	0.050478	-0.016534	-0.003601	0.307861	0.950195	0.008545	0.646834	-0.271539	0.483091	-0.523923
62443		-3.324076	-8.155766	3.801213	0.012593	-0.009555	-0.006215	0.320312	0.948975	0.009033	0.646877	-0.271528	0.482979	-0.523979
62444		-3.128427	-8.411180	3.789551	-0.020365	0.004236	-0.004941	0.307617	0.952637	0.013184	0.646846	-0.271624	0.483092	-0.523863
62445		-3.124920	-8.623586	3.806916	-0.024265	0.007017	-0.005538	0.311523	0.954346	0.011963	0.646732	-0.271754	0.483247	-0.523793
62446		-3.259150	-8.573326	3.812756	-0.022771	0.002608	0.000520	0.316895	0.942139	0.014648	0.646683	-0.271864	0.483379	-0.523675
62447		-3.450388	-8.458120	3.756011	-0.008726	0.003507	0.004458	0.319580	0.943604	0.004639	0.646710	-0.271877	0.483474	-0.523547
62448		-3.477479	-8.265551	3.659385	-0.005917	0.007220	-0.000256	0.307861	0.948975	0.010498	0.646729	-0.271843	0.483531	-0.523489
62449		-3.365601	-8.229766	3.707844	0.007041	-0.002998	-0.005955	0.307861	0.951904	0.007812	0.646734	-0.271835	0.483481	-0.523534
62450		-3.259826	-8.456097	3.782360	0.006030	-0.013821	-0.003132	0.304932	0.947998	0.010498	0.646792	-0.271861	0.483374	-0.523546
62451		-3.285377	-8.651349	3.771363	-0.014318	-0.015304	0.001797	0.306885	0.950195	0.008545	0.646821	-0.271992	0.483369	-0.523447
62452		-3.367344	-8.513020	3.694420	-0.006468	-0.013626	-0.000542	0.312500	0.947510	0.008057	0.646859	-0.272076	0.483327	-0.523396
62453		-3.487163	-8.278457	3.688051	0.000823	-0.012936	-0.000716	0.313721	0.956055	0.018066	0.646936	-0.272114	0.483255	-0.523348
62454		-3.550763	-8.161012	3.651560	-0.002622	0.001926	-0.003844	0.307129	0.951660	0.003418	0.646912	-0.272151	0.483306	-0.523311
62455		-3.450846	-8.282620	3.679925	-0.010493	0.001476	-0.007619	0.313232	0.950928	0.013672	0.646854	-0.272202	0.483329	-0.523334
62456		-3.267317	-8.570290	3.709210	-0.018183	-0.003544	-0.006319	0.309570	0.949707	0.013672	0.646816	-0.272340	0.483398	-0.523246
62457		-3.170290	-8.705862	3.665322	-0.022316	-0.003943	-0.010583	0.318115	0.955078	0.013672	0.646739	-0.272518	0.483473	-0.523180
62458		-3.160182	-8.609098	3.718487	-0.003517	-0.013759	-0.008419	0.311279	0.944336	0.009277	0.646782	-0.272628	0.483415	-0.523123
62459		-3.220120	-8.432171	3.758005	0.020797	-0.010773	-0.006173	0.318848	0.945557	0.008789	0.646870	-0.272571	0.483257	-0.523189
62460		-3.325105	-8.355493	3.717581	0.035748	-0.006072	-0.011887	0.311035	0.947754	0.016357	0.646978	-0.272435	0.483045	-0.523322
62461		-3.287743	-8.277962	3.828435	0.035621	0.004002	-0.016495	0.313232	0.952148	0.012451	0.646980	-0.272302	0.482906	-0.523517
62462		-3.212946	-8.349977	3.773747	0.008800	0.010980	-0.011519	0.308350	0.950684	0.010498	0.646924	-0.272252	0.482921	-0.523598
62463		-3.179365	-8.432894	3.761164	-0.020055	0.024128	-0.010202	0.304199	0.952393	0.009277	0.646741	-0.272291	0.483129	-0.523612
62464		-3.206261	-8.458498	3.756941	-0.019884	0.019050	-0.007244	0.312988	0.950195	0.010254	0.646577	-0.272336	0.483310	-0.523625
62465		-3.213258	-8.478427	3.758986	0.003579	0.007376	-0.005329	0.313965	0.954346	0.022461	0.646558	-0.272296	0.483331	-0.523650
62466		-3.196076	-8.505289	3.765776	0.032083	-0.006326	-0.001036	0.312744	0.958252	0.014893	0.646659	-0.272183	0.483206	-0.523699
62467		-3.173181	-8.492029	3.755791	0.040135	-0.004723	-0.002065	0.309326	0.953369	0.008789	0.646768	-0.272004	0.483027	-0.523822
62468		-3.232761	-8.404947	3.846412	0.039568	-0.004487	-0.006021	0.311279	0.951660	0.016357	0.646859	-0.271827	0.482824	-0.523989
62469		-3.383473	-8.350638	3.835539	0.012957	0.013623	-0.009152	0.313721	0.954102	0.005615	0.646800	-0.271750	0.482855	-0.524073
62470		-3.475433	-8.264760	3.707076	-0.014071	0.026892	-0.013270	0.319824	0.956299	0.008301	0.646631	-0.271746	0.483030	-0.524123
62471		-3.443085	-8.302217	3.696526	-0.015408	0.021733	-0.012605	0.309570	0.952148	0.009521	0.646499	-0.271774	0.483193	-0.524121
62472		-3.327349	-8.459217	3.637036	-0.015371	0.026728	-0.014259	0.315186	0.948975	0.010986	0.646306	-0.271790	0.483382	-0.524177
62473		-3.341421	-8.623302	3.635999	0.008329	0.019983	-0.012659	0.311279	0.949219	0.010986	0.646223	-0.271702	0.483438	-0.524272
62474		-3.402339	-8.544792	3.632839	0.030452	-0.000810	-0.004166	0.308105	0.948975	0.018555	0.646298	-0.271554	0.483306	-0.524379
62475		-3.429745	-8.395679	3.702479	0.032681	-0.001349	-0.009073	0.316650	0.949219	0.011475	0.646336	-0.271440	0.483176	-0.524510
62476		-3.450512	-8.307250	3.708836	0.016808	0.002081	-0.011369	0.308594	0.950439	0.007812	0.646354	-0.271382	0.483107	-0.524582
62477		-3.369217	-8.387031	3.684417	0.000898	0.002246	-0.016011	0.308838	0.954346	0.013428	0.646289	-0.271422	0.483087	-0.524660
62478		-3.270038	-8.514525	3.734007	0.000879	-0.000507	-0.016243	0.311768	0.962891	0.007080	0.646225	-0.271492	0.483070	-0.524718
62479		-3.178253	-8.515974	3.725413	0.020503	-0.005606	-0.010435	0.314697	0.951416	0.013428	0.646262	-0.271438	0.482931	-0.524828
62480		-3.238022	-8.410856	3.742882	0.025742	-0.007704	-0.006737	0.307617	0.944824	0.011230	0.646349	-0.271365	0.482789	-0.524889
62481		-3.254481	-8.354835	3.816601	0.027863	-0.000615	-0.004032	0.309326	0.960205	0.012451	0.646409	-0.271234	0.482676	-0.524987
62482		-3.243935	-8.427348	3.808104	0.006891	-0.000681	-0.009163	0.316162	0.948486	0.009277	0.646388	-0.271248	0.482647	-0.525032
62483		-3.154361	-8.507578	3.795631	0.007825	-0.000363	-0.010817	0.315674	0.947266	0.006348	0.646399	-0.271244	0.482603	-0.525061
62484		-3.121431	-8.470470	3.813543	0.017111	-0.011839	-0.009895	0.320557	0.945557	0.003906	0.646485	-0.271229	0.482450	-0.525104
62485		-3.151135	-8.354537	3.881915	0.020288	-0.016732	-0.002321	0.309814	0.952393	0.005371	0.646651	-0.271178	0.482266	-0.525094
62486		-3.208387	-8.315973	3.855548	0.003338	-0.008235	0.006547	0.309082	0.946289	0.005371	0.646740	-0.271161	0.482227	-0.525030
62487		-3.308186	-8.419757	3.776138	-0.012876	0.004110	0.004434	0.303467	0.946777	-0.000244	0.646735	-0.271184	0.482321	-0.524938
62488		-3.336561	-8.398159	3.777730	-0.006517	0.007435	-0.004222	0.306885	0.954834	0.002197	0.646679	-0.271176	0.482367	-0.524968
62489		-3.360353	-8.344576	3.724744	-0.004660	0.007557	-0.009646	0.310547	0.956299	0.006592	0.646605	-0.271189	0.482400	-0.525022
62490		-3.423537	-8.372710	3.695554	-0.002745	0.010759	-0.002365	0.304688	0.953125	0.014160	0.646561	-0.271160	0.482473	-0.525024
62491		-3.459369	-8.449413	3.643462	-0.008191	0.008449	-0.003606	0.310059	0.948975	0.002441	0.646482	-0.271198	0.482578	-0.525005
62492		-3.359391	-8.471720	3.659739	-0.000886	0.010882	-0.007789	0.309570	0.954834	0.003662	0.646429	-0.271165	0.482617	-0.525052
62493		-3.344379	-8.479334	3.703378	0.011438	0.006305	-0.007930	0.308350	0.953857	0.013184	0.646412	-0.271091	0.482582	-0.525144
62494		-3.293977	-8.390916	3.728809	0.015659	-0.007631	-0.005610	0.314697	0.952148	0.007080	0.646456	-0.271074	0.482489	-0.525184
62495		-3.267257	-8.392326	3.766648	0.007214	-0.013059	-0.001321	0.312012	0.949707	0.011963	0.646553	-0.271090	0.482394	-0.525144
62496		-3.252656	-8.452451	3.772389	0.000725	-0.004085	0.000807	0.312256	0.951660	0.008789	0.646595	-0.271107	0.482397	-0.525081
62497		-3.218269	-8.454796	3.820661	0.007097	-0.001970	-0.001725	0.309082	0.949219	0.000732	0.646634	-0.271083	0.482367	-0.525072
62498		-3.214799	-8.395084	3.841468	0.015129	-0.005348	-0.001097	0.303955	0.955811	0.009033	0.646709	-0.271006	0.482260	-0.525118
62499		-3.237204	-8.386330	3.788145	0.008005	-0.006645	-0.001718	0.317871	0.945801	0.013428	0.646736	-0.271002	0.482204	-0.525138
62500		-3.219804	-8.413818	3.793590	0.002412	-0.002860	-0.001700	0.312012	0.945068	0.011230	0.646787	-0.271019	0.482205	-0.525065
62501		-3.163568	-8.458361	3.786867	-0.005983	0.001698	-0.000728	0.312500	0.943604	0.002930	0.646788	-0.271054	0.482263	-0.524992
62502		-3.170348	-8.451264	3.809584	-0.000545	0.003495	-0.001607	0.315674	0.953125	0.001709	0.646804	-0.271029	0.482279	-0.524971
62503		-3.184411	-8.364451	3.823970	0.000779	0.004175	0.001492	0.310303	0.957275	0.012939	0.646835	-0.270981	0.482295	-0.524942
62504		-3.207721	-8.401748	3.819937	-0.002428	-0.003342	0.009486	0.311768	0.946045	0.007080	0.646891	-0.270988	0.482337	-0.524833
62505		-3.311025	-8.466356	3.707909	-0.017557	0.003731	0.006576	0.311523	0.953125	0.012451	0.646892	-0.271035	0.482458	-0.524694
62506		-3.448626	-8.449499	3.658746	-0.026653	0.018579	-0.001047	0.312744	0.950439	0.010254	0.646767	-0.271115	0.482698	-0.524588
62507		-3.450640	-8.404470	3.658922	-0.007982	0.011124	-0.002061	0.310547	0.952637	0.007080	0.646718	-0.271121	0.482804	-0.524547
62508		-3.382317	-8.409444	3.754608	0.018495	-0.004624	-0.002099	0.307861	0.945312	-0.000244	0.646786	-0.271044	0.482701	-0.524598
62509		-3.354177	-8.483241	3.716055	0.020872	-0.016442	0.003756	0.310791	0.950439	0.005859	0.646937	-0.270960	0.482516	-0.524625
62510		-3.365383	-8.514138	3.707083	0.004614	-0.013574	0.007075	0.308594	0.955078	0.007324	0.647052	-0.270958	0.482445	-0.524549
62511		-3.346446	-8.382867	3.774493	0.009657	-0.016104	0.007337	0.319336	0.942627	0.007812	0.647176	-0.270945	0.482343	-0.524497
62512		-3.343007	-8.296432	3.814949	0.005128	-0.022576	0.008223	0.306396	0.948975	0.004395	0.647366	-0.270979	0.482230	-0.524349
62513		-3.430547	-8.394668	3.729028	-0.013772	-0.018823	0.003463	0.312744	0.947021	0.006592	0.647430	-0.271111	0.482200	-0.524229
62514		-3.414344	-8.501865	3.729655	-0.009459	-0.015544	-0.001090	0.310059	0.957764	0.004395	0.647492	-0.271228	0.482165	-0.524125
62515		-3.322938	-8.450448	3.758655	0.010975	-0.008526	-0.005599	0.312012	0.952393	0.004639	0.647534	-0.271218	0.482062	-0.524172
62516		-3.325086	-8.383298	3.803895	0.026732	-0.000157	-0.011971	0.307129	0.945801	0.010254	0.647562	-0.271113	0.481922	-0.524321
62517		-3.245838	-8.316472	3.827727	0.025772	-0.005981	-0.010778	0.312744	0.948975	0.013916	0.647600	-0.271049	0.481776	-0.524441
62518		-3.143244	-8.383409	3.844824	0.015687	-0.004884	-0.005402	0.310059	0.942383	0.006836	0.647646	-0.271024	0.481703	-0.524464
62519		-3.151353	-8.435475	3.795678	0.001482	0.000783	-0.005945	0.314941	0.944580	-0.000244	0.647641	-0.271034	0.481701	-0.524467
62520		-3.154958	-8.448678	3.780133	0.000934	0.004277	-0.007552	0.311768	0.947754	0.006592	0.647635	-0.271019	0.481695	-0.524488
62521		-3.178628	-8.412996	3.854315	0.009362	0.002988	-0.006187	0.302002	0.948242	0.009033	0.647639	-0.270979	0.481669	-0.524528
62522		-3.228506	-8.428223	3.854607	0.008464	0.012139	-0.009976	0.311279	0.951416	0.007324	0.647552	-0.270927	0.481696	-0.524637
62523		-3.265670	-8.439350	3.737157	0.008291	0.014967	-0.011068	0.314941	0.957275	0.009033	0.647478	-0.270863	0.481730	-0.524730
62524		-3.314785	-8.402592	3.720060	0.000266	0.017136	-0.005566	0.322021	0.949463	0.011719	0.647407	-0.270817	0.481829	-0.524752
62525		-3.353378	-8.360597	3.693997	-0.004935	0.025245	-0.006695	0.310791	0.951416	0.006836	0.647313	-0.270772	0.481997	-0.524735
62526		-3.308513	-8.358028	3.732256	0.000850	0.020871	-0.007515	0.311768	0.947510	0.000000	0.647215	-0.270707	0.482101	-0.524794
62527		-3.223302	-8.444279	3.737973	0.003242	0.009576	0.000469	0.310059	0.951660	0.004639	0.647216	-0.270625	0.482132	-0.524807
62528		-3.182122	-8.526317	3.739837	0.002628	-0.003109	0.009982	0.316162	0.951660	0.008057	0.647294	-0.270578	0.482132	-0.524735
62529		-3.292617	-8.555598	3.727938	0.010841	-0.007591	0.007693	0.310303	0.950195	0.002441	0.647414	-0.270526	0.482076	-0.524666
62530		-3.407639	-8.445324	3.782064	0.019297	-0.002167	0.003388	0.312012	0.955811	0.008545	0.647499	-0.270406	0.481987	-0.524703
62531		-3.479489	-8.319665	3.770380	0.018745	0.000809	-0.000342	0.318115	0.949463	0.009521	0.647549	-0.270311	0.481927	-0.524747
62532		-3.397228	-8.294046	3.713664	-0.000338	0.007892	-0.004079	0.306396	0.945801	0.001953	0.647534	-0.270303	0.481983	-0.524718
62533		-3.245521	-8.346396	3.728474	0.005271	0.004625	-0.001978	0.310547	0.945312	0.007812	0.647528	-0.270250	0.481981	-0.524754
62534		-3.249109	-8.449427	3.817725	0.021544	-0.003920	0.004607	0.304688	0.950928	0.002930	0.647630	-0.270136	0.481893	-0.524768
62535		-3.273713	-8.411847	3.895041	0.025618	-0.012788	0.003958	0.302734	0.951904	0.007568	0.647753	-0.270031	0.481726	-0.524823
62536		-3.236506	-8.406720	3.926337	0.011354	-0.015386	0.002730	0.313232	0.946777	-0.001465	0.647838	-0.270034	0.481619	-0.524816
62537		-3.203202	-8.468909	3.847576	0.008948	-0.010287	0.002533	0.310303	0.952637	0.006348	0.647942	-0.270003	0.481522	-0.524791
62538		-3.268662	-8.376602	3.848280	0.025827	-0.008911	-0.000638	0.313965	0.959473	0.009277	0.648042	-0.269909	0.481376	-0.524850
62539		-3.371021	-8.189313	3.808457	0.021947	0.001601	-0.002688	0.312012	0.939697	0.002686	0.648082	-0.269809	0.481309	-0.524914
62540		-3.485811	-8.204825	3.854455	-0.006667	0.016276	-0.002766	0.304443	0.940674	0.008301	0.648019	-0.269779	0.481427	-0.524899
62541		-3.558847	-8.313345	3.752749	-0.033983	0.031276	-0.012233	0.310791	0.945801	0.009766	0.647762	-0.269883	0.481741	-0.524875
62542		-3.542313	-8.423601	3.693129	-0.032094	0.033619	-0.019565	0.309082	0.948486	0.008301	0.647481	-0.269998	0.482045	-0.524883
62543		-3.572150	-8.462992	3.673053	-0.004943	0.026603	-0.023219	0.309570	0.947510	0.012695	0.647269	-0.270006	0.482178	-0.525018
62544		-3.530838	-8.408803	3.629574	0.018242	0.016335	-0.030034	0.319824	0.945557	-0.000977	0.647119	-0.269970	0.482152	-0.525246
62545		-3.416006	-8.319203	3.718225	0.021826	0.018703	-0.033745	0.306885	0.949463	-0.002686	0.647000	-0.269882	0.482075	-0.525508
62546		-3.272212	-8.377431	3.742475	0.013403	0.018782	-0.028998	0.312744	0.940430	0.009521	0.646843	-0.269821	0.482042	-0.525763
62547		-3.110785	-8.482525	3.787284	0.022841	0.027116	-0.024380	0.309082	0.950928	-0.000488	0.646708	-0.269681	0.482058	-0.525986
62548		-2.985707	-8.458918	3.845771	0.017925	0.018392	-0.013853	0.314453	0.952881	0.007324	0.646634	-0.269543	0.482044	-0.526161
62549		-2.983399	-8.505041	3.843308	0.002875	0.010398	-0.010441	0.309082	0.958984	0.013672	0.646580	-0.269527	0.482083	-0.526199
62550		-3.132764	-8.598706	3.836482	-0.015128	0.011507	-0.006737	0.312988	0.954346	0.012939	0.646469	-0.269608	0.482233	-0.526157
62551		-3.234059	-8.612059	3.761883	-0.011601	0.004941	-0.002852	0.310303	0.946289	-0.000732	0.646428	-0.269678	0.482337	-0.526076
62552		-3.117209	-8.464916	3.702665	0.005067	0.000753	0.002613	0.308594	0.953613	0.008057	0.646478	-0.269619	0.482318	-0.526062
62553		-2.959836	-8.325491	3.671964	0.040632	-0.013164	0.010309	0.311035	0.956787	0.005615	0.646678	-0.269425	0.482110	-0.526107
62554		-3.028801	-8.381222	3.760398	0.039626	-0.027401	0.021229	0.309326	0.952393	0.008545	0.646986	-0.269250	0.481848	-0.526057
62555		-3.144469	-8.538958	3.873788	-0.009120	-0.020471	0.026135	0.313232	0.952148	0.002441	0.647172	-0.269298	0.481859	-0.525794
62556		-3.197121	-8.599203	3.923903	-0.018695	-0.023384	0.031002	0.315674	0.960449	0.006104	0.647386	-0.269374	0.481889	-0.525463
62557		-3.314822	-8.524192	3.811106	-0.001261	-0.029433	0.035366	0.310059	0.950684	0.010742	0.647678	-0.269376	0.481829	-0.525158
62558		-3.462518	-8.280351	3.749161	0.016902	-0.037182	0.028281	0.310303	0.950928	0.005859	0.647996	-0.269354	0.481645	-0.524946
62559		-3.526599	-8.101777	3.787319	-0.003497	-0.026333	0.017641	0.314209	0.960449	0.008057	0.648182	-0.269426	0.481572	-0.524746
62560		-3.568998	-8.163388	3.848797	-0.028876	0.000816	0.007847	0.318848	0.956543	0.011230	0.648157	-0.269562	0.481742	-0.524550
62561		-3.455783	-8.380686	3.715745	-0.038404	0.010277	-0.002889	0.310791	0.955566	0.014648	0.648038	-0.269752	0.481989	-0.524373
62562		-3.224455	-8.433706	3.760777	0.005263	-0.001044	0.007935	0.304199	0.949219	0.006592	0.648087	-0.269724	0.482014	-0.524303
62563		-3.188110	-8.321748	3.869012	0.035742	-0.022468	0.018647	0.313721	0.948242	0.002930	0.648335	-0.269566	0.481791	-0.524283
62564		-3.496891	-8.245864	3.953232	0.013508	-0.002777	0.005866	0.323486	0.944092	0.004883	0.648424	-0.269479	0.481736	-0.524269
62565		-3.810264	-8.238392	4.032537	-0.032966	0.014990	-0.013913	0.311279	0.950195	0.003662	0.648274	-0.269639	0.481946	-0.524179
62566		-3.553507	-8.418442	3.850816	-0.060013	0.045033	-0.037470	0.314453	0.943848	0.009033	0.647808	-0.269916	0.482374	-0.524219
62567		-3.019002	-8.378460	3.697789	-0.028656	0.045670	-0.040441	0.304443	0.948730	0.003418	0.647406	-0.270036	0.482675	-0.524377
62568		-2.863030	-8.230260	3.662559	-0.009367	0.035607	-0.025235	0.317139	0.947754	0.006104	0.647135	-0.270030	0.482851	-0.524553
62569		-3.209785	-8.135333	3.838386	-0.028999	0.040323	-0.010336	0.313721	0.954346	0.016357	0.646895	-0.270045	0.483181	-0.524536
62570		-3.560716	-8.369625	4.104138	-0.061967	0.039116	-0.013182	0.313232	0.947754	0.009766	0.646551	-0.270282	0.483667	-0.524391
62571		-3.336742	-8.915158	3.887380	-0.070501	0.044935	-0.019705	0.313965	0.952881	0.011230	0.646148	-0.270545	0.484186	-0.524274
62572		-2.930818	-8.916089	3.520166	-0.000505	0.033173	-0.025435	0.309326	0.948730	0.013428	0.645923	-0.270507	0.484322	-0.524444
62573		-2.897979	-8.272981	3.588312	0.065027	0.001448	-0.017570	0.310547	0.949707	0.009033	0.646000	-0.270231	0.484023	-0.524768
62574		-3.243942	-7.864916	3.859675	0.023625	0.029954	-0.006330	0.309082	0.956787	0.005371	0.645924	-0.269999	0.484074	-0.524933
62575		-3.623009	-8.118103	3.822079	-0.055927	0.066532	-0.005279	0.304443	0.946777	0.011475	0.645522	-0.270028	0.484661	-0.524872
62576		-3.623384	-8.585257	3.586387	-0.082845	0.062064	-0.013824	0.313721	0.953613	0.017578	0.645030	-0.270265	0.485336	-0.524731
62577		-3.350593	-8.828688	3.604124	-0.032055	0.013618	-0.013037	0.304443	0.948975	0.007324	0.644863	-0.270441	0.485546	-0.524651
62578		-3.282915	-8.722966	3.582055	0.038968	-0.026133	-0.011622	0.314209	0.954102	0.015137	0.645017	-0.270386	0.485201	-0.524808
62579		-3.531050	-8.470210	3.547043	0.061864	-0.019350	-0.007163	0.312256	0.950195	0.012695	0.645225	-0.270173	0.484829	-0.525006
62580		-3.676704	-8.244391	3.670501	0.037047	-0.011220	-0.012548	0.311035	0.946045	0.011475	0.645320	-0.270076	0.484594	-0.525157
62581		-3.434557	-8.303097	3.644770	0.002005	-0.011480	-0.007114	0.312744	0.944824	0.004395	0.645362	-0.270144	0.484521	-0.525137
62582		-3.158040	-8.497284	3.568606	0.002404	-0.036474	-0.005158	0.313965	0.956787	0.004395	0.645526	-0.270294	0.484299	-0.525063
62583		-3.213459	-8.549466	3.701974	0.030178	-0.057658	0.005809	0.304932	0.955566	0.003906	0.645881	-0.270348	0.483864	-0.525000
62584		-3.635709	-8.419636	3.800057	0.022176	-0.048453	0.018078	0.318848	0.958496	0.008057	0.646213	-0.270360	0.483542	-0.524882
62585		-3.839365	-8.263911	3.758728	0.000604	-0.024553	0.005393	0.311035	0.953857	0.010010	0.646369	-0.270438	0.483429	-0.524754
62586		-3.612779	-8.322834	3.652808	0.010730	-0.029769	-0.016920	0.306396	0.947021	0.011230	0.646452	-0.270581	0.483199	-0.524789
62587		-3.071473	-8.405678	3.650241	0.040488	-0.042929	-0.023252	0.311768	0.946777	0.006104	0.646620	-0.270649	0.482759	-0.524953
62588		-2.741626	-8.459602	3.894064	0.067847	-0.051326	-0.009064	0.311279	0.955811	0.010742	0.646964	-0.270537	0.482173	-0.525124
62589		-2.932967	-8.445830	3.937162	0.062661	-0.045110	0.004153	0.317139	0.946045	0.006348	0.647316	-0.270390	0.481689	-0.525212
62590		-3.288589	-8.281619	3.991022	0.020929	-0.022557	0.011604	0.310303	0.949951	0.009033	0.647540	-0.270327	0.481517	-0.525125
62591		-3.384073	-8.273672	3.970833	-0.016919	-0.007441	0.000612	0.308838	0.950195	0.002197	0.647547	-0.270459	0.481575	-0.524996
62592		-3.224331	-8.493645	3.845169	-0.018941	0.003320	-0.017259	0.306641	0.950684	0.007568	0.647433	-0.270611	0.481640	-0.524999
62593		-2.968216	-8.462839	3.844184	0.009011	0.001059	-0.017316	0.311523	0.954590	0.008789	0.647379	-0.270635	0.481583	-0.525104
62594		-2.887222	-8.309701	3.905137	0.035453	-0.004356	0.000853	0.316895	0.947021	0.007324	0.647495	-0.270469	0.481426	-0.525191
62595		-2.926737	-8.238581	3.903630	0.022712	0.000030	0.019102	0.322021	0.947021	0.007812	0.647663	-0.270272	0.481388	-0.525120
62596		-3.139032	-8.371420	3.922109	-0.014406	0.012103	0.013171	0.311279	0.947510	0.004150	0.647683	-0.270246	0.481567	-0.524945
62597		-3.331417	-8.608114	3.862489	-0.045499	0.025921	-0.000075	0.311768	0.951416	0.008545	0.647499	-0.270380	0.481913	-0.524785
62598		-3.521139	-8.590309	3.791909	-0.040694	0.046920	-0.017204	0.313477	0.947510	0.006104	0.647161	-0.270475	0.482321	-0.524778
62599		-3.575491	-8.239983	3.768698	0.001512	0.042304	-0.014335	0.305908	0.950195	0.007812	0.646960	-0.270339	0.482519	-0.524915
62600		-3.505891	-7.970524	3.675496	0.021713	0.030374	0.001145	0.307861	0.954834	0.007324	0.646899	-0.270094	0.482601	-0.525040
62601		-3.349931	-8.134151	3.645491	0.001085	0.030081	-0.001360	0.309326	0.950684	0.002930	0.646784	-0.269969	0.482765	-0.525095
62602		-3.181629	-8.482131	3.776323	-0.022965	0.020798	-0.003519	0.309326	0.955566	-0.003418	0.646652	-0.270011	0.482969	-0.525048
62603		-3.212668	-8.823856	3.759306	-0.037935	0.023956	-0.009614	0.314453	0.955566	0.008545	0.646452	-0.270132	0.483224	-0.524999
62604		-3.471279	-8.746556	3.743004	-0.017728	0.043895	-0.019899	0.312256	0.942383	0.006592	0.646171	-0.270118	0.483504	-0.525093
62605		-3.676721	-8.291147	3.745165	0.013825	0.045738	-0.027612	0.312988	0.953857	0.008545	0.645928	-0.269950	0.483633	-0.525360
62606		-3.535313	-7.921620	3.716239	0.032955	0.044222	-0.023378	0.312256	0.950684	0.009033	0.645744	-0.269674	0.483685	-0.525680
62607		-3.218293	-8.011013	3.777668	0.029697	0.030171	-0.020037	0.308350	0.950928	0.010742	0.645624	-0.269464	0.483685	-0.525935
62608		-3.040247	-8.524805	3.773546	-0.011294	0.018762	-0.010856	0.313232	0.950684	0.004639	0.645488	-0.269494	0.483829	-0.525954
62609		-3.024402	-8.988224	3.790543	-0.049312	0.029279	-0.009151	0.310791	0.955078	0.006836	0.645250	-0.269659	0.484184	-0.525836
62610		-3.306413	-8.904398	3.715488	-0.040647	0.032935	-0.008117	0.316650	0.947266	0.007324	0.645011	-0.269765	0.484524	-0.525760
62611		-3.522839	-8.376805	3.671660	0.007915	0.029990	-0.009729	0.309814	0.949707	0.014893	0.644907	-0.269622	0.484632	-0.525862
62612		-3.511768	-7.970190	3.594374	0.042314	0.011082	-0.010267	0.314453	0.947021	-0.001709	0.644928	-0.269401	0.484505	-0.526066
62613		-3.260162	-8.092658	3.650112	0.028492	-0.007263	-0.004658	0.309326	0.950928	0.004395	0.645045	-0.269272	0.484313	-0.526166
62614		-3.090388	-8.544213	3.764510	-0.007969	-0.012204	0.003587	0.318115	0.954834	0.003906	0.645116	-0.269345	0.484289	-0.526064
62615		-3.100400	-8.898366	3.825958	-0.027671	-0.010129	0.007846	0.305176	0.949951	0.010742	0.645170	-0.269495	0.484370	-0.525845
62616		-3.331058	-8.717344	3.761150	-0.003085	-0.008098	0.007229	0.315918	0.952881	0.002930	0.645236	-0.269526	0.484369	-0.525749
62617		-3.540332	-8.292405	3.768214	0.028053	-0.013303	0.000515	0.314697	0.950439	0.011719	0.645394	-0.269419	0.484169	-0.525796
62618		-3.540420	-7.995784	3.679044	0.037864	-0.007686	-0.002800	0.322021	0.944824	0.017578	0.645526	-0.269268	0.483972	-0.525892
62619		-3.385714	-8.110463	3.766760	0.013458	-0.009787	-0.000854	0.315918	0.947754	0.007568	0.645636	-0.269261	0.483890	-0.525835
62620		-3.239121	-8.456831	3.810628	-0.021431	-0.009482	-0.002343	0.316650	0.944580	0.017334	0.645652	-0.269426	0.483936	-0.525690
62621		-3.226470	-8.702168	3.842741	-0.029708	-0.013286	-0.000746	0.317627	0.947754	0.007812	0.645668	-0.269668	0.484023	-0.525465
62622		-3.338412	-8.649787	3.743174	-0.011163	-0.016803	0.001454	0.318848	0.946289	0.009033	0.645756	-0.269793	0.483992	-0.525321
62623		-3.462483	-8.396910	3.718819	0.019401	-0.022988	-0.003104	0.317139	0.955078	0.006592	0.645922	-0.269801	0.483786	-0.525303
62624		-3.506203	-8.247607	3.709009	0.035199	-0.022834	-0.010132	0.313721	0.951904	0.009766	0.646082	-0.269750	0.483490	-0.525405
62625		-3.444441	-8.257839	3.707578	0.019299	-0.016741	-0.012257	0.310303	0.955078	0.006348	0.646165	-0.269776	0.483302	-0.525463
62626		-3.293281	-8.367131	3.762436	0.009372	-0.015072	-0.013846	0.303955	0.948975	0.013672	0.646204	-0.269848	0.483155	-0.525513
62627		-3.205646	-8.452357	3.825239	-0.007711	-0.013170	-0.009702	0.311279	0.955811	0.010742	0.646201	-0.270007	0.483119	-0.525468
62628		-3.199106	-8.493247	3.802396	-0.003789	-0.015400	-0.006964	0.312256	0.954590	0.008057	0.646241	-0.270136	0.483054	-0.525413
62629		-3.233167	-8.445391	3.758485	0.003350	-0.010798	-0.003999	0.311279	0.946533	0.008057	0.646297	-0.270186	0.482982	-0.525384
62630		-3.347729	-8.371464	3.701310	0.008837	-0.004516	-0.008684	0.312988	0.943604	0.001709	0.646322	-0.270197	0.482910	-0.525413
62631		-3.358490	-8.376336	3.764952	0.006812	0.001620	-0.012400	0.307373	0.958252	0.009277	0.646312	-0.270189	0.482859	-0.525478
62632		-3.292385	-8.367855	3.809927	0.005135	0.005381	-0.011570	0.303223	0.948730	0.005127	0.646260	-0.270196	0.482853	-0.525544
62633		-3.173968	-8.416292	3.833252	0.006471	0.007267	-0.014609	0.313477	0.953125	0.009521	0.646189	-0.270188	0.482835	-0.525650
62634		-3.101039	-8.441669	3.835714	0.003969	0.001193	-0.005308	0.315186	0.951904	0.008545	0.646196	-0.270192	0.482827	-0.525647
62635		-3.087552	-8.428963	3.864223	0.009776	-0.003156	-0.006101	0.307129	0.953369	0.006104	0.646236	-0.270183	0.482765	-0.525660
62636		-3.134623	-8.438538	3.844720	0.004729	0.005375	-0.003830	0.306641	0.951416	0.011475	0.646223	-0.270154	0.482771	-0.525685
62637		-3.205016	-8.414340	3.787925	0.001773	0.013424	-0.007795	0.310547	0.955811	0.001709	0.646151	-0.270135	0.482836	-0.525724
62638		-3.227120	-8.399613	3.821381	-0.004188	0.019552	-0.012352	0.309814	0.949463	0.019043	0.646032	-0.270114	0.482928	-0.525796
62639		-3.237836	-8.406179	3.827326	-0.003786	0.023874	-0.013519	0.307861	0.956787	0.006348	0.645885	-0.270119	0.483076	-0.525838
62640		-3.296006	-8.369934	3.796546	0.000670	0.021958	-0.004693	0.311035	0.957520	0.003906	0.645794	-0.270043	0.483186	-0.525888
62641		-3.370263	-8.325533	3.777046	-0.002884	0.024043	-0.004795	0.308350	0.956299	0.009277	0.645693	-0.269970	0.483317	-0.525929
62642		-3.346698	-8.308976	3.739111	-0.018846	0.029449	0.001340	0.309814	0.949951	0.003418	0.645553	-0.269948	0.483572	-0.525878
62643		-3.320274	-8.437832	3.709449	-0.027997	0.028218	-0.005576	0.310303	0.949951	0.007568	0.645378	-0.269990	0.483831	-0.525832
62644		-3.354875	-8.561845	3.705739	-0.016528	0.027855	-0.007819	0.316162	0.952637	0.012451	0.645219	-0.269989	0.484042	-0.525834
62645		-3.399103	-8.532854	3.717692	0.003297	0.016284	-0.005269	0.310059	0.944824	0.004639	0.645171	-0.269932	0.484118	-0.525852
62646		-3.423890	-8.452208	3.685328	0.015796	0.003969	-0.002555	0.314209	0.948486	0.006104	0.645209	-0.269831	0.484063	-0.525908
62647		-3.420164	-8.393103	3.651076	0.011270	0.000231	-0.001436	0.311035	0.952637	0.003174	0.645262	-0.269770	0.484014	-0.525920
62648		-3.365584	-8.442558	3.666552	0.008444	-0.008308	-0.005381	0.315918	0.950928	0.005127	0.645317	-0.269772	0.483917	-0.525940
62649		-3.271411	-8.481923	3.690525	0.005236	-0.009117	-0.003057	0.303223	0.944824	0.009033	0.645390	-0.269789	0.483839	-0.525914
62650		-3.327101	-8.464617	3.677924	-0.002334	-0.013213	0.003834	0.305908	0.951416	0.009766	0.645466	-0.269851	0.483796	-0.525828
62651		-3.388604	-8.432673	3.724264	0.006238	-0.025534	0.005702	0.311279	0.951904	0.011719	0.645621	-0.269915	0.483656	-0.525735
62652		-3.390142	-8.438008	3.746665	0.008075	-0.037624	0.005547	0.311279	0.945801	0.005127	0.645837	-0.270026	0.483446	-0.525605
62653		-3.343109	-8.460304	3.770528	0.003049	-0.036168	0.001011	0.306641	0.954102	0.008301	0.646023	-0.270159	0.483243	-0.525495
62654		-3.303986	-8.455558	3.802210	0.016780	-0.039313	-0.004251	0.307617	0.949463	0.009766	0.646212	-0.270265	0.482958	-0.525470
62655		-3.272154	-8.397355	3.807281	0.025758	-0.046272	0.000672	0.308594	0.952393	0.002197	0.646474	-0.270337	0.482611	-0.525429
62656		-3.241499	-8.285693	3.850521	0.016566	-0.038868	0.006922	0.314697	0.957764	0.002197	0.646718	-0.270383	0.482344	-0.525351
62657		-3.271802	-8.250427	3.804916	-0.004422	-0.027019	0.006869	0.312988	0.951416	0.006836	0.646875	-0.270492	0.482233	-0.525203
62658		-3.293526	-8.394093	3.779120	-0.017709	-0.018885	0.002710	0.309082	0.950928	0.004883	0.646949	-0.270664	0.482225	-0.525031
62659		-3.298427	-8.486135	3.814264	-0.013518	-0.007793	-0.004657	0.311768	0.952148	0.009277	0.646948	-0.270790	0.482237	-0.524956
62660		-3.278711	-8.461795	3.803103	0.014663	-0.012136	-0.011834	0.315674	0.944092	0.003174	0.646999	-0.270823	0.482095	-0.525007
62661		-3.205237	-8.335148	3.779078	0.031712	-0.016396	-0.003717	0.308350	0.951660	0.005615	0.647159	-0.270732	0.481861	-0.525071
62662		-3.159127	-8.276639	3.861815	0.022145	-0.012126	-0.002430	0.308350	0.956055	-0.000488	0.647263	-0.270680	0.481701	-0.525116
62663		-3.200914	-8.371639	3.871462	-0.009739	0.006047	-0.004056	0.308838	0.946533	0.006592	0.647216	-0.270714	0.481764	-0.525099
62664		-3.296823	-8.471673	3.825085	-0.024905	0.018009	-0.008697	0.314941	0.940918	0.001221	0.647070	-0.270812	0.481960	-0.525049
62665		-3.313494	-8.472506	3.797628	-0.016100	0.007847	-0.007442	0.310059	0.956299	0.010010	0.647010	-0.270885	0.482054	-0.524999
62666		-3.293957	-8.423018	3.748670	-0.001087	0.003171	-0.007714	0.314209	0.950928	0.006104	0.646976	-0.270922	0.482074	-0.525002
62667		-3.268223	-8.432330	3.694954	0.010926	0.005356	-0.005799	0.311768	0.948975	-0.002441	0.646984	-0.270867	0.482049	-0.525044
62668		-3.268152	-8.379015	3.733980	0.004168	0.006109	-0.005681	0.305664	0.949219	0.008301	0.646975	-0.270823	0.482041	-0.525085
62669		-3.320818	-8.401295	3.752595	-0.003732	0.004384	-0.003320	0.314209	0.948486	0.005859	0.646946	-0.270848	0.482086	-0.525067
62670		-3.304421	-8.428481	3.811066	-0.008804	0.001376	-0.004033	0.308105	0.952393	0.004639	0.646935	-0.270909	0.482129	-0.525010
62671		-3.273067	-8.444844	3.787525	-0.005638	-0.004508	-0.000653	0.311768	0.957275	0.006836	0.646954	-0.270962	0.482132	-0.524955
62672		-3.270110	-8.412449	3.786906	-0.000757	-0.006937	-0.001697	0.305664	0.943848	0.000000	0.646993	-0.271010	0.482103	-0.524909
62673		-3.262516	-8.393623	3.782815	-0.005827	-0.009946	-0.002410	0.310547	0.956055	0.003906	0.647029	-0.271083	0.482064	-0.524863
62674		-3.292176	-8.431668	3.766408	-0.008422	0.000192	-0.005631	0.308350	0.962402	0.010254	0.647005	-0.271149	0.482092	-0.524834
62675		-3.287265	-8.445780	3.761951	-0.004314	-0.002101	-0.001573	0.324951	0.948730	0.003662	0.647003	-0.271203	0.482112	-0.524789
62676		-3.253625	-8.402317	3.758414	0.007891	-0.003780	-0.002796	0.307373	0.946777	0.001709	0.647081	-0.271184	0.482050	-0.524760
62677		-3.240337	-8.415914	3.767950	0.006754	-0.003505	-0.000337	0.310059	0.948730	0.008545	0.647129	-0.271157	0.481999	-0.524762
62678		-3.200792	-8.405613	3.776556	-0.006187	-0.001025	-0.002279	0.312988	0.951172	0.013916	0.647131	-0.271214	0.482027	-0.524705
62679		-3.249008	-8.468397	3.771451	-0.010502	0.002904	-0.001295	0.305176	0.956055	0.003174	0.647113	-0.271286	0.482107	-0.524616
62680		-3.304376	-8.452572	3.702489	-0.001112	0.004738	-0.001349	0.316650	0.947754	0.008545	0.647094	-0.271274	0.482136	-0.524619
62681		-3.402241	-8.399420	3.684203	0.005996	0.001616	0.003080	0.315918	0.943359	0.010986	0.647151	-0.271231	0.482135	-0.524572
62682		-3.402504	-8.425863	3.664912	-0.006766	0.001273	0.002241	0.312012	0.953125	0.009033	0.647176	-0.271267	0.482190	-0.524471
62683		-3.361228	-8.488558	3.650303	-0.003748	-0.000601	-0.001633	0.313965	0.948975	0.008301	0.647184	-0.271307	0.482211	-0.524421
62684		-3.301735	-8.499336	3.644863	0.012926	-0.013494	0.001071	0.312012	0.954346	0.005371	0.647301	-0.271299	0.482094	-0.524388
62685		-3.356918	-8.472731	3.726111	0.032214	-0.031019	0.007423	0.312500	0.951172	0.005859	0.647553	-0.271233	0.481807	-0.524375
62686		-3.378380	-8.454997	3.766956	0.029393	-0.037999	0.009837	0.311279	0.954346	0.000732	0.647840	-0.271205	0.481503	-0.524315
62687		-3.352753	-8.409192	3.756142	0.014767	-0.034512	0.008514	0.310547	0.942871	0.001465	0.648070	-0.271236	0.481270	-0.524229
62688		-3.271406	-8.380239	3.811902	0.013854	-0.033645	0.004022	0.315186	0.954102	0.004395	0.648279	-0.271287	0.481038	-0.524156
62689		-3.226140	-8.328746	3.859715	0.024940	-0.046070	0.004362	0.316650	0.948242	0.007812	0.648566	-0.271341	0.480697	-0.524087
62690		-3.161209	-8.351646	3.854505	0.016492	-0.034999	0.010000	0.316650	0.947510	0.007568	0.648818	-0.271378	0.480472	-0.523961
62691		-3.220472	-8.364860	3.900108	0.008995	-0.019675	0.008053	0.305908	0.939453	0.011230	0.648984	-0.271397	0.480359	-0.523850
62692		-3.262080	-8.353919	3.932338	0.006954	-0.004103	-0.001154	0.318848	0.951172	0.002197	0.649024	-0.271406	0.480326	-0.523827
62693		-3.255872	-8.341479	3.894738	0.015624	-0.000821	-0.012667	0.318115	0.948730	-0.001465	0.649042	-0.271377	0.480229	-0.523907
62694		-3.199463	-8.338718	3.893790	0.017325	0.005909	-0.014759	0.312256	0.953613	0.004150	0.649030	-0.271310	0.480149	-0.524030
62695		-3.153153	-8.361220	3.915766	0.009613	0.017892	-0.009975	0.311279	0.952637	0.008789	0.648957	-0.271230	0.480191	-0.524124
62696		-3.134674	-8.337511	3.848878	0.004158	0.024857	-0.006306	0.311279	0.947754	0.012939	0.648856	-0.271145	0.480310	-0.524183
62697		-3.218176	-8.318737	3.853143	-0.008789	0.031794	-0.012034	0.315918	0.948975	0.001465	0.648676	-0.271133	0.480518	-0.524222
62698		-3.258082	-8.357245	3.821827	-0.019494	0.041324	-0.009964	0.312988	0.953613	0.001465	0.648455	-0.271099	0.480807	-0.524248
62699		-3.304850	-8.441774	3.774650	-0.018351	0.038814	-0.010527	0.321045	0.948486	-0.000977	0.648236	-0.271072	0.481075	-0.524287
62700		-3.273018	-8.478618	3.764047	-0.010073	0.034893	-0.010693	0.312012	0.942627	0.010010	0.648071	-0.271007	0.481279	-0.524337
62701		-3.221561	-8.509562	3.759215	0.000249	0.030355	-0.006705	0.309570	0.941895	0.004395	0.647948	-0.270920	0.481442	-0.524385
62702		-3.200148	-8.498171	3.743421	0.012434	0.016481	-0.002649	0.302734	0.947510	0.001709	0.647923	-0.270796	0.481475	-0.524449
62703		-3.263412	-8.420920	3.737497	0.006784	0.009741	-0.001387	0.315430	0.952637	0.006104	0.647901	-0.270724	0.481495	-0.524494
62704		-3.334032	-8.415388	3.751557	-0.000737	0.009583	-0.000404	0.300537	0.958008	0.002686	0.647889	-0.270698	0.481557	-0.524467
62705		-3.354448	-8.367440	3.784978	-0.000548	0.006236	-0.001417	0.305176	0.945312	0.001953	0.647853	-0.270686	0.481593	-0.524484
62706		-3.354764	-8.394135	3.765250	-0.003199	0.007454	0.002979	0.313232	0.952637	0.008789	0.647844	-0.270659	0.481654	-0.524453
62707		-3.280684	-8.413246	3.746707	-0.004878	0.001903	-0.001078	0.309814	0.950439	0.004639	0.647843	-0.270697	0.481697	-0.524396
62708		-3.286454	-8.460323	3.675952	-0.006963	0.004621	0.003256	0.312988	0.951416	0.007324	0.647842	-0.270708	0.481765	-0.524329
62709		-3.353633	-8.459435	3.830549	0.001317	0.005686	0.001413	0.313721	0.952637	0.014648	0.647852	-0.270682	0.481803	-0.524296
62710		-3.422008	-8.402694	3.773542	0.005286	0.001369	-0.004334	0.304932	0.957275	0.004639	0.647859	-0.270693	0.481801	-0.524282
62711		-3.467489	-8.334612	3.701960	0.012822	0.003755	-0.007224	0.301514	0.947998	0.006836	0.647847	-0.270645	0.481754	-0.524365
62712		-3.464062	-8.275149	3.722065	0.011531	-0.000228	-0.012666	0.316406	0.953857	0.000732	0.647822	-0.270648	0.481684	-0.524460
62713		-3.409220	-8.298530	3.755231	-0.003142	0.010334	-0.007204	0.312500	0.953613	-0.000977	0.647773	-0.270644	0.481736	-0.524474
62714		-3.351257	-8.387913	3.800312	0.000263	0.013303	-0.010127	0.314941	0.947021	0.000244	0.647700	-0.270617	0.481779	-0.524538
62715		-3.265867	-8.453502	3.791647	0.007732	0.004549	-0.003475	0.312256	0.956055	0.006836	0.647717	-0.270562	0.481760	-0.524563
62716		-3.195746	-8.405041	3.817338	0.013525	-0.009756	-0.000878	0.315430	0.951172	0.011963	0.647801	-0.270545	0.481657	-0.524562
62717		-3.176382	-8.371235	3.898351	0.016523	-0.021599	-0.001360	0.315674	0.945312	0.000732	0.647944	-0.270576	0.481486	-0.524527
62718		-3.208604	-8.466443	3.921409	0.004909	-0.008987	-0.005712	0.309570	0.954590	0.010986	0.648001	-0.270607	0.481402	-0.524518
62719		-3.225727	-8.473271	3.862347	-0.005745	0.008920	-0.013419	0.310303	0.942627	0.006348	0.647906	-0.270675	0.481465	-0.524543
62720		-3.208189	-8.324200	3.855381	0.007436	0.013068	-0.015883	0.320557	0.954102	0.006348	0.647824	-0.270650	0.481477	-0.524645
62721		-3.119658	-8.172698	3.870333	0.009652	0.015667	-0.008074	0.314453	0.947998	-0.006104	0.647785	-0.270570	0.481511	-0.524704
62722		-3.181793	-8.299988	3.855154	-0.005998	0.020928	0.000741	0.317871	0.948486	0.005371	0.647725	-0.270490	0.481638	-0.524702
62723		-3.313468	-8.450671	3.777230	-0.023987	0.035847	-0.004888	0.312500	0.945801	0.010010	0.647542	-0.270489	0.481932	-0.524658
62724		-3.464012	-8.502017	3.714776	-0.020511	0.039465	-0.016095	0.309082	0.953125	0.005615	0.647293	-0.270509	0.482213	-0.524698
62725		-3.497605	-8.423805	3.664250	-0.015349	0.051390	-0.023035	0.320068	0.952393	0.008545	0.646968	-0.270467	0.482511	-0.524846
62726		-3.432676	-8.337628	3.706829	-0.004995	0.048567	-0.023056	0.313721	0.950684	0.013916	0.646698	-0.270383	0.482753	-0.524999
62727		-3.330839	-8.413172	3.629042	-0.007532	0.037521	-0.012040	0.321045	0.949951	0.008545	0.646503	-0.270330	0.482980	-0.525058
62728		-3.305117	-8.494830	3.605584	0.003682	0.028860	-0.005850	0.305664	0.942627	0.005859	0.646411	-0.270213	0.483116	-0.525107
62729		-3.394680	-8.453094	3.758815	0.007781	0.015043	-0.004742	0.318848	0.947998	0.006836	0.646366	-0.270128	0.483156	-0.525169
62730		-3.491481	-8.472783	3.771079	-0.012687	0.017329	-0.005760	0.306641	0.948730	0.006348	0.646282	-0.270146	0.483298	-0.525133
62731		-3.424904	-8.465682	3.758812	-0.004310	0.013028	-0.018407	0.314453	0.947754	0.007812	0.646156	-0.270191	0.483350	-0.525217
62732		-3.219669	-8.474499	3.740448	0.006520	0.005031	-0.012729	0.304443	0.944336	0.004639	0.646126	-0.270189	0.483327	-0.525275
62733		-3.108935	-8.495436	3.717752	0.016578	0.002158	-0.003645	0.318848	0.953857	0.007324	0.646155	-0.270105	0.483259	-0.525345
62734		-3.054049	-8.431124	3.791294	0.021913	-0.003868	0.007369	0.311523	0.950195	0.005859	0.646289	-0.269979	0.483165	-0.525331
62735		-3.072094	-8.341959	3.861884	0.006253	-0.004657	0.013600	0.316895	0.951172	0.006836	0.646407	-0.269915	0.483147	-0.525235
62736		-3.189259	-8.419222	3.832488	-0.015586	-0.003731	0.017748	0.310303	0.961182	0.002930	0.646500	-0.269950	0.483240	-0.525018
62737		-3.243143	-8.548370	3.771688	-0.031023	-0.002883	0.021265	0.312500	0.945557	0.010254	0.646552	-0.270044	0.483407	-0.524752
62738		-3.227925	-8.524396	3.755766	-0.028904	-0.000093	0.017354	0.314453	0.952637	0.005127	0.646591	-0.270144	0.483581	-0.524492
62739		-3.236628	-8.412753	3.742690	-0.009121	0.014927	0.016469	0.317139	0.950195	0.013916	0.646610	-0.270063	0.483738	-0.524365
62740		-3.350230	-8.319036	3.732942	0.001241	0.011059	0.012232	0.312012	0.946045	0.007080	0.646654	-0.269980	0.483834	-0.524266
62741		-3.411520	-8.315337	3.648713	0.001412	0.008238	0.013343	0.313721	0.952637	0.005615	0.646708	-0.269888	0.483905	-0.524181
62742		-3.521317	-8.392955	3.629659	-0.016972	0.020406	0.015195	0.321777	0.947021	0.009277	0.646679	-0.269831	0.484123	-0.524045
62743		-3.561566	-8.396630	3.653225	-0.011662	0.009721	0.005785	0.313965	0.953857	0.013672	0.646680	-0.269835	0.484245	-0.523929
62744		-3.411390	-8.445506	3.724971	0.013253	-0.013613	0.003792	0.316162	0.947266	0.010010	0.646802	-0.269826	0.484136	-0.523883
62745		-3.218225	-8.502561	3.771673	0.040488	-0.038362	0.016872	0.320801	0.956055	0.012451	0.647151	-0.269717	0.483798	-0.523821
62746		-3.287894	-8.520271	3.774564	0.043870	-0.045358	0.017341	0.321777	0.951904	0.005371	0.647540	-0.269626	0.483413	-0.523742
62747		-3.623387	-8.347669	3.809487	0.029883	-0.036455	0.009955	0.319336	0.950928	0.009033	0.647834	-0.269587	0.483110	-0.523678
62748		-3.838192	-8.191720	3.864429	0.005006	-0.033305	-0.004138	0.308350	0.954590	-0.001953	0.647993	-0.269735	0.482909	-0.523592
62749		-3.632011	-8.261599	3.774109	-0.012730	-0.026058	-0.017385	0.319092	0.951904	0.007324	0.648004	-0.269976	0.482778	-0.523574
62750		-3.205338	-8.401385	3.615819	0.004330	-0.039595	-0.014108	0.320557	0.960938	0.006348	0.648141	-0.270189	0.482522	-0.523530
62751		-2.898517	-8.473451	3.726677	0.027750	-0.048361	-0.002782	0.314209	0.957031	0.005615	0.648414	-0.270268	0.482140	-0.523503
62752		-2.982429	-8.370230	3.904986	0.024106	-0.048106	0.011535	0.316895	0.949219	0.000000	0.648731	-0.270310	0.481808	-0.523395
62753		-3.405133	-8.263785	4.014811	0.002153	-0.020603	0.012274	0.309082	0.947266	0.000977	0.648901	-0.270334	0.481712	-0.523259
62754		-3.589805	-8.232435	3.965119	-0.032460	0.017807	-0.007758	0.312256	0.951416	0.007812	0.648738	-0.270463	0.481933	-0.523192
62755		-3.366442	-8.308498	3.726042	-0.033980	0.046593	-0.025831	0.317627	0.949707	0.001709	0.648379	-0.270560	0.482285	-0.523262
62756		-3.107946	-8.377749	3.625382	-0.010367	0.056825	-0.035956	0.317383	0.945557	0.014648	0.648000	-0.270508	0.482555	-0.523509
62757		-3.024567	-8.337482	3.744284	-0.000254	0.056695	-0.026697	0.312988	0.955811	0.007324	0.647685	-0.270393	0.482822	-0.523713
62758		-3.010019	-8.408445	3.908811	0.008936	0.034560	-0.003609	0.320312	0.947021	0.002441	0.647570	-0.270218	0.482968	-0.523811
62759		-2.933208	-8.537654	3.955448	0.000951	0.029423	0.006808	0.314697	0.949219	0.007324	0.647522	-0.270053	0.483135	-0.523801
62760		-2.993404	-8.625234	3.973183	-0.011636	0.022962	0.004724	0.313721	0.946533	0.000244	0.647451	-0.270006	0.483325	-0.523737
62761		-3.178125	-8.622413	3.845707	-0.036493	0.043660	-0.003884	0.317871	0.948486	0.010986	0.647205	-0.270022	0.483702	-0.523685
62762		-3.393817	-8.314791	3.784385	-0.018444	0.065383	-0.015479	0.315674	0.947754	0.001953	0.646865	-0.269915	0.484108	-0.523785
62763		-3.380737	-8.094331	3.741243	0.005183	0.054464	-0.011259	0.321045	0.957031	0.002930	0.646640	-0.269689	0.484346	-0.523960
62764		-3.322684	-8.133044	3.658070	-0.008485	0.057385	0.005678	0.310547	0.956299	0.004150	0.646451	-0.269457	0.484697	-0.523987
62765		-3.286951	-8.510910	3.683616	-0.034555	0.045848	-0.000927	0.314941	0.953125	0.005859	0.646201	-0.269445	0.485089	-0.523939
62766		-3.283483	-8.809641	3.661200	-0.045245	0.041065	-0.002126	0.322266	0.948975	0.005371	0.645951	-0.269519	0.485499	-0.523830
62767		-3.525163	-8.702471	3.665495	-0.013366	0.021926	-0.004524	0.322266	0.950928	0.013428	0.645857	-0.269511	0.485657	-0.523803
62768		-3.692080	-8.329798	3.668836	0.004485	-0.010014	-0.002168	0.321289	0.951416	0.012451	0.645938	-0.269554	0.485584	-0.523748
62769		-3.764026	-8.074978	3.640579	0.008301	-0.016163	0.006543	0.321045	0.945068	0.013916	0.646089	-0.269566	0.485479	-0.523653
62770		-3.637731	-8.306981	3.653086	-0.014402	-0.026427	0.001043	0.311768	0.956543	0.011230	0.646208	-0.269770	0.485410	-0.523466
62771		-3.415086	-8.607100	3.612121	-0.030473	-0.026353	-0.005023	0.312500	0.952148	0.012451	0.646239	-0.270076	0.485396	-0.523282
62772		-3.293787	-8.656871	3.579934	-0.005409	-0.020957	-0.011018	0.310059	0.949219	0.011475	0.646283	-0.270250	0.485289	-0.523238
62773		-3.283564	-8.341674	3.658488	0.009524	-0.007309	-0.015294	0.314941	0.950439	0.012695	0.646284	-0.270300	0.485180	-0.523312
62774		-3.361260	-8.037946	3.799327	0.028158	-0.011481	-0.003436	0.322510	0.949707	0.015869	0.646404	-0.270222	0.484995	-0.523376
62775		-3.460754	-8.271992	3.846782	0.013271	-0.011370	0.001900	0.320557	0.945312	0.011719	0.646527	-0.270212	0.484891	-0.523325
62776		-3.524321	-8.623196	3.773167	-0.010306	-0.009242	-0.005115	0.317871	0.946533	0.007080	0.646557	-0.270338	0.484880	-0.523233
62777		-3.525514	-8.672206	3.646894	-0.011944	0.009664	-0.021124	0.317627	0.955811	0.016357	0.646433	-0.270444	0.484935	-0.523281
62778		-3.409462	-8.346854	3.632744	0.018897	0.019205	-0.038990	0.308105	0.949219	0.011230	0.646254	-0.270435	0.484882	-0.523555
62779		-3.199811	-8.078157	3.714870	0.026723	0.014783	-0.033472	0.312256	0.948242	0.013184	0.646123	-0.270368	0.484777	-0.523849
62780		-3.089585	-8.192334	3.619827	0.007741	0.009749	-0.016880	0.314453	0.945557	0.014648	0.646050	-0.270364	0.484768	-0.523949
62781		-3.129235	-8.615348	3.723514	-0.010172	-0.008274	0.000456	0.308105	0.950928	0.003906	0.646092	-0.270469	0.484780	-0.523832
62782		-3.263144	-8.920738	3.805593	-0.017637	-0.017434	0.010376	0.308594	0.958008	0.008789	0.646184	-0.270589	0.484783	-0.523654
62783		-3.413725	-8.845225	3.754065	0.015112	-0.031694	0.001144	0.315186	0.949951	0.013184	0.646363	-0.270643	0.484552	-0.523619
62784		-3.399981	-8.397976	3.715313	0.057608	-0.055245	-0.006323	0.315430	0.951416	0.011230	0.646716	-0.270614	0.483998	-0.523711
62785		-3.313606	-8.105078	3.696703	0.062471	-0.067103	-0.001846	0.315186	0.949219	0.008301	0.647147	-0.270589	0.483367	-0.523774
62786		-3.279472	-8.099150	3.613144	0.032173	-0.052404	0.008064	0.308350	0.953857	0.008301	0.647494	-0.270620	0.482967	-0.523697
62787		-3.355687	-8.234500	3.740179	0.005302	-0.035775	0.010836	0.317871	0.952881	0.010742	0.647709	-0.270713	0.482784	-0.523552
62788		-3.370386	-8.420710	3.889897	-0.007482	-0.024614	0.012932	0.315186	0.945068	0.008301	0.647877	-0.270824	0.482724	-0.523342
62789		-3.358443	-8.565373	3.912884	-0.007105	-0.022521	0.013664	0.308838	0.952148	0.009033	0.648040	-0.270916	0.482671	-0.523142
62790		-3.362469	-8.559444	3.828119	0.009903	-0.028104	0.003734	0.321289	0.950928	0.013184	0.648204	-0.270980	0.482495	-0.523068
62791		-3.270133	-8.269319	3.813153	0.028223	-0.025248	-0.004584	0.320557	0.952637	0.010742	0.648384	-0.270978	0.482240	-0.523082
62792		-3.173363	-8.115124	3.899971	0.032212	-0.020776	-0.007579	0.318359	0.949707	0.004883	0.648540	-0.270942	0.481981	-0.523145
62793		-3.229095	-8.237086	3.813307	0.000864	0.019771	-0.011924	0.315186	0.949951	0.006104	0.648442	-0.270905	0.482060	-0.523212
62794		-3.149626	-8.359196	3.948652	-0.010959	0.036229	-0.013181	0.316650	0.945801	0.008545	0.648241	-0.270868	0.482279	-0.523280
62795		-3.143662	-8.499106	3.936428	-0.009815	0.039230	-0.013316	0.312988	0.951172	0.008301	0.648034	-0.270816	0.482512	-0.523348
62796		-3.267794	-8.455532	3.787013	-0.015587	0.059021	-0.015541	0.307129	0.951416	0.005859	0.647716	-0.270718	0.482871	-0.523462
62797		-3.362816	-8.234382	3.782533	-0.014360	0.063191	-0.021846	0.324951	0.946533	0.004639	0.647346	-0.270613	0.483229	-0.523642
62798		-3.342278	-8.198650	3.780298	-0.020549	0.065945	-0.019707	0.313232	0.948486	0.008057	0.646997	-0.270518	0.483626	-0.523756
62799		-3.273247	-8.424421	3.681431	-0.026998	0.075509	-0.025971	0.318115	0.951660	0.007080	0.646544	-0.270446	0.484096	-0.523918
62800		-3.090029	-8.589201	3.738490	-0.011825	0.055357	-0.021864	0.316895	0.948975	0.018311	0.646233	-0.270360	0.484397	-0.524069
62801		-2.996470	-8.673579	3.811857	0.018970	0.025877	-0.008789	0.318115	0.941406	0.005127	0.646165	-0.270209	0.484450	-0.524181
62802		-3.254112	-8.650950	3.706543	0.016134	0.035410	-0.005112	0.314209	0.949219	0.017334	0.646078	-0.269989	0.484552	-0.524307
62803		-3.587452	-8.505869	3.636024	-0.017134	0.048982	-0.015883	0.316162	0.956787	0.010742	0.645801	-0.269959	0.484870	-0.524370
62804		-3.715296	-8.231574	3.565878	-0.022671	0.057159	-0.019778	0.312012	0.956299	0.008301	0.645462	-0.269923	0.485236	-0.524468
62805		-3.517104	-8.140150	3.640868	0.000775	0.034840	-0.019744	0.313965	0.956299	0.014893	0.645259	-0.269850	0.485376	-0.524625
62806		-3.282268	-8.459352	3.575093	-0.000258	0.007338	-0.006283	0.312012	0.952393	0.008301	0.645226	-0.269862	0.485413	-0.524625
62807		-3.250641	-8.763946	3.561540	-0.004325	0.003909	0.000942	0.306152	0.948975	0.016357	0.645230	-0.269867	0.485455	-0.524579
62808		-3.394172	-8.726517	3.661919	0.004421	-0.008428	0.004220	0.303223	0.944092	0.014160	0.645307	-0.269882	0.485414	-0.524515
62809		-3.614295	-8.455932	3.627383	0.012205	0.001649	0.001186	0.316650	0.956055	0.017090	0.645345	-0.269818	0.485384	-0.524529
62810		-3.746665	-8.190796	3.604571	0.021193	-0.000609	-0.009375	0.309570	0.951172	0.009521	0.645383	-0.269767	0.485280	-0.524604
62811		-3.521512	-8.131177	3.670241	0.030148	-0.030576	-0.010250	0.311768	0.946045	0.011963	0.645549	-0.269784	0.484966	-0.524682
62812		-3.183271	-8.366479	3.793312	0.024262	-0.030712	-0.005672	0.308105	0.947021	0.014893	0.645728	-0.269820	0.484691	-0.524697
62813		-3.047205	-8.622855	3.857177	0.006748	-0.017235	-0.001306	0.315918	0.950195	0.019531	0.645825	-0.269882	0.484580	-0.524647
62814		-3.125519	-8.590636	3.879248	0.009428	-0.006910	-0.002752	0.314941	0.947266	0.013184	0.645892	-0.269903	0.484516	-0.524615
62815		-3.253754	-8.312675	3.871413	0.015734	0.000294	-0.008324	0.310547	0.949463	0.011719	0.645921	-0.269867	0.484440	-0.524668
62816		-3.346641	-8.115880	3.854748	0.020316	0.011777	-0.010969	0.306152	0.957520	0.010986	0.645894	-0.269764	0.484399	-0.524792
62817		-3.261235	-8.153899	3.866763	0.004217	0.026079	-0.013901	0.313477	0.949707	0.003418	0.645749	-0.269696	0.484499	-0.524913
62818		-3.071340	-8.383583	3.886975	-0.017384	0.036308	-0.014050	0.309082	0.952637	0.013184	0.645531	-0.269684	0.484735	-0.524969
62819		-3.001429	-8.600292	3.880895	-0.028381	0.033667	-0.008073	0.309570	0.949463	0.007080	0.645315	-0.269738	0.485033	-0.524931
62820		-3.134701	-8.608446	3.789135	-0.018931	0.032265	-0.010415	0.311279	0.950439	0.007080	0.645120	-0.269743	0.485266	-0.524953
62821		-3.329405	-8.428182	3.693117	-0.004077	0.033766	-0.009369	0.317383	0.958252	0.003906	0.644960	-0.269658	0.485443	-0.525031
62822		-3.485886	-8.288696	3.623780	0.002556	0.044121	-0.009961	0.314453	0.947266	0.011230	0.644778	-0.269487	0.485638	-0.525161
62823		-3.538103	-8.279454	3.638092	-0.009585	0.050187	-0.012681	0.315430	0.954102	0.009521	0.644531	-0.269381	0.485924	-0.525254
62824		-3.452986	-8.424772	3.623245	-0.023642	0.046835	-0.014824	0.311279	0.951416	0.013428	0.644255	-0.269368	0.486246	-0.525301
62825		-3.365795	-8.589630	3.624746	-0.016121	0.027057	-0.007549	0.311768	0.947998	0.009766	0.644101	-0.269379	0.486451	-0.525294
62826		-3.345571	-8.604285	3.643323	0.000103	0.006489	0.005980	0.306885	0.952148	0.018311	0.644130	-0.269328	0.486499	-0.525240
62827		-3.446739	-8.505771	3.626321	0.006643	-0.004639	0.005908	0.312500	0.947021	0.009766	0.644206	-0.269309	0.486473	-0.525181
62828		-3.506108	-8.363767	3.618572	0.005054	-0.005219	0.000132	0.312744	0.953613	0.006836	0.644269	-0.269307	0.486424	-0.525151
62829		-3.499318	-8.396659	3.632022	0.001722	-0.007027	-0.003125	0.317627	0.953857	0.006836	0.644315	-0.269337	0.486368	-0.525131
62830		-3.452847	-8.452710	3.600494	0.006743	-0.005506	-0.010087	0.319092	0.952393	0.012939	0.644344	-0.269364	0.486281	-0.525162
62831		-3.429043	-8.459646	3.658249	0.014235	-0.010287	-0.009290	0.314209	0.961670	0.007568	0.644415	-0.269382	0.486146	-0.525190
62832		-3.432636	-8.418787	3.684172	0.024127	-0.014102	-0.005705	0.322998	0.950928	0.014404	0.644526	-0.269335	0.485951	-0.525258
62833		-3.424253	-8.398677	3.683823	0.015652	-0.017895	-0.005450	0.313232	0.949707	0.015625	0.644656	-0.269369	0.485779	-0.525240
62834		-3.282849	-8.399278	3.750463	0.006938	-0.020567	-0.002271	0.306152	0.944092	0.016846	0.644773	-0.269449	0.485645	-0.525180
62835		-3.161715	-8.412554	3.777030	0.007663	-0.027386	-0.001616	0.317139	0.955566	0.015625	0.644912	-0.269553	0.485476	-0.525113
62836		-3.124194	-8.407442	3.807523	-0.000711	-0.024684	0.004624	0.311279	0.947021	0.013916	0.645062	-0.269666	0.485367	-0.524970
62837		-3.152254	-8.404220	3.881716	-0.003500	-0.018963	0.003832	0.311768	0.951660	0.011230	0.645174	-0.269767	0.485299	-0.524844
62838		-3.209992	-8.368618	3.851053	-0.009002	0.002434	-0.001188	0.316895	0.944824	0.011475	0.645164	-0.269820	0.485354	-0.524778
62839		-3.264264	-8.320457	3.834365	-0.010866	0.020714	-0.010327	0.315918	0.952881	0.012695	0.645048	-0.269841	0.485493	-0.524781
62840		-3.228672	-8.305791	3.753897	-0.012234	0.033296	-0.015892	0.321533	0.957031	0.005127	0.644849	-0.269839	0.485694	-0.524841
62841		-3.236277	-8.367618	3.664629	-0.017118	0.038447	-0.014699	0.312256	0.949219	0.014160	0.644631	-0.269820	0.485935	-0.524895
62842		-3.284346	-8.477353	3.706829	-0.023203	0.047149	-0.008728	0.309814	0.964355	0.012939	0.644379	-0.269789	0.486276	-0.524905
62843		-3.316756	-8.576047	3.667292	-0.014043	0.036397	-0.006814	0.311279	0.952881	0.017090	0.644186	-0.269742	0.486524	-0.524936
62844		-3.345392	-8.581624	3.648754	0.011109	0.024141	-0.006466	0.311523	0.957031	0.010986	0.644110	-0.269621	0.486601	-0.525021
62845		-3.410081	-8.478332	3.661220	0.020817	0.012143	-0.004805	0.317627	0.956543	0.008545	0.644110	-0.269480	0.486566	-0.525126
62846		-3.387673	-8.380177	3.685186	0.007759	0.007862	-0.001112	0.319336	0.953857	0.009277	0.644125	-0.269411	0.486567	-0.525140
62847		-3.379845	-8.369256	3.590796	-0.007807	0.007657	-0.003261	0.308594	0.945312	0.015137	0.644102	-0.269437	0.486632	-0.525097
62848		-3.421916	-8.439103	3.616375	-0.009518	0.003151	-0.003068	0.320557	0.945557	0.011963	0.644078	-0.269500	0.486691	-0.525038
62849		-3.451928	-8.495852	3.670288	-0.005169	-0.010240	0.002905	0.303223	0.947510	0.010986	0.644166	-0.269571	0.486663	-0.524919
62850		-3.490794	-8.506433	3.661862	0.004098	-0.017775	0.008490	0.314453	0.951660	0.019043	0.644297	-0.269593	0.486574	-0.524830
62851		-3.415079	-8.523357	3.648790	0.022808	-0.028741	0.001934	0.308105	0.943359	0.014893	0.644503	-0.269612	0.486336	-0.524788
62852		-3.341719	-8.466973	3.659843	0.029622	-0.032730	-0.000458	0.313965	0.946045	0.008789	0.644722	-0.269610	0.486039	-0.524795
62853		-3.280230	-8.389383	3.698129	0.032028	-0.034516	0.002124	0.308594	0.951416	0.018555	0.644975	-0.269583	0.485717	-0.524796
62854		-3.378521	-8.334719	3.738218	0.022961	-0.033784	0.004968	0.305176	0.949463	0.011475	0.645204	-0.269610	0.485463	-0.524736
62855		-3.358353	-8.301392	3.765841	0.008123	-0.035303	0.003899	0.311279	0.949707	0.008545	0.645395	-0.269712	0.485255	-0.524641
62856		-3.245595	-8.411523	3.848564	-0.006750	-0.030790	0.005363	0.313232	0.952881	0.014893	0.645552	-0.269864	0.485134	-0.524482
62857		-3.223395	-8.459349	3.816117	-0.000534	-0.027500	0.005756	0.314941	0.957275	0.005859	0.645712	-0.269983	0.485012	-0.524336
62858		-3.283582	-8.377055	3.789707	-0.004533	-0.020974	0.009545	0.310303	0.953125	0.003418	0.645855	-0.270059	0.484939	-0.524188
62859		-3.370199	-8.285776	3.816206	-0.005917	-0.008394	0.003981	0.308350	0.946777	0.003662	0.645913	-0.270103	0.484926	-0.524107
62860		-3.432189	-8.315699	3.786450	-0.008405	0.000654	-0.003575	0.316406	0.955078	0.010742	0.645895	-0.270151	0.484956	-0.524076
62861		-3.318718	-8.383296	3.758876	-0.009556	0.009361	-0.012261	0.319824	0.946045	0.013184	0.645811	-0.270222	0.485025	-0.524080
62862		-3.211266	-8.417893	3.718820	-0.000105	0.016224	-0.013989	0.320557	0.947510	0.010742	0.645725	-0.270226	0.485084	-0.524128
62863		-3.235633	-8.383799	3.735903	0.001532	0.021786	-0.009937	0.306152	0.939453	0.006104	0.645639	-0.270176	0.485172	-0.524178
62864		-3.343233	-8.357964	3.737906	-0.002797	0.028439	-0.008803	0.319092	0.951172	0.012451	0.645499	-0.270097	0.485318	-0.524257
62865		-3.398741	-8.395928	3.682756	-0.013489	0.037368	-0.008997	0.318359	0.949707	0.003662	0.645316	-0.270059	0.485560	-0.524277
62866		-3.340291	-8.460073	3.689792	-0.019043	0.031768	-0.013921	0.310791	0.949219	0.012451	0.645121	-0.270073	0.485774	-0.524312
62867		-3.292262	-8.563744	3.650759	-0.012151	0.020516	-0.011343	0.311523	0.957275	0.010498	0.644985	-0.270103	0.485918	-0.524331
62868		-3.293652	-8.578845	3.578660	-0.001778	0.008261	-0.004376	0.305176	0.951416	0.010742	0.644948	-0.270097	0.485964	-0.524336
62869		-3.338477	-8.470562	3.595151	0.014106	-0.002663	-0.000391	0.316162	0.952148	0.009521	0.645000	-0.270035	0.485894	-0.524369
62870		-3.399444	-8.458123	3.658160	0.020832	-0.011097	0.001066	0.312256	0.952881	0.007568	0.645130	-0.269972	0.485745	-0.524380
62871		-3.356717	-8.440014	3.651156	0.018640	-0.015411	-0.002724	0.312500	0.946777	0.010254	0.645246	-0.269949	0.485574	-0.524407
62872		-3.307734	-8.473439	3.727514	0.014222	-0.021462	0.001651	0.312988	0.946045	0.018066	0.645400	-0.269966	0.485403	-0.524367
62873		-3.305651	-8.412939	3.749362	0.016987	-0.023901	0.004768	0.316895	0.959717	0.009766	0.645584	-0.269985	0.485223	-0.524297
62874		-3.321502	-8.376992	3.783493	0.023770	-0.021858	0.004896	0.309814	0.955078	0.016602	0.645776	-0.269941	0.485015	-0.524276
62875		-3.326568	-8.335412	3.809421	0.011527	-0.014750	0.006429	0.311279	0.948730	0.011475	0.645906	-0.269936	0.484916	-0.524210
62876		-3.335587	-8.341771	3.763597	-0.000407	-0.007070	0.000994	0.314209	0.948730	0.010742	0.645961	-0.269976	0.484889	-0.524146
62877		-3.333407	-8.343345	3.708153	-0.011444	0.001985	-0.001850	0.316406	0.948730	0.000244	0.645948	-0.270048	0.484950	-0.524069
62878		-3.354690	-8.382188	3.702884	-0.007874	-0.000073	-0.001721	0.317383	0.947998	0.017334	0.645957	-0.270087	0.484969	-0.524021
62879		-3.347351	-8.442159	3.695983	-0.000934	-0.000845	-0.000465	0.314453	0.948242	0.012695	0.645991	-0.270124	0.484979	-0.523951
62880		-3.403781	-8.563740	3.662531	0.013951	-0.010858	-0.002339	0.315918	0.958496	0.005615	0.646085	-0.270121	0.484861	-0.523946
62881		-3.443128	-8.520486	3.694623	0.018293	-0.017512	-0.003476	0.314453	0.950928	0.011230	0.646208	-0.270112	0.484677	-0.523969
62882		-3.373451	-8.391929	3.725134	0.011775	-0.029633	0.002500	0.309082	0.947510	0.005127	0.646392	-0.270180	0.484478	-0.523891
62883		-3.309248	-8.370091	3.666593	0.001560	-0.023648	0.006097	0.311768	0.942627	0.004883	0.646536	-0.270245	0.484359	-0.523789
62884		-3.312954	-8.322162	3.726099	0.006474	-0.026048	0.005090	0.310303	0.950439	0.009277	0.646704	-0.270302	0.484201	-0.523698
62885		-3.325199	-8.378177	3.807630	0.004377	-0.032121	0.006681	0.319824	0.955078	0.002197	0.646891	-0.270397	0.484032	-0.523575
62886		-3.364408	-8.447979	3.782359	0.002377	-0.020518	0.003302	0.307129	0.952881	0.011719	0.647028	-0.270458	0.483911	-0.523485
62887		-3.356752	-8.446742	3.850786	0.007789	-0.011934	-0.004672	0.316162	0.942139	0.010742	0.647082	-0.270495	0.483817	-0.523487
62888		-3.286270	-8.379312	3.806810	0.016340	-0.009198	-0.009207	0.307617	0.944092	0.015381	0.647150	-0.270499	0.483680	-0.523527
62889		-3.296480	-8.339531	3.765189	0.019576	-0.000121	-0.010939	0.306641	0.952881	0.011719	0.647162	-0.270457	0.483587	-0.523620
62890		-3.315567	-8.284221	3.834950	0.003767	0.016776	-0.011027	0.306152	0.950684	0.006104	0.647063	-0.270417	0.483652	-0.523703
62891		-3.254620	-8.236135	3.845825	-0.010795	0.029577	-0.018030	0.320312	0.952881	0.004883	0.646851	-0.270416	0.483826	-0.523805
62892		-3.221669	-8.359233	3.798279	-0.024552	0.042592	-0.016278	0.310303	0.942871	0.010254	0.646590	-0.270434	0.484122	-0.523844
62893		-3.228276	-8.493708	3.740086	-0.029479	0.042766	-0.013359	0.309082	0.949707	0.009277	0.646316	-0.270469	0.484458	-0.523853
62894		-3.308986	-8.550775	3.716463	-0.029734	0.036160	-0.008921	0.314697	0.949219	0.009033	0.646082	-0.270511	0.484770	-0.523832
62895		-3.353787	-8.505329	3.653760	-0.018198	0.030370	-0.011531	0.312744	0.946045	0.006592	0.645898	-0.270530	0.484988	-0.523848
62896		-3.386859	-8.505470	3.602838	-0.001674	0.014926	-0.010155	0.312744	0.955322	0.019287	0.645818	-0.270515	0.485051	-0.523896
62897		-3.332839	-8.535174	3.601996	0.013019	-0.005490	-0.012030	0.308105	0.946289	0.011475	0.645837	-0.270541	0.484955	-0.523948
62898		-3.274505	-8.517203	3.672798	0.017689	-0.006762	-0.010108	0.304199	0.948730	0.013916	0.645878	-0.270522	0.484826	-0.524025
62899		-3.271385	-8.449747	3.729412	0.020134	-0.009768	-0.000015	0.308105	0.947510	0.010010	0.645972	-0.270465	0.484701	-0.524056
62900		-3.289383	-8.394736	3.746180	0.013484	-0.011352	0.003310	0.311035	0.948975	0.007324	0.646080	-0.270433	0.484596	-0.524035
62901		-3.309761	-8.406685	3.708230	0.001354	-0.012042	0.007704	0.315918	0.953857	0.008057	0.646189	-0.270449	0.484544	-0.523941
62902		-3.403394	-8.420663	3.701932	-0.002341	-0.013207	0.003920	0.313232	0.939941	0.016602	0.646284	-0.270511	0.484493	-0.523839
62903		-3.456659	-8.398718	3.667932	-0.010180	-0.008313	0.000475	0.315186	0.942627	0.013672	0.646327	-0.270623	0.484506	-0.523717
62904		-3.451694	-8.412364	3.664412	0.004912	-0.002395	-0.001003	0.316650	0.961182	0.004639	0.646376	-0.270629	0.484476	-0.523680
62905		-3.399970	-8.387656	3.703355	0.023590	-0.012294	-0.003353	0.312988	0.949707	0.004150	0.646491	-0.270568	0.484297	-0.523736
62906		-3.404600	-8.398173	3.746858	0.025190	-0.017204	0.002022	0.313721	0.953857	0.009277	0.646652	-0.270496	0.484097	-0.523759
62907		-3.403687	-8.396674	3.751044	0.020323	-0.018092	0.000698	0.317139	0.944824	0.010254	0.646797	-0.270470	0.483918	-0.523759
62908		-3.385554	-8.396227	3.778537	0.012891	-0.019892	-0.004737	0.325439	0.955078	0.013672	0.646920	-0.270521	0.483748	-0.523737
62909		-3.362323	-8.357650	3.784766	0.009349	-0.012864	-0.006593	0.316406	0.947266	0.012695	0.647009	-0.270580	0.483628	-0.523707
62910		-3.301146	-8.385562	3.852808	0.018446	-0.013593	-0.009471	0.316650	0.949951	0.007812	0.647095	-0.270597	0.483462	-0.523745
62911		-3.277599	-8.380824	3.805574	0.018145	-0.005744	-0.013660	0.319092	0.947754	0.006836	0.647131	-0.270590	0.483324	-0.523833
62912		-3.309931	-8.352827	3.778801	0.016427	0.003510	-0.012467	0.319092	0.945557	0.009277	0.647138	-0.270547	0.483243	-0.523921
62913		-3.372331	-8.277347	3.771487	-0.000094	0.015661	-0.016154	0.305664	0.953125	0.002441	0.647043	-0.270562	0.483294	-0.523983
62914		-3.287074	-8.375526	3.763213	-0.011993	0.016597	-0.014467	0.318115	0.950928	0.010254	0.646895	-0.270603	0.483408	-0.524040
62915		-3.153981	-8.523674	3.702382	-0.010589	0.009535	-0.008488	0.313477	0.946045	0.010742	0.646830	-0.270669	0.483492	-0.524008
62916		-3.201742	-8.612607	3.733408	0.005385	0.006363	-0.006062	0.312500	0.948242	0.014404	0.646819	-0.270651	0.483496	-0.524027
62917		-3.367939	-8.455944	3.834888	0.013979	-0.002585	-0.001755	0.319092	0.945557	0.008301	0.646878	-0.270615	0.483430	-0.524034
62918		-3.446019	-8.380646	3.749638	0.008400	0.002807	-0.005868	0.307373	0.957764	0.009277	0.646901	-0.270597	0.483396	-0.524047
62919		-3.391220	-8.384426	3.713722	0.013997	0.005822	-0.012927	0.306641	0.952637	0.009033	0.646862	-0.270553	0.483349	-0.524160
62920		-3.291810	-8.383269	3.718560	0.012251	0.007351	-0.010202	0.311279	0.958496	0.010498	0.646827	-0.270501	0.483324	-0.524253
62921		-3.249183	-8.358870	3.743036	-0.003236	0.012407	0.001189	0.308838	0.946533	0.009521	0.646793	-0.270470	0.483420	-0.524223
62922		-3.223551	-8.378952	3.794301	-0.004647	0.008309	0.006180	0.311768	0.947021	0.010254	0.646795	-0.270443	0.483509	-0.524152
62923		-3.234599	-8.370182	3.870475	-0.013416	0.006158	0.011515	0.312012	0.955078	0.007324	0.646815	-0.270455	0.483635	-0.524005
62924		-3.355604	-8.488783	3.858215	-0.025725	0.008278	0.014789	0.321045	0.951660	0.007324	0.646809	-0.270503	0.483831	-0.523807
62925		-3.468153	-8.451661	3.805902	-0.027113	0.015339	0.008801	0.317139	0.950439	0.015625	0.646764	-0.270558	0.484050	-0.523631
62926		-3.395876	-8.381340	3.680696	-0.025692	0.017372	-0.006023	0.322266	0.945557	0.011475	0.646640	-0.270669	0.484254	-0.523539
62927		-3.215744	-8.448825	3.551247	-0.017979	0.023713	-0.014878	0.317627	0.952148	0.005371	0.646483	-0.270741	0.484428	-0.523535
62928		-3.158084	-8.544793	3.561218	0.008938	0.032524	-0.013583	0.312500	0.949951	0.018799	0.646345	-0.270608	0.484530	-0.523679
62929		-3.142613	-8.528541	3.711842	0.032584	0.023845	0.000621	0.312988	0.949219	0.013428	0.646348	-0.270351	0.484534	-0.523805
62930		-3.102857	-8.415441	3.777199	0.031741	0.008867	0.024023	0.316895	0.955322	0.011963	0.646513	-0.270060	0.484507	-0.523776
62931		-3.178913	-8.320488	3.885909	0.024531	-0.007980	0.026437	0.310791	0.951172	0.014160	0.646745	-0.269872	0.484423	-0.523665
62932		-3.387591	-8.379642	3.849880	-0.008373	-0.004700	0.023001	0.315674	0.947266	0.009521	0.646864	-0.269863	0.484499	-0.523452
62933		-3.663410	-8.412363	3.731517	-0.031288	0.019186	0.011024	0.315918	0.947021	0.004639	0.646793	-0.269915	0.484767	-0.523264
62934		-3.633414	-8.291197	3.724354	-0.032778	0.012017	0.000599	0.320801	0.943359	0.011963	0.646703	-0.270037	0.484973	-0.523122
62935		-3.448959	-8.319764	3.575429	-0.015837	-0.001856	0.000605	0.314209	0.954590	0.012207	0.646717	-0.270145	0.485036	-0.522991
62936		-3.192844	-8.511466	3.608957	0.004306	-0.023319	0.009452	0.320312	0.951416	0.013428	0.646882	-0.270195	0.484921	-0.522866
62937		-3.107450	-8.610194	3.748239	0.033276	-0.043856	0.020473	0.318848	0.946777	0.012939	0.647257	-0.270142	0.484592	-0.522736
62938		-3.248878	-8.495933	3.943475	0.033021	-0.044954	0.025309	0.323730	0.949707	0.012451	0.647655	-0.270075	0.484269	-0.522576
62939		-3.535129	-8.305130	3.954033	0.020994	-0.024532	0.015267	0.325684	0.948730	0.008789	0.647906	-0.270029	0.484083	-0.522460
62940		-3.622835	-8.123437	3.878314	0.003601	0.000845	-0.011430	0.311768	0.944336	0.013184	0.647904	-0.270068	0.484046	-0.522478
62941		-3.414618	-8.088697	3.698789	-0.011344	0.042494	-0.026666	0.316162	0.957764	0.001221	0.647610	-0.270067	0.484277	-0.522629
62942		-3.313659	-8.118904	3.622057	-0.035579	0.079807	-0.026900	0.319824	0.939697	0.011963	0.647112	-0.270012	0.484799	-0.522790
62943		-3.414826	-8.200804	3.661731	-0.039097	0.075665	-0.017824	0.317871	0.955322	0.008057	0.646678	-0.269981	0.485341	-0.522841
62944		-3.502155	-8.378305	3.849767	-0.031640	0.057512	-0.004138	0.322998	0.947266	0.009766	0.646382	-0.269921	0.485780	-0.522829
62945		-3.482278	-8.835893	3.783835	-0.030388	0.016957	-0.003966	0.320557	0.950195	0.014893	0.646268	-0.270036	0.485993	-0.522713
62946		-3.378032	-8.907215	3.566476	-0.005467	0.014506	-0.024935	0.322998	0.951172	0.011963	0.646122	-0.270119	0.486044	-0.522803
62947		-3.320930	-8.478364	3.575530	0.023395	0.001096	-0.045823	0.313477	0.951172	0.011963	0.646009	-0.270186	0.485845	-0.523094
62948		-3.309019	-8.130865	3.599396	0.036496	0.003480	-0.032398	0.306885	0.950684	0.009766	0.645958	-0.270112	0.485638	-0.523387
62949		-3.350410	-8.187150	3.579852	0.028291	-0.004587	-0.010401	0.308350	0.954102	0.017090	0.646006	-0.270020	0.485474	-0.523527
62950		-3.225666	-8.507094	3.634787	0.007700	-0.022545	0.008486	0.316895	0.950684	0.019043	0.646163	-0.270056	0.485356	-0.523424
62951		-3.284183	-8.679432	3.673640	-0.005668	-0.038946	0.016277	0.322754	0.953369	0.012939	0.646407	-0.270216	0.485222	-0.523165
62952		-3.458824	-8.679375	3.813260	-0.006522	-0.045146	0.003652	0.318604	0.958252	0.012207	0.646629	-0.270450	0.485018	-0.522959
62953		-3.454650	-8.429135	3.838707	0.018859	-0.058945	-0.002390	0.314453	0.946289	0.010742	0.646926	-0.270627	0.484619	-0.522869
62954		-3.202751	-8.260081	3.715516	0.055342	-0.069234	0.002894	0.318848	0.944580	0.010254	0.647369	-0.270628	0.484016	-0.522878
62955		-3.064637	-8.208687	3.847795	0.055218	-0.061603	0.011759	0.315430	0.952393	0.011230	0.647828	-0.270565	0.483473	-0.522845
62956		-3.367140	-8.234360	3.867827	0.008577	-0.019419	0.005661	0.319580	0.951904	0.009033	0.647974	-0.270595	0.483353	-0.522759
62957		-3.579787	-8.254841	3.906542	-0.025543	0.025699	-0.015868	0.317627	0.951172	0.014893	0.647776	-0.270699	0.483572	-0.522750
62958		-3.359227	-8.271093	3.873719	-0.031559	0.033485	-0.025911	0.315430	0.953125	-0.000732	0.647485	-0.270850	0.483844	-0.522780
62959		-3.031851	-8.474140	3.658412	-0.011387	0.031313	-0.015713	0.315430	0.955811	0.009277	0.647289	-0.270827	0.484021	-0.522870
62960		-3.036331	-8.461142	3.660879	0.015416	0.017503	-0.007690	0.314209	0.948486	0.017090	0.647244	-0.270707	0.484036	-0.522975
62961		-3.418180	-8.349403	3.837665	0.018060	0.013925	0.001617	0.315674	0.944336	0.004395	0.647260	-0.270567	0.484050	-0.523014
62962		-3.726520	-8.322491	3.943971	0.009893	0.025104	-0.013752	0.318359	0.937012	0.010742	0.647152	-0.270460	0.484109	-0.523148
62963		-3.706002	-8.427769	3.749789	-0.002854	0.041977	-0.034919	0.316895	0.948730	0.013916	0.646862	-0.270449	0.484272	-0.523362
62964		-3.243516	-8.518478	3.590436	-0.001669	0.040153	-0.045101	0.314697	0.947754	0.014404	0.646529	-0.270484	0.484403	-0.523633
62965		-2.840892	-8.426297	3.510813	-0.005296	0.042056	-0.033481	0.317871	0.951416	0.009521	0.646229	-0.270482	0.484588	-0.523834
62966		-3.083600	-8.296169	3.533112	-0.020110	0.047856	-0.011229	0.309326	0.950195	0.014893	0.645975	-0.270438	0.484910	-0.523872
62967		-3.525534	-8.342741	3.668144	-0.024485	0.028371	0.007429	0.313232	0.947998	0.020264	0.645857	-0.270431	0.485198	-0.523754
62968		-3.727718	-8.672123	3.742424	-0.017395	0.006083	0.010610	0.315430	0.953125	0.018555	0.645866	-0.270482	0.485346	-0.523580
62969		-3.504451	-8.921087	3.710941	0.014383	-0.027980	-0.002918	0.308838	0.953125	0.008789	0.646026	-0.270561	0.485139	-0.523533
62970		-3.172503	-8.741505	3.657513	0.065976	-0.057355	-0.016000	0.315918	0.958740	0.012939	0.646353	-0.270521	0.484512	-0.523731
62971		-3.129381	-8.293380	3.669354	0.085293	-0.060884	-0.008381	0.312256	0.950195	0.010010	0.646780	-0.270377	0.483801	-0.523936
62972		-3.376827	-7.847903	3.734033	0.049376	-0.034523	0.004511	0.312500	0.945312	0.008057	0.647074	-0.270255	0.483417	-0.523990
62973		-3.550689	-7.977870	3.890546	-0.026198	-0.008615	0.007511	0.316406	0.947510	0.015625	0.647109	-0.270414	0.483508	-0.523781
62974		-3.553548	-8.512756	3.844256	-0.057984	0.008075	0.002572	0.319580	0.945312	0.012451	0.646987	-0.270706	0.483823	-0.523489
62975		-3.408521	-8.846610	3.770099	-0.022784	-0.000473	-0.010285	0.315430	0.948730	0.019287	0.646930	-0.270891	0.483903	-0.523391
62976		-3.259819	-8.559010	3.781753	0.043134	-0.014476	-0.013644	0.312744	0.951660	0.013916	0.647054	-0.270805	0.483623	-0.523540
62977		-3.222156	-8.118159	3.807010	0.063739	-0.014377	-0.014481	0.315918	0.947021	0.010010	0.647216	-0.270601	0.483247	-0.523793
62978		-3.205826	-7.974958	3.715479	0.024556	0.016798	-0.010604	0.312744	0.946777	0.006104	0.647188	-0.270453	0.483213	-0.523935
62979		-3.090936	-8.182419	3.810786	-0.017741	0.040032	-0.011157	0.317627	0.958496	0.006104	0.646964	-0.270425	0.483485	-0.523975
62980		-3.012699	-8.587578	3.869700	-0.039365	0.048403	-0.005984	0.312988	0.950195	0.005859	0.646684	-0.270457	0.483907	-0.523915
62981		-3.162410	-8.747092	3.836905	-0.032299	0.052091	-0.008610	0.317871	0.941895	0.007812	0.646389	-0.270442	0.484311	-0.523913
62982		-3.338249	-8.542396	3.846436	-0.010821	0.034856	-0.006037	0.316406	0.947266	0.009766	0.646235	-0.270382	0.484531	-0.523930
62983		-3.427315	-8.337733	3.729288	0.001650	0.024980	-0.006404	0.308838	0.949707	0.015137	0.646143	-0.270302	0.484647	-0.523979
62984		-3.424388	-8.262213	3.620292	0.001232	0.027373	-0.012336	0.312012	0.948486	0.006592	0.646001	-0.270244	0.484773	-0.524066
62985		-3.332957	-8.298228	3.698914	0.011045	0.023144	-0.012184	0.301025	0.947510	0.009277	0.645905	-0.270135	0.484823	-0.524195
62986		-3.297322	-8.456361	3.744168	0.009200	0.014736	-0.005969	0.306396	0.950928	0.012939	0.645848	-0.270046	0.484859	-0.524278
62987		-3.400456	-8.590397	3.687561	-0.008388	0.022078	-0.004220	0.306396	0.952881	0.004883	0.645737	-0.270023	0.485017	-0.524281
62988		-3.484460	-8.462112	3.689527	-0.015274	0.018325	-0.000290	0.310547	0.948242	0.012695	0.645642	-0.270022	0.485184	-0.524244
62989		-3.471304	-8.347027	3.625662	-0.011313	0.007374	-0.000178	0.321045	0.950439	0.007568	0.645609	-0.270063	0.485281	-0.524173
62990		-3.550239	-8.385283	3.534737	-0.013648	0.011354	-0.004722	0.314941	0.948730	0.005371	0.645551	-0.270113	0.485388	-0.524120
62991		-3.552237	-8.385014	3.587130	-0.016113	-0.002322	-0.004211	0.308838	0.949219	0.010742	0.645535	-0.270225	0.485434	-0.524039
62992		-3.461340	-8.488161	3.612525	0.000795	-0.010096	-0.001626	0.318115	0.957275	0.008545	0.645589	-0.270275	0.485380	-0.523996
62993		-3.446510	-8.587554	3.586381	0.018788	-0.013121	-0.004582	0.313232	0.952393	0.013916	0.645696	-0.270255	0.485218	-0.524026
62994		-3.394607	-8.527331	3.682796	0.042369	-0.032521	-0.004152	0.313232	0.951172	0.016602	0.645928	-0.270198	0.484859	-0.524100
62995		-3.231065	-8.425962	3.777532	0.046453	-0.040245	-0.000405	0.320068	0.951660	0.006592	0.646218	-0.270145	0.484452	-0.524147
62996		-3.145631	-8.406743	3.835357	0.033001	-0.043915	0.002784	0.311768	0.959229	0.015625	0.646518	-0.270154	0.484077	-0.524119
62997		-3.185672	-8.481695	3.833662	0.016926	-0.039724	0.004553	0.311523	0.954590	0.014893	0.646755	-0.270238	0.483815	-0.524025
62998		-3.302405	-8.461170	3.847825	0.009694	-0.031153	-0.000941	0.314697	0.948730	0.014404	0.646918	-0.270345	0.483618	-0.523950
62999		-3.419189	-8.337050	3.826871	0.011735	-0.020593	-0.007777	0.310547	0.952637	0.003662	0.647021	-0.270425	0.483451	-0.523936
63000		-3.394897	-8.221121	3.780083	0.011572	-0.017784	-0.008922	0.315674	0.945557	-0.000732	0.647100	-0.270475	0.483287	-0.523964
63001		-3.284003	-8.272892	3.761078	0.014936	-0.013726	-0.007614	0.306885	0.950439	-0.002197	0.647188	-0.270480	0.483125	-0.524003
63002		-3.182929	-8.401609	3.782916	0.010224	-0.013135	0.000108	0.315918	0.950684	0.003418	0.647280	-0.270468	0.483009	-0.524003
63003		-3.246165	-8.482014	3.827318	0.003590	-0.002042	0.000137	0.310791	0.954590	0.004883	0.647326	-0.270461	0.482983	-0.523973
63004		-3.368587	-8.424124	3.804578	-0.007801	0.014783	-0.006973	0.320312	0.952637	-0.001709	0.647238	-0.270469	0.483086	-0.523982
63005		-3.380232	-8.326752	3.775593	-0.006239	0.027071	-0.010091	0.311523	0.944092	0.017334	0.647108	-0.270422	0.483228	-0.524036
63006		-3.311426	-8.252578	3.762493	0.000161	0.024832	-0.008761	0.309326	0.956787	0.004395	0.646994	-0.270374	0.483360	-0.524080
63007		-3.283556	-8.334008	3.740475	-0.008761	0.024939	-0.006693	0.303711	0.956543	0.007568	0.646861	-0.270339	0.483523	-0.524112
63008		-3.278594	-8.487039	3.714320	-0.018003	0.027911	-0.007104	0.310791	0.948975	0.010010	0.646684	-0.270344	0.483748	-0.524120
63009		-3.288339	-8.624984	3.734399	-0.005986	0.020970	-0.011274	0.315186	0.946777	0.007812	0.646559	-0.270340	0.483871	-0.524163
63010		-3.273702	-8.519607	3.779438	0.022351	0.005302	-0.010678	0.313232	0.942383	0.008301	0.646572	-0.270248	0.483781	-0.524278
63011		-3.246384	-8.381930	3.784219	0.030027	-0.007206	-0.006963	0.315186	0.950928	0.001221	0.646668	-0.270156	0.483600	-0.524374
63012		-3.225579	-8.315248	3.810672	0.024254	-0.002446	-0.002794	0.316406	0.949219	0.006348	0.646750	-0.270046	0.483471	-0.524448
63013		-3.264350	-8.291530	3.857681	0.008455	0.002816	-0.005876	0.315918	0.945801	0.010010	0.646764	-0.270021	0.483438	-0.524473
