// Start Time: Unknown
// Update Rate: 60.0Hz
// Filter Profile: human (46.1)
// Firmware Version: 4.6.0
PacketCounter	SampleTimeFine	Acc_X	Acc_Y	Acc_Z	Gyr_X	Gyr_Y	Gyr_Z	Mag_X	Mag_Y	Mag_Z	Quat_q0	Quat_q1	Quat_q2	Quat_q3
10197		9.353403	1.253877	2.423779	0.047627	0.120843	0.002674	-0.635254	-0.448242	0.245117	-0.334810	-0.585028	0.183901	-0.715420
10198		9.260692	1.207050	2.410396	0.049728	0.097557	0.014253	-0.632812	-0.442383	0.245850	-0.334632	-0.584563	0.183402	-0.716011
10199		9.189672	1.177432	2.411185	0.044464	0.080299	0.017649	-0.641113	-0.453613	0.239014	-0.334428	-0.584182	0.182999	-0.716519
10200		9.167493	1.167506	2.393049	0.039161	0.068581	0.015440	-0.643066	-0.446777	0.240723	-0.334249	-0.583858	0.182650	-0.716956
10201		9.256040	1.104319	2.398215	0.035665	0.067865	0.011019	-0.635742	-0.444580	0.247559	-0.334112	-0.583534	0.182303	-0.717372
10202		9.371874	1.154557	2.422927	0.028806	0.050977	0.008297	-0.645752	-0.446777	0.249268	-0.333996	-0.583296	0.182035	-0.717688
10203		9.475638	1.234693	2.392159	0.006047	0.031461	0.001130	-0.638428	-0.440186	0.243408	-0.334000	-0.583122	0.181926	-0.717855
10204		9.489290	1.248606	2.351963	-0.013779	0.017680	-0.001857	-0.642090	-0.445801	0.242432	-0.334096	-0.582984	0.181962	-0.717913
10205		9.446304	1.258079	2.356416	-0.032235	-0.011000	-0.008230	-0.647461	-0.451172	0.238770	-0.334272	-0.582983	0.182160	-0.717781
10206		9.341902	1.324230	2.358297	-0.040977	-0.045324	-0.013895	-0.635742	-0.445068	0.245605	-0.334471	-0.583179	0.182482	-0.717448
10207		9.332699	1.283385	2.334855	-0.050349	-0.051894	-0.021169	-0.636719	-0.450928	0.248779	-0.334749	-0.583407	0.182839	-0.717042
10208		9.365748	1.216538	2.351152	-0.065678	-0.043710	-0.030649	-0.651611	-0.445312	0.238037	-0.335171	-0.583564	0.183219	-0.716620
10209		9.387249	1.254449	2.322192	-0.099002	-0.023701	-0.037826	-0.629150	-0.440674	0.250000	-0.335823	-0.583526	0.183711	-0.716220
10210		9.416523	1.315269	2.335060	-0.121514	-0.021045	-0.043055	-0.642822	-0.448975	0.242676	-0.336618	-0.583423	0.184307	-0.715777
10211		9.426211	1.367288	2.319387	-0.134784	-0.028479	-0.048549	-0.629150	-0.448730	0.237793	-0.337496	-0.583347	0.184975	-0.715253
10212		9.438523	1.347998	2.337663	-0.127233	-0.044491	-0.051020	-0.635742	-0.452637	0.236328	-0.338334	-0.583397	0.185624	-0.714648
10213		9.419972	1.251460	2.361766	-0.118569	-0.050391	-0.051138	-0.642822	-0.451172	0.241943	-0.339120	-0.583520	0.186234	-0.714016
10214		9.426411	1.073036	2.356368	-0.110513	-0.043556	-0.047896	-0.640137	-0.454834	0.240723	-0.339850	-0.583632	0.186798	-0.713430
10215		9.416700	1.016340	2.376897	-0.096266	-0.040890	-0.039284	-0.639648	-0.452637	0.236328	-0.340450	-0.583751	0.187327	-0.712908
10216		9.402053	1.067652	2.411770	-0.071294	-0.050805	-0.034068	-0.632324	-0.450684	0.233398	-0.340866	-0.583976	0.187789	-0.712403
10217		9.371457	1.121416	2.425492	-0.044812	-0.061097	-0.033898	-0.633789	-0.452637	0.233887	-0.341137	-0.584309	0.188140	-0.711908
10218		9.335683	1.081509	2.432101	-0.025082	-0.077603	-0.035353	-0.637207	-0.458740	0.236084	-0.341285	-0.584795	0.188422	-0.711363
10219		9.309883	1.110487	2.378662	-0.006652	-0.099385	-0.035322	-0.631592	-0.459961	0.235596	-0.341289	-0.585463	0.188661	-0.710747
10220		9.309333	1.178669	2.338696	-0.003798	-0.110287	-0.038744	-0.634277	-0.457764	0.242188	-0.341294	-0.586187	0.188901	-0.710084
10221		9.337496	1.223282	2.338337	-0.013800	-0.103666	-0.043808	-0.633301	-0.462402	0.229980	-0.341370	-0.586865	0.189159	-0.709419
10222		9.356062	1.218276	2.353405	-0.020532	-0.094951	-0.048106	-0.633057	-0.458252	0.234619	-0.341532	-0.587441	0.189429	-0.708791
10223		9.347140	1.229388	2.359780	-0.020142	-0.110932	-0.052030	-0.631348	-0.454346	0.243896	-0.341690	-0.588123	0.189721	-0.708071
10224		9.346382	1.234620	2.298891	-0.025404	-0.149061	-0.054479	-0.633545	-0.453369	0.246094	-0.341825	-0.589033	0.190119	-0.707142
10225		9.338293	1.199679	2.236670	-0.034506	-0.169787	-0.059355	-0.630371	-0.458740	0.245361	-0.341980	-0.590050	0.190607	-0.706087
10226		9.393853	1.146528	2.240303	-0.027832	-0.156231	-0.055008	-0.633545	-0.468262	0.240967	-0.342112	-0.590984	0.191038	-0.705126
10227		9.456192	1.068272	2.228166	-0.007957	-0.101092	-0.041480	-0.634277	-0.460693	0.251465	-0.342129	-0.591604	0.191284	-0.704530
10228		9.516563	1.044369	2.251892	0.014638	-0.055514	-0.033033	-0.623291	-0.457031	0.246094	-0.342015	-0.592038	0.191296	-0.704217
10229		9.523188	1.116709	2.302889	0.017770	-0.035860	-0.027070	-0.628418	-0.472412	0.251221	-0.341983	-0.592315	0.191286	-0.704003
10230		9.514299	1.144490	2.294999	0.010114	-0.061176	-0.023928	-0.625244	-0.460205	0.250977	-0.341851	-0.592715	0.191390	-0.703702
10231		9.489834	1.173310	2.263152	0.007549	-0.101507	-0.019559	-0.625977	-0.465332	0.257568	-0.341677	-0.593335	0.191655	-0.703192
10232		9.497301	1.234287	2.180245	0.012377	-0.105739	-0.019147	-0.617432	-0.462158	0.252441	-0.341427	-0.594006	0.191876	-0.702686
10233		9.480227	1.293882	2.154743	0.021810	-0.074962	-0.018899	-0.626221	-0.463135	0.260498	-0.341295	-0.594497	0.191975	-0.702308
10234		9.481394	1.352851	2.174346	0.021064	-0.031177	-0.018436	-0.619873	-0.459229	0.257324	-0.341101	-0.594767	0.191925	-0.702187
10235		9.503598	1.310555	2.306441	0.026542	-0.006859	-0.021951	-0.625977	-0.463379	0.250000	-0.341031	-0.594906	0.191759	-0.702149
10236		9.488882	1.308770	2.315834	0.030644	-0.028173	-0.025862	-0.618408	-0.468262	0.255371	-0.340917	-0.595133	0.191659	-0.702039
10237		9.477575	1.327601	2.183546	0.016588	-0.061626	-0.030437	-0.620605	-0.464600	0.253418	-0.340908	-0.595540	0.191660	-0.701698
10238		9.491091	1.320239	2.047429	0.004700	-0.057081	-0.031243	-0.623535	-0.469727	0.254150	-0.340960	-0.595879	0.191730	-0.701366
10239		9.519404	1.365544	2.076437	0.013798	-0.027859	-0.032335	-0.620361	-0.464844	0.260010	-0.340992	-0.596070	0.191660	-0.701207
10240		9.501197	1.371720	2.170320	0.023357	-0.000966	-0.027359	-0.628906	-0.466553	0.265137	-0.340975	-0.596177	0.191434	-0.701186
10241		9.429745	1.343742	2.252977	0.025393	-0.018097	-0.015723	-0.623535	-0.472900	0.265625	-0.340723	-0.596385	0.191271	-0.701176
10242		9.387405	1.281455	2.245349	0.025183	-0.061331	-0.017272	-0.614014	-0.459717	0.258789	-0.340484	-0.596845	0.191204	-0.700919
10243		9.355668	1.214659	2.074952	0.023045	-0.079733	-0.015741	-0.617432	-0.467529	0.250977	-0.340374	-0.597384	0.191260	-0.700498
10244		9.415504	1.225361	2.035689	0.020930	-0.041228	-0.013829	-0.610352	-0.457031	0.263428	-0.340374	-0.597611	0.191297	-0.700295
10245		9.454789	1.207835	2.132466	0.019139	-0.001604	-0.009432	-0.618408	-0.473145	0.262207	-0.340340	-0.597717	0.191165	-0.700257
10246		9.425093	1.251610	2.184610	0.019591	-0.017507	-0.004244	-0.620605	-0.468506	0.263184	-0.340233	-0.597849	0.191121	-0.700208
10247		9.435497	1.322173	2.141868	0.020131	-0.053035	-0.004283	-0.615234	-0.472412	0.266846	-0.340016	-0.598194	0.191171	-0.700005
10248		9.403582	1.382857	2.006612	0.011964	-0.079775	-0.006375	-0.614258	-0.468018	0.262939	-0.339863	-0.598706	0.191304	-0.699605
10249		9.458833	1.408966	1.902507	-0.003045	-0.063516	-0.015218	-0.612549	-0.465088	0.251709	-0.339896	-0.599072	0.191466	-0.699231
10250		9.519428	1.391679	1.919085	-0.020994	-0.036354	-0.020612	-0.614990	-0.470215	0.263184	-0.340211	-0.599157	0.191705	-0.698939
10251		9.577818	1.401960	1.885096	-0.044186	-0.027673	-0.025083	-0.615723	-0.471436	0.265625	-0.340569	-0.599220	0.191956	-0.698642
10252		9.514965	1.468313	1.876829	-0.062961	-0.026739	-0.021423	-0.613770	-0.472412	0.269043	-0.340971	-0.599244	0.192316	-0.698327
10253		9.473000	1.478844	1.762190	-0.079161	-0.057731	-0.020699	-0.616211	-0.468994	0.264893	-0.341391	-0.599446	0.192836	-0.697804
10254		9.562078	1.400646	1.632764	-0.097320	-0.043227	-0.029351	-0.613770	-0.471436	0.261719	-0.341951	-0.599499	0.193397	-0.697329
10255		9.622387	1.338168	1.614491	-0.106080	-0.018806	-0.041505	-0.607422	-0.478271	0.264648	-0.342725	-0.599396	0.193895	-0.696899
10256		9.673632	1.272804	1.651095	-0.101623	-0.028394	-0.050799	-0.601807	-0.473389	0.262939	-0.343594	-0.599436	0.194328	-0.696317
10257		9.662897	1.237138	1.630605	-0.103046	-0.037865	-0.058489	-0.610596	-0.483643	0.261475	-0.344513	-0.599561	0.194775	-0.695629
10258		9.649156	1.276194	1.597450	-0.111744	-0.015578	-0.068597	-0.603271	-0.476562	0.270020	-0.345545	-0.599501	0.195159	-0.695061
10259		9.555426	1.269738	1.601635	-0.093577	-0.006345	-0.065657	-0.603271	-0.485352	0.267090	-0.346403	-0.599570	0.195410	-0.694504
10260		9.546925	1.236170	1.605702	-0.058967	-0.000088	-0.049040	-0.606934	-0.484863	0.271484	-0.347080	-0.599647	0.195522	-0.694067
10261		9.567044	1.195664	1.606698	-0.035608	0.012832	-0.037205	-0.602783	-0.479248	0.270996	-0.347495	-0.599741	0.195520	-0.693779
10262		9.537682	1.205482	1.612323	-0.024235	0.001039	-0.028110	-0.599854	-0.483154	0.269287	-0.347767	-0.599942	0.195557	-0.693459
10263		9.581052	1.239642	1.564469	-0.023703	0.016447	-0.022958	-0.608887	-0.478760	0.264648	-0.348098	-0.600040	0.195566	-0.693205
10264		9.617387	1.313710	1.634082	-0.027527	0.038349	-0.015189	-0.611816	-0.484863	0.254639	-0.348314	-0.599921	0.195606	-0.693188
10265		9.670103	1.375038	1.736521	-0.033958	0.055242	-0.009937	-0.598877	-0.482422	0.260254	-0.348618	-0.599574	0.195634	-0.693328
10266		9.654157	1.378291	1.747319	-0.031414	0.045463	-0.008862	-0.612305	-0.482666	0.253662	-0.348995	-0.599394	0.195696	-0.693277
10267		9.715826	1.382454	1.662656	-0.021138	0.050306	-0.010120	-0.606201	-0.479492	0.261230	-0.349195	-0.599120	0.195674	-0.693419
10268		9.766822	1.268496	1.671837	-0.008387	0.091132	-0.009558	-0.603271	-0.482422	0.258057	-0.349405	-0.598756	0.195485	-0.693681
10269		9.735394	1.208221	1.789207	-0.003418	0.110587	-0.012724	-0.614258	-0.480469	0.255859	-0.349713	-0.598284	0.195183	-0.694018
10270		9.732508	1.162965	1.882761	0.000278	0.115465	-0.019324	-0.608398	-0.484619	0.257324	-0.349889	-0.597766	0.194821	-0.694477
10271		9.687491	1.230678	1.955648	-0.000566	0.102795	-0.029713	-0.603271	-0.474609	0.253418	-0.350201	-0.597381	0.194426	-0.694762
10272		9.625830	1.351846	1.816542	-0.009655	0.081259	-0.036296	-0.611572	-0.483643	0.256348	-0.350599	-0.597061	0.194210	-0.694896
10273		9.706666	1.464277	1.755057	-0.015629	0.127986	-0.045439	-0.603760	-0.481689	0.255859	-0.351055	-0.596510	0.193759	-0.695265
10274		9.697964	1.496822	1.844189	-0.019977	0.202244	-0.046850	-0.609375	-0.486816	0.243408	-0.351764	-0.595542	0.193139	-0.695909
10275		9.612828	1.438043	1.950754	-0.009998	0.179347	-0.044676	-0.610840	-0.487793	0.250000	-0.352376	-0.594603	0.192487	-0.696582
10276		9.596173	1.357894	1.898585	-0.010601	0.147966	-0.051786	-0.609375	-0.482666	0.252441	-0.352917	-0.593959	0.191885	-0.697024
10277		9.483531	1.308058	1.862415	-0.007501	0.117660	-0.062766	-0.619141	-0.487549	0.238281	-0.353434	-0.593557	0.191361	-0.697248
10278		9.551549	1.326652	1.714026	-0.029793	0.096179	-0.071213	-0.612549	-0.479736	0.244385	-0.354002	-0.593059	0.190924	-0.697504
10279		9.616882	1.399195	1.735516	-0.064775	0.165910	-0.084810	-0.608887	-0.485107	0.250244	-0.354972	-0.592157	0.190531	-0.697885
10280		9.587695	1.529569	1.934487	-0.101802	0.238771	-0.091546	-0.614258	-0.483887	0.247559	-0.356295	-0.590853	0.190053	-0.698446
10281		9.452767	1.620769	2.079922	-0.106736	0.240574	-0.094876	-0.614990	-0.481201	0.235596	-0.357569	-0.589517	0.189601	-0.699046
10282		9.369848	1.595900	2.199176	-0.095728	0.197731	-0.089960	-0.628906	-0.481934	0.229736	-0.358743	-0.588324	0.189293	-0.699533
10283		9.380602	1.560157	2.208518	-0.080580	0.163813	-0.089362	-0.617920	-0.488281	0.235352	-0.359568	-0.587311	0.188975	-0.700047
10284		9.518041	1.446654	2.111699	-0.065272	0.170921	-0.093760	-0.612061	-0.485840	0.225830	-0.360494	-0.586440	0.188456	-0.700440
10285		9.540153	1.332680	2.227488	-0.043865	0.206182	-0.094919	-0.616455	-0.495361	0.225342	-0.361556	-0.585316	0.187790	-0.701012
10286		9.483989	1.275779	2.369665	-0.011297	0.180399	-0.096258	-0.613281	-0.489990	0.228027	-0.362311	-0.584496	0.186860	-0.701555
10287		9.520425	1.408231	2.344541	0.020206	0.130780	-0.104082	-0.614258	-0.486816	0.225342	-0.362906	-0.584107	0.185948	-0.701813
10288		9.459825	1.503057	2.469818	0.011168	0.114964	-0.118517	-0.615479	-0.490479	0.218262	-0.363602	-0.583760	0.185133	-0.701957
10289		9.403384	1.573394	2.507975	-0.000871	0.074334	-0.125870	-0.618164	-0.484619	0.220703	-0.364360	-0.583545	0.184452	-0.701922
10290		9.317564	1.686854	2.461321	-0.015241	0.078404	-0.134596	-0.620850	-0.498047	0.222168	-0.365159	-0.583286	0.183879	-0.701873
10291		9.269855	1.789846	2.547471	-0.007405	0.081947	-0.127684	-0.618408	-0.490723	0.218506	-0.365772	-0.583097	0.183065	-0.701923
10292		9.108493	1.749824	2.593166	-0.003956	0.045058	-0.119784	-0.622803	-0.484863	0.216553	-0.366365	-0.583040	0.182539	-0.701798
10293		9.090647	1.694455	2.570114	-0.008295	0.012504	-0.112223	-0.617188	-0.490479	0.221924	-0.366830	-0.583088	0.182274	-0.701584
10294		9.069476	1.646083	2.471750	-0.011466	0.009476	-0.112670	-0.622803	-0.488525	0.218506	-0.367317	-0.583248	0.181922	-0.701287
10295		9.153431	1.715525	2.549747	-0.034974	0.032941	-0.110246	-0.614746	-0.494141	0.224121	-0.367874	-0.583125	0.181698	-0.701156
10296		9.167755	1.776624	2.720845	-0.056586	0.052875	-0.106420	-0.621826	-0.493408	0.220947	-0.368590	-0.582927	0.181444	-0.701010
10297		9.023103	1.813311	2.801706	-0.069319	0.027335	-0.111406	-0.620605	-0.493164	0.220215	-0.369262	-0.582791	0.181346	-0.700795
10298		9.045682	1.831594	2.750191	-0.062837	-0.017888	-0.113148	-0.615967	-0.491211	0.217529	-0.369876	-0.582928	0.181361	-0.700353
10299		9.167294	1.834979	2.645600	-0.038506	-0.020768	-0.107538	-0.612549	-0.500000	0.225586	-0.370476	-0.583094	0.181351	-0.699901
10300		9.138946	1.739866	2.702693	-0.035649	0.001996	-0.098611	-0.617188	-0.496582	0.224121	-0.370919	-0.583279	0.181068	-0.699585
10301		9.162658	1.642812	2.662963	-0.038539	-0.007289	-0.090362	-0.619629	-0.489502	0.219971	-0.371280	-0.583443	0.180949	-0.699287
10302		9.183270	1.695009	2.703140	-0.041276	0.014606	-0.088682	-0.615723	-0.499268	0.221924	-0.371765	-0.583362	0.180960	-0.699095
10303		9.179650	1.791885	2.745848	-0.029720	0.018918	-0.084319	-0.617676	-0.501221	0.217041	-0.372151	-0.583362	0.180718	-0.698952
10304		9.265078	1.867584	2.835720	-0.023879	0.039685	-0.072702	-0.609863	-0.494141	0.212891	-0.372535	-0.583175	0.180464	-0.698969
10305		9.175993	1.859312	2.922573	-0.024997	0.039455	-0.059514	-0.620850	-0.499756	0.217285	-0.373079	-0.582893	0.180437	-0.698921
10306		9.160298	1.842560	2.805401	-0.022956	0.028149	-0.050738	-0.604492	-0.504883	0.213623	-0.373279	-0.582749	0.180299	-0.698970
10307		9.117559	1.789592	2.773521	0.016747	0.035076	-0.030308	-0.612549	-0.495117	0.214111	-0.373437	-0.582649	0.179993	-0.699048
10308		9.106775	1.692890	2.845067	0.029674	0.048794	-0.011076	-0.615967	-0.495361	0.211182	-0.373359	-0.582450	0.179751	-0.699317
10309		8.999806	1.657965	2.914427	0.019667	0.071317	0.002811	-0.609375	-0.492188	0.215576	-0.373285	-0.582041	0.179563	-0.699745
10310		8.859353	1.757204	2.889375	0.018830	0.057088	0.016050	-0.619141	-0.497803	0.211670	-0.373119	-0.581748	0.179445	-0.700108
10311		8.899085	1.862937	2.857521	0.023357	0.026737	0.031949	-0.621826	-0.494873	0.215332	-0.372753	-0.581590	0.179438	-0.700436
10312		8.966622	1.941978	2.821869	0.001577	0.019032	0.041677	-0.622803	-0.491211	0.218018	-0.372380	-0.581422	0.179605	-0.700731
10313		9.040889	1.936426	2.832108	-0.034450	0.045574	0.036423	-0.624268	-0.496582	0.220947	-0.372246	-0.581008	0.179863	-0.701079
10314		9.070250	1.946136	2.815470	-0.053402	0.025884	0.021144	-0.623779	-0.492188	0.213623	-0.372256	-0.580700	0.180156	-0.701254
10315		9.158866	1.959650	2.780914	-0.045150	0.000239	0.013736	-0.618652	-0.493896	0.214844	-0.372332	-0.580525	0.180514	-0.701267
10316		9.134895	1.866475	2.817977	-0.048647	0.002239	0.004087	-0.625977	-0.496582	0.214600	-0.372498	-0.580360	0.180807	-0.701239
10317		9.071191	1.839993	2.792178	-0.046069	-0.020728	-0.000142	-0.621338	-0.496094	0.210693	-0.372628	-0.580338	0.181131	-0.701104
10318		9.087637	1.875603	2.725232	-0.046754	-0.031661	-0.002373	-0.620605	-0.496582	0.213135	-0.372796	-0.580372	0.181493	-0.700894
10319		9.093090	1.894108	2.742689	-0.059924	-0.023309	0.003855	-0.628174	-0.502197	0.211914	-0.372990	-0.580317	0.181922	-0.700725
10320		9.048898	1.980438	2.762239	-0.075432	-0.038079	0.007211	-0.625488	-0.498535	0.208496	-0.373221	-0.580286	0.182505	-0.700476
10321		9.028166	2.030368	2.748230	-0.087992	-0.052564	0.009254	-0.617188	-0.494873	0.204834	-0.373492	-0.580292	0.183226	-0.700139
10322		9.055288	1.989894	2.731222	-0.104628	-0.063655	0.007100	-0.613037	-0.490234	0.213135	-0.373849	-0.580313	0.184065	-0.699710
10323		9.055630	1.828278	2.758539	-0.106817	-0.075330	0.012253	-0.615967	-0.492432	0.219238	-0.374125	-0.580414	0.184948	-0.699246
10324		9.020627	1.743665	2.751892	-0.091670	-0.111654	0.010823	-0.611572	-0.502197	0.206543	-0.374265	-0.580783	0.185838	-0.698628
10325		9.043376	1.662399	2.705175	-0.074566	-0.124473	0.006179	-0.619629	-0.501709	0.211182	-0.374395	-0.581257	0.186666	-0.697943
10326		9.131869	1.605448	2.705002	-0.069802	-0.098884	0.012926	-0.618652	-0.509033	0.216553	-0.374486	-0.581586	0.187426	-0.697416
10327		9.140377	1.610210	2.723783	-0.059961	-0.080642	0.026449	-0.614014	-0.489990	0.213623	-0.374473	-0.581831	0.188120	-0.697032
10328		9.182065	1.660260	2.708751	-0.043922	-0.084050	0.043752	-0.610352	-0.500977	0.214111	-0.374246	-0.582112	0.188828	-0.696728
10329		9.258467	1.736002	2.699004	-0.021798	-0.097379	0.054847	-0.614258	-0.495361	0.212646	-0.373850	-0.582526	0.189487	-0.696416
10330		9.264230	1.756399	2.631519	-0.002371	-0.103906	0.065218	-0.622070	-0.500977	0.218994	-0.373289	-0.583007	0.190124	-0.696140
10331		9.303058	1.708458	2.541605	0.016303	-0.082287	0.073656	-0.613525	-0.495361	0.216309	-0.372622	-0.583413	0.190626	-0.696020
10332		9.330959	1.642398	2.539562	0.034397	-0.050258	0.080690	-0.621582	-0.493652	0.219727	-0.371872	-0.583679	0.190948	-0.696109
10333		9.440793	1.574150	2.482412	0.044735	-0.019120	0.077678	-0.623535	-0.502441	0.220947	-0.371132	-0.583797	0.191114	-0.696360
10334		9.514734	1.544142	2.484407	0.050687	0.008828	0.071341	-0.618164	-0.497070	0.218750	-0.370472	-0.583782	0.191125	-0.696721
10335		9.555011	1.518648	2.450599	0.048583	0.016830	0.064099	-0.613037	-0.491211	0.211914	-0.369868	-0.583727	0.191083	-0.697100
10336		9.471903	1.597897	2.529715	0.062702	-0.001542	0.064888	-0.621338	-0.498779	0.208008	-0.369174	-0.583805	0.191029	-0.697417
10337		9.448781	1.615099	2.525693	0.068017	-0.052953	0.064460	-0.620605	-0.495117	0.212891	-0.368444	-0.584163	0.191143	-0.697472
10338		9.476245	1.613181	2.440473	0.063481	-0.052986	0.056828	-0.625244	-0.489014	0.221191	-0.367742	-0.584539	0.191228	-0.697504
10339		9.484562	1.677984	2.379485	0.053801	-0.018505	0.049803	-0.617432	-0.491699	0.214111	-0.367120	-0.584719	0.191218	-0.697684
10340		9.441475	1.658766	2.403632	0.062050	0.025414	0.048344	-0.624756	-0.495361	0.218750	-0.366588	-0.584656	0.191016	-0.698071
10341		9.335745	1.607653	2.458326	0.073665	0.027461	0.054581	-0.621826	-0.496338	0.222412	-0.365976	-0.584608	0.190784	-0.698496
10342		9.289823	1.579006	2.473186	0.089393	-0.004597	0.047161	-0.626221	-0.489746	0.215332	-0.365265	-0.584832	0.190495	-0.698759
10343		9.192980	1.591352	2.496600	0.089748	-0.046749	0.042283	-0.623291	-0.492188	0.222412	-0.364533	-0.585261	0.190355	-0.698821
10344		9.201669	1.554672	2.433003	0.076525	-0.079572	0.036458	-0.612793	-0.491943	0.222412	-0.363826	-0.585887	0.190327	-0.698672
10345		9.296543	1.535005	2.307404	0.056006	-0.070243	0.023013	-0.613770	-0.489014	0.227783	-0.363306	-0.586443	0.190278	-0.698490
10346		9.453708	1.602514	2.251507	0.044356	-0.015652	0.027331	-0.620605	-0.491455	0.224121	-0.362858	-0.586661	0.190138	-0.698578
10347		9.600651	1.588044	2.249298	0.053439	0.047895	0.034130	-0.615723	-0.490723	0.219727	-0.362492	-0.586478	0.189844	-0.699002
10348		9.670501	1.524231	2.325853	0.086370	0.085995	0.043069	-0.610840	-0.488770	0.230713	-0.361991	-0.586151	0.189276	-0.699688
10349		9.548199	1.448777	2.442956	0.125675	0.071963	0.055135	-0.622559	-0.489990	0.225342	-0.361102	-0.586096	0.188498	-0.700403
10350		9.389896	1.423407	2.378469	0.124702	0.008235	0.062949	-0.619873	-0.489502	0.224121	-0.360157	-0.586319	0.188048	-0.700825
10351		9.306569	1.519466	2.244229	0.102915	-0.019558	0.060749	-0.624512	-0.489258	0.230713	-0.359302	-0.586639	0.187790	-0.701065
10352		9.337910	1.632880	2.191386	0.072989	-0.008604	0.054275	-0.617676	-0.488037	0.223633	-0.358623	-0.586836	0.187644	-0.701286
10353		9.422549	1.762336	2.220452	0.041702	0.028315	0.049560	-0.623535	-0.487793	0.229004	-0.358223	-0.586708	0.187537	-0.701627
10354		9.445390	1.880953	2.259992	0.020182	0.039411	0.035328	-0.615234	-0.494629	0.226318	-0.358006	-0.586489	0.187464	-0.701940
10355		9.437016	1.835208	2.245279	0.012968	0.016225	0.024994	-0.617188	-0.479980	0.226318	-0.357921	-0.586416	0.187408	-0.702059
10356		9.376436	1.736483	2.233674	0.002319	-0.011532	0.012920	-0.616699	-0.482422	0.223389	-0.357767	-0.586498	0.187434	-0.702062
10357		9.341189	1.632946	2.175740	-0.021426	-0.023405	0.000915	-0.622314	-0.485596	0.231445	-0.357836	-0.586574	0.187590	-0.701922
10358		9.365627	1.606811	2.150747	-0.049752	-0.025757	-0.012902	-0.619873	-0.485840	0.221680	-0.358105	-0.586636	0.187858	-0.701661
10359		9.388009	1.552074	2.158150	-0.076091	-0.032105	-0.024108	-0.627441	-0.491699	0.229004	-0.358634	-0.586607	0.188274	-0.701304
10360		9.471065	1.509566	2.159431	-0.090853	-0.030789	-0.034559	-0.611084	-0.485596	0.229492	-0.359318	-0.586564	0.188751	-0.700861
10361		9.493095	1.456854	2.167104	-0.082907	-0.027101	-0.038800	-0.614746	-0.484375	0.230713	-0.359859	-0.586623	0.189015	-0.700463
10362		9.551180	1.461228	2.149422	-0.059142	-0.016281	-0.038374	-0.616943	-0.482910	0.224609	-0.360273	-0.586684	0.189135	-0.700166
10363		9.540764	1.393609	2.162332	-0.032597	-0.004524	-0.028545	-0.616699	-0.492188	0.230225	-0.360555	-0.586676	0.189163	-0.700020
10364		9.503492	1.330261	2.199185	-0.006207	0.001351	-0.016141	-0.617432	-0.483154	0.222412	-0.360695	-0.586744	0.189053	-0.699921
10365		9.425165	1.272914	2.260544	0.014071	0.001804	-0.000892	-0.612549	-0.492432	0.231201	-0.360616	-0.586772	0.188948	-0.699967
10366		9.375387	1.313203	2.294501	0.026844	-0.007055	0.014996	-0.619385	-0.477783	0.221924	-0.360382	-0.586972	0.188785	-0.699964
10367		9.323473	1.426641	2.336135	0.038353	-0.004061	0.018800	-0.611816	-0.488770	0.232178	-0.360015	-0.587053	0.188682	-0.700112
10368		9.330464	1.550894	2.350833	0.051645	-0.003627	0.021574	-0.612549	-0.480957	0.233643	-0.359584	-0.587309	0.188386	-0.700199
10369		9.350258	1.643590	2.395850	0.065482	-0.005920	0.020480	-0.621338	-0.486328	0.229248	-0.358988	-0.587630	0.188014	-0.700335
10370		9.309585	1.640451	2.427126	0.065696	-0.022940	0.022894	-0.620850	-0.484375	0.230957	-0.358501	-0.587941	0.187807	-0.700380
10371		9.294881	1.641228	2.401888	0.049633	-0.033315	0.017679	-0.625732	-0.481445	0.230469	-0.358079	-0.588285	0.187689	-0.700338
10372		9.292260	1.668583	2.301429	0.030587	-0.032777	0.004910	-0.616699	-0.489014	0.231201	-0.357823	-0.588545	0.187676	-0.700254
10373		9.287936	1.723123	2.305171	0.033780	-0.024611	0.001071	-0.615723	-0.485596	0.227783	-0.357661	-0.588828	0.187504	-0.700144
10374		9.327067	1.742418	2.357893	0.036283	-0.032180	0.000180	-0.618896	-0.486816	0.239258	-0.357488	-0.589123	0.187360	-0.700023
10375		9.320248	1.748110	2.414234	0.034905	-0.042070	0.002632	-0.616455	-0.487305	0.233643	-0.357185	-0.589575	0.187222	-0.699834
10376		9.298425	1.689751	2.410302	0.037656	-0.053228	0.007322	-0.618164	-0.486328	0.225342	-0.356907	-0.590031	0.187141	-0.699614
10377		9.297921	1.594247	2.373579	0.041250	-0.052602	0.013789	-0.613281	-0.481445	0.228027	-0.356684	-0.590359	0.187150	-0.699448
10378		9.303653	1.538752	2.335366	0.032821	-0.046716	0.016909	-0.619873	-0.485352	0.232910	-0.356395	-0.590678	0.187150	-0.699326
10379		9.340935	1.498757	2.294895	0.030354	-0.034473	0.014725	-0.619629	-0.485596	0.237793	-0.356178	-0.590925	0.187156	-0.699226
10380		9.426512	1.557747	2.289509	0.024365	-0.019250	0.016539	-0.617432	-0.492676	0.240479	-0.355960	-0.591117	0.187132	-0.699181
10381		9.455416	1.532109	2.304535	0.030060	-0.021661	0.014118	-0.616943	-0.483643	0.231445	-0.355807	-0.591384	0.187032	-0.699060
10382		9.482847	1.515949	2.287319	0.035683	-0.027431	0.013187	-0.621338	-0.474609	0.230713	-0.355595	-0.591589	0.186964	-0.699013
10383		9.472567	1.528570	2.292613	0.046221	-0.033126	0.010808	-0.621826	-0.480469	0.239746	-0.355216	-0.591820	0.186892	-0.699029
10384		9.495327	1.576997	2.271891	0.045400	-0.029327	0.010201	-0.622314	-0.474121	0.236084	-0.354861	-0.592126	0.186772	-0.698983
10385		9.472257	1.593418	2.301062	0.038412	-0.006356	0.006636	-0.618408	-0.487549	0.247559	-0.354546	-0.592226	0.186635	-0.699095
10386		9.444818	1.617588	2.280892	0.024023	0.001707	0.009297	-0.618164	-0.480713	0.236328	-0.354393	-0.592398	0.186469	-0.699070
10387		9.377705	1.640363	2.318373	0.017077	0.007775	0.006179	-0.623047	-0.480225	0.242920	-0.354329	-0.592372	0.186375	-0.699150
10388		9.353565	1.656486	2.352211	0.013737	0.007390	0.002606	-0.616455	-0.483643	0.234619	-0.354224	-0.592396	0.186294	-0.699204
10389		9.374594	1.592346	2.374173	0.017844	0.005006	-0.006741	-0.624023	-0.477783	0.238281	-0.354306	-0.592393	0.186133	-0.699208
10390		9.359103	1.511719	2.359341	0.022183	0.012966	-0.008631	-0.621582	-0.483154	0.238037	-0.354251	-0.592355	0.185967	-0.699312
10391		9.412953	1.493772	2.346998	0.019330	0.030841	-0.007286	-0.624512	-0.482910	0.233887	-0.354331	-0.592212	0.185754	-0.699450
10392		9.367802	1.529664	2.458719	0.019792	0.032672	-0.003107	-0.621826	-0.479492	0.244385	-0.354436	-0.591975	0.185605	-0.699637
10393		9.303010	1.574143	2.497095	0.018693	0.005316	0.003125	-0.620361	-0.485107	0.241455	-0.354270	-0.592059	0.185481	-0.699683
10394		9.288167	1.604839	2.444960	0.019635	-0.001106	0.006913	-0.617188	-0.478760	0.234375	-0.354217	-0.592138	0.185400	-0.699664
10395		9.248284	1.632274	2.447434	0.016461	0.002226	0.002673	-0.621338	-0.476074	0.237305	-0.354165	-0.592124	0.185298	-0.699729
10396		9.235440	1.626009	2.480248	0.014466	0.002387	0.002767	-0.622559	-0.474121	0.239502	-0.354041	-0.592113	0.185231	-0.699819
10397		9.234614	1.606435	2.501180	0.014042	-0.009246	0.005975	-0.616455	-0.473633	0.246582	-0.353820	-0.592187	0.185212	-0.699874
10398		9.275895	1.587964	2.485082	0.005781	-0.017352	0.009272	-0.621582	-0.477051	0.245117	-0.353509	-0.592427	0.185175	-0.699837
10399		9.287078	1.657456	2.467513	0.014481	-0.015898	0.015952	-0.621338	-0.473877	0.241455	-0.353224	-0.592601	0.185188	-0.699830
10400		9.299572	1.528713	2.491372	0.034842	0.003670	0.028679	-0.620361	-0.478027	0.243408	-0.352792	-0.592645	0.185108	-0.700032
10401		9.356214	1.458871	2.572972	0.049344	0.021642	0.032534	-0.621094	-0.473633	0.241699	-0.352364	-0.592651	0.184890	-0.700301
10402		9.362622	1.458964	2.636148	0.060099	0.013673	0.034192	-0.625244	-0.473877	0.246826	-0.351811	-0.592701	0.184656	-0.700597
10403		9.369766	1.497307	2.632568	0.061731	-0.006543	0.032024	-0.625000	-0.478760	0.239258	-0.351180	-0.592919	0.184463	-0.700780
10404		9.323172	1.528202	2.538940	0.057155	-0.013924	0.030679	-0.626465	-0.473145	0.241699	-0.350806	-0.593038	0.184377	-0.700890
10405		9.265513	1.544137	2.508922	0.063108	-0.016933	0.031532	-0.625000	-0.480957	0.239502	-0.350261	-0.593213	0.184260	-0.701045
10406		9.204000	1.633718	2.464439	0.062511	-0.021664	0.027661	-0.617188	-0.476318	0.239990	-0.349954	-0.593379	0.184159	-0.701084
10407		9.180592	1.657455	2.459013	0.056701	-0.045296	0.023662	-0.612549	-0.467529	0.242676	-0.349578	-0.593739	0.184054	-0.700995
10408		9.176543	1.605762	2.462133	0.047457	-0.076487	0.020348	-0.615723	-0.466309	0.244873	-0.349000	-0.594337	0.183991	-0.700792
10409		9.226567	1.513797	2.312512	0.034169	-0.092119	0.017444	-0.624756	-0.478271	0.249512	-0.348455	-0.594979	0.184065	-0.700499
10410		9.394290	1.498315	2.179836	0.025516	-0.045481	0.012275	-0.612793	-0.479736	0.242920	-0.348283	-0.595291	0.184129	-0.700303
10411		9.507958	1.505131	2.247805	0.020223	0.016319	0.012065	-0.614258	-0.475830	0.247314	-0.348387	-0.595207	0.183990	-0.700359
10412		9.515477	1.488464	2.354569	0.027676	0.022215	0.023895	-0.610596	-0.479736	0.255371	-0.348239	-0.595157	0.183818	-0.700521
10413		9.496000	1.466263	2.337115	0.019761	-0.012219	0.027032	-0.620117	-0.477295	0.246094	-0.348044	-0.595434	0.183729	-0.700405
10414		9.490333	1.486944	2.217539	0.020471	-0.034968	0.028178	-0.620605	-0.482422	0.251709	-0.347886	-0.595612	0.183859	-0.700298
10415		9.581929	1.469631	2.089353	0.024201	-0.013213	0.032141	-0.607666	-0.476807	0.239746	-0.347784	-0.595736	0.183921	-0.700227
10416		9.642456	1.465941	2.095237	0.014871	0.044752	0.033973	-0.609375	-0.479004	0.244629	-0.347825	-0.595422	0.183784	-0.700510
10417		9.657792	1.498114	2.217887	-0.004110	0.103854	0.028048	-0.624268	-0.475586	0.247070	-0.348085	-0.594783	0.183562	-0.700982
10418		9.528099	1.527489	2.413853	-0.004380	0.114149	0.028464	-0.613037	-0.477783	0.244873	-0.348243	-0.594017	0.183434	-0.701586
10419		9.394244	1.516318	2.315499	0.016029	0.048003	0.021325	-0.614990	-0.482910	0.248291	-0.348307	-0.593792	0.183236	-0.701797
10420		9.423624	1.509707	2.184694	0.015465	0.055528	0.008878	-0.615967	-0.486328	0.244629	-0.348565	-0.593569	0.183000	-0.701918
10421		9.480667	1.500078	2.211522	0.001576	0.094331	0.005614	-0.616211	-0.468506	0.244385	-0.349094	-0.593020	0.182755	-0.702183
10422		9.485892	1.523519	2.290638	-0.010990	0.143071	-0.002266	-0.611084	-0.487793	0.247070	-0.349291	-0.592217	0.182276	-0.702887
10423		9.353926	1.557258	2.332875	-0.006702	0.123600	-0.008943	-0.619629	-0.468506	0.244385	-0.349986	-0.591610	0.181875	-0.703156
10424		9.387719	1.587916	2.398190	-0.001254	0.112872	-0.020679	-0.619141	-0.477051	0.237061	-0.350169	-0.591055	0.181366	-0.703663
10425		9.273750	1.529572	2.465526	-0.003658	0.036284	-0.025202	-0.621338	-0.477295	0.234619	-0.350547	-0.590844	0.181116	-0.703716
10426		9.278867	1.468785	2.312195	-0.011010	-0.040336	-0.028309	-0.618896	-0.471680	0.246582	-0.350873	-0.591018	0.181141	-0.703402
10427		9.295786	1.545684	2.175253	-0.030886	-0.047900	-0.043468	-0.614014	-0.481934	0.240479	-0.351138	-0.591398	0.181183	-0.702939
10428		9.284970	1.667924	2.153183	-0.042139	-0.045111	-0.047852	-0.622070	-0.485107	0.244873	-0.351790	-0.591656	0.181277	-0.702372
10429		9.201524	1.689639	2.172896	-0.045464	-0.079764	-0.049081	-0.612549	-0.477051	0.243896	-0.352474	-0.592083	0.181610	-0.701582
10430		9.236641	1.655074	2.106470	-0.049721	-0.110529	-0.053003	-0.607910	-0.485107	0.251953	-0.352892	-0.592763	0.181872	-0.700729
10431		9.212808	1.629836	2.020452	-0.051572	-0.134036	-0.058381	-0.611572	-0.483643	0.248291	-0.353495	-0.593689	0.182234	-0.699546
10432		9.318115	1.611376	1.867035	-0.049371	-0.133011	-0.058005	-0.618408	-0.484619	0.246826	-0.354038	-0.594513	0.182598	-0.698476
10433		9.383468	1.629417	1.863328	-0.065857	-0.110400	-0.043589	-0.608887	-0.485352	0.252930	-0.354634	-0.595030	0.183141	-0.697591
10434		9.378928	1.620690	1.796019	-0.081414	-0.127041	-0.037800	-0.604736	-0.489746	0.240234	-0.355225	-0.595733	0.183792	-0.696519
10435		9.507047	1.610517	1.713903	-0.082812	-0.118717	-0.037372	-0.612793	-0.481689	0.251465	-0.355930	-0.596232	0.184341	-0.695586
10436		9.536244	1.542084	1.635176	-0.081949	-0.118768	-0.028343	-0.603271	-0.480957	0.247070	-0.356339	-0.596798	0.185025	-0.694709
10437		9.673681	1.537063	1.501649	-0.091984	-0.089598	-0.036476	-0.602051	-0.482666	0.252930	-0.356826	-0.597198	0.185499	-0.693988
10438		9.704530	1.534830	1.647857	-0.074637	-0.025431	-0.030399	-0.599854	-0.482666	0.250244	-0.357318	-0.597339	0.185754	-0.693546
10439		9.704630	1.479613	1.730217	-0.062817	-0.041967	-0.023060	-0.605225	-0.485107	0.243896	-0.357662	-0.597584	0.185990	-0.693093
10440		9.743670	1.414547	1.765464	-0.049662	-0.036851	-0.014421	-0.607178	-0.488037	0.253418	-0.357967	-0.597692	0.186222	-0.692781
10441		9.653032	1.359383	1.826007	-0.043605	-0.032383	-0.005872	-0.605225	-0.489746	0.254395	-0.358260	-0.597869	0.186547	-0.692390
10442		9.566644	1.353097	1.854070	-0.031204	-0.016750	-0.000842	-0.603027	-0.491455	0.244629	-0.358520	-0.598005	0.186779	-0.692075
10443		9.547410	1.360325	1.939918	-0.026368	0.014522	-0.000069	-0.612305	-0.482910	0.247559	-0.358841	-0.597869	0.186827	-0.692013
10444		9.515871	1.380063	2.040506	-0.028258	0.027651	0.004336	-0.603516	-0.488525	0.251465	-0.358943	-0.597627	0.186925	-0.692142
10445		9.483116	1.427690	2.088217	-0.024401	0.018936	0.007859	-0.610352	-0.486572	0.254883	-0.359126	-0.597555	0.187019	-0.692084
10446		9.468638	1.502693	2.121116	-0.017138	0.013962	0.013443	-0.610107	-0.482178	0.237793	-0.359188	-0.597514	0.187194	-0.692040
10447		9.453394	1.482545	2.146638	-0.010038	0.009936	0.016609	-0.603760	-0.490479	0.239502	-0.359074	-0.597328	0.187218	-0.692253
10448		9.441600	1.492304	2.160847	-0.013080	0.024091	0.018656	-0.615967	-0.481201	0.252441	-0.359208	-0.597103	0.187243	-0.692371
10449		9.397296	1.476384	2.190870	-0.012531	0.018352	0.017126	-0.602783	-0.490234	0.254150	-0.359099	-0.596995	0.187400	-0.692478
10450		9.491569	1.539570	2.138193	-0.025785	0.005696	0.011834	-0.609131	-0.489746	0.249512	-0.359286	-0.597040	0.187583	-0.692293
10451		9.608092	1.567341	2.076543	-0.026525	0.048248	0.010170	-0.608154	-0.486328	0.249268	-0.359549	-0.596734	0.187672	-0.692396
10452		9.614863	1.567430	2.172308	-0.034633	0.110056	0.014735	-0.604980	-0.487061	0.240234	-0.359833	-0.596061	0.187614	-0.692844
10453		9.553020	1.553100	2.217704	-0.040958	0.098879	0.018220	-0.613525	-0.485596	0.242676	-0.360126	-0.595365	0.187569	-0.693302
10454		9.732879	1.614040	2.024058	-0.042838	0.091478	0.012607	-0.617676	-0.478516	0.242920	-0.360417	-0.594697	0.187620	-0.693710
10455		9.767959	1.590623	2.165308	-0.056466	0.133136	0.000450	-0.611328	-0.479248	0.243896	-0.360733	-0.593770	0.187561	-0.694356
10456		9.675872	1.450608	2.269182	-0.048995	0.055729	-0.012330	-0.618164	-0.477051	0.243164	-0.360973	-0.593418	0.187578	-0.694527
10457		9.569726	1.405372	2.046663	-0.039035	-0.012198	-0.037553	-0.612549	-0.488525	0.234619	-0.361151	-0.593481	0.187669	-0.694357
10458		9.655336	1.419573	1.864223	-0.042467	0.051345	-0.051107	-0.614990	-0.484619	0.234619	-0.361809	-0.593104	0.187512	-0.694378
10459		9.521387	1.548397	2.022413	-0.055994	0.100429	-0.055439	-0.615234	-0.479004	0.228516	-0.362524	-0.592408	0.187267	-0.694665
10460		9.519548	1.614050	1.976675	-0.085001	0.115877	-0.053778	-0.615723	-0.486572	0.233887	-0.363267	-0.591485	0.187115	-0.695105
10461		9.438616	1.657103	2.088689	-0.104993	0.134233	-0.067185	-0.613037	-0.487549	0.235107	-0.364346	-0.590489	0.187012	-0.695414
10462		9.362149	1.706591	2.083754	-0.104898	0.091601	-0.086696	-0.620361	-0.482178	0.237793	-0.365450	-0.589835	0.186919	-0.695416
10463		9.374948	1.654623	1.925128	-0.110933	0.105027	-0.098060	-0.615234	-0.486084	0.230957	-0.366489	-0.589111	0.186796	-0.695515
10464		9.491747	1.596792	1.975909	-0.151317	0.224339	-0.114597	-0.620117	-0.484619	0.220215	-0.368101	-0.587563	0.186436	-0.696070
10465		9.514510	1.653506	2.184793	-0.184864	0.307109	-0.135773	-0.617188	-0.491211	0.229736	-0.370110	-0.585333	0.185958	-0.697011
10466		9.464910	1.800778	2.299922	-0.177987	0.291961	-0.132689	-0.621338	-0.488770	0.214600	-0.372027	-0.583408	0.185455	-0.697737
10467		9.467674	1.802744	2.398335	-0.162318	0.246878	-0.121408	-0.620850	-0.492676	0.210205	-0.373731	-0.581602	0.185113	-0.698425
10468		9.366155	1.798254	2.476014	-0.144200	0.197324	-0.127405	-0.620605	-0.489990	0.207520	-0.375357	-0.580140	0.184797	-0.698853
10469		9.240027	1.704219	2.557034	-0.135865	0.131491	-0.130866	-0.618896	-0.494141	0.210205	-0.376767	-0.579103	0.184607	-0.699004
10470		9.188396	1.694257	2.630161	-0.114590	0.054259	-0.124405	-0.629150	-0.497803	0.209961	-0.377913	-0.578650	0.184534	-0.698780
10471		9.062196	1.622060	2.773032	-0.095405	0.025883	-0.113603	-0.620605	-0.501953	0.202637	-0.378855	-0.578349	0.184572	-0.698508
10472		8.814461	1.616419	2.905818	-0.069514	-0.036859	-0.093727	-0.624268	-0.500244	0.199707	-0.379617	-0.578421	0.184745	-0.697989
10473		8.795073	1.637940	2.807214	-0.044500	-0.072007	-0.079477	-0.615967	-0.497559	0.199707	-0.380090	-0.578690	0.185002	-0.697441
10474		8.947489	1.575211	2.779429	-0.012051	-0.034549	-0.069370	-0.616211	-0.498291	0.198975	-0.380370	-0.578873	0.184939	-0.697153
10475		9.000700	1.610041	2.866541	-0.000459	0.001251	-0.056269	-0.624268	-0.497314	0.204590	-0.380589	-0.578846	0.184776	-0.697099
10476		8.946280	1.585316	3.016231	0.012347	0.005053	-0.045717	-0.622803	-0.494385	0.201172	-0.380546	-0.578856	0.184572	-0.697168
10477		9.007100	1.561916	2.883977	0.014953	-0.046724	-0.043014	-0.618408	-0.498779	0.206543	-0.380403	-0.579130	0.184554	-0.697023
10478		9.191631	1.629248	2.840052	0.016426	-0.073313	-0.046849	-0.622314	-0.493896	0.198975	-0.380251	-0.579662	0.184516	-0.696674
10479		9.274651	1.584701	2.800283	0.016523	-0.096120	-0.044217	-0.624756	-0.498535	0.206543	-0.380100	-0.580174	0.184695	-0.696283
10480		9.337641	1.551378	2.667614	0.014251	-0.081998	-0.044044	-0.617920	-0.501709	0.207275	-0.379923	-0.580681	0.184770	-0.695937
10481		9.337510	1.662749	2.657382	0.017102	-0.035108	-0.034108	-0.610840	-0.500000	0.206787	-0.379840	-0.580941	0.184696	-0.695784
10482		9.323431	1.784587	2.664315	0.024529	-0.003234	-0.019137	-0.619629	-0.485352	0.214355	-0.379715	-0.581041	0.184525	-0.695815
10483		9.190450	1.877948	2.726850	0.005567	0.024893	-0.008871	-0.623779	-0.498535	0.210693	-0.379269	-0.580972	0.184343	-0.696164
10484		9.154609	1.915373	2.807138	-0.015040	0.042165	-0.000898	-0.617188	-0.493408	0.211914	-0.379180	-0.580649	0.184354	-0.696478
10485		9.066665	1.904638	2.861310	-0.019001	0.029460	0.008700	-0.629639	-0.492432	0.209229	-0.378996	-0.580430	0.184415	-0.696745
10486		9.023605	1.812908	2.836699	-0.004825	-0.000045	0.018256	-0.623047	-0.493408	0.207275	-0.378652	-0.580334	0.184621	-0.696958
10487		9.082159	1.697832	2.813115	-0.002374	0.007506	0.019898	-0.622070	-0.495605	0.204590	-0.378418	-0.580212	0.184786	-0.697143
10488		9.163481	1.642811	2.810892	-0.015384	0.035476	0.013909	-0.624023	-0.495117	0.211670	-0.378417	-0.579882	0.184926	-0.697381
10489		9.190011	1.730910	2.846758	-0.025632	0.055306	0.010182	-0.627686	-0.489014	0.196777	-0.378394	-0.579494	0.184932	-0.697714
10490		9.149319	1.818678	2.981865	-0.012986	0.045697	0.012443	-0.622314	-0.486572	0.198975	-0.378466	-0.579063	0.185092	-0.697990
10491		9.107385	1.862730	2.946141	0.006630	-0.005937	0.015035	-0.624268	-0.487549	0.206543	-0.378305	-0.579057	0.185224	-0.698048
10492		9.143111	1.834451	2.859042	0.018310	-0.010769	0.014348	-0.627441	-0.501953	0.200195	-0.378013	-0.579176	0.185213	-0.698110
10493		9.120175	1.858053	2.901284	0.016831	0.006956	0.008966	-0.624512	-0.495361	0.205811	-0.377920	-0.579155	0.185176	-0.698187
10494		9.036210	1.869033	2.949185	0.009354	0.002394	0.004383	-0.629150	-0.496582	0.201660	-0.377813	-0.579183	0.185127	-0.698236
10495		9.000309	1.851614	2.889044	0.010842	-0.006249	0.002953	-0.630615	-0.491943	0.204590	-0.377720	-0.579245	0.185117	-0.698236
10496		8.941818	1.858557	2.869622	0.015153	-0.027892	0.008820	-0.627686	-0.491943	0.200928	-0.377508	-0.579451	0.185161	-0.698169
10497		8.945618	1.874258	2.656166	0.014175	-0.039090	0.017591	-0.628174	-0.490723	0.197998	-0.377263	-0.579695	0.185300	-0.698062
10498		9.021009	1.882569	2.625491	0.010017	-0.013928	0.027164	-0.625244	-0.494629	0.209961	-0.377030	-0.579760	0.185437	-0.698097
10499		9.060365	1.895326	2.703569	0.007149	-0.009726	0.041515	-0.632324	-0.489746	0.210205	-0.376698	-0.579804	0.185600	-0.698197
10500		9.047851	1.849517	2.763717	0.012027	-0.034604	0.058683	-0.628662	-0.493896	0.209229	-0.376194	-0.579973	0.185905	-0.698247
10501		9.016341	1.758820	2.612896	0.012656	-0.077743	0.069885	-0.624512	-0.486084	0.206543	-0.375578	-0.580375	0.186396	-0.698114
10502		9.000700	1.645163	2.498561	0.016209	-0.090045	0.071865	-0.625000	-0.491943	0.216309	-0.374918	-0.580850	0.186923	-0.697932
10503		9.003342	1.543628	2.599665	0.014039	-0.094850	0.072052	-0.626709	-0.490723	0.217041	-0.374245	-0.581362	0.187456	-0.697725
10504		9.020540	1.439813	2.699951	0.009685	-0.087346	0.075158	-0.624268	-0.486084	0.209473	-0.373588	-0.581807	0.188011	-0.697557
10505		8.963576	1.500557	2.712671	0.013368	-0.075302	0.075802	-0.627441	-0.487061	0.213623	-0.372950	-0.582175	0.188531	-0.697450
10506		8.959233	1.612668	2.554994	0.050084	-0.071512	0.098595	-0.622314	-0.478760	0.211670	-0.371998	-0.582604	0.188930	-0.697492
10507		9.177873	1.631928	2.545413	0.067249	-0.069202	0.127346	-0.628906	-0.480225	0.213135	-0.370800	-0.583024	0.189365	-0.697661
10508		9.461998	1.630433	2.621350	0.075800	-0.094817	0.138615	-0.631104	-0.486572	0.215332	-0.369455	-0.583596	0.189888	-0.697754
10509		9.635898	1.609953	2.629391	0.064298	-0.123077	0.136499	-0.633057	-0.489990	0.214111	-0.368144	-0.584300	0.190550	-0.697678
10510		9.756537	1.614708	2.494875	0.030346	-0.112138	0.113392	-0.635986	-0.476562	0.214355	-0.367166	-0.584865	0.191270	-0.697523
10511		9.785391	1.608006	2.550789	-0.002892	-0.064414	0.087579	-0.628906	-0.482422	0.213135	-0.366553	-0.585088	0.191918	-0.697481
10512		9.689916	1.630256	2.529864	-0.025717	-0.048926	0.064741	-0.637207	-0.474365	0.219482	-0.366230	-0.585189	0.192534	-0.697395
10513		9.576648	1.657102	2.493939	-0.033181	-0.018168	0.049226	-0.627930	-0.481934	0.215576	-0.366044	-0.585121	0.193018	-0.697416
10514		9.471342	1.633620	2.494201	-0.024460	0.015853	0.034087	-0.629395	-0.471680	0.219971	-0.365992	-0.584905	0.193271	-0.697554
10515		9.356996	1.634749	2.541047	-0.030143	0.040658	0.032969	-0.627930	-0.489014	0.218506	-0.365974	-0.584541	0.193466	-0.697815
10516		9.365899	1.490598	2.559966	-0.052882	0.047081	0.030989	-0.638184	-0.473145	0.212402	-0.366136	-0.584070	0.193763	-0.698042
10517		9.391531	1.508807	2.493466	-0.048163	0.052132	0.036475	-0.630615	-0.479736	0.216553	-0.366222	-0.583556	0.194068	-0.698342
10518		9.514296	1.534572	2.502015	-0.064238	0.052269	0.034649	-0.627686	-0.475586	0.215088	-0.366403	-0.583013	0.194435	-0.698598
10519		9.590405	1.577698	2.463605	-0.068080	0.058550	0.018318	-0.632324	-0.476074	0.206543	-0.366698	-0.582451	0.194722	-0.698832
10520		9.578403	1.481063	2.530068	-0.057244	0.084195	0.009670	-0.634766	-0.476562	0.215332	-0.367057	-0.581763	0.194850	-0.699181
10521		9.526510	1.369723	2.517847	-0.034063	0.079084	0.003116	-0.630371	-0.476562	0.211914	-0.367298	-0.581211	0.194803	-0.699526
10522		9.548103	1.269440	2.477555	-0.036777	0.078261	-0.006305	-0.634277	-0.475342	0.194580	-0.367616	-0.580669	0.194729	-0.699830
10523		9.510231	1.306784	2.545957	-0.059201	0.081479	-0.015978	-0.637695	-0.482178	0.208252	-0.368159	-0.580004	0.194780	-0.700082
10524		9.408594	1.437372	2.578788	-0.068180	0.088356	-0.022195	-0.635010	-0.478027	0.202637	-0.368754	-0.579321	0.194795	-0.700330
10525		9.330395	1.448950	2.579385	-0.059048	0.089220	-0.021216	-0.633545	-0.479492	0.207520	-0.369300	-0.578652	0.194765	-0.700604
10526		9.279115	1.456482	2.557848	-0.039983	0.105738	-0.019520	-0.633301	-0.483887	0.200195	-0.369751	-0.577962	0.194560	-0.700992
10527		9.255148	1.398746	2.639243	-0.018383	0.112034	-0.015695	-0.628418	-0.480713	0.204590	-0.370124	-0.577276	0.194245	-0.701448
10528		9.212805	1.353657	2.648239	0.009277	0.100849	-0.009939	-0.635986	-0.484863	0.196533	-0.370278	-0.576757	0.193805	-0.701915
10529		9.173577	1.318289	2.664787	0.015009	0.084035	0.000687	-0.636719	-0.488525	0.197510	-0.370357	-0.576301	0.193468	-0.702341
10530		9.218166	1.372925	2.610935	-0.000042	0.075343	0.006338	-0.638672	-0.478271	0.210205	-0.370469	-0.575845	0.193270	-0.702710
10531		9.184270	1.439198	2.665162	-0.002178	0.061663	0.016186	-0.630615	-0.475586	0.200684	-0.370409	-0.575496	0.193137	-0.703065
10532		9.217762	1.473173	2.669451	0.012104	0.028938	0.020952	-0.629639	-0.474365	0.207031	-0.370232	-0.575353	0.193053	-0.703298
10533		9.274526	1.492365	2.596173	0.028959	0.022799	0.025389	-0.637939	-0.483887	0.191650	-0.369905	-0.575318	0.192887	-0.703544
10534		9.286981	1.454508	2.444523	0.025376	0.050128	0.021165	-0.635010	-0.482178	0.200684	-0.369779	-0.575043	0.192706	-0.703885
10535		9.272934	1.485334	2.423395	0.025923	0.077853	0.018489	-0.624756	-0.480469	0.203369	-0.369658	-0.574655	0.192384	-0.704353
10536		9.270643	1.547379	2.517809	0.032279	0.081331	0.020606	-0.643311	-0.478271	0.201416	-0.369482	-0.574292	0.191988	-0.704849
10537		9.258449	1.567946	2.548695	0.027727	0.052214	0.024140	-0.633789	-0.472900	0.196533	-0.369249	-0.574047	0.191775	-0.705229
10538		9.244856	1.587829	2.533694	0.020838	0.021010	0.024717	-0.634766	-0.480957	0.201416	-0.369005	-0.573960	0.191697	-0.705449
10539		9.262637	1.603674	2.533258	0.011618	-0.005232	0.015396	-0.633789	-0.477051	0.199707	-0.368827	-0.574033	0.191686	-0.705485
10540		9.283069	1.557302	2.489219	0.001217	-0.010697	-0.001568	-0.629639	-0.474609	0.196777	-0.368785	-0.574127	0.191679	-0.705433
10541		9.366991	1.545206	2.441557	-0.008135	0.000647	-0.018677	-0.637451	-0.471191	0.192871	-0.368917	-0.574145	0.191615	-0.705366
10542		9.475057	1.510901	2.397004	-0.009435	0.047339	-0.038179	-0.632568	-0.483154	0.202393	-0.369246	-0.573883	0.191366	-0.705475
10543		9.525519	1.437534	2.518567	0.021705	0.088064	-0.043295	-0.628906	-0.482178	0.197021	-0.369516	-0.573544	0.190713	-0.705785
10544		9.494519	1.325124	2.636858	0.050445	0.077497	-0.035683	-0.638184	-0.485840	0.196533	-0.369614	-0.573326	0.189974	-0.706111
10545		9.389742	1.327037	2.692202	0.045303	0.031000	-0.023802	-0.637207	-0.479736	0.203369	-0.369602	-0.573329	0.189489	-0.706245
10546		9.285870	1.461450	2.625243	0.026741	-0.019158	-0.015517	-0.636963	-0.480713	0.193604	-0.369475	-0.573595	0.189282	-0.706150
10547		9.194973	1.655749	2.595034	0.016133	-0.019121	-0.009894	-0.633301	-0.481201	0.192871	-0.369441	-0.573763	0.189211	-0.706051
10548		9.118541	1.712215	2.659352	0.023361	-0.004382	-0.004586	-0.639160	-0.492188	0.196045	-0.369377	-0.573859	0.189071	-0.706044
10549		9.141739	1.584379	2.638484	0.029935	0.019719	-0.003182	-0.631348	-0.483154	0.201416	-0.369350	-0.573835	0.188819	-0.706146
10550		9.157485	1.460018	2.744815	0.043356	0.026910	-0.003053	-0.635010	-0.483887	0.194824	-0.369187	-0.573857	0.188424	-0.706318
10551		9.229462	1.347363	2.762979	0.072094	0.002524	0.002476	-0.639160	-0.478760	0.197510	-0.368864	-0.574055	0.188005	-0.706438
10552		9.293433	1.392267	2.724955	0.074237	-0.014298	0.005465	-0.628174	-0.487549	0.200684	-0.368437	-0.574358	0.187648	-0.706509
10553		9.324063	1.494745	2.718122	0.067362	-0.014270	0.006877	-0.634277	-0.490479	0.197754	-0.368089	-0.574675	0.187281	-0.706531
10554		9.320635	1.590407	2.662950	0.060475	0.004466	0.005348	-0.638916	-0.478271	0.198486	-0.367855	-0.574824	0.186928	-0.706625
10555		9.299555	1.617920	2.747189	0.063792	0.020359	0.010374	-0.627441	-0.483398	0.204102	-0.367510	-0.574877	0.186554	-0.706860
10556		9.233741	1.567187	2.771818	0.072889	-0.008669	0.009181	-0.635742	-0.476074	0.208496	-0.367096	-0.575189	0.186139	-0.706930
10557		9.259513	1.479493	2.662723	0.090368	-0.031338	0.007777	-0.632324	-0.483398	0.205566	-0.366486	-0.575696	0.185702	-0.706949
10558		9.242794	1.369535	2.625254	0.113717	-0.059163	0.009225	-0.634277	-0.478027	0.204102	-0.365801	-0.576415	0.185218	-0.706845
10559		9.233139	1.300818	2.583381	0.126081	-0.073495	0.012598	-0.632080	-0.472900	0.204346	-0.364998	-0.577226	0.184749	-0.706721
10560		9.182772	1.408609	2.644034	0.125164	-0.063055	0.018182	-0.631104	-0.472168	0.206055	-0.364160	-0.577960	0.184283	-0.706675
10561		9.163931	1.615809	2.721599	0.121107	-0.062248	0.031104	-0.628906	-0.477539	0.214355	-0.363267	-0.578658	0.183897	-0.706664
10562		9.166345	1.745544	2.828971	0.117232	-0.079401	0.048775	-0.636719	-0.483398	0.211670	-0.362260	-0.579468	0.183622	-0.706588
10563		9.132077	1.758920	2.822059	0.090692	-0.138344	0.066020	-0.632812	-0.475586	0.217529	-0.361272	-0.580463	0.183815	-0.706228
10564		9.231003	1.647068	2.605309	0.063407	-0.177853	0.067966	-0.631836	-0.466064	0.214600	-0.360264	-0.581642	0.184265	-0.705655
10565		9.377845	1.548880	2.427279	0.041033	-0.127420	0.058605	-0.635254	-0.474121	0.218994	-0.359468	-0.582436	0.184680	-0.705297
10566		9.471288	1.463241	2.365890	0.039015	-0.057322	0.051301	-0.634521	-0.463623	0.216064	-0.358882	-0.582830	0.184855	-0.705224
10567		9.558075	1.517899	2.360989	0.025250	-0.021689	0.036748	-0.633545	-0.475830	0.219482	-0.358455	-0.582972	0.184960	-0.705297
10568		9.664781	1.547327	2.295757	0.021235	-0.023141	0.023629	-0.630127	-0.470215	0.221191	-0.358207	-0.583154	0.184999	-0.705262
10569		9.700583	1.571397	2.298658	0.019781	-0.020067	0.014372	-0.634766	-0.477051	0.223145	-0.357971	-0.583350	0.184973	-0.705227
10570		9.574804	1.593016	2.346189	0.006993	-0.014924	-0.001004	-0.632324	-0.472656	0.225586	-0.357940	-0.583498	0.184940	-0.705129
10571		9.457728	1.601452	2.341420	-0.014231	-0.027748	-0.005936	-0.629150	-0.473389	0.219727	-0.357965	-0.583692	0.185026	-0.704933
10572		9.374120	1.561135	2.294293	-0.027218	-0.017598	-0.014452	-0.625977	-0.467041	0.222412	-0.358184	-0.583760	0.185138	-0.704735
10573		9.272229	1.549954	2.354038	-0.028546	0.000567	-0.021273	-0.630615	-0.480957	0.219238	-0.358394	-0.583763	0.185147	-0.704624
10574		9.175140	1.541073	2.475718	-0.036018	-0.019253	-0.024135	-0.634033	-0.468750	0.224365	-0.358775	-0.583820	0.185275	-0.704349
10575		9.218742	1.555119	2.427875	-0.045230	-0.026950	-0.020126	-0.635010	-0.472412	0.219727	-0.358997	-0.583922	0.185496	-0.704094
10576		9.224063	1.557382	2.487929	-0.052856	-0.013999	-0.012185	-0.627197	-0.478027	0.226562	-0.359302	-0.583867	0.185793	-0.703905
10577		9.191767	1.584921	2.569791	-0.072787	-0.048306	0.005148	-0.639893	-0.467773	0.219727	-0.359542	-0.584015	0.186311	-0.703523
10578		9.232803	1.487281	2.478768	-0.074679	-0.071179	0.012203	-0.627686	-0.477051	0.228027	-0.359665	-0.584175	0.187054	-0.703130
10579		9.304652	1.450573	2.465856	-0.070858	-0.057007	0.010802	-0.630615	-0.464111	0.223633	-0.359821	-0.584381	0.187607	-0.702732
10580		9.302315	1.490369	2.500776	-0.068016	-0.041913	0.009078	-0.627197	-0.477295	0.220703	-0.359913	-0.584458	0.188147	-0.702476
10581		9.243576	1.510856	2.613481	-0.062343	-0.059028	0.005042	-0.627930	-0.467529	0.217529	-0.360132	-0.584643	0.188673	-0.702068
10582		9.268106	1.461426	2.580288	-0.050227	-0.110428	0.008295	-0.633057	-0.475342	0.224609	-0.360134	-0.585125	0.189339	-0.701486
10583		9.324416	1.457424	2.465569	-0.039870	-0.119824	0.006569	-0.628418	-0.474365	0.218994	-0.360078	-0.585734	0.189937	-0.700845
10584		9.365506	1.521520	2.416700	-0.029246	-0.058392	0.004342	-0.628662	-0.474365	0.223877	-0.360149	-0.585971	0.190306	-0.700510
10585		9.362188	1.589401	2.578287	-0.007487	0.003253	0.004177	-0.626465	-0.471436	0.220703	-0.360162	-0.585956	0.190333	-0.700509
10586		9.262653	1.535920	2.721624	0.014969	-0.025919	0.007000	-0.623779	-0.472168	0.225098	-0.360011	-0.586152	0.190343	-0.700419
10587		9.243536	1.461794	2.602875	0.022375	-0.068511	0.006746	-0.629150	-0.480713	0.220947	-0.359728	-0.586669	0.190394	-0.700119
10588		9.258143	1.449612	2.581592	0.032905	-0.053423	0.001439	-0.632324	-0.477295	0.228027	-0.359586	-0.587063	0.190372	-0.699866
10589		9.166588	1.458791	2.674389	0.042978	-0.055185	0.003419	-0.627930	-0.468994	0.233154	-0.359274	-0.587543	0.190281	-0.699649
10590		9.131948	1.527850	2.624247	0.058403	-0.065946	0.003853	-0.623047	-0.469482	0.227539	-0.358737	-0.588190	0.190085	-0.699434
10591		9.157054	1.539585	2.685365	0.065193	-0.036431	0.003589	-0.635498	-0.476074	0.222412	-0.358309	-0.588636	0.189786	-0.699360
10592		9.148697	1.451835	2.734587	0.081124	-0.016948	-0.000089	-0.634766	-0.471680	0.227051	-0.357978	-0.588904	0.189423	-0.699401
10593		9.119450	1.365772	2.725314	0.105198	-0.006412	0.004462	-0.633545	-0.473145	0.232910	-0.357431	-0.589218	0.188878	-0.699565
10594		9.149637	1.192845	2.855574	0.130041	-0.054589	0.012407	-0.635254	-0.470947	0.228516	-0.356607	-0.589929	0.188328	-0.699534
10595		9.194804	1.152581	2.698962	0.153303	-0.154398	0.025990	-0.623535	-0.472900	0.232178	-0.355480	-0.591197	0.188058	-0.699110
10596		9.372572	1.319732	2.295721	0.165248	-0.155061	0.035371	-0.630127	-0.470215	0.231934	-0.354286	-0.592545	0.187709	-0.698668
10597		9.517411	1.536429	2.444587	0.175746	-0.010367	0.055333	-0.625732	-0.471924	0.235107	-0.353150	-0.592984	0.187027	-0.699054
10598		9.353904	1.468482	2.685009	0.202932	-0.030787	0.081201	-0.623779	-0.471191	0.235107	-0.351727	-0.593619	0.186344	-0.699415
10599		9.323452	1.286425	2.763894	0.232310	-0.101969	0.097242	-0.630859	-0.468750	0.247559	-0.349992	-0.594717	0.185782	-0.699501
10600		9.278007	1.191320	2.654713	0.228372	-0.158084	0.088374	-0.620605	-0.468018	0.246338	-0.348121	-0.596210	0.185331	-0.699284
10601		9.244886	1.290681	2.478684	0.201371	-0.167383	0.070717	-0.615479	-0.459229	0.254395	-0.346554	-0.597701	0.184962	-0.698887
10602		9.201854	1.470965	2.371946	0.179891	-0.165585	0.051654	-0.616699	-0.471191	0.244141	-0.345054	-0.599227	0.184540	-0.698433
10603		9.197381	1.661499	2.330842	0.160004	-0.196777	0.040297	-0.623535	-0.460938	0.257568	-0.344007	-0.600732	0.184402	-0.697693
10604		9.292415	1.787423	2.192818	0.140737	-0.233368	0.028372	-0.626465	-0.465820	0.258301	-0.342812	-0.602487	0.184365	-0.696777
10605		9.455628	1.786741	2.061848	0.118962	-0.223068	0.023726	-0.623779	-0.459229	0.270508	-0.341885	-0.604069	0.184460	-0.695838
10606		9.466529	1.703324	1.913989	0.084034	-0.215808	0.021741	-0.616211	-0.463379	0.270264	-0.340984	-0.605617	0.184652	-0.694882
10607		9.556531	1.676518	1.860212	0.032782	-0.197768	0.012407	-0.624512	-0.465576	0.269531	-0.340539	-0.606926	0.185049	-0.693853
10608		9.569203	1.689023	1.745181	-0.020122	-0.171377	-0.007605	-0.618164	-0.464355	0.272461	-0.340574	-0.607876	0.185645	-0.692844
10609		9.672029	1.794716	1.523528	-0.050593	-0.141217	-0.027467	-0.611328	-0.467285	0.269043	-0.340899	-0.608639	0.186199	-0.691864
10610		9.890044	1.743128	1.528438	-0.084389	-0.020305	-0.041905	-0.613281	-0.468018	0.275635	-0.341750	-0.608616	0.186535	-0.691374
10611		9.904755	1.633158	1.705986	-0.133106	0.047414	-0.052718	-0.614258	-0.463867	0.267578	-0.342969	-0.608134	0.186905	-0.691094
10612		9.857430	1.579104	1.796995	-0.157167	0.004729	-0.067262	-0.610107	-0.466797	0.269775	-0.344262	-0.607789	0.187442	-0.690610
10613		9.746950	1.543800	1.698442	-0.165026	-0.062572	-0.078370	-0.610596	-0.473633	0.264404	-0.345569	-0.607874	0.188156	-0.689687
10614		9.732263	1.490892	1.538390	-0.150566	-0.089251	-0.081884	-0.607422	-0.476074	0.259766	-0.346904	-0.608095	0.188897	-0.688619
10615		9.666567	1.391429	1.628851	-0.142972	-0.050906	-0.078722	-0.612305	-0.468994	0.263672	-0.348282	-0.608080	0.189501	-0.687771
10616		9.425852	1.325460	1.828590	-0.151110	-0.046768	-0.072681	-0.611084	-0.483398	0.259277	-0.349470	-0.608032	0.190126	-0.687038
10617		9.300886	1.383538	1.824888	-0.148625	-0.102311	-0.070216	-0.605713	-0.486328	0.264648	-0.350832	-0.608242	0.191031	-0.685905
10618		9.289118	1.434061	1.652816	-0.145704	-0.135739	-0.065641	-0.601318	-0.481689	0.270264	-0.352132	-0.608712	0.192064	-0.684532
10619		9.426488	1.492592	1.467714	-0.135406	-0.126583	-0.059676	-0.601562	-0.489014	0.270752	-0.353229	-0.609226	0.192994	-0.683247
10620		9.580116	1.506612	1.463543	-0.132936	-0.083244	-0.047948	-0.604492	-0.482666	0.267334	-0.354463	-0.609452	0.193932	-0.682140
10621		9.701233	1.444981	1.533249	-0.125228	-0.074898	-0.046397	-0.605469	-0.489258	0.263184	-0.355475	-0.609618	0.194723	-0.681239
10622		9.695400	1.363378	1.462210	-0.109933	-0.111540	-0.047898	-0.606445	-0.484375	0.273438	-0.356482	-0.609979	0.195585	-0.680142
10623		9.881045	1.318150	1.222806	-0.085907	-0.094555	-0.047850	-0.599121	-0.486572	0.274170	-0.357285	-0.610391	0.196278	-0.679151
10624		9.861639	1.290726	1.325920	-0.074575	0.004365	-0.041291	-0.600586	-0.493652	0.270752	-0.358199	-0.610298	0.196655	-0.678643
10625		9.838750	1.365823	1.415975	-0.065878	0.040289	-0.031852	-0.592041	-0.489258	0.268066	-0.359228	-0.609953	0.197009	-0.678306
10626		9.845925	1.380184	1.477747	-0.062733	0.077272	-0.018250	-0.601318	-0.492920	0.263672	-0.360088	-0.609440	0.197187	-0.678260
10627		9.821086	1.436189	1.483007	-0.051509	0.077467	-0.007446	-0.605713	-0.487305	0.270020	-0.360878	-0.608853	0.197403	-0.678305
10628		9.866950	1.483859	1.367479	-0.028594	0.138111	0.011867	-0.597656	-0.491455	0.266357	-0.361441	-0.607999	0.197422	-0.678765
10629		9.831570	1.399697	1.581761	-0.020590	0.213841	0.025160	-0.607910	-0.484131	0.256592	-0.362119	-0.606736	0.197257	-0.679582
10630		9.759823	1.362436	1.826619	-0.012734	0.220006	0.028721	-0.604004	-0.485840	0.256592	-0.362432	-0.605400	0.196823	-0.680731
10631		9.653601	1.343573	1.903805	-0.022976	0.165138	0.021575	-0.602539	-0.482422	0.258057	-0.362835	-0.604384	0.196637	-0.681473
10632		9.676771	1.390094	1.735341	-0.016359	0.136756	0.010225	-0.602295	-0.485840	0.250488	-0.363161	-0.603610	0.196421	-0.682047
10633		9.597960	1.508813	1.850742	-0.030754	0.169796	-0.000762	-0.602051	-0.488037	0.259521	-0.363702	-0.602581	0.196102	-0.682760
10634		9.491387	1.538117	1.983693	-0.063972	0.149487	-0.002781	-0.608643	-0.490723	0.247559	-0.364574	-0.601613	0.196221	-0.683114
10635		9.442577	1.503106	2.055627	-0.080216	0.128240	-0.005044	-0.609131	-0.483643	0.251709	-0.365444	-0.600629	0.196394	-0.683465
10636		9.313308	1.508127	2.016086	-0.093449	0.074577	-0.021634	-0.609619	-0.488525	0.241943	-0.366239	-0.599999	0.196674	-0.683513
10637		9.240848	1.521648	1.790880	-0.077707	-0.019690	-0.038411	-0.617432	-0.488525	0.250000	-0.366913	-0.599923	0.197020	-0.683119
10638		9.411759	1.605080	1.508171	-0.127880	-0.000010	-0.061305	-0.616455	-0.487061	0.247559	-0.368074	-0.599614	0.197614	-0.682593
10639		9.503139	1.600885	1.566765	-0.148460	0.046053	-0.082246	-0.610107	-0.487549	0.249512	-0.369434	-0.599024	0.198002	-0.682264
10640		9.695103	1.685484	1.519097	-0.147324	0.146045	-0.103250	-0.613525	-0.489990	0.239258	-0.371092	-0.597952	0.197991	-0.682308
10641		9.608375	1.720454	1.876487	-0.148478	0.241127	-0.114797	-0.611328	-0.494629	0.245605	-0.372897	-0.596299	0.197541	-0.682900
10642		9.525264	1.704556	1.964495	-0.138701	0.176766	-0.119166	-0.606934	-0.492676	0.242676	-0.374778	-0.595085	0.197408	-0.682968
10643		9.530306	1.662351	1.919596	-0.156166	0.136700	-0.116600	-0.618408	-0.496582	0.237793	-0.376559	-0.594076	0.197427	-0.682861
10644		9.562928	1.547912	1.662785	-0.145376	0.164569	-0.101338	-0.613281	-0.494629	0.227051	-0.378257	-0.592836	0.197404	-0.683008
10645		9.498329	1.572275	1.998521	-0.171759	0.263592	-0.094024	-0.619873	-0.490234	0.234375	-0.380004	-0.590945	0.197056	-0.683777
10646		9.502207	1.736233	2.140011	-0.193593	0.302732	-0.083756	-0.610596	-0.495605	0.224121	-0.381810	-0.588788	0.196815	-0.684700
10647		9.546844	1.847882	2.206228	-0.247944	0.390360	-0.075297	-0.611328	-0.494385	0.209961	-0.384039	-0.585941	0.196620	-0.685950
10648		9.437834	1.851584	2.425701	-0.292763	0.464604	-0.068914	-0.622803	-0.496094	0.207764	-0.386402	-0.582479	0.196326	-0.687654
10649		9.294911	1.813560	2.689883	-0.326447	0.406826	-0.070449	-0.613281	-0.493652	0.208252	-0.388874	-0.579203	0.196493	-0.688978
10650		9.144784	1.878785	2.810137	-0.294999	0.208560	-0.058838	-0.616943	-0.498291	0.197754	-0.390766	-0.577246	0.197151	-0.689362
10651		9.141888	1.781973	2.682183	-0.257682	0.075193	-0.060564	-0.619629	-0.504395	0.186279	-0.392308	-0.576111	0.198034	-0.689183
10652		9.180931	1.584468	2.814163	-0.243781	0.029285	-0.059728	-0.620605	-0.502197	0.182861	-0.393773	-0.575196	0.199017	-0.688829
10653		9.065183	1.470233	2.892285	-0.219464	0.034046	-0.057208	-0.616699	-0.502930	0.186279	-0.395029	-0.574325	0.199816	-0.688605
10654		8.891341	1.390704	3.132241	-0.207245	0.058324	-0.056763	-0.620361	-0.507080	0.190186	-0.396290	-0.573405	0.200487	-0.688451
10655		8.893788	1.473690	3.083057	-0.177300	0.024081	-0.059821	-0.618652	-0.504150	0.184814	-0.397442	-0.572800	0.201155	-0.688096
10656		9.053133	1.552941	2.945479	-0.132968	0.003814	-0.063407	-0.628662	-0.503662	0.187012	-0.398277	-0.572454	0.201558	-0.687783
10657		9.277231	1.553923	2.808319	-0.101184	0.002712	-0.059979	-0.624268	-0.503174	0.189453	-0.398880	-0.572197	0.201821	-0.687571
10658		9.376018	1.514189	2.856822	-0.057855	0.041847	-0.058272	-0.618652	-0.499268	0.186279	-0.399316	-0.571902	0.201690	-0.687601
10659		9.321658	1.454348	2.873321	-0.019723	0.014012	-0.059514	-0.621338	-0.501709	0.187988	-0.399467	-0.571908	0.201374	-0.687601
10660		9.379996	1.440005	2.723727	0.018464	-0.000905	-0.053002	-0.622559	-0.499268	0.186768	-0.399404	-0.572112	0.200951	-0.687592
10661		9.464610	1.505496	2.620215	0.050006	0.064208	-0.051851	-0.619629	-0.505371	0.185547	-0.399253	-0.572029	0.200133	-0.687988
10662		9.385910	1.540048	2.805134	0.063250	0.115566	-0.050128	-0.618896	-0.499268	0.184570	-0.399240	-0.571682	0.199120	-0.688577
10663		9.301075	1.747215	2.853869	0.075440	0.100886	-0.050972	-0.614990	-0.500488	0.188721	-0.399061	-0.571465	0.198051	-0.689169
10664		9.140006	1.851506	2.804470	0.072529	0.052646	-0.048556	-0.622559	-0.504150	0.189697	-0.398809	-0.571564	0.197140	-0.689493
10665		9.058304	1.840661	2.782030	0.054749	0.032545	-0.051451	-0.616943	-0.503418	0.187012	-0.398642	-0.571698	0.196419	-0.689684
10666		8.900210	1.888032	2.838727	0.028981	0.037950	-0.058061	-0.627686	-0.499023	0.181152	-0.398692	-0.571715	0.195808	-0.689815
10667		8.870829	1.943063	2.826257	0.009017	0.038750	-0.063186	-0.625488	-0.505615	0.182861	-0.398834	-0.571571	0.195369	-0.689977
10668		8.874577	1.910948	2.811867	-0.016692	0.073269	-0.073454	-0.626953	-0.505127	0.189453	-0.399278	-0.571188	0.194900	-0.690171
10669		8.828909	1.878741	2.971325	-0.025161	0.096191	-0.066272	-0.616699	-0.502686	0.181885	-0.399652	-0.570704	0.194353	-0.690509
10670		8.854626	1.892596	3.014560	-0.026339	0.079863	-0.057779	-0.616699	-0.500000	0.185791	-0.400074	-0.570258	0.193964	-0.690742
10671		8.880520	1.747577	3.081821	-0.010449	0.078739	-0.036466	-0.620605	-0.499756	0.178955	-0.400215	-0.569883	0.193527	-0.691092
10672		8.987590	1.595553	3.018423	0.012939	0.068527	-0.014899	-0.627441	-0.502197	0.181885	-0.400185	-0.569534	0.193191	-0.691491
10673		9.016539	1.457172	3.071196	0.037596	0.043097	0.005724	-0.621582	-0.500244	0.181885	-0.399830	-0.569401	0.192861	-0.691899
10674		9.086935	1.438800	3.082033	0.050107	0.038437	0.022715	-0.620850	-0.502686	0.173340	-0.399349	-0.569324	0.192546	-0.692327
10675		9.068474	1.509396	3.162680	0.055987	0.038562	0.041115	-0.627686	-0.509277	0.169678	-0.398894	-0.569162	0.192396	-0.692764
10676		8.965498	1.641775	3.175495	0.059452	0.017054	0.049464	-0.625977	-0.499756	0.178955	-0.398397	-0.569092	0.192373	-0.693114
10677		8.934657	1.766811	3.138847	0.067653	-0.007944	0.057001	-0.630371	-0.508789	0.185791	-0.397619	-0.569266	0.192295	-0.693440
10678		8.936124	1.806115	3.032570	0.078470	-0.016050	0.062642	-0.625488	-0.500488	0.179688	-0.396722	-0.569558	0.192136	-0.693757
10679		8.979690	1.775488	3.025867	0.076959	-0.002506	0.059305	-0.628174	-0.495605	0.182617	-0.395955	-0.569724	0.192008	-0.694094
10680		9.021648	1.712221	3.072674	0.057857	0.012705	0.058162	-0.631104	-0.501221	0.187012	-0.395265	-0.569753	0.191913	-0.694490
10681		9.021010	1.675326	3.102180	0.041552	-0.004933	0.044307	-0.615234	-0.500000	0.180176	-0.394693	-0.569878	0.191861	-0.694727
10682		9.011682	1.726248	3.048480	0.035603	-0.033041	0.030162	-0.628662	-0.495850	0.187012	-0.394324	-0.570144	0.191927	-0.694700
10683		9.033175	1.764461	3.019054	0.021066	-0.072756	0.013208	-0.633301	-0.503418	0.179443	-0.393940	-0.570636	0.192085	-0.694471
10684		8.991383	1.758797	2.976956	-0.015380	-0.104911	0.005255	-0.624268	-0.501953	0.186768	-0.393823	-0.571154	0.192598	-0.693968
10685		8.924687	1.786508	2.923936	-0.061192	-0.131075	0.001364	-0.625977	-0.503174	0.187012	-0.393866	-0.571729	0.193372	-0.693256
10686		8.925228	1.856561	2.920321	-0.094759	-0.121313	-0.007630	-0.628662	-0.502930	0.182861	-0.394141	-0.572143	0.194274	-0.692505
10687		8.862247	1.924697	2.871908	-0.082598	-0.094075	-0.007305	-0.620361	-0.496094	0.197266	-0.394429	-0.572412	0.195058	-0.691898
10688		8.884235	1.869027	2.787614	-0.046266	-0.052737	0.008773	-0.625977	-0.505615	0.189453	-0.394403	-0.572613	0.195455	-0.691635
10689		8.943961	1.700653	2.827308	0.000769	-0.001128	0.032004	-0.625244	-0.507080	0.184082	-0.394186	-0.572587	0.195588	-0.691742
10690		9.103497	1.590155	2.961256	0.047036	0.037230	0.051658	-0.627930	-0.497803	0.188232	-0.393748	-0.572435	0.195462	-0.692153
10691		9.233276	1.525883	3.016465	0.090059	0.024304	0.071174	-0.613770	-0.499512	0.185059	-0.392909	-0.572481	0.195201	-0.692665
10692		9.419809	1.477828	2.980846	0.112843	-0.016908	0.069544	-0.614990	-0.497559	0.188477	-0.391971	-0.572843	0.194940	-0.692971
10693		9.543613	1.554543	2.876645	0.121451	-0.013846	0.060919	-0.620850	-0.498047	0.181396	-0.391021	-0.573238	0.194561	-0.693287
10694		9.611045	1.720871	2.882295	0.118072	-0.008039	0.047912	-0.617188	-0.505615	0.187988	-0.390222	-0.573565	0.194186	-0.693571
10695		9.617510	1.886229	2.858895	0.104520	-0.030086	0.035802	-0.626221	-0.495361	0.188477	-0.389517	-0.574028	0.193852	-0.693679
10696		9.598814	1.921953	2.673916	0.097864	-0.063608	0.032891	-0.622314	-0.490723	0.197510	-0.388756	-0.574651	0.193671	-0.693640
10697		9.652378	1.759611	2.603155	0.092959	-0.052270	0.023648	-0.618408	-0.498291	0.197510	-0.388032	-0.575247	0.193379	-0.693633
10698		9.493181	1.716539	2.686277	0.076363	-0.038681	0.016147	-0.620117	-0.502930	0.201660	-0.387500	-0.575721	0.193106	-0.693613
10699		9.390637	1.658297	2.548441	0.060017	-0.048254	0.015059	-0.620361	-0.495850	0.186523	-0.387034	-0.576210	0.192937	-0.693514
10700		9.341906	1.633047	2.517841	0.043396	0.036632	0.017199	-0.619141	-0.501221	0.196289	-0.386853	-0.576077	0.192711	-0.693788
10701		9.220554	1.708742	2.574223	0.040621	0.050998	0.025390	-0.623535	-0.507324	0.205322	-0.386619	-0.575887	0.192425	-0.694156
10702		9.222275	1.725848	2.579730	0.026559	0.031155	0.038269	-0.631104	-0.500732	0.197510	-0.386310	-0.575780	0.192298	-0.694453
10703		9.213784	1.669285	2.552111	0.023036	0.026843	0.049155	-0.617432	-0.502686	0.196533	-0.385959	-0.575622	0.192320	-0.694772
10704		9.252826	1.668078	2.460280	0.017909	0.032676	0.057983	-0.622559	-0.500488	0.196045	-0.385629	-0.575418	0.192373	-0.695109
10705		9.269129	1.574258	2.445954	0.015681	0.087184	0.057688	-0.616699	-0.498291	0.197021	-0.385386	-0.574882	0.192276	-0.695714
10706		9.329205	1.535598	2.582809	0.021633	0.134249	0.066893	-0.618652	-0.503418	0.202881	-0.385127	-0.574095	0.192012	-0.696580
10707		9.284240	1.530861	2.646704	0.035908	0.131000	0.075343	-0.625000	-0.495605	0.201172	-0.384728	-0.573390	0.191678	-0.697473
10708		9.272172	1.468869	2.634078	0.044413	0.123906	0.090661	-0.618652	-0.496582	0.195312	-0.384150	-0.572715	0.191405	-0.698420
10709		9.291231	1.411645	2.630140	0.050359	0.131924	0.098965	-0.621094	-0.486816	0.183350	-0.383557	-0.571987	0.191125	-0.699419
10710		9.230307	1.405636	2.651010	0.037656	0.110135	0.104621	-0.623535	-0.489990	0.191650	-0.382983	-0.571278	0.191087	-0.700322
10711		9.327333	1.492943	2.587947	0.009396	0.071410	0.098212	-0.622803	-0.486328	0.196777	-0.382480	-0.570759	0.191254	-0.700974
10712		9.373909	1.607746	2.586399	-0.019052	0.051103	0.088230	-0.625000	-0.483887	0.188721	-0.382090	-0.570314	0.191565	-0.701464
10713		9.339224	1.661382	2.572703	-0.030556	-0.003063	0.080268	-0.629883	-0.488281	0.186279	-0.381753	-0.570122	0.192128	-0.701650
10714		9.434104	1.615599	2.441897	-0.037755	-0.025539	0.063071	-0.625488	-0.494873	0.188965	-0.381552	-0.570046	0.192749	-0.701651
10715		9.450423	1.509842	2.407435	-0.041673	-0.004628	0.040862	-0.627930	-0.496338	0.187988	-0.381558	-0.569894	0.193192	-0.701649
10716		9.428559	1.444077	2.430852	-0.041530	0.022114	0.014078	-0.627197	-0.498535	0.193115	-0.381776	-0.569621	0.193435	-0.701685
10717		9.416174	1.443280	2.498645	-0.021218	0.031634	-0.005785	-0.631836	-0.490234	0.182129	-0.382007	-0.569420	0.193402	-0.701731
10718		9.420985	1.442575	2.627043	0.002406	0.019858	-0.014169	-0.625488	-0.488525	0.184814	-0.382167	-0.569313	0.193300	-0.701759
10719		9.343582	1.392326	2.712942	0.021327	-0.017405	-0.007944	-0.622070	-0.488525	0.189453	-0.382118	-0.569502	0.193200	-0.701660
10720		9.257206	1.301979	2.688751	0.029290	-0.058650	0.001498	-0.629395	-0.486572	0.190674	-0.381885	-0.569973	0.193197	-0.701406
10721		9.217979	1.351083	2.599210	0.034865	-0.053719	0.007115	-0.627686	-0.488037	0.194580	-0.381579	-0.570409	0.193191	-0.701219
10722		9.219407	1.445230	2.602939	0.037115	-0.039167	0.013942	-0.620605	-0.484619	0.186279	-0.381240	-0.570775	0.193138	-0.701120
10723		9.254481	1.564847	2.617134	0.035954	-0.032212	0.021084	-0.625000	-0.488281	0.187744	-0.380920	-0.571051	0.193135	-0.701071
10724		9.198858	1.560851	2.644731	0.036430	-0.040435	0.020455	-0.633301	-0.493896	0.193359	-0.380605	-0.571371	0.193164	-0.700972
10725		9.163499	1.512813	2.606771	0.038353	-0.055600	0.017629	-0.632080	-0.490234	0.197266	-0.380276	-0.571799	0.193219	-0.700788
10726		9.173868	1.469158	2.575365	0.037934	-0.059861	0.014440	-0.627686	-0.487793	0.188232	-0.379919	-0.572275	0.193251	-0.700584
10727		9.262996	1.466728	2.530741	0.020707	-0.044192	0.009003	-0.628662	-0.483887	0.200195	-0.379752	-0.572566	0.193351	-0.700408
10728		9.281976	1.557452	2.597770	-0.002114	-0.025028	0.006426	-0.622559	-0.486816	0.187744	-0.379639	-0.572742	0.193444	-0.700300
10729		9.306808	1.604699	2.624663	-0.023820	-0.023477	0.007050	-0.626465	-0.487305	0.194580	-0.379741	-0.572777	0.193723	-0.700139
10730		9.374937	1.572072	2.576579	-0.034557	-0.017961	0.004421	-0.624756	-0.487061	0.190918	-0.379873	-0.572782	0.194008	-0.699985
10731		9.429489	1.520109	2.614943	-0.030636	0.013823	0.005056	-0.626465	-0.483154	0.194092	-0.380057	-0.572594	0.194188	-0.699989
10732		9.407622	1.447508	2.693114	-0.027898	0.043295	0.004732	-0.628418	-0.481201	0.187256	-0.380218	-0.572263	0.194234	-0.700159
10733		9.326161	1.372695	2.787250	-0.028635	0.045240	0.006956	-0.634521	-0.486328	0.185547	-0.380395	-0.571872	0.194330	-0.700355
10734		9.318759	1.318594	2.824900	-0.009888	0.037638	0.012954	-0.634033	-0.497314	0.188232	-0.380479	-0.571551	0.194406	-0.700551
10735		9.387524	1.284991	2.848349	0.006010	0.051022	0.016490	-0.635010	-0.487793	0.188477	-0.380572	-0.571212	0.194366	-0.700788
10736		9.374184	1.294366	2.887990	0.001063	0.049175	0.018521	-0.623779	-0.483154	0.187256	-0.380579	-0.570873	0.194346	-0.701066
10737		9.371214	1.386069	2.884565	-0.002627	0.022824	0.016609	-0.621826	-0.484375	0.182617	-0.380547	-0.570709	0.194376	-0.701208
10738		9.327638	1.515698	2.828617	0.001310	0.006508	0.016114	-0.630127	-0.479248	0.190186	-0.380520	-0.570629	0.194458	-0.701266
10739		9.278109	1.583820	2.810911	0.012078	-0.010650	0.014584	-0.634033	-0.488281	0.192383	-0.380306	-0.570718	0.194486	-0.701301
10740		9.217965	1.570557	2.812180	0.012881	-0.008197	0.008575	-0.629883	-0.483398	0.195557	-0.380209	-0.570800	0.194505	-0.701282
10741		9.182140	1.428733	2.789633	0.001355	-0.014894	0.005024	-0.629883	-0.484863	0.197754	-0.380112	-0.570925	0.194548	-0.701221
10742		9.248922	1.387151	2.752987	0.001987	-0.004200	0.004582	-0.631348	-0.482910	0.193115	-0.380035	-0.571003	0.194542	-0.701201
10743		9.225529	1.410777	2.795144	0.007910	-0.005982	0.005966	-0.627686	-0.495605	0.194580	-0.379929	-0.571072	0.194545	-0.701201
10744		9.186686	1.457690	2.754267	0.017601	-0.017193	0.013970	-0.632812	-0.490723	0.194092	-0.379847	-0.571234	0.194582	-0.701103
10745		9.248247	1.500099	2.655161	0.029960	-0.014808	0.019232	-0.632568	-0.483887	0.187256	-0.379626	-0.571395	0.194575	-0.701094
10746		9.223736	1.490780	2.747814	0.028236	-0.001659	0.026846	-0.629639	-0.490234	0.189697	-0.379368	-0.571416	0.194597	-0.701210
10747		9.254603	1.493720	2.734347	0.033094	-0.008617	0.032397	-0.634033	-0.478760	0.191895	-0.379113	-0.571502	0.194639	-0.701267
10748		9.213375	1.380119	2.784383	0.027161	-0.020686	0.045634	-0.631104	-0.481934	0.187256	-0.378634	-0.571630	0.194775	-0.701383
10749		9.152172	1.341389	2.781514	0.035999	-0.048526	0.056554	-0.632568	-0.484131	0.199951	-0.378094	-0.571899	0.195039	-0.701382
10750		9.237050	1.364599	2.808396	0.054235	-0.074612	0.056280	-0.624756	-0.476074	0.187744	-0.377376	-0.572459	0.195215	-0.701263
10751		9.259691	1.377606	2.793348	0.063598	-0.092449	0.048174	-0.631836	-0.482666	0.199463	-0.376652	-0.573097	0.195386	-0.701083
10752		9.194710	1.406128	2.760492	0.063957	-0.101879	0.030190	-0.633789	-0.479004	0.198486	-0.376020	-0.573867	0.195485	-0.700765
10753		9.194179	1.384691	2.702845	0.057109	-0.092929	0.021953	-0.632080	-0.469727	0.205566	-0.375457	-0.574553	0.195566	-0.700482
10754		9.195248	1.364139	2.688662	0.046393	-0.077599	0.009327	-0.639893	-0.475098	0.206055	-0.374890	-0.575194	0.195517	-0.700273
10755		9.265526	1.406819	2.681135	0.038670	-0.091503	0.010602	-0.631836	-0.471924	0.193359	-0.374391	-0.575852	0.195619	-0.699970
10756		9.380099	1.357959	2.648634	0.037332	-0.088591	0.017440	-0.633057	-0.479980	0.205811	-0.373968	-0.576391	0.195829	-0.699695
10757		9.362316	1.391735	2.666538	0.033324	-0.090833	0.018634	-0.627686	-0.475098	0.203857	-0.373556	-0.577008	0.196021	-0.699352
10758		9.319553	1.470606	2.643909	0.026845	-0.101580	0.020539	-0.640137	-0.476318	0.204102	-0.373130	-0.577658	0.196284	-0.698969
10759		9.213385	1.506523	2.656837	0.020665	-0.092207	0.023028	-0.632324	-0.481934	0.206299	-0.372730	-0.578178	0.196621	-0.698657
10760		9.150120	1.461804	2.615891	0.022838	-0.089479	0.022747	-0.638428	-0.480469	0.209473	-0.372416	-0.578717	0.196929	-0.698292
10761		9.171589	1.437557	2.683652	0.038412	-0.084668	0.012729	-0.635498	-0.477539	0.210693	-0.372041	-0.579290	0.197079	-0.697974
10762		9.224465	1.408524	2.581685	0.052164	-0.100787	0.009549	-0.634766	-0.474854	0.221924	-0.371563	-0.580016	0.197162	-0.697603
10763		9.261264	1.394383	2.637007	0.054867	-0.076895	0.012344	-0.633545	-0.471191	0.214844	-0.370972	-0.580694	0.197070	-0.697379
10764		9.208506	1.413069	2.616573	0.045621	-0.094622	0.023389	-0.636719	-0.471924	0.216064	-0.370369	-0.581362	0.197195	-0.697108
10765		9.171256	1.468330	2.508757	0.038800	-0.121581	0.034159	-0.629150	-0.476318	0.219971	-0.369699	-0.582133	0.197510	-0.696731
10766		9.231295	1.560174	2.422762	0.039181	-0.115820	0.033721	-0.644287	-0.467041	0.211426	-0.369104	-0.582913	0.197782	-0.696316
10767		9.305337	1.484631	2.484096	0.067386	-0.078087	0.032791	-0.637451	-0.475586	0.222168	-0.368382	-0.583423	0.197873	-0.696246
10768		9.386344	1.273140	2.561896	0.101446	-0.025125	0.030973	-0.629639	-0.471436	0.220215	-0.367634	-0.583836	0.197521	-0.696396
10769		9.395389	1.159034	2.692641	0.122958	-0.000522	0.030997	-0.634277	-0.469971	0.214844	-0.366835	-0.584174	0.196964	-0.696691
10770		9.324163	1.120801	2.788092	0.133748	-0.024698	0.034423	-0.635986	-0.475586	0.214600	-0.365973	-0.584603	0.196511	-0.696912
10771		9.311975	1.248575	2.717375	0.136146	-0.049511	0.032783	-0.630371	-0.468018	0.228271	-0.365171	-0.585158	0.196166	-0.696965
10772		9.208406	1.478399	2.776137	0.124219	-0.042387	0.026667	-0.640381	-0.468750	0.229248	-0.364257	-0.585789	0.195655	-0.697056
10773		9.146846	1.616706	2.788210	0.108832	-0.081471	0.026502	-0.625732	-0.469482	0.225342	-0.363347	-0.586556	0.195387	-0.696962
10774		9.156413	1.553848	2.771916	0.111910	-0.101286	0.029744	-0.633545	-0.469238	0.238037	-0.362512	-0.587438	0.195214	-0.696702
10775		9.249089	1.401423	2.676325	0.118780	-0.091711	0.032126	-0.635742	-0.471924	0.226562	-0.361495	-0.588355	0.194884	-0.696549
10776		9.256282	1.307535	2.692511	0.110282	-0.089577	0.035886	-0.628418	-0.466797	0.236084	-0.360703	-0.589081	0.194791	-0.696372
10777		9.286144	1.290847	2.640635	0.125259	-0.120248	0.045927	-0.630127	-0.466309	0.239014	-0.359599	-0.590122	0.194623	-0.696108
10778		9.264068	1.368242	2.650587	0.130332	-0.129713	0.052633	-0.630615	-0.463623	0.233154	-0.358408	-0.591219	0.194486	-0.695830
10779		9.216493	1.444081	2.536178	0.128112	-0.143045	0.058611	-0.631104	-0.464844	0.242432	-0.357243	-0.592292	0.194514	-0.695508
10780		9.315440	1.514899	2.408986	0.133051	-0.105884	0.064130	-0.635742	-0.466553	0.241455	-0.356033	-0.593217	0.194370	-0.695381
10781		9.355475	1.507000	2.451439	0.126759	-0.065869	0.065283	-0.631836	-0.460205	0.244141	-0.354979	-0.593833	0.194214	-0.695437
10782		9.412868	1.480439	2.400709	0.134577	-0.081816	0.073620	-0.638428	-0.467529	0.253662	-0.353732	-0.594584	0.194044	-0.695479
10783		9.502585	1.403242	2.305076	0.140879	-0.083785	0.076976	-0.631104	-0.459961	0.239990	-0.352457	-0.595398	0.193851	-0.695484
10784		9.498625	1.393913	2.207316	0.139381	-0.069354	0.070770	-0.621338	-0.464844	0.248535	-0.351362	-0.596012	0.193707	-0.695551
10785		9.581881	1.397922	2.227905	0.131919	-0.046736	0.059435	-0.629395	-0.457031	0.253662	-0.350471	-0.596592	0.193444	-0.695577
10786		9.560485	1.399995	2.262206	0.115139	-0.038920	0.056451	-0.627441	-0.459229	0.251465	-0.349506	-0.597095	0.193159	-0.695710
10787		9.610685	1.362350	2.186355	0.104952	-0.049708	0.051075	-0.629639	-0.455322	0.254639	-0.348710	-0.597608	0.192999	-0.695713
10788		9.621759	1.418285	2.152660	0.092313	-0.038507	0.047219	-0.627441	-0.451660	0.250977	-0.347937	-0.598039	0.192820	-0.695780
10789		9.598715	1.467506	2.093183	0.067308	-0.033675	0.045288	-0.621094	-0.456055	0.258545	-0.347315	-0.598340	0.192778	-0.695844
10790		9.634805	1.489328	1.937821	0.034906	-0.005483	0.033588	-0.635742	-0.459473	0.261230	-0.347018	-0.598489	0.192761	-0.695868
10791		9.751910	1.522139	1.999043	0.007352	0.044414	0.014767	-0.633301	-0.454102	0.260986	-0.347044	-0.598250	0.192706	-0.696076
10792		9.791623	1.484408	2.034556	-0.003598	0.041709	-0.004212	-0.630615	-0.460205	0.254395	-0.347142	-0.598048	0.192572	-0.696237
10793		9.959582	1.380170	1.843760	0.002022	0.083409	-0.018312	-0.633057	-0.459961	0.259277	-0.347547	-0.597584	0.192328	-0.696501
10794		9.901898	1.311586	2.073340	-0.002461	0.189185	-0.025872	-0.635498	-0.459229	0.254150	-0.348119	-0.596551	0.191719	-0.697269
10795		9.712166	1.266765	2.322558	-0.017573	0.176687	-0.029035	-0.624023	-0.464844	0.252441	-0.348767	-0.595512	0.191238	-0.697965
10796		9.520779	1.267506	2.293574	-0.060506	0.128923	-0.034265	-0.630127	-0.460938	0.256348	-0.349733	-0.594680	0.191162	-0.698212
10797		9.288863	1.406952	2.337196	-0.121238	0.062070	-0.055758	-0.639160	-0.463135	0.253418	-0.350863	-0.594129	0.191450	-0.698035
10798		9.350922	1.491041	1.907979	-0.139460	-0.006295	-0.074174	-0.633301	-0.465088	0.251953	-0.352082	-0.593891	0.191988	-0.697476
10799		9.438803	1.495216	1.939409	-0.114950	0.078234	-0.079448	-0.629639	-0.457275	0.242920	-0.353382	-0.593258	0.192116	-0.697322
10800		9.464596	1.339341	2.127954	-0.090866	0.125522	-0.071138	-0.626709	-0.462158	0.249512	-0.354454	-0.592374	0.191930	-0.697580
10801		9.287409	1.161508	2.264922	-0.083628	0.111252	-0.070441	-0.621582	-0.457520	0.248291	-0.355503	-0.591678	0.191746	-0.697688
10802		9.294197	1.101181	2.195954	-0.066249	0.035649	-0.079738	-0.618896	-0.471680	0.241455	-0.356290	-0.591528	0.191560	-0.697464
10803		9.285662	1.214803	1.914462	-0.058771	-0.018719	-0.092591	-0.622559	-0.458496	0.239502	-0.357351	-0.591661	0.191614	-0.696794
10804		9.416694	1.386478	1.749185	-0.045468	-0.022201	-0.087085	-0.625732	-0.471924	0.244873	-0.357990	-0.591839	0.191467	-0.696355
10805		9.521187	1.505869	1.736902	-0.022918	0.025219	-0.069494	-0.621582	-0.470459	0.247803	-0.358713	-0.591785	0.191268	-0.696083
10806		9.561777	1.561256	1.988682	-0.004307	0.065185	-0.044296	-0.624023	-0.468506	0.246338	-0.359211	-0.591568	0.190924	-0.696106
10807		9.400214	1.452398	1.919281	-0.006545	0.010206	-0.028056	-0.624023	-0.473633	0.245117	-0.359482	-0.591621	0.190815	-0.695950
10808		9.359996	1.456010	1.797305	-0.017639	-0.022465	-0.014887	-0.621094	-0.470215	0.239258	-0.359788	-0.591787	0.191000	-0.695600
10809		9.343518	1.496624	1.689516	-0.038938	-0.037197	-0.005775	-0.626221	-0.466797	0.244873	-0.360079	-0.591926	0.191368	-0.695230
10810		9.483648	1.620638	1.694029	-0.054698	0.026526	-0.002329	-0.620117	-0.471680	0.241699	-0.360408	-0.591675	0.191600	-0.695210
10811		9.499968	1.641949	2.044293	-0.061358	0.070338	0.005128	-0.617920	-0.472168	0.240967	-0.360930	-0.591135	0.191835	-0.695333
10812		9.572156	1.448866	2.063771	-0.062512	0.033262	0.007360	-0.623535	-0.474121	0.231934	-0.361401	-0.590817	0.192199	-0.695259
10813		9.622823	1.300536	2.080556	-0.077385	0.030153	0.011868	-0.622803	-0.466553	0.234131	-0.361956	-0.590360	0.192726	-0.695212
10814		9.588423	1.224015	1.996350	-0.088066	0.003017	0.012465	-0.615967	-0.467529	0.237305	-0.362330	-0.590078	0.193288	-0.695100
10815		9.631971	1.400459	1.993671	-0.090045	0.047970	0.014154	-0.621094	-0.474365	0.238281	-0.362811	-0.589594	0.193733	-0.695137
10816		9.602383	1.474792	2.061423	-0.095398	0.116617	0.016895	-0.623047	-0.470459	0.232178	-0.363545	-0.588667	0.194110	-0.695433
10817		9.571416	1.450723	2.348564	-0.100126	0.160826	0.021197	-0.622803	-0.470215	0.234375	-0.364255	-0.587428	0.194351	-0.696042
10818		9.493896	1.263446	2.577403	-0.105994	0.078595	0.013046	-0.627686	-0.471191	0.230713	-0.364892	-0.586707	0.194825	-0.696184
10819		9.331715	1.162923	2.418369	-0.135082	-0.077168	0.000115	-0.628906	-0.468506	0.230469	-0.365497	-0.586778	0.195895	-0.695506
10820		9.315706	1.366932	1.915422	-0.135179	-0.117487	-0.007586	-0.633301	-0.469238	0.230225	-0.365997	-0.587094	0.197007	-0.694661
10821		9.360304	1.722613	1.890904	-0.159452	0.005074	0.001864	-0.630127	-0.476562	0.233154	-0.366749	-0.586581	0.197942	-0.694433
10822		9.367395	1.850612	2.299853	-0.190251	0.139146	0.007069	-0.636230	-0.467529	0.222656	-0.368006	-0.585223	0.198756	-0.694681
10823		9.285229	1.663026	2.653918	-0.208032	0.091986	-0.005539	-0.628174	-0.475098	0.224854	-0.369102	-0.584033	0.199631	-0.694850
10824		9.311469	1.345179	2.526534	-0.216411	-0.057723	-0.030550	-0.630371	-0.478760	0.220215	-0.370318	-0.583790	0.200971	-0.694020
10825		9.285515	1.186929	2.276397	-0.238616	-0.184375	-0.062449	-0.630615	-0.468262	0.222900	-0.371671	-0.584209	0.202718	-0.692435
10826		9.384176	1.223030	1.877475	-0.246881	-0.229023	-0.086961	-0.624023	-0.477783	0.221436	-0.372822	-0.584946	0.204356	-0.690710
10827		9.673246	1.350132	1.693160	-0.204965	-0.012045	-0.080717	-0.627930	-0.475586	0.219971	-0.374313	-0.584537	0.205216	-0.689995
10828		9.655335	1.351011	2.243176	-0.152791	0.193103	-0.070031	-0.629150	-0.475830	0.222412	-0.375729	-0.583078	0.205141	-0.690482
10829		9.687754	1.193134	2.721403	-0.119142	0.224703	-0.060687	-0.618896	-0.472168	0.214600	-0.376935	-0.581573	0.204796	-0.691196
10830		9.631619	0.943842	2.657468	-0.106644	0.110154	-0.069200	-0.631348	-0.478027	0.216553	-0.377878	-0.580802	0.204628	-0.691379
10831		9.631101	0.909890	2.416575	-0.092004	-0.012916	-0.081430	-0.627930	-0.478271	0.210449	-0.378659	-0.580766	0.204777	-0.690937
10832		9.685127	1.111079	2.172582	-0.056682	-0.048120	-0.072557	-0.626709	-0.480469	0.204590	-0.379174	-0.580991	0.204883	-0.690434
10833		9.565794	1.397826	2.383405	-0.083379	0.019167	-0.057394	-0.626953	-0.472656	0.203125	-0.379909	-0.580658	0.205047	-0.690261
10834		9.331951	1.637293	2.402344	-0.064748	0.040682	-0.050618	-0.634033	-0.479248	0.212158	-0.380361	-0.580258	0.204966	-0.690373
10835		9.248400	1.665389	2.493479	-0.052752	0.089210	-0.061277	-0.633057	-0.480713	0.211182	-0.380942	-0.579687	0.204646	-0.690628
10836		9.242282	1.529016	2.401664	-0.027190	0.090809	-0.080570	-0.636475	-0.488770	0.211426	-0.381529	-0.579225	0.204085	-0.690857
10837		9.367492	1.419374	2.238535	-0.017575	0.103673	-0.096360	-0.639648	-0.488770	0.209717	-0.382304	-0.578730	0.203428	-0.691037
10838		9.668382	1.485350	2.125251	0.004492	0.184092	-0.102699	-0.637207	-0.483643	0.208740	-0.383110	-0.577831	0.202352	-0.691659
10839		9.780298	1.547246	2.108811	-0.006744	0.221572	-0.097307	-0.637695	-0.475342	0.203369	-0.383876	-0.576700	0.201169	-0.692523
10840		9.985508	1.638716	1.881780	0.014586	0.208364	-0.080409	-0.631836	-0.479736	0.203369	-0.384257	-0.575661	0.199916	-0.693538
10841		9.923143	1.646639	2.240381	-0.053082	0.188584	-0.101871	-0.634521	-0.480713	0.194336	-0.385143	-0.574597	0.199033	-0.694182
10842		9.817617	1.705628	2.510192	-0.076792	0.083499	-0.137145	-0.632812	-0.485596	0.196045	-0.386237	-0.574030	0.198536	-0.694186
10843		9.228362	1.621800	2.897009	-0.114822	0.025296	-0.158910	-0.641846	-0.488525	0.197510	-0.387572	-0.573750	0.198337	-0.693730
10844		8.628827	1.535399	3.295586	-0.164988	-0.049668	-0.172289	-0.632080	-0.489502	0.199707	-0.389028	-0.573748	0.198592	-0.692843
10845		8.288201	1.669182	3.281353	-0.180788	-0.114644	-0.185819	-0.635986	-0.491211	0.193604	-0.390513	-0.574164	0.199024	-0.691538
10846		8.293208	1.753949	3.005140	-0.131350	-0.063417	-0.182462	-0.633301	-0.479492	0.192139	-0.391872	-0.574339	0.199105	-0.690600
10847		8.415873	1.622126	2.960946	-0.061494	0.018810	-0.156057	-0.632080	-0.484619	0.195312	-0.392697	-0.574219	0.198566	-0.690386
10848		8.757091	1.450639	2.959800	-0.041035	0.048006	-0.117485	-0.636719	-0.491943	0.200439	-0.393269	-0.573981	0.197973	-0.690429
10849		9.188305	1.549604	2.932675	-0.012352	0.050700	-0.102405	-0.636230	-0.495850	0.181641	-0.393606	-0.573848	0.197232	-0.690560
10850		9.460227	1.684083	3.124985	0.040368	0.062749	-0.088422	-0.639160	-0.493652	0.188232	-0.394019	-0.573583	0.196550	-0.690738
10851		9.588780	1.641428	3.220941	0.049201	-0.020047	-0.094475	-0.624756	-0.493896	0.193604	-0.394132	-0.573932	0.195910	-0.690566
10852		9.430400	1.585058	3.165193	0.024742	-0.111324	-0.108114	-0.631836	-0.496826	0.191895	-0.394318	-0.574847	0.195571	-0.689794
10853		9.120118	1.744914	3.063908	0.007506	-0.164709	-0.112525	-0.632568	-0.492676	0.197754	-0.394575	-0.575973	0.195546	-0.688714
10854		8.761588	1.867131	2.939151	0.003501	-0.202500	-0.106097	-0.627197	-0.499268	0.191406	-0.394685	-0.577323	0.195640	-0.687493
10855		8.675195	1.935591	2.798496	-0.000140	-0.126514	-0.086807	-0.634033	-0.499023	0.194092	-0.394988	-0.578149	0.195705	-0.686605
10856		8.612914	1.939992	2.924999	-0.007005	-0.054950	-0.066560	-0.624268	-0.500488	0.203857	-0.395280	-0.578519	0.195642	-0.686144
10857		8.731673	1.874615	2.823683	-0.008664	-0.051130	-0.047240	-0.625244	-0.502441	0.200684	-0.395436	-0.578895	0.195590	-0.685752
10858		8.886541	1.665082	2.810804	-0.002282	-0.026441	-0.021910	-0.632080	-0.502930	0.200439	-0.395499	-0.579087	0.195581	-0.685556
10859		9.100258	1.591707	2.800514	-0.003201	-0.009886	0.002160	-0.632812	-0.498535	0.202148	-0.395453	-0.579132	0.195645	-0.685526
10860		9.153143	1.570784	2.930861	-0.015580	0.003017	0.018492	-0.629395	-0.502686	0.199219	-0.395379	-0.579041	0.195806	-0.685600
10861		9.225870	1.639808	2.989360	-0.027174	-0.020584	0.037488	-0.633545	-0.500000	0.198242	-0.395251	-0.579012	0.196221	-0.685579
10862		9.286001	1.615501	2.991661	-0.004956	-0.027396	0.049740	-0.630371	-0.502441	0.201416	-0.394930	-0.579071	0.196592	-0.685608
10863		9.318904	1.479392	2.980928	0.023198	-0.028055	0.058186	-0.633545	-0.491211	0.197998	-0.394423	-0.579223	0.196833	-0.685702
10864		9.316804	1.419785	2.985273	0.048548	-0.023123	0.065549	-0.629639	-0.492432	0.198730	-0.393754	-0.579408	0.196958	-0.685895
10865		9.191841	1.560917	3.025021	0.062303	-0.031202	0.068926	-0.629395	-0.503174	0.195801	-0.392995	-0.579683	0.197044	-0.686073
10866		9.123324	1.707915	3.005985	0.074533	-0.052325	0.071683	-0.634033	-0.493408	0.206543	-0.392149	-0.580110	0.197156	-0.686164
10867		8.962524	1.813798	2.979041	0.073647	-0.074434	0.070714	-0.634277	-0.494141	0.199707	-0.391240	-0.580673	0.197312	-0.686162
10868		8.828245	1.907044	2.916009	0.053974	-0.092766	0.067451	-0.631104	-0.493652	0.203613	-0.390434	-0.581270	0.197643	-0.686020
10869		8.755795	1.992128	2.888766	0.023903	-0.097207	0.063255	-0.632324	-0.492676	0.204346	-0.389786	-0.581807	0.198131	-0.685793
10870		8.801669	2.115242	2.800695	-0.009078	-0.111509	0.066212	-0.628906	-0.486084	0.205566	-0.389257	-0.582311	0.198868	-0.685452
10871		8.916948	2.050139	2.733096	-0.012622	-0.105655	0.082896	-0.629639	-0.494873	0.205322	-0.388653	-0.582743	0.199681	-0.685191
10872		9.010447	1.879320	2.728284	-0.012658	-0.090286	0.101461	-0.631104	-0.492676	0.207520	-0.387981	-0.583054	0.200540	-0.685056
10873		9.059670	1.725249	2.554056	0.016185	-0.053634	0.109496	-0.630371	-0.491211	0.207275	-0.387179	-0.583236	0.201151	-0.685176
10874		9.210849	1.543794	2.595102	0.013193	0.003667	0.116358	-0.634277	-0.485352	0.202881	-0.386449	-0.583069	0.201627	-0.685590
10875		9.320747	1.386514	2.667061	0.014236	0.024061	0.117986	-0.631104	-0.495850	0.205078	-0.385738	-0.582780	0.202045	-0.686113
10876		9.456205	1.455800	2.724873	0.010549	0.040981	0.110455	-0.632080	-0.487793	0.205078	-0.385129	-0.582397	0.202394	-0.686677
10877		9.404558	1.603149	2.726252	-0.002150	-0.002919	0.098322	-0.634521	-0.479736	0.203613	-0.384566	-0.582246	0.202893	-0.686974
10878		9.372116	1.593295	2.643037	-0.034147	-0.045222	0.092842	-0.633301	-0.483643	0.208496	-0.384108	-0.582242	0.203680	-0.687001
10879		9.335149	1.543757	2.390322	-0.048066	-0.043114	0.103875	-0.633057	-0.485596	0.205566	-0.383658	-0.582167	0.204589	-0.687045
10880		9.318029	1.536945	2.461488	-0.057424	-0.023737	0.111620	-0.627197	-0.488037	0.197266	-0.383253	-0.581934	0.205534	-0.687187
10881		9.482306	1.592775	2.309118	-0.059897	-0.062813	0.102727	-0.625732	-0.480469	0.206299	-0.382866	-0.581924	0.206591	-0.687094
10882		9.659983	1.479450	2.232961	-0.059198	-0.029606	0.089394	-0.635742	-0.481201	0.216553	-0.382579	-0.581762	0.207449	-0.687133
10883		9.627481	1.369972	2.471648	-0.041242	0.004823	0.081244	-0.628906	-0.480469	0.208252	-0.382290	-0.581484	0.208038	-0.687351
10884		9.508866	1.298800	2.530693	-0.037366	-0.040305	0.070286	-0.641846	-0.489014	0.203857	-0.381986	-0.581487	0.208711	-0.687313
10885		9.602364	1.297296	2.374426	-0.061954	-0.008228	0.063288	-0.630859	-0.481689	0.205078	-0.381919	-0.581224	0.209412	-0.687359
10886		9.696540	1.294303	2.271960	-0.095906	0.108114	0.058084	-0.634521	-0.479248	0.202637	-0.382237	-0.580206	0.209898	-0.687895
10887		9.804412	1.316899	2.344007	-0.077256	0.221615	0.055145	-0.631836	-0.484863	0.202881	-0.382674	-0.578597	0.209901	-0.689005
10888		9.753480	1.456056	2.496114	-0.011625	0.243905	0.055418	-0.639160	-0.481689	0.192139	-0.382838	-0.577075	0.209455	-0.690325
10889		9.590550	1.457721	2.591558	0.050783	0.139786	0.065573	-0.638672	-0.477783	0.186523	-0.382471	-0.576312	0.209050	-0.691288
10890		9.526595	1.283710	2.509355	0.076466	0.036792	0.061125	-0.640869	-0.482178	0.202881	-0.381831	-0.576224	0.208810	-0.691787
10891		9.461774	1.133524	2.334970	0.053137	0.009819	0.059620	-0.641846	-0.484131	0.189941	-0.381237	-0.576249	0.208750	-0.692112
10892		9.516313	1.235344	2.265200	0.028612	0.043528	0.048923	-0.638428	-0.484863	0.195801	-0.380923	-0.575992	0.208712	-0.692510
10893		9.458817	1.341623	2.306187	0.016266	0.116272	0.038655	-0.635498	-0.482422	0.195068	-0.380844	-0.575310	0.208450	-0.693199
10894		9.276091	1.474918	2.438047	0.008815	0.148360	0.046188	-0.634521	-0.482910	0.201660	-0.380807	-0.574408	0.208160	-0.694054
10895		9.206740	1.508029	2.494568	-0.000369	0.103303	0.050893	-0.632568	-0.479492	0.195312	-0.380692	-0.573748	0.208067	-0.694690
10896		9.244046	1.390153	2.459142	-0.025944	0.056755	0.049363	-0.639648	-0.468018	0.193359	-0.380633	-0.573269	0.208270	-0.695057
10897		9.306591	1.353561	2.378581	-0.025568	0.037978	0.041972	-0.628662	-0.468994	0.190674	-0.380542	-0.572909	0.208485	-0.695340
10898		9.284653	1.330423	2.321661	-0.023523	0.012761	0.036033	-0.636475	-0.481445	0.193115	-0.380452	-0.572715	0.208741	-0.695472
10899		9.293357	1.208721	2.266261	-0.037675	-0.006127	0.033594	-0.633545	-0.481201	0.189941	-0.380442	-0.572587	0.209145	-0.695461
10900		9.387087	1.158773	2.205768	-0.051943	-0.013191	0.018567	-0.637451	-0.478271	0.187256	-0.380587	-0.572475	0.209590	-0.695340
10901		9.371486	1.241058	2.209439	-0.047274	-0.007369	0.009036	-0.639404	-0.478516	0.189453	-0.380769	-0.572352	0.209950	-0.695232
10902		9.439276	1.278999	2.239374	-0.034446	0.020133	0.013113	-0.631592	-0.477051	0.193115	-0.380906	-0.572109	0.210163	-0.695294
10903		9.483378	1.339738	2.316922	-0.028902	0.039819	0.018797	-0.639893	-0.484375	0.187744	-0.381005	-0.571778	0.210288	-0.695474
10904		9.505888	1.300664	2.309858	-0.018067	0.032654	0.024858	-0.635010	-0.475098	0.184082	-0.381046	-0.571489	0.210437	-0.695644
10905		9.543838	1.270277	2.291109	-0.035671	0.031319	0.013712	-0.639160	-0.476807	0.187012	-0.381207	-0.571170	0.210628	-0.695760
10906		9.642610	1.263994	2.262200	-0.052330	0.070740	-0.006648	-0.634277	-0.481445	0.184570	-0.381628	-0.570611	0.210690	-0.695969
10907		9.746355	1.289345	2.298020	-0.067124	0.174704	-0.030791	-0.639404	-0.481201	0.184814	-0.382470	-0.569444	0.210402	-0.696549
10908		9.597538	1.574095	2.731582	-0.066293	0.294302	-0.045221	-0.636963	-0.486328	0.178711	-0.383585	-0.567610	0.209654	-0.697658
10909		9.135160	1.779735	3.160145	-0.095482	0.199747	-0.041848	-0.636475	-0.482422	0.173584	-0.384684	-0.566218	0.209407	-0.698257
10910		9.019450	1.613772	3.010658	-0.122378	-0.002827	-0.032040	-0.631592	-0.474121	0.170410	-0.385483	-0.565896	0.210006	-0.697898
10911		9.005243	1.403612	2.779551	-0.140506	-0.097268	-0.039484	-0.636230	-0.486328	0.178223	-0.386204	-0.566081	0.210957	-0.697062
10912		9.005993	1.335765	2.650215	-0.153709	-0.106374	-0.054841	-0.639648	-0.483398	0.170410	-0.387095	-0.566314	0.211950	-0.696077
10913		9.142656	1.244027	2.639305	-0.158659	-0.054266	-0.060906	-0.634277	-0.489990	0.174072	-0.388135	-0.566209	0.212793	-0.695326
10914		9.266048	1.128834	2.737711	-0.152200	-0.017090	-0.057905	-0.632812	-0.489258	0.167480	-0.389214	-0.565920	0.213490	-0.694744
10915		9.313731	1.050025	2.740314	-0.133261	-0.022166	-0.050216	-0.634521	-0.485107	0.177002	-0.390158	-0.565691	0.214142	-0.694200
10916		9.341376	1.036995	2.724309	-0.117932	-0.047236	-0.033677	-0.627686	-0.492920	0.163818	-0.390821	-0.565662	0.214817	-0.693642
10917		9.316067	1.085843	2.637439	-0.100188	-0.085686	-0.013196	-0.636963	-0.491211	0.174805	-0.391307	-0.565835	0.215670	-0.692962
10918		9.315527	1.086536	2.565091	-0.080510	-0.069809	0.003122	-0.632080	-0.486084	0.171631	-0.391576	-0.565975	0.216404	-0.692466
10919		9.285067	1.124894	2.623733	-0.068041	-0.058697	0.018750	-0.625000	-0.488770	0.170898	-0.391693	-0.566064	0.217089	-0.692113
10920		9.332095	1.123446	2.603495	-0.051323	-0.049974	0.026169	-0.633545	-0.485840	0.173584	-0.391732	-0.566148	0.217689	-0.691833
10921		9.365708	1.146321	2.566893	-0.037539	-0.027867	0.021815	-0.636475	-0.483887	0.173584	-0.391734	-0.566157	0.218109	-0.691693
10922		9.367548	1.129575	2.594329	-0.023352	-0.017072	0.018777	-0.636230	-0.489990	0.175293	-0.391691	-0.566152	0.218395	-0.691631
10923		9.428744	1.127509	2.598053	-0.009316	-0.022938	0.013217	-0.638672	-0.486328	0.176514	-0.391643	-0.566238	0.218611	-0.691519
10924		9.476821	1.197282	2.678738	-0.007042	-0.033320	0.012089	-0.635254	-0.488281	0.173584	-0.391540	-0.566397	0.218828	-0.691379
10925		9.382258	1.229048	2.701510	-0.004371	-0.053622	0.010762	-0.639160	-0.486572	0.177490	-0.391426	-0.566674	0.219106	-0.691129
10926		9.352193	1.223833	2.664220	-0.000636	-0.049506	0.004049	-0.621582	-0.490967	0.174561	-0.391311	-0.566960	0.219303	-0.690897
10927		9.317832	1.269770	2.685434	-0.008375	-0.017158	-0.007685	-0.632324	-0.488770	0.173340	-0.391428	-0.567066	0.219392	-0.690716
10928		9.269550	1.247753	2.674650	0.004287	-0.010784	-0.014864	-0.634521	-0.496582	0.171875	-0.391512	-0.567167	0.219364	-0.690594
10929		9.329942	1.252370	2.678197	0.014724	-0.022965	-0.024695	-0.632080	-0.489990	0.167480	-0.391648	-0.567372	0.219310	-0.690365
10930		9.392745	1.279738	2.659070	0.014263	-0.049914	-0.023298	-0.637695	-0.492432	0.170410	-0.391691	-0.567719	0.219340	-0.690046
10931		9.453962	1.320574	2.587014	0.015555	-0.046455	-0.021746	-0.635010	-0.479492	0.178711	-0.391730	-0.568043	0.219370	-0.689747
10932		9.445911	1.333596	2.633706	0.005250	-0.034224	-0.024708	-0.632812	-0.487305	0.171143	-0.391709	-0.568324	0.219308	-0.689547
10933		9.404271	1.331669	2.661825	-0.001982	-0.038446	-0.026550	-0.633301	-0.487793	0.180420	-0.391832	-0.568566	0.219361	-0.689261
10934		9.367636	1.301747	2.614003	-0.003561	-0.047693	-0.027848	-0.630127	-0.488037	0.171631	-0.391919	-0.568896	0.219413	-0.688923
10935		9.303126	1.287151	2.557583	0.001849	-0.054535	-0.029549	-0.631836	-0.487793	0.180176	-0.392018	-0.569249	0.219483	-0.688553
10936		9.284786	1.264218	2.539201	0.005214	-0.042424	-0.033387	-0.630127	-0.493164	0.180176	-0.392104	-0.569583	0.219442	-0.688240
10937		9.264081	1.290059	2.599757	0.005596	-0.018581	-0.032632	-0.628906	-0.487549	0.178223	-0.392282	-0.569773	0.219353	-0.688010
10938		9.244475	1.243574	2.626769	0.009661	-0.009478	-0.023592	-0.627686	-0.489014	0.179443	-0.392356	-0.569908	0.219229	-0.687896
10939		9.270782	1.198580	2.661104	0.012492	-0.016484	-0.005406	-0.635742	-0.490479	0.179932	-0.392310	-0.570063	0.219200	-0.687803
10940		9.347186	1.139361	2.595503	0.026284	-0.029768	0.005571	-0.629395	-0.483154	0.177246	-0.392113	-0.570302	0.219207	-0.687715
10941		9.427776	1.168683	2.609363	0.031281	0.000656	0.011356	-0.626465	-0.488037	0.173340	-0.391863	-0.570380	0.219080	-0.687833
10942		9.458682	1.127027	2.700307	0.043772	0.037133	0.021197	-0.628906	-0.485596	0.176025	-0.391645	-0.570248	0.218855	-0.688138
10943		9.370812	1.139113	2.889669	0.066154	0.040865	0.029056	-0.632080	-0.482178	0.183594	-0.391243	-0.570166	0.218505	-0.688546
10944		9.303660	1.107349	2.852629	0.064799	-0.006008	0.032273	-0.634277	-0.481934	0.181885	-0.390671	-0.570379	0.218279	-0.688766
10945		9.277291	1.165788	2.784773	0.053181	0.011730	0.020398	-0.639648	-0.487549	0.182373	-0.390267	-0.570457	0.218024	-0.689011
10946		9.079752	1.342371	2.967934	0.027761	0.021667	0.014405	-0.623047	-0.480225	0.174561	-0.390091	-0.570387	0.217895	-0.689210
10947		8.991405	1.461048	2.938174	0.023188	-0.039206	0.011449	-0.629883	-0.480957	0.186523	-0.389844	-0.570657	0.217958	-0.689105
10948		9.051553	1.403968	2.829940	0.022223	-0.045874	0.017020	-0.633789	-0.484863	0.186279	-0.389488	-0.571001	0.218021	-0.689002
10949		9.028768	1.288107	2.889126	0.023843	-0.063661	0.011918	-0.628418	-0.484863	0.181641	-0.389165	-0.571440	0.218142	-0.688782
10950		9.114796	1.208455	2.750193	0.031877	-0.107503	0.006522	-0.625488	-0.480225	0.185059	-0.388802	-0.572145	0.218363	-0.688331
10951		9.207836	1.274569	2.616951	0.032972	-0.089513	0.007420	-0.630859	-0.492920	0.185791	-0.388406	-0.572772	0.218482	-0.687996
10952		9.339310	1.279446	2.532732	0.037519	-0.054821	0.016412	-0.629883	-0.489258	0.181396	-0.388132	-0.573165	0.218589	-0.687790
10953		9.430416	1.229854	2.611059	0.054599	-0.001700	0.021343	-0.634277	-0.488037	0.183594	-0.387843	-0.573274	0.218465	-0.687901
10954		9.508683	1.203035	2.696842	0.087776	0.018131	0.029050	-0.635742	-0.488281	0.190186	-0.387359	-0.573364	0.218114	-0.688210
10955		9.574355	1.128280	2.731422	0.109786	0.035399	0.033616	-0.634277	-0.487793	0.186035	-0.386745	-0.573450	0.217571	-0.688655
10956		9.524965	1.182951	2.595439	0.112279	0.027887	0.032409	-0.640381	-0.484619	0.192627	-0.386148	-0.573564	0.217062	-0.689056
10957		9.516378	1.269723	2.544394	0.117533	0.081729	0.034814	-0.633545	-0.484619	0.188965	-0.385530	-0.573407	0.216313	-0.689768
10958		9.323694	1.246313	2.819935	0.116125	0.107420	0.034793	-0.635742	-0.482910	0.188721	-0.385014	-0.573090	0.215510	-0.690571
10959		9.125920	1.211158	2.861720	0.102974	0.022666	0.043128	-0.629883	-0.479980	0.194824	-0.384343	-0.573201	0.215088	-0.690984
10960		9.025756	1.340327	2.843677	0.075694	-0.003949	0.041632	-0.642090	-0.478516	0.186523	-0.383717	-0.573431	0.214842	-0.691217
10961		8.977856	1.480654	2.881313	0.046722	-0.025891	0.026601	-0.628418	-0.484863	0.185303	-0.383292	-0.573641	0.214829	-0.691283
10962		9.114281	1.557269	2.732335	0.031737	-0.055092	0.020352	-0.632568	-0.481689	0.200439	-0.383060	-0.573988	0.215012	-0.691066
10963		9.180895	1.449730	2.785974	0.018875	-0.063284	0.012635	-0.632568	-0.484131	0.192627	-0.382783	-0.574439	0.215148	-0.690802
10964		9.287284	1.278610	2.704339	0.011674	-0.117937	-0.001916	-0.625977	-0.484131	0.201172	-0.382614	-0.575148	0.215507	-0.690194
10965		9.292440	1.230727	2.586715	-0.001757	-0.164462	-0.014253	-0.627930	-0.485840	0.190186	-0.382469	-0.576162	0.215979	-0.689280
10966		9.390027	1.278038	2.336738	0.007137	-0.168228	-0.012428	-0.624512	-0.480713	0.202393	-0.382353	-0.577132	0.216517	-0.688364
10967		9.467355	1.357113	2.166831	0.008311	-0.101783	-0.009000	-0.627197	-0.488770	0.198486	-0.382203	-0.577801	0.216742	-0.687816
10968		9.550407	1.343631	2.253424	0.007952	-0.019483	-0.010719	-0.623779	-0.486328	0.202148	-0.382352	-0.577941	0.216805	-0.687595
10969		9.610992	1.325034	2.297840	0.004712	0.003335	-0.018460	-0.623291	-0.480713	0.210449	-0.382557	-0.577988	0.216733	-0.687464
10970		9.767126	1.404785	2.114058	0.001988	0.042699	-0.031763	-0.626953	-0.483643	0.194336	-0.382793	-0.577891	0.216389	-0.687522
10971		9.780316	1.391198	2.343784	-0.005998	0.122535	-0.040835	-0.628418	-0.490723	0.193115	-0.383370	-0.577215	0.215905	-0.687921
10972		9.654266	1.296563	2.500792	0.015392	0.073287	-0.034902	-0.622314	-0.489746	0.194092	-0.383823	-0.576858	0.215551	-0.688079
10973		9.507037	1.269200	2.612807	0.006714	0.026672	-0.036661	-0.626709	-0.487793	0.188965	-0.384231	-0.576772	0.215360	-0.687983
10974		9.351428	1.352422	2.574887	-0.018315	-0.054694	-0.046261	-0.623291	-0.484863	0.187256	-0.384637	-0.577055	0.215531	-0.687465
10975		9.287650	1.438206	2.363929	-0.041956	-0.105599	-0.061028	-0.623047	-0.490234	0.191406	-0.385101	-0.577586	0.215894	-0.686645
10976		9.343216	1.418869	2.321471	-0.041120	-0.112083	-0.072357	-0.623779	-0.489258	0.199219	-0.385684	-0.578180	0.216261	-0.685702
10977		9.277443	1.388443	2.278498	-0.021779	-0.102490	-0.085464	-0.623291	-0.490723	0.199707	-0.386205	-0.578845	0.216378	-0.684810
10978		9.368017	1.398970	2.266406	-0.019753	-0.089444	-0.094680	-0.623047	-0.487793	0.203613	-0.386802	-0.579452	0.216406	-0.683950
10979		9.322002	1.399939	2.231507	-0.034210	-0.148267	-0.103055	-0.615967	-0.496826	0.206055	-0.387323	-0.580392	0.216606	-0.682795
10980		9.387496	1.469833	1.857788	-0.026707	-0.202838	-0.112801	-0.610107	-0.498779	0.206787	-0.387927	-0.581674	0.216984	-0.681238
10981		9.583934	1.633125	1.655100	-0.017583	-0.103597	-0.122819	-0.615479	-0.497803	0.213867	-0.388751	-0.582441	0.216952	-0.680123
10982		9.473725	1.616155	1.923713	-0.023111	-0.047827	-0.114641	-0.606934	-0.505371	0.202637	-0.389588	-0.582879	0.216780	-0.679323
10983		9.462749	1.527122	1.953755	-0.023679	-0.060761	-0.089780	-0.612305	-0.500244	0.203125	-0.390425	-0.583277	0.216878	-0.678469
10984		9.328227	1.416456	2.088298	-0.038966	-0.063985	-0.069540	-0.611816	-0.489014	0.215576	-0.391073	-0.583613	0.217094	-0.677738
10985		9.339312	1.484571	1.815318	-0.052316	-0.132088	-0.063510	-0.610352	-0.502197	0.213867	-0.391365	-0.584391	0.217443	-0.676786
10986		9.531285	1.551934	1.440575	-0.050497	-0.057698	-0.057238	-0.609375	-0.495117	0.205078	-0.392015	-0.584676	0.217759	-0.676062
10987		9.662161	1.497451	1.772469	-0.046264	0.098931	-0.027053	-0.608398	-0.502686	0.206299	-0.392585	-0.584029	0.217574	-0.676349
10988		9.643397	1.277819	2.174687	-0.021838	0.077283	0.006089	-0.608643	-0.500732	0.205566	-0.392972	-0.583507	0.217592	-0.676570
10989		9.703961	1.139408	2.232982	-0.007825	0.026405	0.023846	-0.602295	-0.505859	0.208008	-0.393055	-0.583295	0.217754	-0.676652
10990		9.675258	1.230841	1.992975	-0.021563	0.002030	0.025561	-0.610596	-0.498535	0.204590	-0.393290	-0.583179	0.218160	-0.676484
10991		9.620319	1.356758	1.750878	-0.031070	0.072573	0.028397	-0.610107	-0.502930	0.195801	-0.393497	-0.582623	0.218299	-0.676798
10992		9.698892	1.440650	1.873568	-0.028971	0.194686	0.035897	-0.610352	-0.501221	0.195068	-0.393969	-0.581315	0.218133	-0.677702
10993		9.728593	1.447233	2.254280	-0.045275	0.285621	0.037284	-0.614502	-0.498779	0.193359	-0.394645	-0.579452	0.217741	-0.679029
10994		9.669765	1.392096	2.611999	-0.051463	0.233297	0.036416	-0.615723	-0.507568	0.201904	-0.395201	-0.577873	0.217518	-0.680121
10995		9.458371	1.285798	2.653708	-0.049230	0.111004	0.036400	-0.613037	-0.502686	0.192627	-0.395771	-0.576996	0.217854	-0.680427
10996		9.322767	1.267466	2.363025	-0.036677	0.013024	0.029114	-0.617432	-0.495850	0.190674	-0.396020	-0.576727	0.218313	-0.680363
10997		9.301767	1.333635	2.208492	-0.066520	0.055666	0.023632	-0.617432	-0.499512	0.186279	-0.396330	-0.576146	0.218653	-0.680565
10998		9.493910	1.452291	2.072357	-0.098500	0.166794	0.037173	-0.623047	-0.504150	0.194092	-0.397007	-0.574770	0.218934	-0.681244
10999		9.549222	1.481851	2.420418	-0.105103	0.289335	0.050515	-0.622803	-0.500244	0.186523	-0.398011	-0.572651	0.219027	-0.682412
11000		9.544442	1.341549	2.714440	-0.079950	0.205798	0.059258	-0.609619	-0.490967	0.185791	-0.398584	-0.571081	0.219214	-0.683332
11001		9.253966	1.239583	2.834729	-0.060821	0.043055	0.042631	-0.621094	-0.491943	0.180908	-0.398656	-0.570639	0.219564	-0.683547
11002		9.210306	1.165896	2.205408	-0.036287	-0.112374	0.014894	-0.626221	-0.494385	0.192139	-0.398479	-0.571154	0.220189	-0.683019
11003		9.549348	1.342152	1.877208	-0.022155	0.083191	0.001172	-0.619385	-0.497559	0.183594	-0.398765	-0.570640	0.220096	-0.683311
11004		9.392641	1.462977	2.401684	-0.021166	0.257325	-0.003425	-0.620850	-0.493896	0.181152	-0.399465	-0.569116	0.219431	-0.684386
11005		9.370706	1.485163	2.642389	-0.007675	0.261258	0.001114	-0.623291	-0.505371	0.187988	-0.399977	-0.567626	0.218627	-0.685581
11006		9.234838	1.370708	2.805603	0.008555	0.220346	-0.005896	-0.623291	-0.496094	0.173340	-0.400715	-0.566405	0.218064	-0.686339
11007		9.223413	1.204838	2.660202	0.022238	0.052021	-0.020186	-0.627197	-0.496094	0.169434	-0.400865	-0.566218	0.217717	-0.686516
11008		9.194669	1.261370	2.361591	0.025243	-0.071329	-0.039167	-0.625488	-0.498047	0.183350	-0.400858	-0.566754	0.217669	-0.686092
11009		9.358910	1.522560	2.076272	0.012910	-0.051227	-0.050020	-0.623535	-0.499268	0.183105	-0.401109	-0.567203	0.217634	-0.685586
11010		9.399393	1.583266	2.163245	0.026190	0.099547	-0.044503	-0.624023	-0.492676	0.188477	-0.401559	-0.566821	0.217057	-0.685821
11011		9.195253	1.554301	2.608722	0.044014	0.167819	-0.038220	-0.632812	-0.497314	0.177246	-0.401842	-0.566163	0.216061	-0.686514
11012		9.102613	1.410120	2.759943	0.070089	0.113813	-0.031856	-0.624756	-0.491455	0.181396	-0.401926	-0.565792	0.215196	-0.687041
11013		9.156657	1.341759	2.690408	0.070209	0.052062	-0.041633	-0.627441	-0.488037	0.174805	-0.401826	-0.565874	0.214374	-0.687289
11014		9.322831	1.357881	2.539171	0.060397	0.010272	-0.054540	-0.634033	-0.490234	0.185303	-0.401640	-0.566166	0.213611	-0.687395
11015		9.356106	1.463400	2.667225	0.037723	0.005817	-0.069251	-0.631348	-0.492432	0.178955	-0.401705	-0.566448	0.212984	-0.687319
11016		9.262143	1.503294	2.774573	0.019752	-0.038894	-0.067769	-0.631348	-0.497070	0.181396	-0.401798	-0.566887	0.212637	-0.687010
11017		9.219165	1.496655	2.809061	0.010842	-0.067914	-0.060035	-0.626221	-0.495850	0.178955	-0.401940	-0.567436	0.212542	-0.686503
11018		9.269600	1.416593	2.810334	0.058997	-0.074456	-0.055311	-0.627930	-0.495117	0.184814	-0.401776	-0.568181	0.212179	-0.686095
11019		9.256744	1.384986	2.879264	0.108068	-0.065546	-0.048741	-0.627686	-0.489990	0.180176	-0.401329	-0.569048	0.211519	-0.685842
11020		9.129831	1.367058	2.999272	0.120161	-0.040740	-0.049175	-0.620605	-0.489258	0.190918	-0.400736	-0.569803	0.210624	-0.685837
11021		9.214046	1.487091	2.915619	0.115414	-0.069352	-0.039768	-0.627441	-0.491699	0.190430	-0.400067	-0.570764	0.209863	-0.685663
11022		9.318967	1.588969	2.941538	0.109315	-0.068933	-0.044495	-0.624023	-0.481201	0.190918	-0.399490	-0.571661	0.209165	-0.685465
11023		9.308510	1.613691	2.939449	0.118725	-0.069621	-0.052647	-0.628174	-0.488525	0.185547	-0.398697	-0.572647	0.208227	-0.685389
11024		9.385813	1.695892	2.829705	0.135927	-0.068898	-0.063783	-0.627441	-0.485596	0.190674	-0.398056	-0.573612	0.207280	-0.685241
11025		9.539126	1.654600	2.784763	0.145385	-0.029969	-0.086516	-0.624023	-0.486084	0.186035	-0.397502	-0.574453	0.205991	-0.685247
11026		9.595395	1.669315	2.773737	0.128489	-0.009428	-0.106429	-0.628906	-0.489502	0.195312	-0.397230	-0.575114	0.204681	-0.685243
11027		9.556170	1.803409	2.716827	0.097953	0.038817	-0.127654	-0.622559	-0.492920	0.197021	-0.397303	-0.575465	0.203271	-0.685326
11028		9.365428	1.917615	2.893167	0.072666	0.062257	-0.123628	-0.629150	-0.495850	0.192871	-0.397573	-0.575608	0.201961	-0.685437
11029		9.197076	1.969664	2.859101	0.033377	0.042356	-0.123358	-0.626709	-0.492920	0.195312	-0.398034	-0.575673	0.201005	-0.685395
11030		9.049999	1.911123	2.883011	-0.012660	0.055350	-0.127909	-0.622559	-0.495605	0.188477	-0.398685	-0.575552	0.200184	-0.685359
11031		8.972410	1.865669	2.822451	-0.053932	0.060357	-0.129587	-0.626221	-0.498779	0.196289	-0.399646	-0.575222	0.199647	-0.685233
11032		8.914592	1.814128	2.845076	-0.077272	0.064848	-0.128121	-0.621338	-0.501709	0.197266	-0.400647	-0.574841	0.199164	-0.685108
11033		8.911205	1.691793	2.903462	-0.093262	0.055294	-0.126436	-0.626465	-0.503662	0.190674	-0.401716	-0.574485	0.198796	-0.684888
11034		9.007922	1.661493	2.979211	-0.105947	0.052870	-0.123817	-0.620850	-0.506104	0.183350	-0.402862	-0.574032	0.198589	-0.684654
11035		8.926401	1.627959	3.022600	-0.137853	0.028212	-0.114415	-0.623291	-0.499512	0.187012	-0.404165	-0.573557	0.198766	-0.684233
11036		8.935589	1.648339	2.975158	-0.139929	-0.014830	-0.106259	-0.619873	-0.504639	0.192383	-0.405179	-0.573352	0.199019	-0.683731
11037		8.935708	1.722779	2.892979	-0.115488	-0.056949	-0.100850	-0.620361	-0.510742	0.183350	-0.405966	-0.573516	0.199246	-0.683061
11038		9.044439	1.682266	2.816002	-0.094263	-0.061659	-0.088272	-0.615967	-0.505371	0.194336	-0.406733	-0.573671	0.199577	-0.682377
11039		8.993246	1.713172	2.898398	-0.086175	-0.037065	-0.082516	-0.614990	-0.503174	0.181885	-0.407269	-0.573817	0.199612	-0.681924
11040		8.952508	1.744419	2.919368	-0.082840	-0.041403	-0.073125	-0.622314	-0.508301	0.188477	-0.407864	-0.573872	0.199851	-0.681452
11041		8.962173	1.719577	2.882610	-0.069890	-0.035032	-0.055603	-0.618652	-0.506836	0.186279	-0.408225	-0.573945	0.200004	-0.681129
11042		8.956152	1.683584	2.836143	-0.046544	-0.032522	-0.024339	-0.618408	-0.516357	0.187256	-0.408329	-0.574020	0.200188	-0.680950
11043		8.944088	1.738364	2.785023	-0.031657	-0.019430	0.008173	-0.620850	-0.515625	0.190430	-0.408275	-0.574025	0.200421	-0.680910
11044		9.020029	1.735788	2.813692	-0.022337	0.039063	0.038161	-0.611084	-0.507812	0.181641	-0.408039	-0.573704	0.200493	-0.681301
11045		9.046040	1.793727	2.917808	-0.012283	0.073269	0.058832	-0.614502	-0.507324	0.183594	-0.407812	-0.573132	0.200598	-0.681887
11046		8.999370	1.755484	2.938452	0.002639	0.041476	0.082148	-0.612305	-0.508789	0.185303	-0.407274	-0.572773	0.200794	-0.682452
11047		9.106927	1.663061	2.878903	0.019236	0.003705	0.085078	-0.619385	-0.512939	0.179443	-0.406581	-0.572706	0.201010	-0.682857
11048		9.180657	1.624370	2.870022	0.036329	-0.034511	0.079307	-0.613037	-0.503662	0.179199	-0.405884	-0.572853	0.201351	-0.683049
11049		9.225519	1.602369	2.827336	0.049533	-0.059007	0.065483	-0.622070	-0.503662	0.185547	-0.405145	-0.573212	0.201622	-0.683106
11050		9.225833	1.666356	2.872895	0.047127	-0.056218	0.054697	-0.620117	-0.503418	0.185547	-0.404365	-0.573597	0.201760	-0.683205
11051		9.144075	1.780587	2.947741	0.031958	-0.049717	0.042166	-0.620605	-0.507324	0.182617	-0.403774	-0.573910	0.201921	-0.683244
11052		9.007615	1.819273	2.981599	0.017046	-0.053398	0.041448	-0.611328	-0.500244	0.193359	-0.403348	-0.574160	0.202253	-0.683187
11053		8.888624	1.763801	2.979382	0.002212	-0.048004	0.036226	-0.621094	-0.500732	0.184570	-0.402862	-0.574452	0.202431	-0.683176
11054		8.830446	1.722238	3.021127	-0.014119	0.018935	0.017039	-0.618652	-0.506104	0.180176	-0.402801	-0.574229	0.202559	-0.683361
11055		8.490344	2.016770	3.251852	-0.003793	0.074560	0.006693	-0.612549	-0.507568	0.184082	-0.402963	-0.573711	0.202474	-0.683725
11056		8.406539	2.117909	3.195921	0.055895	0.029006	0.067375	-0.619629	-0.504883	0.179443	-0.402376	-0.573611	0.202407	-0.684175
11057		8.728333	1.767816	2.751823	0.152091	-0.014013	0.163512	-0.614258	-0.505859	0.185791	-0.400743	-0.573856	0.202471	-0.684909
11058		9.226278	1.349335	2.764703	0.182730	-0.063274	0.214538	-0.618408	-0.497070	0.196045	-0.398559	-0.574457	0.202689	-0.685614
11059		9.635930	1.410196	2.837420	0.159530	-0.129272	0.229893	-0.628174	-0.504150	0.193848	-0.396097	-0.575397	0.203175	-0.686109
11060		9.887979	1.562567	2.756596	0.118935	-0.202969	0.223787	-0.624268	-0.503418	0.194824	-0.393858	-0.576568	0.204224	-0.686103
11061		9.846890	1.665478	2.722375	0.080452	-0.292248	0.183422	-0.620605	-0.505127	0.191650	-0.391954	-0.578178	0.205634	-0.685418
11062		9.693761	1.679281	2.505493	0.061811	-0.352472	0.126536	-0.617432	-0.498779	0.197998	-0.390515	-0.580109	0.207199	-0.684135
11063		9.486626	1.590260	2.360469	0.044447	-0.336317	0.085798	-0.621582	-0.490967	0.211670	-0.389352	-0.581983	0.208556	-0.682791
11064		9.434596	1.475665	2.219104	0.012558	-0.284518	0.058629	-0.626709	-0.498047	0.208740	-0.388361	-0.583582	0.209610	-0.681668
11065		9.326587	1.504678	2.127898	-0.001682	-0.237419	0.048899	-0.615967	-0.492432	0.212891	-0.387711	-0.584811	0.210676	-0.680655
11066		9.328474	1.427769	1.953403	-0.014590	-0.246190	0.050399	-0.619629	-0.489502	0.219482	-0.387067	-0.586085	0.211796	-0.679578
11067		9.580823	1.349494	1.789494	-0.027977	-0.177797	0.042086	-0.623047	-0.502197	0.220459	-0.386558	-0.586967	0.212658	-0.678836
11068		9.647890	1.333696	1.802593	-0.023339	-0.102851	0.034729	-0.611328	-0.500244	0.218262	-0.386309	-0.587434	0.213285	-0.678377
11069		9.670432	1.406262	1.874710	-0.007911	-0.052845	0.040362	-0.608154	-0.494629	0.219238	-0.386114	-0.587659	0.213727	-0.678155
11070		9.639686	1.368684	2.005056	0.010345	-0.040231	0.051694	-0.613525	-0.489258	0.218262	-0.385746	-0.587863	0.214051	-0.678085
11071		9.692533	1.311666	1.970243	-0.006651	-0.044632	0.063704	-0.611572	-0.494873	0.213867	-0.385347	-0.587992	0.214549	-0.678042
11072		9.673357	1.333878	2.001245	-0.029430	-0.007504	0.067633	-0.611084	-0.493896	0.218994	-0.385233	-0.587793	0.215177	-0.678081
11073		9.604507	1.445567	2.025221	-0.035075	0.014864	0.071092	-0.612061	-0.491455	0.212646	-0.385094	-0.587490	0.215701	-0.678256
11074		9.614409	1.451291	2.093562	-0.026543	0.051838	0.070589	-0.614258	-0.491455	0.214111	-0.385041	-0.586956	0.216133	-0.678611
11075		9.537699	1.396800	2.142497	-0.016550	0.084118	0.065909	-0.617920	-0.495117	0.217773	-0.384995	-0.586294	0.216353	-0.679139
11076		9.550376	1.395186	2.146967	-0.008823	0.114339	0.058286	-0.615967	-0.493408	0.205811	-0.384984	-0.585526	0.216360	-0.679805
11077		9.568051	1.392749	2.217709	-0.005413	0.141449	0.047312	-0.607910	-0.497314	0.211670	-0.385195	-0.584556	0.216340	-0.680527
11078		9.576984	1.351811	2.268815	0.004909	0.140940	0.039791	-0.614990	-0.489502	0.205078	-0.385385	-0.583711	0.216153	-0.681203
11079		9.570931	1.303588	2.330070	0.012718	0.126431	0.034052	-0.624512	-0.490479	0.214111	-0.385495	-0.582935	0.215958	-0.681867
11080		9.479245	1.322308	2.325357	0.024131	0.095438	0.034551	-0.618164	-0.484619	0.204834	-0.385370	-0.582425	0.215693	-0.682457
11081		9.400692	1.329164	2.304219	0.037649	0.077750	0.041498	-0.618408	-0.489258	0.209961	-0.385152	-0.582006	0.215497	-0.682999
11082		9.320942	1.397250	2.324938	0.049947	0.071907	0.050784	-0.614014	-0.478760	0.212402	-0.384818	-0.581679	0.215269	-0.683538
11083		9.285042	1.458290	2.340096	0.059381	0.066599	0.061072	-0.622070	-0.484375	0.199707	-0.384235	-0.581441	0.214946	-0.684170
11084		9.243971	1.477770	2.351939	0.061405	0.046145	0.062111	-0.626709	-0.483643	0.211426	-0.383784	-0.581201	0.214876	-0.684648
11085		9.239289	1.483905	2.283316	0.058375	0.016005	0.055517	-0.629395	-0.488525	0.207031	-0.383202	-0.581213	0.214759	-0.685001
11086		9.306812	1.437631	2.266148	0.046075	0.008213	0.041738	-0.624512	-0.491455	0.211182	-0.382855	-0.581206	0.214768	-0.685199
11087		9.409605	1.472750	2.185728	0.022940	0.003419	0.026589	-0.622559	-0.482666	0.215332	-0.382723	-0.581214	0.214837	-0.685244
11088		9.518738	1.434387	2.133709	-0.001865	0.005404	0.010846	-0.621826	-0.484619	0.211182	-0.382665	-0.581207	0.214854	-0.685276
11089		9.731442	1.407041	1.907063	0.017708	0.010659	0.004322	-0.622314	-0.484375	0.205566	-0.382626	-0.581214	0.214771	-0.685319
11090		9.945358	1.293668	1.849418	0.036703	0.079087	-0.002575	-0.614258	-0.487549	0.210693	-0.382705	-0.580860	0.214384	-0.685695
11091		10.086142	1.304045	1.968336	0.033867	0.129976	-0.011749	-0.619385	-0.485596	0.209717	-0.382959	-0.580278	0.213777	-0.686235
11092		9.945199	1.324700	2.108066	0.001352	0.158594	-0.018793	-0.617920	-0.477783	0.204590	-0.383420	-0.579432	0.213216	-0.686867
11093		9.586564	1.365998	2.274560	-0.010353	0.108932	-0.020904	-0.622070	-0.487793	0.200439	-0.383783	-0.578831	0.212830	-0.687291
11094		9.300978	1.368411	2.288763	-0.009040	0.045549	-0.023436	-0.628662	-0.483643	0.209961	-0.384190	-0.578552	0.212745	-0.687324
11095		9.146089	1.385179	2.212178	-0.016081	0.007327	-0.023543	-0.615723	-0.485352	0.202393	-0.384401	-0.578531	0.212693	-0.687240
11096		9.076803	1.314004	2.238857	-0.021259	0.026639	-0.027900	-0.619629	-0.483154	0.201904	-0.384812	-0.578369	0.212663	-0.687156
11097		9.035949	1.289513	2.360882	-0.013814	0.042152	-0.032613	-0.615234	-0.487305	0.204346	-0.385192	-0.578145	0.212495	-0.687184
11098		9.035867	1.271152	2.427473	0.007520	0.025105	-0.025333	-0.624268	-0.484375	0.203369	-0.385442	-0.578096	0.212303	-0.687144
11099		9.150470	1.280852	2.377794	0.019489	-0.012247	-0.023164	-0.628174	-0.490967	0.208984	-0.385487	-0.578274	0.212153	-0.687016
11100		9.343102	1.206222	2.326701	0.023651	-0.011521	-0.020773	-0.624023	-0.486572	0.204590	-0.385543	-0.578468	0.212009	-0.686865
11101		9.432751	1.196589	2.360005	0.037016	0.008853	-0.014977	-0.628174	-0.487793	0.203369	-0.385516	-0.578565	0.211744	-0.686880
11102		9.528440	1.237712	2.386446	0.053490	0.022179	-0.001646	-0.625244	-0.482422	0.204102	-0.385371	-0.578593	0.211432	-0.687034
11103		9.594208	1.248841	2.469430	0.067167	0.052759	0.014883	-0.623535	-0.484619	0.212646	-0.385046	-0.578483	0.210965	-0.687452
11104		9.584201	1.248030	2.560501	0.084317	0.058541	0.029211	-0.620850	-0.491211	0.198975	-0.384553	-0.578424	0.210410	-0.687947
11105		9.472561	1.250281	2.668655	0.090740	0.042394	0.034257	-0.629883	-0.484375	0.207520	-0.384185	-0.578370	0.210074	-0.688301
11106		9.310081	1.355492	2.687276	0.085098	0.027441	0.035694	-0.618896	-0.480469	0.210693	-0.383634	-0.578427	0.209702	-0.688675
11107		9.193715	1.486057	2.669959	0.064346	0.017987	0.029018	-0.627441	-0.478760	0.194092	-0.383169	-0.578536	0.209389	-0.688936
11108		9.126373	1.546856	2.646962	0.042359	0.020908	0.023385	-0.633545	-0.477539	0.210938	-0.382913	-0.578440	0.209281	-0.689192
11109		9.148487	1.594097	2.659785	0.023591	0.028547	0.017608	-0.634277	-0.480469	0.207275	-0.382655	-0.578346	0.209096	-0.689471
11110		9.147135	1.582429	2.672780	0.012264	0.014494	0.008189	-0.629395	-0.474365	0.208740	-0.382554	-0.578281	0.209036	-0.689600
11111		9.224140	1.519140	2.634571	0.005349	-0.010278	-0.000175	-0.631592	-0.486328	0.208252	-0.382402	-0.578387	0.208978	-0.689612
11112		9.253339	1.410957	2.626818	-0.003104	-0.029306	-0.006788	-0.625732	-0.478516	0.210449	-0.382481	-0.578550	0.209127	-0.689387
11113		9.305266	1.362804	2.595067	-0.010257	-0.051478	-0.006276	-0.625977	-0.478760	0.210205	-0.382434	-0.578860	0.209292	-0.689102
