// Start Time: Unknown
// Update Rate: 60.0Hz
// Filter Profile: human (46.1)
// Firmware Version: 4.6.0
PacketCounter	SampleTimeFine	Acc_X	Acc_Y	Acc_Z	Gyr_X	Gyr_Y	Gyr_Z	Mag_X	Mag_Y	Mag_Z	Quat_q0	Quat_q1	Quat_q2	Quat_q3
13074		9.682208	-0.002387	-1.273142	-0.026176	0.030997	0.030873	-0.803467	-0.243896	-0.194336	0.622998	0.246059	-0.710471	0.215777
13075		9.707862	0.017189	-1.394402	-0.003236	-0.001911	0.034360	-0.802246	-0.247559	-0.197754	0.622932	0.245842	-0.710557	0.215932
13076		9.806373	0.119072	-1.278181	0.000358	0.002345	0.035751	-0.804932	-0.247070	-0.203125	0.622885	0.245631	-0.710613	0.216122
13077		9.919277	0.334924	-1.151563	-0.003847	0.003997	0.033745	-0.818848	-0.242920	-0.202881	0.622856	0.245405	-0.710668	0.216281
13078		9.911435	0.294055	-1.201671	-0.043286	0.019912	0.032911	-0.808350	-0.240234	-0.201904	0.623009	0.244955	-0.710705	0.216230
13079		9.754381	0.055061	-1.225424	-0.083706	0.020738	0.023181	-0.811523	-0.240967	-0.194824	0.623271	0.244358	-0.710786	0.215883
13080		9.675352	-0.165824	-1.207613	-0.082546	0.022069	0.020305	-0.802002	-0.233643	-0.203613	0.623546	0.243782	-0.710850	0.215529
13081		9.666048	-0.260748	-1.200384	-0.058548	0.026997	0.018359	-0.807617	-0.243408	-0.197510	0.623805	0.243328	-0.710841	0.215324
13082		9.734177	-0.293402	-1.158078	-0.011866	0.014952	0.011032	-0.809570	-0.244141	-0.206055	0.623909	0.243172	-0.710796	0.215345
13083		9.825537	-0.407812	-1.265243	0.053219	0.017089	0.006501	-0.808105	-0.232422	-0.202637	0.623903	0.243363	-0.710614	0.215747
13084		9.842796	-0.377445	-1.333617	0.101073	-0.005296	-0.001968	-0.811523	-0.242432	-0.196289	0.623675	0.243875	-0.710451	0.216364
13085		9.689686	-0.252253	-1.381718	0.176666	-0.025293	-0.014340	-0.808838	-0.242188	-0.204346	0.623186	0.244872	-0.710239	0.217342
13086		9.658337	-0.249671	-1.352588	0.220932	-0.051899	-0.016117	-0.809082	-0.242188	-0.195312	0.622437	0.246148	-0.710090	0.218528
13087		9.789049	-0.184394	-1.322052	0.248734	-0.059467	-0.007612	-0.812500	-0.242432	-0.198242	0.621558	0.247523	-0.709954	0.219917
13088		9.736806	-0.082750	-1.334938	0.234715	-0.053897	0.000751	-0.808105	-0.240967	-0.198730	0.620718	0.248756	-0.709833	0.221283
13089		9.682075	-0.140266	-1.338251	0.206776	-0.037918	0.009284	-0.813232	-0.235107	-0.197021	0.620011	0.249769	-0.709698	0.222555
13090		9.651189	-0.234910	-1.338598	0.192756	-0.042541	0.009048	-0.809570	-0.248047	-0.194580	0.619300	0.250712	-0.709615	0.223738
13091		9.741902	-0.254735	-1.406852	0.229153	-0.072618	0.012304	-0.808350	-0.254395	-0.191895	0.618317	0.251879	-0.709628	0.225097
13092		9.849364	-0.153673	-1.340059	0.295020	-0.086294	0.010788	-0.810791	-0.244385	-0.187744	0.617103	0.253417	-0.709590	0.226817
13093		9.792759	-0.069906	-1.464157	0.316228	-0.060094	0.007363	-0.815674	-0.247559	-0.185547	0.616006	0.255026	-0.709362	0.228701
13094		9.682430	0.055941	-1.553449	0.298681	-0.047074	0.004423	-0.811035	-0.240967	-0.187256	0.615010	0.256532	-0.709104	0.230491
13095		9.721404	0.091103	-1.732295	0.247752	-0.045709	0.016837	-0.806885	-0.246094	-0.182617	0.614115	0.257730	-0.708955	0.231996
13096		9.822803	0.155366	-1.533367	0.179556	-0.047838	0.026582	-0.804443	-0.247314	-0.176025	0.613312	0.258577	-0.708975	0.233111
13097		9.752197	0.114652	-1.361735	0.123647	-0.063386	0.032428	-0.808838	-0.248291	-0.175537	0.612527	0.259177	-0.709185	0.233870
13098		9.743309	-0.028281	-1.241824	0.170188	-0.055744	0.021992	-0.810791	-0.250977	-0.184326	0.611708	0.260058	-0.709243	0.234855
13099		9.735658	-0.213947	-1.203565	0.254760	-0.037930	0.052625	-0.814453	-0.243652	-0.178711	0.610775	0.261135	-0.709100	0.236517
13100		9.799479	-0.117480	-1.498560	0.258410	-0.065020	0.079346	-0.806641	-0.243896	-0.167480	0.609627	0.262096	-0.709139	0.238292
13101		9.891613	0.005118	-1.654884	0.244970	-0.082705	0.071885	-0.823486	-0.250000	-0.168457	0.608427	0.263111	-0.709249	0.239907
13102		10.013231	0.146925	-1.387647	0.217465	-0.059006	0.071230	-0.811035	-0.250488	-0.173096	0.607355	0.263947	-0.709347	0.241409
13103		10.164159	0.243337	-1.536697	0.174032	-0.042320	0.077511	-0.821289	-0.245605	-0.167236	0.606547	0.264519	-0.709393	0.242677
13104		10.158053	0.064810	-1.569897	0.156935	-0.033351	0.064545	-0.807129	-0.240479	-0.167725	0.605822	0.265077	-0.709429	0.243770
13105		10.172051	-0.118471	-1.507623	0.184200	-0.031071	0.040894	-0.814941	-0.243164	-0.158203	0.605174	0.265894	-0.709297	0.244874
13106		10.225646	-0.268938	-1.334954	0.216509	-0.021965	0.020282	-0.815430	-0.247314	-0.157959	0.604494	0.267012	-0.709035	0.246092
13107		9.884199	-0.323004	-1.446043	0.271334	-0.002336	0.002200	-0.810059	-0.245117	-0.168457	0.603854	0.268481	-0.708500	0.247599
13108		9.502871	-0.508851	-1.405836	0.310531	-0.027577	-0.000155	-0.815674	-0.248291	-0.159668	0.603034	0.270145	-0.707974	0.249290
13109		9.429259	-0.596449	-1.651910	0.347375	-0.042401	0.023078	-0.814453	-0.244873	-0.163330	0.601938	0.271909	-0.707522	0.251294
13110		9.385484	-0.474518	-1.544637	0.363766	-0.050990	0.041895	-0.815430	-0.240967	-0.151611	0.600709	0.273598	-0.707130	0.253496
13111		9.460144	-0.350175	-1.351068	0.340164	-0.053580	0.062126	-0.815186	-0.258057	-0.161133	0.599421	0.275027	-0.706893	0.255649
13112		9.676739	-0.119677	-1.336846	0.335213	-0.025400	0.087528	-0.815186	-0.247070	-0.148438	0.598309	0.276323	-0.706478	0.257992
13113		9.841620	0.202655	-1.421515	0.273005	0.009601	0.079038	-0.818359	-0.246826	-0.155273	0.597530	0.277222	-0.706057	0.259979
13114		9.698810	0.070990	-1.254049	0.154332	0.061566	0.061304	-0.818848	-0.244873	-0.156006	0.597408	0.277538	-0.705554	0.261284
13115		9.680185	0.017606	-1.109730	0.038690	0.103650	0.061795	-0.814453	-0.246826	-0.153076	0.597823	0.277182	-0.705079	0.261994
13116		9.645809	-0.149114	-1.381404	0.006514	0.130449	0.075079	-0.813477	-0.247314	-0.149414	0.598463	0.276559	-0.704545	0.262628
13117		9.645998	-0.350559	-1.423696	-0.011392	0.134984	0.068930	-0.816406	-0.243652	-0.161377	0.599163	0.275900	-0.704026	0.263118
13118		9.739464	-0.562605	-1.506282	0.026952	0.135538	0.062023	-0.820557	-0.240967	-0.158936	0.599827	0.275428	-0.703378	0.263830
13119		9.701914	-0.557342	-1.322613	0.046492	0.126837	0.050747	-0.819580	-0.238770	-0.157471	0.600368	0.275134	-0.702747	0.264585
13120		9.735028	-0.534080	-1.442415	0.071286	0.114939	0.062864	-0.816162	-0.241699	-0.154541	0.600736	0.274890	-0.702173	0.265526
13121		9.637353	-0.559697	-1.368575	0.088828	0.117306	0.067884	-0.821777	-0.243896	-0.159424	0.601045	0.274727	-0.701570	0.266590
13122		9.542335	-0.482129	-1.233732	0.082555	0.104006	0.070547	-0.816895	-0.236572	-0.157471	0.601285	0.274583	-0.701028	0.267618
13123		9.528867	-0.472903	-1.276056	0.061349	0.083750	0.079780	-0.814453	-0.234375	-0.166992	0.601422	0.274230	-0.700702	0.268527
13124		9.634380	-0.550784	-1.418244	0.049301	0.074122	0.084198	-0.818604	-0.232910	-0.162354	0.601580	0.273765	-0.700414	0.269397
13125		9.644650	-0.609374	-1.358943	0.057194	0.074323	0.071874	-0.820312	-0.239502	-0.162109	0.601688	0.273434	-0.700124	0.270244
13126		9.611469	-0.613909	-1.169227	0.114511	0.062793	0.047637	-0.822266	-0.237793	-0.170410	0.601641	0.273652	-0.699681	0.271271
13127		9.617215	-0.521090	-1.189517	0.152756	0.069606	0.028717	-0.813965	-0.232422	-0.172363	0.601641	0.274112	-0.699035	0.272473
13128		9.599964	-0.396566	-1.258970	0.129690	0.069370	0.019790	-0.814209	-0.230713	-0.162109	0.601746	0.274403	-0.698428	0.273500
13129		9.613369	-0.342110	-1.139361	0.075619	0.063002	0.019071	-0.816650	-0.238281	-0.164307	0.601847	0.274468	-0.698051	0.274175
13130		9.597016	-0.299893	-1.236826	0.031404	0.053172	0.024301	-0.818115	-0.240234	-0.166016	0.602001	0.274410	-0.697781	0.274584
13131		9.671727	-0.440524	-1.280368	-0.004862	0.045242	0.019742	-0.814453	-0.237549	-0.168701	0.602211	0.274248	-0.697604	0.274734
13132		9.702107	-0.705734	-1.261991	0.011603	0.045512	0.011773	-0.810791	-0.233643	-0.167969	0.602428	0.274165	-0.697367	0.274940
13133		9.567462	-0.765422	-1.148426	0.064891	0.037245	-0.001585	-0.810547	-0.237793	-0.162354	0.602497	0.274384	-0.697050	0.275377
13134		9.542297	-0.470718	-1.006845	0.086166	0.017515	-0.004426	-0.811523	-0.231689	-0.170166	0.602352	0.274859	-0.696791	0.275874
13135		9.627805	-0.204357	-1.221025	0.080901	0.020272	0.003913	-0.813477	-0.237793	-0.163086	0.602291	0.275107	-0.696534	0.276411
13136		9.657766	-0.131884	-1.227225	0.021780	0.009616	0.002459	-0.823975	-0.238770	-0.163086	0.602234	0.275247	-0.696472	0.276552
13137		9.720795	-0.209067	-1.117992	-0.029317	0.016032	0.010041	-0.813721	-0.236328	-0.167480	0.602280	0.275110	-0.696524	0.276455
13138		9.673892	-0.261909	-1.045229	-0.065437	0.028575	0.021584	-0.811279	-0.233154	-0.161621	0.602541	0.274621	-0.696586	0.276217
13139		9.680775	-0.227121	-0.942388	-0.092725	0.043610	0.031718	-0.825928	-0.231689	-0.164307	0.602868	0.273901	-0.696713	0.275898
13140		9.828314	-0.101857	-0.822376	-0.137604	0.035001	0.056737	-0.817627	-0.235596	-0.172363	0.603161	0.272824	-0.697059	0.275451
13141		9.856644	-0.187772	-0.967456	-0.202124	0.034775	0.077505	-0.807129	-0.235107	-0.177002	0.603682	0.271339	-0.697480	0.274709
13142		9.845827	-0.370090	-0.995784	-0.265029	0.055608	0.080010	-0.824219	-0.236084	-0.185059	0.604548	0.269461	-0.697879	0.273636
13143		9.784138	-0.445799	-0.921311	-0.281235	0.068399	0.086053	-0.818848	-0.231201	-0.171143	0.605519	0.267469	-0.698224	0.272562
13144		9.842823	-0.524399	-0.941789	-0.304882	0.067802	0.107653	-0.821777	-0.223877	-0.170898	0.606323	0.265268	-0.698805	0.271434
13145		9.916689	-0.552816	-1.015817	-0.334899	0.068384	0.122273	-0.811768	-0.220703	-0.177734	0.607121	0.262746	-0.699536	0.270218
13146		9.919084	-0.677490	-0.986642	-0.355616	0.068196	0.131581	-0.818604	-0.215820	-0.188721	0.608028	0.260008	-0.700272	0.268919
13147		9.967009	-0.891327	-1.129426	-0.349852	0.066486	0.138499	-0.819580	-0.213867	-0.183350	0.608966	0.257177	-0.700961	0.267718
13148		9.925242	-1.157874	-1.295640	-0.288725	0.066901	0.121647	-0.820312	-0.215576	-0.184814	0.609710	0.254815	-0.701532	0.266787
13149		9.849363	-1.376542	-1.364604	-0.169015	0.068882	0.090671	-0.817871	-0.223877	-0.182617	0.610266	0.253311	-0.701740	0.266401
13150		9.689522	-1.336985	-1.317887	-0.063956	0.063696	0.062184	-0.814453	-0.212158	-0.192383	0.610599	0.252713	-0.701648	0.266450
13151		9.588011	-1.280322	-1.273747	0.038355	0.039237	0.051593	-0.811768	-0.216309	-0.189453	0.610687	0.252478	-0.701432	0.267038
13152		9.580872	-1.094545	-1.387502	0.110289	0.010233	0.052840	-0.823486	-0.209473	-0.195557	0.610417	0.252766	-0.701205	0.267977
13153		9.583624	-1.062938	-1.464984	0.153214	-0.014062	0.045342	-0.814697	-0.210938	-0.187744	0.609949	0.253214	-0.701009	0.269132
13154		9.538062	-1.193501	-1.458542	0.168227	-0.025621	0.032242	-0.815674	-0.207520	-0.183105	0.609344	0.253904	-0.700854	0.270253
13155		9.462488	-1.223717	-1.347797	0.220038	-0.035698	0.022009	-0.817627	-0.210449	-0.187744	0.608526	0.254896	-0.700677	0.271616
13156		9.496674	-0.893669	-1.212117	0.294714	-0.064330	0.027439	-0.817871	-0.215576	-0.189941	0.607437	0.256299	-0.700422	0.273385
13157		9.532761	-0.661019	-1.289765	0.304946	-0.074992	0.029635	-0.813477	-0.206299	-0.188721	0.606317	0.257819	-0.700131	0.275185
13158		9.516980	-0.731325	-1.383811	0.278091	-0.086062	0.019396	-0.833008	-0.212158	-0.178467	0.605221	0.259087	-0.699988	0.276763
13159		9.549179	-0.671760	-1.224320	0.294175	-0.111806	0.013240	-0.818359	-0.219238	-0.185303	0.603775	0.260710	-0.699997	0.278373
13160		9.625166	-0.415310	-1.071525	0.278617	-0.127000	0.007794	-0.815674	-0.211182	-0.168213	0.602482	0.262355	-0.699942	0.279760
13161		9.552178	-0.371612	-1.129844	0.231669	-0.098369	0.004990	-0.821777	-0.215820	-0.166748	0.601253	0.263706	-0.700009	0.280965
13162		9.628467	-0.366176	-1.147221	0.168181	-0.099206	0.005013	-0.824951	-0.217285	-0.175537	0.600159	0.264812	-0.700199	0.281787
13163		9.706673	-0.268860	-1.096242	0.097473	-0.088300	0.019035	-0.823975	-0.213623	-0.163574	0.599407	0.265358	-0.700445	0.282263
13164		9.707897	-0.256655	-1.049251	0.011581	-0.092092	0.033914	-0.822998	-0.218750	-0.165283	0.598638	0.265449	-0.701042	0.282328
13165		9.780167	-0.423920	-1.092516	-0.045055	-0.097262	0.047361	-0.821045	-0.214111	-0.167480	0.597998	0.265275	-0.701752	0.282086
13166		9.790306	-0.473868	-1.204547	-0.075955	-0.082743	0.054314	-0.822754	-0.212402	-0.170410	0.597553	0.264760	-0.702470	0.281724
13167		9.792915	-0.664398	-1.320881	-0.078031	-0.082193	0.049241	-0.821289	-0.212646	-0.162109	0.597180	0.264206	-0.703158	0.281317
13168		9.838757	-0.765165	-1.324493	-0.074506	-0.077290	0.032663	-0.819336	-0.211914	-0.165527	0.596763	0.263869	-0.703818	0.280868
13169		9.836107	-0.838953	-1.251041	-0.056719	-0.072279	0.008244	-0.821045	-0.212402	-0.164795	0.596466	0.263703	-0.704320	0.280398
13170		9.843209	-0.806325	-1.232710	-0.035295	-0.050768	-0.005678	-0.824707	-0.211182	-0.159180	0.596277	0.263687	-0.704631	0.280034
13171		9.845193	-0.718273	-1.241261	-0.010594	-0.051710	-0.006127	-0.821777	-0.213867	-0.153076	0.595939	0.263826	-0.704944	0.279833
13172		9.776690	-0.810851	-1.355099	-0.015221	-0.041259	-0.009158	-0.827881	-0.211914	-0.159180	0.595615	0.264057	-0.705218	0.279614
13173		9.726054	-0.903826	-1.279714	-0.033906	-0.033897	-0.010459	-0.819336	-0.212158	-0.161621	0.595458	0.264054	-0.705479	0.279293
13174		9.776733	-0.794844	-1.255379	-0.025081	-0.031079	-0.003881	-0.819336	-0.218994	-0.155762	0.595357	0.264031	-0.705672	0.279043
13175		9.744805	-0.751159	-1.231609	-0.022133	-0.021986	0.002558	-0.813232	-0.212646	-0.153564	0.595212	0.264174	-0.705811	0.278865
13176		9.781227	-0.853382	-1.302750	-0.024538	-0.010725	-0.000887	-0.820068	-0.209717	-0.160156	0.595138	0.264184	-0.705943	0.278679
13177		9.718877	-1.000770	-1.381853	0.000342	-0.009012	-0.012362	-0.830566	-0.216797	-0.154541	0.595121	0.264231	-0.705975	0.278590
13178		9.725198	-0.971026	-1.303836	0.038602	-0.013748	-0.029983	-0.820068	-0.202637	-0.162109	0.594914	0.264784	-0.705916	0.278656
13179		9.758716	-0.809980	-1.287376	0.074646	-0.005691	-0.029997	-0.828125	-0.207031	-0.155273	0.594829	0.265081	-0.705771	0.278924
13180		9.776577	-0.706290	-1.284675	0.074094	-0.000288	-0.022712	-0.819580	-0.212402	-0.156982	0.594631	0.265480	-0.705651	0.279270
13181		9.767507	-0.661134	-1.306605	0.051036	-0.010228	-0.027357	-0.827637	-0.209229	-0.157959	0.594502	0.265919	-0.705539	0.279411
13182		9.736292	-0.654079	-1.318500	0.055067	-0.025837	-0.031099	-0.819336	-0.207275	-0.158691	0.594271	0.266325	-0.705531	0.279534
13183		9.705274	-0.686593	-1.368978	0.071065	-0.021618	-0.032456	-0.823730	-0.212158	-0.151367	0.594082	0.266752	-0.705449	0.279736
13184		9.687139	-0.659126	-1.191683	0.061709	-0.020817	-0.037306	-0.831787	-0.212158	-0.146729	0.593808	0.267346	-0.705392	0.279893
13185		9.720966	-0.615809	-1.291055	0.069590	-0.017264	-0.041560	-0.824951	-0.213379	-0.153076	0.593460	0.268021	-0.705342	0.280112
13186		9.755634	-0.601207	-1.291564	0.050083	-0.024808	-0.044564	-0.823242	-0.213867	-0.150146	0.593255	0.268561	-0.705298	0.280142
13187		9.818645	-0.559470	-1.263230	0.061083	-0.019465	-0.046155	-0.826660	-0.217773	-0.159912	0.593030	0.269186	-0.705207	0.280246
13188		9.898140	-0.413739	-1.138643	0.052987	-0.009163	-0.040258	-0.823242	-0.212158	-0.145996	0.593024	0.269633	-0.705014	0.280314
13189		9.918635	-0.376403	-1.194710	0.019168	0.003507	-0.041881	-0.826660	-0.214600	-0.150146	0.592968	0.269954	-0.704959	0.280261
13190		9.952199	-0.404376	-1.177163	-0.017650	0.024888	-0.048461	-0.822998	-0.216309	-0.153564	0.593198	0.270058	-0.704834	0.279989
13191		9.937312	-0.367021	-1.041703	-0.058665	0.051357	-0.049068	-0.822021	-0.213135	-0.157959	0.593741	0.269891	-0.704632	0.279509
13192		10.007414	-0.299343	-0.989332	-0.095846	0.076065	-0.051741	-0.818115	-0.215332	-0.159668	0.594578	0.269368	-0.704394	0.278832
13193		10.112985	-0.266767	-1.035622	-0.126513	0.110627	-0.051975	-0.819824	-0.222656	-0.155029	0.595707	0.268660	-0.704022	0.278042
13194		10.071393	-0.418034	-1.016141	-0.175513	0.136124	-0.050243	-0.821289	-0.218262	-0.163330	0.596982	0.267893	-0.703619	0.277068
13195		10.135188	-0.463285	-1.027968	-0.225302	0.175295	-0.034716	-0.826904	-0.214844	-0.161377	0.598646	0.266501	-0.703178	0.275936
13196		10.176855	-0.197210	-1.008592	-0.296655	0.238706	0.006838	-0.822266	-0.218506	-0.166748	0.600636	0.264363	-0.702742	0.274777
13197		10.316653	-0.164224	-0.901693	-0.379701	0.300366	0.034193	-0.819336	-0.227295	-0.177979	0.603137	0.261596	-0.702179	0.273381
13198		10.323017	-0.393076	-0.822244	-0.480280	0.351399	0.043648	-0.821045	-0.215088	-0.185303	0.606231	0.258276	-0.701473	0.271500
13199		10.246796	-0.382265	-0.490886	-0.569882	0.406856	0.073461	-0.820557	-0.213623	-0.187012	0.609751	0.253976	-0.700812	0.269374
13200		10.251865	-0.271385	-0.447226	-0.658357	0.454560	0.116308	-0.813477	-0.209961	-0.204102	0.613531	0.248965	-0.700194	0.267067
13201		10.363198	-0.077774	-0.523072	-0.790624	0.531634	0.145325	-0.811523	-0.208740	-0.196533	0.618087	0.242819	-0.699420	0.264234
13202		10.432077	-0.066453	-0.457091	-0.950465	0.612161	0.179734	-0.815674	-0.198242	-0.227295	0.623069	0.235749	-0.698684	0.260862
13203		10.345849	-0.241324	-0.250601	-1.054518	0.703076	0.221917	-0.814453	-0.197998	-0.235596	0.628879	0.227335	-0.697626	0.257192
13204		10.392968	-0.515481	-0.066289	-1.145687	0.763938	0.248418	-0.814209	-0.196289	-0.252686	0.635020	0.218316	-0.696395	0.253222
13205		10.301271	-0.805344	-0.160673	-1.192207	0.840650	0.282673	-0.810303	-0.177734	-0.263184	0.641569	0.208736	-0.694760	0.249254
13206		10.295300	-0.943881	0.080136	-1.211034	0.874135	0.325000	-0.808105	-0.166748	-0.281006	0.648086	0.198577	-0.693037	0.245463
13207		10.468977	-1.031646	0.042471	-1.179894	0.901394	0.371371	-0.809570	-0.161621	-0.298340	0.654534	0.188187	-0.691051	0.242116
13208		10.428447	-1.188096	-0.104879	-1.141308	0.952903	0.438579	-0.798828	-0.143311	-0.312988	0.660985	0.177562	-0.688667	0.239391
13209		10.403936	-1.213026	0.154212	-1.069340	0.992140	0.501794	-0.800049	-0.130371	-0.327393	0.667319	0.166761	-0.685918	0.237471
13210		10.606233	-1.413542	-0.058480	-0.991378	1.010877	0.569148	-0.794922	-0.118164	-0.350586	0.673367	0.155943	-0.682926	0.236369
13211		10.113622	-1.685840	-0.008031	-0.734101	1.059614	0.653479	-0.789551	-0.107910	-0.372559	0.679168	0.145944	-0.679079	0.237240
13212		10.129938	-2.063197	0.586789	-0.664081	1.069757	0.645002	-0.780762	-0.101074	-0.382080	0.684927	0.136359	-0.674853	0.238443
13213		10.553828	-2.055713	0.573367	-0.578531	1.079094	0.647779	-0.776611	-0.085693	-0.405273	0.690506	0.127305	-0.670338	0.240087
13214		10.264816	-1.967278	0.741674	-0.395698	1.111564	0.664614	-0.761475	-0.068359	-0.417969	0.695997	0.119064	-0.665137	0.242911
13215		10.418433	-2.071925	1.021699	-0.343214	1.134099	0.657176	-0.762207	-0.065674	-0.427734	0.701462	0.111054	-0.659608	0.246040
13216		10.788927	-1.992400	1.242323	-0.311127	1.180390	0.686994	-0.757324	-0.048340	-0.450195	0.706941	0.103053	-0.653758	0.249432
13217		10.689549	-2.302024	0.870639	-0.107029	1.188519	0.789812	-0.748779	-0.042725	-0.460205	0.711981	0.095601	-0.647394	0.254608
13218		9.817133	-3.103866	1.363907	0.149757	1.174718	0.773770	-0.749023	-0.040039	-0.480957	0.716646	0.089827	-0.640509	0.260955
13219		9.607939	-3.342278	2.022739	0.229131	1.150000	0.711238	-0.729004	-0.031738	-0.493896	0.721187	0.084928	-0.633448	0.267245
13220		10.142218	-2.940557	2.346015	0.206467	1.159768	0.693482	-0.718506	-0.030518	-0.511475	0.725742	0.079949	-0.626246	0.273354
13221		10.740005	-2.473897	2.335687	0.141598	1.216631	0.761512	-0.701416	-0.009766	-0.520996	0.730407	0.074107	-0.618776	0.279517
13222		10.153302	-2.196045	2.104282	0.157748	1.234338	0.777684	-0.702637	-0.003662	-0.537354	0.734893	0.068179	-0.611149	0.285974
13223		9.728343	-2.236839	2.795828	0.065959	1.248657	0.739780	-0.700195	-0.007324	-0.553955	0.739460	0.061828	-0.603611	0.291600
13224		10.246837	-2.473888	2.476053	0.047846	1.234558	0.840249	-0.681396	0.004395	-0.570068	0.743640	0.054912	-0.596184	0.297570
13225		9.015573	-3.168881	2.867387	0.125113	1.240202	0.877341	-0.666504	0.015869	-0.586914	0.747580	0.048270	-0.588438	0.304196
13226		8.895880	-2.789395	3.091819	0.076083	1.276775	0.888364	-0.652832	0.024902	-0.594238	0.751541	0.041158	-0.580506	0.310654
13227		9.470332	-2.372053	3.237181	-0.105565	1.257297	0.973068	-0.637451	0.032227	-0.616211	0.755097	0.032534	-0.573142	0.316669
13228		9.129100	-2.640573	3.158109	-0.238721	1.282397	1.022490	-0.625977	0.049805	-0.632080	0.758549	0.022781	-0.565853	0.322327
13229		8.842857	-3.253781	3.290082	-0.354209	1.319485	1.012296	-0.619141	0.055908	-0.648682	0.762062	0.012228	-0.558555	0.327305
13230		8.702978	-3.640736	3.341093	-0.391286	1.318057	1.012620	-0.596191	0.066162	-0.662354	0.765416	0.001448	-0.551268	0.332025
13231		8.329814	-4.163845	3.395536	-0.365984	1.289692	1.023397	-0.585205	0.091797	-0.677002	0.768449	-0.009144	-0.543985	0.336872
13232		8.153678	-4.381320	3.679737	-0.320023	1.261485	1.035034	-0.566406	0.102051	-0.682129	0.771172	-0.019428	-0.536659	0.341925
13233		8.109537	-4.355319	3.614390	-0.316538	1.232665	1.056101	-0.551025	0.111328	-0.693359	0.773557	-0.029696	-0.529404	0.347073
13234		7.858145	-4.288577	3.720947	-0.346614	1.210821	1.062851	-0.537354	0.123779	-0.708740	0.775668	-0.040118	-0.522278	0.352073
13235		7.582098	-4.338211	3.698915	-0.353349	1.166846	1.069683	-0.518311	0.135986	-0.718506	0.777420	-0.050478	-0.515359	0.357036
13236		7.152848	-5.141217	3.562913	-0.223866	1.081070	1.011831	-0.502197	0.148438	-0.726807	0.778898	-0.059488	-0.508551	0.362154
13237		6.506433	-5.226588	3.698867	0.003851	1.024176	0.919902	-0.484863	0.159180	-0.741211	0.780409	-0.066455	-0.501402	0.367617
13238		6.486638	-4.898579	4.077494	0.111678	0.942252	0.881683	-0.476562	0.163330	-0.743164	0.781655	-0.072307	-0.494416	0.373283
13239		6.327844	-4.362613	4.185906	0.130593	0.909686	0.881889	-0.459717	0.164307	-0.744629	0.782686	-0.077929	-0.487530	0.379004
13240		6.555469	-4.110017	4.065819	0.070715	0.852869	0.869675	-0.446045	0.173340	-0.759521	0.783401	-0.083703	-0.481159	0.384400
13241		6.171669	-4.787491	4.014469	0.124114	0.758918	0.787281	-0.437500	0.179688	-0.770508	0.783967	-0.088490	-0.475244	0.389498
13242		5.675351	-5.100981	4.484240	0.208535	0.679434	0.635784	-0.430176	0.182617	-0.768311	0.784714	-0.091861	-0.469654	0.393968
13243		5.679792	-4.540571	4.671266	0.281353	0.590131	0.576044	-0.413574	0.175537	-0.772949	0.785316	-0.094227	-0.464429	0.398378
13244		5.310722	-4.156022	4.397035	0.314143	0.523575	0.570769	-0.402344	0.169434	-0.781250	0.785664	-0.096130	-0.459508	0.402919
13245		5.455271	-3.447480	4.791623	0.162558	0.464328	0.467637	-0.400879	0.174561	-0.787842	0.785979	-0.098427	-0.455548	0.406233
13246		5.974802	-4.050619	3.942865	0.106933	0.426479	0.469386	-0.391846	0.175781	-0.791992	0.786078	-0.100962	-0.452009	0.409360
13247		4.263356	-4.005648	4.578446	0.152369	0.328793	0.258968	-0.393799	0.175537	-0.790527	0.786548	-0.102070	-0.449126	0.411352
13248		4.737553	-3.288552	4.388557	-0.018511	0.259029	0.172760	-0.390137	0.180908	-0.794189	0.786899	-0.103735	-0.447354	0.412193
13249		5.448215	-3.713576	3.491143	-0.046452	0.200424	0.252304	-0.375977	0.173828	-0.798828	0.786731	-0.105676	-0.445988	0.413499
13250		4.701232	-4.208237	3.809642	-0.099863	0.138896	0.125739	-0.387695	0.175049	-0.796387	0.786719	-0.107280	-0.445321	0.413828
13251		4.659743	-4.043835	4.134821	-0.162073	0.001667	0.016669	-0.382080	0.181396	-0.795898	0.786515	-0.108415	-0.445869	0.413329
13252		5.296694	-4.399924	4.150337	-0.238581	-0.099297	-0.015997	-0.377930	0.187256	-0.794189	0.785977	-0.109583	-0.447369	0.412422
13253		5.403492	-4.568623	3.875864	-0.143171	-0.184529	-0.075947	-0.378662	0.188477	-0.796875	0.785411	-0.109608	-0.449155	0.411552
13254		5.361002	-4.073923	3.500332	-0.083406	-0.263886	-0.156941	-0.388184	0.187012	-0.801025	0.784874	-0.108667	-0.451329	0.410446
13255		5.191912	-4.450217	3.543108	-0.080670	-0.363541	-0.233760	-0.390869	0.185791	-0.789307	0.784219	-0.107075	-0.454215	0.408931
13256		5.384932	-4.923920	4.042776	-0.033986	-0.513343	-0.329317	-0.395996	0.200439	-0.783936	0.783347	-0.104305	-0.458000	0.407092
13257		5.469464	-4.685184	4.104826	0.025986	-0.613262	-0.411064	-0.407959	0.192871	-0.778076	0.782398	-0.100494	-0.462293	0.405018
13258		5.711071	-3.986530	3.776520	-0.000043	-0.661629	-0.469432	-0.419922	0.187012	-0.774902	0.781403	-0.096456	-0.467019	0.402491
13259		5.675575	-4.060892	3.995250	-0.111876	-0.721670	-0.550301	-0.433105	0.188232	-0.768311	0.780313	-0.092624	-0.472554	0.399030
13260		6.398550	-4.310004	4.058785	-0.195675	-0.812580	-0.547185	-0.440186	0.180908	-0.758057	0.778742	-0.089043	-0.478928	0.395297
13261		6.178060	-4.413403	4.140586	-0.251371	-0.869895	-0.582238	-0.446289	0.173828	-0.753418	0.776956	-0.085481	-0.485847	0.391133
13262		6.916953	-4.398092	3.916952	-0.374926	-0.902399	-0.593894	-0.479248	0.177979	-0.742188	0.774920	-0.082555	-0.493342	0.386390
13263		7.112309	-5.465637	3.563823	-0.302715	-0.937963	-0.595104	-0.476074	0.177979	-0.736572	0.772721	-0.079041	-0.500806	0.381901
13264		6.667946	-5.408646	3.955476	-0.165321	-1.014451	-0.676476	-0.494141	0.173096	-0.725830	0.770474	-0.074055	-0.508320	0.377487
13265		6.834677	-4.865131	3.820136	-0.043873	-1.043498	-0.675275	-0.511475	0.170898	-0.714111	0.768090	-0.068195	-0.515589	0.373571
13266		7.758536	-5.118450	3.870170	-0.056960	-1.089528	-0.658920	-0.525879	0.166992	-0.712646	0.765365	-0.062344	-0.523132	0.369679
13267		7.315318	-5.089298	4.019946	-0.027345	-1.066635	-0.742674	-0.540527	0.162598	-0.697510	0.762922	-0.056000	-0.530417	0.365337
13268		7.439652	-4.534179	3.693505	-0.009226	-1.053741	-0.791949	-0.555176	0.158203	-0.688721	0.760604	-0.049363	-0.537530	0.360703
13269		8.149531	-5.027600	3.860750	-0.050296	-1.082490	-0.781169	-0.562500	0.149414	-0.671875	0.758014	-0.042945	-0.544879	0.355917
13270		8.095034	-5.495848	3.507550	0.127886	-1.087203	-0.782357	-0.581055	0.143799	-0.666748	0.755373	-0.035375	-0.551659	0.351898
13271		8.625185	-5.396646	3.859337	0.167321	-1.108709	-0.846129	-0.587646	0.131104	-0.649658	0.752731	-0.027204	-0.558409	0.347614
13272		8.784177	-4.787901	3.257539	0.336183	-1.140871	-0.885555	-0.604736	0.122070	-0.640381	0.749981	-0.017689	-0.564794	0.343837
13273		8.925923	-4.599581	3.438997	0.488002	-1.184724	-0.907681	-0.618164	0.107178	-0.624023	0.746988	-0.007005	-0.570939	0.340572
13274		8.079622	-4.211255	3.062091	0.741089	-1.238376	-0.849801	-0.643311	0.099854	-0.619141	0.743450	0.005131	-0.576598	0.338808
13275		7.967751	-4.009992	3.052585	0.769729	-1.278521	-0.865740	-0.648193	0.071533	-0.592773	0.739614	0.017592	-0.582334	0.336969
13276		8.272177	-3.206177	2.313470	0.764032	-1.199352	-0.810861	-0.669189	0.056396	-0.593262	0.735852	0.029580	-0.587476	0.335439
13277		8.541516	-2.975397	2.846998	0.560520	-1.212306	-0.847783	-0.674316	0.043213	-0.568359	0.732048	0.040530	-0.593141	0.332634
13278		10.186621	-3.012989	2.820021	0.268998	-1.204841	-0.862307	-0.690918	0.037109	-0.560303	0.728298	0.049731	-0.599484	0.328220
13279		10.064796	-2.719740	2.396960	0.343758	-1.155019	-0.816568	-0.706299	0.019531	-0.540039	0.724533	0.058975	-0.605262	0.324394
13280		9.261483	-3.235658	2.129762	0.450013	-1.165428	-0.758340	-0.706299	0.007080	-0.533203	0.720380	0.068621	-0.610769	0.321412
13281		8.717809	-3.071725	2.309712	0.629288	-1.235568	-0.790280	-0.716797	-0.003662	-0.520752	0.715754	0.079686	-0.616053	0.319100
13282		9.092054	-2.649464	2.058172	0.760390	-1.283525	-0.720079	-0.730469	-0.019043	-0.497070	0.710483	0.091251	-0.621216	0.317769
13283		9.838321	-2.811848	2.087816	0.704914	-1.328417	-0.651409	-0.745117	-0.035889	-0.486572	0.704686	0.102235	-0.626760	0.316444
13284		10.721591	-2.690352	0.907669	0.380306	-1.243815	-0.724716	-0.745117	-0.044678	-0.461914	0.699683	0.111481	-0.632469	0.313046
13285		10.437971	-1.858843	1.439777	0.304274	-1.124793	-0.811160	-0.752930	-0.057617	-0.447021	0.695493	0.120393	-0.637532	0.308785
13286		10.164428	-1.718430	1.499483	0.491041	-1.114339	-0.738566	-0.754639	-0.066406	-0.430908	0.690884	0.129966	-0.642034	0.305909
13287		9.077031	-2.727528	1.802097	0.826167	-1.197796	-0.717141	-0.770508	-0.082031	-0.411133	0.685304	0.141512	-0.646092	0.304791
13288		9.542212	-3.069444	1.500846	1.078546	-1.351749	-0.659799	-0.781250	-0.093506	-0.396240	0.678280	0.154558	-0.650352	0.305107
13289		10.330086	-3.057896	0.657243	1.239973	-1.382352	-0.569555	-0.775879	-0.111084	-0.369141	0.670492	0.168009	-0.654343	0.306674
13290		11.236923	-2.156326	-0.472890	1.163886	-1.332890	-0.543347	-0.786377	-0.120850	-0.352295	0.662838	0.180785	-0.658092	0.308022
13291		10.848943	-0.462695	0.058071	0.940178	-1.137033	-0.549963	-0.803223	-0.141602	-0.329590	0.656479	0.191765	-0.661216	0.308310
13292		10.290843	0.583730	0.841164	0.725873	-1.057701	-0.542899	-0.799316	-0.146240	-0.306641	0.650729	0.201412	-0.664360	0.307588
13293		9.810916	-0.287707	1.098605	0.542842	-0.995795	-0.543667	-0.806152	-0.155518	-0.300293	0.645550	0.209858	-0.667574	0.305891
13294		9.947807	-1.613089	0.772276	0.525264	-1.037292	-0.466705	-0.808105	-0.166992	-0.280273	0.639950	0.217833	-0.671082	0.304405
13295		10.226711	-2.206290	0.182520	0.615737	-1.032165	-0.359762	-0.804688	-0.169678	-0.259033	0.633866	0.225712	-0.674423	0.304009
13296		10.397185	-1.583909	0.021609	0.694404	-0.994466	-0.278119	-0.812256	-0.180908	-0.246338	0.627577	0.233417	-0.677442	0.304526
13297		10.454750	-0.600416	-0.373504	0.616398	-0.857857	-0.232069	-0.815918	-0.189941	-0.225830	0.622053	0.240105	-0.679937	0.305098
13298		10.209399	-0.205831	-0.447884	0.418316	-0.693088	-0.243719	-0.820312	-0.190674	-0.216064	0.617845	0.245416	-0.682006	0.304804
13299		10.111088	-0.546695	-0.380484	0.247383	-0.559587	-0.261161	-0.824707	-0.193604	-0.213867	0.614779	0.249575	-0.683759	0.303699
13300		10.380761	-1.049685	-0.167344	0.143393	-0.481247	-0.268840	-0.815186	-0.199951	-0.200684	0.612387	0.253036	-0.685332	0.302117
13301		10.581070	-1.608526	-0.001943	0.177821	-0.448704	-0.250697	-0.810303	-0.196777	-0.196533	0.610050	0.256491	-0.686672	0.300887
13302		10.660540	-1.714487	-0.445032	0.371526	-0.380049	-0.224466	-0.820557	-0.205322	-0.201904	0.607616	0.260596	-0.687216	0.301043
13303		10.252920	-1.390204	-0.663496	0.541328	-0.347888	-0.217102	-0.821533	-0.206299	-0.187012	0.604965	0.265429	-0.687165	0.302272
13304		10.355482	-0.580818	-0.796474	0.504488	-0.324908	-0.246242	-0.815430	-0.212158	-0.179688	0.602577	0.270180	-0.687009	0.303188
13305		10.158820	-0.695533	-0.535089	0.436182	-0.269549	-0.270454	-0.819336	-0.214844	-0.173584	0.600707	0.274582	-0.686672	0.303706
13306		9.829606	-0.523507	-0.731055	0.339189	-0.239707	-0.258019	-0.816162	-0.230225	-0.165771	0.599187	0.278345	-0.686446	0.303796
13307		9.974889	-0.352335	-0.630085	0.307212	-0.198710	-0.252154	-0.819824	-0.234375	-0.161133	0.597953	0.281812	-0.686097	0.303817
13308		9.719180	-0.617272	-0.794131	0.267319	-0.142398	-0.249783	-0.811768	-0.229492	-0.157959	0.597123	0.284920	-0.685565	0.303753
13309		9.594828	-0.807901	-0.800543	0.280615	-0.109552	-0.251890	-0.808350	-0.239502	-0.156006	0.596449	0.288016	-0.684822	0.303833
13310		9.911012	-0.407048	-0.728169	0.277990	-0.130699	-0.219360	-0.810303	-0.250244	-0.158936	0.595574	0.290967	-0.684261	0.304002
13311		10.087669	-0.036696	-0.813775	0.192791	-0.103702	-0.182376	-0.822021	-0.242920	-0.157471	0.594965	0.293212	-0.683864	0.303930
13312		10.002891	-0.000470	-0.825151	0.107697	-0.069873	-0.171763	-0.811768	-0.239990	-0.153076	0.594724	0.294887	-0.683538	0.303514
13313		9.885722	-0.094067	-0.818069	0.036355	-0.043446	-0.151873	-0.810059	-0.248291	-0.145020	0.594758	0.296029	-0.683307	0.302855
13314		10.045446	-0.143898	-0.942799	-0.044214	-0.039524	-0.127619	-0.807861	-0.249512	-0.147461	0.594951	0.296630	-0.683319	0.301861
13315		10.085187	-0.381131	-1.067789	-0.088323	-0.022706	-0.116138	-0.808838	-0.253906	-0.148438	0.595322	0.296901	-0.683384	0.300712
13316		9.920918	-0.528402	-0.956532	-0.056893	-0.008976	-0.101030	-0.806885	-0.255615	-0.151123	0.595657	0.297209	-0.683337	0.299850
13317		9.907963	-0.398985	-0.982584	-0.027418	-0.005659	-0.068411	-0.812988	-0.250000	-0.144043	0.595857	0.297467	-0.683281	0.299325
13318		9.950819	-0.256924	-0.986611	-0.080917	0.005394	-0.049308	-0.810303	-0.257324	-0.149170	0.596199	0.297326	-0.683350	0.298624
13319		9.959136	-0.428973	-0.955710	-0.127683	-0.002200	-0.041649	-0.813477	-0.254639	-0.158691	0.596601	0.296926	-0.683590	0.297669
13320		9.880641	-0.390735	-0.943700	-0.152285	0.006085	-0.024407	-0.809814	-0.253662	-0.155273	0.597071	0.296280	-0.683890	0.296681
13321		9.796920	-0.399867	-1.024688	-0.156404	0.016568	-0.003791	-0.806152	-0.248535	-0.154053	0.597556	0.295473	-0.684198	0.295798
13322		9.763194	-0.503745	-1.061199	-0.181133	0.025832	-0.001490	-0.816650	-0.251221	-0.149902	0.598145	0.294506	-0.684525	0.294811
13323		9.752007	-0.557740	-1.094870	-0.167288	0.024500	0.000438	-0.814453	-0.259521	-0.151855	0.598682	0.293606	-0.684830	0.293910
13324		9.775073	-0.591781	-1.084589	-0.154419	0.012517	0.004641	-0.809570	-0.254150	-0.158203	0.599114	0.292776	-0.685171	0.293063
13325		9.672911	-0.597484	-1.192016	-0.149067	0.019480	0.009585	-0.814941	-0.247803	-0.148926	0.599563	0.291920	-0.685472	0.292291
13326		9.617699	-0.432218	-1.018727	-0.152028	0.013985	0.014434	-0.812988	-0.248779	-0.159424	0.599962	0.291040	-0.685824	0.291524
13327		9.703459	-0.348841	-1.237677	-0.173040	0.015780	0.028112	-0.808105	-0.248779	-0.157715	0.600401	0.289963	-0.686245	0.290702
13328		9.738673	-0.685490	-1.214628	-0.155100	0.008594	0.022299	-0.812744	-0.253418	-0.159424	0.600767	0.289030	-0.686644	0.289932
13329		9.651787	-0.785947	-1.241598	-0.104766	0.010922	0.005634	-0.806152	-0.245117	-0.157715	0.601065	0.288441	-0.686869	0.289367
13330		9.688261	-0.546529	-1.245503	-0.055408	0.000123	-0.003842	-0.812744	-0.256104	-0.159912	0.601201	0.288176	-0.687008	0.289020
13331		9.703068	-0.476259	-1.217962	-0.039198	-0.020346	-0.005854	-0.806885	-0.246826	-0.166260	0.601190	0.288057	-0.687204	0.288695
13332		9.733435	-0.370728	-1.131373	-0.051996	-0.038842	-0.002684	-0.811768	-0.245850	-0.160400	0.601101	0.287887	-0.687529	0.288275
13333		9.789522	-0.309784	-1.131587	-0.066167	-0.039485	0.004226	-0.814209	-0.248535	-0.156738	0.601016	0.287616	-0.687910	0.287813
13334		9.758877	-0.340112	-1.115252	-0.092534	-0.025122	0.003206	-0.812500	-0.250488	-0.164795	0.601074	0.287191	-0.688282	0.287227
13335		9.722257	-0.369119	-1.182836	-0.112549	-0.021477	0.004245	-0.807861	-0.249512	-0.155273	0.601213	0.286641	-0.688680	0.286530
13336		9.680195	-0.445302	-1.159958	-0.124238	-0.022773	-0.000031	-0.806641	-0.251953	-0.157471	0.601368	0.286074	-0.689107	0.285744
13337		9.727136	-0.481227	-1.232365	-0.112502	-0.033160	0.009213	-0.810547	-0.251953	-0.162109	0.601419	0.285535	-0.689577	0.285041
13338		9.771971	-0.553496	-1.221986	-0.100919	-0.020356	0.001330	-0.811523	-0.248291	-0.154297	0.601540	0.285061	-0.689935	0.284394
13339		9.744219	-0.614673	-1.197423	-0.083921	-0.018416	-0.004877	-0.808594	-0.245361	-0.164307	0.601629	0.284714	-0.690232	0.283831
13340		9.776269	-0.526475	-1.219650	-0.068418	-0.019757	-0.002333	-0.819092	-0.240479	-0.156250	0.601686	0.284412	-0.690499	0.283364
13341		9.794870	-0.513399	-1.111569	-0.082129	-0.022832	0.003506	-0.813965	-0.251465	-0.164795	0.601717	0.284027	-0.690835	0.282864
13342		9.801861	-0.531089	-1.141702	-0.096982	-0.016426	0.009875	-0.820068	-0.247314	-0.158203	0.601836	0.283510	-0.691180	0.282288
13343		9.855217	-0.552335	-1.270162	-0.070652	-0.010670	0.006151	-0.822266	-0.256836	-0.153564	0.601912	0.283143	-0.691431	0.281878
13344		9.840517	-0.601458	-1.215794	-0.079204	0.007936	-0.000310	-0.817383	-0.240479	-0.158203	0.602125	0.282748	-0.691596	0.281412
13345		9.757068	-0.705460	-1.107365	-0.052522	0.019602	-0.004798	-0.801270	-0.251465	-0.161133	0.602356	0.282453	-0.691628	0.281137
13346		9.745423	-0.673932	-1.145659	-0.026956	0.020843	0.006072	-0.812500	-0.248779	-0.162598	0.602535	0.282229	-0.691611	0.281020
13347		9.727028	-0.486867	-1.131075	-0.020535	0.019639	0.018321	-0.802490	-0.235107	-0.159668	0.602655	0.281964	-0.691616	0.281018
13348		9.732327	-0.380886	-1.118873	-0.042169	0.038894	0.029110	-0.818359	-0.244873	-0.164795	0.602898	0.281470	-0.691605	0.281018
13349		9.842654	-0.417667	-1.115744	-0.085068	0.052724	0.041392	-0.807861	-0.242676	-0.160889	0.603301	0.280666	-0.691649	0.280849
13350		9.868679	-0.578805	-1.089675	-0.102534	0.076547	0.047210	-0.814209	-0.232910	-0.159424	0.603863	0.279694	-0.691629	0.280660
13351		9.878837	-0.584797	-1.043260	-0.084801	0.077538	0.057111	-0.810059	-0.234131	-0.169922	0.604345	0.278746	-0.691591	0.280658
13352		9.923284	-0.512896	-1.081938	-0.081096	0.078567	0.063425	-0.816162	-0.238281	-0.165527	0.604841	0.277759	-0.691543	0.280687
13353		10.012980	-0.507087	-1.062324	-0.093418	0.081950	0.063547	-0.817871	-0.243408	-0.172363	0.605367	0.276725	-0.691512	0.280651
13354		10.036403	-0.552975	-1.041495	-0.107451	0.091380	0.063073	-0.817871	-0.232178	-0.171631	0.606000	0.275596	-0.691457	0.280532
13355		9.909615	-0.633893	-0.973121	-0.109769	0.100550	0.059167	-0.811523	-0.240723	-0.168457	0.606682	0.274448	-0.691356	0.280431
13356		9.861005	-0.598524	-1.025717	-0.076766	0.100049	0.059287	-0.818359	-0.233887	-0.178711	0.607287	0.273493	-0.691179	0.280491
13357		9.744546	-0.625230	-1.096437	-0.085868	0.105016	0.064309	-0.820557	-0.242432	-0.177002	0.607940	0.272421	-0.691004	0.280550
13358		9.753370	-0.651767	-1.107071	-0.080768	0.100046	0.061799	-0.818604	-0.228760	-0.171631	0.608556	0.271425	-0.690837	0.280593
13359		9.721133	-0.677390	-0.959983	-0.068146	0.094032	0.053401	-0.811768	-0.233643	-0.177734	0.609096	0.270552	-0.690663	0.280694
13360		9.683008	-0.621887	-0.917549	-0.028429	0.094497	0.044682	-0.813477	-0.237549	-0.178955	0.609596	0.269925	-0.690363	0.280949
13361		9.643869	-0.583977	-0.936327	-0.010731	0.091081	0.041659	-0.813232	-0.238037	-0.177246	0.610045	0.269423	-0.690030	0.281273
13362		9.794272	-0.429191	-0.929666	-0.022795	0.093886	0.046146	-0.812988	-0.220947	-0.180420	0.610520	0.268837	-0.689723	0.281557
13363		9.791987	-0.413626	-0.937571	-0.058487	0.106547	0.040865	-0.812500	-0.226807	-0.192627	0.611147	0.268029	-0.689430	0.281685
13364		9.724371	-0.472056	-0.897421	-0.062681	0.102213	0.033308	-0.809814	-0.226807	-0.189941	0.611819	0.267238	-0.689133	0.281706
13365		9.768815	-0.432390	-0.873392	-0.062124	0.106063	0.032305	-0.816895	-0.229492	-0.178223	0.612501	0.266461	-0.688816	0.281734
13366		9.779542	-0.384212	-0.790485	-0.103963	0.119362	0.034548	-0.805908	-0.229004	-0.196045	0.613294	0.265479	-0.688554	0.281576
13367		9.695368	-0.347701	-0.774883	-0.139168	0.133054	0.038353	-0.811035	-0.226807	-0.196045	0.614307	0.264208	-0.688281	0.281230
13368		9.816260	-0.265649	-0.751507	-0.174159	0.138313	0.051123	-0.819336	-0.224121	-0.199707	0.615377	0.262679	-0.688097	0.280774
13369		9.845054	-0.135412	-0.744806	-0.263047	0.177178	0.079382	-0.818359	-0.225098	-0.191650	0.616785	0.260434	-0.687983	0.280052
13370		9.875925	-0.000008	-0.712184	-0.353892	0.218466	0.120517	-0.805176	-0.226807	-0.206787	0.618486	0.257436	-0.687968	0.279110
13371		9.903791	0.243161	-0.497348	-0.458633	0.247821	0.169923	-0.812988	-0.215088	-0.207275	0.620524	0.253514	-0.688107	0.277830
13372		10.013247	0.245776	-0.333876	-0.604943	0.278336	0.208754	-0.818359	-0.208496	-0.224121	0.622897	0.248532	-0.688510	0.276016
13373		10.070463	0.024138	-0.411786	-0.754385	0.307203	0.234356	-0.814697	-0.195801	-0.217285	0.625697	0.242507	-0.689114	0.273524
13374		10.127954	-0.300937	-0.451122	-0.875900	0.345852	0.275024	-0.809082	-0.195801	-0.228271	0.628769	0.235543	-0.689868	0.270648
13375		10.100777	-0.405309	-0.398601	-0.957310	0.388429	0.318270	-0.809814	-0.188721	-0.242432	0.632139	0.227799	-0.690597	0.267551
13376		10.168061	-0.428250	-0.263370	-1.013403	0.413154	0.366306	-0.816895	-0.182861	-0.251221	0.635623	0.219389	-0.691336	0.264397
13377		10.257265	-0.645313	-0.294149	-1.066912	0.437734	0.389954	-0.803955	-0.170166	-0.249512	0.639225	0.210498	-0.692042	0.261076
13378		10.267975	-0.930194	-0.307695	-1.106520	0.471356	0.410170	-0.814453	-0.162842	-0.269531	0.642941	0.201215	-0.692634	0.257678
13379		10.111286	-1.170126	-0.271845	-1.102571	0.496135	0.440497	-0.805908	-0.144531	-0.282227	0.646693	0.191674	-0.693035	0.254465
13380		10.137174	-1.439174	-0.217247	-1.040316	0.490404	0.467092	-0.813232	-0.144775	-0.288086	0.650200	0.182257	-0.693290	0.251736
13381		10.411231	-1.648268	-0.264357	-0.925800	0.474960	0.518912	-0.808350	-0.126709	-0.309326	0.653258	0.173247	-0.693401	0.249869
13382		10.174655	-1.953065	-0.503093	-0.680925	0.472963	0.615325	-0.815674	-0.125732	-0.308594	0.655754	0.164922	-0.693050	0.249937
13383		9.903015	-2.251272	0.324521	-0.507658	0.434964	0.671691	-0.808105	-0.105957	-0.317627	0.657590	0.157375	-0.692604	0.251212
13384		9.816508	-2.244026	0.317437	-0.402252	0.402662	0.688675	-0.804199	-0.093506	-0.322021	0.659033	0.150317	-0.692088	0.253169
13385		10.038779	-2.126558	0.075396	-0.402955	0.469797	0.679814	-0.814453	-0.082520	-0.328125	0.660838	0.143157	-0.691155	0.255152
13386		9.960370	-2.462150	-0.178865	-0.357894	0.528707	0.685253	-0.807129	-0.071045	-0.344238	0.662848	0.136084	-0.689797	0.257474
13387		9.829619	-2.687342	0.317130	-0.277042	0.541628	0.647258	-0.806641	-0.060303	-0.344727	0.664940	0.129616	-0.688054	0.260069
13388		10.303125	-2.790766	0.383618	-0.204900	0.605036	0.631135	-0.803467	-0.048828	-0.361816	0.667270	0.123511	-0.685791	0.263034
13389		10.235610	-2.703300	0.460984	-0.081910	0.647830	0.618473	-0.789062	-0.043457	-0.360107	0.669750	0.118029	-0.682922	0.266687
13390		10.176648	-2.753286	0.602027	0.025902	0.703991	0.600309	-0.794434	-0.038818	-0.380127	0.672419	0.113173	-0.679461	0.270882
13391		10.518723	-2.812659	0.611270	0.095758	0.743384	0.598053	-0.794922	-0.028320	-0.385010	0.675257	0.108620	-0.675528	0.275484
13392		10.507494	-3.038093	0.602370	0.186211	0.763976	0.612699	-0.785400	-0.019775	-0.386230	0.678000	0.104426	-0.671297	0.280663
13393		9.864160	-2.907070	0.874346	0.341257	0.767718	0.606425	-0.788086	-0.012939	-0.403320	0.680551	0.101134	-0.666676	0.286645
13394		9.887725	-2.796015	1.420065	0.281821	0.837741	0.581682	-0.776367	-0.015381	-0.419189	0.683568	0.097440	-0.661710	0.292200
13395		10.188773	-2.244668	1.507046	0.104062	0.950218	0.621825	-0.773438	-0.004883	-0.429199	0.687259	0.092296	-0.656419	0.297103
13396		10.308935	-2.161093	1.241145	-0.000819	1.008731	0.674782	-0.765869	0.010742	-0.442871	0.691121	0.086084	-0.651074	0.301735
13397		10.185004	-2.384212	1.516030	-0.134402	1.060145	0.684212	-0.763428	0.010010	-0.461670	0.695238	0.078854	-0.645728	0.305715
13398		10.091250	-2.480625	1.615207	-0.214440	1.109243	0.691866	-0.741211	0.022461	-0.470215	0.699623	0.071068	-0.640167	0.309296
13399		10.027389	-2.918707	1.751800	-0.287345	1.094476	0.731909	-0.731201	0.036621	-0.494385	0.703766	0.062679	-0.634812	0.312728
13400		9.566788	-3.490873	1.798021	-0.243602	1.111995	0.767647	-0.734863	0.043701	-0.493408	0.707827	0.054283	-0.629095	0.316660
13401		8.970477	-3.559262	2.174784	-0.242751	1.131260	0.790663	-0.725586	0.060791	-0.513184	0.711763	0.045730	-0.623366	0.320496
13402		9.672502	-3.217347	2.101000	-0.314903	1.150527	0.871503	-0.712646	0.071045	-0.532227	0.715509	0.036222	-0.617634	0.324442
13403		9.322633	-3.354050	2.047519	-0.374788	1.176762	0.916986	-0.695557	0.086182	-0.545654	0.719200	0.026087	-0.611751	0.328377
13404		8.866814	-3.641008	2.595647	-0.430706	1.154390	0.880820	-0.679199	0.091797	-0.572754	0.722764	0.015861	-0.606029	0.331797
13405		8.964532	-3.644538	2.881275	-0.476079	1.118180	0.940740	-0.681396	0.108154	-0.571289	0.725912	0.005266	-0.600407	0.335462
13406		8.952647	-3.971399	3.127309	-0.499263	1.076865	1.028916	-0.661377	0.122314	-0.583008	0.728421	-0.005876	-0.595236	0.339209
13407		8.944740	-4.182055	2.669453	-0.455088	1.042081	1.164647	-0.651367	0.137207	-0.601074	0.730234	-0.017307	-0.590014	0.344008
13408		8.262113	-4.588817	2.441622	-0.298409	1.012610	1.144136	-0.640137	0.150146	-0.609619	0.731850	-0.027592	-0.584421	0.349408
13409		8.527910	-4.891712	2.324146	-0.285070	0.969536	1.100232	-0.625488	0.171143	-0.620361	0.733257	-0.037473	-0.579007	0.354514
13410		8.341978	-5.176952	2.544168	-0.225834	0.928359	1.011804	-0.617920	0.186768	-0.630615	0.734632	-0.046481	-0.573638	0.359298
13411		8.781197	-5.943919	2.389737	-0.007215	0.865827	1.055227	-0.601562	0.190186	-0.632812	0.735565	-0.054176	-0.567919	0.365344
13412		6.776899	-5.736575	3.869511	0.280012	0.837952	0.999924	-0.586670	0.198975	-0.651855	0.736569	-0.059742	-0.561450	0.372387
13413		7.996707	-4.828348	3.637482	0.183219	0.750591	1.114056	-0.573242	0.206299	-0.656494	0.736667	-0.066159	-0.555677	0.379694
13414		8.006546	-4.865998	2.443550	0.094718	0.915627	1.183134	-0.561279	0.220459	-0.658691	0.737159	-0.073956	-0.549062	0.386856
13415		7.492182	-6.044769	2.730794	0.082702	0.900961	1.044824	-0.543945	0.226318	-0.679688	0.737920	-0.081151	-0.542596	0.393036
13416		7.292998	-6.097217	3.719214	0.152731	0.843721	0.863823	-0.529785	0.241943	-0.687988	0.738970	-0.086883	-0.536295	0.398450
13417		7.115569	-5.315796	4.204123	0.122094	0.854510	0.847836	-0.524658	0.239014	-0.693848	0.740029	-0.092780	-0.529995	0.403552
13418		7.113097	-5.380043	3.981030	0.063374	0.874240	0.931585	-0.506104	0.246094	-0.693604	0.740764	-0.099446	-0.523652	0.408862
13419		6.820770	-5.853757	3.305125	0.160878	0.908529	0.970451	-0.495605	0.250732	-0.717529	0.741511	-0.105793	-0.516672	0.414752
13420		6.050453	-5.762733	3.585034	0.190391	0.867482	0.885949	-0.483887	0.254395	-0.718262	0.742310	-0.111430	-0.509850	0.420253
13421		6.458561	-5.439234	3.869157	0.084197	0.809288	0.799397	-0.474365	0.250732	-0.732422	0.742994	-0.117149	-0.503798	0.424762
13422		5.756078	-5.360550	4.137469	0.110224	0.817016	0.717596	-0.459229	0.261963	-0.733643	0.743960	-0.122375	-0.497639	0.428840
13423		5.865599	-5.321666	4.259186	0.130118	0.771658	0.736643	-0.445312	0.264160	-0.745850	0.744634	-0.127396	-0.491633	0.433115
13424		5.348082	-5.336094	3.877323	0.083272	0.729359	0.763053	-0.433105	0.272949	-0.738037	0.744929	-0.132648	-0.485989	0.437379
13425		4.885546	-4.920817	3.693665	-0.002505	0.722302	0.711254	-0.422852	0.270996	-0.745605	0.745237	-0.138194	-0.480728	0.440936
13426		5.578152	-5.075666	3.489153	-0.140139	0.658026	0.662210	-0.408203	0.277832	-0.757080	0.745257	-0.144143	-0.476392	0.443696
13427		4.920356	-5.528384	3.744332	-0.070507	0.540924	0.563889	-0.393311	0.283203	-0.765137	0.745220	-0.148830	-0.472618	0.446240
13428		4.536540	-5.352188	3.926175	-0.107671	0.418315	0.469285	-0.390869	0.288330	-0.756348	0.744980	-0.152917	-0.469844	0.448183
13429		4.094746	-5.151512	3.744184	-0.135426	0.374198	0.403011	-0.394043	0.290771	-0.761963	0.744764	-0.156752	-0.467527	0.449637
13430		4.428469	-4.762225	3.377860	-0.268777	0.320264	0.339724	-0.383301	0.291260	-0.763916	0.744383	-0.160958	-0.466117	0.450246
13431		5.140301	-5.570932	2.863673	-0.344407	0.239890	0.287331	-0.371826	0.301270	-0.764160	0.743769	-0.165124	-0.465546	0.450342
13432		4.204216	-6.442892	2.729096	0.039347	0.099006	0.064821	-0.375732	0.302734	-0.765381	0.743967	-0.165524	-0.464712	0.450730
13433		3.324331	-5.339779	3.900198	0.207472	-0.062805	-0.177035	-0.380859	0.302002	-0.764648	0.744676	-0.163338	-0.464587	0.450486
13434		3.881993	-4.221387	3.833494	0.066412	-0.123735	-0.153040	-0.373779	0.309570	-0.769531	0.744863	-0.161893	-0.465336	0.449925
13435		4.696841	-4.806475	3.352503	-0.146946	-0.188660	-0.074152	-0.387695	0.302490	-0.755859	0.744214	-0.161838	-0.467174	0.449113
13436		4.578110	-5.694689	3.034670	-0.152504	-0.282954	-0.169374	-0.386963	0.299316	-0.763184	0.743539	-0.161083	-0.469752	0.447811
13437		4.541934	-5.672367	3.104581	-0.053307	-0.424499	-0.375474	-0.393799	0.303223	-0.760498	0.743195	-0.158372	-0.473097	0.445823
13438		4.694867	-5.340370	3.534489	0.078193	-0.549542	-0.515557	-0.402832	0.290283	-0.749756	0.743034	-0.153836	-0.476904	0.443619
13439		5.060787	-5.409609	3.723839	0.094204	-0.639315	-0.539435	-0.416992	0.294189	-0.745117	0.742588	-0.148759	-0.481218	0.441433
13440		5.041213	-5.415067	3.627747	0.118276	-0.678739	-0.582113	-0.423828	0.283203	-0.742676	0.742138	-0.143226	-0.485722	0.439081
13441		5.490213	-5.436754	3.376951	0.080033	-0.750531	-0.657801	-0.436035	0.273682	-0.736328	0.741574	-0.137337	-0.490860	0.436191
13442		6.326411	-6.188146	2.975175	0.218032	-0.897706	-0.676553	-0.448730	0.274170	-0.733398	0.740573	-0.129968	-0.496390	0.433886
13443		5.435510	-6.807411	3.160471	0.533202	-1.026170	-0.811901	-0.468506	0.260254	-0.722168	0.739793	-0.119636	-0.501669	0.432113
13444		5.694744	-5.570720	3.526481	0.645392	-1.087413	-0.919560	-0.486328	0.248047	-0.722900	0.739140	-0.107924	-0.506963	0.430132
13445		6.358591	-4.846612	3.779707	0.611351	-1.113699	-0.884910	-0.498291	0.236816	-0.714600	0.738095	-0.096457	-0.512419	0.428180
13446		6.189497	-5.280198	3.921905	0.504017	-1.200202	-0.919241	-0.520996	0.219727	-0.706299	0.736594	-0.085189	-0.518732	0.425546
13447		6.869210	-5.421227	3.765036	0.444162	-1.292191	-0.943054	-0.529053	0.214111	-0.692871	0.734595	-0.073828	-0.525745	0.422507
13448		6.485362	-4.861109	3.910319	0.431217	-1.359205	-1.047265	-0.548096	0.195557	-0.675781	0.732521	-0.061876	-0.533175	0.418699
13449		7.359905	-3.291437	3.976753	0.141431	-1.355984	-1.038529	-0.577637	0.181885	-0.669678	0.730120	-0.051712	-0.541483	0.413578
13450		7.705474	-2.756359	3.803620	-0.165312	-1.283743	-0.920537	-0.587402	0.180908	-0.654053	0.727359	-0.044163	-0.550258	0.407693
13451		7.018993	-3.428175	3.516160	-0.448056	-1.269650	-0.953976	-0.597656	0.160645	-0.629883	0.724552	-0.038252	-0.559826	0.400195
13452		10.341332	-5.789039	2.769073	-0.528633	-1.410352	-0.798246	-0.623291	0.170898	-0.617676	0.720378	-0.032989	-0.570324	0.393316
13453		7.773799	-7.611579	3.069875	0.089808	-1.444942	-0.945575	-0.633301	0.158691	-0.609375	0.716564	-0.023285	-0.578977	0.388304
13454		7.632389	-6.783538	2.380629	0.408914	-1.489144	-1.089590	-0.650879	0.147217	-0.583252	0.712895	-0.010807	-0.586712	0.383970
13455		8.665027	-4.648317	2.510781	0.519577	-1.396121	-1.066045	-0.670898	0.132324	-0.576172	0.709446	0.001857	-0.593456	0.380123
13456		8.479213	-4.067805	2.400363	0.418008	-1.387601	-1.060321	-0.683594	0.116943	-0.549316	0.705858	0.013865	-0.600328	0.375738
13457		9.578902	-4.823221	2.283196	0.463964	-1.468275	-1.043854	-0.692383	0.103027	-0.537354	0.701634	0.026286	-0.607441	0.371529
13458		9.733387	-5.775077	3.012021	0.666506	-1.517917	-1.070784	-0.714111	0.081299	-0.518799	0.697025	0.040164	-0.614030	0.368117
13459		9.941851	-5.439070	1.966961	0.970855	-1.511969	-0.948570	-0.725342	0.060547	-0.505859	0.691755	0.055189	-0.619536	0.366885
13460		7.966707	-3.764987	1.511619	1.308116	-1.431935	-1.000779	-0.738037	0.040771	-0.485352	0.686695	0.072183	-0.623300	0.367066
13461		8.781540	-2.399780	2.218430	0.970368	-1.512388	-1.030711	-0.750977	0.017578	-0.460938	0.681287	0.087583	-0.628387	0.365113
13462		10.280368	-2.565798	2.645712	0.502715	-1.458810	-0.997400	-0.764160	-0.002686	-0.448486	0.676194	0.100005	-0.634466	0.360852
13463		11.603717	-4.177025	1.497607	0.546245	-1.529621	-0.750058	-0.769287	-0.001953	-0.430908	0.669801	0.111604	-0.640821	0.358135
13464		9.585359	-4.432670	-0.464463	0.850025	-1.390206	-0.712736	-0.775879	-0.024658	-0.400635	0.663637	0.124070	-0.645450	0.357192
13465		8.881982	-2.273401	0.842208	0.797036	-1.249586	-0.822264	-0.792969	-0.039551	-0.384033	0.658415	0.136515	-0.649217	0.355486
13466		9.598562	-1.010552	2.025482	0.672876	-1.267641	-0.817889	-0.790527	-0.052002	-0.364258	0.653074	0.148261	-0.653371	0.353015
13467		9.675794	-1.761008	2.042097	0.329791	-1.157061	-0.794729	-0.800537	-0.068604	-0.347168	0.648590	0.157651	-0.657839	0.348891
13468		9.915947	-2.447326	1.654025	-0.042729	-1.134409	-0.725598	-0.808838	-0.072510	-0.320557	0.644411	0.164632	-0.663248	0.343121
13469		10.539977	-2.490187	0.788799	-0.306364	-1.112915	-0.677983	-0.815186	-0.075439	-0.316406	0.640440	0.169813	-0.669364	0.336084
13470		10.913211	-2.196784	0.259746	-0.274930	-1.038571	-0.663158	-0.816162	-0.090088	-0.305908	0.636794	0.174792	-0.674867	0.329386
13471		10.754493	-2.215930	0.182938	0.034660	-0.951866	-0.633222	-0.810791	-0.098389	-0.291504	0.633070	0.181095	-0.678937	0.324764
13472		10.213353	-2.528128	0.257803	0.279851	-0.900198	-0.569992	-0.825684	-0.106934	-0.281982	0.629055	0.188188	-0.682084	0.321925
13473		9.937933	-2.718746	-0.182942	0.424046	-0.872855	-0.502115	-0.821777	-0.113037	-0.265381	0.624730	0.195547	-0.684762	0.320272
13474		10.073512	-2.519048	-0.547618	0.400243	-0.808010	-0.495511	-0.832520	-0.121582	-0.250244	0.620745	0.202557	-0.687124	0.318601
13475		10.361780	-1.873004	-0.260678	0.313502	-0.700182	-0.521557	-0.824707	-0.133057	-0.239014	0.617536	0.208975	-0.689080	0.316461
13476		10.583225	-1.381029	0.132238	0.258122	-0.609912	-0.517684	-0.826904	-0.141357	-0.225342	0.614912	0.214858	-0.690662	0.314174
13477		10.449090	-1.518023	0.387835	0.343140	-0.487948	-0.477692	-0.829834	-0.138428	-0.218506	0.612698	0.220621	-0.691443	0.312785
13478		9.979778	-1.874537	0.118192	0.470886	-0.397714	-0.404206	-0.830078	-0.147217	-0.222412	0.610559	0.226334	-0.691545	0.312660
13479		9.801591	-1.284631	-0.218910	0.457944	-0.389011	-0.350689	-0.831543	-0.153564	-0.210938	0.608355	0.231647	-0.691691	0.312743
13480		9.993825	-0.623334	-0.551055	0.268462	-0.360349	-0.321422	-0.828369	-0.162598	-0.206543	0.606579	0.235763	-0.692226	0.311931
13481		10.238759	-0.847761	-0.475404	0.006483	-0.310171	-0.285692	-0.834229	-0.165039	-0.199707	0.605509	0.238220	-0.693242	0.309879
13482		10.041280	-1.336408	-0.342558	-0.059806	-0.259076	-0.254608	-0.832764	-0.173340	-0.191650	0.604775	0.240029	-0.694229	0.307701
13483		9.957889	-1.376046	-0.453363	0.049492	-0.280844	-0.211541	-0.836182	-0.167480	-0.188965	0.603579	0.242202	-0.695124	0.306323
13484		10.113316	-1.422145	-0.825274	0.159295	-0.246584	-0.214828	-0.830322	-0.171875	-0.185059	0.602362	0.244845	-0.695554	0.305640
13485		9.863022	-1.793564	-0.736693	0.142650	-0.170177	-0.259330	-0.828613	-0.186035	-0.173096	0.601734	0.247468	-0.695544	0.304786
13486		9.938923	-1.626982	-0.864657	0.108318	-0.155535	-0.256465	-0.825684	-0.187500	-0.181885	0.601247	0.249874	-0.695548	0.303772
13487		10.232044	-1.044066	-0.974847	0.170909	-0.178609	-0.215812	-0.833252	-0.180908	-0.174316	0.600398	0.252403	-0.695585	0.303276
13488		10.221289	-0.963553	-0.930508	0.200656	-0.155943	-0.201199	-0.830811	-0.197754	-0.169922	0.599568	0.254935	-0.695463	0.303079
13489		10.192725	-1.012059	-0.719398	0.196934	-0.118518	-0.184513	-0.827393	-0.194580	-0.165527	0.598921	0.257264	-0.695193	0.303011
13490		9.916835	-0.950408	-0.493350	0.137672	-0.101457	-0.161392	-0.829590	-0.194580	-0.167969	0.598437	0.259116	-0.695033	0.302757
13491		9.938393	-0.795357	-0.857766	0.083395	-0.109119	-0.127640	-0.832764	-0.197998	-0.166260	0.597941	0.260517	-0.695117	0.302340
13492		9.900302	-0.846934	-0.947947	-0.003031	-0.087654	-0.111789	-0.828125	-0.198730	-0.167236	0.597716	0.261343	-0.695345	0.301547
13493		9.872864	-0.808912	-0.777004	-0.055089	-0.085757	-0.103282	-0.827148	-0.199463	-0.164062	0.597596	0.261855	-0.695710	0.300497
13494		9.813356	-0.840728	-0.754855	-0.050771	-0.067974	-0.078685	-0.824463	-0.201172	-0.166260	0.597505	0.262202	-0.696030	0.299634
13495		9.726193	-0.973597	-0.922980	-0.087614	-0.039781	-0.046209	-0.828613	-0.195557	-0.159424	0.597580	0.262106	-0.696369	0.298778
13496		9.843661	-1.205837	-1.188409	-0.142701	-0.021394	-0.025918	-0.829590	-0.207764	-0.160889	0.597822	0.261575	-0.696800	0.297752
13497		9.942347	-1.434807	-1.115236	-0.137464	-0.020126	-0.012859	-0.823730	-0.208984	-0.157471	0.598034	0.260996	-0.697237	0.296811
13498		10.001609	-1.306831	-0.949134	-0.087431	-0.030773	0.003554	-0.824463	-0.198975	-0.160645	0.598032	0.260597	-0.697639	0.296221
13499		10.015605	-1.114621	-1.155158	-0.024744	-0.025859	0.015526	-0.823242	-0.209717	-0.164795	0.597892	0.260419	-0.697887	0.296074
13500		9.848527	-1.218276	-1.236186	-0.008159	-0.010480	0.016885	-0.827393	-0.199219	-0.161865	0.597810	0.260281	-0.698018	0.296053
13501		9.743857	-1.234941	-1.000108	-0.008679	-0.009234	0.023495	-0.825195	-0.198486	-0.161133	0.597711	0.260096	-0.698162	0.296077
13502		9.785469	-1.099583	-1.015901	-0.019145	-0.006431	0.021468	-0.830078	-0.201660	-0.152832	0.597657	0.259865	-0.698312	0.296036
13503		9.663666	-1.094710	-1.126290	-0.005200	0.010459	0.008837	-0.830322	-0.197510	-0.161865	0.597695	0.259745	-0.698319	0.296049
13504		9.606342	-1.075739	-1.152359	-0.010117	0.022948	-0.003601	-0.827393	-0.198975	-0.157715	0.597856	0.259629	-0.698245	0.295998
13505		9.525235	-1.127457	-1.133156	-0.006687	0.014890	-0.002582	-0.821045	-0.199707	-0.165039	0.597958	0.259550	-0.698206	0.295953
13506		9.548703	-1.204596	-1.185314	0.022380	0.004055	-0.003838	-0.827148	-0.193115	-0.167236	0.597945	0.259644	-0.698144	0.296042
13507		9.594381	-1.126106	-1.008201	0.051666	-0.023163	-0.004575	-0.823486	-0.201416	-0.159180	0.597709	0.259951	-0.698146	0.296247
13508		9.692198	-0.936476	-1.172321	0.064595	-0.039359	-0.002150	-0.825439	-0.204590	-0.165283	0.597340	0.260362	-0.698202	0.296498
13509		9.637556	-0.982760	-1.421065	0.054813	-0.026035	-0.012687	-0.828613	-0.197510	-0.159912	0.597104	0.260746	-0.698191	0.296662
13510		9.656030	-1.034743	-1.271920	0.031239	-0.008116	-0.032374	-0.824219	-0.200195	-0.152100	0.597060	0.261084	-0.698110	0.296644
13511		9.669679	-0.956635	-1.122491	0.036370	0.002398	-0.049465	-0.832031	-0.203857	-0.164307	0.597103	0.261531	-0.697928	0.296591
13512		9.707687	-1.046189	-1.142560	0.079022	-0.020533	-0.054592	-0.835449	-0.201904	-0.161865	0.596948	0.262261	-0.697739	0.296703
13513		9.716890	-0.976510	-1.352939	0.115799	-0.025609	-0.053702	-0.829834	-0.202148	-0.158691	0.596674	0.263183	-0.697487	0.297029
13514		9.740216	-0.775044	-1.318593	0.137877	-0.033683	-0.042102	-0.822266	-0.203613	-0.158691	0.596274	0.264170	-0.697246	0.297522
13515		9.750154	-0.667954	-1.155032	0.098163	-0.028353	-0.027674	-0.831787	-0.207520	-0.160156	0.595961	0.264861	-0.697107	0.297860
13516		9.810776	-0.556847	-1.098658	0.038655	-0.031011	-0.011117	-0.827637	-0.208740	-0.158691	0.595724	0.265167	-0.697165	0.297927
13517		9.759569	-0.831287	-1.247025	-0.006103	-0.025617	0.000248	-0.829590	-0.213867	-0.148682	0.595590	0.265173	-0.697332	0.297798
13518		9.688080	-0.914951	-1.192343	-0.039874	-0.023279	0.009808	-0.828613	-0.201660	-0.153564	0.595503	0.264977	-0.697597	0.297526
13519		9.681007	-0.888251	-1.128440	-0.046502	-0.029614	0.020761	-0.824951	-0.197266	-0.154297	0.595369	0.264672	-0.697933	0.297276
13520		9.684477	-0.869040	-1.098784	-0.064966	-0.030055	0.017714	-0.832520	-0.207520	-0.156006	0.595284	0.264287	-0.698309	0.296906
13521		9.759149	-1.016388	-1.292847	-0.040753	-0.024541	0.011969	-0.830078	-0.198242	-0.155029	0.595201	0.264053	-0.698583	0.296637
13522		9.753920	-1.187297	-1.340455	-0.009547	-0.028374	0.000840	-0.824951	-0.206543	-0.157227	0.595046	0.264038	-0.698775	0.296507
13523		9.780625	-1.068802	-1.201757	-0.000739	-0.031821	0.009664	-0.822021	-0.206543	-0.148438	0.594848	0.264028	-0.698979	0.296435
13524		9.820339	-0.974122	-1.232925	-0.007954	-0.026270	0.010061	-0.825195	-0.201904	-0.153076	0.594677	0.263989	-0.699178	0.296344
13525		9.791494	-1.026230	-1.190296	-0.014427	-0.017944	0.003588	-0.836670	-0.203369	-0.149414	0.594591	0.263912	-0.699336	0.296210
13526		9.722415	-1.149762	-1.196267	-0.016760	-0.022813	0.001242	-0.828369	-0.198975	-0.150879	0.594472	0.263864	-0.699523	0.296050
13527		9.702003	-1.217756	-1.205342	-0.013645	-0.025711	-0.006869	-0.826660	-0.205566	-0.153564	0.594359	0.263872	-0.699696	0.295862
13528		9.751545	-1.118726	-1.200956	0.006778	-0.021494	-0.013696	-0.824951	-0.202881	-0.156738	0.594258	0.264012	-0.699779	0.295744
13529		9.749101	-1.153521	-1.375958	0.035638	-0.023025	-0.021415	-0.826660	-0.200684	-0.153076	0.594112	0.264328	-0.699780	0.295755
13530		9.742071	-1.263150	-1.248050	0.058193	-0.009066	-0.032835	-0.825684	-0.203125	-0.160156	0.594009	0.264796	-0.699634	0.295886
13531		9.790207	-1.145100	-1.103827	0.065058	-0.009719	-0.037136	-0.829346	-0.206543	-0.146729	0.593923	0.265303	-0.699460	0.296016
13532		9.796208	-0.978170	-1.129389	0.072703	-0.004041	-0.035044	-0.829590	-0.208496	-0.150635	0.593805	0.265873	-0.699252	0.296232
13533		9.788443	-0.908344	-1.227063	0.051366	0.011328	-0.037423	-0.828369	-0.204346	-0.146484	0.593846	0.266300	-0.699012	0.296334
13534		9.763094	-1.003129	-1.280913	0.021285	0.024566	-0.046672	-0.828613	-0.213379	-0.146484	0.594034	0.266605	-0.698764	0.296269
13535		9.723387	-1.084031	-1.180212	0.017795	0.040984	-0.044435	-0.822754	-0.208008	-0.149170	0.594330	0.266855	-0.698445	0.296200
13536		9.754752	-0.989200	-1.049231	0.030403	0.029030	-0.030109	-0.826416	-0.205811	-0.150146	0.594499	0.267089	-0.698186	0.296261
13537		9.810362	-0.875016	-1.070437	0.025916	0.015140	-0.019818	-0.823242	-0.207764	-0.155029	0.594568	0.267269	-0.698029	0.296330
13538		9.774157	-0.867357	-1.162833	0.027560	0.019204	-0.028861	-0.834473	-0.215576	-0.154053	0.594703	0.267483	-0.697823	0.296351
13539		9.738070	-0.830132	-1.099185	0.010042	0.042773	-0.042983	-0.826172	-0.210693	-0.151123	0.595042	0.267657	-0.697514	0.296242
13540		9.809002	-0.805754	-1.085462	-0.014397	0.059075	-0.042840	-0.821533	-0.214600	-0.158936	0.595515	0.267672	-0.697186	0.296049
13541		9.857620	-0.842335	-0.980133	-0.020592	0.075487	-0.046866	-0.830566	-0.213379	-0.159424	0.596149	0.267611	-0.696775	0.295797
13542		9.937909	-0.731209	-0.880601	-0.029578	0.086125	-0.046894	-0.823730	-0.207764	-0.159912	0.596845	0.267482	-0.696336	0.295543
13543		9.958753	-0.673730	-0.946328	-0.056746	0.106948	-0.037011	-0.826172	-0.215576	-0.160156	0.597692	0.267099	-0.695882	0.295248
13544		9.881528	-0.643247	-0.931655	-0.096530	0.137876	-0.043994	-0.826172	-0.212646	-0.162598	0.598825	0.266507	-0.695355	0.294726
13545		9.864457	-0.628464	-0.908883	-0.141771	0.169043	-0.044981	-0.829346	-0.208252	-0.161621	0.600235	0.265610	-0.694780	0.294024
13546		9.873591	-0.643303	-0.746020	-0.185723	0.189006	-0.039538	-0.825928	-0.220459	-0.170410	0.601806	0.264426	-0.694227	0.293184
13547		9.960941	-0.729916	-0.764412	-0.212238	0.212333	-0.023012	-0.818848	-0.218750	-0.168945	0.603587	0.262950	-0.693644	0.292229
13548		9.968403	-0.773427	-0.832963	-0.247149	0.255168	-0.002025	-0.816162	-0.210693	-0.173096	0.605615	0.261097	-0.692973	0.291284
13549		9.937091	-0.742575	-0.648069	-0.293404	0.287423	0.010664	-0.817627	-0.208740	-0.174072	0.607880	0.258837	-0.692275	0.290244
13550		9.917151	-0.621616	-0.562289	-0.335148	0.308466	0.026894	-0.815430	-0.203613	-0.188232	0.610279	0.256243	-0.691601	0.289113
13551		9.950852	-0.607589	-0.703218	-0.364745	0.348227	0.053322	-0.823730	-0.210938	-0.192871	0.612947	0.253170	-0.690835	0.288007
13552		10.008928	-0.769500	-0.670870	-0.411468	0.378583	0.070583	-0.814697	-0.215332	-0.200439	0.615827	0.249731	-0.690047	0.286752
13553		10.106180	-0.685579	-0.515228	-0.436464	0.401058	0.097480	-0.824219	-0.205811	-0.210938	0.618847	0.245964	-0.689230	0.285470
13554		10.153380	-0.506598	-0.323443	-0.503708	0.429632	0.149207	-0.812012	-0.204590	-0.212646	0.622012	0.241434	-0.688519	0.284171
13555		10.231225	-0.352951	-0.386788	-0.583025	0.460051	0.183751	-0.813965	-0.195801	-0.223145	0.625399	0.236260	-0.687879	0.282630
13556		10.307119	-0.454089	-0.392281	-0.700648	0.505490	0.213705	-0.819824	-0.185547	-0.233398	0.629177	0.230152	-0.687307	0.280670
13557		10.320308	-0.803194	-0.105552	-0.795238	0.543467	0.226849	-0.814453	-0.189941	-0.247314	0.633262	0.223346	-0.686750	0.278333
13558		10.458809	-1.055606	0.073973	-0.828216	0.555042	0.262485	-0.813232	-0.173096	-0.262939	0.637413	0.216135	-0.686199	0.275902
13559		10.438671	-1.168223	-0.165734	-0.809529	0.587446	0.292891	-0.811523	-0.169922	-0.263916	0.641610	0.208664	-0.685437	0.273809
13560		10.359114	-1.425550	-0.106539	-0.768691	0.629338	0.305759	-0.808594	-0.162354	-0.272461	0.645841	0.201327	-0.684341	0.272093
13561		10.387682	-1.714959	-0.126581	-0.625846	0.652261	0.347331	-0.800781	-0.151123	-0.288330	0.649809	0.194472	-0.682822	0.271446
13562		10.295704	-1.988957	0.117947	-0.460205	0.676289	0.391285	-0.806396	-0.150391	-0.297119	0.653555	0.188122	-0.680812	0.271976
13563		10.344093	-2.082748	0.478670	-0.324051	0.694292	0.423219	-0.803223	-0.142822	-0.310059	0.657064	0.182346	-0.678408	0.273458
13564		10.420183	-1.916924	0.672598	-0.212920	0.736060	0.470090	-0.800781	-0.133545	-0.320068	0.660520	0.176783	-0.675546	0.275860
13565		10.343524	-1.789355	0.585030	-0.100386	0.738890	0.485197	-0.801514	-0.123291	-0.336670	0.663746	0.171729	-0.672398	0.278983
13566		10.442800	-1.729619	0.840571	-0.105316	0.826620	0.502262	-0.801025	-0.119629	-0.344727	0.667421	0.166264	-0.668752	0.282269
13567		10.272777	-1.492847	1.260591	-0.199053	0.883406	0.504298	-0.792725	-0.120117	-0.364502	0.671466	0.160178	-0.664974	0.285107
13568		10.489325	-1.357022	1.111769	-0.299409	0.970561	0.533473	-0.784668	-0.106689	-0.369385	0.676111	0.153136	-0.660862	0.287549
13569		10.538465	-1.492128	1.018888	-0.359498	1.041582	0.578765	-0.782715	-0.092773	-0.375732	0.680971	0.145361	-0.656521	0.290049
13570		10.274367	-1.977249	1.365772	-0.413582	1.085446	0.600827	-0.780273	-0.083008	-0.402832	0.685909	0.137086	-0.652070	0.292475
13571		10.612349	-2.381378	1.405671	-0.429698	1.095488	0.657532	-0.769287	-0.077881	-0.422119	0.690792	0.128272	-0.647534	0.295046
13572		9.990019	-2.375553	1.229589	-0.335502	1.146827	0.708575	-0.761719	-0.061279	-0.436279	0.695716	0.119590	-0.642376	0.298380
13573		9.982913	-2.570992	1.808154	-0.405980	1.210153	0.735277	-0.751953	-0.056641	-0.446045	0.700854	0.110146	-0.636980	0.301542
13574		10.098463	-2.450215	1.752382	-0.451236	1.301758	0.755216	-0.745117	-0.033447	-0.463379	0.706344	0.100202	-0.631067	0.304617
13575		10.123725	-2.388237	1.948430	-0.522749	1.303116	0.758631	-0.737549	-0.028564	-0.489746	0.711717	0.089708	-0.625268	0.307329
13576		10.111202	-2.436679	2.055659	-0.549349	1.305173	0.764174	-0.724854	-0.011963	-0.504150	0.717093	0.079013	-0.619316	0.309809
13577		10.113854	-2.679176	2.165083	-0.533739	1.295224	0.804494	-0.718506	-0.002441	-0.528564	0.722153	0.068201	-0.613306	0.312570
13578		9.443228	-3.178697	2.297723	-0.484959	1.298699	0.786532	-0.703613	0.005615	-0.538818	0.727195	0.057746	-0.606955	0.315370
13579		9.353391	-2.989931	2.408101	-0.541492	1.299844	0.770990	-0.695557	0.026855	-0.552490	0.732168	0.047105	-0.600620	0.317752
13580		9.227039	-2.770601	2.397191	-0.572819	1.295163	0.784955	-0.680664	0.041992	-0.567139	0.736880	0.036162	-0.594368	0.320041
13581		8.864721	-2.897843	2.228388	-0.643347	1.265614	0.776408	-0.669434	0.053467	-0.590332	0.741343	0.024899	-0.588372	0.321884
13582		8.806123	-3.851830	2.465101	-0.703863	1.244655	0.769315	-0.660156	0.075439	-0.588867	0.745652	0.013343	-0.582491	0.323310
13583		8.252165	-4.466717	2.423717	-0.513504	1.183730	0.764952	-0.647461	0.080322	-0.610352	0.749369	0.003187	-0.576556	0.325605
13584		7.934481	-4.930788	2.829543	-0.291693	1.145181	0.756213	-0.637451	0.087402	-0.620850	0.752880	-0.005394	-0.570078	0.328868
13585		7.915329	-4.662960	2.922559	-0.095630	1.112810	0.755243	-0.619873	0.092773	-0.632080	0.756120	-0.012609	-0.563217	0.333032
13586		8.383287	-4.374933	3.051710	0.006261	1.090732	0.732596	-0.604248	0.106689	-0.640137	0.759222	-0.018996	-0.556137	0.337539
13587		8.293030	-4.371883	3.053089	0.047920	1.094915	0.693155	-0.596924	0.106934	-0.666748	0.762330	-0.024999	-0.548910	0.341944
13588		8.349418	-4.705036	3.422382	0.157530	1.060436	0.619938	-0.578125	0.124023	-0.674561	0.765444	-0.029847	-0.541505	0.346377
13589		7.789531	-4.794184	3.648501	0.376726	1.021903	0.571202	-0.565918	0.120850	-0.685547	0.768469	-0.033033	-0.533732	0.351417
13590		7.562647	-4.441536	3.742184	0.520480	1.009976	0.543702	-0.559082	0.121338	-0.691162	0.771473	-0.035106	-0.525569	0.356896
13591		7.409056	-4.188935	3.947020	0.497354	1.040733	0.538728	-0.540283	0.114014	-0.706787	0.774528	-0.037396	-0.517244	0.362170
13592		7.574312	-3.600132	4.310947	0.363870	1.034715	0.515382	-0.531494	0.114258	-0.711670	0.777503	-0.040408	-0.509290	0.366715
13593		7.470608	-3.313991	4.388827	0.186752	1.059127	0.518504	-0.523926	0.117432	-0.728271	0.780433	-0.044659	-0.501684	0.370463
13594		8.036857	-4.095055	4.106793	0.029471	1.028343	0.517243	-0.497803	0.123291	-0.742432	0.783109	-0.049831	-0.494715	0.373517
13595		6.731562	-4.585437	4.488294	0.163574	0.994377	0.436054	-0.479736	0.124268	-0.747314	0.785888	-0.053689	-0.487532	0.376578
13596		6.855050	-4.333555	4.632765	0.156521	0.967716	0.418150	-0.471436	0.115234	-0.755127	0.788546	-0.057431	-0.480519	0.379470
13597		6.485878	-4.027163	4.358639	0.159191	0.978468	0.479425	-0.459229	0.122314	-0.767334	0.790988	-0.061421	-0.473360	0.382748
13598		6.686835	-3.690150	4.378877	0.056823	0.941071	0.444701	-0.451660	0.122070	-0.767578	0.793281	-0.065835	-0.466758	0.385368
13599		6.228495	-4.061432	4.653071	-0.034917	0.915929	0.353829	-0.441650	0.132324	-0.772461	0.795661	-0.070414	-0.460635	0.387015
13600		5.881970	-4.123122	4.366432	-0.023874	0.839152	0.300594	-0.416992	0.132080	-0.781006	0.797880	-0.074469	-0.454992	0.388362
13601		5.929319	-4.529476	4.802089	-0.026153	0.748669	0.215314	-0.409180	0.130371	-0.785645	0.799990	-0.077916	-0.449979	0.389185
13602		5.816666	-4.862346	4.587698	0.064763	0.648824	0.215561	-0.406494	0.133301	-0.794434	0.801751	-0.080427	-0.445323	0.390403
13603		4.937937	-4.610553	4.549318	0.176418	0.554975	0.158919	-0.391602	0.134277	-0.797119	0.803402	-0.081677	-0.440960	0.391700
13604		5.551969	-3.898290	4.549848	0.105949	0.461012	0.128286	-0.381348	0.122070	-0.799805	0.804743	-0.082983	-0.437466	0.392589
13605		5.441732	-3.666643	3.920646	0.155759	0.355689	0.140793	-0.393555	0.128174	-0.799072	0.805678	-0.083643	-0.434496	0.393827
13606		5.300299	-3.260106	4.457157	0.111839	0.244006	0.071807	-0.379395	0.127686	-0.809082	0.806402	-0.083991	-0.432480	0.394490
13607		4.857060	-3.079087	4.668127	0.021008	0.146050	0.059915	-0.376953	0.121094	-0.813965	0.806747	-0.084584	-0.431416	0.394823
13608		4.974940	-2.834049	4.875060	-0.162623	0.064816	-0.003254	-0.380859	0.123047	-0.804688	0.806874	-0.085911	-0.431547	0.394134
13609		6.095975	-3.250523	3.955788	-0.259149	-0.044720	-0.004500	-0.380615	0.133057	-0.807129	0.806541	-0.087525	-0.432734	0.393157
13610		5.009387	-4.041385	4.472428	-0.270399	-0.159529	-0.131139	-0.383789	0.124268	-0.798584	0.806198	-0.088386	-0.434820	0.391361
13611		5.061752	-4.525507	4.033274	-0.197168	-0.248492	-0.205346	-0.383545	0.139648	-0.799316	0.805817	-0.088185	-0.437314	0.389409
13612		5.230081	-4.766938	4.429396	-0.152930	-0.340823	-0.263067	-0.399170	0.139893	-0.798340	0.805315	-0.087192	-0.440325	0.387270
13613		6.202259	-4.641870	4.211664	-0.151560	-0.466777	-0.279885	-0.394043	0.134521	-0.797119	0.804388	-0.085715	-0.444185	0.385114
13614		5.485057	-4.772148	3.935887	-0.023195	-0.566698	-0.366527	-0.418457	0.138428	-0.795166	0.803435	-0.082728	-0.448343	0.382932
13615		5.832942	-4.433836	3.929270	0.052635	-0.678134	-0.422659	-0.421143	0.130371	-0.782471	0.802268	-0.078672	-0.453040	0.380698
13616		5.099642	-4.082430	4.061348	0.121381	-0.754639	-0.473688	-0.429443	0.127197	-0.781006	0.800976	-0.073714	-0.458036	0.378426
13617		5.573195	-3.972438	4.138509	0.015780	-0.840511	-0.523503	-0.437012	0.124268	-0.778076	0.799400	-0.068998	-0.463938	0.375447
13618		6.332886	-4.218331	4.391167	-0.114575	-0.920532	-0.554217	-0.458252	0.123535	-0.765381	0.797476	-0.064779	-0.470762	0.371778
13619		7.062949	-4.446071	4.627920	-0.134017	-0.971119	-0.606852	-0.463379	0.119141	-0.760742	0.795435	-0.060323	-0.477984	0.367663
13620		7.389914	-4.470704	3.663968	0.039444	-1.028726	-0.580844	-0.481201	0.103760	-0.750000	0.793096	-0.054636	-0.484985	0.364422
13621		6.092026	-4.306171	4.249060	0.148947	-1.110370	-0.718836	-0.499023	0.108887	-0.743164	0.790797	-0.047388	-0.492202	0.360738
13622		6.579256	-3.498688	4.048362	0.075983	-1.177345	-0.753549	-0.505615	0.093262	-0.727051	0.788210	-0.040313	-0.500046	0.356446
13623		8.168497	-4.265233	3.734458	-0.051658	-1.229657	-0.692250	-0.528809	0.099854	-0.710938	0.785063	-0.034146	-0.508508	0.352037
13624		7.007883	-4.741108	4.031861	0.042382	-1.224609	-0.817745	-0.550293	0.084961	-0.710938	0.782228	-0.026884	-0.516656	0.347079
13625		7.254795	-3.925823	4.068695	0.037189	-1.253155	-0.935891	-0.562744	0.080078	-0.694580	0.779471	-0.019024	-0.524929	0.341339
13626		7.906697	-3.841771	4.062732	-0.016620	-1.287906	-0.930227	-0.572510	0.077148	-0.684814	0.776408	-0.011458	-0.533497	0.335320
13627		8.678124	-4.753065	3.521503	0.120395	-1.344657	-0.869684	-0.593994	0.069092	-0.666748	0.772808	-0.003142	-0.541948	0.330227
13628		8.726237	-5.549248	3.231541	0.650930	-1.516873	-0.794608	-0.608887	0.048096	-0.650635	0.768071	0.008721	-0.549956	0.327933
13629		8.234922	-6.204313	3.259114	1.122901	-1.647382	-0.840810	-0.620361	0.028809	-0.637207	0.762601	0.024206	-0.557335	0.327461
13630		8.269956	-5.018302	2.396594	1.296116	-1.537936	-0.884616	-0.638428	0.008057	-0.619629	0.757481	0.040675	-0.563341	0.327435
13631		8.358320	-2.525107	2.505196	1.447420	-1.500518	-0.934550	-0.652588	-0.009521	-0.600098	0.752356	0.058201	-0.568503	0.327687
13632		8.774490	-1.119693	2.766471	1.289624	-1.553060	-0.981045	-0.677002	-0.038086	-0.586426	0.746923	0.075025	-0.574236	0.326698
13633		9.662889	-1.386324	3.420262	1.057416	-1.614727	-0.960458	-0.680908	-0.056152	-0.567871	0.741017	0.090491	-0.580799	0.324619
13634		10.617339	-1.844310	2.991353	0.947547	-1.634603	-0.806512	-0.697266	-0.075928	-0.538330	0.734475	0.104530	-0.587706	0.322835
13635		10.097615	-2.026313	2.173365	0.895504	-1.426032	-0.733114	-0.712646	-0.085938	-0.515625	0.728575	0.117348	-0.593404	0.321372
13636		9.962072	-1.437814	1.863010	0.916296	-1.467520	-0.707251	-0.722900	-0.104004	-0.503662	0.722192	0.130197	-0.599240	0.319998
13637		9.084535	-1.032324	2.579568	0.998295	-1.475375	-0.743558	-0.731934	-0.120850	-0.479248	0.715617	0.143705	-0.604685	0.318742
13638		9.430547	-1.133927	2.324659	0.879476	-1.541218	-0.592114	-0.747803	-0.131592	-0.450195	0.708255	0.155901	-0.610873	0.317654
13639		10.036840	-1.527224	1.841192	0.667734	-1.553405	-0.472666	-0.750732	-0.144287	-0.421143	0.700582	0.166243	-0.617758	0.316107
13640		10.815518	-1.356948	1.342130	0.452500	-1.501034	-0.492538	-0.759766	-0.158447	-0.410400	0.693362	0.175339	-0.624722	0.313414
13641		11.207192	-1.121795	0.297960	0.231610	-1.316646	-0.497219	-0.767822	-0.158447	-0.393311	0.687365	0.182672	-0.631034	0.309769
13642		10.588842	-0.884826	0.869318	0.122845	-1.170677	-0.465190	-0.778564	-0.168945	-0.366699	0.682141	0.188700	-0.636821	0.305835
13643		10.393022	-0.978944	1.311313	0.141789	-1.225979	-0.418196	-0.782471	-0.176025	-0.356934	0.676316	0.194849	-0.642865	0.302250
13644		10.255603	-1.467294	1.191513	0.219511	-1.225361	-0.421718	-0.776367	-0.174805	-0.335693	0.670345	0.201388	-0.648599	0.298999
13645		10.372566	-1.837554	0.907634	0.360381	-1.245645	-0.391273	-0.794678	-0.187500	-0.312256	0.663886	0.208502	-0.654089	0.296564
13646		10.876346	-2.090777	0.232528	0.544565	-1.207741	-0.332870	-0.795898	-0.197998	-0.301025	0.657025	0.216319	-0.658908	0.295574
13647		10.859932	-1.580040	0.515608	0.632862	-1.096733	-0.268641	-0.796387	-0.190186	-0.286377	0.650436	0.223945	-0.662889	0.295566
13648		10.754938	-1.091271	0.638728	0.665561	-1.027853	-0.204887	-0.800537	-0.202637	-0.261719	0.643971	0.231045	-0.666520	0.296092
13649		10.633848	-0.919860	0.389698	0.651201	-0.933676	-0.205524	-0.808105	-0.206055	-0.244141	0.637963	0.237954	-0.669557	0.296772
13650		10.617628	-0.712314	0.145778	0.615421	-0.833555	-0.216526	-0.807373	-0.212646	-0.237061	0.632568	0.244451	-0.672071	0.297360
13651		10.578797	-0.472099	0.028303	0.556421	-0.715543	-0.196122	-0.812256	-0.217773	-0.221191	0.627886	0.250198	-0.674090	0.297930
13652		10.494529	-0.348334	0.019551	0.468308	-0.595880	-0.137031	-0.813965	-0.221436	-0.221924	0.623876	0.254853	-0.675790	0.298556
13653		10.551278	-0.720414	-0.003303	0.348059	-0.483475	-0.098304	-0.804688	-0.222900	-0.198730	0.620652	0.258360	-0.677264	0.298924
13654		10.519810	-1.236603	0.146826	0.306007	-0.411862	-0.105301	-0.813721	-0.226074	-0.195801	0.617912	0.261528	-0.678439	0.299180
13655		10.338096	-1.364336	0.125347	0.426649	-0.386788	-0.096069	-0.809082	-0.229492	-0.187988	0.615020	0.265188	-0.679189	0.300212
13656		9.875860	-0.928034	0.023705	0.537545	-0.381650	-0.074861	-0.815918	-0.230225	-0.180420	0.611844	0.269277	-0.679663	0.301984
13657		9.862654	0.136045	-0.409388	0.491534	-0.353654	-0.071196	-0.818604	-0.241211	-0.174316	0.608903	0.273032	-0.680099	0.303572
13658		9.840402	0.431271	-0.377832	0.257216	-0.281542	-0.066814	-0.822266	-0.230469	-0.170166	0.606885	0.275390	-0.680757	0.304009
13659		10.062723	-0.012965	-0.408188	0.006975	-0.232307	-0.059400	-0.819336	-0.225586	-0.164551	0.605695	0.276307	-0.681813	0.303181
13660		10.041555	-0.764551	-0.619104	-0.080333	-0.192108	-0.059866	-0.817871	-0.233887	-0.170654	0.604934	0.276686	-0.682883	0.301945
13661		9.949213	-1.160049	-0.798280	0.042751	-0.194507	-0.047822	-0.820068	-0.232178	-0.164062	0.603851	0.277621	-0.683678	0.301455
13662		9.879485	-0.912802	-0.702191	0.154019	-0.243392	-0.029077	-0.816406	-0.237549	-0.158447	0.602176	0.279134	-0.684481	0.301586
13663		9.989712	-0.667665	-0.951223	0.161902	-0.251512	-0.037447	-0.823242	-0.225586	-0.155518	0.600455	0.280756	-0.685280	0.301697
13664		10.012523	-0.698504	-1.029881	0.145845	-0.231234	-0.063184	-0.822266	-0.241211	-0.159668	0.598947	0.282386	-0.685955	0.301641
13665		10.016043	-0.534224	-0.921481	0.118406	-0.215727	-0.059375	-0.814697	-0.233643	-0.141357	0.597588	0.283817	-0.686625	0.301467
13666		10.072096	-0.413449	-0.925520	0.094283	-0.194970	-0.038307	-0.819092	-0.241211	-0.137695	0.596337	0.284965	-0.687300	0.301323
13667		10.023728	-0.582071	-0.933644	0.024831	-0.183619	-0.034497	-0.816406	-0.235352	-0.142334	0.595309	0.285716	-0.688099	0.300820
13668		9.903398	-0.794321	-0.978333	0.000555	-0.169858	-0.023415	-0.825195	-0.237305	-0.137451	0.594394	0.286237	-0.688916	0.300265
13669		9.875344	-0.662520	-1.093971	0.024239	-0.174650	0.005835	-0.814453	-0.243408	-0.135498	0.593316	0.286725	-0.689765	0.299981
13670		9.952184	-0.685044	-1.117094	-0.001190	-0.172431	0.019750	-0.826904	-0.243408	-0.131104	0.592280	0.287002	-0.690698	0.299619
13671		10.020650	-0.946340	-1.113595	-0.015515	-0.165947	0.011532	-0.817383	-0.238037	-0.123779	0.591330	0.287240	-0.691613	0.299154
13672		9.873898	-0.931510	-0.995558	0.032172	-0.145525	0.007534	-0.815918	-0.239990	-0.124023	0.590391	0.287686	-0.692298	0.298996
13673		9.811520	-0.566704	-1.150792	0.058116	-0.128806	0.015934	-0.820557	-0.240967	-0.129150	0.589469	0.288166	-0.692855	0.299064
13674		9.734220	-0.606091	-1.324502	0.001571	-0.087870	0.021850	-0.813965	-0.233643	-0.119629	0.588907	0.288226	-0.693365	0.298930
13675		9.696411	-0.994125	-1.294092	-0.064537	-0.069335	0.012491	-0.820068	-0.239502	-0.116699	0.588628	0.287976	-0.693925	0.298420
13676		9.784717	-1.055360	-1.276312	-0.017029	-0.080401	0.013678	-0.818848	-0.237549	-0.118164	0.588168	0.287982	-0.694424	0.298162
13677		9.744802	-0.807858	-1.189997	0.061417	-0.064889	0.007912	-0.823486	-0.236328	-0.114746	0.587625	0.288363	-0.694638	0.298365
13678		9.655256	-0.688062	-1.373088	0.091715	-0.048992	-0.002619	-0.825439	-0.233643	-0.124268	0.587126	0.288915	-0.694672	0.298732
13679		9.604415	-0.638519	-1.406483	0.039690	-0.022691	-0.013297	-0.823486	-0.228760	-0.128174	0.586937	0.289201	-0.694683	0.298805
13680		9.731509	-0.686578	-1.427199	-0.010648	-0.005464	-0.023049	-0.823975	-0.237793	-0.124512	0.586992	0.289252	-0.694710	0.298581
13681		9.685589	-0.744840	-1.250041	-0.018027	0.019769	-0.028089	-0.817627	-0.234375	-0.120117	0.587222	0.289243	-0.694620	0.298347
13682		9.774482	-0.812040	-1.233777	0.004557	0.014834	-0.024565	-0.824951	-0.237061	-0.120361	0.587357	0.289340	-0.694506	0.298255
13683		9.873981	-0.709288	-1.411999	0.032422	0.032912	-0.026463	-0.814697	-0.238770	-0.113281	0.587533	0.289539	-0.694229	0.298359
13684		9.901334	-0.675871	-1.353878	0.018946	0.039938	-0.018808	-0.824951	-0.237061	-0.115234	0.587761	0.289617	-0.693969	0.298440
13685		9.876433	-0.507587	-1.283191	-0.011665	0.032558	-0.002189	-0.819580	-0.245850	-0.125977	0.587979	0.289461	-0.693862	0.298409
13686		9.924469	-0.341182	-1.184459	-0.054387	0.028961	0.013391	-0.826172	-0.234619	-0.121094	0.588255	0.289003	-0.693918	0.298180
13687		9.893544	-0.395485	-1.239584	-0.087789	0.040489	0.013491	-0.824463	-0.235352	-0.122559	0.588665	0.288359	-0.693998	0.297808
13688		9.829734	-0.434839	-1.210860	-0.123857	0.046440	0.012509	-0.819336	-0.240234	-0.123047	0.589200	0.287529	-0.694135	0.297231
13689		9.779528	-0.447074	-1.114407	-0.150345	0.038559	0.016307	-0.813232	-0.235107	-0.125488	0.589746	0.286569	-0.694385	0.296491
13690		9.818446	-0.393599	-1.175411	-0.157125	0.034233	0.009980	-0.815674	-0.235107	-0.122070	0.590300	0.285618	-0.694655	0.295673
13691		9.793119	-0.420726	-1.222644	-0.190626	0.041261	0.000242	-0.823486	-0.242676	-0.135986	0.590989	0.284550	-0.694948	0.294635
13692		9.741756	-0.530083	-1.372589	-0.224898	0.048873	0.000403	-0.828125	-0.237549	-0.127930	0.591820	0.283273	-0.695288	0.293394
13693		9.740526	-0.612045	-1.333528	-0.237353	0.049992	0.008542	-0.820801	-0.234375	-0.125244	0.592645	0.281904	-0.695666	0.292149
13694		9.794572	-0.701960	-1.359895	-0.249141	0.049190	0.022840	-0.814697	-0.236572	-0.125488	0.593451	0.280401	-0.696107	0.290906
13695		9.772059	-0.815031	-1.265290	-0.244486	0.042396	0.032351	-0.813477	-0.227783	-0.128418	0.594184	0.278882	-0.696590	0.289711
13696		9.789859	-0.800104	-1.311229	-0.238529	0.041587	0.041267	-0.817383	-0.236572	-0.133789	0.594877	0.277330	-0.697080	0.288598
13697		9.743273	-0.803046	-1.437516	-0.237908	0.042435	0.040180	-0.820068	-0.235596	-0.135498	0.595582	0.275782	-0.697560	0.287466
13698		9.716148	-0.896527	-1.370849	-0.227997	0.034904	0.015676	-0.832275	-0.234375	-0.142578	0.596275	0.274442	-0.697994	0.286254
13699		9.689934	-0.911514	-1.353089	-0.201178	0.042090	0.001079	-0.816162	-0.225830	-0.135498	0.596984	0.273292	-0.698295	0.285142
13700		9.747713	-0.878484	-1.471196	-0.158628	0.048316	-0.003739	-0.825684	-0.234863	-0.141846	0.597630	0.272380	-0.698449	0.284283
13701		9.677460	-0.928184	-1.386453	-0.149021	0.058452	-0.001336	-0.829346	-0.230957	-0.138916	0.598317	0.271472	-0.698534	0.283495
13702		9.634929	-0.831249	-1.311261	-0.142153	0.049120	0.004659	-0.824463	-0.230713	-0.141846	0.598906	0.270595	-0.698662	0.282774
13703		9.729281	-0.821770	-1.419564	-0.131761	0.025853	0.006513	-0.822266	-0.223389	-0.144531	0.599338	0.269807	-0.698885	0.282061
13704		9.710318	-0.794391	-1.332248	-0.121366	0.028469	-0.003674	-0.815918	-0.226074	-0.146484	0.599786	0.269109	-0.699049	0.281368
13705		9.695133	-0.663690	-1.416888	-0.107320	0.038635	-0.009799	-0.817871	-0.224121	-0.144287	0.600283	0.268492	-0.699114	0.280734
13706		9.681963	-0.673657	-1.412127	-0.112163	0.055760	-0.017605	-0.824707	-0.230713	-0.149658	0.600898	0.267868	-0.699086	0.280085
13707		9.670585	-0.780843	-1.307637	-0.118574	0.074210	-0.036832	-0.814941	-0.227051	-0.143799	0.601689	0.267273	-0.698938	0.279323
13708		9.663667	-0.754316	-1.245887	-0.107187	0.074805	-0.046931	-0.822266	-0.227783	-0.154297	0.602464	0.266816	-0.698733	0.278600
13709		9.722976	-0.643786	-1.217022	-0.109068	0.078137	-0.034326	-0.819580	-0.228271	-0.159668	0.603254	0.266230	-0.698548	0.277914
13710		9.696064	-0.641981	-1.282557	-0.135223	0.101510	-0.024860	-0.825684	-0.234619	-0.150391	0.604228	0.265385	-0.698328	0.277158
13711		9.823447	-0.601008	-1.239473	-0.167622	0.104087	-0.016095	-0.827637	-0.225830	-0.145020	0.605231	0.264389	-0.698179	0.276297
13712		9.905414	-0.721003	-1.301901	-0.164776	0.107941	-0.004840	-0.815674	-0.223389	-0.157715	0.606187	0.263359	-0.698026	0.275572
13713		9.930278	-0.821935	-1.214300	-0.150922	0.108901	0.004629	-0.812988	-0.224609	-0.161621	0.607144	0.262269	-0.697862	0.274917
13714		9.913947	-0.758472	-0.992162	-0.121773	0.101194	0.001505	-0.811279	-0.229492	-0.159424	0.608008	0.261355	-0.697663	0.274382
13715		9.998150	-0.682179	-1.134286	-0.122422	0.115516	-0.008676	-0.820801	-0.228760	-0.162842	0.608970	0.260498	-0.697363	0.273827
13716		9.993533	-0.668853	-1.130700	-0.123476	0.147517	-0.009324	-0.816650	-0.226562	-0.159912	0.610115	0.259561	-0.696902	0.273342
13717		9.928877	-0.576841	-0.875772	-0.121632	0.163682	-0.007671	-0.822510	-0.227051	-0.176758	0.611325	0.258613	-0.696353	0.272934
13718		9.924354	-0.469831	-0.825112	-0.119475	0.170536	0.000294	-0.818848	-0.222168	-0.172119	0.612601	0.257530	-0.695789	0.272536
13719		10.014206	-0.575462	-0.754961	-0.147143	0.177725	0.010304	-0.820068	-0.224365	-0.169678	0.613920	0.256269	-0.695268	0.272086
13720		10.063730	-0.562416	-0.736439	-0.189770	0.201137	0.027421	-0.817871	-0.225098	-0.177246	0.615404	0.254681	-0.694749	0.271549
13721		10.033551	-0.326674	-0.726854	-0.250634	0.247029	0.057575	-0.818115	-0.215576	-0.179443	0.617233	0.252473	-0.694194	0.270878
13722		10.014455	-0.133761	-0.556941	-0.339658	0.292786	0.093578	-0.811523	-0.220947	-0.196045	0.619407	0.249488	-0.693677	0.270005
13723		10.120493	-0.193524	-0.346774	-0.444620	0.311622	0.116938	-0.826904	-0.217529	-0.190674	0.621914	0.245714	-0.693335	0.268580
13724		10.153832	-0.250423	-0.403829	-0.537621	0.352064	0.148756	-0.820068	-0.212891	-0.207275	0.624680	0.241277	-0.693031	0.266961
13725		10.082410	-0.249384	-0.528860	-0.634653	0.396280	0.196323	-0.809570	-0.210205	-0.216064	0.627825	0.235868	-0.692790	0.265035
13726		10.120999	-0.396433	-0.496122	-0.713554	0.450324	0.235197	-0.817627	-0.209717	-0.223877	0.631345	0.229681	-0.692478	0.262916
13727		10.279970	-0.395250	-0.479192	-0.803375	0.518031	0.266424	-0.817139	-0.201416	-0.239746	0.635307	0.222714	-0.692018	0.260567
13728		10.290175	-0.414691	-0.196219	-0.927139	0.580006	0.312838	-0.809570	-0.186279	-0.247314	0.639732	0.214615	-0.691533	0.257808
13729		10.381359	-0.504260	-0.142418	-1.019575	0.635000	0.350347	-0.806885	-0.183105	-0.254883	0.644477	0.205666	-0.690954	0.254821
13730		10.254722	-0.773812	-0.080133	-1.055709	0.680570	0.356646	-0.816162	-0.176514	-0.271729	0.649446	0.196426	-0.690126	0.251720
13731		10.190556	-0.937400	0.248088	-1.075319	0.724368	0.354634	-0.802490	-0.176270	-0.286865	0.654632	0.186961	-0.689014	0.248521
13732		10.294339	-1.144652	0.144348	-1.072562	0.745497	0.354684	-0.804688	-0.152588	-0.293945	0.659902	0.177449	-0.687666	0.245268
13733		10.482583	-1.353487	0.067083	-1.035677	0.773174	0.356473	-0.808105	-0.141846	-0.310547	0.665120	0.168054	-0.686032	0.242351
13734		10.470131	-1.732013	-0.005251	-0.907450	0.791230	0.389760	-0.802246	-0.136963	-0.319336	0.670121	0.159095	-0.684006	0.240337
13735		10.454623	-2.124700	0.185997	-0.698092	0.801525	0.429223	-0.796143	-0.120117	-0.342041	0.674745	0.151107	-0.681476	0.239741
13736		10.252944	-2.337039	0.373018	-0.497525	0.807257	0.443739	-0.783936	-0.122559	-0.350830	0.679124	0.143987	-0.678474	0.240272
13737		10.181803	-2.421156	0.626081	-0.337821	0.825524	0.427275	-0.784912	-0.118652	-0.371826	0.683421	0.137898	-0.674945	0.241599
13738		10.123537	-2.093563	0.724871	-0.207068	0.846192	0.409576	-0.785645	-0.098389	-0.375000	0.687730	0.132540	-0.670948	0.243494
13739		10.020885	-1.849429	0.627930	-0.085582	0.875318	0.425006	-0.770508	-0.096924	-0.394287	0.691892	0.127738	-0.666565	0.246293
13740		9.991339	-2.019471	0.826940	-0.045317	0.904644	0.414170	-0.776123	-0.087646	-0.397949	0.696244	0.123080	-0.661830	0.249152
13741		9.732153	-2.060344	1.031748	-0.016961	0.911673	0.368864	-0.771973	-0.091553	-0.415771	0.700552	0.118910	-0.656945	0.252013
13742		9.822010	-1.818467	1.207034	-0.026964	0.912106	0.350981	-0.760498	-0.087158	-0.422607	0.704926	0.114764	-0.651978	0.254622
13743		10.000004	-1.810866	0.650645	0.091907	0.914478	0.415890	-0.761719	-0.083252	-0.432373	0.708994	0.110999	-0.646760	0.258280
13744		9.973794	-2.068863	0.934749	0.183828	0.932106	0.458452	-0.755371	-0.081055	-0.447266	0.712891	0.107553	-0.641245	0.262725
13745		9.293587	-1.975771	1.411146	0.247596	0.905564	0.442215	-0.746094	-0.068604	-0.461914	0.716601	0.104605	-0.635666	0.267338
13746		9.704086	-2.148675	1.815736	0.080356	0.914236	0.417586	-0.740234	-0.068604	-0.467529	0.720520	0.100647	-0.630356	0.270874
13747		9.882327	-1.709710	1.664824	-0.034885	0.997005	0.413557	-0.735840	-0.065186	-0.485840	0.724888	0.095933	-0.624756	0.273887
13748		9.832092	-1.835050	1.946327	-0.150102	1.038463	0.412855	-0.726807	-0.057617	-0.504883	0.729546	0.090384	-0.619093	0.276256
13749		9.624096	-1.771510	1.907045	-0.195106	1.035675	0.393548	-0.714355	-0.051270	-0.513672	0.734252	0.084579	-0.613461	0.278183
13750		9.435892	-2.181425	2.448183	-0.280238	1.030263	0.377062	-0.704346	-0.044189	-0.521973	0.738946	0.078376	-0.607992	0.279572
13751		9.795728	-2.400159	2.438300	-0.311078	1.051473	0.437852	-0.701416	-0.036133	-0.544434	0.743526	0.071665	-0.602457	0.281212
13752		9.507969	-2.726612	2.415824	-0.235018	1.053642	0.481691	-0.690186	-0.034424	-0.558105	0.747949	0.065105	-0.596676	0.283394
13753		9.277945	-2.871806	2.522121	-0.188803	1.032107	0.469417	-0.677002	-0.029297	-0.565430	0.752227	0.058983	-0.590814	0.285683
13754		9.424056	-2.986056	2.884434	-0.143035	1.031388	0.451778	-0.675049	-0.020752	-0.578125	0.756421	0.053297	-0.584786	0.288118
13755		8.914247	-2.931252	2.940027	-0.059347	1.028896	0.452854	-0.666504	-0.007812	-0.585205	0.760452	0.048146	-0.578561	0.290968
13756		8.985551	-3.144649	3.427262	-0.080488	1.045765	0.424530	-0.658691	-0.008301	-0.603760	0.764504	0.042948	-0.572282	0.293567
13757		9.678088	-3.197340	3.315394	0.007982	1.041918	0.446856	-0.641357	0.001953	-0.620361	0.768426	0.038225	-0.565722	0.296678
13758		8.645009	-3.869502	3.145994	0.218559	1.041457	0.416157	-0.621826	0.006104	-0.626221	0.772314	0.034900	-0.558574	0.300514
13759		8.633048	-3.544175	3.767616	0.301161	1.033535	0.383273	-0.619385	-0.002441	-0.630371	0.776123	0.032303	-0.551223	0.304536
13760		8.848226	-2.923437	3.849930	0.340356	1.037216	0.431517	-0.608643	-0.008301	-0.651123	0.779678	0.029887	-0.543733	0.309132
13761		9.055943	-3.475856	4.002817	0.310851	1.039498	0.468764	-0.600098	-0.008057	-0.654297	0.783116	0.027094	-0.536218	0.313794
13762		8.625692	-3.257220	4.742491	0.301272	1.028536	0.457266	-0.585205	0.002441	-0.669189	0.786410	0.024355	-0.528789	0.318353
13763		9.130339	-2.646697	4.624363	0.353611	0.978974	0.582817	-0.585938	0.003418	-0.684814	0.789083	0.021439	-0.521538	0.323863
13764		8.651485	-3.036187	4.772571	0.359585	0.977901	0.662701	-0.562012	0.013428	-0.686035	0.791442	0.018231	-0.514256	0.329891
13765		8.444845	-2.894230	4.951827	0.359260	0.934917	0.659436	-0.557129	-0.000977	-0.692871	0.793551	0.015112	-0.507213	0.335832
13766		8.408771	-2.402586	4.959525	0.276967	0.937454	0.644803	-0.542725	0.002930	-0.709717	0.795615	0.011610	-0.500310	0.341396
13767		7.996583	-2.541061	5.112047	0.176721	0.953602	0.629280	-0.536377	0.000000	-0.718994	0.797745	0.007425	-0.493528	0.346380
13768		7.793698	-2.583647	5.404921	0.088181	0.899994	0.610290	-0.519531	0.009277	-0.727295	0.799631	0.002903	-0.487320	0.350857
13769		7.605763	-2.652233	5.383994	-0.025848	0.888878	0.632073	-0.513672	0.019287	-0.737305	0.801360	-0.002476	-0.481488	0.354943
13770		7.432599	-2.766732	5.171777	-0.230146	0.934596	0.641353	-0.500244	0.025391	-0.745361	0.803173	-0.009403	-0.475925	0.358219
13771		7.540276	-3.338032	4.851374	-0.344669	0.940653	0.664812	-0.484375	0.029297	-0.751953	0.804851	-0.017198	-0.470610	0.361173
13772		6.874048	-4.351345	4.464293	-0.302026	0.945204	0.634955	-0.475098	0.043457	-0.753906	0.806560	-0.024593	-0.465091	0.364069
13773		6.856081	-5.003749	4.408041	-0.188525	0.899985	0.583036	-0.466797	0.048828	-0.769287	0.808206	-0.030898	-0.459512	0.367011
13774		6.513199	-5.077353	4.728674	-0.042777	0.860410	0.552905	-0.458740	0.052979	-0.767822	0.809766	-0.035980	-0.453722	0.370299
13775		6.395520	-4.694886	4.974021	0.047043	0.827460	0.536374	-0.440918	0.055908	-0.783447	0.811219	-0.040289	-0.447856	0.373798
13776		6.135615	-3.643019	4.619452	0.068428	0.833567	0.528122	-0.428955	0.057129	-0.790039	0.812677	-0.044442	-0.441846	0.377298
13777		6.392313	-3.400423	4.488194	-0.035248	0.803170	0.546321	-0.413330	0.058350	-0.796387	0.813871	-0.049265	-0.436333	0.380526
13778		6.114820	-3.868583	4.501486	-0.056724	0.730145	0.521519	-0.409668	0.062012	-0.802979	0.814821	-0.053907	-0.431368	0.383513
13779		5.861362	-4.163204	4.537690	0.031874	0.659166	0.459438	-0.397217	0.064697	-0.797363	0.815712	-0.057497	-0.426614	0.386405
13780		5.202678	-3.586208	4.973210	0.057593	0.613502	0.404150	-0.390625	0.067383	-0.805664	0.816599	-0.060569	-0.422097	0.389014
13781		5.306858	-2.661186	4.965460	-0.155102	0.605455	0.356244	-0.379639	0.070068	-0.810059	0.817476	-0.064892	-0.418332	0.390539
13782		5.923240	-2.408707	4.770247	-0.503263	0.528285	0.342327	-0.365723	0.086182	-0.814697	0.817908	-0.071283	-0.416215	0.390783
13783		5.863282	-3.942332	3.970899	-0.529491	0.421609	0.328402	-0.366455	0.083252	-0.822754	0.817970	-0.077461	-0.414901	0.390874
13784		4.573580	-5.066895	4.300753	-0.225923	0.277521	0.190006	-0.359131	0.092285	-0.821777	0.818153	-0.080606	-0.413661	0.391169
13785		4.468045	-4.566657	4.727102	0.007598	0.118465	0.125934	-0.372559	0.087158	-0.824463	0.818150	-0.081430	-0.412787	0.391927
13786		4.531189	-3.989391	4.805293	0.040576	0.028371	0.093083	-0.361084	0.088135	-0.820068	0.817963	-0.081618	-0.412442	0.392640
13787		5.301907	-3.524908	4.410625	-0.089991	-0.088345	0.038973	-0.368164	0.086182	-0.823730	0.817464	-0.082131	-0.413354	0.392613
13788		5.044442	-3.413056	4.298473	-0.126155	-0.173758	-0.053182	-0.360107	0.085205	-0.819824	0.816945	-0.082293	-0.415030	0.391891
13789		4.888031	-3.564054	4.354388	-0.099551	-0.334988	-0.138287	-0.371582	0.093262	-0.818604	0.816160	-0.081453	-0.417773	0.390788
13790		4.721965	-3.790386	4.419459	-0.009059	-0.456978	-0.209325	-0.383789	0.087891	-0.811523	0.815231	-0.079353	-0.421094	0.389590
13791		5.204195	-3.874458	4.596327	-0.046098	-0.569843	-0.248955	-0.377197	0.096924	-0.811279	0.813991	-0.076996	-0.425320	0.388063
13792		5.519436	-3.930530	4.406900	-0.106110	-0.647659	-0.283306	-0.391602	0.094482	-0.806152	0.812524	-0.074675	-0.430275	0.386123
13793		5.699414	-3.768275	4.344228	-0.173437	-0.722851	-0.377924	-0.410889	0.101318	-0.802490	0.811013	-0.072222	-0.436000	0.383335
13794		5.820960	-3.760781	4.259847	-0.115878	-0.805045	-0.449102	-0.423828	0.092773	-0.791260	0.809422	-0.068859	-0.442117	0.380297
13795		6.182227	-4.140590	4.212788	-0.036975	-0.936750	-0.492983	-0.435547	0.094482	-0.786865	0.807471	-0.064373	-0.448867	0.377313
13796		5.700790	-4.169332	4.685744	0.192355	-1.043954	-0.519359	-0.447266	0.088623	-0.776123	0.805256	-0.057910	-0.455593	0.375025
13797		6.052436	-3.543852	4.963706	0.157219	-1.145121	-0.525289	-0.453857	0.085693	-0.769775	0.802574	-0.051339	-0.463063	0.372574
13798		6.762943	-2.925419	4.574231	-0.051816	-1.174239	-0.509757	-0.467773	0.077148	-0.756104	0.799555	-0.046135	-0.471314	0.369387
13799		7.097716	-3.109971	4.395949	-0.261541	-1.210828	-0.580477	-0.489502	0.078857	-0.744141	0.796424	-0.041920	-0.480424	0.364890
13800		7.295254	-3.378587	4.209186	-0.309158	-1.241913	-0.625575	-0.505127	0.078613	-0.738281	0.793182	-0.037746	-0.489843	0.359848
13801		7.548058	-3.841672	4.281989	-0.318064	-1.321771	-0.638883	-0.524414	0.088379	-0.723389	0.789535	-0.033335	-0.499746	0.354651
13802		7.430605	-4.726130	4.145224	-0.203932	-1.354522	-0.660672	-0.541992	0.070312	-0.716064	0.785734	-0.028021	-0.509469	0.349683
13803		7.477180	-5.113857	3.890168	-0.034457	-1.415442	-0.687971	-0.555908	0.071533	-0.708252	0.781636	-0.021233	-0.518998	0.345304
13804		7.535297	-4.559704	4.075223	0.132213	-1.468659	-0.733261	-0.575439	0.059570	-0.682861	0.777343	-0.013046	-0.528310	0.341258
13805		9.183199	-4.457916	3.884128	0.168286	-1.533319	-0.700902	-0.602295	0.061035	-0.666992	0.772510	-0.004559	-0.537842	0.337541
13806		7.679061	-4.011378	3.489292	0.441353	-1.521007	-0.774273	-0.615723	0.039795	-0.650391	0.767798	0.005927	-0.546446	0.334436
13807		8.133220	-3.918758	3.425051	0.548240	-1.633626	-0.812176	-0.625977	0.027344	-0.632080	0.762477	0.017639	-0.555322	0.331564
13808		8.280279	-3.672828	4.048151	0.672995	-1.746661	-0.794604	-0.646240	0.012939	-0.608398	0.756369	0.030351	-0.564420	0.329264
13809		8.870453	-3.295888	3.173290	0.385667	-1.681216	-0.762430	-0.659912	-0.001709	-0.602539	0.750344	0.040913	-0.573762	0.325740
13810		9.482504	-2.508213	3.111216	0.027550	-1.552787	-0.771844	-0.680664	-0.005859	-0.573975	0.744923	0.048927	-0.583109	0.320437
13811		10.733134	-2.073489	2.919692	-0.215140	-1.555741	-0.748276	-0.689209	-0.006348	-0.555908	0.739353	0.055295	-0.593050	0.313993
13812		9.462639	-2.695126	2.853850	-0.072888	-1.598332	-0.800442	-0.707275	-0.019531	-0.533936	0.733501	0.062837	-0.602738	0.307791
13813		9.292134	-3.560196	1.853309	0.331109	-1.768616	-0.686116	-0.724121	-0.033203	-0.505127	0.726086	0.072757	-0.612341	0.304211
13814		8.499932	-4.353951	1.738166	0.567296	-1.725922	-0.657275	-0.737549	-0.036865	-0.494873	0.718456	0.083882	-0.620953	0.301997
13815		9.494118	-4.086660	1.269958	0.609936	-1.707822	-0.664066	-0.751221	-0.053223	-0.472412	0.710767	0.095093	-0.629197	0.299799
13816		10.427914	-3.371138	0.986031	0.636327	-1.591831	-0.718938	-0.759277	-0.062744	-0.449951	0.703610	0.106480	-0.636476	0.297479
13817		10.755911	-2.523415	1.384707	0.534577	-1.489669	-0.772254	-0.775146	-0.086670	-0.431152	0.697061	0.117229	-0.643234	0.294301
13818		11.570268	-2.099791	0.986316	0.561198	-1.456791	-0.732579	-0.781006	-0.090576	-0.404541	0.690389	0.127949	-0.649599	0.291570
13819		10.113295	-1.599267	0.437315	0.731616	-1.339448	-0.728416	-0.778076	-0.097168	-0.376221	0.684014	0.139226	-0.654801	0.289787
13820		9.715760	-1.255169	0.966041	0.787813	-1.328336	-0.730172	-0.791992	-0.122070	-0.364502	0.677489	0.150735	-0.659703	0.288235
13821		10.377922	-1.171504	1.122940	0.812353	-1.287790	-0.675361	-0.796631	-0.128418	-0.348145	0.670890	0.162066	-0.664196	0.287201
13822		10.921558	-2.000936	0.859982	0.694294	-1.252122	-0.611342	-0.799561	-0.141602	-0.325439	0.664402	0.172147	-0.668773	0.285794
13823		11.288594	-2.498795	0.570108	0.627850	-1.221656	-0.571456	-0.806641	-0.156494	-0.303955	0.657953	0.181604	-0.673274	0.284289
13824		11.340303	-2.032218	0.222241	0.624869	-1.124174	-0.555333	-0.805908	-0.159668	-0.283447	0.651890	0.190791	-0.677152	0.283025
13825		10.979198	-1.309265	-0.132767	0.663768	-1.008126	-0.537814	-0.820557	-0.162842	-0.267334	0.646298	0.199722	-0.680278	0.282190
13826		10.340118	-1.012125	-0.169617	0.740283	-0.886056	-0.490080	-0.814209	-0.180176	-0.250488	0.641081	0.208413	-0.682604	0.282189
13827		9.990849	-1.141547	0.165418	0.770753	-0.827003	-0.407262	-0.810547	-0.195801	-0.232666	0.635904	0.216763	-0.684535	0.282936
13828		10.215880	-1.241643	0.091321	0.743118	-0.805185	-0.327469	-0.827393	-0.196045	-0.234863	0.630668	0.224478	-0.686460	0.283972
13829		10.339945	-1.010676	-0.098299	0.651493	-0.734370	-0.254040	-0.821045	-0.205811	-0.218506	0.625829	0.230982	-0.688339	0.284911
13830		10.286394	-0.715343	-0.105505	0.537793	-0.650336	-0.159289	-0.819336	-0.203857	-0.203857	0.621420	0.236184	-0.690174	0.285859
13831		10.332636	-0.330335	-0.258344	0.356448	-0.592610	-0.081698	-0.819336	-0.207520	-0.187744	0.617482	0.239851	-0.692268	0.286273
13832		10.374508	-0.563396	-0.510030	0.290539	-0.494402	-0.045615	-0.828369	-0.207031	-0.182373	0.614133	0.242751	-0.694062	0.286690
13833		10.265307	-1.152282	-0.581865	0.246565	-0.427547	-0.035311	-0.818115	-0.209229	-0.186279	0.611229	0.245187	-0.695627	0.287029
13834		10.304504	-1.456039	-0.652367	0.244317	-0.359907	-0.065198	-0.827393	-0.216553	-0.169678	0.608801	0.247602	-0.696780	0.287319
13835		10.290132	-1.706575	-0.663856	0.323051	-0.328956	-0.084934	-0.826416	-0.215088	-0.166992	0.606411	0.250483	-0.697534	0.288045
13836		10.132155	-1.479768	-0.818355	0.395741	-0.309106	-0.078440	-0.830078	-0.218262	-0.158447	0.603965	0.253629	-0.698016	0.289260
13837		9.931774	-1.320308	-1.081715	0.542602	-0.267941	-0.093004	-0.828613	-0.217529	-0.150391	0.601467	0.257499	-0.697891	0.291342
13838		10.086359	-0.896520	-0.971136	0.576316	-0.297537	-0.110085	-0.814941	-0.217773	-0.135010	0.598748	0.261702	-0.697776	0.293465
13839		10.392898	-0.617241	-1.141960	0.579059	-0.310135	-0.088577	-0.830078	-0.226318	-0.137939	0.595879	0.265820	-0.697742	0.295676
13840		10.197773	-0.804055	-1.198108	0.534121	-0.261746	-0.073642	-0.824707	-0.224854	-0.130371	0.593346	0.269490	-0.697593	0.297790
13841		9.868745	-0.882583	-1.050612	0.487184	-0.233874	-0.070748	-0.820312	-0.221191	-0.123291	0.591059	0.272839	-0.697414	0.299704
13842		9.633329	-0.555567	-0.823289	0.466024	-0.217822	-0.072849	-0.826660	-0.224854	-0.125244	0.588906	0.276050	-0.697190	0.301517
13843		9.662447	-0.318337	-0.884452	0.419736	-0.213843	-0.062653	-0.830566	-0.227539	-0.116699	0.586851	0.278958	-0.697073	0.303112
13844		9.826466	-0.502910	-1.263599	0.367020	-0.197497	-0.052451	-0.823975	-0.230957	-0.112305	0.584977	0.281509	-0.697023	0.304488
13845		9.908212	-0.586905	-1.290491	0.311307	-0.161823	-0.040500	-0.820801	-0.240234	-0.114014	0.583407	0.283626	-0.696961	0.305677
13846		9.872625	-0.527330	-1.053063	0.275271	-0.125246	-0.023149	-0.829102	-0.228760	-0.106689	0.582090	0.285368	-0.696849	0.306819
13847		9.953106	-0.437159	-1.136862	0.217830	-0.086558	0.007893	-0.833984	-0.228760	-0.102539	0.581045	0.286555	-0.696766	0.307880
13848		9.955363	-0.523768	-1.363487	0.111922	-0.055519	0.057336	-0.827148	-0.232910	-0.103760	0.580306	0.286863	-0.696919	0.308639
13849		10.041087	-0.685319	-1.325600	0.027749	-0.051322	0.120968	-0.834717	-0.222656	-0.097656	0.579633	0.286382	-0.697420	0.309218
13850		9.981074	-0.902128	-1.234146	0.025352	-0.070555	0.180292	-0.823975	-0.219727	-0.102295	0.578695	0.285596	-0.698160	0.310032
13851		9.910408	-1.163939	-1.334401	0.026122	-0.035123	0.221025	-0.832764	-0.225830	-0.104004	0.577860	0.284480	-0.698822	0.311122
13852		9.735058	-1.264748	-1.289680	0.017494	0.004444	0.235322	-0.831299	-0.227295	-0.097900	0.577238	0.283136	-0.699347	0.312321
13853		9.737923	-1.255450	-1.366144	0.032497	0.018485	0.261853	-0.836426	-0.217773	-0.103516	0.576587	0.281679	-0.699823	0.313771
13854		9.808622	-1.334019	-1.347544	0.037705	0.030883	0.284121	-0.834473	-0.216064	-0.090820	0.575937	0.280074	-0.700276	0.315386
13855		9.681243	-1.384996	-0.965838	0.024361	0.025978	0.289286	-0.833008	-0.201904	-0.096924	0.575264	0.278402	-0.700794	0.316942
13856		9.647078	-1.263318	-0.605497	0.000252	-0.048677	0.288153	-0.824463	-0.207520	-0.095947	0.574217	0.276803	-0.701727	0.318174
13857		9.977427	-1.251586	-1.402141	0.014885	0.016062	0.255883	-0.832520	-0.205811	-0.095459	0.573601	0.275292	-0.702232	0.319479
13858		9.806141	-1.461009	-1.630437	0.036662	0.051161	0.177446	-0.833984	-0.200684	-0.098877	0.573346	0.274250	-0.702328	0.320618
13859		9.877208	-1.460449	-1.629480	0.169664	0.013542	0.113261	-0.831543	-0.195068	-0.093506	0.572737	0.274317	-0.702101	0.322143
13860		9.916930	-1.308852	-1.273183	0.212369	0.045464	0.099925	-0.841309	-0.193359	-0.098633	0.572248	0.274582	-0.701574	0.323929
13861		9.745556	-1.196289	-0.869599	0.156688	0.064021	0.073645	-0.837158	-0.191406	-0.096680	0.572068	0.274681	-0.701047	0.325303
13862		9.791575	-0.958885	-1.202202	0.127604	0.072884	0.035378	-0.834961	-0.190186	-0.096924	0.572108	0.274843	-0.700467	0.326345
13863		9.735814	-1.025125	-1.261512	0.091975	0.093654	-0.007321	-0.837158	-0.192871	-0.104492	0.572466	0.275027	-0.699785	0.327022
13864		9.692396	-1.189027	-1.320993	0.034303	0.082855	-0.032853	-0.838867	-0.198730	-0.095947	0.572968	0.275111	-0.699253	0.327211
13865		9.718725	-1.119860	-1.361823	0.006273	0.081894	-0.028704	-0.829102	-0.199707	-0.112793	0.573510	0.275050	-0.698810	0.327259
13866		9.592577	-1.068899	-1.324828	0.003613	0.081838	-0.013879	-0.830322	-0.196533	-0.103027	0.574031	0.274871	-0.698411	0.327348
13867		9.483371	-1.069481	-1.294978	-0.011797	0.046484	-0.003031	-0.827881	-0.193604	-0.110352	0.574339	0.274668	-0.698245	0.327332
13868		9.412444	-1.219268	-1.239891	-0.044807	0.028071	0.002186	-0.831543	-0.194336	-0.106445	0.574607	0.274317	-0.698270	0.327102
13869		9.392032	-1.427501	-1.376856	-0.076702	0.010791	0.012641	-0.831055	-0.197998	-0.104980	0.574813	0.273808	-0.698488	0.326701
13870		9.364501	-1.584692	-1.503494	-0.079308	0.007590	0.035141	-0.835449	-0.196777	-0.102783	0.574945	0.273168	-0.698778	0.326384
13871		9.388571	-1.511663	-1.518065	-0.044507	-0.010558	0.063906	-0.826416	-0.190674	-0.106689	0.574810	0.272578	-0.699126	0.326369
13872		9.420963	-1.407817	-1.511374	-0.019624	-0.031397	0.090906	-0.829102	-0.188477	-0.103516	0.574430	0.271995	-0.699569	0.326576
13873		9.440938	-1.478451	-1.478513	-0.034893	-0.039767	0.110549	-0.837891	-0.190674	-0.109375	0.573977	0.271253	-0.700137	0.326772
13874		9.465134	-1.649988	-1.491318	-0.057429	-0.046974	0.130018	-0.833496	-0.188232	-0.102295	0.573487	0.270299	-0.700845	0.326905
13875		9.489864	-1.718426	-1.521521	-0.038279	-0.057903	0.140004	-0.837158	-0.184570	-0.099365	0.572853	0.269420	-0.701574	0.327179
13876		9.549613	-1.706537	-1.531245	0.003032	-0.070053	0.163395	-0.840576	-0.182373	-0.101807	0.571988	0.268636	-0.702299	0.327782
13877		9.516204	-1.673838	-1.505005	0.027446	-0.069858	0.187638	-0.836426	-0.176025	-0.099854	0.571007	0.267817	-0.703010	0.328638
13878		9.534430	-1.749957	-1.459951	0.022219	-0.066396	0.217919	-0.847656	-0.181396	-0.104492	0.569972	0.266785	-0.703784	0.329615
13879		9.658683	-1.794539	-1.370241	0.016113	-0.070612	0.244756	-0.839355	-0.176758	-0.100830	0.568858	0.265570	-0.704653	0.330661
13880		9.655470	-1.811432	-1.348254	0.014586	-0.065411	0.271527	-0.840332	-0.166748	-0.094238	0.567698	0.264180	-0.705557	0.331839
13881		9.555095	-1.896101	-1.350205	0.001647	-0.052051	0.304172	-0.833740	-0.161621	-0.097168	0.566539	0.262510	-0.706499	0.333139
13882		9.660496	-1.954014	-1.335686	-0.009371	-0.046358	0.326038	-0.838135	-0.155029	-0.090332	0.565383	0.260629	-0.707488	0.334477
13883		9.768922	-1.972571	-1.315763	-0.004079	-0.050624	0.340444	-0.842773	-0.150391	-0.097168	0.564135	0.258711	-0.708507	0.335914
13884		9.784280	-1.949102	-1.310333	0.004187	-0.035167	0.351829	-0.843262	-0.154541	-0.094482	0.562936	0.256702	-0.709451	0.337471
13885		9.794870	-2.001756	-1.297189	-0.000580	-0.018891	0.358954	-0.844727	-0.144775	-0.093018	0.561819	0.254588	-0.710340	0.339059
13886		9.818115	-2.021232	-1.283397	-0.001989	-0.002370	0.354582	-0.849121	-0.144043	-0.091553	0.560806	0.252446	-0.711140	0.340658
13887		9.811126	-2.035172	-1.277762	-0.009967	0.005728	0.347106	-0.843018	-0.134033	-0.090332	0.559873	0.250289	-0.711902	0.342188
13888		9.785631	-2.039479	-1.272161	-0.018469	0.016056	0.330039	-0.845215	-0.131348	-0.091309	0.559062	0.248161	-0.712598	0.343612
13889		9.753078	-2.097902	-1.311574	-0.020664	0.033684	0.311137	-0.854248	-0.124268	-0.099121	0.558413	0.246082	-0.713175	0.344964
13890		9.695540	-2.185991	-1.330359	-0.007915	0.041766	0.281863	-0.853271	-0.124756	-0.098633	0.557875	0.244197	-0.713612	0.346267
13891		9.578540	-2.190428	-1.312390	0.022000	0.053378	0.243721	-0.846680	-0.120361	-0.094971	0.557452	0.242648	-0.713829	0.347588
13892		9.452639	-2.158839	-1.286425	0.048415	0.058237	0.216654	-0.846191	-0.118652	-0.103271	0.557074	0.241378	-0.713887	0.348956
13893		9.375111	-2.149248	-1.290091	0.059407	0.053765	0.178355	-0.858887	-0.116699	-0.090576	0.556774	0.240379	-0.713856	0.350186
13894		9.346353	-2.125632	-1.284204	0.052396	0.055297	0.129657	-0.848633	-0.108643	-0.094238	0.556604	0.239673	-0.713738	0.351180
13895		9.352429	-2.069135	-1.279253	0.037097	0.054952	0.082888	-0.845947	-0.111816	-0.104248	0.556606	0.239160	-0.713571	0.351864
13896		9.380791	-2.032056	-1.246423	0.016207	0.057981	0.043111	-0.849854	-0.103027	-0.100830	0.556812	0.238751	-0.713374	0.352217
13897		9.414352	-2.062290	-1.224752	-0.005415	0.064263	0.005849	-0.855713	-0.108398	-0.102783	0.557186	0.238458	-0.713134	0.352309
13898		9.497654	-2.132549	-1.205377	-0.021326	0.071744	-0.035108	-0.852051	-0.111328	-0.097656	0.557763	0.238313	-0.712825	0.352119
13899		9.568277	-2.179150	-1.195141	-0.025634	0.084248	-0.058051	-0.856445	-0.113281	-0.110107	0.558477	0.238269	-0.712425	0.351826
13900		9.644975	-2.108239	-1.072344	-0.012624	0.093378	-0.074073	-0.851562	-0.114502	-0.107422	0.559297	0.238316	-0.711912	0.351530
13901		9.703108	-2.077906	-0.936477	-0.001982	0.103842	-0.094727	-0.850586	-0.108398	-0.111816	0.560208	0.238519	-0.711277	0.351228
13902		9.755008	-1.967554	-0.879916	-0.013285	0.130105	-0.118908	-0.857910	-0.115967	-0.110596	0.561366	0.238722	-0.710502	0.350809
13903		9.845931	-1.851574	-0.866395	-0.063918	0.185417	-0.143142	-0.849121	-0.116455	-0.104736	0.563015	0.238688	-0.709566	0.350083
13904		9.820236	-1.680377	-0.802931	-0.113505	0.254719	-0.164613	-0.840332	-0.122803	-0.125732	0.565206	0.238380	-0.708400	0.349123
13905		9.753183	-1.570283	-0.685701	-0.197179	0.317994	-0.185987	-0.845947	-0.119873	-0.123535	0.568067	0.237539	-0.707132	0.347621
13906		9.842214	-1.500339	-0.743639	-0.307382	0.367741	-0.214022	-0.844482	-0.123047	-0.131104	0.571471	0.236229	-0.705879	0.345473
13907		9.916513	-1.469701	-0.809916	-0.401521	0.417836	-0.227608	-0.842041	-0.120117	-0.132080	0.575390	0.234395	-0.704615	0.342788
13908		9.930041	-1.520548	-0.913557	-0.454059	0.447915	-0.228037	-0.834717	-0.126709	-0.138916	0.579542	0.232246	-0.703332	0.339878
13909		9.936439	-1.546446	-0.938885	-0.431352	0.478933	-0.214718	-0.847412	-0.127686	-0.156494	0.583786	0.230035	-0.701839	0.337195
13910		10.052102	-1.679646	-0.698420	-0.436165	0.508441	-0.209525	-0.840088	-0.135986	-0.159424	0.588208	0.227631	-0.700204	0.334529
13911		10.392472	-1.924297	-0.735628	-0.339043	0.479687	-0.150370	-0.833252	-0.131592	-0.158447	0.592085	0.225466	-0.698530	0.332651
13912		10.344965	-1.873200	-1.173897	-0.051796	0.517484	-0.054124	-0.840332	-0.135986	-0.178955	0.595320	0.224092	-0.696034	0.333035
13913		10.111602	-2.181362	-0.660202	0.053940	0.558011	-0.000614	-0.837891	-0.134033	-0.174072	0.598492	0.222742	-0.693134	0.334302
13914		10.298059	-2.372396	-0.454730	0.100317	0.582886	0.040022	-0.838379	-0.142090	-0.194580	0.601530	0.221394	-0.690038	0.336147
13915		10.145382	-2.177536	-0.569155	0.197022	0.640997	0.074180	-0.837891	-0.131348	-0.197266	0.604683	0.220097	-0.686423	0.338732
13916		10.199435	-2.224807	-0.028742	0.069420	0.722622	0.100820	-0.827148	-0.135498	-0.212158	0.608395	0.217790	-0.682785	0.340923
13917		10.293115	-2.099486	0.181701	-0.093921	0.810044	0.134367	-0.836670	-0.140381	-0.225586	0.612826	0.214171	-0.679197	0.342442
13918		10.269800	-2.073294	0.328208	-0.228235	0.914544	0.140993	-0.825928	-0.132080	-0.231689	0.618037	0.209537	-0.675430	0.343393
13919		10.200651	-1.972469	0.672684	-0.445772	1.002438	0.149210	-0.822998	-0.132324	-0.253418	0.624017	0.203502	-0.671797	0.343336
13920		10.526391	-1.949294	0.830862	-0.594875	1.101932	0.187039	-0.824707	-0.122803	-0.264404	0.630681	0.196135	-0.668066	0.342726
13921		10.516399	-1.996267	0.901364	-0.727688	1.202143	0.205094	-0.810303	-0.111084	-0.282715	0.637939	0.187700	-0.664136	0.341652
13922		10.430911	-2.194118	0.893699	-0.755840	1.273613	0.207299	-0.809570	-0.111572	-0.311279	0.645551	0.178831	-0.659814	0.340483
13923		10.564674	-2.460868	1.211973	-0.745324	1.305022	0.222162	-0.812744	-0.104492	-0.327637	0.653235	0.169779	-0.655198	0.339375
13924		10.513764	-2.751440	1.265013	-0.693303	1.362211	0.257510	-0.804688	-0.101318	-0.348633	0.660910	0.160670	-0.650069	0.338812
13925		10.312776	-3.020673	1.336220	-0.617831	1.404607	0.288943	-0.792725	-0.096436	-0.371338	0.668527	0.151668	-0.644417	0.338814
13926		9.881314	-3.207581	1.237615	-0.474657	1.444509	0.275982	-0.774414	-0.087402	-0.389404	0.676134	0.143378	-0.638000	0.339473
13927		10.103923	-3.475577	1.690712	-0.441036	1.451656	0.274961	-0.774658	-0.082031	-0.410156	0.683642	0.135216	-0.631334	0.340246
13928		9.909211	-3.588988	1.841684	-0.328499	1.432463	0.286071	-0.768799	-0.072998	-0.434082	0.690761	0.127693	-0.624372	0.341619
13929		10.133406	-3.714888	2.147718	-0.231405	1.419986	0.326293	-0.752686	-0.070068	-0.444336	0.697510	0.120487	-0.617151	0.343638
13930		9.689691	-3.496777	2.237452	-0.085969	1.432838	0.334885	-0.734619	-0.064941	-0.468994	0.704014	0.114098	-0.609352	0.346463
13931		9.542468	-3.184544	2.440139	-0.043118	1.434030	0.332098	-0.729248	-0.054688	-0.485352	0.710455	0.107876	-0.601300	0.349362
13932		9.998449	-2.988540	2.623017	-0.001588	1.444909	0.372511	-0.720703	-0.058105	-0.511475	0.716655	0.101634	-0.593031	0.352689
13933		9.520379	-2.831488	2.799234	0.036251	1.455962	0.395355	-0.707764	-0.053955	-0.522705	0.722753	0.095462	-0.584473	0.356240
13934		9.673677	-2.969777	2.925270	0.034923	1.441626	0.419490	-0.702393	-0.059082	-0.540771	0.728551	0.089248	-0.575941	0.359915
13935		9.167819	-3.153574	3.204313	0.036903	1.466336	0.402937	-0.685303	-0.050293	-0.552490	0.734378	0.083146	-0.567132	0.363507
13936		8.854757	-2.986871	3.347647	-0.003876	1.471892	0.402624	-0.672607	-0.050293	-0.581787	0.740108	0.076761	-0.558338	0.366886
13937		9.357775	-2.628056	3.605309	-0.054841	1.476210	0.463791	-0.657471	-0.041016	-0.588867	0.745645	0.069715	-0.549576	0.370296
13938		9.064791	-2.858713	3.660611	-0.083096	1.481357	0.494135	-0.640869	-0.038086	-0.612061	0.750932	0.062355	-0.540840	0.373771
13939		9.015407	-3.599547	3.740865	-0.036529	1.463223	0.524369	-0.620117	-0.025879	-0.632568	0.755916	0.055181	-0.531973	0.377558
13940		8.548458	-3.983257	4.054760	0.060497	1.466383	0.486327	-0.607910	-0.032471	-0.637939	0.760881	0.048687	-0.522684	0.381433
13941		8.323431	-3.590092	4.110537	0.131030	1.508637	0.472823	-0.597412	-0.027832	-0.653320	0.765833	0.042683	-0.512834	0.385589
13942		8.317850	-3.387715	4.490699	0.071037	1.522537	0.474189	-0.576904	-0.015869	-0.675537	0.770711	0.036217	-0.503027	0.389430
13943		7.905380	-2.926555	4.778083	-0.060797	1.483990	0.508347	-0.557129	-0.018311	-0.690186	0.775254	0.028802	-0.493822	0.392800
13944		8.129771	-3.185877	4.621144	-0.156179	1.472716	0.580155	-0.531006	-0.011475	-0.711670	0.779389	0.020550	-0.484924	0.396207
13945		7.252715	-3.345246	4.841019	-0.175639	1.498837	0.560262	-0.526611	-0.001953	-0.721924	0.783567	0.012141	-0.475831	0.399324
13946		7.347456	-3.818436	4.972440	-0.201445	1.422178	0.572668	-0.509766	0.004883	-0.731445	0.787252	0.003772	-0.467271	0.402341
13947		6.731131	-4.038264	5.008618	-0.111636	1.322037	0.573257	-0.496338	0.002441	-0.737305	0.790419	-0.003675	-0.458994	0.405645
13948		6.126655	-4.301849	5.102185	-0.048899	1.241226	0.517622	-0.479492	0.007080	-0.761230	0.793354	-0.010210	-0.450976	0.408786
13949		6.245125	-4.028573	5.256250	-0.045556	1.166411	0.485267	-0.464355	0.012207	-0.766113	0.796032	-0.016359	-0.443387	0.411672
13950		6.105626	-3.697239	5.453094	0.025068	1.117113	0.503533	-0.451172	0.015625	-0.766357	0.798390	-0.021939	-0.435835	0.414898
13951		5.666566	-3.680347	5.421845	0.016000	1.034653	0.497368	-0.436279	0.020020	-0.785156	0.800389	-0.027269	-0.428824	0.418025
13952		5.756213	-3.831399	5.397202	0.030639	0.945882	0.472814	-0.417725	0.015137	-0.786377	0.802094	-0.032104	-0.422320	0.421024
13953		5.540911	-3.629269	4.714017	0.113473	0.883031	0.462800	-0.410645	0.023926	-0.786621	0.803573	-0.036124	-0.415917	0.424238
13954		4.887617	-3.457136	5.045487	0.064981	0.799313	0.380451	-0.397461	0.025146	-0.802979	0.804992	-0.039891	-0.410249	0.426723
13955		5.244425	-2.809808	4.883766	-0.096224	0.684812	0.367411	-0.392090	0.025879	-0.799561	0.805973	-0.044284	-0.405904	0.428589
13956		5.317942	-2.854309	4.751894	-0.189276	0.643167	0.369877	-0.387939	0.031006	-0.807617	0.806734	-0.049156	-0.402155	0.430157
13957		4.794619	-3.037289	5.026279	-0.302635	0.592760	0.317751	-0.381592	0.033936	-0.812744	0.807437	-0.054434	-0.399157	0.430995
13958		5.175130	-3.385685	4.812810	-0.352603	0.465780	0.370868	-0.368408	0.039062	-0.819336	0.807474	-0.059766	-0.397155	0.432067
13959		4.563271	-3.641417	4.689857	-0.332638	0.379453	0.324296	-0.359131	0.046143	-0.818604	0.807382	-0.064498	-0.395672	0.432919
13960		4.918799	-3.859510	4.939876	-0.462826	0.277666	0.225135	-0.358154	0.052734	-0.815918	0.807221	-0.069412	-0.395388	0.432717
13961		5.410780	-3.923222	4.553236	-0.348420	0.196313	0.144463	-0.359375	0.057617	-0.810059	0.807134	-0.072994	-0.395280	0.432389
13962		4.691168	-4.030011	4.434808	-0.160997	0.075528	0.026017	-0.362305	0.064453	-0.825195	0.807184	-0.074491	-0.395380	0.431949
13963		4.202694	-3.617606	4.575594	-0.109813	-0.114792	-0.072132	-0.354736	0.069580	-0.818848	0.806991	-0.074636	-0.396636	0.431133
13964		4.820340	-3.528500	4.832608	-0.182584	-0.277621	-0.103006	-0.366943	0.063721	-0.814941	0.806322	-0.074586	-0.399264	0.429966
13965		5.226385	-4.095780	4.709481	-0.147571	-0.363844	-0.156756	-0.364258	0.067871	-0.815430	0.805567	-0.073805	-0.402378	0.428609
13966		4.985767	-4.751636	4.536083	0.014496	-0.456292	-0.221611	-0.371094	0.063721	-0.805664	0.804825	-0.071393	-0.405566	0.427405
13967		4.534223	-4.251897	4.752768	0.078025	-0.565576	-0.324005	-0.383057	0.064941	-0.808350	0.804095	-0.067817	-0.409315	0.425786
13968		5.218275	-3.182260	4.975493	-0.038710	-0.694680	-0.369917	-0.385742	0.064453	-0.810547	0.802992	-0.064409	-0.414355	0.423515
13969		5.892745	-2.968130	5.164614	-0.234394	-0.725594	-0.422615	-0.400635	0.067627	-0.798340	0.801826	-0.062016	-0.420298	0.420212
13970		6.387235	-3.544710	4.596701	-0.312362	-0.794931	-0.410976	-0.411133	0.063965	-0.794189	0.800289	-0.059937	-0.426951	0.416723
13971		5.457731	-4.022399	4.616483	-0.201532	-0.859580	-0.471672	-0.422852	0.075928	-0.789551	0.798732	-0.056670	-0.433652	0.413233
13972		5.946854	-4.228649	4.823494	-0.219241	-1.020108	-0.469325	-0.438965	0.064453	-0.778809	0.796522	-0.052986	-0.441448	0.409719
13973		6.032736	-4.448307	4.642193	-0.133247	-1.111772	-0.483831	-0.458496	0.065674	-0.772217	0.793972	-0.048342	-0.449522	0.406450
13974		5.886741	-4.330021	4.869094	-0.209054	-1.136266	-0.576127	-0.471436	0.064453	-0.760254	0.791529	-0.043773	-0.458004	0.402241
13975		6.427813	-3.828222	5.117276	-0.369137	-1.161717	-0.646207	-0.481934	0.064453	-0.749268	0.789067	-0.039904	-0.467159	0.396917
13976		8.489454	-4.226117	4.574456	-0.310795	-1.241713	-0.532649	-0.493652	0.059082	-0.734863	0.785833	-0.035825	-0.476545	0.392540
13977		6.491270	-4.844908	3.787709	0.200935	-1.276785	-0.638599	-0.519531	0.059814	-0.727783	0.782845	-0.027845	-0.484451	0.389468
13978		6.489331	-4.520029	4.567187	0.166093	-1.383089	-0.764174	-0.533203	0.055908	-0.723389	0.779708	-0.019256	-0.493126	0.385372
13979		8.067276	-3.501036	4.840906	0.166579	-1.397948	-0.712933	-0.553955	0.044434	-0.702148	0.776217	-0.010837	-0.501797	0.381536
13980		8.043074	-3.332736	4.580313	0.171070	-1.327438	-0.667980	-0.572021	0.038818	-0.687744	0.772737	-0.002779	-0.509916	0.377962
13981		8.122664	-3.772517	4.258798	0.037029	-1.351115	-0.695248	-0.577148	0.021973	-0.676025	0.769118	0.004600	-0.518534	0.373575
13982		8.317098	-3.739267	3.889723	-0.073096	-1.375229	-0.691812	-0.594482	0.028564	-0.660156	0.765253	0.011367	-0.527547	0.368717
13983		8.535219	-3.490259	4.207679	-0.196512	-1.372857	-0.681391	-0.610107	0.013916	-0.645752	0.761274	0.017234	-0.536855	0.363252
13984		8.582599	-2.929612	3.996242	-0.223811	-1.337979	-0.692116	-0.632324	0.016113	-0.627930	0.757337	0.022923	-0.545923	0.357607
13985		8.792410	-2.894634	3.763202	-0.278526	-1.313083	-0.670522	-0.641113	0.009766	-0.613525	0.753346	0.028059	-0.554933	0.351756
13986		8.918474	-3.104523	3.548226	-0.290656	-1.275020	-0.648302	-0.651367	0.013672	-0.609375	0.749351	0.032913	-0.563652	0.345957
