// Start Time: Unknown
// Update Rate: 60.0Hz
// Filter Profile: human (46.1)
// Firmware Version: 4.6.0
PacketCounter	SampleTimeFine	Acc_X	Acc_Y	Acc_Z	Gyr_X	Gyr_Y	Gyr_Z	Mag_X	Mag_Y	Mag_Z	Quat_q0	Quat_q1	Quat_q2	Quat_q3
15359		7.525129	-5.402034	-3.128858	0.018761	-0.012943	-0.008783	-0.687256	0.161621	0.468994	-0.072602	-0.595833	0.552257	-0.578553
15360		7.510070	-5.497296	-3.125063	0.041430	-0.021378	-0.009298	-0.684570	0.164551	0.469238	-0.072343	-0.596003	0.552024	-0.578632
15361		7.535011	-5.486983	-3.141505	0.043087	-0.018216	-0.010655	-0.683594	0.160156	0.466797	-0.072092	-0.596165	0.551776	-0.578734
15362		7.565879	-5.443772	-3.105157	0.025344	-0.005795	-0.006697	-0.684814	0.167236	0.462646	-0.071971	-0.596239	0.551624	-0.578818
15363		7.517741	-5.552084	-3.047454	0.011637	0.005797	-0.003595	-0.689209	0.164551	0.461914	-0.071956	-0.596234	0.551547	-0.578899
15364		7.461907	-5.634983	-3.008223	0.037506	-0.006547	-0.010677	-0.683594	0.160400	0.468750	-0.071787	-0.596333	0.551317	-0.579036
15365		7.479800	-5.598656	-3.042685	0.038707	-0.011067	-0.014491	-0.696777	0.160645	0.469971	-0.071602	-0.596465	0.551068	-0.579161
15366		7.507779	-5.513758	-2.961576	0.024835	-0.004302	-0.014455	-0.682129	0.160156	0.468018	-0.071510	-0.596550	0.550883	-0.579260
15367		7.469138	-5.548766	-3.002812	0.006576	0.004147	-0.014910	-0.692627	0.163818	0.462402	-0.071546	-0.596579	0.550778	-0.579325
15368		7.482765	-5.553335	-3.048452	0.022723	-0.009693	-0.018910	-0.680908	0.164551	0.461670	-0.071450	-0.596696	0.550585	-0.579401
15369		7.501233	-5.482284	-3.051988	0.008880	0.000476	-0.017604	-0.682373	0.163818	0.470703	-0.071455	-0.596742	0.550461	-0.579470
15370		7.509902	-5.463237	-3.042380	0.000323	0.004952	-0.013585	-0.688232	0.162354	0.463623	-0.071499	-0.596739	0.550397	-0.579529
15371		7.531303	-5.426886	-3.004364	-0.005801	0.005480	-0.013202	-0.682373	0.168945	0.467773	-0.071573	-0.596725	0.550363	-0.579567
15372		7.536271	-5.466086	-3.048469	0.004163	0.000965	-0.010605	-0.690674	0.161865	0.475098	-0.071563	-0.596723	0.550293	-0.579636
15373		7.500091	-5.536529	-3.048445	0.016686	-0.006083	-0.009868	-0.687012	0.158203	0.463623	-0.071452	-0.596754	0.550170	-0.579735
15374		7.516316	-5.484056	-3.040817	0.018679	-0.003787	-0.009901	-0.697754	0.168213	0.467041	-0.071342	-0.596771	0.550041	-0.579853
15375		7.468926	-5.624589	-3.015741	0.012115	0.001290	-0.008637	-0.678467	0.161865	0.465820	-0.071266	-0.596739	0.549948	-0.579984
15376		7.496906	-5.605240	-3.000442	0.036748	-0.015007	-0.017137	-0.684082	0.173584	0.465820	-0.071034	-0.596856	0.549700	-0.580127
15377		7.543648	-5.471905	-3.054586	0.037347	-0.014729	-0.014962	-0.680176	0.170410	0.469482	-0.070762	-0.596936	0.549464	-0.580302
15378		7.503107	-5.525355	-3.084695	0.017107	-0.003499	-0.011408	-0.691650	0.164062	0.467285	-0.070627	-0.596943	0.549330	-0.580438
15379		7.501472	-5.526313	-3.028640	0.015133	0.001365	-0.016200	-0.679688	0.159180	0.474121	-0.070543	-0.596917	0.549201	-0.580596
15380		7.513924	-5.585368	-2.965984	0.012886	-0.000375	-0.014280	-0.684082	0.162109	0.465332	-0.070455	-0.596929	0.549071	-0.580717
15381		7.508645	-5.541402	-2.995085	0.016808	-0.002606	-0.016895	-0.679688	0.162598	0.469971	-0.070358	-0.596937	0.548930	-0.580855
15382		7.514141	-5.487759	-3.027238	0.021332	-0.006254	-0.020055	-0.693604	0.163086	0.471436	-0.070220	-0.596995	0.548736	-0.580995
15383		7.590187	-5.386371	-3.015239	0.014097	-0.004900	-0.018079	-0.682373	0.162598	0.460205	-0.070086	-0.596967	0.548612	-0.581156
15384		7.554727	-5.456170	-3.014878	-0.004338	0.008860	-0.009484	-0.687500	0.167725	0.461182	-0.070154	-0.596884	0.548605	-0.581241
15385		7.522466	-5.501137	-2.993864	0.005137	0.002094	-0.008540	-0.685303	0.163086	0.462891	-0.070106	-0.596801	0.548561	-0.581373
15386		7.531862	-5.498709	-3.027832	0.009527	0.000419	-0.008047	-0.685303	0.169434	0.464111	-0.070040	-0.596744	0.548493	-0.581503
15387		7.525248	-5.482744	-3.003112	0.014640	-0.001257	-0.006326	-0.682373	0.165527	0.466064	-0.069896	-0.596688	0.548398	-0.581668
15388		7.575375	-5.427060	-3.005737	0.004080	0.000906	-0.002286	-0.680420	0.165771	0.466064	-0.069808	-0.596625	0.548363	-0.581777
15389		7.518285	-5.560512	-2.988743	0.004789	0.004293	0.004365	-0.686035	0.163574	0.462891	-0.069708	-0.596533	0.548345	-0.581900
15390		7.484746	-5.607490	-2.967235	0.025435	-0.007744	-0.001982	-0.685303	0.160889	0.467285	-0.069504	-0.596489	0.548236	-0.582071
15391		7.469358	-5.507651	-2.983249	0.033054	-0.017082	-0.001930	-0.688721	0.166260	0.470947	-0.069200	-0.596507	0.548086	-0.582231
15392		7.524089	-5.546445	-2.976918	0.018767	-0.009527	0.000892	-0.694092	0.171631	0.469971	-0.068929	-0.596440	0.548007	-0.582405
15393		7.539538	-5.468286	-3.023996	0.013423	-0.003881	0.002317	-0.679199	0.159424	0.467529	-0.068676	-0.596282	0.547972	-0.582631
15394		7.532675	-5.589388	-2.999966	0.011685	-0.005042	0.003189	-0.679199	0.171875	0.461426	-0.068539	-0.596281	0.547924	-0.582692
15395		7.456647	-5.647693	-3.020693	0.023545	-0.012036	-0.001427	-0.688721	0.164551	0.466064	-0.068287	-0.596304	0.547802	-0.582814
15396		7.427697	-5.652000	-2.990039	0.027850	-0.013407	-0.004145	-0.691650	0.168457	0.461426	-0.068034	-0.596272	0.547689	-0.582981
15397		7.468959	-5.538633	-2.980077	0.018784	-0.012917	-0.004518	-0.684082	0.169678	0.470703	-0.067837	-0.596180	0.547650	-0.583136
15398		7.480715	-5.478587	-2.962055	0.009527	-0.008436	-0.005907	-0.687744	0.163086	0.466309	-0.067613	-0.596185	0.547564	-0.583237
15399		7.468095	-5.622068	-3.033829	0.005006	-0.006485	-0.005463	-0.684082	0.176270	0.472168	-0.067532	-0.596126	0.547557	-0.583313
15400		7.452312	-5.607854	-2.975675	0.024011	-0.019976	-0.007701	-0.680664	0.174561	0.470947	-0.067112	-0.596211	0.547375	-0.583446
15401		7.492343	-5.511049	-2.955893	0.014347	-0.019771	-0.010238	-0.681641	0.164062	0.469238	-0.066778	-0.596331	0.547225	-0.583502
15402		7.409728	-5.585401	-2.986677	0.016434	-0.019466	-0.009772	-0.685303	0.166260	0.472656	-0.066564	-0.596445	0.547109	-0.583519
15403		7.519716	-5.557389	-3.008586	0.035894	-0.030355	-0.017718	-0.686523	0.164307	0.466064	-0.066184	-0.596631	0.546862	-0.583603
15404		7.525915	-5.530079	-3.043524	0.022801	-0.023944	-0.013277	-0.682861	0.167236	0.468262	-0.065994	-0.596706	0.546753	-0.583650
15405		7.478609	-5.610488	-3.041063	0.022803	-0.023941	-0.013273	-0.691895	0.168213	0.464844	-0.065743	-0.596834	0.546604	-0.583687
15406		7.495261	-5.540484	-3.046838	0.029920	-0.025001	-0.014300	-0.682617	0.169189	0.469238	-0.065517	-0.596843	0.546490	-0.583811
15407		7.477663	-5.567126	-3.052744	0.017706	-0.017159	-0.011026	-0.684814	0.169434	0.469482	-0.065284	-0.596936	0.546366	-0.583858
15408		7.420817	-5.633305	-2.971155	0.028243	-0.021025	-0.013611	-0.681641	0.170654	0.466797	-0.064998	-0.597040	0.546193	-0.583945
15409		7.493546	-5.573721	-3.025149	0.023027	-0.019070	-0.018544	-0.684326	0.177002	0.472412	-0.064783	-0.597163	0.546022	-0.584003
15410		7.468419	-5.634321	-3.028188	0.022303	-0.019072	-0.019766	-0.684082	0.173340	0.474121	-0.064435	-0.597294	0.545814	-0.584102
15411		7.438529	-5.611015	-2.997953	0.028544	-0.023265	-0.022331	-0.674072	0.169434	0.471191	-0.064071	-0.597486	0.545562	-0.584181
15412		7.478438	-5.503157	-3.021843	0.012860	-0.021162	-0.022709	-0.678955	0.168457	0.468750	-0.063853	-0.597760	0.545360	-0.584113
15413		7.480743	-5.569769	-2.958545	-0.002906	-0.013654	-0.022353	-0.684082	0.181396	0.465576	-0.063823	-0.597899	0.545286	-0.584043
15414		7.465740	-5.576570	-2.977009	0.004090	-0.016126	-0.025148	-0.682373	0.160400	0.469971	-0.063676	-0.597919	0.545213	-0.584107
15415		7.531838	-5.465696	-2.977004	0.011413	-0.021163	-0.025152	-0.675293	0.159912	0.476562	-0.063656	-0.598114	0.545075	-0.584038
15416		7.574677	-5.475428	-3.011896	-0.006995	-0.000611	-0.018272	-0.684082	0.174561	0.468750	-0.063659	-0.598328	0.544956	-0.583929
15417		7.592220	-5.336253	-2.954369	-0.030188	0.005067	-0.012095	-0.682617	0.162354	0.473145	-0.063760	-0.598219	0.545084	-0.583911
15418		7.577479	-5.495880	-2.961803	-0.053353	0.012460	-0.007362	-0.677246	0.165039	0.464600	-0.064070	-0.598169	0.545294	-0.583732
15419		7.431815	-5.709523	-3.028016	-0.034885	0.003865	-0.007800	-0.688477	0.169189	0.469482	-0.064330	-0.598111	0.545460	-0.583608
15420		7.434799	-5.638965	-3.021025	-0.019354	-0.006466	-0.011692	-0.677979	0.165039	0.466553	-0.064396	-0.598047	0.545549	-0.583583
15421		7.552725	-5.440198	-2.919750	-0.044603	0.000612	-0.007408	-0.685547	0.171875	0.468750	-0.064637	-0.598009	0.545757	-0.583400
15422		7.603058	-5.474573	-2.938190	-0.046817	0.002284	-0.004219	-0.687500	0.161133	0.475098	-0.064794	-0.597862	0.546002	-0.583305
15423		7.506326	-5.699580	-3.074167	-0.012348	-0.017777	-0.008192	-0.685303	0.166992	0.468262	-0.064776	-0.597955	0.546029	-0.583186
15424		7.497453	-5.526255	-3.194121	0.011047	-0.027430	-0.013373	-0.679932	0.167969	0.462891	-0.064632	-0.598037	0.545968	-0.583176
15425		7.485987	-5.544927	-3.095707	-0.041958	0.011741	-0.004211	-0.681885	0.172607	0.468506	-0.064925	-0.597842	0.546208	-0.583118
15426		7.358095	-5.752137	-3.015766	-0.044598	0.016284	-0.007017	-0.686523	0.162598	0.467041	-0.065103	-0.597677	0.546404	-0.583084
15427		7.365435	-5.742456	-2.911798	-0.014981	-0.007756	-0.022713	-0.685303	0.165527	0.472168	-0.065308	-0.597678	0.546434	-0.583031
15428		7.458048	-5.490852	-2.943090	-0.022532	-0.021215	-0.026575	-0.688477	0.163086	0.463379	-0.065356	-0.597828	0.546442	-0.582865
15429		7.558272	-5.454711	-2.794498	-0.055613	-0.013113	-0.022421	-0.680420	0.164062	0.470947	-0.065794	-0.597746	0.546708	-0.582650
15430		7.440721	-5.542699	-2.938935	-0.037323	-0.029956	-0.023037	-0.687012	0.163574	0.464355	-0.065856	-0.597951	0.546793	-0.582353
15431		7.353008	-5.647420	-3.027342	0.024424	-0.068665	-0.033293	-0.686279	0.157471	0.469727	-0.065652	-0.598247	0.546625	-0.582229
15432		7.490387	-5.414568	-3.161855	0.013542	-0.063965	-0.031979	-0.686035	0.160889	0.474365	-0.065544	-0.598593	0.546496	-0.582007
15433		7.514202	-5.470859	-3.067896	-0.027461	-0.039255	-0.019267	-0.686279	0.167725	0.476562	-0.065568	-0.598787	0.546580	-0.581726
15434		7.511144	-5.585765	-3.106238	-0.004432	-0.049718	-0.024395	-0.681885	0.164795	0.468994	-0.065301	-0.599073	0.546502	-0.581535
15435		7.560387	-5.376521	-2.998726	-0.008846	-0.049780	-0.023410	-0.682617	0.159424	0.475098	-0.065184	-0.599298	0.546491	-0.581327
15436		7.375592	-5.636310	-3.068491	-0.033052	-0.033058	-0.020052	-0.677490	0.166016	0.475098	-0.065277	-0.599489	0.546586	-0.581029
15437		7.464219	-5.726989	-3.005492	-0.028669	-0.046609	-0.026041	-0.678467	0.165527	0.474121	-0.065138	-0.599811	0.546601	-0.580699
15438		7.258087	-5.740306	-3.082094	-0.053004	-0.043179	-0.035031	-0.682861	0.158691	0.477295	-0.065216	-0.600102	0.546706	-0.580291
15439		7.216373	-5.899651	-3.068593	-0.044288	-0.054613	-0.046653	-0.678711	0.163330	0.471680	-0.065371	-0.600502	0.546738	-0.579829
15440		7.471138	-5.531039	-3.167517	-0.018431	-0.071485	-0.056829	-0.681152	0.152588	0.482666	-0.065317	-0.600977	0.546620	-0.579454
15441		7.580626	-5.517194	-3.275215	-0.022417	-0.053632	-0.053794	-0.678955	0.154053	0.474609	-0.065412	-0.601493	0.546497	-0.579024
15442		7.530771	-5.452022	-3.408373	0.014334	-0.068399	-0.054545	-0.682129	0.167725	0.477783	-0.065333	-0.601996	0.546242	-0.578750
15443		7.573248	-5.325237	-3.318996	-0.010245	-0.035554	-0.048841	-0.681885	0.153809	0.476807	-0.065227	-0.602263	0.546082	-0.578635
15444		7.614192	-5.372988	-3.097526	-0.021273	-0.023867	-0.039886	-0.682861	0.160400	0.477783	-0.065469	-0.602450	0.546053	-0.578440
15445		7.516329	-5.466867	-2.994682	0.019176	-0.040192	-0.045593	-0.679688	0.150635	0.477051	-0.065324	-0.602747	0.545787	-0.578399
15446		7.566078	-5.456550	-3.023858	0.051790	-0.065730	-0.051027	-0.684326	0.155518	0.477051	-0.065100	-0.603250	0.545368	-0.578295
15447		7.506806	-5.413638	-3.107241	0.018460	-0.057225	-0.048879	-0.677246	0.169434	0.487061	-0.065027	-0.603613	0.545117	-0.578161
15448		7.433998	-5.350124	-3.046765	-0.019304	-0.038629	-0.041982	-0.681152	0.160156	0.495850	-0.064711	-0.604010	0.544953	-0.577937
15449		7.429625	-5.282022	-3.149354	-0.023591	-0.037305	-0.039212	-0.686768	0.155273	0.479980	-0.064511	-0.604475	0.544814	-0.577603
15450		7.471086	-5.648852	-3.352164	0.015931	-0.064912	-0.046609	-0.674561	0.153076	0.477051	-0.064406	-0.604850	0.544589	-0.577435
15451		7.538318	-5.140516	-3.413920	-0.014501	-0.042820	-0.038715	-0.672363	0.152832	0.479492	-0.064496	-0.605141	0.544531	-0.577175
15452		7.428293	-5.478992	-3.427028	-0.049633	-0.006661	-0.027083	-0.685303	0.158691	0.482910	-0.064820	-0.605239	0.544662	-0.576913
15453		7.507730	-5.477509	-3.585480	0.022378	-0.030465	-0.034696	-0.678955	0.163574	0.484619	-0.064656	-0.605424	0.544426	-0.576959
15454		7.513620	-5.398376	-3.544538	-0.001479	-0.001426	-0.029940	-0.678467	0.160645	0.481201	-0.064550	-0.605507	0.544279	-0.577022
15455		7.213470	-5.770040	-3.533129	-0.001302	0.020223	-0.034039	-0.676758	0.157471	0.481934	-0.064664	-0.605470	0.544129	-0.577190
15456		7.301301	-5.654059	-3.523812	0.017820	0.020764	-0.048043	-0.673584	0.155762	0.478516	-0.064766	-0.605547	0.543815	-0.577393
15457		7.660240	-5.168145	-3.132830	-0.046334	0.068837	-0.042248	-0.678711	0.151611	0.476562	-0.065424	-0.605323	0.543833	-0.577538
15458		7.397228	-5.913811	-3.170377	-0.034159	0.066761	-0.061421	-0.679932	0.147705	0.477295	-0.066232	-0.605152	0.543719	-0.577732
15459		7.291495	-6.012546	-3.452201	0.110744	-0.009028	-0.095313	-0.676270	0.150879	0.483398	-0.066158	-0.605605	0.542774	-0.578154
15460		7.361037	-5.523316	-3.376816	0.074473	0.023009	-0.106684	-0.679932	0.151611	0.467285	-0.066262	-0.606054	0.541876	-0.578515
15461		7.324691	-5.616316	-3.242897	0.029338	0.053009	-0.110525	-0.678467	0.150146	0.472168	-0.066996	-0.606076	0.541270	-0.578973
15462		7.443738	-5.564334	-3.245016	0.022884	0.057883	-0.126632	-0.685791	0.148193	0.476807	-0.067754	-0.606256	0.540566	-0.579354
15463		7.750194	-5.087429	-3.157686	-0.044773	0.091448	-0.125628	-0.691650	0.138916	0.475098	-0.068991	-0.606255	0.540157	-0.579591
15464		7.708662	-5.281954	-3.065269	-0.152499	0.157877	-0.107359	-0.673828	0.139160	0.475342	-0.071189	-0.605752	0.540353	-0.579668
15465		7.553264	-5.564680	-3.079315	-0.094545	0.121792	-0.114062	-0.682861	0.147461	0.468506	-0.072714	-0.605682	0.540194	-0.579700
15466		7.781889	-4.993147	-2.945763	-0.052442	0.089547	-0.121582	-0.692139	0.131836	0.474609	-0.073856	-0.605654	0.539825	-0.579929
15467		7.716603	-5.206055	-2.978921	-0.101895	0.109836	-0.102656	-0.687012	0.144043	0.480225	-0.075505	-0.605467	0.539794	-0.579941
15468		7.632260	-5.210406	-3.225505	-0.075257	0.090007	-0.091248	-0.692383	0.144043	0.474121	-0.076447	-0.605461	0.539614	-0.579991
15469		7.875306	-4.734575	-3.042535	-0.121342	0.115612	-0.065528	-0.686279	0.141846	0.471191	-0.077697	-0.605072	0.539800	-0.580058
15470		7.688606	-4.973009	-2.977773	-0.121899	0.124383	-0.041856	-0.687256	0.137695	0.471924	-0.078868	-0.604565	0.540103	-0.580146
15471		7.594949	-5.298570	-3.082038	-0.017847	0.060065	-0.041817	-0.693115	0.135986	0.468994	-0.079257	-0.604471	0.539939	-0.580343
15472		7.675054	-5.179633	-3.302718	-0.009677	0.054759	-0.033371	-0.695801	0.129150	0.470459	-0.079638	-0.604299	0.539803	-0.580597
15473		7.765155	-5.051447	-3.094924	-0.075620	0.092744	-0.008415	-0.689941	0.133545	0.463867	-0.080499	-0.603826	0.540081	-0.580712
15474		7.892447	-5.115092	-2.898111	-0.055841	0.083309	-0.003235	-0.687500	0.126465	0.469727	-0.081144	-0.603334	0.540320	-0.580911
15475		7.823048	-5.076955	-2.795918	0.040307	0.015073	-0.006387	-0.690674	0.135498	0.460449	-0.081013	-0.603396	0.540086	-0.581082
15476		7.826408	-4.990538	-3.061172	0.045106	0.006987	0.006957	-0.695312	0.136475	0.466553	-0.080759	-0.603252	0.539948	-0.581396
15477		7.598397	-5.338485	-2.916640	-0.002205	0.019015	0.016757	-0.697754	0.136963	0.462646	-0.080681	-0.603039	0.540039	-0.581543
15478		7.725123	-5.116443	-2.726355	-0.008529	-0.001680	0.014641	-0.695801	0.130371	0.464355	-0.080617	-0.602861	0.540185	-0.581601
15479		7.748749	-5.052270	-2.563926	-0.037435	-0.012008	0.015693	-0.684814	0.125977	0.464600	-0.080727	-0.602771	0.540476	-0.581408
15480		7.652965	-5.271260	-2.984652	0.004834	-0.049695	0.011388	-0.695801	0.131104	0.473389	-0.080480	-0.602995	0.540568	-0.581125
15481		7.696585	-5.135046	-3.079991	0.027974	-0.069798	0.011583	-0.699707	0.127197	0.471191	-0.079900	-0.603355	0.540514	-0.580881
15482		7.997591	-4.602252	-3.250063	-0.016280	-0.033703	0.037373	-0.692871	0.135010	0.461914	-0.079717	-0.603348	0.540789	-0.580658
15483		7.977758	-4.855387	-3.283969	-0.086696	0.012292	0.071747	-0.689697	0.131104	0.469971	-0.079894	-0.602798	0.541590	-0.580458
15484		7.825818	-5.023060	-3.181525	-0.060803	0.013677	0.085297	-0.697510	0.136963	0.470215	-0.079834	-0.602338	0.542304	-0.580278
15485		7.557988	-5.442303	-3.013017	0.003246	-0.016289	0.079612	-0.689209	0.133545	0.466064	-0.079299	-0.602035	0.542685	-0.580310
15486		7.855980	-5.056906	-2.930097	0.011467	-0.031468	0.081031	-0.687744	0.147217	0.475586	-0.078726	-0.601805	0.543072	-0.580264
15487		7.627089	-5.321598	-3.043199	-0.087172	0.027700	0.097147	-0.687012	0.136719	0.467041	-0.078522	-0.601220	0.543943	-0.580081
15488		7.394420	-5.719313	-3.038185	0.020007	-0.040631	0.078079	-0.693115	0.139160	0.468750	-0.077841	-0.601063	0.544278	-0.580022
15489		7.740567	-5.050453	-3.279547	0.073504	-0.058258	0.059651	-0.687744	0.141357	0.473633	-0.076895	-0.601087	0.544259	-0.580141
15490		7.248244	-5.779546	-3.325509	0.054728	-0.031245	0.069404	-0.691895	0.140381	0.467041	-0.076030	-0.600997	0.544355	-0.580258
15491		7.023832	-6.112257	-3.422948	0.092665	-0.048552	0.039729	-0.687256	0.144043	0.468750	-0.075175	-0.601053	0.544148	-0.580506
15492		7.274110	-5.908447	-2.987953	0.038995	-0.033475	0.014446	-0.686279	0.139648	0.475586	-0.074698	-0.601138	0.544074	-0.580548
15493		7.483643	-5.673207	-2.695030	-0.010198	-0.022097	-0.005782	-0.684326	0.141846	0.467529	-0.074606	-0.601333	0.544107	-0.580328
15494		7.355808	-6.133363	-2.877648	0.100637	-0.095072	-0.042390	-0.689697	0.142578	0.459473	-0.073859	-0.602004	0.543500	-0.580296
15495		7.652078	-5.144167	-3.215498	0.195904	-0.163043	-0.070540	-0.691406	0.142090	0.467041	-0.072582	-0.603051	0.542354	-0.580442
15496		7.640703	-5.095503	-3.379416	0.014013	-0.051993	-0.041081	-0.677979	0.145508	0.470459	-0.072539	-0.603392	0.542136	-0.580297
15497		7.143766	-5.759915	-3.385498	-0.063264	-0.007227	-0.029714	-0.687500	0.146729	0.468262	-0.072873	-0.603496	0.542337	-0.579959
15498		7.454876	-5.506424	-2.966164	-0.046448	-0.019278	-0.049452	-0.688477	0.139648	0.467529	-0.073208	-0.603679	0.542358	-0.579706
15499		7.938606	-5.070889	-2.912727	-0.006417	-0.048812	-0.057266	-0.687012	0.142334	0.475342	-0.073358	-0.604072	0.542169	-0.579455
15500		7.858340	-5.349664	-3.553388	0.031412	-0.053890	-0.047607	-0.690186	0.141846	0.471436	-0.073111	-0.604549	0.541821	-0.579314
15501		7.598210	-5.084966	-3.500114	0.055483	-0.060030	-0.029842	-0.679688	0.144043	0.474609	-0.072700	-0.604927	0.541459	-0.579310
15502		7.019449	-5.225681	-3.109696	-0.041635	0.006977	-0.012040	-0.688721	0.144531	0.473633	-0.072882	-0.604912	0.541622	-0.579150
15503		7.251263	-5.975814	-2.921302	0.009671	-0.033932	-0.032945	-0.688965	0.141602	0.474854	-0.072767	-0.605166	0.541446	-0.579063
15504		8.102759	-5.241713	-2.959475	0.027912	-0.062374	-0.054710	-0.688232	0.147705	0.473633	-0.072566	-0.605683	0.541089	-0.578882
15505		7.685558	-5.033080	-2.795125	-0.057964	-0.019056	-0.035774	-0.684814	0.146973	0.477295	-0.072825	-0.605814	0.541216	-0.578595
15506		7.248431	-5.900109	-2.979064	0.102772	-0.125971	-0.064506	-0.678955	0.139648	0.479004	-0.071879	-0.606739	0.540478	-0.578433
15507		7.551533	-5.022597	-3.624632	0.176545	-0.163606	-0.075306	-0.683350	0.143555	0.475586	-0.070523	-0.607986	0.539362	-0.578332
15508		7.633594	-5.386703	-3.783722	-0.049611	-0.014593	-0.041773	-0.684082	0.150146	0.474609	-0.070856	-0.608139	0.539429	-0.578068
15509		8.121070	-5.049112	-3.183266	-0.187533	0.074467	-0.024725	-0.687500	0.148193	0.475830	-0.072116	-0.607663	0.540197	-0.577696
15510		7.720152	-5.230888	-2.942201	-0.153874	0.064517	-0.026297	-0.679199	0.139893	0.476318	-0.073171	-0.607274	0.540786	-0.577421
15511		7.167642	-5.598857	-3.205872	0.086484	-0.068170	-0.047084	-0.674561	0.136963	0.470947	-0.072560	-0.607835	0.540202	-0.577454
15512		7.571825	-4.951969	-3.701977	0.175467	-0.101716	-0.047002	-0.682861	0.143066	0.482910	-0.071443	-0.608560	0.539251	-0.577719
15513		7.605280	-5.108396	-3.806648	0.018145	0.015999	-0.003325	-0.683838	0.145264	0.481934	-0.071276	-0.608520	0.539132	-0.577892
15514		7.704867	-5.783408	-3.415791	-0.037253	0.064229	-0.000508	-0.687012	0.139648	0.471924	-0.071583	-0.608183	0.539271	-0.578080
15515		7.862172	-5.016837	-2.931798	-0.034025	0.063859	-0.005765	-0.680664	0.133545	0.479736	-0.072104	-0.607757	0.539422	-0.578322
15516		7.486374	-5.553038	-2.741779	-0.047924	0.059998	-0.005229	-0.690186	0.137695	0.470703	-0.072619	-0.607500	0.539603	-0.578359
15517		7.389984	-5.295807	-3.056979	0.005745	0.009360	-0.021259	-0.683105	0.134766	0.479736	-0.072792	-0.607429	0.539508	-0.578500
15518		7.345321	-5.520368	-3.320838	0.004311	0.017673	-0.027636	-0.683105	0.132568	0.473877	-0.072935	-0.607501	0.539343	-0.578561
15519		7.531633	-5.541486	-3.352543	0.018271	0.011643	-0.030976	-0.680176	0.140869	0.475342	-0.073087	-0.607559	0.539131	-0.578677
15520		7.665949	-5.359714	-3.044186	-0.011464	0.026359	-0.033566	-0.685547	0.133057	0.473389	-0.073314	-0.607546	0.539034	-0.578754
15521		7.568310	-5.435009	-2.880379	-0.008816	0.017470	-0.041118	-0.688721	0.139404	0.472412	-0.073671	-0.607594	0.538894	-0.578787
15522		7.669933	-5.226184	-3.138339	0.012085	-0.007061	-0.046672	-0.679688	0.142578	0.475098	-0.073764	-0.607758	0.538635	-0.578845
15523		7.581631	-5.357084	-3.261031	-0.023028	0.011045	-0.043180	-0.689697	0.135986	0.479980	-0.073978	-0.607853	0.538549	-0.578798
15524		7.590647	-5.162121	-3.253131	-0.019651	0.013403	-0.040818	-0.690430	0.135742	0.475830	-0.074246	-0.607973	0.538420	-0.578758
15525		7.686537	-5.145752	-3.194266	-0.002633	0.010137	-0.031705	-0.683105	0.135986	0.481934	-0.074415	-0.608025	0.538277	-0.578814
15526		7.660889	-5.136068	-3.259810	0.045508	-0.012155	-0.027887	-0.684082	0.146484	0.480957	-0.074112	-0.608298	0.537915	-0.578904
15527		7.785873	-5.114481	-3.338317	0.041668	-0.000817	-0.016054	-0.684082	0.136719	0.467041	-0.073709	-0.608403	0.537633	-0.579106
15528		7.730560	-5.213195	-3.219095	0.018571	0.016602	-0.000189	-0.681152	0.137939	0.476318	-0.073723	-0.608201	0.537611	-0.579337
15529		7.653279	-5.092095	-3.138106	0.019569	0.019070	0.007704	-0.690918	0.143066	0.469727	-0.073561	-0.608085	0.537567	-0.579520
15530		7.682532	-5.157050	-3.174571	0.000427	0.036133	0.019503	-0.685303	0.134766	0.469727	-0.073573	-0.607691	0.537689	-0.579818
15531		7.567132	-5.425287	-3.165417	0.017371	0.018446	0.023725	-0.688232	0.138184	0.479004	-0.073480	-0.607433	0.537764	-0.580031
15532		7.791412	-4.932657	-3.223618	0.012786	0.024997	0.031333	-0.694824	0.139893	0.474854	-0.073259	-0.607210	0.537831	-0.580230
15533		7.713473	-5.175972	-3.075061	-0.037500	0.054538	0.050901	-0.686768	0.135986	0.475342	-0.073387	-0.606656	0.538232	-0.580422
15534		7.489988	-5.459781	-3.110043	0.003417	0.028709	0.045599	-0.686035	0.139160	0.471924	-0.073228	-0.606328	0.538432	-0.580599
15535		7.437095	-5.619316	-3.078816	0.031497	0.009886	0.036477	-0.691895	0.146973	0.471191	-0.072890	-0.606101	0.538485	-0.580829
15536		7.574061	-5.377043	-2.989673	0.024656	0.005512	0.028575	-0.681885	0.144775	0.468506	-0.072545	-0.605877	0.538530	-0.581064
15537		7.508078	-5.519610	-2.955854	0.017663	0.003131	0.020172	-0.687256	0.144287	0.468750	-0.072297	-0.605702	0.538603	-0.581209
15538		7.570791	-5.446791	-3.179532	0.073986	-0.033497	0.006897	-0.693848	0.141846	0.474854	-0.071690	-0.605793	0.538344	-0.581431
15539		7.634288	-5.225087	-3.263979	0.030770	-0.000895	0.015167	-0.682373	0.142822	0.472900	-0.071397	-0.605734	0.538261	-0.581605
15540		7.422477	-5.661631	-3.214540	0.021426	0.008165	0.016875	-0.692139	0.144775	0.475830	-0.071162	-0.605621	0.538263	-0.581749
15541		7.493791	-5.513342	-3.104463	0.090834	-0.030795	-0.002780	-0.688477	0.146240	0.471436	-0.070474	-0.605835	0.537813	-0.582026
15542		7.708884	-5.113220	-3.019746	0.073586	-0.025701	-0.000078	-0.689697	0.149170	0.471680	-0.069919	-0.605948	0.537497	-0.582268
15543		7.631252	-5.381588	-3.087701	0.035942	-0.005437	0.008299	-0.684570	0.151855	0.464600	-0.069582	-0.605895	0.537389	-0.582463
15544		7.476398	-5.508712	-3.090928	0.046927	-0.016413	0.005427	-0.682129	0.147217	0.473877	-0.069199	-0.605826	0.537282	-0.582679
15545		7.638123	-5.228919	-2.894190	0.036108	-0.020430	0.001585	-0.684326	0.154541	0.466064	-0.068809	-0.605935	0.537146	-0.582737
15546		7.667466	-5.337618	-2.869217	-0.003457	-0.000739	0.004440	-0.688721	0.152588	0.468018	-0.068721	-0.605777	0.537260	-0.582806
15547		7.319918	-5.631574	-3.008699	0.034827	-0.032419	0.000998	-0.692871	0.147461	0.475586	-0.068329	-0.605837	0.537161	-0.582882
15548		7.540185	-5.360902	-3.060599	0.039661	-0.046069	-0.009982	-0.691650	0.151611	0.473877	-0.067892	-0.606118	0.536928	-0.582855
15549		7.545115	-5.480827	-3.020160	-0.012431	-0.020330	-0.001427	-0.687744	0.148926	0.466797	-0.067770	-0.606170	0.536994	-0.582754
15550		7.485824	-5.624009	-3.057700	0.018672	-0.042449	-0.015097	-0.681885	0.148682	0.468506	-0.067568	-0.606329	0.536913	-0.582687
15551		7.524147	-5.446592	-3.054495	0.033515	-0.053488	-0.025191	-0.687256	0.149414	0.470947	-0.067256	-0.606629	0.536716	-0.582593
15552		7.679198	-5.318596	-3.108728	0.000956	-0.036155	-0.021019	-0.684326	0.150391	0.468994	-0.067153	-0.606817	0.536661	-0.582458
15553		7.551531	-5.488729	-3.060272	-0.028077	-0.023216	-0.021087	-0.684326	0.148682	0.479248	-0.067261	-0.606903	0.536761	-0.582265
15554		7.530392	-5.443141	-3.135679	-0.012752	-0.035418	-0.026685	-0.688232	0.143311	0.479736	-0.067159	-0.607213	0.536692	-0.582017
15555		7.484891	-5.461898	-3.159157	-0.022377	-0.030589	-0.030229	-0.683838	0.145508	0.473877	-0.067218	-0.607514	0.536643	-0.581741
15556		7.592047	-5.305065	-3.157129	-0.026590	-0.027892	-0.029858	-0.690918	0.148682	0.471924	-0.067340	-0.607720	0.536669	-0.581488
15557		7.555051	-5.367002	-3.095983	-0.035089	-0.025632	-0.029426	-0.687988	0.153076	0.475342	-0.067520	-0.607853	0.536737	-0.581265
15558		7.577422	-5.374874	-3.141197	-0.013899	-0.037673	-0.029509	-0.690918	0.149170	0.474609	-0.067437	-0.608089	0.536690	-0.581070
15559		7.611188	-5.262193	-3.170291	-0.019682	-0.036457	-0.029176	-0.684570	0.150879	0.476562	-0.067453	-0.608304	0.536676	-0.580857
15560		7.654419	-5.283299	-3.254561	-0.026480	-0.028249	-0.022527	-0.678223	0.143311	0.476318	-0.067446	-0.608475	0.536723	-0.580636
15561		7.505264	-5.412115	-3.276243	-0.010345	-0.032537	-0.019556	-0.685059	0.141602	0.472900	-0.067397	-0.608687	0.536728	-0.580414
15562		7.530333	-5.338471	-3.246409	0.006316	-0.037892	-0.020313	-0.682617	0.148926	0.478027	-0.067327	-0.608877	0.536669	-0.580278
15563		7.554081	-5.284298	-3.150282	-0.015826	-0.022271	-0.015106	-0.683594	0.137451	0.476074	-0.067265	-0.609004	0.536699	-0.580125
15564		7.441086	-5.505607	-3.082599	-0.007876	-0.026458	-0.020356	-0.685059	0.140137	0.477295	-0.067329	-0.609175	0.536687	-0.579948
15565		7.488813	-5.512865	-3.101285	0.039496	-0.057840	-0.030997	-0.683350	0.144775	0.472168	-0.067023	-0.609573	0.536399	-0.579832
15566		7.512606	-5.410668	-3.179997	0.032397	-0.063432	-0.035520	-0.683594	0.136963	0.476074	-0.066757	-0.609936	0.536164	-0.579698
15567		7.413620	-5.506746	-3.207052	0.009203	-0.061687	-0.038560	-0.682617	0.147949	0.477783	-0.066686	-0.610346	0.536009	-0.579417
15568		7.416692	-5.546352	-3.149139	0.017130	-0.075440	-0.049747	-0.685059	0.145996	0.482178	-0.066416	-0.610873	0.535744	-0.579139
15569		7.543252	-5.472723	-3.088785	0.028336	-0.070335	-0.058415	-0.686279	0.152588	0.474365	-0.066142	-0.611458	0.535350	-0.578916
15570		7.594727	-5.328481	-3.167815	0.031522	-0.068969	-0.065096	-0.677246	0.140381	0.482422	-0.065907	-0.611953	0.534951	-0.578790
15571		7.601789	-5.256497	-3.339861	0.021011	-0.059231	-0.057656	-0.685791	0.142334	0.487305	-0.065767	-0.612487	0.534618	-0.578548
15572		7.625371	-5.244073	-3.450290	0.014864	-0.047594	-0.052676	-0.688721	0.145020	0.480469	-0.065638	-0.612968	0.534283	-0.578362
15573		7.667058	-5.197786	-3.468202	0.008022	-0.032909	-0.044501	-0.682861	0.145020	0.481934	-0.065622	-0.613242	0.534054	-0.578286
15574		7.649061	-5.267296	-3.375600	-0.005133	-0.011139	-0.033410	-0.676514	0.143799	0.484863	-0.065684	-0.613379	0.533936	-0.578242
15575		7.606705	-5.263263	-3.318877	0.006418	-0.011827	-0.031449	-0.672363	0.138672	0.481934	-0.065639	-0.613565	0.533767	-0.578206
15576		7.627416	-5.188800	-3.305035	0.005087	-0.002540	-0.028851	-0.678467	0.144775	0.480713	-0.065711	-0.613672	0.533652	-0.578190
15577		7.588424	-5.158428	-3.281105	-0.009523	0.007828	-0.020541	-0.684570	0.139648	0.490234	-0.065821	-0.613649	0.533631	-0.578222
15578		7.575234	-5.345021	-3.326003	-0.016653	0.018236	-0.013484	-0.677979	0.135986	0.479492	-0.065944	-0.613653	0.533598	-0.578234
15579		7.595995	-5.360623	-3.199928	-0.007742	0.015187	-0.012634	-0.677734	0.145996	0.484375	-0.066145	-0.613562	0.533627	-0.578281
15580		7.576533	-5.311181	-3.181471	0.005233	0.011523	-0.016782	-0.679688	0.142090	0.477051	-0.066111	-0.613561	0.533522	-0.578383
15581		7.597800	-5.254138	-3.209164	0.003244	0.007714	-0.014323	-0.677734	0.138672	0.479492	-0.066189	-0.613481	0.533498	-0.578480
15582		7.604506	-5.293173	-3.252177	-0.006142	0.014950	-0.011163	-0.682129	0.137451	0.487793	-0.066335	-0.613389	0.533521	-0.578541
15583		7.544671	-5.395500	-3.239688	-0.014662	0.017143	-0.010694	-0.674805	0.135986	0.486572	-0.066460	-0.613375	0.533515	-0.578546
15584		7.517830	-5.348036	-3.186818	-0.008820	0.014306	-0.013709	-0.687256	0.143066	0.480957	-0.066566	-0.613392	0.533494	-0.578536
15585		7.610730	-5.321642	-3.226685	-0.012194	0.016713	-0.013054	-0.681885	0.137695	0.485352	-0.066705	-0.613298	0.533493	-0.578621
15586		7.614581	-5.241403	-3.238890	-0.029368	0.026151	-0.008226	-0.680420	0.141602	0.479004	-0.066944	-0.613198	0.533580	-0.578618
15587		7.567037	-5.346716	-3.328648	-0.019284	0.020661	-0.011621	-0.677979	0.138184	0.478760	-0.067145	-0.613067	0.533650	-0.578669
15588		7.573241	-5.369568	-3.327873	-0.006439	0.022062	-0.011866	-0.685303	0.136719	0.484131	-0.067317	-0.612947	0.533666	-0.578762
15589		7.612857	-5.295647	-3.251769	-0.005318	0.026070	-0.010482	-0.679688	0.136230	0.482178	-0.067460	-0.612862	0.533624	-0.578874
15590		7.665272	-5.259755	-3.254691	-0.030194	0.044015	-0.007495	-0.676025	0.133545	0.479248	-0.067808	-0.612651	0.533735	-0.578954
15591		7.596580	-5.354461	-3.248521	-0.033958	0.047222	-0.004047	-0.684570	0.138672	0.474365	-0.068218	-0.612386	0.533912	-0.579023
15592		7.439324	-5.448130	-3.181298	-0.019273	0.040011	-0.012036	-0.691406	0.142334	0.473877	-0.068564	-0.612131	0.533984	-0.579185
15593		7.556528	-5.316774	-3.151823	-0.009823	0.031123	-0.017857	-0.682861	0.144531	0.479248	-0.068817	-0.611941	0.533960	-0.579378
15594		7.651313	-5.213620	-3.147548	-0.036705	0.045188	-0.008327	-0.683350	0.142822	0.479004	-0.069123	-0.611696	0.534087	-0.579483
15595		7.628091	-5.307092	-3.199666	-0.037812	0.050891	-0.011960	-0.679443	0.144531	0.478760	-0.069492	-0.611444	0.534198	-0.579603
15596		7.579482	-5.345605	-3.222818	-0.030285	0.044374	-0.010621	-0.680420	0.141602	0.476807	-0.069757	-0.611225	0.534290	-0.579717
15597		7.656086	-5.181196	-3.083122	-0.036686	0.045207	-0.008298	-0.687256	0.138916	0.478027	-0.070094	-0.610974	0.534438	-0.579805
15598		7.684591	-5.140251	-3.078858	-0.039043	0.040453	-0.001638	-0.687012	0.138428	0.472900	-0.070408	-0.610731	0.534608	-0.579866
15599		7.664806	-5.095244	-3.200951	-0.016367	0.030252	0.003281	-0.684326	0.139404	0.473633	-0.070593	-0.610473	0.534738	-0.579995
15600		7.676200	-5.199553	-3.362195	-0.012354	0.039090	0.012474	-0.682617	0.140869	0.473877	-0.070725	-0.610149	0.534887	-0.580182
15601		7.701604	-5.226799	-3.494986	-0.008129	0.049063	0.022487	-0.683838	0.140869	0.468018	-0.070807	-0.609745	0.535058	-0.580440
15602		7.577648	-5.325635	-3.253393	-0.045779	0.076601	0.033390	-0.690918	0.145264	0.471924	-0.071217	-0.609071	0.535491	-0.580698
15603		7.576275	-5.291309	-3.073730	-0.043614	0.078380	0.035597	-0.686279	0.143555	0.474365	-0.071522	-0.608428	0.535861	-0.580994
15604		7.663598	-5.293254	-2.932584	-0.034686	0.060907	0.031621	-0.683594	0.139404	0.476807	-0.071698	-0.607940	0.536165	-0.581201
15605		7.630272	-5.363212	-3.111961	-0.005602	0.040260	0.028287	-0.687744	0.145508	0.469482	-0.071656	-0.607631	0.536313	-0.581394
15606		7.467674	-5.310396	-3.231731	-0.017888	0.045671	0.032168	-0.687744	0.143311	0.479980	-0.071711	-0.607171	0.536579	-0.581621
15607		7.497776	-5.316658	-3.215669	-0.076413	0.078182	0.039768	-0.686035	0.144775	0.459961	-0.072067	-0.606628	0.537056	-0.581704
15608		7.518382	-5.652691	-3.085681	-0.087679	0.081865	0.033069	-0.686523	0.142578	0.469727	-0.072748	-0.605838	0.537732	-0.581818
15609		7.551735	-5.508698	-3.126766	-0.046044	0.057054	0.018488	-0.694336	0.142090	0.467041	-0.073063	-0.605404	0.538048	-0.581939
15610		7.576140	-5.275918	-3.046679	-0.084810	0.071479	0.018794	-0.689941	0.142334	0.466553	-0.073683	-0.604837	0.538551	-0.581985
15611		7.592201	-5.195915	-3.017594	-0.091473	0.072871	0.022985	-0.695801	0.143799	0.472168	-0.074304	-0.604248	0.539112	-0.581997
15612		7.467008	-5.548712	-3.213949	-0.046572	0.052046	0.013429	-0.693359	0.143311	0.461182	-0.074567	-0.603904	0.539350	-0.582100
15613		7.498277	-5.500261	-3.231494	-0.000052	0.022686	0.005149	-0.692627	0.138428	0.468018	-0.074633	-0.603634	0.539444	-0.582285
15614		7.635809	-5.343831	-3.173179	-0.051231	0.051174	0.006310	-0.689209	0.135742	0.460205	-0.075039	-0.603291	0.539715	-0.582337
15615		7.516116	-5.414241	-3.113370	-0.081970	0.067590	0.010245	-0.695801	0.146729	0.456787	-0.075763	-0.602743	0.540225	-0.582339
15616		7.550252	-5.483886	-3.110233	-0.037228	0.043956	-0.002831	-0.686523	0.139648	0.461182	-0.076143	-0.602345	0.540457	-0.582485
15617		7.651184	-5.254081	-3.072285	-0.017934	0.036207	-0.005422	-0.687988	0.143066	0.455811	-0.076396	-0.602091	0.540572	-0.582608
15618		7.864219	-5.136862	-3.034704	0.023830	0.008347	-0.000914	-0.697021	0.147949	0.462158	-0.076316	-0.601914	0.540557	-0.582815
15619		7.608396	-5.426249	-3.439887	0.075804	-0.003804	-0.005476	-0.695801	0.138672	0.469238	-0.075830	-0.601922	0.540187	-0.583213
15620		7.614163	-5.070291	-3.403752	0.037257	0.022659	0.007520	-0.697266	0.137939	0.462402	-0.075616	-0.601813	0.540017	-0.583511
15621		7.495969	-5.357724	-3.134998	-0.104713	0.114846	0.027673	-0.697998	0.143311	0.466064	-0.076526	-0.600989	0.540642	-0.583663
15622		7.359330	-5.969760	-2.905087	-0.068503	0.089022	0.008890	-0.682861	0.143555	0.459229	-0.077107	-0.600460	0.540953	-0.583843
15623		7.500244	-5.561192	-2.907313	0.068565	0.005323	-0.031786	-0.693848	0.138672	0.459961	-0.076855	-0.600555	0.540524	-0.584175
15624		7.953326	-5.130214	-3.139611	0.130779	-0.022703	-0.035212	-0.697754	0.132080	0.466064	-0.076250	-0.600838	0.539781	-0.584651
15625		7.574588	-5.416808	-3.514229	0.148422	-0.018934	-0.030431	-0.694824	0.145020	0.462646	-0.075562	-0.601167	0.538926	-0.585190
15626		7.486684	-5.175461	-3.327841	0.065100	0.033440	-0.017396	-0.694824	0.138916	0.459717	-0.075368	-0.601087	0.538518	-0.585672
15627		7.395500	-5.486208	-2.922872	-0.128023	0.140615	0.003207	-0.693604	0.145508	0.450684	-0.076619	-0.600243	0.539124	-0.585819
15628		7.287876	-5.904260	-2.602776	-0.093585	0.101575	-0.027308	-0.697510	0.141846	0.450928	-0.077682	-0.599646	0.539495	-0.585948
15629		7.660322	-5.605335	-2.887013	0.065796	0.007580	-0.072816	-0.697510	0.142822	0.449219	-0.077765	-0.599831	0.538907	-0.586289
15630		7.528772	-5.797591	-3.451171	0.188170	-0.052278	-0.096392	-0.698242	0.136963	0.449707	-0.077083	-0.600477	0.537650	-0.586871
15631		7.832364	-4.901507	-3.608744	0.116802	0.012709	-0.080134	-0.697021	0.141113	0.460449	-0.077038	-0.600686	0.536796	-0.587445
15632		7.424215	-5.428467	-3.245220	-0.099613	0.155609	-0.046427	-0.699219	0.138184	0.458252	-0.078367	-0.600053	0.536963	-0.587763
15633		7.208269	-6.015525	-3.120685	-0.066181	0.138493	-0.072736	-0.697754	0.140625	0.453857	-0.079611	-0.599631	0.536857	-0.588123
15634		7.931974	-5.046848	-2.824093	-0.088056	0.140293	-0.092109	-0.701660	0.136963	0.458008	-0.081051	-0.599242	0.536778	-0.588396
15635		7.743323	-5.411146	-2.720778	-0.096972	0.153016	-0.086892	-0.697998	0.131104	0.446289	-0.082532	-0.598823	0.536710	-0.588678
15636		7.624501	-5.451560	-2.993725	0.075355	0.053106	-0.117731	-0.695557	0.136475	0.448242	-0.083014	-0.599027	0.535822	-0.589211
15637		7.864771	-4.872470	-3.359505	0.032441	0.083104	-0.099760	-0.699219	0.138916	0.455322	-0.083647	-0.599018	0.535173	-0.589721
15638		7.701137	-5.143301	-3.198321	-0.190606	0.221357	-0.052973	-0.703369	0.134521	0.449707	-0.085654	-0.598064	0.535668	-0.589952
15639		7.580060	-5.407362	-2.558971	-0.201351	0.211410	-0.056503	-0.705811	0.121338	0.453613	-0.087763	-0.597112	0.536241	-0.590085
15640		7.602627	-5.442356	-2.551492	-0.058057	0.125544	-0.092658	-0.707520	0.132080	0.447021	-0.088996	-0.596927	0.535950	-0.590352
15641		7.810937	-5.277177	-2.903114	0.083102	0.037642	-0.108507	-0.699463	0.119385	0.439209	-0.089155	-0.597272	0.534984	-0.590855
15642		7.829429	-4.925493	-2.809887	0.041477	0.052929	-0.089175	-0.712158	0.128906	0.436035	-0.089691	-0.597349	0.534404	-0.591221
15643		7.779960	-5.292006	-2.483113	-0.003624	0.064283	-0.069998	-0.707764	0.125488	0.443848	-0.090355	-0.597196	0.534128	-0.591523
15644		7.588555	-5.620558	-2.453595	0.048293	0.012668	-0.088912	-0.708252	0.117432	0.450439	-0.090536	-0.597543	0.533464	-0.591745
15645		7.892184	-4.993679	-2.787961	0.097892	-0.038761	-0.106397	-0.708008	0.126709	0.444092	-0.090315	-0.598353	0.532444	-0.591879
15646		8.126692	-4.487508	-2.967248	-0.035384	0.040217	-0.068403	-0.704834	0.119385	0.440186	-0.090910	-0.598407	0.532271	-0.591889
15647		7.835202	-5.194256	-2.783696	-0.014057	0.028283	-0.049785	-0.711426	0.127197	0.435303	-0.091352	-0.598420	0.532136	-0.591928
15648		7.949972	-5.061293	-2.672114	0.134041	-0.066331	-0.064934	-0.709229	0.117188	0.441162	-0.090699	-0.599002	0.531302	-0.592190
15649		8.191114	-4.716010	-2.843731	0.116725	-0.051909	-0.046062	-0.704590	0.117920	0.442627	-0.090128	-0.599503	0.530583	-0.592415
15650		7.929954	-4.697441	-2.773577	0.001090	0.003457	-0.010681	-0.705566	0.117676	0.443604	-0.090182	-0.599506	0.530565	-0.592419
15651		7.805722	-4.838229	-2.589401	-0.026754	0.003582	0.005231	-0.711182	0.125244	0.438477	-0.090289	-0.599430	0.530750	-0.592314
15652		7.791847	-5.211797	-2.582802	0.030375	-0.034540	0.004446	-0.702881	0.129883	0.437256	-0.089943	-0.599507	0.530720	-0.592315
15653		7.940041	-4.976589	-2.693146	0.117462	-0.102083	-0.002280	-0.711426	0.127441	0.447754	-0.088867	-0.599995	0.530304	-0.592356
15654		8.090854	-4.828657	-3.041069	0.016758	-0.043976	0.023283	-0.709961	0.124512	0.438232	-0.088351	-0.600127	0.530358	-0.592251
15655		7.812867	-5.338693	-3.071792	-0.050173	-0.001465	0.047066	-0.710449	0.125732	0.439697	-0.088394	-0.599771	0.530933	-0.592090
15656		7.747522	-5.234119	-2.803819	0.003036	-0.028282	0.030483	-0.709961	0.128174	0.444092	-0.088107	-0.599677	0.531167	-0.592019
15657		7.970516	-4.999824	-2.795881	0.049979	-0.048102	0.031148	-0.715088	0.124268	0.436523	-0.087427	-0.599763	0.531145	-0.592052
15658		7.779073	-5.062833	-3.197067	0.082505	-0.058498	0.037133	-0.698730	0.133057	0.438477	-0.086656	-0.599795	0.531072	-0.592198
15659		7.922366	-5.116871	-3.075803	0.024397	-0.016083	0.051075	-0.708252	0.133789	0.435303	-0.086179	-0.599546	0.531328	-0.592290
15660		7.666697	-5.339949	-2.854444	-0.048790	0.031671	0.059755	-0.705811	0.126465	0.451172	-0.086291	-0.598917	0.531975	-0.592330
15661		7.286062	-5.884802	-2.606781	-0.059362	0.020699	0.038818	-0.707031	0.120361	0.441650	-0.086395	-0.598639	0.532424	-0.592193
15662		7.385680	-5.726502	-2.725358	0.016129	-0.034726	0.003731	-0.707520	0.136230	0.443359	-0.086219	-0.598730	0.532459	-0.592095
15663		7.772165	-5.133055	-2.970540	0.044693	-0.055782	-0.012623	-0.701172	0.133057	0.449951	-0.085718	-0.599022	0.532266	-0.592046
15664		8.175206	-4.819335	-2.981095	0.020294	-0.039787	-0.003239	-0.710693	0.125732	0.447998	-0.085321	-0.599261	0.532177	-0.591941
15665		7.990621	-5.066392	-3.315866	-0.011144	0.006173	0.019196	-0.709229	0.129883	0.446777	-0.085288	-0.599118	0.532335	-0.591949
15666		7.725171	-5.219193	-3.284442	-0.080146	0.057897	0.029225	-0.698242	0.133545	0.445557	-0.085754	-0.598608	0.532861	-0.591924
15667		7.606878	-5.325662	-2.736938	-0.225771	0.133433	0.044228	-0.714111	0.140625	0.445068	-0.087167	-0.597553	0.534148	-0.591624
15668		7.363037	-6.078466	-2.294015	-0.208956	0.102460	0.027989	-0.707031	0.134766	0.446289	-0.088380	-0.596709	0.535273	-0.591278
15669		7.386758	-6.031587	-1.975865	0.005158	-0.062333	-0.038541	-0.707764	0.126709	0.445312	-0.088131	-0.597171	0.535120	-0.590988
15670		8.267898	-4.286636	-3.046988	0.073931	-0.118752	-0.046774	-0.711182	0.122314	0.447998	-0.087413	-0.597990	0.534634	-0.590706
15671		7.978162	-3.990942	-3.452759	-0.203706	0.050775	0.030517	-0.699707	0.133545	0.441406	-0.088476	-0.597452	0.535745	-0.590085
15672		7.543603	-5.654945	-3.666294	-0.160973	0.080931	0.057220	-0.714111	0.129395	0.438965	-0.089300	-0.596575	0.536863	-0.589832
15673		7.598473	-5.845825	-3.637925	0.062509	-0.007203	0.020405	-0.699463	0.128662	0.448730	-0.088866	-0.596434	0.536758	-0.590136
15674		8.024527	-4.944183	-3.446717	0.179829	-0.028560	0.019736	-0.702881	0.125488	0.442627	-0.087631	-0.596633	0.536001	-0.590807
15675		8.058778	-4.575647	-2.932733	0.139418	0.011320	0.041365	-0.700439	0.133789	0.438965	-0.086786	-0.596437	0.535572	-0.591518
15676		7.661779	-5.334043	-3.203759	0.062434	0.083255	0.059454	-0.710693	0.145020	0.444580	-0.086540	-0.595693	0.535610	-0.592269
15677		7.124389	-6.382846	-3.217434	0.091832	0.064838	0.028388	-0.704346	0.136719	0.440186	-0.086070	-0.595256	0.535294	-0.593062
15678		7.372069	-5.900477	-2.884969	0.044977	0.089695	-0.007124	-0.709717	0.134033	0.431152	-0.086228	-0.594802	0.535046	-0.593717
15679		7.687820	-5.609482	-1.971158	-0.032810	0.108666	-0.027300	-0.710938	0.140137	0.436768	-0.087084	-0.594183	0.535149	-0.594120
15680		7.920758	-4.927449	-2.241929	0.043711	0.037833	-0.045406	-0.714355	0.137451	0.445068	-0.087194	-0.594132	0.534763	-0.594502
15681		7.780952	-5.289609	-2.896768	0.163538	-0.023965	-0.048371	-0.713867	0.135498	0.434326	-0.086365	-0.594607	0.533705	-0.595099
15682		7.581570	-5.328023	-3.505358	0.264771	-0.071025	-0.053254	-0.709229	0.148193	0.434570	-0.085004	-0.595272	0.532269	-0.595916
15683		7.885512	-5.090807	-3.199283	0.155543	0.016069	-0.029419	-0.711182	0.144531	0.432617	-0.084358	-0.595297	0.531458	-0.596706
15684		7.770344	-5.222244	-2.636927	-0.016986	0.114038	-0.004167	-0.712891	0.138916	0.431152	-0.084932	-0.594592	0.531567	-0.597230
15685		7.807397	-5.711954	-1.970254	-0.000486	0.074356	-0.026758	-0.708496	0.134521	0.426270	-0.085408	-0.594207	0.531497	-0.597608
15686		7.633539	-5.286719	-2.246052	0.083512	-0.003315	-0.049984	-0.713623	0.135010	0.431152	-0.085316	-0.594332	0.530992	-0.597945
15687		7.623814	-5.500595	-2.638249	0.111145	-0.042393	-0.056233	-0.701660	0.135986	0.437256	-0.084883	-0.594762	0.530281	-0.598210
15688		7.914753	-5.068709	-2.997939	0.117510	-0.049817	-0.051739	-0.712402	0.139404	0.427490	-0.084265	-0.595306	0.529507	-0.598441
15689		7.791311	-5.205506	-2.808526	0.019807	0.008374	-0.027146	-0.705078	0.136963	0.427734	-0.084380	-0.595230	0.529411	-0.598585
15690		7.566651	-5.643562	-2.648706	0.044654	-0.010213	-0.033542	-0.707764	0.132080	0.431396	-0.084324	-0.595314	0.529169	-0.598724
15691		7.941290	-5.247429	-2.551155	0.082396	-0.044287	-0.047244	-0.704590	0.138428	0.436035	-0.084004	-0.595703	0.528649	-0.598842
15692		7.886338	-5.004201	-2.617858	0.004857	-0.003038	-0.028756	-0.714355	0.138916	0.435303	-0.084041	-0.595808	0.528533	-0.598835
15693		7.728681	-5.201213	-2.699171	0.000277	-0.008250	-0.022707	-0.711914	0.140137	0.439209	-0.084069	-0.595882	0.528478	-0.598805
15694		7.831113	-5.125670	-2.835934	-0.008039	-0.003934	-0.016748	-0.714600	0.142822	0.430420	-0.084066	-0.595954	0.528451	-0.598757
15695		7.949495	-5.075203	-2.858621	-0.052966	0.022484	0.001800	-0.701416	0.145752	0.435547	-0.084394	-0.595661	0.528821	-0.598677
15696		7.818116	-5.376205	-2.699132	-0.079133	0.040015	0.015256	-0.711426	0.144287	0.437012	-0.084744	-0.595290	0.529324	-0.598551
15697		7.766325	-5.378622	-2.590140	-0.015838	0.010790	0.004484	-0.700195	0.129150	0.430176	-0.084716	-0.595164	0.529456	-0.598564
15698		7.863434	-5.143168	-2.739864	0.024795	-0.016157	0.004329	-0.718018	0.135742	0.438477	-0.084565	-0.595150	0.529467	-0.598590
15699		7.800600	-5.335292	-2.825302	0.005731	-0.001843	0.010212	-0.716064	0.137207	0.436768	-0.084420	-0.595097	0.529498	-0.598636
15700		7.689627	-5.459565	-2.899486	0.033395	-0.012293	0.007919	-0.707520	0.139893	0.435059	-0.084109	-0.595104	0.529409	-0.598751
15701		7.701178	-5.271709	-2.831811	0.037305	-0.012312	0.004912	-0.701172	0.136475	0.436768	-0.083782	-0.595113	0.529315	-0.598871
15702		7.761096	-5.343396	-2.650962	0.019769	0.002116	0.009133	-0.714844	0.136475	0.433838	-0.083586	-0.595057	0.529297	-0.598970
15703		7.749827	-5.451291	-2.621608	0.071369	-0.034026	-0.005377	-0.712158	0.141113	0.428711	-0.083107	-0.595224	0.528998	-0.599135
15704		7.737450	-5.393996	-2.736312	0.099522	-0.053276	-0.009627	-0.709473	0.143066	0.432617	-0.082452	-0.595451	0.528622	-0.599331
15705		7.673677	-5.366161	-2.687216	0.079376	-0.045808	-0.008667	-0.706543	0.138916	0.431885	-0.081867	-0.595671	0.528308	-0.599470
15706		7.767061	-5.386470	-2.582173	0.050688	-0.034854	-0.005752	-0.711182	0.148926	0.436768	-0.081506	-0.595802	0.528149	-0.599529
15707		7.770653	-5.360641	-2.616538	0.058839	-0.042047	-0.011084	-0.705811	0.143066	0.429199	-0.080970	-0.596036	0.527888	-0.599599
15708		7.830671	-5.210540	-2.820230	0.081388	-0.051006	-0.015085	-0.714355	0.141357	0.424072	-0.080443	-0.596262	0.527583	-0.599714
15709		7.884526	-5.081152	-2.829028	0.030547	-0.024251	-0.004477	-0.709229	0.147949	0.440430	-0.080333	-0.596193	0.527619	-0.599765
15710		7.865748	-5.197676	-2.724060	-0.042834	0.019486	0.009338	-0.706055	0.140137	0.433838	-0.080451	-0.596007	0.527887	-0.599699
15711		7.693864	-5.445013	-2.649436	-0.039417	0.012237	0.009888	-0.711914	0.138916	0.432861	-0.080657	-0.595788	0.528210	-0.599605
15712		7.721211	-5.395481	-2.746183	0.011050	-0.019951	-0.002667	-0.703125	0.147949	0.435547	-0.080566	-0.595799	0.528246	-0.599574
15713		7.789291	-5.175511	-2.827782	0.004261	-0.015520	0.001629	-0.711182	0.145752	0.440430	-0.080378	-0.595804	0.528318	-0.599531
15714		7.916892	-5.083543	-2.802518	-0.035242	0.010982	0.015446	-0.705566	0.143066	0.447021	-0.080419	-0.595635	0.528583	-0.599459
15715		7.737118	-5.426939	-2.797412	-0.056324	0.032601	0.023178	-0.708008	0.150879	0.437988	-0.080559	-0.595405	0.528903	-0.599387
15716		7.689249	-5.455409	-2.688101	0.001511	-0.002653	0.013334	-0.697754	0.148193	0.429199	-0.080350	-0.595304	0.529023	-0.599409
15717		7.735196	-5.259671	-2.632996	-0.005027	-0.002988	0.010573	-0.707275	0.146484	0.439697	-0.080299	-0.595117	0.529265	-0.599389
15718		7.606314	-5.635990	-2.715525	0.003488	-0.009637	0.008281	-0.703125	0.151611	0.433350	-0.080091	-0.595108	0.529323	-0.599374
15719		7.615467	-5.531586	-2.744465	0.042936	-0.040715	-0.007612	-0.701660	0.144775	0.435303	-0.079665	-0.595260	0.529218	-0.599373
15720		7.740572	-5.285457	-2.692231	-0.003379	-0.019587	-0.005724	-0.708984	0.143799	0.434082	-0.079586	-0.595305	0.529302	-0.599264
15721		7.651338	-5.568039	-2.618559	-0.016458	-0.015380	-0.012348	-0.713623	0.146973	0.433594	-0.079664	-0.595322	0.529427	-0.599126
15722		7.586620	-5.638158	-2.655135	0.052103	-0.055409	-0.026371	-0.703125	0.149658	0.440918	-0.079285	-0.595624	0.529181	-0.599094
15723		7.788074	-5.262622	-2.768146	0.068073	-0.069261	-0.035200	-0.718750	0.151367	0.437500	-0.078686	-0.596146	0.528748	-0.599036
15724		7.796876	-5.206702	-2.839968	0.012153	-0.031962	-0.022182	-0.708984	0.148438	0.438477	-0.078534	-0.596304	0.528682	-0.598956
15725		7.733016	-5.362663	-2.820054	-0.011919	-0.021372	-0.017895	-0.707031	0.147217	0.436523	-0.078524	-0.596406	0.528738	-0.598807
15726		7.724304	-5.422333	-2.786350	0.011099	-0.031126	-0.024711	-0.709473	0.142090	0.438232	-0.078423	-0.596575	0.528678	-0.598705
15727		7.701373	-5.390199	-2.762831	0.026473	-0.044228	-0.026713	-0.705322	0.141846	0.439941	-0.078224	-0.596856	0.528507	-0.598603
15728		7.736537	-5.320793	-2.777609	0.011252	-0.026511	-0.026734	-0.703857	0.143066	0.439209	-0.078157	-0.597061	0.528386	-0.598514
15729		7.756575	-5.244849	-2.820792	-0.011431	-0.019034	-0.020318	-0.704834	0.155762	0.434570	-0.078203	-0.597171	0.528422	-0.598366
15730		7.694667	-5.409171	-2.757595	-0.022355	-0.010542	-0.018078	-0.708740	0.148438	0.439209	-0.078294	-0.597129	0.528612	-0.598228
15731		7.660623	-5.421305	-2.782877	0.011501	-0.030542	-0.021646	-0.707520	0.139648	0.439941	-0.078151	-0.597294	0.528552	-0.598135
15732		7.661644	-5.436016	-2.774334	0.018407	-0.034899	-0.030025	-0.711914	0.136230	0.438477	-0.078057	-0.597547	0.528390	-0.598037
15733		7.745356	-5.373970	-2.802273	0.020965	-0.040163	-0.031188	-0.706299	0.145508	0.435791	-0.077987	-0.597810	0.528224	-0.597931
15734		7.750983	-5.222976	-2.844962	0.003356	-0.027217	-0.028715	-0.696533	0.146729	0.440186	-0.078004	-0.597936	0.528212	-0.597813
15735		7.703913	-5.444551	-2.793502	-0.006874	-0.018711	-0.025258	-0.704102	0.142578	0.436523	-0.078011	-0.598064	0.528221	-0.597676
15736		7.709857	-5.388677	-2.810347	0.023569	-0.034567	-0.029696	-0.697754	0.140381	0.442871	-0.077913	-0.598255	0.528100	-0.597604
15737		7.818805	-5.261727	-2.815406	0.016890	-0.033246	-0.029767	-0.701416	0.134033	0.438721	-0.077787	-0.598525	0.527939	-0.597493
15738		7.784733	-5.256268	-2.851689	-0.004288	-0.019427	-0.024370	-0.703613	0.138428	0.442627	-0.077913	-0.598636	0.527938	-0.597366
15739		7.749575	-5.312970	-2.756038	-0.000475	-0.021224	-0.021892	-0.701660	0.144287	0.435791	-0.077922	-0.598782	0.527899	-0.597252
15740		7.704714	-5.326844	-2.820454	0.000022	-0.017466	-0.022614	-0.700684	0.145996	0.440186	-0.077976	-0.598821	0.527943	-0.597167
15741		7.677548	-5.407708	-2.779264	0.010160	-0.026003	-0.021990	-0.701172	0.144043	0.445801	-0.077871	-0.598960	0.527900	-0.597080
15742		7.814327	-5.215001	-2.816460	0.022129	-0.031814	-0.024560	-0.703125	0.144043	0.447754	-0.077651	-0.599213	0.527726	-0.597009
15743		7.807660	-5.187530	-2.893205	-0.010115	-0.012764	-0.013132	-0.704346	0.137451	0.443848	-0.077606	-0.599316	0.527739	-0.596900
15744		7.700842	-5.387712	-2.878611	-0.009860	-0.007385	-0.007131	-0.697754	0.146729	0.436768	-0.077655	-0.599323	0.527807	-0.596825
15745		7.722514	-5.348393	-2.823579	0.005511	-0.020101	-0.012319	-0.705811	0.141113	0.439941	-0.077591	-0.599334	0.527887	-0.596753
15746		7.787847	-5.291792	-2.781205	-0.001684	-0.009988	-0.010449	-0.701416	0.147217	0.444824	-0.077626	-0.599314	0.527956	-0.596708
15747		7.742296	-5.307266	-2.844272	-0.003727	-0.005844	-0.008883	-0.708496	0.149170	0.443604	-0.077566	-0.599324	0.527999	-0.596667
15748		7.802521	-5.269051	-2.809722	-0.003335	-0.005283	-0.005835	-0.713135	0.139160	0.440186	-0.077507	-0.599287	0.528073	-0.596646
15749		7.856659	-5.154168	-2.809101	-0.023485	0.006264	0.000375	-0.703369	0.136475	0.448242	-0.077699	-0.599117	0.528287	-0.596603
15750		7.870606	-5.169230	-2.685106	-0.049391	0.012280	0.009361	-0.703369	0.142090	0.439697	-0.077912	-0.598978	0.528578	-0.596457
15751		7.809974	-5.205958	-2.723664	-0.036911	0.000113	0.015532	-0.708496	0.152100	0.444824	-0.078026	-0.598771	0.528950	-0.596320
15752		7.692077	-5.272798	-2.692378	-0.034073	-0.009192	0.019451	-0.704834	0.146240	0.435547	-0.077938	-0.598635	0.529296	-0.596161
15753		7.655993	-5.298157	-2.676061	-0.044192	-0.010776	0.028327	-0.697754	0.138916	0.443115	-0.077997	-0.598359	0.529831	-0.595955
15754		7.711532	-5.169774	-2.542233	-0.047956	-0.023260	0.026064	-0.698975	0.136719	0.442871	-0.077994	-0.598264	0.530285	-0.595647
15755		7.803847	-5.331615	-2.721260	-0.017643	-0.048939	0.031922	-0.704102	0.141602	0.444092	-0.077725	-0.598284	0.530636	-0.595349
15756		7.672454	-5.493797	-2.967154	0.026666	-0.069908	0.026157	-0.701416	0.146484	0.440918	-0.077138	-0.598454	0.530752	-0.595151
15757		7.726342	-5.245804	-2.967836	0.005015	-0.056708	0.032678	-0.705322	0.143799	0.443359	-0.076687	-0.598470	0.531049	-0.594929
15758		7.679446	-5.293271	-2.907267	-0.042477	-0.021377	0.042554	-0.695312	0.142090	0.445068	-0.076597	-0.598253	0.531582	-0.594682
15759		7.592986	-5.526384	-2.979094	-0.024086	-0.032473	0.035709	-0.698975	0.143799	0.452637	-0.076380	-0.598168	0.531980	-0.594439
15760		7.610177	-5.549897	-3.054887	-0.006995	-0.035883	0.024709	-0.701172	0.145508	0.442871	-0.076039	-0.598234	0.532169	-0.594247
15761		7.478258	-5.664807	-2.944163	-0.018503	-0.025968	0.023466	-0.714844	0.135742	0.447021	-0.075909	-0.598125	0.532511	-0.594068
15762		7.485171	-5.733498	-2.938219	0.005467	-0.035457	0.005449	-0.704346	0.143066	0.454346	-0.075779	-0.598187	0.532595	-0.593947
15763		7.473853	-5.684416	-2.940582	0.039070	-0.050977	-0.010667	-0.704834	0.147461	0.444580	-0.075342	-0.598505	0.532388	-0.593867
15764		7.588310	-5.566195	-3.012716	0.034657	-0.045604	-0.025330	-0.696533	0.147705	0.449463	-0.075091	-0.598741	0.532232	-0.593801
15765		7.647923	-5.460386	-2.895825	0.029760	-0.039826	-0.029990	-0.695801	0.155762	0.446289	-0.074851	-0.599028	0.532032	-0.593722
15766		7.598451	-5.468664	-2.818605	0.041239	-0.049012	-0.039130	-0.691162	0.154541	0.447754	-0.074525	-0.599363	0.531781	-0.593650
15767		7.614562	-5.437138	-2.815903	0.065645	-0.069433	-0.046330	-0.701904	0.149658	0.449219	-0.074014	-0.599865	0.531374	-0.593570
15768		7.583274	-5.359788	-3.006764	0.040672	-0.053823	-0.043241	-0.698242	0.154541	0.438965	-0.073739	-0.600255	0.531080	-0.593473
15769		7.640711	-5.431849	-2.958445	0.012716	-0.036674	-0.042332	-0.695068	0.148926	0.448486	-0.073739	-0.600417	0.531038	-0.593347
15770		7.771621	-5.169616	-2.934785	-0.019729	-0.018469	-0.034686	-0.702148	0.144531	0.446777	-0.073884	-0.600553	0.531077	-0.593156
15771		7.823522	-5.148315	-2.803272	-0.026041	-0.018386	-0.026158	-0.706055	0.147461	0.454102	-0.074090	-0.600614	0.531208	-0.592952
15772		7.740607	-5.200034	-3.039943	-0.013229	-0.021661	-0.020988	-0.697510	0.146240	0.455078	-0.074099	-0.600748	0.531232	-0.592793
15773		7.795894	-5.341837	-3.021334	-0.015159	-0.016438	-0.014527	-0.700439	0.147949	0.447754	-0.074091	-0.600851	0.531286	-0.592642
15774		7.806721	-5.061541	-3.017013	-0.047717	0.011081	-0.001878	-0.697754	0.152344	0.447510	-0.074374	-0.600649	0.531627	-0.592505
15775		7.793361	-5.313712	-2.897628	-0.080586	0.031458	0.010306	-0.697510	0.147705	0.442139	-0.074806	-0.600276	0.532181	-0.592331
15776		7.730049	-5.343188	-2.794659	-0.058118	0.014896	0.007791	-0.700928	0.146729	0.447754	-0.075155	-0.599952	0.532673	-0.592173
15777		7.715593	-5.326748	-2.794888	-0.076772	0.017472	0.008416	-0.700684	0.145020	0.450439	-0.075559	-0.599662	0.533197	-0.591944
15778		7.537993	-5.403464	-2.724040	-0.082868	0.012812	0.009927	-0.702881	0.148682	0.447510	-0.075948	-0.599416	0.533731	-0.591662
15779		7.561434	-5.600767	-2.848421	-0.018048	-0.029486	-0.009309	-0.698730	0.142578	0.450684	-0.075918	-0.599469	0.533908	-0.591453
15780		7.758135	-5.231287	-2.924190	-0.003523	-0.043665	-0.013492	-0.696777	0.144043	0.449463	-0.075790	-0.599657	0.533970	-0.591222
15781		7.597646	-5.178187	-3.112029	-0.080317	0.006162	0.007072	-0.692383	0.149414	0.453125	-0.076165	-0.599445	0.534499	-0.590912
15782		7.321131	-5.756606	-3.051244	-0.039935	-0.023811	-0.000020	-0.704102	0.153076	0.446533	-0.076137	-0.599490	0.534771	-0.590622
15783		7.537924	-5.432258	-3.217336	-0.010797	-0.030084	-0.014414	-0.696777	0.146484	0.454834	-0.076077	-0.599543	0.534913	-0.590447
15784		7.842888	-5.139253	-3.093942	-0.114317	0.034788	-0.000061	-0.694580	0.139648	0.450439	-0.076710	-0.599253	0.535508	-0.590121
15785		7.777162	-5.442534	-2.983226	-0.120589	0.049623	-0.002948	-0.703125	0.140625	0.453369	-0.077550	-0.598851	0.536153	-0.589834
15786		7.658903	-5.553136	-3.066666	-0.042433	0.015537	-0.019689	-0.695801	0.138672	0.451660	-0.077899	-0.598763	0.536322	-0.589724
15787		7.441328	-5.811824	-3.200668	0.007428	0.001271	-0.042178	-0.697754	0.146973	0.449463	-0.078058	-0.598874	0.536156	-0.589740
15788		7.411440	-5.791954	-3.329201	0.006158	0.018896	-0.056622	-0.696533	0.137451	0.446777	-0.078323	-0.598935	0.535939	-0.589841
15789		7.367360	-5.712141	-3.172603	-0.020489	0.045272	-0.071508	-0.705566	0.142090	0.446045	-0.079017	-0.598886	0.535788	-0.589935
15790		7.631530	-5.604456	-2.953252	-0.029853	0.060088	-0.097614	-0.700928	0.130859	0.452148	-0.079925	-0.598856	0.535549	-0.590060
15791		7.568315	-5.706258	-3.030202	0.004801	0.046517	-0.123139	-0.705322	0.140869	0.459473	-0.080734	-0.599112	0.534952	-0.590232
15792		7.716525	-5.379717	-3.275459	0.017912	0.048494	-0.135340	-0.703369	0.131836	0.440186	-0.081368	-0.599510	0.534143	-0.590473
15793		7.923575	-4.855184	-3.347249	-0.021089	0.094768	-0.116081	-0.704102	0.136963	0.447266	-0.082567	-0.599354	0.533787	-0.590786
15794		8.133841	-4.589423	-3.396906	-0.065969	0.155651	-0.090377	-0.707275	0.130615	0.450928	-0.083986	-0.598853	0.533648	-0.591220
15795		7.609128	-5.178913	-3.520188	0.026492	0.154199	-0.068343	-0.703125	0.136475	0.441406	-0.084825	-0.598378	0.533111	-0.592066
15796		7.519240	-5.423813	-3.779952	0.207876	0.097802	-0.083611	-0.713379	0.129883	0.446533	-0.084593	-0.598303	0.531717	-0.593427
15797		7.981651	-4.684640	-3.617289	0.087728	0.201508	-0.050028	-0.708008	0.128662	0.440674	-0.085271	-0.597532	0.530947	-0.594793
15798		7.718229	-5.212488	-2.940351	-0.134722	0.345862	-0.005434	-0.713379	0.129150	0.439941	-0.087506	-0.595663	0.531428	-0.595913
15799		7.657783	-5.455203	-2.161798	-0.139204	0.330297	-0.015135	-0.715332	0.129395	0.436768	-0.089703	-0.593934	0.531859	-0.596927
15800		7.936254	-5.235840	-1.791691	0.000612	0.210650	-0.049276	-0.712646	0.128906	0.432129	-0.090828	-0.593061	0.531505	-0.597939
15801		7.866992	-5.187944	-2.099389	0.133921	0.102019	-0.061040	-0.708252	0.127686	0.419434	-0.090885	-0.592865	0.530528	-0.598992
15802		7.846382	-5.218074	-2.453608	0.149888	0.052455	-0.062112	-0.719482	0.129639	0.424805	-0.090768	-0.592815	0.529616	-0.599866
15803		7.775730	-5.338274	-2.721281	0.000728	0.120037	-0.048261	-0.721924	0.123047	0.422363	-0.091556	-0.592308	0.529400	-0.600437
15804		7.498675	-5.689849	-2.473037	-0.180344	0.210195	-0.042254	-0.714600	0.130127	0.422119	-0.093673	-0.591168	0.530058	-0.600653
15805		7.550535	-5.820901	-2.191393	-0.066734	0.118286	-0.089212	-0.722412	0.127197	0.426758	-0.094943	-0.590822	0.529966	-0.600875
15806		7.994241	-5.218072	-2.202527	0.041028	0.032282	-0.122829	-0.724609	0.122070	0.415039	-0.095440	-0.591190	0.529181	-0.601126
15807		7.967723	-5.141497	-2.710491	0.035357	0.036207	-0.108900	-0.715088	0.118164	0.420410	-0.096060	-0.591350	0.528596	-0.601386
15808		7.620733	-5.298851	-2.972343	-0.020940	0.063574	-0.089962	-0.727783	0.126709	0.425537	-0.096936	-0.591319	0.528306	-0.601530
15809		7.910978	-4.921093	-2.429361	-0.083682	0.086645	-0.082183	-0.716309	0.125488	0.417969	-0.098062	-0.591133	0.528299	-0.601536
15810		8.327575	-4.453920	-2.272381	-0.106690	0.093294	-0.068699	-0.724609	0.120117	0.415283	-0.099300	-0.590788	0.528526	-0.601473
15811		7.983923	-5.255114	-2.487005	-0.030444	0.048846	-0.059825	-0.718262	0.124756	0.417236	-0.099987	-0.590657	0.528466	-0.601540
15812		7.781178	-5.127061	-2.650019	0.086356	-0.026318	-0.068557	-0.720947	0.121094	0.426514	-0.099726	-0.591079	0.527816	-0.601739
15813		7.842723	-5.079983	-2.353244	0.055692	-0.023628	-0.061614	-0.729004	0.118652	0.423584	-0.099544	-0.591521	0.527262	-0.601821
15814		7.902340	-5.135374	-2.566417	0.064755	-0.043649	-0.059868	-0.721924	0.124512	0.418213	-0.099282	-0.592018	0.526717	-0.601853
15815		8.149296	-4.821428	-2.541755	-0.013741	-0.006590	-0.048474	-0.727539	0.115234	0.418945	-0.099508	-0.592162	0.526654	-0.601729
15816		7.979314	-5.022476	-2.399423	-0.061363	0.004937	-0.036065	-0.714600	0.113281	0.424561	-0.100031	-0.592156	0.526862	-0.601466
15817		8.051690	-4.928061	-2.520541	0.009035	-0.047222	-0.040511	-0.724854	0.113525	0.417969	-0.099932	-0.592571	0.526676	-0.601237
15818		8.398506	-4.379344	-2.693860	0.012718	-0.046246	-0.020276	-0.720459	0.119385	0.425537	-0.099799	-0.592803	0.526644	-0.601058
15819		8.078888	-4.894512	-2.794085	-0.005250	-0.022767	0.009387	-0.725586	0.110596	0.416504	-0.099588	-0.592851	0.526769	-0.600936
15820		7.964247	-5.044440	-2.828238	0.030695	-0.035180	0.022325	-0.722412	0.106934	0.420898	-0.099247	-0.592835	0.526861	-0.600928
15821		7.991529	-5.064518	-2.549547	-0.026516	-0.004667	0.037203	-0.720703	0.117188	0.422119	-0.099237	-0.592604	0.527238	-0.600826
15822		7.886251	-5.078130	-2.389078	-0.015770	-0.021269	0.033589	-0.721191	0.120361	0.415283	-0.099030	-0.592487	0.527568	-0.600687
15823		8.024439	-4.830908	-2.469330	0.030290	-0.052406	0.031941	-0.727539	0.128906	0.416748	-0.098512	-0.592494	0.527759	-0.600597
15824		7.947958	-5.074119	-2.725518	0.027579	-0.054291	0.042790	-0.721436	0.128906	0.425293	-0.097886	-0.592454	0.528028	-0.600502
15825		7.639314	-5.515770	-2.683305	-0.004510	-0.047828	0.041442	-0.729736	0.124512	0.419434	-0.097377	-0.592453	0.528364	-0.600290
15826		7.655890	-5.677095	-2.381097	-0.044695	-0.037727	0.029893	-0.727783	0.120605	0.430420	-0.097284	-0.592342	0.528893	-0.599950
15827		7.733448	-5.460307	-2.344717	-0.059848	-0.051060	0.010061	-0.720215	0.120361	0.422852	-0.097236	-0.592488	0.529296	-0.599458
15828		7.703041	-5.524868	-2.401917	-0.020652	-0.092695	-0.008730	-0.727783	0.125732	0.423584	-0.096969	-0.592882	0.529522	-0.598912
15829		8.234518	-4.489766	-2.735737	0.011144	-0.120833	-0.014135	-0.723145	0.121582	0.427979	-0.096424	-0.593441	0.529608	-0.598369
15830		8.018142	-4.883608	-2.779880	-0.079789	-0.060439	0.015728	-0.714355	0.119385	0.428223	-0.096443	-0.593537	0.530201	-0.597745
15831		7.616468	-5.680222	-3.019451	-0.022916	-0.085547	0.011588	-0.718262	0.118164	0.427734	-0.096095	-0.593832	0.530507	-0.597236
15832		7.744848	-5.325437	-2.810556	-0.004108	-0.097199	-0.004073	-0.716064	0.122559	0.430664	-0.095712	-0.594247	0.530666	-0.596744
15833		7.670195	-4.859087	-2.318144	-0.093162	-0.055835	0.011189	-0.714355	0.123291	0.435547	-0.095827	-0.594331	0.531305	-0.596072
15834		7.908063	-5.185904	-1.959182	0.014158	-0.154309	-0.014453	-0.710205	0.109863	0.434326	-0.095054	-0.595146	0.531324	-0.595366
15835		8.056622	-4.899549	-2.874399	0.140806	-0.236045	-0.027050	-0.712158	0.122070	0.429443	-0.093464	-0.596521	0.530693	-0.594805
15836		7.467570	-5.699954	-3.335323	0.038324	-0.184555	-0.009157	-0.713867	0.125488	0.438477	-0.092521	-0.597373	0.530736	-0.594057
15837		7.746599	-5.499211	-3.160280	-0.038556	-0.133863	-0.011497	-0.705811	0.121582	0.442871	-0.092118	-0.597985	0.531053	-0.593221
15838		8.032584	-5.046666	-2.555707	-0.073889	-0.110131	-0.012940	-0.711182	0.121826	0.434326	-0.091989	-0.598506	0.531473	-0.592339
15839		8.108930	-4.811663	-2.413139	-0.024666	-0.146764	-0.022183	-0.714111	0.119385	0.434814	-0.091595	-0.599168	0.531741	-0.591489
15840		7.557316	-5.021273	-2.759871	0.097922	-0.214437	-0.029347	-0.710938	0.120850	0.448486	-0.090356	-0.600273	0.531426	-0.590842
15841		7.924879	-5.209552	-3.511404	0.144637	-0.221751	-0.034326	-0.703369	0.128418	0.447266	-0.088763	-0.601587	0.530745	-0.590359
15842		7.933190	-5.162699	-3.297699	0.043050	-0.153159	-0.009194	-0.705322	0.122070	0.450439	-0.087833	-0.602339	0.530691	-0.589779
15843		7.527203	-5.524253	-3.011983	-0.027423	-0.086076	-0.003880	-0.703857	0.129639	0.442627	-0.087564	-0.602707	0.530926	-0.589232
15844		7.572565	-5.189907	-2.739574	0.064563	-0.156360	-0.029110	-0.704102	0.122803	0.448486	-0.086675	-0.603491	0.530754	-0.588715
15845		7.717564	-5.047439	-3.125267	0.040960	-0.121165	-0.033800	-0.704102	0.117920	0.447021	-0.086094	-0.604161	0.530579	-0.588271
15846		7.391350	-5.779729	-3.551858	0.145145	-0.166831	-0.039912	-0.706299	0.118652	0.452148	-0.084876	-0.605131	0.529911	-0.588054
15847		8.113163	-4.974797	-3.397200	0.168475	-0.160634	-0.051214	-0.708740	0.122314	0.450684	-0.083601	-0.606162	0.529036	-0.587962
15848		8.549745	-4.322091	-2.862136	0.014682	-0.055890	-0.002044	-0.703125	0.122803	0.454102	-0.083336	-0.606314	0.529132	-0.587757
15849		7.564157	-5.494238	-3.115020	0.004354	-0.030518	0.014975	-0.698975	0.119141	0.453857	-0.083113	-0.606299	0.529311	-0.587642
15850		7.426324	-5.303152	-3.109108	0.096114	-0.103316	-0.004718	-0.703369	0.132568	0.447266	-0.082229	-0.606797	0.528984	-0.587547
15851		7.491304	-5.330948	-3.144314	-0.051585	-0.011247	0.001239	-0.694824	0.122559	0.462402	-0.082443	-0.606624	0.529451	-0.587275
15852		7.673379	-5.591018	-3.117230	0.004125	-0.041900	-0.013930	-0.700684	0.126465	0.461914	-0.082251	-0.606873	0.529418	-0.587074
15853		8.102692	-4.907833	-3.109792	0.076206	-0.067285	-0.027032	-0.699707	0.125977	0.458496	-0.081639	-0.607328	0.529008	-0.587059
15854		7.969748	-4.794968	-3.358893	0.041547	-0.032040	-0.001327	-0.699463	0.126953	0.457031	-0.081269	-0.607436	0.528910	-0.587087
15855		7.633105	-5.069137	-3.244092	-0.032416	0.018905	0.023833	-0.697754	0.123779	0.461182	-0.081384	-0.607118	0.529284	-0.587063
15856		7.484151	-5.485172	-2.951784	-0.042039	0.029084	0.019078	-0.698730	0.128418	0.458984	-0.081603	-0.606811	0.529625	-0.587043
15857		7.552177	-5.447739	-2.768401	0.006692	-0.003963	-0.003459	-0.695557	0.127197	0.457275	-0.081523	-0.606775	0.529663	-0.587056
15858		7.562651	-5.625408	-2.870859	0.072237	-0.043124	-0.024318	-0.698242	0.123535	0.465332	-0.081056	-0.607059	0.529312	-0.587144
15859		8.011688	-5.010408	-3.156567	0.102191	-0.068538	-0.031102	-0.702148	0.121582	0.458740	-0.080335	-0.607585	0.528720	-0.587232
15860		8.003323	-4.804714	-3.088923	-0.048610	0.024921	0.000060	-0.699951	0.129639	0.455078	-0.080721	-0.607339	0.529033	-0.587152
15861		7.614184	-5.418726	-2.961687	-0.040446	0.022001	0.007895	-0.694336	0.130615	0.455811	-0.080975	-0.607046	0.529389	-0.587098
15862		7.597231	-5.450797	-2.857943	0.052304	-0.040250	-0.017956	-0.700928	0.124023	0.454346	-0.080582	-0.607257	0.529187	-0.587117
15863		7.885985	-4.922720	-2.843820	0.026288	-0.033067	-0.010089	-0.707520	0.126465	0.449219	-0.080397	-0.607349	0.529166	-0.587066
15864		7.803172	-5.121728	-2.952376	-0.017632	-0.013403	0.000470	-0.689209	0.131592	0.451416	-0.080508	-0.607202	0.529464	-0.586934
15865		7.755008	-5.121119	-3.082313	-0.003171	-0.024037	0.005578	-0.704346	0.122803	0.452637	-0.080371	-0.607163	0.529673	-0.586805
15866		7.820637	-4.996898	-2.939441	0.002082	-0.030389	0.016456	-0.696533	0.132324	0.455078	-0.080231	-0.607075	0.529934	-0.586680
15867		7.802800	-5.105679	-3.009247	-0.008525	-0.021991	0.025000	-0.696289	0.132568	0.459473	-0.080025	-0.606948	0.530246	-0.586557
15868		7.596959	-5.539424	-2.982631	0.039101	-0.044534	0.016014	-0.702148	0.123535	0.457031	-0.079493	-0.607041	0.530256	-0.586524
15869		7.720784	-5.240868	-3.180292	0.099910	-0.079420	0.007137	-0.699951	0.128418	0.466553	-0.078666	-0.607330	0.529993	-0.586574
15870		7.790059	-4.937213	-3.004308	0.031881	-0.045426	0.019463	-0.697754	0.127930	0.461914	-0.078172	-0.607439	0.530020	-0.586503
15871		7.892523	-4.953197	-2.888759	-0.026136	-0.020630	0.032378	-0.699463	0.118164	0.458740	-0.078058	-0.607291	0.530420	-0.586310
15872		7.529154	-5.591488	-3.117702	0.017782	-0.043525	0.025536	-0.699219	0.131348	0.459961	-0.077772	-0.607267	0.530629	-0.586184
15873		7.484263	-5.612337	-3.215861	0.101590	-0.091436	0.001178	-0.700195	0.140381	0.464600	-0.076850	-0.607661	0.530317	-0.586179
15874		7.624571	-5.256230	-3.065619	0.060186	-0.065640	0.001977	-0.691650	0.136230	0.461670	-0.076151	-0.607938	0.530155	-0.586129
15875		7.574583	-5.358662	-2.950617	0.029164	-0.046704	0.000892	-0.689941	0.132568	0.462891	-0.075746	-0.608093	0.530147	-0.586029
15876		7.709410	-5.273038	-3.121404	0.039775	-0.047728	-0.006283	-0.691650	0.131104	0.463379	-0.075346	-0.608293	0.530048	-0.585962
15877		7.541599	-5.458232	-3.213280	0.020481	-0.035237	-0.009996	-0.691895	0.137451	0.467529	-0.075139	-0.608429	0.530024	-0.585869
15878		7.664833	-5.291934	-3.112129	0.034461	-0.042803	-0.018870	-0.690186	0.129150	0.460693	-0.074790	-0.608689	0.529852	-0.585799
15879		7.630166	-5.325481	-3.068877	0.002725	-0.021142	-0.017729	-0.695068	0.129639	0.458008	-0.074814	-0.608749	0.529898	-0.585693
15880		7.468650	-5.560040	-3.125788	0.034998	-0.043425	-0.029713	-0.690918	0.134277	0.464355	-0.074661	-0.608953	0.529773	-0.585612
15881		7.581509	-5.253852	-3.116265	0.055573	-0.059204	-0.043110	-0.693848	0.133301	0.455078	-0.074308	-0.609375	0.529424	-0.585535
15882		7.764948	-5.008175	-3.115331	0.000389	-0.019149	-0.029883	-0.695801	0.126221	0.460938	-0.074425	-0.609420	0.529473	-0.585429
15883		7.518553	-5.565714	-3.178858	0.012384	-0.021553	-0.032358	-0.696045	0.131348	0.464111	-0.074523	-0.609515	0.529433	-0.585353
15884		7.628419	-5.364067	-3.139524	0.061269	-0.050661	-0.046645	-0.692871	0.127441	0.464355	-0.074244	-0.609881	0.529064	-0.585341
15885		7.762248	-5.234693	-3.081936	0.031461	-0.032878	-0.046136	-0.693115	0.134277	0.476807	-0.074227	-0.610133	0.528842	-0.585281
15886		7.714848	-5.182444	-3.004817	0.030909	-0.031771	-0.046520	-0.689209	0.136719	0.465820	-0.074085	-0.610486	0.528515	-0.585226
15887		7.802503	-5.069055	-3.116648	0.014491	-0.016390	-0.042085	-0.700439	0.134766	0.463135	-0.074090	-0.610679	0.528333	-0.585189
15888		7.638315	-5.277433	-3.170073	0.001427	-0.007609	-0.035281	-0.689941	0.127441	0.457031	-0.074231	-0.610733	0.528297	-0.585148
15889		7.717241	-5.194200	-3.156739	0.005698	-0.006964	-0.035359	-0.692139	0.138916	0.467285	-0.074431	-0.610750	0.528284	-0.585116
15890		7.808138	-5.109493	-3.049270	-0.011790	0.001422	-0.027562	-0.688232	0.130127	0.459229	-0.074544	-0.610789	0.528275	-0.585068
15891		7.679082	-5.206866	-3.087911	0.018183	-0.009219	-0.023594	-0.693359	0.134766	0.458740	-0.074562	-0.610806	0.528230	-0.585090
15892		7.788807	-5.004087	-3.157313	0.035141	-0.019743	-0.023948	-0.700195	0.123779	0.458984	-0.074413	-0.610887	0.528099	-0.585142
15893		7.863730	-5.028361	-3.167856	-0.015850	0.020356	-0.003662	-0.688965	0.128906	0.469238	-0.074748	-0.610584	0.528370	-0.585171
15894		7.751639	-5.177011	-3.131043	-0.026604	0.028990	0.005774	-0.688232	0.128418	0.467773	-0.074988	-0.610315	0.528615	-0.585200
15895		7.677270	-5.274156	-3.077016	-0.002048	0.017112	0.005634	-0.697998	0.131104	0.471680	-0.075059	-0.610113	0.528754	-0.585275
15896		7.673046	-5.267865	-3.062904	0.027869	0.000882	0.002803	-0.690430	0.118408	0.467529	-0.074903	-0.610028	0.528732	-0.585404
15897		7.719590	-5.091905	-3.119806	-0.004850	0.017954	0.009780	-0.695557	0.133789	0.462402	-0.075105	-0.609742	0.528978	-0.585454
15898		7.673378	-5.339764	-3.032768	-0.030246	0.032856	0.013049	-0.694092	0.133301	0.464844	-0.075335	-0.609388	0.529297	-0.585505
15899		7.624490	-5.361540	-2.981118	-0.001781	0.016533	0.007860	-0.698486	0.131592	0.461914	-0.075365	-0.609171	0.529446	-0.585592
15900		7.649571	-5.268486	-3.047975	0.007706	0.005702	0.004680	-0.696777	0.124023	0.462402	-0.075362	-0.608988	0.529578	-0.585663
15901		7.554697	-5.370798	-2.998955	-0.010032	0.013330	0.004486	-0.697998	0.131348	0.466797	-0.075574	-0.608722	0.529839	-0.585677
15902		7.571860	-5.420498	-2.869913	0.011384	-0.006873	-0.009678	-0.697266	0.133789	0.464355	-0.075556	-0.608690	0.529869	-0.585685
15903		7.659348	-5.302086	-2.948977	0.039644	-0.028537	-0.020754	-0.690918	0.136719	0.465576	-0.075326	-0.608836	0.529708	-0.585708
15904		7.664008	-5.289508	-3.082289	0.026409	-0.023645	-0.022201	-0.696533	0.123535	0.457764	-0.075134	-0.608997	0.529559	-0.585700
15905		7.645851	-5.240463	-3.047855	0.005934	-0.019705	-0.020212	-0.693115	0.137207	0.466064	-0.075267	-0.608980	0.529668	-0.585602
15906		7.631514	-5.320245	-3.039435	-0.002137	-0.011591	-0.018070	-0.695557	0.133057	0.465088	-0.075252	-0.609044	0.529672	-0.585534
15907		7.664694	-5.310791	-2.997894	0.014424	-0.028651	-0.021041	-0.692139	0.131104	0.464600	-0.075158	-0.609175	0.529636	-0.585443
15908		7.689877	-5.240299	-3.143767	0.027036	-0.036687	-0.021036	-0.692139	0.129639	0.461426	-0.074982	-0.609347	0.529553	-0.585361
15909		7.697932	-5.209925	-3.215790	0.015229	-0.024339	-0.018796	-0.693848	0.131836	0.461914	-0.074939	-0.609415	0.529558	-0.585291
15910		7.748009	-5.109955	-3.152961	-0.007286	-0.009292	-0.010798	-0.695312	0.133545	0.467285	-0.075013	-0.609371	0.529689	-0.585208
15911		7.767950	-5.174411	-3.069119	-0.017531	0.002817	-0.003060	-0.693115	0.130127	0.459961	-0.075124	-0.609256	0.529875	-0.585146
15912		7.672518	-5.398273	-2.980583	0.020074	-0.020640	-0.009340	-0.689209	0.133545	0.469727	-0.075026	-0.609262	0.529905	-0.585126
15913		7.790692	-5.203323	-3.043942	0.034426	-0.030496	-0.010498	-0.700195	0.141602	0.464844	-0.074740	-0.609402	0.529797	-0.585114
15914		7.789545	-5.133636	-3.071951	-0.001341	-0.016634	0.000497	-0.695557	0.132080	0.462158	-0.074579	-0.609406	0.529883	-0.585053
15915		7.788189	-4.942679	-2.977804	-0.050052	0.009015	0.005494	-0.687500	0.135254	0.468750	-0.074882	-0.609164	0.530303	-0.584885
15916		7.665363	-5.153215	-3.036633	-0.055913	0.005234	0.016013	-0.689209	0.132324	0.461670	-0.075059	-0.608969	0.530730	-0.584678
15917		7.512859	-5.354911	-3.076828	-0.002732	-0.031995	0.010760	-0.686768	0.129883	0.460205	-0.074886	-0.608958	0.530948	-0.584514
15918		7.579034	-5.234183	-3.133339	-0.007235	-0.029264	0.012028	-0.693848	0.139404	0.462402	-0.074777	-0.608905	0.531217	-0.584339
15919		7.638813	-5.255968	-3.047780	-0.040527	-0.011130	0.018657	-0.695801	0.131836	0.462891	-0.074771	-0.608768	0.531595	-0.584139
15920		7.537680	-5.471498	-3.061261	-0.018912	-0.027355	0.008651	-0.695557	0.140381	0.468750	-0.074749	-0.608701	0.531910	-0.583924
15921		7.637988	-5.410881	-3.158075	0.027055	-0.051999	-0.004415	-0.689209	0.136719	0.470703	-0.074315	-0.608929	0.531847	-0.583798
15922		7.516508	-5.587074	-3.220907	0.010117	-0.041420	-0.008068	-0.689209	0.135010	0.464111	-0.074065	-0.609106	0.531860	-0.583634
15923		7.480748	-5.673185	-3.164366	0.002921	-0.038926	-0.024576	-0.685303	0.140869	0.464600	-0.073986	-0.609296	0.531864	-0.583442
15924		7.451268	-5.643595	-3.051414	-0.012706	-0.030677	-0.036441	-0.690430	0.130371	0.471436	-0.073984	-0.609547	0.531808	-0.583231
15925		7.541384	-5.487939	-2.920831	0.006932	-0.053179	-0.054581	-0.691895	0.125488	0.462891	-0.074015	-0.609931	0.531674	-0.582948
15926		7.636968	-5.238163	-3.082856	0.021083	-0.060901	-0.064386	-0.693604	0.130859	0.467529	-0.074077	-0.610325	0.531509	-0.582678
15927		7.718355	-5.112922	-3.297959	0.032576	-0.066771	-0.061153	-0.699219	0.125488	0.473633	-0.073954	-0.610795	0.531242	-0.582445
15928		7.692486	-5.166545	-3.311497	0.039066	-0.054397	-0.051298	-0.694336	0.133789	0.471680	-0.073888	-0.611123	0.531045	-0.582289
15929		7.707638	-5.107562	-3.290330	0.058193	-0.060185	-0.046197	-0.694336	0.133545	0.470703	-0.073539	-0.611545	0.530685	-0.582219
15930		7.821461	-4.877772	-3.215085	0.036771	-0.038688	-0.030277	-0.687988	0.131836	0.480713	-0.073325	-0.611771	0.530503	-0.582173
15931		7.658541	-5.109368	-3.145457	0.007302	-0.015047	-0.015856	-0.697754	0.131348	0.468994	-0.073289	-0.611837	0.530503	-0.582109
15932		7.595879	-5.333938	-3.098895	0.038092	-0.037047	-0.017216	-0.698486	0.127441	0.473389	-0.073060	-0.611959	0.530422	-0.582082
15933		7.603639	-5.227122	-3.110632	0.054372	-0.048915	-0.020488	-0.686768	0.128906	0.478027	-0.072772	-0.612136	0.530297	-0.582047
15934		7.667193	-5.167140	-3.127747	0.018927	-0.032842	-0.011826	-0.689209	0.130859	0.474609	-0.072637	-0.612233	0.530324	-0.581937
15935		7.530696	-5.462065	-3.118072	0.013319	-0.035317	-0.012626	-0.687500	0.130859	0.472656	-0.072507	-0.612340	0.530368	-0.581801
15936		7.637439	-5.276889	-3.181902	0.049029	-0.054739	-0.022441	-0.687012	0.129639	0.469971	-0.072154	-0.612605	0.530199	-0.581720
15937		7.631662	-5.321419	-3.158030	0.030333	-0.048466	-0.020443	-0.691895	0.131104	0.471436	-0.071937	-0.612799	0.530148	-0.581588
15938		7.510655	-5.454826	-3.208901	0.043477	-0.054341	-0.023879	-0.686523	0.137695	0.464111	-0.071640	-0.613041	0.530019	-0.581487
15939		7.665087	-5.179520	-3.186995	0.041554	-0.056400	-0.030905	-0.692871	0.131836	0.471924	-0.071255	-0.613393	0.529764	-0.581396
15940		7.624202	-5.265217	-3.257474	0.011900	-0.033787	-0.029402	-0.676514	0.126953	0.473877	-0.071237	-0.613538	0.529750	-0.581259
15941		7.480688	-5.447469	-3.229378	0.033525	-0.042566	-0.034110	-0.689209	0.136719	0.474854	-0.071113	-0.613770	0.529621	-0.581146
15942		7.459411	-5.416799	-3.094129	0.044164	-0.049409	-0.044984	-0.693848	0.131104	0.479980	-0.070842	-0.614146	0.529297	-0.581077
15943		7.520625	-5.519625	-3.152179	0.046840	-0.047062	-0.052925	-0.688232	0.132324	0.475342	-0.070717	-0.614477	0.529014	-0.581000
15944		7.682042	-5.369935	-3.154637	0.066359	-0.061874	-0.064757	-0.692139	0.126465	0.481201	-0.070442	-0.614969	0.528548	-0.580937
15945		7.905741	-4.741300	-3.097422	0.051932	-0.053568	-0.061164	-0.690918	0.136719	0.475830	-0.070373	-0.615325	0.528266	-0.580826
15946		7.980459	-4.786847	-3.187075	0.007536	-0.018186	-0.037117	-0.686768	0.133057	0.475342	-0.070387	-0.615491	0.528139	-0.580764
15947		7.912707	-4.984641	-3.301759	0.057021	-0.038695	-0.026198	-0.685303	0.133545	0.474609	-0.070048	-0.615712	0.527877	-0.580807
15948		7.964909	-4.640894	-3.304849	0.087592	-0.044011	-0.005383	-0.679199	0.135254	0.467529	-0.069419	-0.615893	0.527568	-0.580972
15949		8.086546	-4.492935	-3.249690	0.068831	-0.019168	0.032435	-0.687988	0.129150	0.474365	-0.068768	-0.615801	0.527490	-0.581218
15950		7.813911	-5.043141	-3.336188	0.077861	-0.005777	0.057613	-0.682129	0.136230	0.473389	-0.068169	-0.615431	0.527634	-0.581550
15951		7.680504	-5.079872	-3.668131	0.118240	-0.016292	0.069014	-0.685791	0.128662	0.479248	-0.067141	-0.615170	0.527536	-0.582034
15952		7.570902	-5.172165	-3.572604	-0.034828	0.082616	0.097442	-0.686035	0.130615	0.469482	-0.067381	-0.614097	0.528439	-0.582321
15953		7.299918	-5.519826	-3.002602	-0.139442	0.143103	0.110747	-0.686768	0.135010	0.478516	-0.068329	-0.612616	0.529859	-0.582480
15954		7.100627	-6.264981	-2.933299	-0.016447	0.061274	0.065900	-0.693359	0.131592	0.478760	-0.068451	-0.611849	0.530448	-0.582735
15955		7.196915	-6.063802	-3.099553	0.120825	-0.034665	0.014816	-0.681396	0.137939	0.468750	-0.067803	-0.611770	0.530265	-0.583060
15956		7.477410	-5.510284	-3.085047	0.037020	0.008715	0.003949	-0.688477	0.144775	0.481689	-0.067660	-0.611600	0.530252	-0.583267
15957		7.374876	-5.798176	-3.185006	-0.011810	0.041318	-0.006861	-0.684814	0.148926	0.472412	-0.067907	-0.611335	0.530354	-0.583423
15958		7.274336	-5.892546	-3.135863	0.078985	-0.014944	-0.044538	-0.685547	0.144531	0.463379	-0.067503	-0.611644	0.529737	-0.583707
15959		7.684216	-5.124969	-3.304971	0.037865	0.011818	-0.057101	-0.688232	0.148926	0.473877	-0.067559	-0.611791	0.529309	-0.583934
15960		7.515810	-5.483683	-3.086748	-0.098387	0.095617	-0.046432	-0.689941	0.147949	0.470703	-0.068581	-0.611449	0.529508	-0.583993
15961		7.408210	-5.947409	-3.034259	-0.000451	0.036462	-0.087588	-0.689209	0.142090	0.468994	-0.069041	-0.611629	0.529053	-0.584163
15962		7.596122	-5.315028	-3.132929	0.038989	0.024966	-0.110322	-0.686279	0.146973	0.479004	-0.069446	-0.611926	0.528379	-0.584415
15963		7.865649	-5.018145	-3.492562	-0.008089	0.061156	-0.099437	-0.695312	0.139893	0.466064	-0.070099	-0.612056	0.527874	-0.584656
15964		7.732355	-5.251086	-3.576564	-0.077667	0.127886	-0.086379	-0.689209	0.131348	0.468018	-0.071460	-0.611651	0.527854	-0.584933
15965		7.894619	-4.857121	-3.592445	-0.078604	0.164447	-0.074125	-0.696533	0.133057	0.457764	-0.073026	-0.610958	0.527968	-0.585361
15966		8.080741	-4.545547	-3.558875	-0.112365	0.217411	-0.047724	-0.701172	0.136475	0.459229	-0.074826	-0.609877	0.528312	-0.585951
15967		8.364771	-3.938809	-3.891307	-0.200814	0.315818	0.014748	-0.698975	0.129883	0.464355	-0.077135	-0.608030	0.529275	-0.586701
15968		8.050885	-4.629515	-3.845442	-0.256633	0.405558	0.077777	-0.693848	0.127930	0.456543	-0.079902	-0.605381	0.530843	-0.587653
15969		7.824834	-5.007903	-3.440242	-0.196713	0.421008	0.104340	-0.704102	0.145508	0.455322	-0.082289	-0.602583	0.532217	-0.588955
15970		7.896318	-5.114729	-2.911045	-0.164640	0.418014	0.114961	-0.709229	0.136719	0.446045	-0.084159	-0.599961	0.533216	-0.590461
15971		7.811178	-5.279726	-2.626002	-0.134946	0.383221	0.112006	-0.701660	0.138428	0.440186	-0.085912	-0.597405	0.534234	-0.591878
15972		7.466467	-5.735426	-2.392586	-0.189186	0.391747	0.099163	-0.704102	0.136963	0.432861	-0.087978	-0.594867	0.535388	-0.593087
15973		7.072229	-6.276685	-2.334373	-0.157406	0.343666	0.072351	-0.705811	0.126953	0.433350	-0.089832	-0.592675	0.536310	-0.594170
15974		7.218150	-6.133837	-2.692025	-0.052959	0.251735	0.017032	-0.711914	0.132080	0.421631	-0.091194	-0.591160	0.536646	-0.595168
15975		7.492709	-5.797925	-2.438077	-0.043238	0.223447	-0.010399	-0.714355	0.130127	0.429199	-0.092454	-0.589932	0.536770	-0.596080
15976		7.801625	-5.405833	-2.368337	-0.027390	0.202822	-0.021653	-0.719238	0.136475	0.436523	-0.093623	-0.588869	0.536788	-0.596930
15977		7.578406	-5.536927	-2.543055	0.045272	0.140224	-0.048565	-0.715332	0.135254	0.425781	-0.094183	-0.588379	0.536266	-0.597795
15978		7.620066	-5.336861	-2.982303	0.027905	0.137054	-0.051637	-0.713379	0.132324	0.422363	-0.094837	-0.587886	0.535828	-0.598569
15979		7.472729	-5.467042	-2.816441	-0.093722	0.205793	-0.045845	-0.715332	0.135986	0.412109	-0.096401	-0.586904	0.536000	-0.599129
15980		7.437923	-5.919516	-2.160355	-0.085654	0.188130	-0.069036	-0.725098	0.126709	0.416504	-0.097900	-0.586138	0.535987	-0.599646
15981		7.676043	-5.721989	-1.848818	0.110773	0.049522	-0.123449	-0.716064	0.126221	0.426025	-0.098242	-0.586376	0.534961	-0.600274
15982		8.180152	-4.959264	-2.220117	0.195378	-0.034300	-0.147123	-0.719727	0.121094	0.421387	-0.097859	-0.587276	0.533404	-0.600842
15983		7.906740	-4.861040	-2.742252	0.080541	0.015405	-0.119475	-0.720459	0.122314	0.411133	-0.098217	-0.587636	0.532596	-0.601148
15984		7.521318	-5.493192	-2.891180	-0.058891	0.083475	-0.102987	-0.720459	0.124756	0.413086	-0.099461	-0.587455	0.532508	-0.601199
15985		7.576853	-5.756056	-2.375853	-0.066490	0.080834	-0.121776	-0.713623	0.125000	0.415283	-0.100755	-0.587413	0.532309	-0.601200
15986		8.029518	-5.139606	-2.126103	0.024425	0.003602	-0.159120	-0.721191	0.128174	0.430420	-0.101384	-0.588057	0.531478	-0.601201
15987		8.256787	-4.745948	-2.373962	0.078129	-0.028500	-0.154970	-0.715332	0.123779	0.412598	-0.101515	-0.588954	0.530358	-0.601289
15988		8.225359	-4.634637	-2.988512	0.085095	-0.025743	-0.123082	-0.724609	0.123291	0.418945	-0.101525	-0.589632	0.529418	-0.601452
15989		8.185635	-4.399737	-3.072805	0.036613	0.025575	-0.082188	-0.728027	0.119141	0.414795	-0.101812	-0.589822	0.528890	-0.601681
15990		8.131163	-4.645109	-2.635570	-0.059203	0.096567	-0.046027	-0.717529	0.116943	0.415527	-0.102772	-0.589360	0.529021	-0.601855
15991		7.836640	-5.257622	-2.337345	0.014365	0.050175	-0.038099	-0.725342	0.123047	0.414551	-0.103104	-0.589193	0.528832	-0.602127
15992		8.168611	-4.829480	-2.484939	0.077906	0.002139	-0.042823	-0.719727	0.112549	0.417725	-0.102870	-0.589369	0.528300	-0.602463
15993		8.257336	-4.725054	-2.411087	0.053489	0.015022	-0.018189	-0.722168	0.116943	0.416260	-0.102813	-0.589297	0.528081	-0.602735
15994		8.452633	-4.153845	-2.474777	0.043364	0.001270	0.002140	-0.722168	0.122314	0.407959	-0.102595	-0.589217	0.527992	-0.602928
15995		8.094500	-4.519620	-2.387596	-0.103039	0.078989	0.058487	-0.726074	0.126221	0.417969	-0.103104	-0.588381	0.528823	-0.602929
15996		7.503150	-5.653370	-2.352598	-0.027664	0.013986	0.057913	-0.721680	0.122314	0.410889	-0.102893	-0.588000	0.529266	-0.602948
15997		8.072772	-5.053582	-2.454237	0.080983	-0.062688	0.027902	-0.722412	0.120605	0.406494	-0.102031	-0.588177	0.529139	-0.603033
15998		8.131027	-5.042816	-2.419164	-0.007132	-0.004693	0.047636	-0.729004	0.123779	0.417969	-0.101814	-0.587853	0.529552	-0.603024
15999		8.037179	-5.284158	-2.350069	0.010596	-0.027871	0.045632	-0.721436	0.122559	0.411133	-0.101372	-0.587718	0.529837	-0.602979
16000		8.096863	-5.027369	-2.249605	0.013259	-0.043441	0.047766	-0.719971	0.128418	0.414795	-0.100861	-0.587632	0.530155	-0.602869
16001		7.572988	-5.262958	-2.364603	-0.010710	-0.040019	0.043153	-0.720459	0.119385	0.413574	-0.100425	-0.587582	0.530506	-0.602681
16002		7.516695	-5.746623	-2.517113	0.055100	-0.091140	0.023573	-0.720947	0.124756	0.416992	-0.099671	-0.587854	0.530566	-0.602489
16003		7.760055	-5.359634	-2.604800	0.112457	-0.136138	0.001271	-0.722412	0.121826	0.413574	-0.098487	-0.588536	0.530220	-0.602323
16004		8.080869	-5.055253	-2.570178	0.017246	-0.086918	0.011885	-0.723877	0.138428	0.410889	-0.098008	-0.588786	0.530425	-0.601975
16005		7.897583	-5.517227	-2.404426	-0.008376	-0.080861	0.012370	-0.722168	0.130127	0.418701	-0.097491	-0.589066	0.530647	-0.601591
16006		7.911423	-5.101142	-2.452291	0.026526	-0.123279	-0.006830	-0.717041	0.127441	0.416260	-0.096796	-0.589650	0.530670	-0.601110
16007		7.797070	-5.218125	-2.515252	-0.043386	-0.089612	0.001379	-0.711182	0.123779	0.417236	-0.096588	-0.589948	0.531084	-0.600485
16008		7.637382	-5.477764	-2.470460	-0.014377	-0.112600	-0.011651	-0.713379	0.123291	0.430420	-0.096225	-0.590438	0.531315	-0.599856
16009		7.321887	-5.675083	-2.773657	0.084403	-0.165361	-0.038928	-0.714355	0.122803	0.427979	-0.095247	-0.591443	0.530912	-0.599380
16010		7.464663	-5.608073	-2.948982	0.135678	-0.203415	-0.057477	-0.719971	0.127197	0.427979	-0.093972	-0.592724	0.530224	-0.598924
16011		7.492231	-5.910779	-2.754267	0.024309	-0.152085	-0.076672	-0.715088	0.125732	0.428955	-0.093556	-0.593730	0.529965	-0.598221
16012		8.056409	-5.349364	-2.195695	-0.005560	-0.159626	-0.097389	-0.715820	0.127441	0.431641	-0.093357	-0.594845	0.529755	-0.597330
16013		8.088395	-4.686713	-1.824150	-0.029552	-0.155142	-0.096863	-0.714844	0.118896	0.438477	-0.093263	-0.595931	0.529643	-0.596361
16014		7.747461	-5.517131	-2.234850	0.185333	-0.298614	-0.117540	-0.715332	0.117920	0.432129	-0.091635	-0.597972	0.528490	-0.595592
16015		7.941155	-4.473144	-2.855001	0.311127	-0.380818	-0.127726	-0.710449	0.123291	0.432861	-0.089123	-0.600490	0.526783	-0.594952
16016		7.681198	-4.983510	-3.432123	0.120606	-0.249547	-0.086849	-0.709961	0.122803	0.444336	-0.087884	-0.602050	0.526095	-0.594169
16017		8.150436	-5.245385	-3.268408	0.024569	-0.190367	-0.072712	-0.704102	0.115723	0.441895	-0.087298	-0.603217	0.525876	-0.593265
16018		8.383417	-4.445334	-2.998742	-0.089103	-0.092480	-0.047990	-0.702881	0.118164	0.442383	-0.087666	-0.603664	0.526324	-0.592358
16019		7.812862	-5.022912	-2.932895	-0.004400	-0.120420	-0.030003	-0.703125	0.118896	0.442139	-0.087352	-0.604252	0.526438	-0.591703
16020		7.883579	-4.941890	-3.629451	0.186858	-0.201000	-0.039094	-0.705078	0.118164	0.451172	-0.085762	-0.605409	0.525623	-0.591477
16021		7.998793	-4.569438	-3.885859	0.041348	-0.077596	0.008752	-0.708984	0.122803	0.449707	-0.085228	-0.605650	0.525678	-0.591260
16022		7.980620	-5.610504	-3.267284	-0.125720	0.042982	0.043438	-0.708252	0.122070	0.440918	-0.085865	-0.605023	0.526639	-0.590953
16023		7.783693	-5.707569	-2.517343	-0.062284	0.010792	0.015292	-0.706055	0.127930	0.449463	-0.086202	-0.604690	0.527200	-0.590745
16024		7.690171	-5.319400	-2.311280	0.009149	-0.049166	-0.009430	-0.697266	0.122070	0.447510	-0.085931	-0.604895	0.527236	-0.590542
16025		7.807129	-4.925213	-3.107796	0.018085	-0.055254	-0.015731	-0.701416	0.123535	0.453125	-0.085669	-0.605148	0.527225	-0.590331
16026		7.548300	-5.245029	-3.471256	-0.029225	-0.010580	-0.000225	-0.710205	0.116943	0.445068	-0.085754	-0.605090	0.527482	-0.590148
16027		7.808742	-5.133355	-3.402066	-0.027399	0.002984	0.004182	-0.699707	0.123047	0.454590	-0.086001	-0.604836	0.527864	-0.590031
16028		7.906648	-5.260805	-2.877915	-0.119677	0.066334	0.012667	-0.706543	0.124268	0.453613	-0.086813	-0.604286	0.528569	-0.589844
16029		7.858820	-5.025902	-2.515267	-0.055619	0.017650	0.005475	-0.707275	0.131348	0.448730	-0.087125	-0.604039	0.528969	-0.589693
16030		7.577591	-5.201759	-2.904241	0.005421	-0.015309	-0.007155	-0.704102	0.112793	0.451660	-0.086966	-0.604083	0.528985	-0.589657
16031		7.553247	-5.279700	-3.195831	0.096490	-0.067955	-0.014420	-0.707031	0.114014	0.446045	-0.086367	-0.604383	0.528689	-0.589704
16032		7.748998	-5.146747	-3.366437	0.082687	-0.039716	-0.014431	-0.709473	0.128662	0.447998	-0.085983	-0.604497	0.528474	-0.589835
16033		7.905205	-5.068895	-2.985034	0.059043	-0.019916	0.001989	-0.704102	0.119873	0.450684	-0.085551	-0.604519	0.528326	-0.590008
16034		7.950353	-4.995618	-2.590310	0.025837	-0.003221	0.001495	-0.696777	0.122314	0.446533	-0.085460	-0.604399	0.528383	-0.590093
16035		8.043813	-5.076477	-2.666326	0.027671	-0.018620	0.015600	-0.701416	0.122803	0.449707	-0.085172	-0.604326	0.528473	-0.590129
16036		7.866072	-5.253411	-2.791696	0.016403	-0.014947	0.012799	-0.706787	0.121826	0.445312	-0.084985	-0.604230	0.528612	-0.590129
16037		7.499482	-5.493120	-3.026223	0.024004	-0.018617	0.006587	-0.706543	0.122803	0.451172	-0.084820	-0.604138	0.528734	-0.590138
16038		7.575731	-5.525277	-2.938730	0.064870	-0.045681	-0.010632	-0.708008	0.130615	0.452881	-0.084399	-0.604306	0.528567	-0.590176
16039		8.005200	-4.935721	-2.813929	0.030169	-0.026308	-0.010132	-0.703857	0.130127	0.450439	-0.084143	-0.604404	0.528494	-0.590178
16040		7.949203	-4.996494	-2.834954	0.021268	-0.013439	0.003670	-0.703125	0.126221	0.450928	-0.083917	-0.604375	0.528521	-0.590215
16041		7.905061	-4.960215	-3.097577	0.065582	-0.034968	0.010240	-0.706055	0.130615	0.455811	-0.083395	-0.604426	0.528414	-0.590333
16042		8.081833	-4.552585	-3.051517	0.003842	0.001451	0.036912	-0.708984	0.125000	0.450928	-0.083172	-0.604166	0.528687	-0.590386
16043		7.723486	-5.125784	-2.992669	-0.043725	0.042028	0.060289	-0.703125	0.127441	0.449707	-0.083351	-0.603497	0.529366	-0.590437
16044		7.649447	-5.311035	-2.940810	0.039429	-0.008906	0.054714	-0.701904	0.130615	0.452393	-0.082866	-0.603198	0.529601	-0.590600
16045		7.723243	-5.235743	-2.905753	0.055116	-0.015999	0.048411	-0.707031	0.131836	0.447510	-0.082266	-0.603000	0.529700	-0.590797
16046		7.797981	-5.212543	-2.855193	0.016802	0.004105	0.055829	-0.698730	0.134521	0.448730	-0.081935	-0.602609	0.530044	-0.590933
16047		7.643359	-5.393545	-2.746220	0.010104	-0.001983	0.051480	-0.701904	0.134521	0.452881	-0.081574	-0.602315	0.530347	-0.591012
16048		7.623863	-5.590114	-2.886123	0.043676	-0.024532	0.036361	-0.695312	0.131104	0.444580	-0.081039	-0.602212	0.530436	-0.591109
16049		7.588826	-5.518057	-2.948285	0.081216	-0.047239	0.021322	-0.705322	0.140381	0.447754	-0.080330	-0.602282	0.530315	-0.591244
16050		7.843126	-5.100108	-2.918775	0.042620	-0.035102	0.028527	-0.703613	0.141113	0.451172	-0.079763	-0.602262	0.530371	-0.591291
16051		7.769548	-5.247204	-2.817944	0.028349	-0.023213	0.031059	-0.700439	0.141846	0.446045	-0.079300	-0.602176	0.530489	-0.591335
16052		7.792144	-5.219859	-2.884925	0.054827	-0.041791	0.028283	-0.702148	0.140625	0.450439	-0.078631	-0.602207	0.530477	-0.591403
16053		7.625995	-5.402170	-2.871079	0.032396	-0.031854	0.025113	-0.709717	0.146240	0.446289	-0.078166	-0.602175	0.530572	-0.591412
16054		7.483983	-5.558962	-2.845323	0.042805	-0.039246	0.015483	-0.692139	0.135498	0.447998	-0.077640	-0.602217	0.530574	-0.591437
16055		7.562279	-5.468979	-2.783351	0.075201	-0.061100	-0.002095	-0.706055	0.138916	0.453613	-0.077014	-0.602458	0.530369	-0.591457
16056		7.736494	-5.292209	-2.925765	0.052204	-0.055767	-0.008332	-0.706299	0.133789	0.450928	-0.076574	-0.602664	0.530263	-0.591400
16057		7.656514	-5.392462	-2.838602	0.010301	-0.035944	-0.006837	-0.698730	0.146240	0.449219	-0.076501	-0.602685	0.530421	-0.591245
16058		7.627398	-5.459947	-2.771738	0.012457	-0.043928	-0.016452	-0.699219	0.137939	0.454346	-0.076242	-0.602907	0.530382	-0.591089
16059		7.626952	-5.432340	-2.811862	0.037877	-0.064546	-0.029085	-0.702393	0.131836	0.449707	-0.075933	-0.603249	0.530238	-0.590908
16060		7.685574	-5.310562	-3.001993	0.024379	-0.061105	-0.031378	-0.695312	0.139893	0.461182	-0.075819	-0.603499	0.530235	-0.590670
16061		7.662177	-5.383158	-2.948537	-0.004746	-0.046235	-0.030389	-0.694336	0.144775	0.458740	-0.075766	-0.603774	0.530237	-0.590394
16062		7.688653	-5.345342	-2.966807	-0.009132	-0.042409	-0.032436	-0.699951	0.142334	0.453369	-0.075695	-0.604070	0.530201	-0.590132
16063		7.535799	-5.620412	-2.903679	0.016869	-0.055533	-0.042709	-0.695312	0.145264	0.452148	-0.075545	-0.604434	0.530056	-0.589909
16064		7.604329	-5.396129	-3.008871	0.058381	-0.078351	-0.057724	-0.699463	0.144531	0.460693	-0.075104	-0.605038	0.529601	-0.589755
16065		7.744336	-5.174559	-2.918755	0.013006	-0.056740	-0.052427	-0.701172	0.138184	0.458496	-0.074978	-0.605483	0.529389	-0.589505
16066		7.723826	-5.155846	-2.831564	-0.010316	-0.047037	-0.044634	-0.696533	0.141113	0.458740	-0.075062	-0.605770	0.529396	-0.589192
16067		7.621820	-5.488630	-2.931777	0.035158	-0.072812	-0.054926	-0.692871	0.130127	0.451660	-0.074793	-0.606300	0.529095	-0.588953
16068		7.787029	-5.148838	-3.095131	0.073099	-0.097696	-0.058293	-0.692139	0.132080	0.456055	-0.074374	-0.606899	0.528715	-0.588730
16069		7.888980	-4.984904	-3.185631	0.017192	-0.050343	-0.037731	-0.697998	0.140869	0.465576	-0.074315	-0.607166	0.528655	-0.588516
16070		7.672976	-5.306896	-3.114090	0.028772	-0.045964	-0.030803	-0.686768	0.139893	0.462158	-0.074079	-0.607459	0.528485	-0.588396
16071		7.847212	-5.062267	-3.191577	0.049841	-0.048766	-0.029778	-0.686523	0.129639	0.460693	-0.073693	-0.607799	0.528192	-0.588356
16072		7.776148	-5.194967	-3.132120	0.004997	-0.013053	-0.014662	-0.687500	0.135986	0.456055	-0.073752	-0.607787	0.528278	-0.588283
16073		7.750408	-5.173995	-3.082225	-0.004967	0.000623	-0.007448	-0.688721	0.134521	0.456787	-0.073816	-0.607699	0.528397	-0.588260
16074		7.764374	-5.080797	-3.064638	-0.014600	0.005220	0.000047	-0.693115	0.144531	0.460693	-0.073935	-0.607535	0.528616	-0.588218
16075		7.770689	-5.138991	-3.005253	-0.038581	0.025892	0.007030	-0.691650	0.138916	0.459717	-0.074116	-0.607296	0.528883	-0.588202
16076		7.721048	-5.344930	-2.888531	-0.033281	0.020477	0.011708	-0.693115	0.143066	0.462158	-0.074289	-0.607027	0.529202	-0.588171
16077		7.667360	-5.309432	-3.006211	-0.005374	0.008203	0.006701	-0.689941	0.135498	0.466309	-0.074241	-0.606891	0.529325	-0.588206
16078		7.704161	-5.307687	-2.974967	-0.004753	0.000010	0.006834	-0.693115	0.138184	0.463623	-0.074229	-0.606766	0.529498	-0.588181
16079		7.754777	-5.125669	-2.947020	-0.024689	0.010614	0.010255	-0.692871	0.132812	0.465820	-0.074335	-0.606558	0.529777	-0.588131
16080		7.670953	-5.316340	-2.910030	-0.050821	0.022523	0.015813	-0.692627	0.137207	0.466064	-0.074658	-0.606221	0.530248	-0.588014
16081		7.584663	-5.517069	-2.904738	-0.005761	-0.006656	0.007183	-0.699463	0.140381	0.452881	-0.074611	-0.606127	0.530428	-0.587954
16082		7.624144	-5.472039	-3.012360	0.019099	-0.021801	-0.004956	-0.692383	0.139893	0.465088	-0.074443	-0.606127	0.530472	-0.587935
16083		7.670658	-5.308678	-2.992604	0.011151	-0.021532	-0.005028	-0.694824	0.133545	0.458984	-0.074278	-0.606183	0.530498	-0.587874
16084		7.766453	-5.087094	-3.029078	-0.025475	0.002328	0.000005	-0.692627	0.134033	0.466309	-0.074478	-0.606000	0.530804	-0.587761
16085		7.613779	-5.428796	-2.974869	-0.014280	-0.002434	0.001990	-0.699951	0.141357	0.457764	-0.074564	-0.605875	0.531034	-0.587672
16086		7.593866	-5.461993	-3.053653	0.049230	-0.038100	-0.011466	-0.692871	0.142090	0.452637	-0.074190	-0.606020	0.530890	-0.587700
16087		7.677895	-5.323476	-3.021189	0.041572	-0.034089	-0.012362	-0.698242	0.142334	0.460938	-0.073852	-0.606159	0.530758	-0.587719
16088		7.680301	-5.339719	-2.954927	0.025454	-0.020501	-0.008680	-0.696289	0.142090	0.461182	-0.073650	-0.606206	0.530720	-0.587730
16089		7.714539	-5.320991	-2.936318	0.045128	-0.036246	-0.012935	-0.703857	0.132324	0.467041	-0.073298	-0.606365	0.530570	-0.587746
16090		7.809420	-4.986295	-2.974506	0.028136	-0.029610	-0.005776	-0.698486	0.144043	0.462891	-0.073171	-0.606362	0.530649	-0.587692
16091		7.737056	-5.236263	-2.967870	-0.012968	-0.006312	0.008310	-0.696777	0.140869	0.463135	-0.073132	-0.606250	0.530865	-0.587618
16092		7.835153	-5.084935	-2.922256	0.026331	-0.036427	0.009503	-0.699951	0.143799	0.464111	-0.072789	-0.606286	0.530938	-0.587558
16093		7.847170	-5.075231	-2.964186	-0.000165	-0.018344	0.023535	-0.698975	0.142822	0.460449	-0.072573	-0.606162	0.531188	-0.587486
16094		7.729440	-5.156021	-2.996192	-0.017461	-0.012611	0.034864	-0.688965	0.139648	0.465576	-0.072432	-0.605933	0.531595	-0.587372
16095		7.726496	-5.070915	-2.965828	-0.043604	-0.000719	0.044477	-0.693115	0.143311	0.467285	-0.072428	-0.605613	0.532153	-0.587197
16096		7.590266	-5.322127	-2.875341	-0.070009	0.010324	0.050224	-0.692627	0.146484	0.476074	-0.072552	-0.605211	0.532843	-0.586971
16097		7.601533	-5.311415	-2.810360	-0.050647	-0.007758	0.048454	-0.693115	0.139160	0.456543	-0.072457	-0.604965	0.533389	-0.586740
16098		7.534849	-5.483973	-2.986035	-0.028005	-0.033129	0.037197	-0.699219	0.146484	0.463379	-0.072310	-0.604792	0.533904	-0.586468
16099		7.525949	-5.613522	-3.186366	-0.006906	-0.040190	0.029138	-0.689941	0.145996	0.457520	-0.071997	-0.604746	0.534223	-0.586264
16100		7.500454	-5.603485	-3.098209	-0.033579	-0.022842	0.027289	-0.685547	0.146484	0.458740	-0.071889	-0.604617	0.534640	-0.586029
16101		7.509573	-5.635168	-3.006136	-0.025718	-0.029868	0.011865	-0.690186	0.149170	0.461182	-0.071766	-0.604616	0.534924	-0.585786
16102		7.437838	-5.699334	-3.068960	0.014406	-0.050194	-0.007342	-0.693359	0.144287	0.463867	-0.071431	-0.604828	0.534920	-0.585612
16103		7.452700	-5.677307	-3.136542	0.048053	-0.070083	-0.024254	-0.689697	0.145996	0.473145	-0.070990	-0.605189	0.534736	-0.585461
16104		7.526740	-5.470672	-3.210571	0.030957	-0.053084	-0.032635	-0.693604	0.145020	0.471924	-0.070707	-0.605544	0.534532	-0.585314
16105		7.535669	-5.517630	-3.123251	0.036107	-0.048235	-0.035537	-0.686523	0.140137	0.460449	-0.070464	-0.605863	0.534317	-0.585210
16106		7.705099	-5.273618	-3.111531	0.069297	-0.061651	-0.043084	-0.690674	0.143799	0.462891	-0.070083	-0.606253	0.533961	-0.585177
16107		7.709859	-5.112017	-3.088121	0.059251	-0.049108	-0.036567	-0.687988	0.149414	0.460693	-0.069749	-0.606560	0.533660	-0.585173
16108		7.612354	-5.306827	-3.143164	0.059990	-0.046212	-0.028035	-0.690430	0.146973	0.464600	-0.069316	-0.606854	0.533341	-0.585210
16109		7.728019	-5.140981	-3.081564	0.074753	-0.050289	-0.023354	-0.684326	0.142334	0.467773	-0.068803	-0.607138	0.533004	-0.585283
16110		7.850362	-4.905437	-3.173936	0.023921	-0.012155	-0.001124	-0.685791	0.146240	0.472656	-0.068639	-0.607104	0.533021	-0.585322
16111		7.667732	-5.187590	-3.110226	0.024218	-0.009896	0.012460	-0.689697	0.144043	0.462891	-0.068372	-0.607035	0.533062	-0.585388
16112		7.650342	-5.205080	-3.123697	0.060077	-0.021040	0.017067	-0.692139	0.142090	0.470947	-0.067916	-0.606953	0.533027	-0.585558
16113		7.697455	-5.313036	-3.236826	0.071728	-0.019489	0.024607	-0.686035	0.146240	0.468506	-0.067397	-0.606835	0.532985	-0.585778
16114		7.767931	-5.156098	-3.112441	0.034651	0.006559	0.038117	-0.691895	0.147461	0.464600	-0.067061	-0.606545	0.533131	-0.585984
16115		7.675216	-5.274145	-2.975568	-0.007424	0.031782	0.054602	-0.681396	0.149170	0.465332	-0.066994	-0.606004	0.533580	-0.586143
16116		7.417429	-5.749098	-2.937380	0.056365	-0.004454	0.043243	-0.693115	0.149414	0.465576	-0.066443	-0.605778	0.533623	-0.586400
16117		7.566880	-5.462299	-3.110020	0.119575	-0.043882	0.026536	-0.690430	0.150146	0.463623	-0.065535	-0.605802	0.533350	-0.586725
16118		7.725641	-5.063106	-3.079635	0.012269	0.014683	0.044633	-0.686523	0.150146	0.462402	-0.065342	-0.605399	0.533663	-0.586878
16119		7.551873	-5.406333	-2.986554	-0.007072	0.035618	0.057736	-0.684082	0.156250	0.465820	-0.065270	-0.604832	0.534117	-0.587058
16120		7.512125	-5.702567	-3.243594	0.108176	-0.024709	0.034074	-0.686768	0.154541	0.468018	-0.064384	-0.604789	0.533847	-0.587445
16121		7.671908	-5.266201	-3.403440	0.100357	-0.006195	0.038575	-0.688965	0.153076	0.463867	-0.063643	-0.604603	0.533667	-0.587882
16122		7.469264	-5.393012	-3.056378	-0.038054	0.079313	0.063141	-0.689209	0.156250	0.459229	-0.063908	-0.603772	0.534289	-0.588141
16123		7.727462	-5.340311	-2.883039	-0.033608	0.079809	0.062137	-0.679199	0.157715	0.469971	-0.064132	-0.602955	0.534865	-0.588432
16124		7.282218	-6.014644	-2.881872	0.041602	0.035194	0.035764	-0.685303	0.167480	0.463379	-0.063838	-0.602596	0.534884	-0.588814
16125		7.318210	-5.842387	-3.183820	0.093802	0.004030	0.012364	-0.682373	0.156250	0.462402	-0.063189	-0.602543	0.534499	-0.589288
16126		7.277942	-5.650942	-3.009066	-0.033904	0.070367	0.016027	-0.691650	0.161377	0.458496	-0.063589	-0.602002	0.534834	-0.589494
16127		7.221281	-6.056817	-2.823586	-0.056451	0.080175	0.000858	-0.691162	0.155762	0.462158	-0.064206	-0.601457	0.535195	-0.589656
16128		7.292892	-5.972883	-2.774861	0.043380	0.010486	-0.040118	-0.693115	0.155273	0.457275	-0.064259	-0.601473	0.534931	-0.589873
16129		7.478997	-5.788649	-2.843514	0.061399	-0.009550	-0.066796	-0.678711	0.157715	0.461670	-0.064285	-0.601690	0.534479	-0.590058
16130		7.330296	-5.624959	-2.893136	0.023354	0.009985	-0.069203	-0.693359	0.163818	0.456299	-0.064504	-0.601891	0.534098	-0.590174
16131		7.476740	-5.763556	-2.941957	0.031656	0.000595	-0.088905	-0.691406	0.156494	0.459229	-0.064730	-0.602204	0.533588	-0.590292
16132		7.438012	-5.865186	-2.676617	0.047068	-0.015966	-0.104984	-0.686768	0.155029	0.460938	-0.064945	-0.602648	0.532980	-0.590364
16133		7.552400	-5.717932	-2.375612	0.038475	-0.035719	-0.125287	-0.694092	0.158447	0.463379	-0.065201	-0.603293	0.532306	-0.590285
16134		7.762376	-5.450551	-2.623513	0.072060	-0.080658	-0.141631	-0.689453	0.157227	0.463379	-0.065143	-0.604261	0.531388	-0.590129
16135		7.962993	-4.859546	-3.190327	0.048136	-0.068432	-0.124522	-0.702881	0.154297	0.462646	-0.065162	-0.605091	0.530653	-0.589938
16136		8.125662	-4.325343	-3.472404	0.002945	-0.015307	-0.076886	-0.687256	0.143066	0.460693	-0.065487	-0.605357	0.530423	-0.589835
16137		8.238951	-4.141847	-3.643200	-0.012958	0.039996	-0.019440	-0.688721	0.149658	0.466309	-0.065915	-0.605067	0.530578	-0.589945
16138		8.446989	-4.030737	-3.931125	-0.001863	0.091875	0.050727	-0.693848	0.154053	0.463379	-0.066089	-0.604281	0.530927	-0.590418
16139		8.165057	-4.376253	-4.090122	-0.056324	0.200994	0.126154	-0.688232	0.149414	0.455078	-0.066626	-0.602597	0.531845	-0.591252
16140		7.705002	-5.136651	-3.862747	-0.088162	0.286893	0.186199	-0.699951	0.152832	0.456055	-0.067459	-0.600168	0.533215	-0.592393
16141		7.244475	-5.750956	-3.138258	-0.035236	0.282451	0.188069	-0.698975	0.153564	0.457275	-0.068009	-0.597764	0.534341	-0.593744
16142		7.404429	-5.546739	-2.750764	-0.074462	0.294890	0.179129	-0.697998	0.165527	0.451416	-0.068853	-0.595323	0.535601	-0.594963
16143		7.165011	-6.234772	-2.170601	-0.192551	0.337726	0.166257	-0.696777	0.165771	0.446045	-0.070410	-0.592731	0.537245	-0.595887
16144		6.822762	-7.131861	-1.959074	-0.052128	0.217755	0.093854	-0.694580	0.162109	0.442627	-0.071091	-0.591138	0.537896	-0.596800
16145		7.114422	-6.563629	-1.804919	0.157089	0.032214	0.008286	-0.702881	0.165771	0.440918	-0.070376	-0.590950	0.537228	-0.597671
16146		7.704460	-5.550925	-2.195683	0.136880	0.002633	-0.020992	-0.698975	0.165527	0.445068	-0.069782	-0.591011	0.536543	-0.598296
16147		7.388521	-5.684430	-2.746133	0.041326	0.029344	-0.023704	-0.704590	0.169434	0.445557	-0.069779	-0.590916	0.536292	-0.598615
16148		7.442705	-5.494865	-2.812114	-0.039978	0.059828	-0.022620	-0.702881	0.166260	0.433594	-0.070285	-0.590624	0.536417	-0.598732
16149		7.315731	-5.999900	-2.584840	-0.091610	0.083416	-0.034169	-0.706055	0.170654	0.440186	-0.071257	-0.590188	0.536773	-0.598728
16150		7.483071	-6.006492	-2.488543	0.050085	0.000146	-0.073680	-0.694580	0.159424	0.436768	-0.071292	-0.590476	0.536222	-0.598933
16151		7.979985	-5.049051	-2.546824	0.092968	-0.030978	-0.086792	-0.698730	0.165039	0.440918	-0.071122	-0.590964	0.535475	-0.599141
16152		7.344022	-6.198034	-2.830052	0.085492	-0.018853	-0.075602	-0.704346	0.163574	0.440186	-0.070932	-0.591372	0.534766	-0.599394
16153		7.325163	-5.687271	-2.977878	0.139637	-0.061572	-0.097884	-0.700439	0.159180	0.438477	-0.070433	-0.592094	0.533733	-0.599660
16154		7.929199	-4.809180	-3.033295	-0.087878	0.080677	-0.067101	-0.699463	0.157471	0.446045	-0.071572	-0.591812	0.533936	-0.599623
16155		7.450185	-5.805328	-2.814366	-0.161900	0.124100	-0.045176	-0.699463	0.151855	0.437012	-0.073135	-0.591205	0.534565	-0.599474
16156		7.696186	-5.690804	-2.560467	-0.025494	0.048805	-0.077659	-0.698975	0.156738	0.437988	-0.073911	-0.591151	0.534447	-0.599537
16157		8.181512	-4.971933	-2.302057	0.020049	0.015862	-0.083473	-0.698242	0.163818	0.434814	-0.074278	-0.591358	0.534039	-0.599650
16158		8.186854	-4.668724	-2.652117	0.013486	0.018161	-0.045360	-0.696045	0.153564	0.435059	-0.074422	-0.591420	0.533790	-0.599793
16159		7.735870	-5.358779	-2.866926	0.049684	0.007178	-0.022743	-0.705566	0.158691	0.436523	-0.074315	-0.591411	0.533548	-0.600031
16160		7.574619	-5.124221	-2.884490	-0.001111	0.036411	-0.005316	-0.709961	0.155029	0.433838	-0.074482	-0.591150	0.533614	-0.600209
16161		7.637243	-5.173852	-2.369330	-0.142226	0.107278	0.020827	-0.699463	0.159424	0.432861	-0.075586	-0.590288	0.534516	-0.600116
16162		7.642170	-5.599453	-2.055419	-0.092382	0.052571	0.009497	-0.714600	0.165039	0.431152	-0.076167	-0.589845	0.535074	-0.599981
16163		7.725165	-5.431306	-2.212443	0.130521	-0.101763	-0.020376	-0.700195	0.157959	0.440186	-0.075113	-0.590427	0.534471	-0.600079
16164		8.234389	-4.604546	-3.023344	0.137121	-0.101455	0.000614	-0.705566	0.160889	0.432861	-0.073925	-0.590951	0.533929	-0.600192
16165		7.910139	-5.096146	-3.181176	-0.043162	0.019746	0.061282	-0.701904	0.162354	0.446777	-0.073892	-0.590445	0.534544	-0.600149
16166		7.724842	-5.476598	-2.641869	-0.100474	0.056847	0.074010	-0.697510	0.160156	0.441895	-0.074176	-0.589733	0.535422	-0.600029
16167		7.584467	-5.743291	-2.219615	-0.036929	0.015584	0.059986	-0.704102	0.157959	0.435547	-0.074055	-0.589313	0.535958	-0.599979
16168		7.567894	-5.690804	-2.454269	0.052833	-0.052005	0.036282	-0.699707	0.161133	0.433350	-0.073379	-0.589332	0.536027	-0.599982
16169		7.640474	-5.505197	-2.875739	0.038838	-0.049002	0.027727	-0.703125	0.156250	0.440918	-0.072804	-0.589375	0.536106	-0.599939
16170		7.468953	-5.574525	-2.884378	-0.039064	-0.002667	0.040719	-0.703369	0.161133	0.439941	-0.072789	-0.589077	0.536631	-0.599765
16171		7.434124	-5.948855	-2.701306	-0.016724	-0.014554	0.027445	-0.700928	0.166016	0.440674	-0.072644	-0.588924	0.536963	-0.599635
16172		7.377819	-6.041244	-2.588919	0.035852	-0.047176	0.003183	-0.708740	0.170166	0.438721	-0.072169	-0.589102	0.536899	-0.599574
16173		7.532339	-5.780057	-2.389356	0.065828	-0.082819	-0.019308	-0.696289	0.167725	0.442627	-0.071506	-0.589556	0.536606	-0.599470
16174		7.726400	-5.274745	-2.606985	0.043709	-0.083552	-0.028066	-0.702881	0.175049	0.439697	-0.070965	-0.590076	0.536355	-0.599247
16175		7.482257	-5.699888	-3.018590	0.046214	-0.076683	-0.026059	-0.697021	0.167725	0.445068	-0.070415	-0.590541	0.536093	-0.599088
16176		7.331838	-5.974669	-3.136787	0.108197	-0.103607	-0.045173	-0.703125	0.165039	0.442383	-0.069559	-0.591271	0.535452	-0.599042
16177		7.892168	-5.359397	-2.773830	0.015488	-0.047336	-0.041569	-0.696777	0.162842	0.437012	-0.069454	-0.591601	0.535307	-0.598858
16178		7.447505	-5.364905	-2.296165	-0.134171	0.026641	-0.021192	-0.703857	0.161621	0.446289	-0.070337	-0.591364	0.535987	-0.598381
16179		6.887786	-6.575785	-2.592182	-0.002682	-0.046541	-0.059777	-0.697266	0.164062	0.438721	-0.070417	-0.591770	0.535838	-0.598103
16180		7.702744	-5.723563	-2.888523	0.231261	-0.199831	-0.118663	-0.697998	0.158447	0.444580	-0.068947	-0.593322	0.534329	-0.598087
16181		8.246523	-4.265875	-3.305479	0.081295	-0.083418	-0.073519	-0.701172	0.161865	0.445312	-0.068542	-0.594002	0.533736	-0.597988
16182		7.814285	-5.269988	-2.934556	-0.046126	0.002885	-0.021008	-0.698242	0.161621	0.432861	-0.068875	-0.593948	0.533979	-0.597786
16183		7.122303	-6.111485	-2.762595	-0.025819	0.006211	-0.040707	-0.700439	0.162842	0.444336	-0.069266	-0.593921	0.534067	-0.597689
16184		6.944889	-6.379963	-2.591614	0.033702	-0.052299	-0.084883	-0.693115	0.162598	0.442627	-0.069264	-0.594475	0.533621	-0.597537
16185		7.458708	-5.944315	-2.290699	0.028645	-0.072191	-0.121528	-0.697754	0.167236	0.442871	-0.069366	-0.595296	0.533022	-0.597242
16186		7.667851	-5.291711	-2.395792	0.025701	-0.093380	-0.133036	-0.692139	0.162842	0.442627	-0.069422	-0.596273	0.532380	-0.596834
16187		7.660967	-5.859341	-2.945386	0.148617	-0.155196	-0.156535	-0.703857	0.161377	0.449463	-0.068723	-0.597729	0.531050	-0.596643
16188		7.919059	-4.592029	-3.475694	0.142572	-0.131687	-0.134709	-0.698486	0.156982	0.452148	-0.068069	-0.598957	0.529855	-0.596549
16189		7.932227	-5.074158	-3.115868	-0.108714	0.024579	-0.078067	-0.706543	0.161377	0.447266	-0.069083	-0.599023	0.530102	-0.596147
16190		7.817083	-4.985068	-2.771932	-0.143632	0.051397	-0.050654	-0.697998	0.154053	0.452393	-0.070260	-0.598785	0.530656	-0.595755
16191		7.787386	-5.272820	-2.678652	-0.054206	0.008868	-0.052698	-0.700439	0.154541	0.442383	-0.070798	-0.598857	0.530758	-0.595528
16192		8.067382	-5.289555	-3.394946	0.095016	-0.044676	-0.056465	-0.705811	0.151611	0.448242	-0.070419	-0.599243	0.530178	-0.595702
16193		8.223677	-4.716598	-3.347430	0.019267	0.019090	-0.014872	-0.690674	0.155518	0.455566	-0.070504	-0.599090	0.530145	-0.595875
16194		7.946199	-5.097493	-2.798937	-0.170296	0.148925	0.031549	-0.702637	0.156250	0.444336	-0.071770	-0.598069	0.531118	-0.595882
16195		7.283110	-5.695526	-2.262210	-0.106819	0.103633	0.033523	-0.703613	0.146484	0.441895	-0.072579	-0.597222	0.531877	-0.595957
16196		7.407138	-5.475194	-2.341454	0.001249	0.015862	0.004423	-0.695557	0.155762	0.444824	-0.072677	-0.596970	0.532054	-0.596040
16197		7.624796	-5.374182	-3.050832	0.032044	-0.006670	0.005087	-0.696533	0.153320	0.445312	-0.072417	-0.596910	0.532021	-0.596160
16198		7.348261	-6.138810	-3.182093	0.072897	-0.016049	-0.006957	-0.701416	0.135986	0.439697	-0.071993	-0.596967	0.531744	-0.596402
16199		7.706325	-5.646081	-3.031417	0.110566	-0.023826	-0.024252	-0.705566	0.153076	0.448730	-0.071595	-0.597068	0.531314	-0.596732
16200		7.814595	-5.316573	-2.457804	-0.002910	0.037522	-0.014243	-0.708008	0.153320	0.441406	-0.071844	-0.596833	0.531360	-0.596897
16201		7.709303	-5.543098	-2.265837	-0.008997	0.024748	-0.023717	-0.705078	0.145752	0.443848	-0.072147	-0.596661	0.531429	-0.596971
16202		7.467860	-5.566879	-2.609044	0.054914	-0.028078	-0.042873	-0.690430	0.148438	0.441406	-0.072024	-0.596875	0.531130	-0.597038
16203		7.739386	-5.134166	-2.812873	-0.009596	-0.011656	-0.036875	-0.707520	0.144775	0.449951	-0.072211	-0.596977	0.531136	-0.596907
16204		7.707812	-5.369026	-2.814588	-0.095910	0.036115	-0.018337	-0.700195	0.157959	0.444580	-0.072989	-0.596691	0.531658	-0.596635
16205		7.659734	-5.424390	-2.628365	-0.049532	0.005816	-0.023627	-0.699707	0.149414	0.444824	-0.073323	-0.596649	0.531873	-0.596443
16206		7.797165	-5.293756	-2.736886	-0.001277	-0.013965	-0.025037	-0.697021	0.150879	0.440918	-0.073393	-0.596717	0.531891	-0.596350
16207		7.906174	-5.084499	-2.835895	0.010786	-0.021569	-0.013901	-0.698242	0.147949	0.444824	-0.073310	-0.596776	0.531910	-0.596285
16208		7.879491	-5.104356	-2.946593	-0.064301	0.031251	0.009417	-0.695312	0.155762	0.437988	-0.073729	-0.596427	0.532388	-0.596156
16209		7.622681	-5.477550	-2.779660	-0.057363	0.025855	0.015630	-0.698242	0.148438	0.441406	-0.074016	-0.596086	0.532843	-0.596055
16210		7.808851	-5.168604	-2.708884	-0.056444	0.022838	0.016634	-0.692139	0.149170	0.444336	-0.074327	-0.595741	0.533328	-0.595927
16211		7.657519	-5.529824	-2.602552	-0.077102	0.025776	0.025553	-0.702148	0.140381	0.435059	-0.074671	-0.595364	0.533927	-0.595724
16212		7.499460	-5.591486	-2.722704	-0.011912	-0.016836	0.012098	-0.706055	0.155518	0.446533	-0.074699	-0.595201	0.534261	-0.595585
16213		7.666655	-5.443923	-2.757739	-0.010277	-0.029482	0.011641	-0.702148	0.145752	0.440918	-0.074522	-0.595194	0.534487	-0.595411
16214		7.672335	-5.492126	-2.670986	-0.018828	-0.026815	0.008726	-0.703125	0.156006	0.435059	-0.074500	-0.595130	0.534802	-0.595195
16215		7.616512	-5.579454	-2.657923	0.028347	-0.059921	-0.002831	-0.693115	0.150146	0.444824	-0.074104	-0.595318	0.534817	-0.595043
16216		7.692063	-5.375699	-2.826535	0.034947	-0.074246	-0.008596	-0.693848	0.154541	0.446289	-0.073620	-0.595652	0.534756	-0.594824
16217		7.548542	-5.629476	-2.774437	-0.010865	-0.047556	-0.005116	-0.694092	0.147217	0.445801	-0.073436	-0.595825	0.534901	-0.594543
16218		7.507122	-5.552646	-2.811621	-0.006247	-0.054143	-0.014334	-0.699707	0.149658	0.444824	-0.073305	-0.596041	0.535025	-0.594230
16219		7.645316	-5.365402	-2.813250	0.002062	-0.063124	-0.020984	-0.691162	0.158936	0.437744	-0.073133	-0.596321	0.535088	-0.593913
16220		7.716625	-5.371565	-2.953509	0.016153	-0.065682	-0.023697	-0.693359	0.152100	0.448975	-0.072826	-0.596657	0.535028	-0.593668
16221		7.653520	-5.407174	-2.978304	0.017797	-0.058902	-0.018911	-0.700439	0.152588	0.451660	-0.072536	-0.596954	0.534983	-0.593445
16222		7.528236	-5.574922	-2.919131	0.024292	-0.056395	-0.021857	-0.703613	0.151367	0.450195	-0.072253	-0.597244	0.534900	-0.593263
16223		7.542582	-5.557380	-2.853996	0.032252	-0.061982	-0.027432	-0.699219	0.156494	0.443848	-0.071962	-0.597567	0.534777	-0.593084
16224		7.676633	-5.362060	-2.842874	0.016409	-0.057644	-0.027588	-0.700684	0.149658	0.444092	-0.071749	-0.597857	0.534718	-0.592871
16225		7.633366	-5.490688	-2.925617	0.031510	-0.057783	-0.031671	-0.692383	0.145508	0.454346	-0.071536	-0.598144	0.534605	-0.592709
16226		7.732239	-5.192645	-2.960712	0.038525	-0.063174	-0.029501	-0.688477	0.153076	0.458740	-0.071217	-0.598506	0.534435	-0.592535
16227		7.808845	-5.298796	-2.954130	-0.009757	-0.028342	-0.019535	-0.696289	0.158936	0.450684	-0.071163	-0.598678	0.534471	-0.592335
16228		7.632307	-5.554623	-2.927827	0.013917	-0.031113	-0.020768	-0.693359	0.156250	0.453125	-0.071003	-0.598840	0.534407	-0.592248
16229		7.603470	-5.449548	-3.012108	0.039584	-0.045615	-0.026586	-0.695801	0.150146	0.447754	-0.070680	-0.599124	0.534195	-0.592191
16230		7.627718	-5.482654	-2.962662	0.010850	-0.031216	-0.024531	-0.699219	0.152832	0.453125	-0.070632	-0.599255	0.534186	-0.592073
16231		7.556358	-5.444102	-2.813806	0.008103	-0.033274	-0.027731	-0.690918	0.154541	0.450439	-0.070576	-0.599430	0.534153	-0.591932
16232		7.735090	-5.271840	-2.879636	0.012657	-0.031563	-0.027990	-0.699463	0.147461	0.447266	-0.070477	-0.599618	0.534075	-0.591824
16233		7.688129	-5.524228	-2.895834	0.019591	-0.031260	-0.027284	-0.691895	0.151611	0.451660	-0.070436	-0.599740	0.534037	-0.591739
16234		7.709222	-5.284070	-2.883778	0.025472	-0.037365	-0.029256	-0.700684	0.150391	0.461426	-0.070274	-0.599960	0.533907	-0.591653
16235		7.554854	-5.400615	-2.606556	-0.015218	-0.018784	-0.019259	-0.697266	0.149170	0.451416	-0.070351	-0.600032	0.534012	-0.591476
16236		7.409702	-5.724572	-2.502854	0.076371	-0.095674	-0.042700	-0.694824	0.157715	0.455322	-0.069779	-0.600601	0.533626	-0.591314
16237		7.605157	-5.417357	-2.675374	0.119340	-0.135858	-0.060672	-0.692871	0.154785	0.462646	-0.068823	-0.601521	0.532902	-0.591145
16238		7.785502	-5.180025	-2.958037	0.061467	-0.113475	-0.049919	-0.700439	0.156494	0.464844	-0.068200	-0.602268	0.532494	-0.590824
16239		7.720491	-5.254290	-3.088441	0.008146	-0.077178	-0.038539	-0.694092	0.154541	0.455078	-0.067961	-0.602739	0.532395	-0.590459
16240		7.705892	-5.366129	-2.986111	0.004505	-0.065352	-0.031415	-0.696533	0.157959	0.457764	-0.067794	-0.603082	0.532376	-0.590145
16241		7.589735	-5.427929	-3.031687	0.017378	-0.065687	-0.031069	-0.681885	0.151855	0.459717	-0.067536	-0.603444	0.532278	-0.589893
16242		7.537494	-5.581141	-2.951868	0.049504	-0.081508	-0.035964	-0.694824	0.149170	0.461670	-0.067056	-0.603955	0.531991	-0.589684
16243		7.607710	-5.283152	-3.038644	0.053308	-0.085302	-0.043038	-0.697266	0.155518	0.462402	-0.066636	-0.604472	0.531698	-0.589466
16244		7.752640	-5.244601	-3.123941	-0.001968	-0.044533	-0.031235	-0.695312	0.146484	0.451904	-0.066585	-0.604716	0.531691	-0.589228
16245		7.591304	-5.433959	-3.097773	-0.029953	-0.022205	-0.023907	-0.687256	0.151855	0.454590	-0.066839	-0.604728	0.531928	-0.588974
16246		7.565770	-5.551247	-3.029984	-0.011744	-0.023572	-0.030010	-0.688965	0.153564	0.474121	-0.066944	-0.604840	0.531982	-0.588797
16247		7.634653	-5.380427	-2.972170	0.000670	-0.029948	-0.034288	-0.697021	0.146240	0.464600	-0.066895	-0.605097	0.531882	-0.588629
16248		7.572799	-5.324768	-2.961197	-0.009432	-0.027560	-0.035418	-0.686523	0.144043	0.465576	-0.067030	-0.605249	0.531919	-0.588424
16249		7.566549	-5.388628	-3.052174	0.025310	-0.046369	-0.033950	-0.686279	0.146973	0.462646	-0.066872	-0.605535	0.531781	-0.588272
16250		7.684248	-5.275608	-3.047799	0.006339	-0.031461	-0.030464	-0.684326	0.141357	0.459717	-0.066852	-0.605717	0.531743	-0.588122
16251		7.630844	-5.426289	-2.874557	-0.006413	-0.023133	-0.022748	-0.680176	0.152100	0.454834	-0.066940	-0.605789	0.531837	-0.587953
16252		7.637074	-5.372338	-2.743194	0.032962	-0.049888	-0.032136	-0.688232	0.152344	0.462402	-0.066685	-0.606085	0.531652	-0.587844
16253		7.767559	-5.192356	-2.966203	0.031149	-0.053520	-0.028648	-0.687256	0.146729	0.466064	-0.066406	-0.606387	0.531494	-0.587707
16254		7.643555	-5.353701	-3.167609	0.001053	-0.037228	-0.019268	-0.691895	0.143066	0.462158	-0.066330	-0.606548	0.531538	-0.587509
16255		7.570128	-5.505363	-3.076748	-0.012884	-0.024272	-0.022033	-0.694092	0.147705	0.457031	-0.066455	-0.606603	0.531678	-0.587311
16256		7.581142	-5.529553	-2.946587	0.002248	-0.032539	-0.027171	-0.687256	0.145996	0.465332	-0.066486	-0.606716	0.531722	-0.587152
16257		7.590979	-5.435624	-2.989759	0.030852	-0.047576	-0.037245	-0.687744	0.139893	0.469727	-0.066311	-0.607014	0.531544	-0.587025
16258		7.710318	-5.220325	-3.147301	0.024940	-0.041514	-0.035246	-0.691406	0.149414	0.470459	-0.066217	-0.607259	0.531428	-0.586887
16259		7.718126	-5.243001	-3.203921	-0.028805	0.001485	-0.023522	-0.687256	0.138916	0.466797	-0.066470	-0.607238	0.531565	-0.586756
16260		7.555408	-5.475675	-3.052622	-0.022431	0.006904	-0.019322	-0.691650	0.146240	0.462158	-0.066766	-0.607136	0.531747	-0.586664
16261		7.618113	-5.370763	-3.024801	-0.001249	-0.006235	-0.025729	-0.685303	0.148926	0.467285	-0.066902	-0.607136	0.531780	-0.586617
16262		7.634765	-5.282238	-3.022114	-0.007126	-0.001594	-0.021364	-0.697266	0.145996	0.461670	-0.067006	-0.607143	0.531811	-0.586570
16263		7.647856	-5.248517	-3.020962	-0.014402	0.000006	-0.018571	-0.690186	0.144287	0.463623	-0.067222	-0.607055	0.531959	-0.586503
16264		7.661764	-5.206421	-3.043773	-0.028767	0.012339	-0.012265	-0.694092	0.158691	0.465088	-0.067513	-0.606894	0.532184	-0.586431
16265		7.614444	-5.380842	-3.055345	-0.027860	0.006778	-0.009624	-0.691895	0.142090	0.469971	-0.067657	-0.606808	0.532333	-0.586369
16266		7.632904	-5.353748	-3.010834	-0.000142	-0.001182	-0.008735	-0.689941	0.143555	0.464111	-0.067725	-0.606726	0.532442	-0.586347
16267		7.741699	-5.289681	-2.993093	0.032495	-0.016174	-0.010841	-0.692871	0.141846	0.469727	-0.067571	-0.606736	0.532390	-0.586401
